id,timestamp,acc_x,acc_y,acc_z,gyro_x,gyro_y,gyro_z
0,1778325852020,0.49907905599999997,-0.360447732,0.603419904,0.21168518,0.18386841,-0.15965271
1,1778325852030,0.54734176,-0.33449255,0.53093425,0.024459839999999997,0.05657958850000001,0.016647339999999997
2,1778325852040,0.6395501124999999,-0.32749096375000003,0.5216751625,-0.14465332,-0.0526123065,0.07711029
3,1778325852050,0.73111685,-0.309537985,0.55161843,-0.2610321,-0.09895324999999999,0.0299682606
4,1778325852060,0.78017205,-0.3054192,0.6204577625,-0.3411273875,-0.09389305275,-0.0500679005
5,1778325852070,0.8189435855555556,-0.3133744511111111,0.7313057333333333,-0.3749253955555556,-0.06805589444444443,-0.1325514022222222
6,1778325852080,0.79759270625,-0.38058913875,0.91918352375,-0.2037830325,-0.02139472975,-0.25546265
7,1778325852090,0.6859056133333333,-0.42444784666666663,0.9719054866666667,0.07141113333333333,-0.014094035066666668,-0.27985637333333335
8,1778325852100,0.5709813333333333,-0.3917986444444444,0.8497138622222222,0.3154805511111111,-0.04688008511111111,-0.14207967244444444
9,1778325852110,0.5182787933333333,-0.40354025,0.7082831066666667,0.39312744222222223,-0.2122887477777778,0.036892361666666665
10,1778325852120,0.48419198,-0.42363435,0.64100444,0.40289307,-0.34396362,0.14076233
11,1778325852130,0.5934529374999999,-0.3676232525,0.5635161125,0.31015396375,-0.321458816875,0.37105369499999996
12,1778325852140,0.72471,-0.33650684,0.5397209,0.22659302,-0.106414795,0.37937927
13,1778325852150,0.7740916644444444,-0.3529944133333333,0.5872303777777778,0.08366733205555556,0.02094692533333333,0.11175537222222223
14,1778325852160,0.7601123311111111,-0.35104164444444447,0.6874565433333334,0.014066907611111111,0.13493347222222224,-0.1461622411111111
15,1778325852170,0.73251987,-0.3460245,0.74948806,0.03804016,0.19825745,-0.23582458
16,1778325852180,0.7216135699999999,-0.34957847000000003,0.756901245,0.06700515625,0.25218773,-0.2579975125
17,1778325852190,0.6766301,-0.36420596,0.77084255,0.19250488,0.48535156,-0.31358337
18,1778325852200,0.6785432333333333,-0.35721067333333334,0.7416772133333333,0.24523926000000001,0.5370076466666667,-0.2315622953333333
19,1778325852210,0.7006165444444444,-0.32960485333333334,0.6942220177777778,0.29447089555555556,0.5336981866666667,-0.09639316142222222
20,1778325852220,0.7380121,-0.29562697,0.67846704,0.31767273,0.48854065,-0.0035858153999999997
21,1778325852230,0.8002324777777777,-0.24708591222222223,0.662237808888889,0.33974880222222226,0.42333137,0.11365424546666666
22,1778325852240,0.8599175,-0.20288433,0.6468622,0.3512268,0.37669373,0.22384644000000004
23,1778325852250,0.9153731444444444,-0.10787940444444444,0.5904976677777778,0.31809318555555555,0.2940707866666667,0.25841099666666667
24,1778325852260,1.0434086999999999,0.08514383,0.49652293333333336,0.18446011444444443,-0.10315619555555555,0.24124654333333334
25,1778325852270,1.1333842,0.20164154,0.4801712,0.09291077,-0.35835266,0.19773865
26,1778325852280,1.4310526222222224,0.4252656688888889,0.6851242722222222,-0.01930745311111111,-0.46085442000000004,-0.23321871444444447
27,1778325852290,1.6038045,0.534658,0.8018377,-0.084472656,-0.48937988,-0.5202484
28,1778325852300,1.6696998333333335,0.48271434333333335,0.9151623,-0.10683864977777778,-0.18719482222222222,-0.8661040999999999
29,1778325852310,1.7300901444444443,0.3920466588888889,1.0923749,-0.08979288712666667,0.13949076666666665,-1.1889376777777778
30,1778325852320,1.7279077,0.37894836,1.1739032,-0.00032043457,0.27122498,-1.2568817
31,1778325852330,1.786887922222222,0.4200990488888889,1.2526798111111113,0.2383660184766667,0.14179992666666666,-1.2772386333333334
32,1778325852340,2.0006418,0.576146,1.4409025,0.66973877,-0.16926575,-1.3282471
33,1778325852350,2.309320222222222,0.8519040888888889,1.4034799777777778,1.2459309744444445,-0.8373090833333333,-1.8450181666666667
34,1778325852360,2.4794411333333333,0.9648894333333333,1.2834035333333336,1.5918986,-1.4997863666666666,-2.5027008
35,1778325852370,2.6114220222222224,0.9863384777777777,1.160154888888889,1.527398,-1.987321633333333,-3.2184363333333335
36,1778325852380,2.6687891,0.9060303333333333,1.1739441666666668,1.2932840666666667,-2.1595306333333335,-3.751012166666667
37,1778325852390,2.6852217,0.7855476,1.2560285,1.0724182,-2.1719513,-4.1053925
38,1778325852400,2.637115877777778,0.5309151111111111,1.6057359222222223,0.9237535111111111,-2.1307711888888887,-4.475569055555556
39,1778325852410,2.5745970222222225,0.3629628322222222,1.9075941444444444,0.9721001333333334,-2.180894622222222,-4.696257
40,1778325852420,2.516849511111111,0.2513332701666667,2.1890317333333336,1.2323150444444444,-2.3452437,-4.747982622222223
41,1778325852430,2.4087048,0.0074940715,2.703288,2.409317,-3.1562653,-4.8734436
42,1778325852440,2.3969908,-0.021550512,2.7778478,2.6420898,-3.324585,-4.8729095
43,1778325852450,2.4334907444444447,-0.061426777333333335,2.8977205444444447,3.932654433333333,-4.175908422222222,-4.898895233333333
44,1778325852460,2.637332711111111,-0.11151307222222223,2.979140522222222,6.157338455555556,-5.598210644444444,-5.055967555555556
45,1778325852470,3.0064558666666668,-0.11197399888888888,2.7918264777777777,6.694588555555556,-5.922636255555556,-5.376317344444445
46,1778325852480,3.1859459555555554,-0.09479459888888889,2.625054111111111,6.9437968,-6.1564026,-5.799346933333333
47,1778325852490,3.2081144,-0.08170996,2.5470915,7.0474854,-6.3765564,-6.135254
48,1778325852500,3.2001961999999997,-0.08080158777777778,2.5210722444444444,7.0509762444444455,-6.418457022222222,-6.189522722222222
49,1778325852510,3.1368506,-0.07353461,2.3129182,7.078903,-6.753662,-6.6236725
50,1778325852520,3.2447590571428573,0.017742592857142858,2.0485351142857144,6.9198805142857145,-6.8699340285714285,-6.776774757142857
51,1778325852530,3.454626088888889,0.2604180366666667,1.5263625777777778,6.5187597888888895,-6.9049377,-7.061145222222223
52,1778325852540,3.5417407,0.32122937,1.2678653,6.122299,-6.9049377,-7.3880005
53,1778325852550,3.410160342857143,0.2973641571428572,0.6006825514285714,5.139598371428571,-6.963298428571429,-7.858016999999999
54,1778325852560,3.2837737,0.29169795,0.30249733,4.0562286,-6.735031,-8.060715
55,1778325852570,3.19698005,0.22799911625,0.22915773,2.771514875,-5.7451285625,-8.091215375
56,1778325852580,3.04413845,0.014875762499999999,0.2249777025,0.6526947,-3.9079437,-8.15114225
57,1778325852590,2.947217,-0.11929541999999999,0.33105195,-0.2053833,-2.8441467,-8.235428
58,1778325852600,2.70387655,-0.28511692499999997,0.5964335562499999,-0.48527909,-2.3425369,-8.278305
59,1778325852610,2.3716078,-0.46097562,0.9836615,-0.70817566,-1.7634277,-8.316925
60,1778325852620,2.0607613,-0.5039294000000001,1.2947115666666666,0.04141743999999999,-2.4546102,-8.185176
61,1778325852630,1.850363375,-0.540385275,1.4579863875,1.15517805,-3.465393025,-7.949871325
62,1778325852640,1.780379666666667,-0.5768216,1.3368523666666667,1.9594268666666668,-4.144119266666667,-7.784469566666668
63,1778325852650,1.6015771,-0.63236515,1.098520375,2.3573952,-4.51700975,-7.6254309750000004
64,1778325852660,1.3660924,-0.6838006,0.8613874,2.4988098,-4.697174,-7.399719
65,1778325852670,1.0495206375,-0.71865453125,0.50817597,2.2807617249999996,-4.637445425,-6.8417224625
66,1778325852680,0.7375369722222223,-0.78394487,0.12082423988888889,1.8388095333333334,-4.422153033333334,-6.126373311111111
67,1778325852690,0.4880965075,-0.7737652225,-0.029481660750000003,1.6082458,-4.2929077,-5.838043
68,1778325852700,0.31619912,-0.6756231866666667,-0.23093085333333332,0.4175177622222222,-3.4943102111111113,-4.222391733333334
69,1778325852710,0.421225,-0.57360756,-0.29300296,-0.33374023,-2.9299011,-3.3405304
70,1778325852720,0.797286465,-0.55353433,-0.29080708499999997,-1.0645141825,-2.144401525,-2.9716873
71,1778325852730,1.2080524444444445,-0.6845459844444445,-0.21558375333333332,-1.942175988888889,-0.9785088444444445,-2.763992311111111
72,1778325852740,1.2259581499999999,-0.780813075,-0.115329453,-2.1768532,-0.478790285,-2.9960498500000003
73,1778325852750,1.1936931444444445,-0.836539711111111,0.015227507333333334,-2.3076782,-0.13890076,-3.3096466
74,1778325852760,1.1802431,-0.8479282,0.04440603,-2.256012,-0.19535828,-3.3911438
75,1778325852770,0.8950758,-1.2062176444444443,0.2003185577777778,-1.1392636,-1.5552859755555555,-4.239381755555556
76,1778325852780,0.5057143375,-1.4549293375,0.116204966125,-0.4244880825,-2.3953342125,-4.8006115000000005
77,1778325852790,0.06665025666666666,-1.6343215333333332,0.033464084666666664,-0.30113049999999997,-2.3823513555555555,-4.972052555555555
78,1778325852800,-0.61913039,-1.8643043000000001,-0.0017817470000000002,-0.43014525,-1.7402649000000001,-4.68889625
79,1778325852810,-0.93060875,-1.9548498,-0.017828362,-0.5206909,-1.3112335,-4.430298
80,1778325852820,-1.4597252944444445,-1.9780484666666664,-0.054518758,-0.6908959333333333,-0.39747109999999997,-3.333667388888889
81,1778325852830,-1.6631473,-1.9605848,-0.08579919,-0.7891388,0.2376709,-2.3711395
82,1778325852840,-1.4560374666666667,-1.810245366666667,-0.15342971333333333,-0.8918253611111111,0.7379980944444444,-1.1982828888888888
83,1778325852850,-1.1482782,-1.6520963750000002,-0.18918836749999998,-1.004989625,1.1078681750000001,-0.45632935249999995
84,1778325852860,-0.8776494,-1.5254309,-0.21124478,-1.1012573,1.3119965,-0.16390991
85,1778325852870,-0.6221362575,-1.3507780125,-0.21109215625,-1.1437416,1.299348825,-0.1101169575
86,1778325852880,-0.5207151,-1.253308,-0.21588153,-1.1177826,1.1548767,-0.16870117
87,1778325852890,-0.447389905,-1.1424141125,-0.12861615225,-0.9663123875,0.6549968749999999,-0.430095675
88,1778325852900,-0.44560523500000004,-1.090247075,-0.0112395545,-0.7123146075,0.102916715,-0.7572708125000001
89,1778325852910,-0.5047693333333334,-1.0638786999999998,0.11355586666666667,-0.34794616666666667,-0.3361562066666667,-1.1148376333333332
90,1778325852920,-0.6422701625,-1.10513405,0.17959854,0.027248380000000003,-0.49423408125,-1.438302975
91,1778325852930,-0.8138274444444444,-1.1747889222222223,0.18701650222222221,0.2696177122222222,-0.46860080000000004,-1.6009521555555555
92,1778325852940,-1.1949833875,-1.3097305750000001,0.0993956139875,0.55915641875,-0.19781875125,-1.4743957625
93,1778325852950,-1.4922658666666666,-1.4028737333333334,-0.043129535133333334,0.7069125666666667,0.06326633,-1.1366814844444444
94,1778325852960,-1.7473470500000001,-1.4829495,-0.19756183,0.7304687375,0.3183670025,-0.5215721125
95,1778325852970,-1.9190822333333333,-1.4979339666666667,-0.32363252000000003,0.6406300944444445,0.5108523822222222,0.27036878666666664
96,1778325852980,-1.9684631,-1.4624639,-0.3883074,0.5051575,0.6504669,0.98124695
97,1778325852990,-1.7442498625,-1.4001540499999998,-0.402554575,0.22625923662500003,0.9639243875,1.85969160625
98,1778325853000,-1.4794116666666666,-1.3562863444444444,-0.39340592888888887,0.011405097,1.2541147555555554,2.4276377666666664
99,1778325853010,-1.292728375,-1.30025725,-0.38307529875,-0.0735549925,1.3757076375000001,2.6792145
100,1778325853020,-1.120881875,-1.2241574875,-0.38237341375,-0.10817337125000001,1.41020015,2.959985675
101,1778325853030,-1.04141,-1.2018108,-0.40014422,-0.07489014,1.3439484,3.0478668
102,1778325853040,-0.994002725,-1.200164175,-0.4716225425,-0.0013732923749999989,1.10206605,3.1754913
103,1778325853050,-0.952787675,-1.180334475,-0.55786619,0.0558891285,0.806121815,3.342937425
104,1778325853060,-0.8197666133333333,-1.1297740333333333,-0.68032213,0.05059136333333333,0.2105611155555555,3.5513169777777778
105,1778325853070,-0.6588053725,-1.0733762,-0.7982483075,-0.001302718750000001,-0.29849815375,3.6707038875
106,1778325853080,-0.5166881,-1.0328007,-0.83444417,-0.21336365,-0.63264465,3.7876892000000004
107,1778325853090,-0.34886766375,-1.041175525,-0.73607439625,-0.5838833,-0.528589245,3.8753738375
108,1778325853100,-0.26848157333333333,-1.0508209333333334,-0.6254091666666667,-1.0160471666666666,-0.26780191999999997,3.9865417333333335
109,1778325853110,-0.28404056,-1.0470788,-0.472019185,-1.38648225,0.084007265,4.2018127
110,1778325853120,-0.32111688,-1.0430116,-0.35584812666666665,-1.5848897333333332,0.2751363133333333,4.475667266666666
111,1778325853130,-0.33388904,-1.0470796,-0.25114784,-1.652008,0.33514404,4.727783
112,1778325853140,-0.1571236968888889,-1.1085542,-0.06334497133333333,-1.5310431555555555,0.36929151444444447,5.2422519888888885
113,1778325853150,-0.015149908,-1.1511691,0.056365747,-1.4293671,0.40278625,5.562958
114,1778325853160,0.21064386666666668,-1.1814725,0.11400383666666666,-1.2571512999999999,0.5474955266666667,5.896738666666667
115,1778325853170,0.3830294175,-1.203397375,0.09806882374999999,-1.1210365,0.6603183775,6.219953374999999
116,1778325853180,0.4761784133333334,-1.2130374,0.012800686666666665,-1.1099684333333333,0.6877424422222222,6.623482622222222
117,1778325853190,0.58337065,-1.18960845,-0.0611794225,-1.213857675,0.6582565250000001,7.0318927625
118,1778325853200,0.7370353,-1.1735004,-0.07737964,-1.4016724,0.5561981,7.449005
119,1778325853210,1.095204415,-1.2049378125,0.002565684875,-1.5963439875,0.43275451125000003,7.733495625
120,1778325853220,1.5489222125,-1.2426142375,0.09507928625,-1.8781680875,0.28534698375,8.0313032125
121,1778325853230,1.9572001666666665,-1.2989869,0.13783979999999998,-2.3192139333333333,0.25614420666666665,7.924652133333333
122,1778325853240,2.0594293749999997,-1.321856725,0.218816245,-2.6363106,0.28481675,7.820652
123,1778325853250,2.1010714,-1.28479,0.349966,-2.923935,0.3111725,7.751541
124,1778325853260,2.1996246,-1.211344875,0.7238924375,-3.0598888375,0.27189636624999997,7.7329616125
125,1778325853270,2.3555961333333335,-1.218773177777778,1.0591553777777778,-2.8649902333333332,0.2850748733333333,7.686375866666667
126,1778325853280,2.5174184,-1.2035650875,1.3770963250000001,-2.3649330625,0.34879303,7.584291375
127,1778325853290,2.5730787,-1.1664641333333334,1.3846881333333334,-1.8799693333333336,0.30478922333333336,7.522506666666668
128,1778325853300,2.6201813,-1.1628846,1.334738,-1.381424,0.20678711,7.478836
129,1778325853310,2.9032738666666664,-1.228331611111111,1.1590437222222223,-0.79074095,-0.08971659533333333,7.3856251
130,1778325853320,3.0611775375,-1.25103425,1.071842375,-0.43780708125,-0.32711411,7.2795639375
131,1778325853330,3.181634766666667,-1.1726868666666668,0.9589710333333333,-0.2275746733333333,-0.4490763366666667,7.128351833333334
132,1778325853340,3.242679175,-1.054522265,0.83591485,-0.1374702425,-0.46394729500000004,6.950988775000001
133,1778325853350,3.2559502,-0.98752826,0.7986661,-0.17501831,-0.36686707,6.853531
134,1778325853360,3.2369444874999997,-0.93645932,0.7115522224999999,-0.3535823875,-0.07977676375000001,6.657386750000001
135,1778325853370,3.1955054555555553,-0.9063795888888888,0.6259948822222222,-0.4981452177777778,0.09190707777777778,6.551703388888889
136,1778325853380,3.096947075,-0.86145853125,0.55781156875,-0.908460625,0.3297500625,6.5149707875
137,1778325853390,3.0115269333333337,-0.8000935133333332,0.5697801666666666,-1.394928,0.6110483833333333,6.531636566666666
138,1778325853400,3.0078664,-0.77300304,0.6330717,-1.6062012,0.75486755,6.5643005
139,1778325853410,3.0905402,-0.762858735,0.7571149025,-1.6088046875000002,0.83156203125,6.5151672125
140,1778325853420,3.1442122888888893,-0.7245840133333332,0.7970521311111111,-1.4797346333333334,0.7903662555555555,6.440256733333333
141,1778325853430,3.2036765125,-0.645634975,0.7289563175,-1.177429175,0.633949275,6.26370045
142,1778325853440,3.2555834666666668,-0.5743801166666667,0.6326247866666667,-0.8116302333333333,0.4343312555555556,6.040898655555555
143,1778325853450,3.282674,-0.52735835,0.5812105,-0.5286865,0.285614,5.868149
144,1778325853460,3.306378075,-0.35171390025,0.4725896375,-0.27848051749999997,0.177089685,5.719677125
145,1778325853470,3.3346581,-0.102089226,0.3050591,0.099823,0.01184082,5.4803925
146,1778325853480,3.3590368777777777,-0.03396994466666667,0.2272318504444445,0.16776360666666668,-0.04929606111111111,5.387715699999999
147,1778325853490,3.4443626,0.20444754,-0.045163523,0.5104828,-0.40522766,4.8385773
148,1778325853500,3.4356842000000003,0.26595002,-0.09972393811111112,0.5275319555555557,-0.4610951622222223,4.688959788888889
149,1778325853510,3.3429255,0.36177308375,-0.17928823875,0.40063286500000006,-0.44857024,4.3084030375
150,1778325853520,3.1297587777777776,0.5370708255555555,-0.30306434555555556,0.08065117444444445,-0.33728705555555555,3.540135688888889
151,1778325853530,2.99938485,0.59342824375,-0.27170986625,-0.1284065225,-0.1874389625,3.1222343125
152,1778325853540,2.9129008666666665,0.62719514,-0.23833452444444447,-0.20809597,-0.17216152666666668,2.815465288888889
153,1778325853550,2.820917975,0.61781975125,-0.22797733625000002,-0.21863174375,-0.27565956,2.485599525
154,1778325853560,2.602989111111111,0.5566086333333333,-0.2297380088888889,-0.23123508,-0.4300774488888889,2.081080155555556
155,1778325853570,2.4591038,0.5441757,-0.2175894,-0.23786925999999997,-0.4648742699999999,1.9261322000000003
156,1778325853580,2.377161325,0.548385445,-0.182597615,-0.1673011755,-0.4803199775,1.9074974
157,1778325853590,2.352531266666667,0.6333776333333333,-0.15023036666666667,0.02631632533333333,-0.5366007466666667,1.8940023
158,1778325853600,2.467564088888889,0.7755282555555555,-0.19467562444444445,0.19096883333333334,-0.7006564755555555,1.7559916111111111
159,1778325853610,2.7154094625000003,1.0208802,-0.27511021750000003,0.4674110425,-1.0486412250000001,1.3793277625
160,1778325853620,2.7601483,1.0554742,-0.28141034,0.5088806,-1.1008453,1.2800598
161,1778325853630,2.8001602555555554,1.2513173555555557,-0.2741836211111111,0.8133850055555556,-1.2574852777777776,0.017361110000000006
162,1778325853640,2.6072770125,1.309371,-0.24789815124999998,0.93740081,-1.179927825,-0.6656570525000001
163,1778325853650,2.3350810666666666,1.2957495666666667,-0.22051826666666666,0.98074172,-1.0184563844444443,-0.8977017111111112
164,1778325853660,2.2023954,1.2783810666666666,-0.28808157,0.9916890444444445,-0.7130279611111111,-1.1435462333333333
165,1778325853670,2.2066262,1.2729298,-0.40075395,0.9520416,-0.649704,-1.2116089
166,1778325853680,2.428894022222222,1.2791126444444445,-0.6177083688888889,0.47243753066666666,-0.5995737777777778,-1.573021777777778
167,1778325853690,2.6033406,1.286109,-0.76086134,0.103027344,-0.5516968,-1.8518219
168,1778325853700,2.65813185,1.2687811,-0.733953935,-0.35956954399999996,-0.4385109,-2.192577375
169,1778325853710,2.714469,1.2200103666666666,-0.5631747666666667,-1.1497294,-0.21542358333333333,-2.8000996666666667
170,1778325853720,2.771741,1.1951971,-0.4025847,-1.4735718,-0.10748291,-3.0891418
171,1778325853730,2.8918169750000002,1.1899813375,-0.011284848750000007,-1.4797687875,0.002775192250000001,-3.5159721250000002
172,1778325853740,2.9706063888888887,1.1935168888888887,0.2924089644444444,-1.3682929444444445,0.11220635244444445,-3.8577186
173,1778325853750,3.0194047,1.2989091222222222,0.49123430222222225,-0.6760457222222223,0.1954193088888889,-4.431776377777777
174,1778325853760,3.0598808749999997,1.3638113374999998,0.523841125,-0.2097702,0.1569747925,-4.707931675
175,1778325853770,3.2237352555555554,1.5037816888888889,0.19406762551111112,0.2292633033333333,0.061014813333333334,-4.926890033333333
176,1778325853780,3.4161742,1.6612662333333335,-0.09576484173333334,0.30133565333333334,0.06403605133333333,-5.053126
177,1778325853790,3.6033652,1.7816681,-0.28263134,0.20262146,0.111968994,-5.0960846
178,1778325853800,4.5958657333333335,1.8519972777777778,-0.3164058111111111,-0.13951110666666666,0.2872161866666667,-5.295654333333333
179,1778325853810,5.387383755555556,1.8187103444444443,-0.22420654222222222,-0.3828684466666667,0.38332621111111115,-5.769341222222222
180,1778325853820,6.220361175,1.54383355,-0.0500133625,-0.47581481999999997,0.320762645,-6.621684875
181,1778325853830,6.538506922222222,1.2383829366666665,0.12487699555555556,-0.4419776111111111,0.21169026555555556,-7.460383111111112
182,1778325853840,6.6682367,0.83606803,0.3957268,-0.27674866,0.23394775,-8.299332
183,1778325853850,6.610178322222222,0.5668994877777778,0.51078626,-0.11743164133333332,0.25779723777777774,-8.622345222222222
184,1778325853860,6.472747,-0.03204501,0.7183701,0.4204712,0.27922058,-9.475922
185,1778325853870,6.444110555555556,-0.17218736555555558,0.7275906866666667,0.5530395555555555,0.2583872466666667,-9.611324666666667
186,1778325853880,6.456721244444444,-0.9237487799999999,0.8101765022222223,1.2544521888888889,0.11896091,-10.276236444444445
187,1778325853890,6.404899,-1.2805203,0.81501687,1.5448608,0.09120178,-10.596054
188,1778325853900,6.224920333333333,-1.4201749444444447,0.7698391655555555,1.6522148444444444,0.04930114577777778,-10.666359777777778
189,1778325853910,5.5669421111111115,-1.922226788888889,0.6044904888888889,2.0384300222222222,-0.12025621022222222,-10.910003833333334
190,1778325853920,5.1178636666666675,-2.0803769333333335,0.4837912,2.1280975666666664,-0.4924011133333333,-10.858459333333334
191,1778325853930,4.655328325,-2.1851484625,0.35568627,2.1354885125000003,-0.8761348725,-10.790794
192,1778325853940,4.5627556,-2.1896331,0.33935016,2.105194,-0.9176177999999999,-10.767029
193,1778325853950,3.5416739555555554,-2.239637055555556,0.18087513777777778,1.4127705777777777,-0.7973514,-10.320089
194,1778325853960,3.0264964,-2.2237193,0.15219850666666668,1.0060170333333334,-0.6232401466666667,-9.975179333333333
195,1778325853970,2.6419023,-2.10038385,0.2081226425,0.8037700725,-0.58225441,-9.537977125
196,1778325853980,2.378605166666667,-1.9337385333333335,0.28069430666666667,0.7203470900000001,-0.7358093233333334,-8.976135000000001
197,1778325853990,2.2803319,-1.8434374,0.29663956,0.77786255,-0.95703125,-8.717987
198,1778325854000,2.046356725,-1.749125125,0.24946039,0.7718715725,-1.2312660125,-8.357263249999999
199,1778325854010,1.834763711111111,-1.677831722222222,0.22358455111111109,0.72536892,-1.4374558888888889,-8.044090833333334
200,1778325854020,1.5858671666666666,-1.6244367,0.23464885333333335,0.6147054,-1.5597941000000002,-7.630711899999999
201,1778325854030,1.2452983888888889,-1.5366851000000001,0.23421540444444444,0.4191691022222222,-1.574354388888889,-6.92917718888889
202,1778325854040,1.1615270375,-1.416688475,0.21956342375000001,0.20049286,-1.31655885,-6.3192825500000005
203,1778325854050,1.2211629333333331,-1.2859710333333334,0.19218348333333332,-0.018422443333333333,-0.9069621,-5.9174092
204,1778325854060,1.2795746,-1.2263399,0.15191439,-0.22189331,-0.47552490000000003,-5.661743
205,1778325854070,1.142856975,-1.2152496625,0.07858976,-0.54140471875,0.16929436375,-5.2922325
206,1778325854080,0.96844252,-1.2055939111111114,0.020149758555555553,-0.7802717444444444,0.5673743511111111,-4.917839922222222
207,1778325854090,0.77555605,-1.1656500666666667,0.0052760260000000005,-1.0259857,0.7818450888888889,-4.260925255555556
208,1778325854100,0.7757183466666667,-1.1680506,0.09366604733333334,-1.0069936,0.7142079666666666,-3.959808333333333
209,1778325854110,0.8186721,-1.2130378,0.18339789,-0.8908844,0.5540619,-3.7570496
210,1778325854120,0.7391364666666667,-1.3151894777777777,0.22012785222222223,-0.39327833333333334,0.28063795333333336,-3.6249559555555555
211,1778325854130,0.58258708,-1.4553456666666669,0.049083733333333324,0.01974996,0.23128255333333333,-3.5656586
212,1778325854140,0.227977152,-1.67180425,-0.34013721875,0.22766113999999998,0.51757051,-3.43720245
213,1778325854150,-0.06652375822222223,-1.8229770444444446,-0.66409275,0.24885051333333333,0.6993459333333334,-3.332185488888889
214,1778325854160,-0.2510312,-1.9023774,-0.87007755,0.22659302,0.7410126,-3.269699
215,1778325854170,-1.17936435,-2.3226290625,-1.7331553312499999,-0.989143375,0.74074555,-1.463272115
216,1778325854180,-1.5766291222222222,-2.4788272222222223,-2.140747733333333,-1.6182691888888892,0.6794009999999999,-0.7114613822222222
217,1778325854190,-1.18608226,-2.388580422222222,-2.1211146666666667,-2.8800150555555555,1.0981767777777778,0.12701926666666666
218,1778325854200,-0.640394685,-2.30513315,-1.94048155,-3.998384475,1.5823746125,0.6321678375
219,1778325854210,-0.43492836,-2.2720025,-1.6731472,-4.5399323,1.9165344000000002,0.5599365
220,1778325854220,-0.4802961711111111,-2.1269784555555558,-1.1008055555555556,-4.306408411111111,1.6683281555555556,0.017008453333333316
221,1778325854230,-0.564629825,-2.043443375,-0.61409117125,-3.9556427,1.3594055,-0.41903687
222,1778325854240,-0.7978412666666667,-2.0381137,-0.39152143333333334,-2.7144318333333333,0.5174814733333333,-0.7846120266666667
223,1778325854250,-1.1074417555555556,-2.0365410555555554,-0.34542084444444443,-1.1692046999999999,-0.4815046511111112,-1.0556657777777778
224,1778325854260,-1.2079797,-2.088471,-0.3856227,-0.6336212,-0.79989624,-1.102417
225,1778325854270,-1.4613790666666668,-2.110504222222222,-0.5744015111111112,0.004072403999999992,-1.3405168644444445,-0.87226021
226,1778325854280,-1.6520414,-2.114708,-0.7127814,0.3661499,-1.6995087,-0.59588623
227,1778325854290,-1.7113611000000002,-2.105948777777778,-0.7257032488888888,0.3667365222222222,-1.731943788888889,-0.3285590222222222
228,1778325854300,-1.911749225,-1.996827775,-0.710249945,0.17852020825,-1.5987167,1.0129470875
229,1778325854310,-1.8184898000000003,-1.9272721000000002,-0.62394446,0.016723633,-1.3746185,1.6273346
230,1778325854320,-1.5156278222222221,-1.773257722222222,-0.4929813977777778,-0.19525485377777776,-0.8873731822222222,2.478422388888889
231,1778325854330,-1.301332,-1.6686924,-0.42931014,-0.32681274,-0.57832336,2.9914093
232,1778325854340,-0.8844008666666667,-1.5121297111111112,-0.37952230444444446,-0.5230034688888889,-0.2150065094444444,3.4452057000000003
233,1778325854350,-0.48877052,-1.3888404,-0.28523426222222226,-0.6694200244444445,0.07350328166666667,3.737091111111111
234,1778325854360,-0.2796771775,-1.3236112,-0.20312931374999998,-0.6682414875,0.159580226875,3.8796348125
235,1778325854370,-0.16055360444444444,-1.2816044333333332,-0.11328297814444444,-0.48223030666666666,-0.05503675611111111,4.0929412
236,1778325854380,-0.06347252,-1.2658759,-0.0061144033,-0.23573303,-0.36740112,4.2702484
237,1778325854390,-0.028857414333333338,-1.2735235,0.0261831069,0.18203226,-0.8961283499999999,4.502833066666667
238,1778325854400,0.029086773625,-1.2632533124999998,0.03450667825,0.6794681375,-1.5465221875,4.7952919375
239,1778325854410,0.21662398333333333,-1.2876373333333335,0.049626923999999996,1.2477671444444445,-2.2168833666666665,5.189168377777778
240,1778325854420,0.35728273,-1.3266467,0.09394965,1.5501862,-2.4132385,5.4356537
241,1778325854430,0.38083354,-1.3350662,0.10761723,1.598114,-2.4116516,5.4926453
242,1778325854440,0.67137026,-1.4922934444444445,0.051104581999999996,1.7006191555555557,-1.8648105333333334,6.199276588888889
243,1778325854450,0.9025057666666666,-1.5720461000000001,-0.05842358200000001,1.5655687333333335,-1.4675225333333333,6.630176266666667
244,1778325854460,1.16517265,-1.63757515,-0.18995013500000002,1.1070328,-1.0803299,7.20079035
245,1778325854470,1.3634083,-1.6717840666666666,-0.25147292000000004,0.7242533533333333,-0.95045472,7.577189
246,1778325854480,1.5279025,-1.6891946,-0.27189264,0.39437866,-0.9074859600000001,7.862335
247,1778325854490,1.7516729875000001,-1.7617239875000001,-0.0952558275,-0.04545211662500001,-1.017148965,8.508875125
248,1778325854500,2.0528834666666667,-1.8101095555555555,0.15055839222222223,-0.41896565333333335,-1.099305888888889,9.204851222222223
249,1778325854510,2.4942472,-1.7904764000000002,0.38083977,-0.53826904,-1.0401154,9.539581
250,1778325854520,3.0166926666666667,-1.7619223333333334,0.6428624955555555,-0.5691629955555555,-0.6134779374888889,9.667833111111111
251,1778325854530,3.6675532,-1.716161,0.9440026,-0.5398712,0.0048980713,9.708435
252,1778325854540,3.948042477777778,-1.6176978555555557,0.8563851155555555,-0.29308912000000004,0.24672614376666668,9.327779
253,1778325854550,4.100144,-1.5453217,0.77377146,-0.10472107,0.3548584,9.012817
254,1778325854560,4.0556951,-1.3201634,0.634063705,-0.131473543625,0.172893525,8.639503375
255,1778325854570,3.9919857333333337,-1.1237939,0.60781256,-0.2549133333333333,0.09191385999999999,8.399576666666666
256,1778325854580,3.993978955555556,-1.0359061611111111,0.68583026,-0.37878248444444446,0.1361796088888889,8.315241333333333
257,1778325854590,4.063840625,-0.92038298125,0.8729353062499999,-0.42615699500000004,0.26264190625,8.174581875
258,1778325854600,4.081392066666666,-0.8417593999999999,0.9510394000000001,-0.3794928622222222,0.33833651777777773,8.085442777777779
259,1778325854610,4.047712955555555,-0.7050866888888889,0.8808043777777779,-0.27994283333333336,0.49280294,7.9819897666666675
260,1778325854620,4.0825724333333335,-0.6448727766666668,0.7212585333333333,-0.23254394333333334,0.6733703666666666,7.8713836666666674
261,1778325854630,4.205333066666667,-0.5782038766666666,0.49782432000000004,-0.35167439666666667,0.7537943333333333,7.700403833333334
262,1778325854640,4.26412684,-0.450602442,0.33715297,-0.56021423,0.78852232,7.44719236
263,1778325854650,4.2864814,-0.28025153,0.24929221,-0.80778503,0.8209076,7.145935
264,1778325854660,4.210376733333334,-0.128935468,0.2833795,-0.9641113433333334,0.8179753666666666,6.8718109499999995
265,1778325854670,4.1075883,0.039098896,0.34337717,-1.1497344999999999,0.827301,6.4694977
266,1778325854680,3.9877730857142857,0.17247585714285713,0.21796559142857141,-1.2855573428571427,0.8932625971428572,6.357942857142858
267,1778325854690,3.9216684571428573,0.2808023657142857,0.06274502057142857,-1.438720742857143,0.9308515285714286,6.316851
268,1778325854700,3.9300356,0.29657887999999993,0.043917622,-1.4757079999999998,0.9226379400000001,6.315033
269,1778325854710,4.260869233333334,0.47097187,-0.03251336922222223,-1.7356889555555555,0.6398722433333334,6.008767
270,1778325854720,4.427669,0.6913423666666666,-0.0017203083333333323,-1.8224436666666664,0.35893758,5.592778433333333
271,1778325854730,4.46441202,0.9719711099999999,0.09242532649999999,-1.6841766399999998,0.20156249599999998,5.0840118599999995
272,1778325854740,4.4905956,1.3463912999999998,0.19808116333333334,-1.4800855888888889,0.07836405622222221,4.460218655555555
273,1778325854750,4.488806,1.5213805,0.22061627,-1.335083,0.046463013,3.9916840000000002
274,1778325854760,4.2535074222222224,1.6771159,0.14143267622222222,-1.226786288888889,0.076997545,3.5258127999999997
275,1778325854770,3.7074564,1.9926547000000001,-0.045042202,-1.0251007,0.14233398,2.6388092
276,1778325854780,3.5037355333333333,2.0785356444444445,-0.03824824933333334,-0.9105886,-0.12304348500000001,2.2629954111111115
277,1778325854790,3.3107402,2.1461666,0.07393746,-0.6636234033333334,-0.3708377433333333,1.8357085777777777
278,1778325854800,3.3403945,3.093353,0.7734059,0.14030457,-0.20228577,1.4616852
279,1778325854810,3.337614822222222,3.364365288888889,0.5416867955555555,1.0524105611111112,-0.9937760944444444,1.395523088888889
280,1778325854820,3.30943513,2.81538386,-0.32759825400000003,2.373108,-1.6776733,1.1895142
281,1778325854830,3.676745766666667,2.7023734333333334,-0.9600531000000001,1.2229767033333332,-0.6223500666666666,0.12104286666666668
282,1778325854840,3.5476398000000002,1.9778893999999998,-1.1276794333333333,-0.11144849222222221,-0.26454163333333336,-1.567050511111111
283,1778325854850,2.9488319555555553,1.6003055888888889,-0.8558675166666667,-1.0734540777777777,0.008161756666666665,-2.7416754
284,1778325854860,1.8832911666666665,1.1260073233333334,-0.10471272000000001,-1.6508161444444445,0.08024427444444444,-3.5196804666666663
285,1778325854870,1.3254583,0.88854057,0.28577954,-1.7212524,-0.1463623,-3.6974029999999996
286,1778325854880,0.9186274633333333,0.7269741966666667,0.5470701544444444,-1.5865495222222221,-0.30911424111111113,-3.4910397444444445
287,1778325854890,0.4572501977777778,0.48973677222222217,0.6924462166666667,-1.3705410333333332,-0.23488871666666666,-2.7827487888888887
288,1778325854900,0.5121369,0.41738775,0.64515275,-1.4027405,0.12635803,-2.4196167
289,1778325854910,0.78063622,0.342425719,0.649473153,-1.54047544,1.03918153,-2.0805389400000003
290,1778325854920,0.8823717,0.30646366,0.67919964,-1.5449524,1.3242493,-2.0712738
291,1778325854930,0.8804324111111111,0.26340032444444444,0.7939604533333333,-1.2282070666666667,1.4582349888888888,-2.2009938444444446
292,1778325854940,0.8896925777777778,0.24047239444444443,0.9222798000000001,-0.8094397444444444,1.324662911111111,-2.3382398444444448
293,1778325854950,1.0360732888888888,0.24582808888888888,1.1150856333333334,-0.19418333888888892,0.8595563988888889,-2.5082702888888893
294,1778325854960,1.1122739,0.2438622,1.1980653,0.62820435,0.15458679,-2.7615662
295,1778325854970,1.1774372,0.2565545,1.2582247,1.0064867055555555,-0.16120911222222223,-2.885128422222222
296,1778325854980,1.4079485666666667,0.26350988666666664,1.2001402666666667,2.842647977777778,-1.1693742777777778,-3.560101011111111
297,1778325854990,1.4013189777777777,0.2521071944444444,1.0568651,3.3199530666666663,-1.2248230333333332,-3.7334391666666664
298,1778325855000,1.33700116,0.314102094,0.747389152,3.59293816,-0.908563244,-3.6359375
299,1778325855010,1.4619661666666666,0.4002629588888889,0.31582545933333334,3.6009979333333337,-0.5655466733333333,-3.302190133333333
300,1778325855020,1.6356535,0.45863312,0.122138746,3.458603,-0.45475769999999993,-3.0252228
301,1778325855030,2.3953494444444448,0.6974163266666666,0.037559363444444445,3.068954511111111,-0.53098382,-2.6679976
302,1778325855040,3.069231877777778,0.9579612288888888,0.07647281555555556,2.8525882555555553,-0.6388702333333334,-2.528627211111111
303,1778325855050,3.9911731666666665,1.386253922222222,0.1018547,2.692147122222222,-0.6104600622222223,-2.797136122222222
304,1778325855060,4.779477666666668,1.7486789333333332,-0.04015918333333333,2.458567266666667,-0.43084716666666667,-3.2251349888888887
305,1778325855070,5.202917,1.9565344,-0.22954755,2.1163788,-0.20921326,-3.7496032999999995
306,1778325855080,5.422569,1.8993437666666668,-0.6299650166666667,1.5419040333333334,-0.06663682844444445,-4.585652666666666
307,1778325855090,5.481509,1.7485981,-0.9958886999999998,0.8140869,0.094940186,-5.59729
308,1778325855100,5.137658622222222,1.5270751222222223,-0.85419958,-0.03137546622222223,0.20761108733333333,-6.40535488888889
309,1778325855110,4.6348734,1.2258266,-0.32021526,-0.7726288,0.2696228,-7.044464
310,1778325855120,4.488927,1.1449224,-0.055658024,-0.8440094,0.25419617,-7.122757000000001
311,1778325855130,4.28240608,1.036097234,0.2761871856,-0.63638916,0.24748230200000002,-7.10656436
312,1778325855140,3.9095363999999995,0.8361894,0.8118453,-0.20005798,0.26963806,-7.0503235
313,1778325855150,3.7863413777777777,0.731651911111111,0.7740977333333334,0.13946872333333332,0.4820963544444445,-6.9972941111111115
314,1778325855160,3.7378416,0.7157476,0.81001455,0.56640625,0.77456665,-6.946991
315,1778325855170,3.4255835777777777,0.32916121333333337,0.5514086111111111,0.692237,0.8947092677777779,-7.085356
316,1778325855180,3.1969967111111113,0.013201639999999994,0.39461519888888885,0.8089446888888889,1.0297648111111113,-7.294146977777777
317,1778325855190,3.0641217,-0.17908934,0.3702224,0.8598938,1.1138611,-7.495071399999999
318,1778325855200,2.7428604111111112,-0.47471042666666663,0.30004267,1.0086771666666667,1.01745099,-7.781982533333332
319,1778325855210,2.31979592,-0.796041784,0.213025442,1.18223878,0.761361702,-7.94886472
320,1778325855220,1.9638978777777778,-0.9891295000000001,0.14703291555555553,1.3026241555555556,0.4000091666666667,-7.945253111111111
321,1778325855230,1.6174585666666665,-1.1294215777777776,0.10207194444444444,1.3538801222222223,0.040476484444444454,-7.835060888888888
322,1778325855240,1.4626179,-1.1760638,0.0885803,1.3461914,-0.10748291,-7.745407
323,1778325855250,1.2923467999999998,-1.1973368666666666,0.070723941,1.204091411111111,-0.18749491444444444,-7.488793333333334
324,1778325855260,1.110185422222222,-1.2071531666666668,0.05350496155555556,1.0425822333333334,-0.19364590444444443,-7.254793044444444
325,1778325855270,0.9523616444444445,-1.156334811111111,0.12997553222222222,0.6840667755555555,0.001422454444444437,-6.811286033333333
326,1778325855280,0.8601617,-1.1223702,0.19193876,0.45030212000000003,0.15618896,-6.5065002
327,1778325855290,0.8327052,-1.114439,0.21378325,0.4143185111111111,0.1841159377777778,-6.437381355555555
328,1778325855300,0.60773312,-1.0329724,0.386428734,0.2254776,0.628730769,-5.46365975
329,1778325855310,0.5018855688888889,-0.9690350444444444,0.47629298666666664,0.20854017555555554,0.8872528066666666,-4.931571333333334
330,1778325855320,0.4993367111111111,-0.9283048222222222,0.48811635555555555,0.37401327777777776,0.9899885222222221,-4.325078444444444
331,1778325855330,0.5087052333333334,-0.8996145288888889,0.4793171144444444,0.5746934777777777,0.9280870222222222,-3.848188622222222
332,1778325855340,0.5505747,-0.83767796,0.44905323,0.7602844,0.7383423,-3.5296173
333,1778325855350,0.6982164955555556,-0.7717687488888889,0.4025470188888889,0.8867628111111111,0.5771942155555556,-3.376044388888889
334,1778325855360,1.1037315,-0.6374285,0.28187385,1.037796,0.36869812,-3.2467957
335,1778325855370,1.3351248333333334,-0.6117217222222222,0.19292801,1.025548288888889,0.36686197888888894,-3.5226932333333334
336,1778325855380,1.49455247,-0.645750346,0.054399834999999994,0.8601654099999999,0.6264953600000001,-4.2727463100000005
337,1778325855390,1.2912083844444444,-0.7503865577777779,-0.07150787888888889,0.6215735666666666,0.9344109333333334,-4.722537544444445
338,1778325855400,0.9020591344444444,-0.8908009866666666,-0.21299361,0.31631639,1.1597205,-4.9780239222222225
339,1778325855410,0.5874291,-0.97764504,-0.29727417,0.08598328,1.288559,-4.9544067
340,1778325855420,0.054515299999999996,-1.0289508266666667,-0.3768908633333333,-0.22484842666666666,1.6067149111111112,-4.404730877777777
341,1778325855430,-0.31717125,-1.039514,-0.42845464,-0.4378390811111111,1.7962120888888888,-3.833511333333333
342,1778325855440,-0.66385374,-1.1239563000000001,-0.5481244133333333,-0.530517578888889,1.7276899333333333,-2.960467866666667
343,1778325855450,-0.7927969666666667,-1.1705305666666668,-0.62048779,-0.6517774788888889,1.788467388888889,-1.9123771777777776
344,1778325855460,-0.70117025,-1.1642133300000002,-0.6183680810000001,-0.682778935,1.96069639,-1.31307067
345,1778325855470,-0.46795759555555555,-1.252845888888889,-0.598021288888889,-0.3417341442222222,1.7927839222222224,-0.9092475066666665
346,1778325855480,-0.3898182433333333,-1.3384021000000002,-0.62496222,0.19900851722222224,1.3946092,-0.7636650777777777
347,1778325855490,-0.47715004333333333,-1.3576417666666667,-0.7558176066666666,0.6832377066666667,1.0369771,-0.7276204233333333
348,1778325855500,-0.6036662933333334,-1.3439875444444445,-0.9377896555555556,1.1170382888888888,0.6285027244444444,-0.7195705877777778
349,1778325855510,-0.7118124,-1.3890023,-1.2422645,1.4372711,0.20678711,-0.7572632
350,1778325855520,-0.7859235333333333,-1.4345599,-1.4742001666666669,1.4372711,0.20678711,-0.7572632
351,1778325855530,-1.0271741,-1.5774958333333333,-1.9381119999999998,1.3904012222222224,-0.15920003333333332,-0.9837561888888889
352,1778325855540,-1.4808760333333335,-1.7960501666666664,-2.3403995333333336,0.5740508911111111,-0.3112996444444444,-0.9626261177777778
353,1778325855550,-1.9905978400000002,-1.97657116,-2.5008921,-0.10353088299999999,-0.29437714,-0.719444279
354,1778325855560,-2.2084928,-2.0302634,-2.3784733,-0.7209625,-0.15008545,-0.23529053
355,1778325855570,-2.3035125,-2.0340867,-2.1276630666666665,-1.0348663333333332,-0.07179260266666668,0.3736928433333333
356,1778325855580,-2.4066672,-2.026602,-1.824584,-1.2823639,-0.009475708,1.091507
357,1778325855590,-2.3852312,-1.9767331333333336,-1.6305184000000001,-1.1456553166666668,-0.09061686066666667,1.9034169333333335
358,1778325855600,-2.2633652,-1.8821209666666665,-1.4975066666666668,-0.8947228277777778,-0.2994011733333333,2.784038955555556
359,1778325855610,-2.1493084,-1.8255001000000002,-1.4717996,-0.7012634,-0.52186584,3.370636
360,1778325855620,-1.7449054,-1.72870622,-1.5097266,-0.61811522,-0.777478022,4.10024252
361,1778325855630,-1.3590913999999998,-1.6619811666666666,-1.5502239333333334,-0.5910034,-0.9495697000000001,4.565872
362,1778325855640,-0.9466217944444444,-1.6596897000000002,-1.542223688888889,-0.8963182211111111,-1.2916361333333333,5.122173611111111
363,1778325855650,-0.7635114711111111,-1.6722177222222223,-1.5146856222222222,-1.0836792,-1.4566345,5.362686
364,1778325855660,-0.6597054,-1.6808963,-1.4653322,-1.1486664,-1.5205536,5.438843
365,1778325855670,-0.2586782011111111,-1.7381408555555555,-1.2026048022222222,-1.3329569666666667,-1.7277475999999998,5.673202666666667
366,1778325855680,0.252418625,-1.8054462166666667,-0.8592774266666666,-1.75142925,-2.2188339,6.2341562999999995
367,1778325855690,0.5919776571428572,-1.8612891428571428,-0.6128062285714285,-2.0553632857142854,-2.676587742857143,6.9391196285714285
368,1778325855700,0.9974989000000001,-1.9381460555555554,-0.30545073666666667,-2.0974647333333336,-2.7311604444444444,7.158538822222222
369,1778325855710,1.4726086125,-2.0127989375,-0.036346558125,-2.0972862,-2.70658875,7.5054665499999995
370,1778325855720,1.8922808999999998,-2.030950525,0.183656079375,-2.0273742375,-2.6031283875,7.68781675
371,1778325855730,2.1192544,-2.0412464,0.31262472,-1.9614563,-2.5085907,7.720107999999999
372,1778325855740,2.458208966666666,-2.0082167,0.38568026666666666,-1.8464151666666666,-2.443069433333333,7.639684000000001
373,1778325855750,2.6871889666666666,-1.9749702777777776,0.3875246622222222,-1.7810838111111111,-2.4817725,7.508183711111111
374,1778325855760,2.821799977777778,-1.9391621666666667,0.3901818566666667,-1.7809058000000002,-2.5818566222222223,7.310282322222223
375,1778325855770,2.8936465,-1.8992043,0.40878466,-1.81073,-2.718979,7.067108
376,1778325855780,2.8936465,-1.8992043,0.40878466,-1.81073,-2.718979,7.067108
377,1778325855790,2.7865599444444444,-1.8193842111111111,0.7007164166666667,-1.690950211111111,-3.205268011111111,6.624431944444444
378,1778325855800,2.756351311111111,-1.812143322222222,0.8616047777777778,-1.5135193,-3.4321747,6.478546
379,1778325855810,2.75033668,-1.82088702,1.0329602000000002,-1.07792664,-3.3699554399999996,6.4783296
380,1778325855820,2.7491249555555557,-1.8221771888888891,1.125444577777778,-0.571294148888889,-3.0098486666666666,6.5661960666666666
381,1778325855830,2.7531924,-1.8248888,1.1060553,-0.36624146,-2.756256,6.6404724
382,1778325855840,2.850651733333333,-1.7965380666666664,0.8390974999999999,-0.25881958000000005,-2.1432037,6.866124533333333
383,1778325855850,3.0138456333333337,-1.7381268666666667,0.5968306666666667,-0.41257052666666666,-1.6420576111111111,7.029227355555555
384,1778325855860,3.2069762777777777,-1.6428905555555557,0.48868597777777784,-0.8310445266666666,-1.1592457999999999,7.060897833333333
385,1778325855870,3.3429836,-1.5617008555555556,0.49029947222222225,-1.2270321555555557,-0.8359934666666667,6.988986555555555
386,1778325855880,3.3929884,-1.5033437,0.62306565,-1.4575958,-0.8180084,6.828491
387,1778325855890,3.389889,-1.4365699600000001,0.7496585100000001,-1.4205245899999999,-0.91936796,6.72404315
388,1778325855900,3.384813,-1.2729547,1.0363781,-1.2279731,-1.1182335555555556,6.502699066666667
389,1778325855910,3.342264666666667,-1.1053267666666666,1.1105706333333334,-1.0073479222222224,-1.0403526888888888,6.4501376666666665
390,1778325855920,3.2960976222222222,-0.9290636666666666,1.0843215444444445,-0.7528567777777778,-0.688583351111111,6.490141144444444
391,1778325855930,3.4243499666666666,-0.7003555333333333,0.9080031799999999,-0.7838134666666667,-0.09149678666666666,6.561996466666667
392,1778325855940,3.6610853000000003,-0.48595066000000003,0.7449321766666667,-0.9629567333333333,0.44434101666666664,6.490264900000001
393,1778325855950,3.8128881,-0.31942198,0.66675305,-1.1145782,0.72343445,6.3411255
394,1778325855960,3.8021372555555555,-0.00012668888888888051,0.6246665366666666,-1.2795782666666666,0.8995005277777778,6.0612012222222225
395,1778325855970,3.694020177777778,0.3515331688888889,0.5951214377777778,-1.485761822222222,0.9691026355555556,5.566679222222223
396,1778325855980,3.6360205799999994,0.611315615,0.645665762,-1.36454926,0.49221496339000004,5.321141
397,1778325855990,3.676922355555556,0.9686990888888888,0.6631323777777778,-1.0931599666666667,-0.13606940454444444,5.063817155555555
398,1778325856000,3.7596846,1.3722613,0.5765738,-0.8727722,-0.62945557,4.7373657
399,1778325856010,3.790408511111111,1.6109083444444445,0.46638178222222215,-1.0799594333333333,-0.4202490755555555,4.3038058
400,1778325856020,3.768091488888889,1.7269303999999999,0.39948300666666664,-1.4339803,0.05201551666666666,3.8946262222222225
401,1778325856030,3.804631333333333,1.7773963000000002,0.31791320333333334,-1.9028778333333334,0.5860137933333333,3.546941133333333
402,1778325856040,3.9000032000000004,1.862355077777778,0.28276873666666663,-2.046393533333333,0.6384548577777778,3.3731197222222224
403,1778325856050,3.9758094,2.1059340200000003,0.263630343,-2.0951538,0.4017334,3.1245575
404,1778325856060,4.315959333333334,2.600248777777778,0.5186508555555556,-1.7974175222222222,-0.4229770222222223,2.6425272444444445
405,1778325856070,4.669366888888889,3.0844446666666667,0.8748653388888888,-1.4699079444444445,-0.79978434,2.2246466333333332
406,1778325856080,4.958696488888888,3.6312009,1.3005557888888888,-0.681133714888889,-0.7506612177777777,1.3772854333333333
407,1778325856090,5.079843955555556,4.046843933333333,1.5045462888888887,0.175923659,-0.46522861,0.6314239355555555
408,1778325856100,5.322382,4.428225,1.411371,0.815155,-0.36953735,0.07258606
409,1778325856110,5.870317977777778,4.282982577777777,1.1086038111111112,1.0698157333333334,-0.036282008888888884,-0.8650868866666667
410,1778325856120,6.22341743,3.81089336,0.642504972,1.125898715,0.478739927,-2.5081939899999997
411,1778325856130,5.374448533333333,3.2177814,0.5505814466666666,0.6116366877777778,0.5973222488888889,-4.224407555555556
412,1778325856140,4.3494891,2.5613082,0.7271971166666666,0.058283486666666655,0.6028849266666667,-4.877711000000001
413,1778325856150,4.1218653,2.3868074,0.83002675,-0.26130676,0.74420166,-4.905411
414,1778325856160,4.354411388888889,2.0692214888888887,1.5828889111111113,-0.51128641,1.1522013533333333,-4.981221666666666
415,1778325856170,4.656851933333333,1.7941820666666668,2.2204208111111114,-0.5478668,1.5788422,-5.164261
416,1778325856180,4.849400111111112,1.5179230222222222,2.480763111111111,-0.03830634000000001,1.9068807333333335,-5.559953455555555
417,1778325856190,5.015576333333333,0.8692730711111111,2.641461077777778,1.2149827777777777,2.2936892999999996,-6.403759444444445
418,1778325856200,4.962643,0.39981604,2.5099945,2.185089,2.1876373,-6.953903
419,1778325856210,4.84362854,0.019939551999999992,2.25850566,2.8636596400000003,1.87679442,-7.293515000000001
420,1778325856220,4.7290797,-0.3689656,1.9337752999999998,3.6796570000000006,1.4675293,-7.717696999999999
421,1778325856230,4.685475155555555,-0.4587790166666667,1.788019077777778,3.884358766666667,1.4584757333333334,-8.010477666666667
422,1778325856240,4.531028,-0.75116014,1.2765291,4.0061493,1.5538177,-8.346222
423,1778325856250,4.277329633333333,-1.0275951399999999,0.8541883133333333,3.7113156,1.9122704444444443,-8.613006666666665
424,1778325856260,4.099371666666666,-1.1654054,0.6524746933333333,3.521993,1.9824015333333331,-8.670410333333333
425,1778325856270,3.9533435999999997,-1.2734416,0.507749,3.3451538,2.0001526,-8.682831
426,1778325856280,3.8120211555555557,-1.3912405111111112,0.3196621955555556,2.9753299111111113,1.9166463,-8.657384333333333
427,1778325856290,3.704906577777778,-1.5191666888888888,0.20739560666666668,2.483174633333333,1.7831929666666666,-8.626733999999999
428,1778325856300,3.6416338600000002,-1.60352948,0.273136668,2.0758910999999998,1.78390506,-8.6719696
429,1778325856310,3.4778662,-1.722182,0.3800530444444445,1.6835174444444445,1.9210815555555554,-8.736920222222222
430,1778325856320,3.3478372,-1.7913305,0.4422202,1.532608,2.008667,-8.728638
431,1778325856330,3.1152787111111113,-1.8424750777777779,0.6082332088888889,1.4149593555555555,1.9251047888888888,-8.570507444444445
432,1778325856340,2.9710135,-1.8713822000000002,0.7300856,1.3930664,1.8611298,-8.483627
433,1778325856350,2.802410533333333,-1.887978733333333,0.8399514566666667,1.4717152666666666,1.8524424,-8.308039333333333
434,1778325856360,2.543058511111111,-1.8973880222222224,0.9442998522222221,1.6078948666666666,1.9003177333333336,-8.058593777777778
435,1778325856370,2.3688016,-1.867965,0.95046854,1.771225,1.9538116,-7.781616
436,1778325856380,2.22235519,-1.7957370000000001,0.8852075810000001,2.00074006,1.92196502,-7.449414
437,1778325856390,2.0633645,-1.701397,0.78353333,2.2756348,1.861145,-7.0684204
438,1778325856400,1.9656059555555554,-1.6222129555555556,0.5730619577777777,2.3198988444444444,1.8698933555555557,-6.804243333333334
439,1778325856410,1.8008676777777777,-1.5362096444444444,0.1818376188888889,2.1884613444444443,2.0651364,-6.255745888888889
440,1778325856420,1.6295531,-1.5453217,-0.14266422,1.6231537,2.7170868,-5.813553
441,1778325856430,1.5418687111111113,-1.5211599666666666,-0.30741662444444445,1.0377299111111111,3.3892059444444445,-5.477991888888889
442,1778325856440,1.30996,-1.4608773,-0.7238872,-0.5910034,5.2321625,-4.556534
443,1778325856450,1.1949546666666668,-1.4416109222222222,-0.6407441777777777,-1.046346,5.563936033333333,-4.160256244444445
444,1778325856460,0.98665754,-1.37235834,-0.367928442,-1.50298154,5.5731568000000005,-3.3579986399999995
445,1778325856470,0.9752357000000001,-1.2320733,-0.16243221,-1.1987457,4.808716,-2.9314728
446,1778325856480,1.2257732222222222,-1.1799813555555556,0.10311598955555557,-0.4486151722222222,3.8989275111111112,-2.924133288888889
447,1778325856490,1.4535458222222222,-1.1644974,0.3741681755555556,0.35494995,3.0771332,-3.063568
448,1778325856500,1.3325350333333335,-1.1927814666666667,0.3384143133333333,1.571133111111111,2.5349782,-3.523817333333333
449,1778325856510,1.1184971,-1.2645336,0.0827241,3.0239716,2.2089539,-4.081421
450,1778325856520,0.7385806644444445,-1.6594316444444444,-0.7122115977777778,4.130788155555555,2.2048594222222224,-4.523976611111111
451,1778325856530,0.1388503,-2.0139112,-1.5882143,4.7102966,2.2062836,-4.6513367
452,1778325856540,-0.7893271444444445,-2.279581666666667,-3.0520983,4.542390644444444,1.7826589111111109,-4.1531541333333335
453,1778325856550,-1.4027245666666668,-2.2158013555555556,-4.3698983,2.8812917111111114,0.8483056044444444,-2.9759148
454,1778325856560,-1.4760765,-2.2083442666666664,-4.943961333333333,1.0278472766666666,0.3626658133333333,-2.0955861666666666
455,1778325856570,-1.3534373666666666,-2.2406413333333335,-4.812373933333333,-1.0522664466666667,0.49937439333333333,-1.5295817333333332
456,1778325856580,-1.4400780777777777,-2.2345668888888888,-3.8687674000000007,-3.1006503777777774,0.9117482555555555,-0.9839375955555556
457,1778325856590,-1.5315998,-2.172671,-3.1815429,-3.5865326,1.0792389,-0.74928284
458,1778325856600,-1.7375026666666666,-2.1302450666666664,-2.5068058000000004,-3.1531372,0.2678527866666667,-0.17634074
459,1778325856610,-1.83742786,-2.06843352,-1.9971573,-2.45276796,-0.554040524,0.370214848
460,1778325856620,-1.6307678666666667,-2.0023606,-1.8890561666666665,-1.6093902666666666,-1.1436207933333333,0.8047739666666667
461,1778325856630,-1.4599689875,-1.955048375,-2.02940945,-0.73666955,-1.7258758250000001,1.26953505
462,1778325856640,-1.4544783,-1.931786,-2.2042167,-0.5196228,-1.9695586999999999,1.4819183
463,1778325856650,-1.5326436222222222,-1.9080047555555555,-2.3122389111111112,-0.6181640666666667,-2.6021541999999998,2.1405538
464,1778325856660,-1.546701275,-1.8628711125,-2.238399525,-0.77749061875,-2.893079775,2.5650940125000004
465,1778325856670,-1.3910225333333333,-1.8009034000000002,-1.9400098444444442,-1.1109653222222222,-2.9767659555555555,3.275587288888889
466,1778325856680,-1.1935258888888889,-1.7494751333333334,-1.6817704666666669,-1.4572346999999999,-3.0163625,4.036071766666667
467,1778325856690,-0.9806408,-1.7144532,-1.5120697,-1.5875549,-3.0529327,4.3645325
468,1778325856700,-0.6711354155555556,-1.6647063333333334,-1.2471860333333333,-1.6231825,-3.3055793111111114,4.745720766666667
469,1778325856710,-0.28642038,-1.5986482,-0.8980209,-1.6450806,-3.722458,5.312088
470,1778325856720,-0.07177143777777778,-1.5807641777777777,-0.6698544177777779,-1.3637322222222221,-4.077309466666667,5.556028555555556
471,1778325856730,0.36484838,-1.5621608,-0.16755736,-0.8615875,-4.5475006,5.855377
472,1778325856740,0.4686952200000001,-1.5411719,-0.03576716,-0.61816406,-4.6684113,5.9613647
473,1778325856750,0.840601347,-1.4979377,0.121870123,-0.017300406000000025,-4.85077977,6.30538784
474,1778325856760,1.2273463,-1.4551425,0.22537587999999997,0.7246094,-5.0242004,6.7565765
475,1778325856770,1.6593819444444446,-1.4099921222222223,0.13085711333333333,0.7869245833333334,-4.6012963,7.061903166666667
476,1778325856780,2.1905186,-1.3637836333333333,0.030007393999999996,0.5475972600000001,-3.915974966666666,7.239863
477,1778325856790,2.449219,-1.3323815,-0.003916578,0.30969238,-3.5445557,7.207198999999999
478,1778325856800,2.530463088888889,-1.2788518555555557,0.042671377777777776,-0.1722886777777778,-2.996775322222222,7.0084617555555555
479,1778325856810,2.6198158,-1.1749656,0.17168237,-1.1060638,-1.9834137000000003,6.607437
480,1778325856820,2.47233048,-1.1278132399999998,0.46380652,-1.5051544,-1.68817292,6.441056919999999
481,1778325856830,2.314133,-1.0835654,0.8023261,-1.7031403,-1.6020508,6.3709564
482,1778325856840,2.2612406,-1.0472148444444445,1.2087633777777778,-1.1670142388888889,-1.8919186333333333,6.474880588888889
483,1778325856850,2.2779044333333336,-1.025344611111111,1.527976588888889,-0.24857923333333332,-2.2713894555555556,6.598093555555555
484,1778325856860,2.3097403,-1.0267003,1.5729369,0.1621399,-2.4105835,6.638336
485,1778325856870,2.3707551000000002,-1.0565155777777777,1.4342991333333335,1.1520182222222222,-2.652099622222222,6.696806133333333
486,1778325856880,2.4168816,-1.0750228,1.1604799,1.8463287,-2.641739,6.763504
487,1778325856890,2.673846533333333,-1.0032158222222223,0.6879852466666666,1.7743615000000001,-2.3149397555555553,6.7702552
488,1778325856900,2.9750810000000003,-0.8968206666666667,0.22281200133333334,1.4583943933333332,-1.8070424333333333,6.689829544444445
489,1778325856910,3.0708334,-0.845732,0.077110544,0.90037537,-1.3240051,6.4599
490,1778325856920,2.904602822222222,-0.7923647422222222,0.06127279022222222,-0.15986463555555555,-0.5263637904444445,6.110972133333333
491,1778325856930,2.639623733333333,-0.76376952,0.20336860266666668,-1.1380157533333335,0.22524515600000003,5.870285066666667
492,1778325856940,2.351283488888889,-0.7738569955555555,0.4888073222222222,-1.6853790333333332,0.6357320133333333,5.859802266666667
493,1778325856950,2.192213,-0.7874016888888888,0.72746865,-1.9993981222222221,0.7384711377777777,5.992014533333334
494,1778325856960,2.137436,-0.78069,0.8561409,-1.9902344,0.60679626,6.0902557
495,1778325856970,2.1890944,-0.7665345466666666,0.9846776333333332,-1.6612396333333335,0.2222290033333333,6.3134307666666665
496,1778325856980,2.32021012,-0.743568415,1.0874578799999999,-1.2172744530000001,-0.20691986199999998,6.56520847
497,1778325856990,2.589999633333333,-0.6899818999999999,0.9976535333333333,-0.8720550533333333,-0.25465902,6.565368733333333
498,1778325857000,2.8659195,-0.6349876888888889,0.8223933999999999,-0.6101158999999999,-0.11357625333333335,6.391967711111111
499,1778325857010,2.9717462,-0.5931329,0.6807862,-0.5595703,0.08694458,6.14299
500,1778325857020,2.9582679333333335,-0.44271191333333326,0.5658888444444444,-0.5542500666666667,0.3127814422222222,5.707587311111111
501,1778325857030,2.9418478,-0.30538887,0.48736974999999993,-0.5467987,0.42410278,5.4377747
502,1778325857040,2.877011088888889,-0.2101117411111111,0.44596155000000004,-0.4174262111111111,0.38787841333333334,5.22590808888889
503,1778325857050,2.820552,-0.1334514,0.3887709,-0.2554474,0.31809998,5.0862427
504,1778325857060,2.912249088888889,0.11179996333333334,0.2338225751111111,-0.2630801744444444,0.2586212177777778,5.101693077777778
505,1778325857070,3.1625302222222222,0.47164968333333335,0.032285237333333335,-0.46175130000000003,0.22347005111111107,5.069020555555555
506,1778325857080,3.359783211111111,0.6124162722222223,-0.04002385911111111,-0.7069956422222222,0.3407050222222222,4.940182
507,1778325857090,3.573997477777778,0.7791076,-0.10991926944444444,-1.2942572777777777,0.8620402222222222,4.544675955555555
508,1778325857100,3.692053288888889,0.9140852666666667,-0.1144751288888889,-1.7962375444444443,1.3293966,4.184792422222222
509,1778325857110,3.7100185666666667,1.0664986,0.01036021,-2.033428611111111,1.4356265777777777,3.802183388888889
510,1778325857120,3.7190763666666666,1.3067862222222222,0.20012879444444445,-1.9845428000000003,1.2099100999999999,3.4682871666666664
511,1778325857130,3.7618808999999995,1.5094209,0.30737826,-1.7867584,0.8874817,3.2982025
512,1778325857140,4.007754766666667,1.8565120333333336,0.4069806988888889,-1.3148515544444443,0.39982944400000003,3.0360904333333334
513,1778325857150,4.275228144444444,2.1927410666666667,0.5024348033333333,-0.7843509233333333,-0.02557203511111111,2.7387611
514,1778325857160,4.53600581,2.76196058,0.666471035,-0.30615082400000004,0.056307984,2.43890384
515,1778325857170,4.805591,3.4257598,0.8637065,0.42686462,0.3788147,1.9799347
516,1778325857180,4.856843,3.5811006999999995,0.85345626,0.60635376,0.43582153,1.8877869000000003
517,1778325857190,5.953067377777778,3.9522043,-0.5027294533333334,0.8332078555555555,0.8129187555555555,0.04321289999999997
518,1778325857200,6.472773911111111,3.6915242555555556,-0.8472026888888889,0.3776245146666667,1.1501346000000001,-1.0858493444444446
519,1778325857210,6.2649324,3.275989611111111,-0.8089271422222222,-0.24301656644444444,1.2442830444444444,-2.6033087555555556
520,1778325857220,5.2740593,2.6364791,-0.39758244,-1.0421448,1.1229095,-4.372238
521,1778325857230,4.616936,2.3250613,0.071985394,-1.3707733,0.9173126000000001,-4.7775726
522,1778325857240,4.616936,2.3250613,0.071985394,-1.3707733,0.9173126000000001,-4.7775726
523,1778325857250,3.99191672,1.64552057,1.7648022399999999,-1.3452148,0.5828247,-4.9996796
524,1778325857260,4.1684527,0.9086747766666667,2.9546676555555553,1.0515153733333333,0.8783111555555556,-5.203565844444444
525,1778325857270,4.516261775,0.2752239875,3.185485225,3.6631355,0.94314575,-5.73831185
526,1778325857280,4.619498,0.06179576,2.7020686,4.604309,0.6962738,-6.134186
527,1778325857290,4.623036466666666,-0.08590029,2.3258536333333333,5.062367666666667,0.44078572666666666,-6.5800019
528,1778325857300,4.6243787,-0.24413128,1.9933251000000003,5.467697,0.13487244,-7.0519104
529,1778325857310,4.707359644444445,-0.22720921666666666,1.8483426777777778,5.488761111111111,-0.030192056666666665,-7.339948855555556
530,1778325857320,4.931674666666667,-0.18257332444444443,1.632798311111111,5.177647888888888,0.05810885777777778,-7.771145233333333
531,1778325857330,5.127136,-0.27195328,1.4498104,4.783264,0.3990631,-8.068176
532,1778325857340,5.2581005,-0.5314807533333333,1.2857088888888888,4.217963288888889,0.80054898,-8.502214222222221
533,1778325857350,5.376564,-0.79203844,1.1272885,3.7962952,1.0755005,-8.839432
534,1778325857360,5.191730799999999,-1.1869372666666667,0.7943136944444444,2.8907640666666667,1.1909128555555555,-9.294888111111112
535,1778325857370,5.057418266666667,-1.3615053000000001,0.65087574,2.2650350222222224,1.2521650444444445,-9.47124938888889
536,1778325857380,5.01121,-1.4753989,0.62929046,1.835144,1.365799,-9.5659485
537,1778325857390,4.74731108,-1.86469454,0.8459640179999999,1.126956164,1.82417908,-9.8451508
538,1778325857400,4.362872333333333,-2.288407888888889,1.1383254777777776,0.5851152133333333,2.292689,-10.124969555555557
539,1778325857410,3.732471611111111,-2.5955409333333335,1.4306243222222224,1.0440674,2.4602272000000003,-10.171898555555556
540,1778325857420,3.2879076111111107,-2.723264,1.4998825444444444,1.6886732666666666,2.394417733333333,-10.049984333333335
541,1778325857430,2.8930101111111113,-2.7360091111111107,1.3528381,2.497092377777778,2.2390662333333333,-9.792543222222221
542,1778325857440,2.6965714444444444,-2.6941396444444443,1.0809043355555557,3.0195397555555554,2.0520545,-9.552973444444444
543,1778325857450,2.614812,-2.6620052,0.86443913,3.2876282,1.9032135000000001,-9.400284
544,1778325857460,2.4347244888888886,-2.578226311111111,0.37751754411111116,3.275673733333333,1.5954725222222221,-9.127760333333335
545,1778325857470,2.19730322,-2.47622946,-0.0475056968,3.0207824299999997,1.3626479999999999,-8.8065095
546,1778325857480,1.7883118666666666,-2.4065598,-0.36333232666666665,2.239530788888889,1.6078372555555556,-8.295911777777778
547,1778325857490,1.3510149333333332,-2.3200276444444445,-0.5659809,1.1801282899999999,2.1950327444444446,-7.535663366666666
548,1778325857500,1.0351509,-2.250648,-0.6334637,0.21807861,2.8592987,-6.6503143
549,1778325857510,0.9400092666666667,-2.2050904333333334,-0.6531508,-0.04877217666666667,3.035598766666667,-6.351150533333334
550,1778325857520,0.4992019200000001,-1.8693073999999998,-0.6860575,-1.4634552,3.7844695999999995,-4.603409
551,1778325857530,0.46009818,-1.7035520444444445,-0.48389646333333336,-2.0368076,3.9621395444444443,-3.6691708333333333
552,1778325857540,0.5424944333333334,-1.5582165222222222,-0.02985478444444445,-2.4767557555555557,4.149748144444445,-2.5792880444444446
553,1778325857550,0.6769971,-1.5002935,0.36107022,-2.2911682,4.2553253,-2.122406
554,1778325857560,0.8778163777777778,-1.4340592888888888,0.5475167488888889,-1.6018812444444446,4.439254744444444,-1.9720848999999998
555,1778325857570,1.1121114444444444,-1.34986,0.5496314555555556,-0.8061913366666666,4.608459444444445,-1.979719377777778
556,1778325857580,1.2249058,-1.3475947666666666,0.21955804333333337,0.21954855444444443,4.497189,-2.432573155555555
557,1778325857590,1.0664721,-1.5390575333333334,-0.26147953,1.6302642999999999,3.9020081,-3.199737633333333
558,1778325857600,0.8325839,-1.7229956,-0.55890405,2.2527313,3.4606323,-3.4763489
559,1778325857610,0.2581275911111111,-1.9233398,-1.18423265,2.9154374777777776,2.4063789222222223,-3.418945322222222
560,1778325857620,-0.22149974,-1.9824293000000002,-1.7240331,3.3430176,1.225174,-3.094986
561,1778325857630,-0.45902268222222214,-1.8760871222222224,-2.1104840555555557,3.2817688,0.6451416,-2.710968
562,1778325857640,-0.64591646,-1.6852889,-2.5760365,2.5126495,-0.13571167,-1.7719421
563,1778325857650,-0.658704612,-1.6667405800000001,-2.60952186,2.5126495,-0.13571167,-1.7719421
564,1778325857660,-0.7169769166666666,-1.5302314,-2.617323466666667,1.3884361915555556,0.5046352944444444,-1.1282789222222223
565,1778325857670,-0.7680661,-1.4347647,-2.543822,-0.016830444,1.305069,-0.32369995
566,1778325857680,-0.899719825,-1.3864405874999999,-2.4161031125,-0.044393538749999996,1.2527351625,-0.09679794250000001
567,1778325857690,-0.9821044433333334,-1.3415746666666668,-2.5116058666666667,-0.02676900133333333,0.8615621,0.3243357333333333
568,1778325857700,-0.8943665171428572,-1.3254618285714286,-2.835155942857143,0.07319859128571428,-0.17594910285714285,0.3897225485714286
569,1778325857710,-0.8332824857142856,-1.3247988285714285,-3.0049500857142855,-0.05219377642857143,-0.9796208,0.32672554857142855
570,1778325857720,-0.84531045,-1.3445839,-3.0473123,-0.35584258500000004,-1.6794014,0.228244785
571,1778325857730,-1.057382862222222,-1.3931519333333333,-2.695543288888889,-0.8133511,-2.3532901111111113,0.2830268022222222
572,1778325857740,-1.1753672499999999,-1.4270148,-2.4758818,-1.0216407699999999,-2.638549775,0.397750855
573,1778325857750,-1.2558154,-1.4524578,-2.33137,-1.1295013,-2.7599945,0.5423584
574,1778325857760,-1.55664024,-1.44691698,-1.97253208,-1.57477724,-2.77511296,1.5287994399999998
575,1778325857770,-1.5913936,-1.4350073,-1.8472824,-1.8581390000000002,-2.688614,2.2020416
576,1778325857780,-1.4702600222222222,-1.3976666333333334,-1.6448502,-2.143746277777778,-2.552378366666667,2.9376084777777773
577,1778325857790,-1.1928625888888889,-1.3330599444444444,-1.2644323222222225,-2.4543287333333335,-2.380164288888889,3.947479177777778
578,1778325857800,-0.9122640666666667,-1.3252234333333333,-1.0333917133333332,-2.5329844,-2.471481333333333,4.6534016
579,1778325857810,-0.6184999466666666,-1.332056588888889,-0.8885574866666667,-2.5165286888888887,-2.714363933333333,5.1056620666666666
580,1778325857820,-0.34401646,-1.3556896,-0.7512208,-2.447754,-3.0151215,5.4010315
581,1778325857830,-0.012867622999999995,-1.4355571,-0.536169868,-2.2705490100000003,-3.49017489,5.76279745
582,1778325857840,0.21280022,-1.4703966,-0.40014422,-2.1169891,-3.8806457999999995,6.079605
583,1778325857850,0.3676004422222222,-1.4874534555555554,-0.3399569533333333,-2.100896177777778,-3.9726698444444444,6.200575044444444
584,1778325857860,0.930857988888889,-1.5561413222222222,-0.12074023666666668,-2.127768555555556,-4.288581,6.686096244444444
585,1778325857870,1.1987917,-1.5786359,-0.044430915,-2.2325745,-4.3834534,6.8700256
586,1778325857880,1.656859811111111,-1.5276278333333333,0.2625118238888889,-2.421658,-4.254550422222222,6.8744099
587,1778325857890,2.0532355,-1.4808911,0.55704844,-2.5345764,-4.095825,6.811981
588,1778325857900,2.3203702555555554,-1.4568378333333334,1.0009893111111112,-2.2854258444444446,-3.5834977555555554,6.398062833333333
589,1778325857910,2.359771333333333,-1.4374073666666665,1.2818175666666667,-1.8338114333333333,-3.1285705666666663,6.021199666666666
590,1778325857920,2.2570236,-1.4287841,1.3248533,-1.4549255,-2.9336243,5.852173
591,1778325857930,2.1468589666666666,-1.5122114444444443,1.186323188888889,-0.8066016211111111,-3.115251333333333,5.869630677777778
592,1778325857940,2.104745788888889,-1.6032176444444444,1.0585458555555556,-0.22591993711111108,-3.495551244444444,5.968229522222222
593,1778325857950,2.1219109888888887,-1.5664050444444446,0.9488156333333334,0.2863023544444444,-4.1695031,6.180450444444444
594,1778325857960,2.1725797333333334,-1.4627894333333336,0.9017389200000001,0.6892700199999999,-4.6976979666666665,6.4073486666666675
595,1778325857970,2.334606311111111,-1.3657364555555556,0.8976163377777778,0.8140258888888889,-4.440146566666667,6.584303177777778
596,1778325857980,2.4962807333333337,-1.3336430666666665,0.8382021233333333,0.6613973133333333,-3.684992466666667,6.651123066666667
597,1778325857990,2.6116388,-1.3373854,0.76547325,0.42419434,-2.9250946,6.6734924
598,1778325858000,2.69271484,-1.4058194,0.583846062,-0.27738035839999997,-1.773123172,6.75977788
599,1778325858010,2.7538028,-1.4722677666666666,0.44457826333333333,-1.2498626666666666,-0.5625203446666666,6.922587
600,1778325858020,2.758711,-1.4942595444444444,0.50928145,-2.0481109777777777,0.04255506777777777,7.1096021333333335
601,1778325858030,2.7711708888888893,-1.4946527222222223,0.6369641111111111,-2.5931735333333332,0.30449422444444446,7.239503777777778
602,1778325858040,2.788079,-1.477744611111111,0.7398203666666666,-2.8587748,0.37160407444444443,7.2766674444444455
603,1778325858050,2.8624081666666665,-1.3579264333333334,0.9826442000000001,-2.8672942666666668,0.28401692333333334,7.166168166666667
604,1778325858060,2.9144187111111113,-1.2149894222222222,1.1358307111111112,-2.672180066666667,0.12221611444444444,6.974838222222222
605,1778325858070,2.97022035,-1.0226118000000002,1.09360875,-2.02005765,-0.315208425,6.54992675
606,1778325858080,2.9734950999999996,-0.8847406333333334,0.9516486333333334,-1.4460601666666666,-0.6939086766666667,6.214894666666667
607,1778325858090,2.9430687,-0.7985075,0.7990317,-1.1108551,-0.9325256300000001,6.060425
608,1778325858100,2.953671733333333,-0.7185105888888889,0.6901956777777778,-1.0527394555555556,-0.9869723788888888,6.046224111111112
609,1778325858110,2.99847,-0.48660135000000004,0.4109809,-0.8493347,-1.177536,5.996521
610,1778325858120,3.178665111111111,-0.21849049666666664,0.40731942666666665,-0.7394307333333333,-1.273763,5.742802999999999
611,1778325858130,3.4125532666666665,0.06983665055555556,0.44231441111111114,-0.6301795111111111,-1.2608625333333334,5.277337044444445
612,1778325858140,3.6070268,0.26412013,0.46955383,-0.5100403,-1.1573029,4.8146057
613,1778325858150,3.607731466666667,0.34737031444444444,0.41195686333333337,-0.34705946666666665,-1.0955149444444443,4.215098033333334
614,1778325858160,3.4424832000000003,0.415728426,0.263887452,-0.1025283781,-1.01870729,3.35763854
615,1778325858170,3.1876548333333337,0.4441930333333333,0.04310413333333334,0.015670776,-1.1121979,3.1069896000000004
616,1778325858180,2.946607766666667,0.5027391555555556,-0.3003653333333333,0.03276909666666667,-1.3274977111111113,3.046507088888889
617,1778325858190,2.9355032,0.5917657,-0.5768413,-0.17980957,-1.5386658,3.1677094
618,1778325858200,3.1267762666666665,0.8407315844444444,-0.7331466666666667,-0.8980356977777776,-1.5101945888888888,3.2866041666666668
619,1778325858210,3.4032388,1.1494378,-0.9014382,-2.1031494,-1.3650208,3.4127197
620,1778325858220,3.6109719777777776,1.3084136777777777,-0.8174557555555555,-2.8279384666666667,-1.0229542947777777,3.317733822222222
621,1778325858230,4.285220933333333,1.9970073,-0.09759454666666667,-4.4609883777777775,0.1159311921111111,2.682595111111111
622,1778325858240,4.5475008,2.44379525,0.72355668,-4.916504,1.001197825,1.8212127500000002
623,1778325858250,4.6251116,2.629279,1.1082516,-4.917572,1.2704468,1.473938
624,1778325858260,4.747032311111111,3.033871,2.113659333333333,-4.098149666666667,1.4560377222222223,0.8256039111111111
625,1778325858270,4.883053111111111,3.2947684888888893,2.439055544444445,-2.9832916555555555,1.4974670333333333,0.2993621822222222
626,1778325858280,5.3617300666666665,3.8769400666666667,2.7176469333333335,-0.34019300777777783,1.3769802666666666,-0.7702314566666667
627,1778325858290,6.052683366666667,3.716512,2.366855366666667,0.9298451600000001,1.1616109133333332,-2.092397066666667
628,1778325858300,6.430783233333333,3.115751977777778,1.868625588888889,2.2970529777777777,0.7491217666666666,-4.378455222222223
629,1778325858310,6.010136755555555,2.744852877777778,1.5669708333333334,2.628826533333333,0.4537472088888889,-5.278845777777778
630,1778325858320,5.4190295,2.31186968,1.3912848800000002,2.42050782,0.435598766,-5.8510973
631,1778325858330,5.168424,1.9049168333333333,1.4564811999999998,1.8580525666666665,1.0407054,-5.946528333333333
632,1778325858340,5.318057777777778,1.6321953444444446,1.5779942444444446,1.4193929222222221,1.773602,-5.911016
633,1778325858350,5.645636666666667,1.2813089,1.7869348333333335,1.1102345666666666,2.5365142666666665,-6.0676168
634,1778325858360,5.763028,1.0449797,1.9943019,1.1166229,2.7996368,-6.2689514
635,1778325858370,5.795935666666667,0.6042265911111112,2.348578155555556,1.7908783333333333,2.6362322000000002,-6.668541777777778
636,1778325858380,5.832463,0.19065864,2.65411,2.581894,2.403885,-7.044464
637,1778325858390,5.848937366666667,-0.09850914000000001,2.640647733333333,3.475825,2.3499195999999998,-7.505187933333334
638,1778325858400,5.815721180000001,-0.48446559499999997,2.48041628,4.59194028,2.3481780800000003,-8.1385954
639,1778325858410,5.7803555,-0.76287407,2.1197474,5.0410614,2.3000336,-8.435165
640,1778325858420,5.784138511111111,-0.7973538511111111,2.0537706444444446,5.0749715222222225,2.2303161888888887,-8.614661
641,1778325858430,5.774756866666667,-1.1478602666666666,1.4339334333333333,5.269382088888889,2.069924244444444,-9.006791777777778
642,1778325858440,5.198673088888889,-2.016162622222222,0.6185109666666667,4.196302622222222,1.912033088888889,-10.082237999999998
643,1778325858450,4.7765351,-2.4180426333333336,0.5568592055555556,3.4419183111111114,1.9936405,-10.314166222222221
644,1778325858460,4.431818,-2.6391857,0.6877405,2.91745,2.0752563,-10.358505
645,1778325858470,3.8345827555555556,-2.8020674555555556,0.9237175055555557,2.4168972444444443,2.2152811444444445,-10.050525
646,1778325858480,3.5231936,-2.8552988,1.0413804,2.04393,2.3777924,-9.587784
647,1778325858490,3.4646193111111114,-2.862241044444444,1.1810345333333332,1.5825551333333334,2.964401255555556,-8.945189000000001
648,1778325858500,3.4484569555555553,-2.8847353333333334,1.2765695333333333,1.3236338555555556,3.3761240555555556,-8.581399222222224
649,1778325858510,3.337153688888889,-2.9285700222222224,1.3517392555555554,1.3434057888888888,3.578872688888889,-8.365036155555556
650,1778325858520,3.011038,-3.0398057,1.5291282,1.499588,4.0188293,-7.8194427
651,1778325858530,2.687785,-3.1408465,1.5376706,1.9496613,4.110443,-7.3240967
652,1778325858540,2.4447042,-3.1121971,1.332391088888889,2.4912872555555556,3.993262377777777,-6.757846300000001
653,1778325858550,2.3159637,-3.0875201,1.1642627,2.838089,3.950119,-6.359497
654,1778325858560,2.0998504,-3.040417,0.8325901,3.1118622,3.9874114999999994,-5.899826
655,1778325858570,1.8057212666666667,-2.9115546666666665,0.5919087666666667,3.2894084,3.835784933333333,-5.495742766666667
656,1778325858580,1.5645794666666666,-2.7870445333333334,0.3521354688888889,3.5271403444444442,3.5943230777777777,-4.991931444444444
657,1778325858590,1.6690357555555555,-2.809009088888889,0.06843192222222222,3.8419868,3.3111979333333337,-4.790590055555556
658,1778325858600,1.6871500799999999,-2.90174303,-0.49971989400000005,4.28397219,2.96714783,-4.93816215
659,1778325858610,1.3676385333333334,-2.9433221333333335,-1.2796451333333332,4.458648688888889,2.3656005777777778,-5.216940777777777
660,1778325858620,0.8673479777777778,-2.9269977333333332,-1.9512633555555554,4.210506911111111,1.432605288888889,-5.378977333333334
661,1778325858630,0.5636326,-2.8191786,-2.3523576,3.7233275999999997,0.9002685500000001,-5.340027
662,1778325858640,0.3045250711111111,-2.6450026555555555,-2.5841727333333333,2.216629002222222,0.5080718977777778,-5.200539522222223
663,1778325858650,-0.047120779999999994,-2.6163264666666666,-2.3229912333333336,0.6969095866666667,0.22649128833333332,-4.985122666666666
664,1778325858660,-0.47808538666666667,-2.561780033333333,-1.8207618666666667,0.23724873999999996,-0.17050171000000003,-4.523864733333333
665,1778325858670,-0.7234165320000001,-2.4613416299999997,-1.34121815,0.294085693,-0.874205012,-3.7549271000000006
666,1778325858680,-0.770995,-2.4299068,-1.0459207,0.61808777,-1.3197479,-3.221756
667,1778325858690,-0.9131179333333334,-2.4367817666666665,-1.1513531,1.1237284233333333,-1.4724375333333333,-2.444646233333333
668,1778325858700,-1.0852869777777778,-2.4367549888888886,-1.6220577666666667,1.6083034888888887,-1.6690385444444444,-1.2733883577777778
669,1778325858710,-1.0441760999999998,-2.4175826666666667,-2.2726333999999997,1.3818715333333333,-1.8857524,-0.24238586333333334
670,1778325858720,-1.0040151955555556,-2.3474568666666666,-2.4605842444444446,1.1124165444444443,-1.9629856,0.16336228777777778
671,1778325858730,-0.96453273,-2.3232539,-2.4968402,1.0021057,-1.9700928000000002,0.27604675
672,1778325858740,-0.58201363,-1.9826924000000001,-2.5592785666666664,-0.09494781666666667,-1.6165136,0.316347755
673,1778325858750,-0.59027094,-1.7281208,-2.397753,-1.1699829,-1.2036438,0.18070984
674,1778325858760,-1.1469495625,-1.65087655,-1.9996961375000002,-1.415655125,-1.1356583,0.31479453874999996
675,1778325858770,-1.561618,-1.6240298,-1.7373337,-1.4237518555555555,-1.2029249777777777,0.6538543733333333
676,1778325858780,-1.9428357000000003,-1.5299463,-1.4818057,-1.2168427,-1.3122864,1.187912
677,1778325858790,-2.0521735666666663,-1.3925691444444446,-1.4078293444444445,-0.9818386666666667,-1.4333767222222222,2.1945292111111114
678,1778325858800,-2.0040948,-1.3414124,-1.4023651,-0.88342285,-1.4784698,2.8348083
679,1778325858810,-1.8115738666666665,-1.2402502,-1.3219487333333333,-0.9877556533333333,-1.373955588888889,3.3771463555555554
680,1778325858820,-1.44766832,-1.072204422,-1.11207151,-1.17561337,-1.23724059,4.323837299999999
681,1778325858830,-1.0577900444444444,-0.8964003222222223,-0.8259157555555556,-1.2057800333333333,-1.3723585555555555,4.877282155555556
682,1778325858840,-0.6432720888888889,-0.7259808177777778,-0.4775242155555556,-1.1309136222222222,-1.5696699555555556,5.169811688888888
683,1778325858850,-0.3878252,-0.64523834,-0.23516111,-1.0554504,-1.6616974,5.2369843
684,1778325858860,0.12323066,-0.62119913,0.0990748,-0.760376,-1.8427887000000003,5.152832
685,1778325858870,0.35352619111111117,-0.85684932,0.5067324511111111,0.09438239244444444,-1.9537014555555556,4.908523555555556
686,1778325858880,0.272717,-0.9789874,0.5766951,0.49397278,-2.0015259,4.9397736
687,1778325858890,0.03797362722222222,-1.3315409444444444,0.3491665093333334,1.6627502666666667,-2.0981089,5.8722381
688,1778325858900,0.11285904,-1.4832087,0.056365747,1.9241028,-1.9855498999999999,6.4141083
689,1778325858910,0.6458803888888889,-1.5848048,-0.6316058233333334,1.5070444444444444,-1.5464681111111112,7.466824222222223
690,1778325858920,0.9924418999999999,-1.6408703,-0.9454911400000001,1.0915985,-1.3458405,7.935837
691,1778325858930,1.7536076599999997,-1.7322453199999999,-1.038550174,-0.06295319499999999,-1.37892763,8.4147201
692,1778325858940,2.4023875333333335,-1.7673465555555554,-0.8607353333333333,-1.3590020055555554,-1.5414446,8.82467288888889
693,1778325858950,2.7236612,-1.759483,-0.63566,-1.8948822000000003,-1.6467896,8.943039
694,1778325858960,3.406045,-1.6838108333333333,0.05670377777777777,-2.378989288888889,-1.654363022222222,8.886166222222222
695,1778325858970,3.948869144444444,-1.580099811111111,0.6915782333333333,-2.7284546,-1.608963,8.659149
696,1778325858980,4.200546666666667,-1.3939246444444444,1.1796396444444446,-2.471969533333333,-1.5013156333333333,8.169186277777776
697,1778325858990,3.9397990666666667,-1.1331089333333333,1.3734200666666667,-1.6816558666666666,-1.3886362666666665,7.323832166666667
698,1778325859000,3.6764612,-1.044272,1.3470618,-1.239212,-1.4454498,6.995727499999999
699,1778325859010,3.3371128444444444,-0.9685604266666668,1.109621888888889,-0.5394575288888889,-1.6357778,6.6195815
700,1778325859020,3.185539422222222,-0.8995329511111111,0.9364364422222222,-0.1679178911111111,-1.6962060111111112,6.4024456
701,1778325859030,3.095888866666667,-0.7338315666666666,0.8190848066666666,-0.13618808444444444,-1.5445234666666667,6.304794344444444
702,1778325859040,3.036177,-0.59130216,0.76376534,-0.26875305,-1.2499847,6.2298126
703,1778325859050,3.0118935,-0.56079394,0.74619365,-0.3257599,-1.1727448,6.21756
704,1778325859060,2.7946279777777776,-0.4118929233333333,0.6125858611111111,-1.073272711111111,-0.5780351600000001,6.1732890000000005
705,1778325859070,2.7038932,-0.36579406,0.568764,-1.4623871,-0.32640076,6.1515045
706,1778325859080,2.70179392,-0.293259292,0.55831832,-1.7393570100000002,-0.32345886100000004,6.04386899
707,1778325859090,2.7449753777777777,-0.18151597655555554,0.5606421711111111,-1.9482099444444445,-0.46398246666666665,5.83358931111111
708,1778325859100,2.9078701999999996,0.06096930855555555,0.7588975311111112,-1.835530577777778,-0.9180840222222222,5.484597133333334
709,1778325859110,2.9495363,0.22250767000000002,0.9490049,-1.5774384,-1.3112335,5.1171417
710,1778325859120,2.9495363,0.22250767000000002,0.9490049,-1.5774384,-1.3112335,5.1171417
711,1778325859130,2.5288904333333333,0.5894482711111111,1.0843478555555555,-0.9264441722222223,-1.3576863444444445,4.622385711111111
712,1778325859140,2.2091894,0.8374104,1.0180722,-0.55052185,-1.1274719,4.435364
713,1778325859150,2.16372054,1.04393136,0.6959656000000001,-0.6839523200000001,-0.67713165,4.57598885
714,1778325859160,2.327447622222222,1.3992160444444446,0.20220323555555555,-1.0571153333333332,-0.19163513133333335,4.652097944444445
715,1778325859170,2.4743564,1.6116811,0.01780503,-1.3255005,0.037399292,4.610077
716,1778325859180,2.7691782000000003,1.9078446666666666,-0.22511456333333335,-2.0172119,0.41149393999999995,4.197814933333333
717,1778325859190,2.9902129,2.1026838333333333,-0.35121084333333336,-2.5791422333333336,0.5004475933333333,3.6777903333333333
718,1778325859200,3.1948548666666667,2.2454985,-0.21640984766666665,-2.8580678666666666,0.21175638666666666,3.0599365666666665
719,1778325859210,3.2590413,2.3949433333333334,0.17306566466666667,-2.9202067333333335,-0.17067972666666667,2.2537180666666665
720,1778325859220,3.0777879,2.4707634,0.4167158,-2.830719,-0.27366638,1.8585052000000002
721,1778325859230,2.8209316555555555,2.5760737777777774,0.6397298444444445,-2.5613861222222223,-0.12529500166666666,1.6117113
722,1778325859240,2.6609629200000002,2.6805056400000002,0.75844422,-2.2511566299999997,0.0937591555,1.44996189
723,1778325859250,2.6955943333333336,2.8710174000000004,0.7150751566666667,-1.980458566666667,0.4340413466666667,1.4884898
724,1778325859260,2.9264453111111113,3.151994777777778,0.6583730844444444,-1.7656317555555556,0.8101315111111111,1.5135888555555554
725,1778325859270,3.4475358,3.427833,0.7065348,-1.6860962,1.1969452,1.3279877
726,1778325859280,4.0183447,3.6747382,1.0984088,-1.2984585355555556,1.6417524666666665,0.6850416377777777
727,1778325859290,4.583378,3.9263209999999997,1.5364511,-0.51164246,2.1412964,-0.32957458
728,1778325859300,4.855379500000001,3.9674845666666667,1.5034624333333335,0.6992187666666667,1.9887848000000001,-1.5199941333333333
729,1778325859310,5.1082225,3.9585357000000005,1.3188741,1.8430125333333334,1.5220218777777776,-2.738127
730,1778325859320,5.170824,3.7004460000000003,0.83258855,2.4599152,0.9524689,-3.841751
731,1778325859330,4.76834889,3.29295558,0.26640070699999996,2.22641298,0.8309234719999999,-4.5425842
732,1778325859340,4.2434053,2.8453908,-0.34571967,1.5821381,0.83369446,-5.2984924
733,1778325859350,3.7024528999999995,2.4597398666666668,-0.374478535,0.08793472222222226,1.1854061511111111,-5.2816890999999995
734,1778325859360,3.5452669333333335,2.283517611111111,-0.0724980011111111,-1.2285613777777777,1.4925604888888888,-5.073549
735,1778325859370,3.6740208,2.2274377,0.23403962999999997,-1.552414,1.56073,-4.991165
736,1778325859380,3.7851752666666667,2.2057708888888885,0.44913533777777775,-1.6899499333333334,1.6389702888888888,-4.980629666666666
737,1778325859390,4.308244111111112,2.0927051555555556,1.4705001999999998,-1.8104926555555556,2.2197757666666664,-5.174089211111111
738,1778325859400,4.706956180000001,1.8969728,2.14126087,-0.8966247749999999,2.6408004800000002,-5.6459259
739,1778325859410,5.235823933333333,1.5042966333333334,2.8404076666666667,0.6750132166666667,3.1373799333333334,-6.422878666666667
740,1778325859420,5.4006978,1.0056338066666666,2.5248957777777776,2.1593424,3.2008870333333332,-7.274912666666667
741,1778325859430,5.401661188888889,0.3471667247111111,1.935415688888889,3.6219430999999997,3.1762084999999995,-8.396637
742,1778325859440,5.2690573,-0.0067847944,1.5907528,4.1659393,3.1644897,-9.006683
743,1778325859450,4.786623511111111,-0.5736347276444445,0.9841211733333333,4.511622077777777,2.9505496555555557,-9.619976333333334
744,1778325859460,4.175341400000001,-1.1270754666666667,0.3173838411111111,4.6295115,2.5820872333333336,-10.116741444444443
745,1778325859470,3.63074864,-1.50561408,-0.177906277,4.26315003,2.1824188600000003,-10.1943966
746,1778325859480,3.2708514333333336,-1.6676622444444444,-0.4802636755555556,3.552286777777778,1.7747362222222223,-10.055731777777778
747,1778325859490,2.9603963,-1.7443502,-0.6961865,2.7672577,1.5953522,-9.775269
748,1778325859500,2.704502633333333,-1.767169588888889,-0.6751560066666666,1.6409776444444444,1.6289757666666667,-9.256420555555556
749,1778325859510,2.3876077,-1.7768643444444445,-0.3467363922222222,0.18729824444444446,1.9012671777777779,-8.497000722222221
750,1778325859520,2.1935200200000002,-1.7546249800000002,0.03203132399999999,-0.26678467,2.18013607,-8.112760949999998
751,1778325859530,1.8904233666666665,-1.6798511,0.6819784977777777,-1.060311211111111,3.0315636777777777,-6.761752777777778
752,1778325859540,1.8433471999999997,-1.6245182,0.94668573,-1.0474701,3.312027,-6.232727
753,1778325859550,2.0024181333333333,-1.5159402000000002,1.2077865955555556,-0.5803510888888889,3.962966933333333,-5.462127555555556
754,1778325859560,2.1920232555555557,-1.4517666777777778,1.3391706222222224,-0.1582132988888889,4.428607544444445,-5.010809844444444
755,1778325859570,2.3322744333333336,-1.4369200333333334,1.2188914666666666,0.5784878166666666,4.616561855555556,-4.90546331111111
756,1778325859580,2.3775883,-1.4060873,1.0164872,1.0915985,4.6047363,-4.9075317
757,1778325859590,2.3621847444444444,-1.3994713888888888,0.9669166755555556,1.1952769,4.536553277777777,-4.930738633333333
758,1778325859600,1.86437255,-1.42187792,0.6752093,2.00510558,3.53392179,-5.00623621
759,1778325859610,1.5697590666666668,-1.4012057333333334,0.5403311533333334,2.3177032333333334,3.071985866666667,-4.9554748
760,1778325859620,1.3061231111111111,-1.3640278666666665,0.40637114444444444,2.3905011666666667,2.8426022222222223,-4.706200444444445
761,1778325859630,1.0154643666666667,-1.348571,0.23965267333333332,2.4102121333333333,2.6883189,-4.344899333333333
762,1778325859640,0.8186721,-1.3294526,0.12152902,2.3821564,2.6691437,-4.069702
763,1778325859650,0.5708321433333334,-1.3267142555555556,-0.09104600111111111,2.3036838222222222,2.6510941777777774,-3.470558977777778
764,1778325859660,0.40999942999999994,-1.3296969,-0.26920795,2.24745488,2.5692764299999995,-2.93786621
765,1778325859670,0.5354849888888888,-1.271191011111111,-0.6561472777777778,2.088443333333333,2.2475280555555557,-2.3878902777777777
766,1778325859680,0.7916361255555555,-1.1438745333333333,-1.051899477777778,1.7089690888888889,1.9481896111111112,-2.064353066666667
767,1778325859690,0.9211351633333335,-1.0622919444444443,-1.2498297444444444,1.2739884777777777,1.879481,-2.0567779555555554
768,1778325859700,0.9877629422222223,-0.9738746777777778,-1.371926188888889,0.5635698089777778,2.0044131666666667,-2.1917114666666664
769,1778325859710,0.9658393,-0.9205342499999999,-1.3777162,0.0055389404,2.243042,-2.3652802
770,1778325859720,0.7333747966666667,-1.04927545,-1.2150110444444444,-0.38381279995555556,2.591556111111111,-2.6487596222222223
771,1778325859730,0.357502207,-1.2595554100000002,-1.08710482,-0.37853851400000005,2.7495666,-2.85359957
772,1778325859740,0.016727116666666653,-1.4032399333333334,-1.1494542777777776,0.08124458111111113,2.393881933333333,-2.830569822222222
773,1778325859750,-0.6342009733333334,-1.6684891333333334,-1.5927707,1.1027747333333333,1.343590611111111,-2.6146207333333336
774,1778325859760,-0.97612536,-1.8174446000000002,-1.9801706999999997,1.8612518,0.3948059,-2.1165466
775,1778325859770,-1.2439914844444444,-1.8771579333333333,-2.7382668777777774,1.8272179333333334,0.06232197777777778,-1.5629628244444445
776,1778325859780,-1.3668606111111112,-1.9124106444444446,-3.3473258,1.4299944,-0.16707526555555555,-0.8903113533333333
777,1778325859790,-1.4072118333333334,-1.9639611333333333,-3.6364663666666663,0.24748570000000003,0.08089870277777776,-0.40614319555555556
778,1778325859800,-1.5542430333333332,-1.994820866666667,-3.619463077777778,-1.0256313666666665,0.24465941555555556,0.050972832777777775
779,1778325859810,-1.6627802,-1.9965836999999997,-3.4471998,-1.4703827,0.16416931,0.25100708
780,1778325859820,-1.8050793777777778,-1.9521513888888888,-3.066457288888889,-1.6468014444444445,-0.32893372,0.6397739177777777
781,1778325859830,-1.887313,-1.8927368000000002,-2.608497,-1.6237793,-1.050766,1.1575623
782,1778325859840,-1.8154211571428573,-1.8203221714285716,-2.393604,-1.4193180285714286,-1.5541076285714286,1.5332031571428573
783,1778325859850,-1.6340062,-1.6607121,-2.18715556,-1.11862796,-2.39183344,2.1794617
784,1778325859860,-1.4622866,-1.6268373,-2.1198938,-1.0645142,-2.866516,2.5621033
785,1778325859870,-1.12063389,-1.5886827555555554,-1.9017880777777778,-1.2145962222222222,-3.4254811333333333,3.0347866222222226
786,1778325859880,-0.91669697,-1.573388,-1.7029228,-1.3734436,-3.8204498000000005,3.402069
787,1778325859890,-0.728639038,-1.5503120200000002,-1.409357775,-1.49732669,-4.0121506,3.69015963
788,1778325859900,-0.46165222,-1.5480064,-0.86934495,-1.6104584,-4.1267242,4.164261
789,1778325859910,-0.39697737,-1.5531316,-0.7126601,-1.604599,-4.10968,4.247879
790,1778325859920,-0.07863158555555555,-1.5494706111111112,-0.19186894,-1.138670177777778,-4.132463222222222,5.1943105
791,1778325859930,0.10065667,-1.5556934,0.06319876,-0.83229065,-4.1645355,5.727005
792,1778325859940,0.5040009466666667,-1.5592735,0.19751186999999998,-0.48595852444444443,-4.020723122222223,6.300881244444445
793,1778325859950,1.0327106444444445,-1.5353021666666666,0.2230569033333333,-0.10666232577777778,-3.5843862333333334,6.967380088888889
794,1778325859960,1.4051416,-1.493826,0.11286526,-0.0072326660000000004,-3.24469,7.209320000000001
795,1778325859970,1.6436344200000002,-1.4293704600000001,-0.016607658000000008,-0.12212219120000001,-3.22535404,7.212515209999999
796,1778325859980,2.1829524,-1.2566024,-0.2771391,-0.39019775,-3.1802368,7.2199707
797,1778325859990,2.4413816,-1.1495963111111112,0.0062385000000000045,-0.9777560611111112,-3.2147963111111113,6.832926433333333
798,1778325860000,2.530584211111111,-1.0860732999999998,0.4199836,-1.2864430666666666,-3.058792133333333,6.4993235333333335
799,1778325860010,2.498233,-1.0753212777777776,0.6571257966666667,-1.2680884666666665,-2.843134533333333,6.272652444444444
800,1778325860020,2.3643279333333336,-1.0782510777777778,0.9454119766666668,-0.9388071666666666,-2.6712680555555557,6.090552333333333
801,1778325860030,2.262393,-1.080148,1.0280799,-0.5286865,-2.623642,6.011429
802,1778325860040,2.2216901333333334,-1.1015169111111112,0.9694788444444443,0.03655837000000003,-2.794789644444444,6.044576055555556
803,1778325860050,2.2632225000000004,-1.11586677,0.819252125,0.85457,-3.16526949,6.1688248
804,1778325860060,2.346552311111111,-1.095131688888889,0.69561966,1.208000988888889,-3.3288947111111113,6.281707777777778
805,1778325860070,2.4450707,-1.0617224,0.52629757,1.4271545,-3.375702,6.4354095
806,1778325860080,2.47631,-1.0506182,0.49176383,1.4180908,-3.3224487,6.4710846
807,1778325860090,2.679501333333333,-0.9742815166666667,0.3352007911111111,0.6903432177777779,-2.215693122222222,6.7058088
808,1778325860100,2.7273774444444445,-0.9638953722222223,0.31048376111111115,0.13185288888888888,-1.4774017,6.8527000000000005
809,1778325860110,2.7505894444444445,-0.9530764666666666,0.3531259388888889,-0.36882866444444445,-1.0342526244444443,6.993542088888889
810,1778325860120,2.8263146444444445,-0.8876012666666666,0.43741981111111117,-0.9909464511111111,-0.5825856488888888,7.191921688888889
811,1778325860130,2.9309878,-0.8262066,0.5210495,-1.2418823,-0.42918396,7.274291999999999
812,1778325860140,3.1685510888888886,-0.6913112666666668,0.7379624777777778,-1.6056094555555556,-0.19684346333333333,7.245593577777778
813,1778325860150,3.3754708,-0.5472086222222222,0.9478932666666667,-1.7550354,-0.11470370555555556,7.095926888888888
814,1778325860160,3.513240111111111,-0.45700271111111107,1.1065986555555556,-1.5659484666666668,-0.27265590888888885,6.863705133333333
815,1778325860170,3.713299444444445,-0.30678548000000005,1.3950870888888889,-0.9585266,-0.73332214,6.365631
816,1778325860180,3.7092870000000002,-0.17152372,1.536207,-0.31509399555555556,-0.9378441488888889,6.041792155555556
817,1778325860190,3.6070027500000004,-0.007016245999999995,1.38490322,0.16001434200000003,-0.8151306110000001,5.85989536
818,1778325860200,3.4901235,0.20164154,1.1119131,0.51527405,-0.5170746,5.7360535
819,1778325860210,3.4767003,0.23621620222222223,1.0201476066666666,0.4297570144444445,-0.36249120000000007,5.735461777777777
820,1778325860220,3.4263027,0.29914224,0.9125191,-0.25437927,0.874176,5.730728
821,1778325860230,3.4356165,0.41914969999999996,0.4263833388888889,-0.6380513666666666,1.1092326,5.6607818666666665
822,1778325860240,3.4365524,0.5379918133333333,0.30143911,-1.1788533666666665,1.1458129799999999,5.520879133333334
823,1778325860250,3.485364,0.6857278,0.30274153,-1.1943562888888888,0.7366349955555554,5.450159688888889
824,1778325860260,3.5634626666666662,1.0474621266666668,0.26434309,-1.110494,0.20944722666666668,5.264144866666666
825,1778325860270,3.6293579999999994,1.4207067,0.24197079,-1.046936,-0.127182,5.0691986
826,1778325860280,3.72539474,1.7861091000000002,0.214270096,-1.06120908,0.021954348000000005,4.84304804
827,1778325860290,3.9070953999999998,2.3567475333333334,0.07987558333333333,-1.131622288888889,0.2742428244444445,4.440936555555556
828,1778325860300,4.00667,2.58242,-0.09470715,-1.2919464,0.38734436,4.0651855
829,1778325860310,3.995823177777778,2.853498688888889,-0.2918096077777778,-1.9861416222222223,0.6553819533333334,3.1001247777777774
830,1778325860320,3.808590933333333,3.0202843555555554,-0.26395993333333334,-2.4972923777777774,0.8603854766666666,2.4362878111111113
831,1778325860330,3.4283498333333333,3.2069476444444445,-0.03690607666666667,-2.8931596777777777,0.8686625244444445,1.8455420555555557
832,1778325860340,3.0996042444444445,3.465242566666667,0.3937195888888889,-2.8996684444444445,0.6927151155555555,1.4816283888888888
833,1778325860350,3.0056686,3.8474903,1.0210011,-2.594757,0.59454346,1.2736664
834,1778325860360,3.35332857,4.20939074,1.40577007,-1.6499786399999998,0.665432743,0.658796695
835,1778325860370,3.9794576666666663,4.427045199999999,1.4656747666666667,-0.3711954577777778,0.6940816277777778,-0.5206570166666666
836,1778325860380,4.259527422222222,4.094069377777777,1.2283151444444445,0.8294152111111112,0.3511301677777778,-2.3388333111111113
837,1778325860390,4.201401433333333,3.7097067444444445,1.0929580222222224,1.4663221444444445,-0.03757731055555555,-3.4772441
838,1778325860400,3.936503,3.234297,0.9070269,1.9390106,-0.4286499,-4.447876
839,1778325860410,3.515207222222222,2.5860537555555556,0.56895336,1.7544250111111113,-0.2672102211111111,-4.998558888888889
840,1778325860420,3.1513722,2.0103493,0.33239427,1.1922607,0.21264648,-5.371994
841,1778325860430,3.2100673800000004,1.7141613800000002,0.432567505,0.9347839073000002,0.41381988000000003,-5.3622985
842,1778325860440,3.3977878666666665,1.2614190333333335,0.7374075,0.41177367666666664,0.88304646,-5.379806333333333
843,1778325860450,3.5767639999999994,1.1141715,1.0417475,-0.23519897,1.5090637,-5.419937
844,1778325860460,3.8562097222222227,0.9081467555555557,1.5683001111111112,0.5279439577777778,1.5031467,-5.768507166666667
845,1778325860470,4.0797663,0.74332696,1.9895422,1.1384583,1.4984131,-6.0473633
846,1778325860480,4.2235156555555555,0.5883502866666667,1.9762280666666667,2.1247202666666665,1.2159373,-6.510406533333334
847,1778325860490,4.4491060000000004,0.19915958633333333,1.5757844,3.5750783333333334,0.6907602733333333,-7.351257333333333
848,1778325860500,4.371142666666667,-0.09693729166666668,1.0918182666666667,4.001541133333333,0.37532721555555554,-7.943779888888888
849,1778325860510,4.2580902,-0.23272806666666668,0.8733196,4.011664533333334,0.28531732000000004,-8.22714588888889
850,1778325860520,3.9205857333333336,-0.45487452444444443,0.49633303333333334,3.659178022222222,0.2928975555555555,-8.420077999999998
851,1778325860530,3.68458824,-0.506516484,0.337080484,2.9712463399999995,0.4150467,-8.25886988
852,1778325860540,3.451776475,-0.4820554325,0.2455550875,2.08161925,0.625234605,-7.9434184624999995
853,1778325860550,3.4595182299999996,-0.508371354,0.396337002,1.2482315,0.9973678579999999,-7.647991930000001
854,1778325860560,3.4820695,-0.5483489,0.5321553,0.6803894,1.3556671,-7.4828186
855,1778325860570,3.448186,-0.5794789888888889,0.6796468788888889,0.3514692544444445,1.6299235222222221,-7.386296688888889
856,1778325860580,3.464063111111111,-0.6455634444444445,1.036933277777778,0.16901482777777777,1.8862372222222221,-7.341678166666666
857,1778325860590,3.4910999333333335,-0.7770296,1.5300240666666667,0.5337473566666666,1.9474283333333335,-7.486017866666667
858,1778325860600,3.422519822222222,-0.8651610666666666,1.8076258666666665,1.0551910444444443,1.8842824,-7.648763044444444
859,1778325860610,3.269902266666667,-0.9269493444444444,1.8963668666666667,1.8407711555555555,1.802380066666667,-7.840979688888889
860,1778325860620,3.2243452,-0.9421345000000001,1.8880145999999998,1.9704284999999997,1.7924347,-7.864181499999999
861,1778325860630,2.71753476,-1.12183428,1.242312744,3.12550354,1.78198852,-7.7931274
862,1778325860640,2.5362384666666666,-1.1432790444444445,0.8604114355555557,3.2707044444444446,1.7598198444444444,-7.661783888888889
863,1778325860650,2.2655251111111117,-1.078305188888889,0.31825262888888894,2.9545593333333335,1.7874603666666669,-7.426356
864,1778325860660,2.0859530222222222,-1.0298731888888888,0.085638808,2.2159780333333337,1.921325666666667,-7.0007782
865,1778325860670,2.0132098,-1.0072978,0.055877342999999996,1.8026580999999997,2.02359,-6.7845306
866,1778325860680,1.8797377777777777,-0.9777667333333332,0.17654983211111108,1.3439958555555556,2.3007948000000003,-6.478212088888889
867,1778325860690,1.7786708,-0.9534829999999999,0.2912702,0.9776000999999999,2.5588837,-6.216751
868,1778325860700,1.6727915,-0.9790273,0.36017636000000003,0.90800476,2.8465016666666667,-6.031214433333333
869,1778325860710,1.5518203,-1.019623,0.38035136,0.9499054000000001,3.0489044,-5.8689423
870,1778325860720,1.5031302444444445,-1.031961588888889,0.3551056577777778,1.0062543888888889,3.0634070777777778,-5.816746955555556
871,1778325860730,1.1680940444444443,-1.099375077777778,-0.09298459866666667,1.2361127666666667,2.843843233333333,-5.327197555555555
872,1778325860740,1.0728577,-1.1309127,-0.30264354,1.2545776,2.6851196,-5.116867
873,1778325860750,0.9532017555555554,-1.2124683111111112,-0.5601245733333333,0.9516872666666667,2.7134111,-4.871198866666666
874,1778325860760,0.8304275200000001,-1.3259550333333334,-0.8310689,0.4726715066666667,2.8640899666666666,-4.5519104666666665
875,1778325860770,0.7075584177777777,-1.511059011111111,-1.0672342555555554,0.036731297777777776,3.1854468333333332,-4.417931555555556
876,1778325860780,0.5192545366666667,-1.6597439666666667,-1.2637413,-0.2795918766666667,3.3571268,-4.3482768
877,1778325860790,0.31457213,-1.7355651,-1.3911395,-0.48553467000000006,3.3844604,-4.2811584
878,1778325860800,-0.018308643333333326,-1.773596988888889,-1.4420384333333331,-0.53093126,3.0949503333333332,-3.9860789666666667
879,1778325860810,-0.340527621,-1.83008856,-1.51762148,-0.44665832200000005,2.5482361,-3.50021054
880,1778325860820,-0.38583269,-1.8729693666666667,-1.6483753333333333,-0.25153605,2.014714566666667,-3.080424
881,1778325860830,-0.4562025133333333,-1.8982285333333333,-1.7900099,-0.10292561866666668,1.8000640666666667,-2.792984
882,1778325860840,-0.510709,-1.9179970000000002,-1.8902357,-0.023742676,1.7492828,-2.634262
883,1778325860850,-0.7502642,-2.045069577777778,-2.228717033333333,0.17658827044444445,1.3183237555555556,-2.468733011111111
884,1778325860860,-1.0590701285714286,-2.1925785714285713,-2.5060105714285714,0.3168356742857143,0.724116745,-2.2651476142857145
885,1778325860870,-1.3579010857142857,-2.3351609285714288,-2.650491542857143,0.29751368857142857,-0.08563668357142855,-1.781675042857143
886,1778325860880,-1.6009122,-2.369259388888889,-2.6490507333333335,0.24203660555555556,-0.4803246377777778,-1.41104634
887,1778325860890,-1.760648,-2.3846345,-2.589827,0.14830017,-0.9106903,-0.82917786
888,1778325860900,-1.8942961999999999,-2.3515646,-2.4575612222222225,0.018627590444444446,-1.1434462,0.001142714444444458
889,1778325860910,-2.040215,-2.305438,-2.3246586,-0.08139207644444443,-1.2689090666666667,0.7209150555555556
890,1778325860920,-2.1654165,-2.2522345,-2.2234964,-0.11127895888888888,-1.3973998888888888,1.578457311111111
891,1778325860930,-2.194948,-2.1848733,-2.1706583,-0.10417174999999998,-1.5881958,2.2611694
892,1778325860940,-2.189185111111111,-2.171585577777778,-2.1681498,-0.10322909666666666,-1.6173095777777777,2.349466955555555
893,1778325860950,-2.0819079777777776,-2.1136896444444444,-2.159878733333333,-0.11944919,-1.7273831,2.6649017666666666
894,1778325860960,-1.1705440333333332,-1.764878577777778,-2.1490727222222223,-0.3237372466666667,-2.359147822222222,4.416370000000001
895,1778325860970,-0.6599086233333333,-1.6022686666666666,-2.0079533333333335,-0.9142574755555556,-2.7268405777777778,5.343329533333334
896,1778325860980,-0.2349509533333333,-1.474314688888889,-1.7808305,-1.4719696,-2.960266,5.6572266
897,1778325860990,0.09089478,-1.3865634,-1.4639897,-1.7750397,-3.217514,5.744049
898,1778325861000,0.43452619,-1.2652525444444445,-1.0005114555555557,-1.7833302777777778,-3.5355614666666666,5.724283844444445
899,1778325861010,0.7446009,-1.1484843,-0.5092376,-1.6898193,-3.898758,5.677475
900,1778325861020,0.9601580333333334,-1.0787787111111111,-0.047820032222222225,-1.1862436666666667,-4.218745066666667,5.635750655555556
901,1778325861030,1.2217194777777776,-1.0390109111111112,0.45008430444444447,-0.5068512,-4.3339233,5.6705475
902,1778325861040,1.4367340333333334,-1.0173179555555558,0.5769664155555555,0.4700113866666666,-4.123708133333333,5.774414
903,1778325861050,1.6364402666666666,-0.99400974,0.44745321444444447,0.9858364333333333,-3.9395345333333336,5.794535155555555
904,1778325861060,1.8028328,-0.9472596599999998,0.21695477,1.2588348,-3.722458,5.7456512
905,1778325861070,1.8496105222222223,-0.89703788,0.004408611111111105,1.196573888888889,-3.5312381666666663,5.6987762
906,1778325861080,1.8845924999999997,-0.8310876,-0.17597692,0.88012695,-3.2548065,5.6519012
907,1778325861090,1.8986937222222222,-0.7863306944444445,0.03670473973333333,0.40165879755555556,-2.842480111111111,5.663321733333333
908,1778325861100,1.8489061666666666,-0.7688130722222222,0.41721734666666666,0.018325805333333334,-2.2882436,5.7019755
909,1778325861110,1.8177215,-0.7600681,0.55253303,-0.02748108,-2.1320038,5.7381897
910,1778325861120,1.8194700777777777,-0.7705623844444445,0.70741466,0.1600799588888889,-2.001044355555555,5.865782011111111
911,1778325861130,1.8991680333333332,-0.7931640522222223,0.7518194911111111,0.5348086933333334,-1.9379543777777775,5.987755644444444
912,1778325861140,1.9728182999999997,-0.80948883,0.6916462,0.861496,-2.0132446,6.075348
913,1778325861150,1.9728182999999997,-0.80948883,0.6916462,0.861496,-2.0132446,6.075348
914,1778325861160,2.1356542000000003,-0.77483255,0.581991508,1.10336455,-2.14527584,6.12195129
915,1778325861170,2.1818542,-0.76238567,0.55753684,1.1869354,-2.1916656,6.1371307
916,1778325861180,2.3311358500000003,-0.6680985083333333,0.44773163833333335,1.2615000333333335,-2.0611699,5.96402745
917,1778325861190,2.3094959285714287,-0.41132779,0.3034908,0.7472795857142857,-1.1611001,5.643232285714285
918,1778325861200,2.097009642857143,-0.32367584285714285,0.39042722,0.03811209285714284,-0.23880658714285713,5.706460285714286
919,1778325861210,2.0444505,-0.32540104,0.45308024,-0.1931305,0.08534241,5.789322
920,1778325861220,2.0611003555555554,-0.41228628,0.6014943755555555,-0.7049848777777777,0.8644578666666667,6.1964295555555555
921,1778325861230,2.160404711111111,-0.44431228888888885,0.6424416555555555,-0.9553222666666668,1.2447001000000002,6.456888666666667
922,1778325861240,2.3945632666666667,-0.47632409777777773,0.6395136666666666,-1.0818481555555555,1.3894619444444445,6.576436333333333
923,1778325861250,2.663663822222222,-0.4498841744444444,0.6405162355555556,-1.1199663000000002,1.332238111111111,6.561994722222222
924,1778325861260,2.9042637,-0.39654496,0.64734906,-1.0735626,1.1420898,6.447647
925,1778325861270,3.0723105888888886,-0.31098893777777775,0.6616133977777778,-0.9328291122222221,0.81795076,6.205717222222223
926,1778325861280,3.2075047,-0.19117038,0.6734648,-0.6815491,0.26589966,5.7664185
927,1778325861290,2.991921677777778,-0.11822406777777777,0.5919625500000001,-0.6649763277777778,0.3470442,5.492048466666667
928,1778325861300,2.7826831333333337,-0.08383951666666667,0.49756701555555555,-0.8189680222222223,0.6202782444444446,5.4922316222222225
929,1778325861310,2.6582537,-0.07121546,0.4538128699999999,-1.0016632,0.8464813,5.6306
930,1778325861320,2.6706195666666668,-0.04257960922222222,0.4417046911111111,-1.1745893777777778,1.025914488888889,5.818796844444445
931,1778325861330,2.7642431111111114,0.05488030888888889,0.41831548,-1.5982056,1.4568634,6.280945
932,1778325861340,3.344597677777778,0.4107437966666667,0.4769848311111111,-1.8136867666666667,1.6631707111111111,6.326097166666667
933,1778325861350,3.713476766666667,0.6809427322222222,0.5383787844444445,-1.7841559222222223,1.6351216222222222,6.080320333333333
934,1778325861360,4.092348666666667,1.074524977777778,0.6302792166666666,-1.2214575666666667,1.1311357111111109,5.325047666666666
935,1778325861370,4.106924,1.2729298444444443,0.5890749399999999,-0.6894158333333333,0.7008277033333333,4.797802388888889
936,1778325861380,4.023876,1.4745216,0.46882278,-0.1073761,0.18174744,4.310196
937,1778325861390,3.7886866999999995,1.6063390777777777,0.10494621111111112,0.2258249933333333,-0.19950527444444444,3.9380153777777775
938,1778325861400,3.4183701400000004,1.7306107400000001,-0.46157351599999996,0.35112304365999997,-0.59142456,3.47077638
939,1778325861410,3.188020822222222,1.8308456444444445,-0.7176490288888889,0.0012817383,-0.5074768,3.4515991
940,1778325861420,3.0554978888888886,2.1423174,-0.7639795055555555,-0.9541964888888889,-0.13305155222222223,3.606604666666667
941,1778325861430,3.2422826,2.486383,-0.40917507,-1.7249756,0.22062683,3.7216492
942,1778325861440,3.5115731555555554,2.823561588888889,-0.013205276111111096,-1.7274644888888888,0.39651320111111116,3.513095444444444
943,1778325861450,4.135152311111111,3.6637834,0.7687418666666667,-1.4016724,0.5252991,2.9972687
944,1778325861460,4.399657111111111,4.070436244444444,0.9832946888888888,-0.5894673933333333,0.34740363555555553,2.167833095555556
945,1778325861470,4.696060040000001,4.6064846600000005,1.0125691419999998,1.115872184,-0.050375368,0.24291076399999997
946,1778325861480,4.5943604,4.633721,0.47650972,1.8308868000000003,-0.3141327,-0.9974823000000002
947,1778325861490,4.247378511111111,4.409323644444445,0.00707859000000002,1.8942074,-0.4703742111111111,-2.0063493333333335
948,1778325861500,3.6170327333333336,3.9239614666666665,-0.7311267,1.5981190666666665,-0.5529327266666667,-3.4831034
949,1778325861510,3.064108422222222,3.3123265777777777,-1.0354660111111111,0.27896626666666663,-0.1854163248888889,-4.088290777777778
950,1778325861520,2.7626570222222226,2.8118735666666668,-0.9487450111111111,-1.0246802444444445,0.20346408422222223,-4.339509777777778
951,1778325861530,2.7641754,2.4758885,-0.5142414,-1.9273682,0.5236969,-4.405792
952,1778325861540,3.0390444899999998,2.1394437099999997,0.27092793200000004,-2.27310791,0.643865965,-4.66641085
953,1778325861550,3.402641977777778,1.770007188888889,1.3553054555555557,-2.060955488888889,0.568798488888889,-5.145265411111111
954,1778325861560,3.5595035000000004,1.3787282333333333,2.1581189666666667,-0.9029490099999999,0.4063466333333333,-5.703638733333333
955,1778325861570,3.586282,1.2139899,2.3717368,0.23405456999999996,0.2579193,-6.121933
956,1778325861580,3.6664412888888886,1.0188529222222222,2.3044854222222226,1.6193762855555556,-0.13883633555555555,-6.485078777777777
957,1778325861590,3.6764612000000003,0.9944608,2.296079,1.7925414999999998,-0.18843079,-6.530472
958,1778325861600,3.8841811999999996,0.8005171022222222,1.9047198888888888,2.6511433666666666,-0.6045989966666666,-6.857864466666666
959,1778325861610,4.011443288888889,0.6047153444444444,1.4660270444444443,3.2786407333333334,-0.939390388888889,-7.425532066666666
960,1778325861620,4.1069784,0.0137158,0.2429476,3.3632660000000003,-1.0656891,-8.716385
961,1778325861630,3.899976611111111,-0.12672553833333333,0.04153193888888889,2.6989543333333335,-0.8537530111111111,-8.833982444444445
962,1778325861640,3.6703594777777777,-0.2780815166666667,-0.1833265077777778,1.6505533777777777,-0.4127349933333333,-8.798471777777777
963,1778325861650,3.6415876444444444,-0.3072183888888889,-0.2517579188888889,1.15218773,-0.11126708777777779,-8.657860444444445
964,1778325861660,3.788279666666666,-0.30473764000000003,-0.21978618533333333,0.5664113366666668,0.06012980166666667,-8.534947666666667
965,1778325861670,3.9562726,-0.30758512,-0.081649296,0.17225647,0.020355225,-8.526779
966,1778325861680,3.91634412,-0.43400691199999997,0.0916566316,-0.132305906,-0.108331296,-8.7133022
967,1778325861690,3.8267185,-0.5040102866666667,0.21500270333333332,-0.28190104,-0.031845093333333324,-8.883107333333333
968,1778325861700,3.7086759,-0.5568898,0.27967757,-0.35610962,0.06297302,-9.016266
969,1778325861710,3.376880811111111,-0.6223515333333334,0.36374229,-0.3472951266666667,0.06149122444444445,-9.158296499999999
970,1778325861720,3.1068308,-0.647923,0.44685698,-0.2780558288888889,-0.02172512444444445,-9.237956
971,1778325861730,2.971258,-0.6558557,0.49383724,-0.17767334,-0.12399292,-9.243164
972,1778325861740,2.424326,-0.6402361,0.61037487,0.28092957,-0.27366638,-9.068466
973,1778325861750,2.164771,-0.6514616,0.57474303,0.48332214,-0.29710388,-8.927322
974,1778325861760,1.977145111111111,-0.6685454222222221,0.44861961222222224,0.7002207511111112,-0.3078731988888889,-8.681007999999999
975,1778325861770,1.7539547444444445,-0.71676054,0.22267738777777776,1.0281507777777776,-0.3275146477777778,-8.18104011111111
976,1778325861780,1.5360919888888889,-0.7657891266666668,0.0006930233333333356,0.9168836666666667,-0.2565036388888889,-7.801333888888889
977,1778325861790,1.2593581666666667,-0.8042013833333334,-0.22828766,0.6744774933333333,-0.10831536666666666,-7.369900288888889
978,1778325861800,1.0905523,-0.80997723,-0.33168656,0.34803772,0.1162262,-7.0157013
979,1778325861810,0.8413694888888889,-0.8029947088888889,-0.4123607688888889,-0.10873243777777779,0.4400753422222222,-6.595155611111111
980,1778325861820,0.5492334444444444,-0.7964594755555555,-0.4413495288888889,-0.9119974722222222,1.0096333666666668,-5.798511122222222
981,1778325861830,0.31087073333333337,-0.8012725166666667,-0.38306040333333335,-1.3415984888888888,1.2431623777777778,-5.210785044444445
982,1778325861840,0.22878539999999997,-0.79191715,-0.33766565,-1.5358887,1.2688446,-4.8255157
983,1778325861850,0.18534373,-0.7761746,-0.30984363,-1.6196966999999998,1.1807911777777778,-4.509245122222222
984,1778325861860,0.25058891222222224,-0.7069170755555556,-0.060796135777777774,-1.4377085222222223,0.4053937977777778,-3.5161861444444447
985,1778325861870,0.32811838,-0.67904097,0.023784112,-1.2972717,0.10984802,-3.2111053
986,1778325861880,0.4586070422222222,-0.6498619411111111,0.03419651908888889,-1.0907253444444445,-0.11292521222222224,-3.032902977777778
987,1778325861890,0.6022888822222223,-0.6245481311111111,-0.0111718043,-0.8763088444444445,-0.28467305666666665,-2.9169684777777776
988,1778325861900,0.693064561111111,-0.6274488266666666,-0.07107443155555555,-0.8461354555555556,-0.12345716444444443,-2.943839166666667
989,1778325861910,0.6744595999999999,-0.6548297479999999,-0.12174833560000001,-0.916018676,0.198577882,-3.0026306
990,1778325861920,0.6139088,-0.68441033,-0.16267642,-0.9888763400000001,0.45391845999999997,-3.032669
991,1778325861930,0.5432406844444445,-0.6965589455555555,-0.1836654222222222,-1.0242665577777776,0.5367736866666667,-3.015921633333333
992,1778325861940,0.24778239666666668,-0.7482717,-0.26611628666666665,-1.3452046666666666,1.2613983333333332,-2.8173166666666667
993,1778325861950,0.10919858666666667,-0.7633619866666667,-0.28991179333333333,-1.4781849999999999,1.5016123333333333,-2.603729266666667
994,1778325861960,0.007426325111111112,-0.7611111133333334,-0.30154538,-1.599982322222222,1.7661556111111112,-2.4153510222222225
995,1778325861970,-0.052368287,-0.77629745,-0.30154538,-1.6567993,2.0161285,-2.2576904
996,1778325861980,-0.11350489133333334,-0.80016089,-0.2787529488888889,-1.5919969222222223,2.035363066666667,-2.224075288888889
997,1778325861990,-0.31346156000000003,-0.8884907720000002,-0.22190882799999997,-1.11650086,2.04702456,-2.03569028
998,1778325862000,-0.5460014111111111,-1.0772746222222223,-0.3274417722222222,-0.5363820266666667,1.8337419555555554,-1.9059227777777776
999,1778325862010,-0.67105384,-1.1960220222222224,-0.40799413333333334,-0.012039185,1.6443634,-1.7964325
1000,1778325862020,-0.68179256,-1.2326846,-0.4376068,-0.012039185,1.6443634,-1.7964325
