id,timestamp,acc_x,acc_y,acc_z,gyro_x,gyro_y,gyro_z
0,1778325911590,0.59108907,-0.68880284,0.30774534,0.32060242,0.25917053,-0.24301147
1,1778325911600,0.555273685,-0.687704725,0.274858065,0.140304563,0.12627411,-0.17562866
2,1778325911610,0.5745235375000001,-0.69450758125,0.287991345,0.0032806393750000017,0.07321167149999999,-0.133014679
3,1778325911620,0.5987776,-0.6977108,0.29187992,-0.079956055,0.042922974,-0.123687744
4,1778325911630,0.5925991925,-0.7054899,0.32118251999999997,-0.122230530625,0.017017364625000003,-0.13221359124999998
5,1778325911640,0.56428324,-0.7210588666666666,0.3846630133333333,-0.22074381666666668,-0.04586792,-0.15015156666666668
6,1778325911650,0.5582637377777777,-0.7234448977777778,0.4931325999999999,-0.2026299388888889,-0.025631374666666668,-0.14268832666666664
7,1778325911660,0.5726623933333334,-0.7183337633333333,0.6515797833333333,-0.09414673,0.040954589666666666,-0.14339701333333332
8,1778325911670,0.58681786,-0.71272075,0.77010995,0.05001831,0.108428955,-0.15724182
9,1778325911680,0.5581543555555556,-0.7530714277777778,0.7540025922222222,0.4433424211111111,0.19009737833333332,-0.13345845555555555
10,1778325911690,0.5542630233333333,-0.8005404444444444,0.6758502555555554,0.7807973277777778,0.2581549644444444,-0.08422004044444445
11,1778325911700,0.5179804777777778,-0.8008525666666667,0.4544899866666667,0.8642968222222223,0.17365180133333336,0.0017140706666666644
12,1778325911710,0.4714198233333333,-0.7499795666666667,0.29354788,0.8134562233333332,0.007405598666666666,0.10285440933333333
13,1778325911720,0.49505254666666665,-0.6818469666666667,0.2518550333333333,0.6465691499999999,-0.15167575555555557,0.1747063511111111
14,1778325911730,0.5495863222222223,-0.6352327444444446,0.24559114,0.4887288433333333,-0.2702789333333333,0.18364461333333332
15,1778325911740,0.5692461,-0.6315723,0.25759044,0.39675903,-0.3299408,0.16659546
16,1778325911750,0.6157252111111111,-0.6400324644444445,0.3420884177777778,0.25022718555555556,-0.3720754,0.0880025231111111
17,1778325911760,0.63627047625,-0.6399461625,0.43773492875,0.17272376625,-0.40350532375,0.002347946249999999
18,1778325911770,0.63331047,-0.6315106724999999,0.54225238125,0.18211173875,-0.40196991,-0.07295608525
19,1778325911780,0.63444914,-0.6360182533333334,0.6099276,0.23685031555555558,-0.35324944444444445,-0.102381388
20,1778325911790,0.6484425,-0.6696446,0.6668744,0.37652588,-0.24577331999999996,-0.11943054
21,1778325911800,0.6739733577777778,-0.7038532333333334,0.6921480666666667,0.6620212088888889,-0.09190368755555556,-0.16227722
22,1778325911810,0.6849153088888889,-0.7045310577777778,0.6969484888888888,0.8509877522222222,0.011072794555555557,-0.19459025222222223
23,1778325911820,0.6938372866666667,-0.68001624,0.656706,0.9949035733333333,0.12351481000000002,-0.20926920666666668
24,1778325911830,0.7099723044444444,-0.6451707333333333,0.5749193133333333,1.096459311111111,0.24501884888888886,-0.23702324444444445
25,1778325911840,0.71262896,-0.6197339,0.50591826,1.0907898,0.3789978,-0.31704712
26,1778325911850,0.7014025422222222,-0.5952202999999999,0.43994202,0.9723629388888888,0.4703809933333333,-0.39486864111111114
27,1778325911860,0.68480694,-0.5727536,0.37998426,0.7909088,0.57980347,-0.47151184
28,1778325911870,0.6999791666666666,-0.5359827,0.36668378333333335,0.5545942377777777,0.6459180888888888,-0.5220489488888889
29,1778325911880,0.7347161,-0.4841609,0.36839163,0.27372742,0.6442566,-0.58335876
30,1778325911890,0.7661996,-0.45109084,0.3852323,0.19223022,0.5739441,-0.6147766
31,1778325911900,0.9319146222222222,-0.34834263777777774,0.5376059111111111,0.11257256311111112,-0.06675889451111111,-0.8016136866666668
32,1778325911910,1.0502821,-0.29111156,0.6312426,0.124053955,-0.43859863,-0.9061279
33,1778325911920,1.2083912333333333,-0.21732496666666667,0.6934359833333333,0.30562846111111114,-0.75361294,-1.1249237111111112
34,1778325911930,1.4319206666666666,-0.10123512144444445,0.7711000777777778,0.5566694533333334,-0.9513973777777777,-1.4945695777777779
35,1778325911940,1.6108139444444445,0.03180340066666667,0.8511920555555555,0.7935112944444445,-0.8664720222222222,-1.9196743555555555
36,1778325911950,1.6639655,0.11207198999999998,0.8740797,0.9549560500000001,-0.7571106,-2.2515564
37,1778325911960,1.6760051444444444,0.13550163444444446,0.8832989000000001,0.9942491344444444,-0.7230258533333332,-2.3325160444444446
38,1778325911970,1.9215667333333333,0.3969951777777778,0.7937566822222223,1.4355146822222222,-0.6671498644444445,-3.0557166222222225
39,1778325911980,2.189175666666667,0.5760114255555556,0.5559364777777778,1.708575788888889,-1.0510609777777777,-3.769032822222222
40,1778325911990,2.307544,0.61885667,0.3895035,1.7411194,-1.4378204,-4.1312256
41,1778325912000,2.6628095333333337,0.6793831866666666,0.12152849733333333,1.3423614333333334,-2.6566517666666667,-4.986623333333333
42,1778325912010,2.7330575,0.68853533,0.066127636,1.2415161,-2.883377,-5.141083
43,1778325912020,3.0716261,0.538134375,0.045199300000000005,0.25707626749999996,-3.616212875,-5.914476312500001
44,1778325912030,3.3073488400000004,0.37140636800000004,0.276517093,-0.6506652980000001,-3.6852020600000004,-6.38617845
45,1778325912040,3.609833266666667,0.24704840888888885,0.8512596444444446,-1.4181010333333335,-2.7935333333333334,-6.580088333333333
46,1778325912050,3.82698385,0.22976764,1.3499598750000001,-1.6863632499999999,-1.7433414675,-6.7132264500000005
47,1778325912060,4.0372996,0.20029765,1.9070513999999998,-1.5111389,-0.23565673999999998,-7.0287476
48,1778325912070,4.12591951111111,0.17093040555555555,2.4993782444444443,-0.35111658888888886,-0.22666422555555554,-7.220960855555556
49,1778325912080,4.348229,0.09718495,3.328808,1.5930634,-0.73046875,-7.419693
50,1778325912090,4.578170511111111,-0.025942878888888892,3.3987150888888893,2.986006011111111,-1.229965188888889,-7.652160577777778
51,1778325912100,5.1613867777777775,-0.3408587566666667,2.9054220222222225,5.0139735777777785,-2.0092010888888887,-8.316051666666668
52,1778325912110,5.284677,-0.517108,2.3068178,5.481262,-2.4934845,-8.862061
53,1778325912120,5.091328755555556,-0.5370936088888889,2.0816610444444446,5.2730102,-3.096603366666667,-9.199926
54,1778325912130,4.9856788666666665,-0.5339342055555556,1.9431446333333335,5.0093536,-3.7702025999999997,-9.472458
55,1778325912140,5.532557333333333,-0.49465538666666664,1.7811185333333333,4.458260455555556,-4.305859,-9.784872777777778
56,1778325912150,5.716902,-0.5744615,1.4750706,4.0021515,-4.377945,-10.182983
57,1778325912160,5.214021,-0.52101374,1.5011848,3.3511640333333332,-4.456056377777778,-10.509671
58,1778325912170,5.084508666666666,-0.5868816266666667,1.5069741,2.9173007555555555,-4.409542444444444,-10.384855611111112
59,1778325912180,5.030599111111111,-0.7082865377777777,1.461809688888889,2.367508,-4.352371,-10.115875
60,1778325912190,5.230780444444445,-0.8112789555555556,2.2363388,2.3426463,-4.679941666666667,-10.514989
61,1778325912200,5.359493633333333,-1.1376922444444444,2.921922911111111,2.5944061,-4.797119,-11.181137
62,1778325912210,4.526281944444444,-1.6456016666666666,2.587619266666666,3.5951623333333336,-4.589514833333334,-11.958842333333333
63,1778325912220,3.1621101,-2.141980825,1.823554025,4.342502675,-4.56875225,-12.30965825
64,1778325912230,1.9492674,-2.2629733,1.0693253,4.2897797,-4.653839,-11.853851
65,1778325912240,1.0649262177777779,-2.0976105777777776,0.32838076666666666,3.564385322222222,-4.360546533333333,-10.825510444444445
66,1778325912250,0.31835493,-1.9117738,-0.45359355,2.354721,-3.8186798,-9.508133
67,1778325912260,0.09999094566666666,-1.7345208555555556,-0.6341140611111111,0.86169262,-3.2169833555555556,-8.055775966666666
68,1778325912270,0.03660415588888889,-1.4977037333333334,-0.41759446222222224,-0.7183990599999999,-2.5297088666666667,-6.399164866666667
69,1778325912280,0.047451567,-1.4241474,-0.24553429000000002,-1.1141527333333334,-2.155142944444444,-5.877127788888888
70,1778325912290,0.23488735000000002,-1.2632322,0.0010452502666666664,-1.5304819666666667,-0.9669596333333332,-5.310470566666666
71,1778325912300,0.4557587,-1.1744772,0.0058453134,-1.8035431,0.2059021,-5.1155243
72,1778325912310,0.25152390555555554,-1.2203187111111111,-0.09100521777777777,-1.938417211111111,0.8303799222222222,-5.148961444444444
73,1778325912320,0.10343467933333333,-1.247761711111111,-0.10412995444444445,-1.9645775666666667,0.9994032333333335,-5.167546622222222
74,1778325912330,0.053796172,-1.2731973,-0.070910595,-1.9484252999999998,0.9878082000000001,-5.1687927
75,1778325912340,-0.322982365,-1.34618675,0.44150238500000005,-1.4244461,0.592460635,-5.00168225
76,1778325912350,-0.5704885944444444,-1.453502,0.7024517644444445,-1.0349579,0.56648254,-4.771988
77,1778325912360,-0.5867626225,-1.58031385,0.31866562,-0.3663749725,-0.39944840000000004,-4.0511894250000005
78,1778325912370,-0.6941325625,-1.6873933625,0.34619892375,-0.1849365275,-0.7300701125,-3.5485172375
79,1778325912380,-0.6711751,-1.6713771,0.12250583,-0.08100891,-1.0031738,-2.7282715
80,1778325912390,-0.5799330428571429,-1.5681412428571428,0.15806789857142858,-0.15344892142857144,-0.9774605714285715,-2.1607884142857143
81,1778325912400,-0.36363356999999996,-1.404074075,0.27775584750000004,-0.20870972,-0.782810225,-1.3020133999999999
82,1778325912410,-0.11785767833333333,-1.3604079000000002,0.2766273633333333,-0.03431702,-0.32833863999999996,-0.8857167666666667
83,1778325912420,0.218382846875,-1.4420243750000001,0.060163522750000004,0.164138795,0.42094421000000004,-0.5171775750000001
84,1778325912430,0.37839305,-1.5802225,-0.122040756,0.08943176,1.0229492,-0.4736328
85,1778325912440,0.4661992655555556,-1.6941154333333333,-0.3657997742222222,-0.30483839333333335,1.7037794444444445,-0.57436116
86,1778325912450,0.512837595,-1.76910685,-0.55498301875,-0.65838623,2.2187195,-0.67497253
87,1778325912460,0.36732944222222225,-1.8639792666666668,-0.4409834888888889,-1.0516526888888889,2.4032440222222227,-0.650293988888889
88,1778325912470,0.30228265571428575,-1.8790530571428572,-0.31462058000000004,-1.1351013,2.3129883,-0.5561981
89,1778325912480,0.30981407,-1.8657688,-0.28250846,-1.0898285,2.1888885,-0.5215759
90,1778325912490,0.31333468428571426,-1.7946090857142856,-0.16968452914285717,-0.29711042571428575,1.1159384357142856,-0.38681683
91,1778325912500,0.29882962,-1.686387,-0.118990555,0.45588684,0.12387085000000002,-0.26750183
92,1778325912510,0.11264516999999999,-1.586689625,-0.283118965,0.8074264624999999,-0.13912201000000002,-0.17243576249999998
93,1778325912520,-0.21234785,-1.4961854499999998,-0.413364625,0.8364588416666666,0.14101155499999998,0.0025482166666666675
94,1778325912530,-0.39172935,-1.4610002,-0.45322645000000006,0.7578888,0.38113403,0.1463623
95,1778325912540,-0.5132701166666667,-1.4553598444444444,-0.4814827722222222,0.5913509822222223,0.6121792166666666,0.5747138111111111
96,1778325912550,-0.9386628,-1.4356186,-0.5803799,0.27745056,0.9590454,1.3937836
97,1778325912560,-1.0917131555555555,-1.2844106444444445,-0.6006648111111111,-0.13184441511111109,1.1313747777777778,2.239364622222222
98,1778325912570,-0.9571022666666666,-1.1799813777777777,-0.5680698755555555,-0.46781920888888884,1.2872009,2.7978041111111107
99,1778325912580,-0.6994999266666667,-1.0532616222222222,-0.49605909555555555,-0.8352796666666666,1.3923661777777778,3.2175174444444443
100,1778325912590,-0.5886976977777778,-1.0082869888888888,-0.4799098944444445,-0.9545305111111111,1.3986951777777776,3.316285866666666
101,1778325912600,-0.4892316,-0.9722757000000001,-0.47763273000000006,-0.9971466000000001,1.3878174,3.3394928
102,1778325912610,-0.16241182,-0.8905968288888888,-0.43943774444444444,-1.4049631666666667,1.0863393,3.2528482666666663
103,1778325912620,-0.132017135,-0.86960006,-0.43742436399999995,-1.47656703,0.771556092,3.19131314
104,1778325912630,-0.05230019533333333,-0.8468434,-0.40137768555555553,-1.4836086444444445,0.5603400333333334,3.1514095333333336
105,1778325912640,0.12644469733333333,-0.7712132966666667,-0.33428931,-1.4559123,0.22898865,2.9964701000000002
106,1778325912650,0.14775826,-0.67879677,-0.35975277,-1.4477539,0.23573303,2.8771667
107,1778325912660,-0.09716628057777779,-0.6057419344444445,-0.2907116411111111,-1.3625284777777777,0.21419440777777776,2.9228549666666668
108,1778325912670,-0.27584428555555557,-0.5540017,-0.20133253444444443,-1.2455800444444443,0.1694522477777778,3.0296173333333334
109,1778325912680,-0.5838440500000001,-0.39221879777777774,-0.12258411844444445,-0.83249412,0.1512230788888889,3.580947866666667
110,1778325912690,-0.7940992222222223,-0.0982787611111111,-0.12757342777777778,-0.44160461333333334,0.20963541666666666,4.275319466666667
111,1778325912700,-0.8065055,0.09974675,-0.16804577,-0.2605133,0.28207397,4.714203
112,1778325912710,-0.7542772299999999,0.19627218500000002,-0.43065168500000006,-0.10680084199999999,0.461824032,5.36157075
113,1778325912720,-0.7313358022222222,0.1790661688888889,-0.5919600988888889,-0.11167738222222222,0.53055996,5.649693822222222
114,1778325912730,-0.5642248555555556,-0.009061945555555553,-0.8006019777777778,-0.4854583666666667,0.5977376333333333,5.993418233333333
115,1778325912740,-0.4352266555555555,-0.2079417311111111,-0.9580460888888889,-1.0405222333333333,0.6655036155555556,6.299740222222223
116,1778325912750,-0.4678755,-0.30209446,-1.0233452,-1.3108673,0.64797974,6.4095764
117,1778325912760,-0.25500357333333334,-0.7349025800000001,-0.7410382666666666,-2.389561955555555,-0.24908955831111113,7.300731977777777
118,1778325912770,-0.0773843,-0.9255380600000002,-0.5304708,-2.9017808555555558,-0.9523451066666667,7.878287222222222
119,1778325912780,0.5621683999999999,-1.3709427333333333,0.29785952286666667,-2.778086366666667,-1.5890808,8.662612666666668
120,1778325912790,1.1248424,-1.9136290800000002,0.9239648599999999,-2.23295598,-1.70061644,9.486709600000001
121,1778325912800,1.3859832,-2.2187974,1.0073335,-1.7540131,-1.639679,10.171036
122,1778325912810,2.5318863333333335,-2.4112507111111112,0.6209918777777779,-1.4396430333333334,-1.2838168666666667,10.861740333333335
123,1778325912820,3.518718688888889,-2.540981244444444,0.24389657522222224,-1.2136298333333333,-1.0226473977777777,11.382536333333334
124,1778325912830,4.377366333333333,-2.485986666666667,0.06302195611111111,-1.8953993,-0.14227633777777776,11.285239444444445
125,1778325912840,4.906021311111111,-2.3340472222222224,0.18547161666666667,-2.350677455555555,-0.01094902888888889,10.788465666666667
126,1778325912850,5.114745266666667,-2.1246462,0.5280461988888888,-2.2910224333333336,-0.4099460288888889,10.043958777777778
127,1778325912860,5.412643388888889,-1.7443645555555554,1.0901774333333334,-1.7102084777777777,-1.3559689444444443,8.965499999999999
128,1778325912870,5.3633847,-1.5159131,1.2887315,-1.0274963,-1.9411469000000001,8.205612
129,1778325912880,4.781823611111111,-1.1661519777777778,1.18011342,-0.3450181622222222,-2.270197588888889,7.481470666666667
130,1778325912890,4.1723857,-0.86184,0.97963446,0.45109558,-2.4492798,6.54274
131,1778325912900,3.30410254,-0.78867092,0.6527930439999999,0.437030032,-1.8094787799999998,6.30603336
132,1778325912910,2.5997211333333334,-0.7275270444444444,0.37347756444444447,0.22235616333333333,-1.1511383444444445,6.391170911111112
133,1778325912920,2.4320128,-0.6683023,0.25075743,-0.18861389,-0.6601715,6.883087
134,1778325912930,2.5165921888888887,-0.61616888,0.3238119266666667,-0.18506028777777778,-0.6993492911111111,6.9246316666666665
135,1778325912940,2.7345226,-0.50454015,0.51555884,0.86761475,-1.5842896,6.789871
136,1778325912950,2.7345226,-0.50454015,0.51555884,0.9185689333333333,-1.6081390777777775,6.765134833333333
137,1778325912960,3.702209444444444,0.43493268444444444,0.8706755611111111,2.958662222222222,-2.1199391666666667,5.3428939444444445
138,1778325912970,3.7483226666666667,0.6522115444444444,0.6015211755555555,3.4538981,-2.0585022333333334,4.777944
139,1778325912980,3.2814304,0.97513118,-0.02551717600000001,3.64720466,-1.4397278,3.6635438000000002
140,1778325912990,2.2287268888888887,1.2780824222222222,-0.8436374644444444,2.3793962222222222,-0.0527818511111111,2.7335849333333337
141,1778325913000,1.7272026333333335,1.319328,-1.0252837577777778,1.32070415,0.6707153333333333,2.5707143
142,1778325913010,1.3068278,1.3472862333333333,-0.9164066399999999,0.30922953233333333,1.1669413333333332,2.677775066666667
143,1778325913020,1.1817068,1.3722613,-0.8379828,-0.017105103,1.224823,2.7988586
144,1778325913030,1.3374709,1.5156717333333334,-0.8110010788888888,-0.16339958922222222,0.8735317644444444,2.9536844666666666
145,1778325913040,1.8711691999999998,1.8463429000000002,-0.97782856,-0.15983582,0.3736725,2.7802277
146,1778325913050,2.33424348,2.3106614399999996,-1.31023344,-0.48911438399999996,0.390826414,1.99267884
147,1778325913060,2.4404463888888888,3.092865488888889,-1.7491569777777778,-1.0389200777777778,1.3918372222222222,1.1018999
148,1778325913070,2.260928,3.5773196000000005,-2.0763292,-1.2735748,2.3343048,0.8808594
149,1778325913080,3.227205155555555,3.232547288888889,-3.2681696,-1.7964426666666666,1.3693440666666665,0.45386252
150,1778325913090,4.4074116,2.7261684,-3.9177413,-2.200882,-1.5198364,-0.47203064000000006
151,1778325913100,4.6611095,2.2433963666666665,-2.368534346666667,-2.698247266666667,-3.747597588888889,-2.4285736155555555
152,1778325913110,3.968461266666667,1.7850160555555554,-0.39146664666666664,-3.400844977777778,-3.524369977777778,-3.975689377777778
153,1778325913120,3.005412377777778,1.7904939666666668,0.5296048822222222,-2.9200642666666665,0.05184939999999997,-3.7233427999999997
154,1778325913130,2.5937016,1.7980188000000001,0.47394636,-2.1805945444444443,1.9844784555555555,-3.3067101111111112
155,1778325913140,2.914934722222222,1.9356408888888887,-0.09751192577777777,-1.5430281244444446,1.828126733333333,-3.028077822222222
156,1778325913150,4.989123333333334,2.0341852666666664,-1.4584176333333334,-0.28057353,-0.10018413333333334,-3.1534830666666664
157,1778325913160,6.1503962,2.05159464,-1.9043920200000002,-0.9085174500000001,-0.22382508000000004,-4.2744996
158,1778325913170,6.664778433333333,1.9363184666666666,-1.6456911666666667,-1.8646291333333334,0.7539825666666666,-5.343841666666666
159,1778325913180,6.796407122222222,1.6654151555555556,-0.9853532444444445,-2.0883331999999997,1.4732106666666667,-6.298497466666666
160,1778325913190,6.6603055,1.2525522,-0.20575255,-1.8738556,1.7974090000000003,-6.9472504
161,1778325913200,6.2899209111111105,0.9388567455555555,-0.11888184377777779,-0.9405602466666666,1.3385128155555557,-7.404010288888888
162,1778325913210,5.875945644444444,0.6834910655555555,-0.32858172888888887,0.23549906888888886,0.45097012000000003,-7.79443188888889
163,1778325913220,5.516815333333334,0.5986002377777777,-0.8578878055555555,0.3200056422222223,-0.12522888,-7.695480333333332
164,1778325913230,5.327670433333334,0.56841862,-1.1235715,-0.20830790333333332,-0.14440409233333332,-7.553914333333334
165,1778325913240,5.1930323,0.54588354,-1.2024827,-0.78141785,0.012557983,-7.4708250000000005
166,1778325913250,5.01511503,0.382255829,-0.738139595,-1.7686584850000002,0.5667602683,-7.6676910000000005
167,1778325913260,4.891378,0.25338143,-0.45615533,-2.198227,0.8780823,-7.8884125
168,1778325913270,4.571093333333334,-0.042172433333333335,-0.011198070000000004,-2.0418090666666666,1.01141356,-8.334218666666667
169,1778325913280,3.97896985,-0.54628533,0.5261147989999999,-1.40194088,0.9606384,-9.0445376
170,1778325913290,3.5646815,-0.7903306,0.6948193,-1.0456085,0.8184204,-9.261536
171,1778325913300,2.9840968333333335,-1.1613522888888888,0.790001348888889,-0.05348883777777777,0.49340143111111107,-9.505363999999998
172,1778325913310,2.677656,-1.373994,0.79598147,0.4132843,0.39924622,-9.559814
173,1778325913320,2.347244477777778,-1.5056622222222222,0.5466899199999999,0.8087209088888889,0.5120391844444444,-9.44601077777778
174,1778325913330,1.9487802111111112,-1.5516808777777777,0.12620585822222222,0.91110398,0.7255706755555555,-8.946038333333334
175,1778325913340,1.8176534,-1.5336616888888888,-0.122529675,0.5739491777777778,0.7951694055555555,-8.219055222222222
176,1778325913350,1.8844432777777778,-1.4482417,-0.20381413333333334,0.20548672333333334,0.8538242,-7.737199733333333
177,1778325913360,2.1799006,-1.3049251,-0.20856011,-0.28874207,1.0373383,-7.295593300000001
178,1778325913370,2.55817854,-1.2729413600000001,-0.19538061999999998,-0.9952697699999999,1.5047226,-7.2652282999999995
179,1778325913380,2.7610162222222225,-1.302633788888889,-0.10724824733333332,-1.4718882111111111,1.8478834777777777,-7.401277277777776
180,1778325913390,2.681236111111111,-1.3509846888888888,0.0751984,-1.6347554333333332,2.0317654222222226,-7.593147999999999
181,1778325913400,2.4811905,-1.377792175,0.29114830625,-1.5637283124999999,2.0934829749999997,-7.74692725
182,1778325913410,2.321333,-1.3999853,0.4229391,-1.401947,2.0765076,-7.787201
183,1778325913420,1.9968186,-1.4093407,0.5835695866666666,-0.8343352999999999,1.8451639666666668,-7.614629166666666
184,1778325913430,1.584921125,-1.36590895,0.6911888900000001,-0.10005569,1.56543735,-7.218357125
185,1778325913440,1.2235502111111112,-1.256955411111111,0.6781965444444444,0.6514180555555557,1.3334825444444445,-6.422244666666667
186,1778325913450,1.1492481,-1.1881448,0.6394179,1.0248498,1.267737488888889,-5.890207966666667
187,1778325913460,1.4430926,-1.0691651,0.29310095,1.3112946,1.3595886,-5.2486877
188,1778325913470,1.5773241,-1.0980197444444444,-0.3105076166666667,1.087173491111111,1.6964382333333332,-4.812520377777777
189,1778325913480,1.4477707555555555,-1.06036708,-0.8922996833333333,0.25561014666666665,2.255111666666666,-4.1026408666666665
190,1778325913490,1.1368007,-0.91589826,-1.2238987,-1.097061144,2.7569976400000002,-3.3036194
191,1778325913500,1.0579701333333333,-0.9574285733333334,-1.1550136,-2.2101186,3.1527760666666667,-2.6840566
192,1778325913510,1.0296602,-1.019256,-0.9631842,-2.899704,3.3889008,-2.3026886
193,1778325913520,0.9868011777777776,-1.0218868555555556,-0.37255244555555556,-3.097549433333333,3.289126922222222,-2.0277303
194,1778325913530,0.9829231555555555,-1.001400211111111,0.2118299688888889,-2.7662505777777775,2.9860008444444444,-2.0038265666666666
195,1778325913540,0.8177231111111111,-1.2114513666666666,0.4017067555555556,-0.709338711111111,2.4121755111111107,-2.7961510555555558
196,1778325913550,0.3585434777777778,-1.6010895333333335,0.07332757,1.6857994777777778,1.7659183333333333,-3.7339986666666665
197,1778325913560,-0.3806251,-2.0700452,-0.83041716,3.149414,1.1859436,-4.219101
198,1778325913570,-1.0146726222222222,-2.398247366666667,-1.8588067755555555,3.3906317777777777,0.69852532,-3.967880233333334
199,1778325913580,-2.3621273,-2.8029492,-3.518952,2.6552809999999996,0.621144106,-3.1740264700000003
200,1778325913590,-2.799721088888889,-3.193182722222222,-4.384948444444444,-0.09178333333333333,1.497180522222222,-1.4439680444444443
201,1778325913600,-2.8403568666666663,-3.281097833333333,-4.2872452,-2.6538086,2.0928345000000004,0.09877013333333333
202,1778325913610,-2.8789182,-2.9722035,-3.6846675999999996,-3.8547058,2.0839539,0.9815216000000001
203,1778325913620,-2.8032605555555556,-2.9292763444444443,-3.4992653111111114,-3.860744888888889,1.8387078555555556,1.1382361555555556
204,1778325913630,-2.4767660888888887,-2.549915933333333,-1.7791897666666665,-2.7452393,-0.19891357,2.1240234
205,1778325913640,-2.1835310444444445,-2.246091977777778,-1.6477241333333332,-1.61357626,-1.3570302233333333,2.3622843000000002
206,1778325913650,-1.4577999777777777,-1.8068298111111112,-1.9516298,-0.25619846,-2.6986067333333335,2.5308939444444443
207,1778325913660,-1.0390514,-1.5346648666666667,-2.0802747333333333,-0.16185336333333333,-2.880767888888889,2.4140049111111113
208,1778325913670,-0.7125022977777777,-1.238053688888889,-1.6829496666666666,-0.27488708,-2.8588715,2.3077698
209,1778325913680,-0.51034194,-0.9749604,-1.1411023,-0.39579773,-2.3789673,2.1746216
210,1778325913690,-0.5155083699999999,-0.8991806044444444,-0.6289482822222222,-0.1981913277777778,-2.032524988888889,2.0305141777777775
211,1778325913700,-0.7045308499999999,-0.9304605066666666,-0.14567398666666667,0.3351542066666667,-1.5777181333333334,1.9505564333333334
212,1778325913710,-1.0060633,-1.1028459333333334,-0.12948557333333333,0.9393412,-1.6814067000000001,2.4657898
213,1778325913720,-1.0952528444444445,-1.2886824222222222,-0.2710119155555556,1.3485208666666668,-2.0332947,3.303327733333333
214,1778325913730,-1.0261574,-1.4368382,-0.42296398,1.4396667,-2.3129272,4.062271
215,1778325913740,-0.609673684,-1.56672578,-0.5608076200000001,1.05115356,-2.36661376,5.351236
216,1778325913750,-0.07823822666666666,-1.6429448666666666,-0.6535163333333334,0.5812920288888889,-2.3328721999999997,6.340041977777777
217,1778325913760,0.3289582977777778,-1.7097070666666667,-0.6620587577777778,0.25762600444444445,-2.369917111111111,6.731769166666667
218,1778325913770,1.1052631444444443,-1.850569577777778,-0.5966104977777777,-0.7424858777777777,-2.605273688888889,7.6956482
219,1778325913780,1.2733779555555556,-1.8842367333333334,-0.5433113711111112,-0.8613281,-2.6474152,7.8088074
220,1778325913790,2.3315563555555556,-1.9390674,-0.1869874782222222,-1.7658488333333333,-3.4264831555555557,8.761094444444446
221,1778325913800,2.833351244444444,-1.9113132000000002,0.030006357,-1.9113176333333333,-3.6456383555555556,8.85833188888889
222,1778325913810,3.3372889333333333,-1.8216755555555555,0.35160660555555556,-1.9053361333333332,-3.517859611111111,8.580118666666667
223,1778325913820,3.5386768555555554,-1.6679194888888889,0.5932232777777778,-1.823311688888889,-3.1301625555555557,8.152649
224,1778325913830,3.5601678,-1.5652126,0.70372725,-1.7747803,-2.883377,7.9552765
225,1778325913840,3.529661,-1.4121891999999998,0.7843478833333334,-1.6469472222222223,-2.4085659222222224,7.4698146888888886
226,1778325913850,3.4520512,-1.2376884,0.8495521,-1.5063324,-2.0498047,6.9981384
227,1778325913860,3.2140681333333334,-1.151941911111111,0.7760631177777778,-1.189838,-2.124606655555555,6.325368222222222
228,1778325913870,2.99889727,-1.0891416399999998,0.722629591,-0.911338825,-2.34370727,5.83253326
229,1778325913880,2.9544172,-1.0975984,0.72581434,-0.75746155,-2.5392914,5.682007
230,1778325913890,2.8661229333333336,-1.1039438666666668,0.7144251311111112,-0.675910103888889,-2.6371782222222224,5.666619333333333
231,1778325913900,2.5383003,-1.0893017,0.66223764,0.12086487,-3.5944366,5.6122284
232,1778325913910,2.574460866666667,-0.9013360499999999,0.49444799999999994,0.20838928124444445,-3.3665958333333332,6.011645733333333
233,1778325913920,2.6115983333333332,-0.7686509533333333,0.34955899999999995,-0.1342824298,-2.8343760000000002,6.2538757333333335
234,1778325913930,2.679988311111111,-0.6489003333333333,0.29524261777777777,-0.5125715455555555,-2.4029421555555555,6.318620533333334
235,1778325913940,2.7404469000000002,-0.48302181111111114,0.26065412444444447,-0.9851192888888889,-1.9521009999999999,6.26931438888889
236,1778325913950,2.7351325,-0.3329667,0.29273388,-1.481308,-1.5667114,6.1102295
237,1778325913960,2.7089499,-0.1816926133333333,0.4808217155555556,-1.8236067333333332,-1.3742472444444445,5.985483855555556
238,1778325913970,2.6749713,0.09669654,0.82673234,-1.9702606,-1.3941345,5.9163666
239,1778325913980,2.7747105,0.4319218644444444,1.2272574866666668,-1.797924466666667,-1.4014723222222223,5.9880897555555554
240,1778325913990,2.9023118,0.80470586,1.6587236,-1.6016846,-1.3078461,6.047394
241,1778325914000,3.0788875,1.2387617,1.7967371000000003,-1.2309723,-0.38798523,5.8370056
242,1778325914010,3.1081057666666667,1.7007759444444444,1.5906715777777778,-1.0864410666666666,0.4255269266666667,5.501088433333333
243,1778325914020,3.0197840222222223,2.0062135555555556,1.389771788888889,-1.0559099333333333,1.0426703222222224,5.210147433333333
244,1778325914030,3.0922694666666666,2.2778773,1.2396363666666668,-1.1690012666666667,1.0234883433333333,5.190561933333333
245,1778325914040,3.5776995000000005,2.8197655333333334,1.2312981666666667,-1.2909156,0.74912855,5.014075333333333
246,1778325914050,4.0205817,3.1570528,1.4256483,-1.2320251,0.6218872,4.782379
247,1778325914060,4.808533555555556,3.940245333333334,2.0467197222222224,-0.46379937000000004,0.8621029166666667,3.6759897777777777
248,1778325914070,5.3059899999999995,4.5376433333333335,2.3066953333333333,0.23448689999999997,1.3776906,2.715591433333333
249,1778325914080,5.475975999999999,5.0362521000000005,2.1236936,0.8803914266666667,2.1764577,1.5070495666666668
250,1778325914090,5.4275226,5.356691240000001,1.80989264,1.52572628,3.05686644,0.121957402
251,1778325914100,5.343373,5.415559,1.67898,1.6186218,3.1540222,-0.09919739
252,1778325914110,5.020376177777778,5.245029933333333,0.8238577333333333,2.2773674444444447,3.2500135777777777,-1.9527571311111112
253,1778325914120,4.941247000000001,5.058054666666667,0.29257262,2.4090474,3.088862133333333,-3.1289825666666666
254,1778325914130,5.0229785555555555,4.663929911111111,-0.0975394111111111,1.7997198888888886,2.700037666666667,-4.002026011111111
255,1778325914140,5.086745466666667,4.286834533333333,-0.25476731999999996,1.190677211111111,2.3617520222222224,-4.551522155555555
256,1778325914150,5.1165204,4.089229,-0.23052436000000004,0.8766632,2.2155151,-4.7400208
257,1778325914160,4.982967111111111,3.2492108666666666,0.5970197644444445,-0.6879187644444444,2.2984331,-5.484288522222222
258,1778325914170,4.8437867,2.6137807,1.287512,-1.3705139,2.4360352,-5.8186035
259,1778325914180,4.612529333333333,1.810343688888889,2.313759222222222,-0.8421427355555555,2.7230038,-6.123031644444445
260,1778325914190,4.531068922222222,1.3669188822222222,2.7481262666666666,-0.16753302666666667,2.8597683000000003,-6.351474344444444
261,1778325914200,4.402124733333334,0.5924982933333334,2.9487694,1.4492441999999999,3.086552933333333,-6.946360333333334
262,1778325914210,4.159611933333334,0.09962439000000003,2.6271013666666665,2.6918148444444445,3.2180532,-7.3955453333333345
263,1778325914220,3.8831766000000005,-0.32186243,2.1904013,3.6740417000000005,3.2706757,-7.769623
264,1778325914230,3.464876466666667,-0.6858330288888889,1.5796352833333334,4.350436688888888,3.2794223555555555,-8.091576333333332
265,1778325914240,2.9035042444444445,-1.0956186777777779,0.8919367866666666,4.595864077777778,3.2295872222222224,-8.222310444444444
266,1778325914250,2.131469311111111,-1.4145203222222222,0.3644475866666667,4.187267722222222,3.082350022222222,-7.934454888888889
267,1778325914260,1.8367567999999999,-1.4698262666666666,0.26178078,3.8652648999999997,3.062764533333333,-7.639674000000001
268,1778325914270,1.5783,-1.5074936,0.1874249,3.5254517,3.038971,-7.2892
269,1778325914280,1.2598869666666666,-1.4688100666666666,0.23432376,3.0187378000000002,2.948247266666667,-6.5186615
270,1778325914290,1.07732366,-1.39539738,0.331808804,2.7463073600000003,2.77861626,-5.863028
271,1778325914300,1.024213925,-1.3136045375,0.4535231575,2.6512603500000003,2.5778503749999997,-5.1875611500000005
272,1778325914310,1.0507034111111109,-1.2788387333333333,0.4958714011111111,2.644531288888889,2.466279777777778,-4.641599888888888
273,1778325914320,1.1155683,-1.2478158,0.48871365,2.6615143,2.4434814,-4.4183044
274,1778325914330,1.3102444555555557,-1.2019329555555556,0.36413529,2.615117388888889,2.4692891333333336,-4.256384933333333
275,1778325914340,1.5047172,-1.1573923,0.24685173,2.5465729,2.49376986,-4.18186794
276,1778325914350,1.7332770333333332,-1.1111851333333334,0.08129932233333333,2.292755166666667,2.5594177333333334,-4.530873566666667
277,1778325914360,1.7606515666666667,-1.0879588999999998,-0.06395625333333334,1.947733588888889,2.659793422222222,-5.055579322222222
278,1778325914370,1.6147873,-1.0706303,-0.117892414,1.7182312,2.6320343,-5.3919525
279,1778325914380,1.2272248444444445,-0.9802472488888889,-0.03964433311111111,1.4924520111111113,2.192381111111111,-5.413681044444445
280,1778325914390,0.9626667666666668,-0.9050778933333334,0.040257692,1.3519592666666667,1.7476959333333335,-5.1943563
281,1778325914400,0.7636782555555556,-0.7675926,0.1405115088888889,1.2456699333333332,1.3825429555555555,-4.601121722222222
282,1778325914410,0.7042094288888889,-0.6829858888888889,0.24632340999999996,1.099307611111111,1.424031577777778,-3.9508921111111115
283,1778325914420,0.68529534,-0.68502,0.31689596,1.0247345,1.5864868,-3.615631
284,1778325914430,0.6237317475,-0.6975733224999999,0.343453015,1.036190025,1.85186765,-3.2194862
285,1778325914440,0.4600299299999999,-0.6800162,0.36204702,1.0865326,2.339096,-2.512024
286,1778325914450,0.64689641,-0.6941312199999999,0.27589528,1.4980723,2.400706,-2.1915538
287,1778325914460,0.97790789,-0.760189562,0.013106226000000004,2.45698242,2.0700104,-2.10104066
288,1778325914470,1.0712727,-0.810587,-0.2529786,2.97789,1.6472015,-2.2978973
289,1778325914480,1.125087022222222,-0.8132447066666666,-0.49817449333333325,3.1689300555555553,1.30530969,-2.4904140555555556
290,1778325914490,1.2311972666666666,-0.8680902422222222,-1.4033148222222223,4.013578755555556,-0.4870707155555556,-3.6620907000000003
291,1778325914500,0.5813406333333333,-1.1411624599999999,-2.2148050666666665,3.0603400222222223,-0.8683675,-4.686280966666667
292,1778325914510,0.044061926666666675,-1.3404758555555556,-2.5042025555555556,2.160190155555556,-0.7017144111111111,-4.958511322222222
293,1778325914520,-0.7442030355555554,-1.5870551444444445,-2.6194795444444443,1.0038469486666668,-0.16908264666666667,-4.776533322222223
294,1778325914530,-1.45546565,-1.78453482,-2.52548099,-0.4004852372,0.5120513879999999,-3.83465578
295,1778325914540,-1.7832234999999999,-1.8546646,-2.304158,-1.0738373,0.779541,-3.13414
296,1778325914550,-2.0842533999999997,-1.8494306888888892,-1.8399738222222222,-0.9564819,0.6184471944444445,-1.9927012222222222
297,1778325914560,-2.288325755555556,-1.8059209222222223,-1.6129871666666666,-0.5156978844444444,0.2621171666666667,-1.2139367333333333
298,1778325914570,-2.379644377777778,-1.7264800888888887,-1.7894266444444444,0.2626512277777777,-0.6414014888888889,-0.449725668
299,1778325914580,-2.416632166666667,-1.6463615333333332,-2.0771840333333333,0.8249969333333333,-1.4610697333333331,0.19518025800000002
300,1778325914590,-2.4504743,-1.6095082,-2.2180057,0.9400482000000001,-1.766449,0.49310303000000005
301,1778325914600,-2.4355881222222227,-1.4814461888888888,-2.378093522222222,0.7404836,-2.1307678,1.2605658477777777
302,1778325914610,-2.3685538333333334,-1.3752135,-2.4455073666666665,0.41611226333333334,-2.2369384666666665,1.8426107
303,1778325914620,-2.21309309,-1.2987631199999998,-2.3932497799999997,-0.14023742599999997,-2.17998048,2.5144409399999996
304,1778325914630,-2.033842433333333,-1.2442497888888888,-2.2912078666666664,-0.6272616888888889,-2.1404674000000004,3.0177781666666665
305,1778325914640,-1.8510715000000002,-1.1874121,-2.1876204,-0.9918213,-2.1632538,3.3533325
306,1778325914650,-1.4522813244444446,-1.1185738777777778,-1.8400961555555557,-1.454145677777778,-2.326534711111111,3.7739919444444445
307,1778325914660,-0.93451446,-1.0268216,-1.2988853,-2.1300507,-2.610138,4.438843
308,1778325914670,-0.44025673666666665,-0.9722352166666666,-0.8063775133333333,-2.2314301,-2.5966389999999997,4.531697666666667
309,1778325914680,0.1149740811111111,-0.9373621055555557,-0.1461214422222222,-2.1298709222222225,-2.4708218444444445,4.493818444444445
310,1778325914690,0.3239685,-0.9266362000000001,0.2564923,-1.7545471,-2.3896332,4.3898315
311,1778325914700,0.4131580111111111,-0.9854816444444445,0.4578937666666667,-1.0945570333333334,-2.631444311111111,4.449727344444444
312,1778325914710,0.49640836222222223,-1.0520148888888887,0.6144293155555556,-0.4629771096666666,-2.876573377777778,4.553653244444444
313,1778325914720,0.7164391,-1.1258820444444444,0.5499446044444445,0.35562642499999997,-3.0526936888888887,4.937150666666667
314,1778325914730,0.9374604444444444,-1.177730811111111,0.40851298444444445,0.8056420200000001,-3.0644090333333334,5.229978888888889
315,1778325914740,1.0820099,-1.2002243,0.22647246999999998,0.9597472999999999,-3.0660706,5.426346
316,1778325914750,1.433534,-1.2339861444444444,-0.08379216222222222,0.9177941199999999,-3.3573015555555554,5.826702666666666
317,1778325914760,1.6350437,-1.2484255,-0.18061522,0.800654604,-3.6060027900000002,6.1295747
318,1778325914770,1.8445533,-1.2091458222222222,-0.055549318888888886,0.60217794,-3.7130431999999995,6.354899233333334
319,1778325914780,2.1422082000000002,-1.1361046555555556,0.14277483444444444,0.3887736,-3.5729574,6.538650466666667
320,1778325914790,2.2335942,-1.1006486,0.20609474,0.30142212,-3.376587,6.566696
321,1778325914800,2.3891805666666666,-0.9651434888888889,0.3110933222222222,0.10292900944444444,-2.603273177777778,6.351518444444444
322,1778325914810,2.4286092,-0.8989225166666667,0.3473086222222222,0.008475409777777776,-2.2148115,6.210905311111111
323,1778325914820,2.2890088888888886,-0.8356842277777778,0.3687321111111111,-0.05118984577777778,-1.8156823,5.8816206
324,1778325914830,2.19373942,-0.79172148,0.39763127000000004,0.0172027582,-1.74769592,5.60828856
325,1778325914840,2.1538281,-0.7544540433333333,0.4105334666666667,0.18708801333333336,-1.9095459000000001,5.388341233333334
326,1778325914850,2.0558803666666665,-0.7216691533333334,0.3811244,0.43227640999999994,-2.2216644666666667,5.1761729
327,1778325914860,1.9463531333333333,-0.7085984888888889,0.34988510777777776,0.5974544944444444,-2.490286955555556,5.124389655555556
328,1778325914870,1.9951100222222224,-0.6064197333333333,0.32640085444444444,0.6588185666666667,-2.5953928333333334,5.1781362
329,1778325914880,2.0595818,-0.5394394,0.30762246,0.6556244,-2.5755157,5.1994476
330,1778325914890,2.0924474666666666,-0.45662299999999995,0.2934813444444444,0.48583136222222223,-2.2492506444444444,5.1208479111111105
331,1778325914900,2.0850306666666665,-0.28974190222222224,0.26902078333333335,0.09080505044444445,-1.535926,4.914238866666667
332,1778325914910,2.0301733,-0.21789426,0.29236835,-0.119888306,-1.191742,4.776001
333,1778325914920,1.9481206400000002,-0.1129008815,0.26529014100000003,-0.3245864878,-0.9563110590000001,4.59027095
334,1778325914930,1.8932972666666668,0.022421034666666666,0.19897605666666665,-0.5619811933333333,-0.8650462,4.498138333333333
335,1778325914940,1.9509768000000003,0.19736928666666664,0.12978629,-0.8458709666666667,-0.9611002666666667,4.630406666666667
336,1778325914950,2.1027393333333335,0.43300685666666666,0.16814375666666667,-1.181547411111111,-0.9864332444444445,4.76912948888889
337,1778325914960,2.240306,0.62166417,0.24404573,-1.4802399,-0.9371338,4.8532257
338,1778325914970,2.395484922222222,1.0264596833333333,0.4388577,-1.8964047000000004,-0.7300008133333333,4.9145389
339,1778325914980,2.4583573555555556,1.2527959777777777,0.5462156888888888,-2.1849161666666665,-0.5085398333333333,4.9739584
340,1778325914990,2.471157088888889,1.5642532666666666,0.6455870555555556,-2.4510549000000004,-0.10089619999999999,5.073206666666667
341,1778325915000,2.510287066666667,1.8021146000000003,0.6741558744444445,-2.8681623666666667,0.5104488699999999,5.254006111111111
342,1778325915010,2.76747,1.9656866000000002,0.61037487,-3.2933197,0.71403503,5.481735
343,1778325915020,3.098411555555556,2.282662777777778,0.8718417755555555,-3.6382277333333337,0.6607089555555555,5.502032722222221
344,1778325915030,3.5397890555555556,2.7602153666666664,1.3943684222222221,-4.055038588888889,0.562635631111111,5.479780444444445
345,1778325915040,4.0471022888888895,3.4643069222222227,2.8958904444444444,-3.3638017444444444,0.6918945111111111,5.248267422222222
346,1778325915050,4.3178434,3.8346767000000006,3.688914,-2.5630798,0.9451904,5.0263367
347,1778325915060,4.8295367222222225,4.5927190555555555,4.238422666666667,-0.3748474,1.6196798000000001,4.209269099999999
348,1778325915070,5.5152700999999995,5.307034,3.9830029000000002,3.2072804666666666,2.377263433333334,2.4304606
349,1778325915080,6.0196543,5.578832,3.2003107,4.7696686,2.3300323,1.1652832
350,1778325915090,6.04022785,5.44414925,1.7306219980000002,5.9240479,1.6311767400000001,-1.1295700419999999
351,1778325915100,5.331086466666666,5.043492466666667,-0.16247266,6.087222555555556,0.5936007822222222,-3.5672812222222223
352,1778325915110,4.243527533333333,4.601424266666666,-1.0156976333333334,4.668294433333333,0.056406656666666666,-4.8799236666666665
353,1778325915120,3.1860826888888893,4.108048888888889,-1.4510416333333334,2.5158691666666666,0.2802293611111111,-5.212643133333334
354,1778325915130,2.8279963,3.886295,-1.5176833,1.4369965,0.5462494,-5.1629333
355,1778325915140,2.5679934,3.2168061666666667,-1.0194404733333333,-1.0631256211111113,1.2491505999999999,-4.738425311111111
356,1778325915150,2.7030627,2.6513171800000004,-0.14124909600000002,-3.1197906800000004,1.7736450000000001,-4.3743072
357,1778325915160,2.9437471,2.2007006111111114,0.9580350444444444,-3.456837966666667,1.7439677333333332,-4.499267666666666
358,1778325915170,3.0751991333333333,1.6593005111111112,2.2765542888888888,-3.040317133333333,1.6048329888888888,-4.724743511111111
359,1778325915180,3.1032922,1.3158846,2.9364846,-1.753479,1.5257721,-5.0883636
360,1778325915190,3.0561759444444445,0.8140484777777778,2.9846999333333333,0.26875474444444447,1.7350311444444444,-5.652479466666667
361,1778325915200,2.9860237,0.3840735,2.7226906,1.9683227444444442,1.9435882777777778,-6.151136733333334
362,1778325915210,2.9068538555555556,0.17333061555555554,2.3219757000000003,2.624116677777778,2.0313466555555557,-6.381110333333334
363,1778325915220,2.6704159666666665,-0.35782041333333336,1.2571675999999998,3.2752888666666666,2.258310966666667,-6.6988677333333335
364,1778325915230,2.6032193,-0.47122591999999996,1.0151434,3.198944,2.3950195,-6.736862
365,1778325915240,2.4112316,-0.682847254,0.7792013,2.70306089,2.8820052599999997,-6.674915950000001
366,1778325915250,2.2791518333333336,-0.8250675333333333,0.6911577666666667,2.3733622000000003,3.2443897999999995,-6.616129533333333
367,1778325915260,2.141286611111111,-0.964343688888889,0.66263014,2.1413675777777774,3.6154598888888887,-6.536590666666667
368,1778325915270,2.0277053222222223,-1.0722306666666668,0.6362311755555555,2.0116983999999998,3.7972666666666663,-6.443379833333334
369,1778325915280,1.9208357000000003,-1.1102892,0.62379825,2.0287476,3.690384,-6.3741455
370,1778325915290,1.836662988888889,-1.1294752888888888,0.7073878466666668,2.1815541555555553,3.3715719111111113,-6.171147644444444
371,1778325915300,1.7347282333333334,-1.1759277555555556,0.8412393533333334,2.431299822222222,2.9676548,-5.898608711111112
372,1778325915310,1.6054177,-1.2363321777777778,0.8965461888888888,2.9558902666666667,2.536346444444445,-5.613832266666666
373,1778325915320,1.531074977777778,-1.2513952888888888,0.8465286777777777,3.4093407222222223,2.1208920444444446,-5.403918777777778
374,1778325915330,1.5430337,-1.2545274,0.6740745,3.8157349,1.6983336999999998,-5.2295074
375,1778325915340,1.5407022555555556,-1.2561817555555554,0.40110964,3.8846791666666665,1.4572889222222223,-5.164584655555555
376,1778325915350,1.5322965,-1.2502563,0.1930369,3.962738,1.1065826,-5.0691833
377,1778325915360,1.7682040333333333,-1.1097206222222222,-0.1862555688888889,3.448811833333333,1.3544955888888888,-5.202285755555556
378,1778325915370,1.98303915,-0.999747575,-0.55223829625,2.678235975,1.874773,-5.51759525
379,1778325915380,1.923886,-1.0528144,-0.89765537,1.5648193,2.6549377,-6.016739
380,1778325915390,1.4759598666666667,-1.1704502,-1.0178125,0.50825499,3.2063954666666667,-6.147059
381,1778325915400,1.050405,-1.2334172,-1.0265167,-0.27009583,3.536972,-6.084915
382,1778325915410,0.3522940775,-1.1978751625,-0.73190989375,-0.7733001625,3.381992375,-5.536704950000001
383,1778325915420,-0.08373046,-1.1571481,-0.4910561,-0.7952728,2.8115387,-4.82843
384,1778325915430,-0.3397998555555556,-1.123143588888889,-0.35804489333333334,-0.5377180255555555,2.468638122222222,-4.360190377777778
385,1778325915440,-0.827104418,-1.021867796,-0.29083095000000003,0.7213531499999999,1.62409364,-2.6315368799999996
386,1778325915450,-0.94293404,-0.95567924,-0.41442153,1.2361908,1.4575958,-1.9607391000000003
387,1778325915460,-0.7352276777777778,-0.8734319400000001,-1.293244951111111,1.4656422666666666,1.4853498444444444,-0.6698760911111111
388,1778325915470,-0.43989122,-0.8167293666666667,-2.0762078,1.1689046,1.8121439333333333,0.16535441
389,1778325915480,-0.19941312933333333,-0.7904799155555555,-2.664223377777778,0.1204986666666666,2.3932444,0.27223714
390,1778325915490,0.01031355266666667,-0.8190485233333333,-3.0451968333333337,-1.4017690222222223,2.9594981111111114,0.13635254
391,1778325915500,0.12103439,-0.89869285,-3.0802593,-2.1971588,2.9889069,-0.15032959
392,1778325915510,0.07096226666666666,-1.0567736666666667,-2.587236788888889,-2.753709577777778,2.2023807222222223,-1.135874408888889
393,1778325915520,-0.0888301008,-1.11331668,-2.19291648,-2.7912689200000003,1.44032286,-1.8928832800000002
394,1778325915530,-0.7980585133333332,-1.1058430333333336,-1.5965542333333334,-1.6513315333333334,-0.06113516666666668,-2.4928453333333334
395,1778325915540,-1.4518612333333332,-1.1626812555555555,-1.4992021444444446,-0.09207662222222221,-1.8283504777777777,-2.773664666666667
396,1778325915550,-1.8648604000000002,-1.2196282,-1.5503862,0.6737366,-2.5115967,-2.721878
397,1778325915560,-2.3505616333333332,-1.3193115777777777,-1.8222524555555557,1.122036422222222,-2.8522457333333335,-2.141543911111111
398,1778325915570,-2.6459254,-1.3856815111111112,-2.021253788888889,1.3526662333333332,-2.988486311111111,-1.4446309222222222
399,1778325915580,-2.8440449555555554,-1.3783595333333334,-2.158712811111111,1.2109765222222222,-2.757971866666667,-0.5972730888888889
400,1778325915590,-2.853996088888889,-1.294593211111111,-2.2101137,0.7472381377777777,-2.232201488888889,0.8767056222222223
401,1778325915600,-2.566144411111111,-1.1859070666666667,-2.1803120333333332,0.3162723122222222,-2.011220322222222,2.203260666666667
402,1778325915610,-2.290875088888889,-1.0835527133333334,-2.1168296444444445,0.06226094333333333,-2.1279246333333335,2.8778686666666666
403,1778325915620,-1.8352076,-0.92675906,-1.9677242000000001,-0.16996765,-2.3193207,3.40979
404,1778325915630,-1.293562088888889,-0.8308577044444445,-1.6163906333333333,-0.2862582688888889,-2.5457984000000002,3.7463564999999996
405,1778325915640,-0.5656087519999999,-0.754552682,-1.16919285,-0.24484862699999996,-2.89242399,4.00224455
406,1778325915650,-0.18318324,-0.7431061,-0.9500050000000001,-0.13374329,-3.0825806,3.995163
407,1778325915660,0.05018981,-0.7597829177777777,-0.8117875777777778,0.05054897444444446,-3.258938288888889,3.930948911111111
408,1778325915670,0.57949644,-0.80131346,-0.5070413,0.24336243000000002,-3.4799194,3.8774414
409,1778325915680,0.8337628911111111,-0.8410679022222223,-0.32680508555555554,0.7012532433333333,-3.674153633333334,3.755121866666667
410,1778325915690,1.0490485000000003,-0.8547619111111112,-0.15946306333333332,1.1389041222222223,-3.739491788888889,3.740563277777778
411,1778325915700,1.1994287555555556,-0.9115184500000001,-0.05432864888888889,1.4275309333333335,-3.539104911111111,4.018827688888889
412,1778325915710,1.2901904333333334,-0.9512861799999999,-0.07062646333333333,1.5513305666666666,-3.412282333333333,4.215311733333333
413,1778325915720,1.4064430777777777,-0.9786479555555556,-0.17719844555555556,1.6029900444444445,-3.3033277777777776,4.43499921111111
414,1778325915730,1.6279937999999998,-1.0047891155555555,-0.43366192,1.3909488222222222,-3.0644124444444447,5.326210855555555
415,1778325915740,1.7915118444444447,-1.0090738133333332,-0.5387690222222221,1.0484059333333333,-3.0059407555555553,5.894583788888889
416,1778325915750,2.1886467,-0.938555318888889,-0.5957565555555555,0.41847736444444444,-2.937167722222222,6.478941155555556
417,1778325915760,2.6510540000000002,-0.8354002866666667,-0.5278679933333333,-0.22518412333333332,-2.8148396666666664,6.739461266666667
418,1778325915770,2.9209816,-0.768609,-0.36402398,-0.60939026,-2.660736,6.7302246
419,1778325915780,3.026156688888889,-0.6955411755555555,0.0014793911111110984,-1.2141045577777776,-2.108101733333333,6.3367308
420,1778325915790,3.023471711111111,-0.6345941311111111,0.3847717222222222,-1.5220252555555556,-1.7350837000000001,6.026326288888889
421,1778325915800,2.823724511111111,-0.5773224555555555,0.6237310111111111,-1.3101518333333333,-1.6306864111111112,5.584119888888889
422,1778325915810,2.5934967666666666,-0.5168643666666666,0.8045633,-0.7876434400000001,-1.8940988666666665,5.204589666666667
423,1778325915820,2.4783835,-0.5019768,0.8353961,-0.27702332,-2.278305,5.001831
424,1778325915830,2.3824965444444444,-0.4517550111111111,0.7898928222222222,0.31952921333333334,-2.6573587666666665,4.889444999999999
425,1778325915840,2.311110133333333,-0.4015740088888889,0.7223022333333333,0.9804721444444444,-2.996173388888889,4.771381077777778
426,1778325915850,2.2735392,-0.3376863766666667,0.5492790233333333,1.1841787,-2.926345866666667,4.750778133333333
427,1778325915860,2.2265444666666667,-0.27161422,0.41095344777777776,1.2161967111111112,-2.743352288888889,4.768296811111111
428,1778325915870,2.1996977111111113,-0.19313540222222222,0.3884999188888889,1.0012376444444444,-2.3210364222222224,4.789367611111111
429,1778325915880,2.1731906,-0.17652598,0.40707523,0.9166107000000001,-2.1600647,4.796768
430,1778325915890,2.170478988888889,-0.16920508,0.4099908077777778,0.8964860611111111,-2.122773922222222,4.802685222222222
431,1778325915900,2.1647568111111113,0.09410605666666666,0.31162217,0.4219750322222222,-1.5922733,4.740782044444445
432,1778325915910,2.1328121777777778,0.26310288666666665,0.23452666333333333,-0.009397717777777778,-1.1844601222222222,4.683259733333333
433,1778325915920,2.0315416222222225,0.520244,0.26988767444444445,-0.5160590166666666,-0.9963819555555555,4.780319255555556
434,1778325915930,1.9101778333333332,0.8693403333333334,0.38820162,-1.1736246666666668,-0.8084208333333334,5.015680966666667
435,1778325915940,1.8449336999999997,1.070607,0.5108008,-1.6022034,-0.6479187,5.2479095
436,1778325915950,2.088448011111111,1.4391870444444443,0.9158269777777777,-2.0802188555555556,-0.16806878333333333,5.377219444444445
437,1778325915960,2.3445998777777777,1.7379130999999999,1.2717442222222222,-2.290790122222222,0.21880424666666667,5.316026555555555
438,1778325915970,2.3988211,2.0693696,1.4262586666666666,-2.1717105666666665,0.6269192155555555,4.895839888888889
439,1778325915980,2.3468369666666664,2.5609012,1.4982150333333333,-1.9851074555555555,0.8776092555555556,4.493111311111111
440,1778325915990,2.3487895,2.7431304,1.4566435,-1.8488158999999997,0.81256104,4.3232574
441,1778325916000,2.597416877777778,3.130409144444444,1.484086488888889,-1.7334136777777778,0.6486341822222222,4.216378111111111
442,1778325916010,2.976044711111111,3.580844455555555,1.6737192555555556,-1.6315155,0.58673096,4.105942
443,1778325916020,3.365396333333333,4.066301011111111,2.1053474333333333,-1.4486321222222223,0.9848395333333334,3.940000755555556
444,1778325916030,3.9085592,4.949042633333334,2.8244629333333333,-0.7523718777777778,2.0686882555555552,3.4489101333333334
445,1778325916040,4.1570106,5.2904787,3.0582702,-0.13801575,2.5707855,3.0843506
446,1778325916050,4.7664210888888885,5.734201455555556,3.0288467333333333,1.5428687055555554,2.9955376777777776,1.8768191624444444
447,1778325916060,5.1220126,5.9242954,2.5462377,3.6889648,3.1385803,-0.017166138
448,1778325916070,5.009596455555555,5.7178906000000005,1.6519436777777778,4.7087199,2.7720676,-1.574939275111111
449,1778325916080,4.483639566666666,5.184354333333334,0.10729163333333336,5.895660333333334,1.8851166,-4.034459333333333
450,1778325916090,4.0542617,4.840803,-0.6011247,5.893524,1.3755646,-4.746414
451,1778325916100,3.2482754333333332,4.236192111111111,-1.6533378111111112,4.048667055555556,0.5010342166666667,-5.495880111111111
452,1778325916110,2.8127820000000003,3.850703711111111,-2.2127302444444443,2.788457211111111,0.24921840999999997,-5.610746644444443
453,1778325916120,2.5361573888888893,3.0522977888888887,-2.2297611444444443,-0.1304897777777778,0.41043090666666665,-5.251285111111112
454,1778325916130,2.544442166666667,2.5493500333333334,-1.7289960333333334,-2.993805,0.7711995266666666,-4.811574233333333
455,1778325916140,2.6401935,2.2247531,-1.1231635,-4.250458,1.0400085,-4.5967407
456,1778325916150,2.8176641166666667,1.6849593333333335,0.36912474333333334,-5.085090683333333,1.44382985,-4.582277883333334
457,1778325916160,2.933978,1.2773532374999998,1.7116833125000002,-5.0743103750000005,1.67243575,-4.6914215125
458,1778325916170,3.0100473875000002,0.8428858875,2.823136,-3.5841369750000003,1.9543991250000001,-5.03576275
459,1778325916180,3.051674025,0.43825385250000004,3.2444245,-0.9607906125000001,2.4207153625,-5.6437017124999995
460,1778325916190,3.0898829111111112,0.1444368977777778,2.9124047999999996,1.0050354,2.6118011,-6.1717377
461,1778325916200,3.0164495555555555,-0.34213265777777774,2.0696207555555555,2.6764356888888887,2.6692115,-6.865697077777778
462,1778325916210,2.8478873,-0.67574656,1.4512742,3.563263,2.7103424,-7.359497
463,1778325916220,2.389710144444445,-1.0150395555555556,0.8264881555555557,3.7194993555555556,2.808344488888889,-7.593383755555556
464,1778325916230,1.9407255666666667,-1.2409413666666667,0.36574843333333334,3.5957539666666665,2.885752333333333,-7.612141900000001
465,1778325916240,1.5698669666666667,-1.2951768555555556,0.18384412044444443,3.1510094666666664,2.9037424555555553,-7.233032188888889
466,1778325916250,1.2291358,-1.2577548555555556,0.11916925377777779,2.8219621333333333,2.8507165,-6.840067611111111
467,1778325916260,1.0888572888888888,-1.2191670111111113,0.12971854,2.6223381555555556,2.758750111111111,-6.496814444444444
468,1778325916270,0.9256462,-1.1866651875,0.24424425,2.3927936125,2.4246502125,-5.773000625
469,1778325916280,0.84246816,-1.1725790555555555,0.3976118111111111,2.2831030555555554,2.0685696444444446,-5.153818577777778
470,1778325916290,0.8164030459999999,-1.11082612,0.56571313,2.35418698,1.70451358,-4.59812316
471,1778325916300,0.8478376525,-1.0330762375,0.676576605,2.4636421000000004,1.3534546375,-4.012306225000001
472,1778325916310,1.090431,-0.9418903,0.64027184,2.513977,1.2919312,-3.7280273
473,1778325916320,1.6854963777777778,-0.7518510777777778,0.29853788444444446,2.206231,1.873331688888889,-3.6077609444444443
474,1778325916330,1.8719260899999999,-0.664336047,0.0461638238,1.78575746,2.44369808,-3.7826690800000002
475,1778325916340,1.8124596444444445,-0.6500248933333332,-0.04837653,1.0013037577777777,3.254630177777778,-4.193245800000001
476,1778325916350,1.6560189222222224,-0.6970329955555555,0.02547832333333333,0.6953396255555556,3.4158969555555556,-4.471513544444445
477,1778325916360,1.5152117,-0.75079304,0.11042479,0.59916687,3.3803864,-4.6425476
478,1778325916370,1.2744187625,-0.81717694,0.18568553999999998,0.766944875,3.0617409,-4.667980225
479,1778325916380,0.83148575,-0.91418964,0.2867548,1.0945129,2.4456177,-4.647339
480,1778325916390,0.54857718125,-0.8884112550000001,0.30390051375,1.3228721875,2.195009275,-4.2807597625
481,1778325916400,0.2439177975,-0.8436574,0.2724475325,1.509960225,2.143482175,-3.72429275
482,1778325916410,0.12896709,-0.8641576,0.18852302,1.6026459,2.2469482,-3.2593079
483,1778325916420,-0.008957151499999996,-0.83130143375,0.0478839714,1.594722775,2.290887775,-2.949180625
484,1778325916430,-0.25444847,-0.74139667,-0.21173319,1.5057068,2.3635864,-2.16687
485,1778325916440,-0.318818075,-0.6331273175,-0.37201734249999996,1.4393901875,2.266588175,-1.7122039249999998
486,1778325916450,-0.25148925,-0.46573448,-0.5992344549999999,1.3867874,1.982486725,-0.95261005
487,1778325916460,-0.14157231,-0.45255452,-0.6693397,1.3991699,1.9529266,-0.791626
488,1778325916470,0.10189111000000001,-0.46664887375,-1.0835506625,1.3068962,2.3057975500000003,-0.8869629
489,1778325916480,0.55997264,-0.5385855,-2.0105562,1.0028992,3.0032806,-1.2353058
490,1778325916490,0.14653902250000003,-0.83035575,-2.9137822499999997,-0.02981185,3.2884425999999998,-2.2959060625
491,1778325916500,-0.7332877044444444,-1.126383588888889,-3.420340222222222,-0.9334648777777778,3.0647701888888887,-3.057254377777778
492,1778325916510,-1.9716354,-1.4253676,-2.9699450499999998,-1.2458801,1.1193618525,-2.817749
493,1778325916520,-2.3293016,-1.4728371,-2.658406,-1.1047363,0.049835205,-2.481659
494,1778325916530,-2.4103286,-1.4498944,-2.5548048,-0.8905571866666667,-0.33117506666666663,-2.1872948555555554
495,1778325916540,-2.41087685,-1.3386662500000002,-2.3647443,-0.12189483712499999,-0.77508928,-0.9030723375
496,1778325916550,-2.5377526111111113,-1.3536144,-2.5887547555555557,-0.030056423666666665,-0.4619734066666667,-0.2907562266666667
497,1778325916560,-2.66640515,-1.337506725,-2.843951175,-0.1286849975,-0.529270175,0.621467585
498,1778325916570,-2.627945977777778,-1.308668088888889,-2.930964088888889,-0.3112894666666667,-0.7858683333333334,1.3408711666666668
499,1778325916580,-2.5336993,-1.2961384,-2.9427328,-0.43521118,-0.9051819,1.7059021
500,1778325916590,-1.8566706666666666,-1.1277122444444445,-2.8803359222222222,-1.2500813733333334,-1.1922641666666667,2.6774800888888888
501,1778325916600,-1.4259077375,-1.0150306,-2.7590952875,-1.872123725,-1.4324837000000001,3.225498225
502,1778325916610,-0.9726175125,-0.90714235125,-2.269546975,-2.2962341,-1.756599425,3.54507825
503,1778325916620,-0.4179397577777778,-0.7665893055555555,-1.6393050444444444,-2.5423126000000003,-2.2426249333333335,3.8816986
504,1778325916630,-0.21137233,-0.7184556,-1.4249406,-2.5199432,-2.3917542,3.950943
505,1778325916640,0.38683992777777776,-0.6544043244444444,-0.9644318000000001,-2.2209523333333334,-2.7605184,3.9402923333333337
506,1778325916650,0.6887111,-0.6303513,-0.7480477,-2.0032806,-2.9238586,3.8731842
507,1778325916660,0.8551319466666667,-0.6319646122222222,-0.6154568288888889,-1.798751822222222,-3.0625762666666665,3.7691989555555554
508,1778325916670,1.06584195,-0.679253275,-0.39849741000000005,-1.4474124625,-3.3189964125,3.6064720375
509,1778325916680,1.0857927,-0.7106458,-0.3543834,-1.2325745,-3.5161438,3.566391
510,1778325916690,1.1076631000000001,-0.7392954833333333,-0.3326216988888889,-1.0917188999999998,-3.6813795333333337,3.597166288888889
511,1778325916700,1.1365573,-0.79240555,-0.2983723,-0.69247437,-4.1201477,3.7693176
512,1778325916710,1.2696364444444446,-0.9699029888888889,-0.22440926555555554,-0.4664018455555555,-4.367170588888889,3.9732547333333335
513,1778325916720,1.406057675,-1.1769479999999999,-0.16734388,-0.1870079075,-4.70218285,4.263065375
514,1778325916730,1.4505368,-1.2707568,-0.17475745,-0.05758667,-4.9095154,4.4676056
515,1778325916740,1.6432810875,-1.3831148625,-0.14984876875,0.08536720375000001,-5.0362777625,4.781457875
516,1778325916750,1.8158906999999997,-1.4740565,-0.12240784,0.24549866000000004,-5.1523895,5.145111
517,1778325916760,1.9652536125000002,-1.4741638000000001,-0.056755771875,0.213272095,-4.826149,5.31049345
518,1778325916770,1.9928593111111113,-1.4523226111111112,0.05304316944444444,0.13098313888888888,-4.528264222222223,5.374555833333334
519,1778325916780,1.927058575,-1.4301120875,0.19245769,0.049421309950000006,-4.192058475,5.473747250000001
520,1778325916790,1.840326475,-1.418717375,0.28098957999999996,-0.025218963599999998,-3.846645325,5.63726795
521,1778325916800,1.8281607222222225,-1.4123639222222222,0.35330204444444446,-0.10308837911111111,-3.477788277777778,5.843215988888889
522,1778325916810,1.9265091,-1.40572095,0.40030288999999997,-0.2474575,-2.9634075125,6.1521893125
523,1778325916820,2.022271275,-1.3772581000000002,0.44490469499999996,-0.37115859,-2.5460892,6.46897515
524,1778325916830,2.2208635,-1.2850751666666667,0.6021180866666667,-0.28873189499999996,-2.4594014666666664,6.667373633333333
525,1778325916840,2.4137089125,-1.1964728,0.75136485,-0.00084304687500001,-2.541492425,6.7156410625
526,1778325916850,2.5265846,-1.1304243,0.8148955,0.20555115,-2.6090698,6.68602
527,1778325916860,2.7865820625,-0.9179273475,0.80066406125,0.76041601875,-2.5245856875,6.2833500625
528,1778325916870,2.911387275,-0.77915034,0.72337406375,0.990978225,-2.410066575,6.031614425
529,1778325916880,2.9256189333333333,-0.5839392566666667,0.5328873933333332,1.0588226,-2.1346639,5.623774266666667
530,1778325916890,2.7997161375,-0.41879988625,0.4343034575,0.996906275,-1.864841475,5.211563175
531,1778325916900,2.6564229,-0.2542587,0.461744,0.9102172999999999,-1.7318268,5.0433807
532,1778325916910,2.5431347125,-0.13595195375,0.4758994,0.868141185,-1.660053275,5.039916975000001
533,1778325916920,2.3087635,0.12195521,0.5107992,0.74191284,-1.4447327,5.0295258
534,1778325916930,2.249671475,0.42263421999999995,0.4993598,0.27172088625,-0.6168212975,5.400039825
535,1778325916940,2.2809722,0.7072662249999999,0.3843480325,-0.2747650175,0.13306427,5.8280755
536,1778325916950,2.4637406,0.9142876,0.15984553,-0.79048157,0.47860718,6.069763
537,1778325916960,2.85917455,1.1801119125000001,0.08356208749999999,-1.67564967125,0.89359856,6.0534496125
538,1778325916970,3.163209,1.3678687,0.08772637,-2.3292542,1.1641083,5.9445953
539,1778325916980,3.45349885,1.5584925625,0.34648861625,-2.7587642875,1.1989956,5.6012477875
540,1778325916990,3.8701739777777777,1.873650111111111,0.8544466888888889,-2.815556877777778,0.8334011666666667,5.101199666666666
541,1778325917000,4.0441327,2.0356095,1.1032493,-2.6051636,0.54252625,4.887848
542,1778325917010,4.365801122222222,2.714007033333333,1.588651788888889,-1.4739091688888888,0.06392076355555555,4.222293444444444
543,1778325917020,4.4111958,3.1647396,1.7201041,-0.62324524,-0.0993042,3.759735
544,1778325917030,4.595444611111112,3.864560466666667,1.4254319444444445,0.04735311333333333,0.34740192999999997,3.3545786333333334
545,1778325917040,4.8483929,4.404276175,0.9915012249999999,0.43618775,1.03520965,2.92629625
546,1778325917050,5.0705156,4.7490373,0.6350254,0.4010315,1.3547974,2.7013855
547,1778325917060,5.265014025,4.9378310125,0.54156647875,0.20767975,1.531494175,2.140125275
548,1778325917070,5.523364,5.3211083,0.2862664,-0.3723755,2.0615845,0.4563446
549,1778325917080,6.246668688888889,5.507757611111112,0.48178351555555554,-0.49617513333333335,1.8254564111111111,-1.4755740888888889
550,1778325917090,6.560669025,5.28559755,0.831063475,-0.40598297125000005,1.37116625,-4.059314775
551,1778325917100,5.82727615,4.20454585,1.28562055,0.010871884999999998,0.96782685,-5.9866486000000005
552,1778325917110,5.021595988888889,3.3209639444444443,1.3212326777777779,0.21442667333333335,0.9807026999999999,-6.751063066666667
553,1778325917120,4.4454856,2.725803,1.2988604,0.3237915,1.1539917,-7.2375336
554,1778325917130,3.745582622222222,1.998471611111111,1.136969511111111,0.13049655444444444,1.5480092666666667,-7.122667111111111
555,1778325917140,3.358347025,1.4814308,1.1066658125,-0.12822532375,1.94134525,-6.8008423
556,1778325917150,3.395008666666667,1.1336687155555554,1.2804214222222223,-0.27755398000000003,2.3168996333333336,-6.260921833333334
557,1778325917160,3.575314875,0.829508425,1.60681535,-0.09259224249999999,2.630437825,-6.032058650000001
558,1778325917170,3.721368,0.6353302,1.9044881,0.24230957,2.8541412,-6.0540314
559,1778325917180,3.804035577777778,0.3314654977777778,2.067776688888889,1.0921461377777777,2.9680108,-6.351938800000001
560,1778325917190,3.8772141,-0.0626442475,2.0775871500000003,2.2831402,2.9576092,-6.839916237500001
561,1778325917200,3.848480777777778,-0.5313454555555555,1.5699280222222223,3.525261811111111,2.6409234111111113,-7.602444111111112
562,1778325917210,3.7493642857142855,-0.94902,0.98606728,4.329790357142857,2.3683144285714284,-8.283927
563,1778325917220,3.62106,-1.147142,0.65772223,4.459152,2.294876,-8.577637
564,1778325917230,3.1161458,-1.5475180333333334,-0.03397789333333334,3.7654825666666665,2.3825887,-8.980122999999999
565,1778325917240,2.965562511111111,-1.6205861666666665,-0.14567502222222223,3.4756096666666667,2.4325968444444444,-9.000539111111111
566,1778325917250,2.56099755,-1.6661297499999999,-0.22456064374999998,2.42136195,2.655679725,-8.71424825
567,1778325917260,2.26922725,-1.6237860499999999,-0.15482089999999998,1.4308757625,2.87139325,-8.257652
568,1778325917270,2.167333,-1.5969403,-0.08701865,1.0567017,2.972931,-7.996002
569,1778325917280,2.1969859166666668,-1.5016965333333332,0.027627582166666668,0.3552144516666667,3.3262431666666665,-7.351163133333333
570,1778325917290,2.235425,-1.431713,0.11664807,-0.12522888,3.593979,-6.9025116
571,1778325917300,2.3709834,-1.3856931875,0.1801328375,-0.46091841,4.120218275,-6.558830325000001
572,1778325917310,2.3879194666666663,-1.3814776888888889,0.18454925,-0.5944824,4.4019775,-6.412491
573,1778325917320,2.2479928,-1.3886368,0.11469445,-0.6999359,4.8632355,-6.1818542
574,1778325917330,2.1422621333333334,-1.4077817777777777,0.10918994777777777,-0.6963229622222222,4.9895306999999995,-6.050116622222222
575,1778325917340,1.9190049,-1.4645388,0.10712883,-0.60565186,5.1284943,-5.729126
576,1778325917350,1.5958456333333333,-1.508971088888889,0.005790875555555553,-0.40591600666666666,4.904729177777778,-5.318871333333333
577,1778325917360,1.2061131,-1.5293366,-0.1483991,-0.24293518,4.632614,-4.84494
578,1778325917370,0.6009325333333334,-1.4117825555555554,-0.34703435777777775,-0.5777808222222222,4.513292222222223,-3.4473198666666667
579,1778325917380,0.3644408333333333,-1.3201791999999999,-0.29979605,-0.7988806822222222,4.7457665,-2.7032996
580,1778325917390,0.2970004,-1.2372,-0.18842503,-0.95506287,5.063507,-1.8739318999999999
581,1778325917400,0.6971453688888889,-0.9838678222222222,-0.16662202999999998,-0.5370059633333333,5.208859,-0.991411011111111
582,1778325917410,1.2218142333333333,-0.7538847666666667,-0.41869223333333333,0.038116456666666666,5.126714066666667,-0.6561482666666666
583,1778325917420,1.6792993999999999,-0.6174573,-0.9466696333333332,0.5586802133333334,4.9367421333333334,-1.0256195000000001
584,1778325917430,1.8156464666666667,-0.6102156999999999,-1.5213841666666665,0.9085642333333332,4.635035222222223,-1.8423139444444443
585,1778325917440,1.6960586,-0.6897781,-1.8914567,1.238327,4.0339355,-2.850235
586,1778325917450,1.2668433733333333,-0.8774586111111111,-2.3692121444444445,1.5641767777777777,2.439351388888889,-3.6725073999999998
587,1778325917460,0.709042298,-1.08055086,-2.81269922,1.7965210200000001,0.76612854,-4.36185304
588,1778325917470,0.032672373333333324,-1.2861867777777778,-2.9703520222222224,1.3962199,-0.4922671844444444,-4.420084666666666
589,1778325917480,-0.5029251133333333,-1.4460442111111111,-2.9545970666666665,0.7127939866666666,-0.6528828933333333,-4.068730733333333
590,1778325917490,-1.0582507,-1.4949242,-2.8069155,0.12831116,-0.2953186,-3.6465302
591,1778325917500,-1.503547011111111,-1.5606704,-2.762334855555556,-0.21162584555555555,0.13227335555555556,-2.986653677777778
592,1778325917510,-2.181159,-1.6650325,-2.7266212,-0.7127228,0.7252197,-1.6645966
593,1778325917520,-2.33523146,-1.65395124,-2.69921276,-0.701425184,0.5083282315,-0.910072352
594,1778325917530,-2.444739877777778,-1.5170651444444445,-2.5890123666666667,-0.5858307077777778,-0.023195054444444443,0.3222995311111111
595,1778325917540,-2.3441885,-1.4091375,-2.5551705,-0.32069397,-0.60743713,0.9373169
596,1778325917550,-1.8883435888888889,-1.1213946333333333,-2.5802810333333333,0.06492953666666666,-1.48510231,1.4428439666666666
597,1778325917560,-1.5436808,-0.890883,-2.5881176,0.32165527,-2.0929565,1.7458496
598,1778325917570,-1.4275774444444442,-0.7185505044444445,-2.417128977777778,0.4745313888888889,-2.355178866666667,1.6904008444444445
599,1778325917580,-1.4858257444444445,-0.6203726577777777,-2.2890260444444444,0.6133694222222222,-2.5820821555555558,1.6766103111111113
600,1778325917590,-1.52100756,-0.56657918,-2.14046832,0.8253799449999999,-3.0336777,1.8246795299999998
601,1778325917600,-1.4616634222222222,-0.5791936333333333,-2.009905622222222,1.0801917111111112,-3.6543934222222223,2.1217702
602,1778325917610,-1.3672279,-0.6551231,-1.9247710000000002,1.1642761,-3.9555664,2.3786163
603,1778325917620,-1.1801026777777777,-0.8052316444444444,-1.858088188888889,0.9223463333333333,-4.097422211111111,2.9181688333333335
604,1778325917630,-0.8487272333333333,-0.9960307666666667,-1.7088614,0.4326273633333333,-4.127599133333334,3.646275866666667
605,1778325917640,-0.4585612466666667,-1.170938388888889,-1.383777511111111,-0.05934651333333333,-4.029057966666667,4.287216166666667
606,1778325917650,-0.004411374444444443,-1.321779,-1.0218941555555556,-0.5861884222222222,-3.9323578111111113,5.133034588888889
607,1778325917660,0.21175061,-1.36303532,-0.8958489079999999,-0.750427248,-3.94586488,5.49579164
608,1778325917670,0.6586923133333333,-1.4372052000000002,-0.6697058,-0.8730943422222222,-4.055041822222222,5.9361317555555555
609,1778325917680,1.115025688888889,-1.5026394444444444,-0.502770968888889,-0.8916778333333334,-4.282241833333334,6.352773000000001
610,1778325917690,1.5325677,-1.5805474111111113,-0.40992063999999995,-0.8503706022222223,-4.470087655555556,6.513980422222222
611,1778325917700,1.8916708,-1.6903735333333332,-0.38342643666666665,-0.8331536133333333,-4.725869088888889,6.680811577777778
612,1778325917710,2.0595818,-1.7539908,-0.37049147,-0.8613281,-4.968628,6.8601837
613,1778325917720,2.5642648555555554,-1.7267516777777778,-0.20122382377777778,-0.9353535822222222,-5.260626911111111,6.942147133333333
614,1778325917730,2.9478283,-1.6911466,-0.052606266,-0.9731648755555555,-5.401182355555556,6.8668094
615,1778325917740,3.17172518,-1.5840776399999998,0.278359966,-0.93961488,-5.236277800000001,6.47014308
616,1778325917750,3.1774856444444444,-1.489215911111111,0.5171184222222222,-0.8323194666666667,-4.952528222222223,6.144151288888889
617,1778325917760,3.073274,-1.4286628,0.77157515,-0.6264343,-4.5792694,5.7874603
618,1778325917770,2.8780549555555557,-1.4095719333333332,0.9006278222222223,-0.311994752,-4.291058033333333,5.634777466666666
619,1778325917780,2.7015738,-1.394983,0.9704823,0.081451416,-4.025345,5.5477753
620,1778325917790,2.6187658,-1.31971442,0.818654062,0.7104828000000001,-3.7078888,5.5842132399999995
621,1778325917800,2.638797688888889,-1.270987577777778,0.6472821666666666,0.8269551666666667,-3.5381571333333333,5.5855968
622,1778325917810,2.6472723,-1.2345153,0.51983005,0.8713379,-3.35849,5.587723
623,1778325917820,2.6602201333333335,-1.1133405777777776,0.37373436666666665,0.6972266222222223,-3.0698581111111114,5.641462533333334
624,1778325917830,2.666796,-1.0360966,0.316042,0.5251312,-2.8583374,5.687866
625,1778325917840,2.730847811111111,-0.8797098311111111,0.44662656666666667,0.41736009444444444,-2.605812911111111,5.635903233333334
626,1778325917850,2.7527449666666666,-0.7315402377777778,0.5646280333333333,0.41677009,-2.338428066666667,5.502039544444444
627,1778325917860,2.70779715,-0.55017887,0.6585154999999999,0.60102844,-1.9741745000000002,5.29158775
628,1778325917870,2.6148521666666666,-0.36560326888888883,0.6024975,0.7968868777777778,-1.6923539777777779,5.1607410555555555
629,1778325917880,2.5235345,-0.23998138,0.508603,0.9128876,-1.5225067,5.113693
630,1778325917890,2.533472911111111,-0.06636181355555555,0.27632924066666664,0.7836354666666667,-1.3687489666666666,5.129308133333333
631,1778325917900,2.5685625111111112,0.16274088555555555,-0.003212658444444445,0.47145079666666667,-1.2024485666666667,5.146643922222221
632,1778325917910,2.5604688666666666,0.5647576866666666,-0.12993301833333334,-0.41657511999999997,-0.8192393,5.191274
633,1778325917920,2.6311227666666666,0.9114816066666668,0.050303703333333324,-1.1400011,-0.49338955777777777,5.187249088888889
634,1778325917930,2.6642327,1.1262525,0.2880971,-1.7145996,-0.15948486,5.096115
635,1778325917940,2.6650603888888886,1.428042,0.5624314444444445,-1.841125477777778,0.05693732577777777,4.920405022222223
636,1778325917950,2.68053644,1.75367374,0.84598832,-1.8428528,0.274496464,4.70260312
637,1778325917960,2.7663031333333334,1.9643447,0.6434317777777777,-1.8064473333333335,0.16446770755555554,4.654257866666667
638,1778325917970,2.8841288,2.1156597,0.3897477,-1.84935,0.006149292,4.6465607
639,1778325917980,2.8841288,2.1156597,0.3897477,-1.84935,0.006149292,4.6465607
640,1778325917990,3.5351251666666665,2.815521388888889,0.8121422333333334,-3.3801405,0.6218295555555556,4.5648364444444445
641,1778325918000,3.7921847999999994,3.1769839333333336,1.5432022666666667,-3.5773874999999995,0.8810984166666667,4.502578833333334
642,1778325918010,4.1065573111111116,3.7020860666666664,2.415843577777778,-2.6427968333333336,0.9238891666666667,4.225784333333333
643,1778325918020,4.8358555,4.53683,3.7699410000000007,-1.0924835,0.9015197999999999,3.738968
644,1778325918030,5.257179566666667,4.879649333333334,3.8468996666666664,0.18654887333333336,1.0648600666666665,3.041214
645,1778325918040,6.09556841,5.26795232,2.51720685,3.294227556,1.47616883,-0.03336028999999996
646,1778325918050,6.2173408,5.115693233333333,1.4503797133333332,4.2075653,1.4534963,-1.6644287
647,1778325918060,5.878426666666666,4.628230066666666,0.38421556,4.1086782,0.9879760666666666,-3.2827351333333334
648,1778325918070,5.194415155555555,4.012473555555555,-0.43945135555555553,3.182963066666667,0.3205922333333333,-5.0871173333333335
649,1778325918080,4.6346292,3.6631048,-0.6620183,2.433014,0.2655487,-5.416992
650,1778325918090,4.224789622222222,3.2866870777777777,-0.6043121377777777,1.4210731,0.5243513311111111,-5.3717209666666665
651,1778325918100,3.816794,2.6109748,-0.18537484,-1.3614655,1.5481415,-5.0878296
652,1778325918110,3.7190609500000003,2.15826013,0.33750698,-2.44014434,2.15538177,-4.81997385
653,1778325918120,3.6743047888888887,1.6612254333333334,1.1065158777777777,-3.0873684444444445,2.622094,-4.594847111111111
654,1778325918130,3.656082,1.2469386,1.9136403,-2.9854584,2.8893127,-4.5285645
655,1778325918140,3.783114033333333,0.9532154199999999,2.4646406666666665,-1.9695536533333333,2.9965413333333335,-4.7187144
656,1778325918150,3.9825089222222223,0.6098534144444445,2.969269466666667,-0.71165466,3.1002197,-5.014862
657,1778325918160,4.046343766666666,0.08122570777777777,2.7055795555555555,1.4288279,3.242431633333333,-5.9743042666666675
658,1778325918170,3.8430302666666663,-0.37990804666666667,2.094690533333333,3.0874447,3.3115539444444444,-6.884036755555556
659,1778325918180,3.4203766,-0.8066021333333333,1.3443774,3.9450378444444443,3.2738037777777778,-7.5812581111111115
660,1778325918190,3.0339801,-1.0938980333333332,0.8433682333333333,4.129089366666666,3.255935666666667,-7.882909
661,1778325918200,2.67931688,-1.2893063,0.49327604,4.09173884,3.2328552000000004,-8.06535
662,1778325918210,2.2225171111111113,-1.4355227444444445,0.20049450933333335,3.6864165555555553,3.299842,-7.945756666666666
663,1778325918220,1.8701115222222222,-1.5143260777777778,0.020462054666666667,3.3137546,3.372217833333333,-7.751042688888889
664,1778325918230,1.6002923999999998,-1.5027473333333334,-0.08964923,2.7637837666666667,3.380806888888889,-7.242675777777778
665,1778325918240,1.4321915333333335,-1.4595360666666668,-0.103574668,2.1084645333333336,3.3528697333333337,-6.596771333333333
666,1778325918250,1.3747578,-1.4319572,-0.031495944,1.7885283999999997,3.3159332,-6.254822
667,1778325918260,1.3304608,-1.4071719,0.20818178466666667,1.6106974,3.321261922222222,-5.840020066666667
668,1778325918270,1.28085535,-1.3949820124999999,0.44890001875,1.5156326125000001,3.3470325625,-5.385961375
669,1778325918280,1.16616092,-1.4124816,0.5500692,1.7152465799999999,3.30667416,-5.06056224
670,1778325918290,1.0706269857142858,-1.4281563571428573,0.5916527814285714,1.9792916571428572,3.183617714285714,-4.706163657142858
671,1778325918300,1.0953103,-1.4031583,0.58987427,2.257782,2.8211212,-4.4263
672,1778325918310,1.169111088888889,-1.4017482222222222,0.6226595077777778,2.4241418,2.513083566666667,-4.349777188888889
673,1778325918320,1.30273591,-1.37432294,0.650375911,2.71925508,1.9871841700000001,-4.26219635
674,1778325918330,1.4061995999999999,-1.2560736,0.564790688888889,2.6963721555555558,2.0507609444444443,-4.328175866666666
675,1778325918340,1.3552188,-1.1789518222222222,0.45301252,2.4772237333333336,2.5178833333333333,-4.351374266666666
676,1778325918350,1.2491893,-1.1580036,0.38230342,2.224762,3.070404,-4.2729034
677,1778325918360,1.1776539222222224,-1.126872177777778,0.32172314444444444,2.224762,3.070404,-4.2729034
678,1778325918370,0.7790133,-1.0703862,0.10920377,1.5962524,4.0845184,-3.4185638
679,1778325918380,0.6092310833333333,-1.0422384866666665,-0.025882389333333332,1.4172821,3.9954020000000003,-2.7035929333333337
680,1778325918390,0.5653656300000001,-0.9167277840000001,-0.057267897400000004,1.32247622,3.6377564,-1.8589111200000001
681,1778325918400,0.6329457,-0.84512067,-0.0033068485,1.3496399,3.485321,-1.5527496
682,1778325918410,0.9017876111111112,-0.7509288844444444,-0.08118836977777777,1.7684122999999998,3.4204559333333333,-1.4820845
683,1778325918420,1.082254,-0.6592714,-0.21075638,2.095337,3.4560242,-1.5207825
684,1778325918430,1.0885321244444444,-0.654363,-1.1104327999999999,2.6973266444444444,3.3439941444444443,-2.325358044444444
685,1778325918440,0.9155494411111111,-0.7493279844444445,-1.7590965666666665,2.9778476222222223,3.1211174666666666,-2.8568725333333336
686,1778325918450,0.82465273,-0.77959186,-1.9370947000000003,3.058319,2.8578796,-3.105896
687,1778325918460,-0.08508542222222222,-0.9519373666666667,-3.1100615333333335,1.8595445377777777,1.0908372546666667,-3.2856919777777778
688,1778325918470,-0.9130370600000001,-1.1157814,-4.149353,0.84150696,-0.037521362,-3.2779388
689,1778325918480,-0.9971551666666666,-1.2584998444444444,-3.9276403555555555,-1.451889031111111,0.2903459331111111,-2.6596188
690,1778325918490,-1.12980788,-1.42721107,-3.30607387,-2.9803436,1.090820308,-2.20128172
691,1778325918500,-1.8792460888888887,-1.4355903222222224,-2.480366922222222,-3.825597111111111,2.058868355555555,-1.3243679555555556
692,1778325918510,-1.9681369333333332,-1.3532481666666665,-2.256972766666667,-3.7272356,1.965359088888889,-0.8248799600000001
693,1778325918520,-1.9333180000000003,-1.2719779,-2.0181217,-3.3332672,1.5428009,-0.10984802
694,1778325918530,-1.814475222222222,-1.2117091777777778,-1.9757508666666668,-2.638297177777778,0.9470265666666666,0.4635637244444444
695,1778325918540,-1.5675976,-1.01889038,-2.046635933333333,-1.8044281,0.196136472,1.11468
696,1778325918550,-1.2024480333333334,-0.6182702466666667,-2.2700701666666667,-1.4321187333333334,-0.2906951893333333,1.3492126666666668
697,1778325918560,-1.0718373333333333,-0.35444408,-2.292198133333333,-1.0990498666666666,-0.8341624,1.5145060333333333
698,1778325918570,-1.056787,-0.27244172,-2.280971,-0.9790344,-1.0575104,1.5588989
699,1778325918580,-1.0528139133333334,-0.10927584902222223,-2.2538543888888887,-0.8184695777777777,-1.7280392444444443,1.7543725111111113
700,1778325918590,-0.9686947377777777,0.008591342577777779,-2.1935581777777777,-0.7133653333333333,-2.4119975,1.9651777777777777
701,1778325918600,-0.7540330366666667,0.05065109066666667,-2.0304469666666667,-0.70028685,-2.8968709333333336,2.0347137333333336
702,1778325918610,-0.42051555444444444,0.031776441555555555,-1.7516527000000002,-0.7264506055555555,-3.467854844444444,2.0316416222222227
703,1778325918620,-0.27482772,-0.089519784,-1.5847986,-0.796875,-3.7723388999999994,1.9450531
704,1778325918630,-0.23043638555555557,-0.23956141688888888,-1.454444911111111,-0.8304324666666667,-4.1246490444444435,1.9217970222222225
705,1778325918640,-0.21454541,-0.5765364,-1.1547699,-0.8176422000000001,-4.776352,2.0009766
706,1778325918650,-0.17617359355555556,-0.7284485888888889,-0.95239224,-0.63282268,-5.586303833333334,2.3816426333333336
707,1778325918660,-0.038863678666666665,-1.0068900666666667,-0.5463754044444444,-0.3887583533333333,-6.292397388888889,2.9000684555555556
708,1778325918670,0.09943566,-1.1832622,-0.3465736,-0.14067078,-6.6176605,3.5903625
709,1778325918680,0.31558884666666664,-1.375023911111111,-0.20102075666666666,-0.01023525688888889,-6.489351144444445,4.117784233333333
710,1778325918690,0.5283796999999999,-1.572669877777778,-0.10175740111111112,0.15063476888888888,-6.1927964666666675,4.9362623333333335
711,1778325918700,0.7450745888888889,-1.7127590111111113,-0.13096219,0.18861897333333333,-5.946957,5.789889888888889
712,1778325918710,1.2531752666666667,-1.9037202000000002,-0.24744589999999997,0.09174092333333334,-5.7469838,6.9665426
713,1778325918720,1.82345672,-1.9576568399999998,-0.364853644,-0.168153381,-5.559689329999999,7.702708599999999
714,1778325918730,2.5140160444444444,-1.9492102666666666,-0.4361289688888889,-0.7151998,-5.164820333333334,8.112589666666667
715,1778325918740,2.8697286,-1.9208045999999999,-0.44541663000000004,-1.274400522222222,-4.745403555555556,8.191065222222221
716,1778325918750,3.2895889,-1.8329019999999998,-0.29328811,-1.8921508666666667,-4.2861429,7.891189833333333
717,1778325918760,3.4962508111111115,-1.7255440222222225,0.011051165555555556,-2.3861372222222226,-3.8561961222222223,7.464136777777777
718,1778325918770,3.4511958,-1.5712731,0.41207906666666666,-2.6151021333333335,-3.4227498333333335,6.933690333333334
719,1778325918780,3.4215829555555555,-1.4449061333333333,0.6997146111111111,-2.572838711111111,-3.202423111111111,6.541966633333333
720,1778325918790,3.3604066,-1.3639864,0.9077595000000002,-2.4421692,-3.155548,6.3653717
721,1778325918800,3.215910822222222,-1.2312601444444444,1.116591088888889,-1.4750247622222221,-3.420267677777778,5.925771077777778
722,1778325918810,2.9553659666666667,-1.0106056355555555,1.3785050888888888,0.18028428222222223,-3.9154425333333336,5.244530577777778
723,1778325918820,2.8367823666666667,-0.8989775066666668,1.1108963,1.2415211666666666,-4.1490936666666665,5.0181629999999995
724,1778325918830,2.71958574,-0.7678048399999999,0.63051022,2.0585723799999998,-3.99221512,4.8742096
725,1778325918840,2.6336859777777777,-0.6905392666666667,0.41142818,2.0633698,-3.7292022999999994,4.8984985
726,1778325918850,2.460405,-0.4702490833333333,0.08203175611111112,1.3202310888888888,-2.5898386444444443,5.182747866666666
727,1778325918860,2.414197,-0.40240115,0.014020665,0.9166107000000001,-2.1110687,5.3123627
728,1778325918870,2.364558833333333,-0.15488664277777778,0.04048772288888889,-0.15315924666666664,-1.2600894777777778,5.576304055555555
729,1778325918880,2.3910931333333334,0.06488692533333335,0.15854467333333336,-0.7816111066666667,-0.8854726333333334,5.6541239999999995
730,1778325918890,2.4447036,0.26265493,0.3021318,-1.1100616,-0.7768097,5.604767
731,1778325918900,2.377994977777778,0.5557950988888889,0.5262840666666667,-1.3337707111111112,-0.8310801333333333,5.423439888888889
732,1778325918910,2.3501318,0.75150234,0.6401505,-1.4573364,-0.9083710000000002,5.272415
733,1778325918920,2.3668734000000002,1.196650344,0.7382489449999999,-1.60300597,-0.707257084,4.93408502
734,1778325918930,2.3963800333333336,1.5700702,0.7199161666666667,-1.9120229000000002,-0.20156860333333332,4.5757294
735,1778325918940,2.4088275,1.7511598,0.6644339,-2.1875763,0.22241211,4.3573456
736,1778325918950,2.2892662,1.9525210666666668,0.53048701,-2.8732503,0.76516383,4.272421855555556
737,1778325918960,2.3284102333333334,2.1490549666666663,0.5086034466666667,-3.5152486,1.01124062,4.315800866666667
738,1778325918970,2.964721877777778,2.426602766666667,1.065081388888889,-3.759782577777778,0.6114128999999999,4.274141222222222
739,1778325918980,3.6454655000000002,2.7485411666666666,1.8811006,-3.5668521222222216,0.17340596777777778,4.021079355555555
740,1778325918990,4.19557098,3.18074986,2.7351864800000003,-2.35801698,-0.12273559599999999,3.33373416
741,1778325919000,4.774339111111111,3.687632366666667,3.166237833333333,-0.8142700133333334,0.1771359,2.434721222222222
742,1778325919010,5.174728,4.0024657,3.242777,0.26254272,0.5339966,1.735199
743,1778325919020,5.392305333333334,4.217074655555556,2.697064355555556,1.2957356355555554,1.027581111111111,0.6590406888888889
744,1778325919030,5.506525,4.3308454,2.0205374,2.321701,1.4384155,-0.7569885
745,1778325919040,5.3566595,4.134040877777777,1.2879191544444444,2.560670622222222,1.3391638666666668,-2.0728929444444444
746,1778325919050,5.0646106500000005,3.85944912,0.610851907,2.6604462,1.1060486,-3.7317504999999995
747,1778325919060,5.0037675,3.7902582,0.5492386,2.6604462,1.1060486,-3.7317505
748,1778325919070,4.150500888888889,2.8887922666666666,0.3522982711111111,1.2064853333333334,1.1237996555555556,-5.012841077777778
749,1778325919080,3.9681088,2.4872909333333335,0.47280830222222214,0.3803066666666666,1.3808865,-5.034623877777778
750,1778325919090,3.993789111111111,2.0513502222222226,0.8282373277777777,-0.38313802222222226,1.7552676555555555,-4.973907444444444
751,1778325919100,4.040688933333333,1.7525158555555556,1.1403995777777778,-0.77734375,2.011525466666667,-4.956980333333333
752,1778325919110,4.0551157,1.6291316,1.3097204,-0.81710815,2.0541382,-4.966919
753,1778325919120,3.8772522222222228,0.8641484777777778,2.106853122222222,-0.24340820888888892,2.650802633333333,-5.296510488888889
754,1778325919130,3.7214217777777776,0.5922007011111111,2.2573547555555553,0.2786916122222222,2.8113539222222226,-5.433809133333334
755,1778325919140,3.5466225199999997,0.328770424,2.12021092,1.10729372,3.06016848,-5.61193556
756,1778325919150,3.3842427111111113,0.08914353666666668,1.8385798111111111,1.6988152444444442,3.313695288888889,-5.783915199999999
757,1778325919160,3.2233684,-0.11197399999999999,1.4981331,2.0745544,3.566803,-5.9943695
758,1778325919170,2.982945,-0.31394408444444444,1.2577368777777778,2.2462412,3.647410077777778,-6.150014233333334
759,1778325919180,2.7828453,-0.48135333999999996,1.0764025,2.464981,3.7500304999999994,-6.3501587
760,1778325919190,2.5661227444444443,-0.6303913844444444,0.9322734222222222,2.6349470444444445,3.819386811111111,-6.478824166666666
761,1778325919200,2.2240757444444443,-0.8343823166666666,0.6996590911111111,2.891030222222222,3.8924780555555554,-6.6096784444444445
762,1778325919210,1.9858760999999998,-0.9466499699999998,0.48749262,3.0056,3.8517609,-6.559494
763,1778325919220,1.83822145,-1.057145984,0.241677741,2.93401335,3.7309676699999996,-6.37658537
764,1778325919230,1.7521911,-1.1437248,0.06917784,2.8069305,3.6328583,-6.2303314
765,1778325919240,1.637502214285714,-1.2461601714285713,-0.027852899857142854,2.537796,3.4680503000000003,-6.045809057142857
766,1778325919250,1.5281059833333333,-1.28320375,-0.025740845166666665,2.3531214666666664,3.3795038666666666,-5.9111887166666675
767,1778325919260,1.37469625,-1.31975145,0.019878422,2.0308838,3.3132706,-5.6409683
768,1778325919270,1.2814867333333335,-1.3285173000000001,0.0065369626666666675,1.7837423000000001,3.3876597333333334,-5.419840533333333
769,1778325919280,1.1448688777777778,-1.3311609,-0.034560490666666666,1.5007375222222223,3.538457288888889,-5.178378777777777
770,1778325919290,1.00581582,-1.2972377800000001,-0.069861608,1.0595733800000002,3.8134248,-4.77591564
771,1778325919300,0.9239019444444444,-1.2526153444444443,-0.06472792399999999,0.6551445888888889,4.0882044,-4.3696627999999995
772,1778325919310,0.8859505777777777,-1.172768311111111,0.004692048,0.2235955138888889,4.429731688888889,-3.7904509999999996
773,1778325919320,0.9359423333333332,-1.0914155666666667,0.075930492,0.07664998366666667,4.570287166666667,-3.457082166666667
774,1778325919330,1.0489414,-1.0165713,0.14166409,0.005279541,4.6714935,-3.1762085
775,1778325919340,1.1766231888888887,-0.9602758666666666,0.13511450422222224,0.02071973988888889,4.7828725,-3.0851304666666666
776,1778325919350,1.2628158666666667,-0.8981634799999999,0.08158396733333334,0.08109028866666668,4.889511133333333,-3.0130411666666665
777,1778325919360,1.241745,-0.87318844,0.03684041,0.1400299,4.87175,-2.9988403
778,1778325919370,1.1756065,-0.83169883,-0.108496055,0.19894409400000002,4.6523635599999995,-2.9254501599999996
779,1778325919380,1.1756065,-0.83169883,-0.108496055,0.201828,4.614502,-2.9072266
780,1778325919390,1.1421432555555555,-0.8094354233333333,-0.12859016055555555,0.16418626355555557,4.579701766666667,-2.8445570444444446
781,1778325919400,0.9666113000000001,-0.7167073333333334,-0.2172643,0.13422817555555555,4.551171211111111,-2.626420733333333
782,1778325919410,0.7092533388888889,-0.6348938333333334,-0.3685252288888889,0.3820309111111111,4.311199666666667,-2.4239586666666666
783,1778325919420,0.5722014433333333,-0.5706793755555555,-0.5183492733333334,0.6223619222222223,3.9588317333333336,-2.253984222222222
784,1778325919430,0.48602274,-0.49209204,-0.72193354,0.8452301,3.5561523,-2.118927
785,1778325919440,0.35782488888888886,-0.36036939999999995,-1.0680344644444444,1.0824330333333334,3.068379677777778,-2.1008334666666664
786,1778325919450,0.27549656666666666,-0.3173205866666666,-1.4222422666666668,1.2206810666666668,2.6632842666666665,-2.1269887666666665
787,1778325919460,0.22382372888888893,-0.4018997866666667,-1.7732382,1.1664208066666666,2.461947933333333,-2.1570451777777775
788,1778325919470,0.08465646333333333,-0.5242271155555556,-2.1627803666666665,0.77867126,2.243225,-2.1721954
789,1778325919480,0.06197308,-0.53248507,-2.2133675,0.77867126,2.243225,-2.1721954
790,1778325919490,-0.3403695133333333,-0.5935530588888889,-2.5222088333333335,0.014392427111111094,2.4087507,-1.849716155555556
791,1778325919500,-0.6268796,-0.62119913,-2.720275,-0.42941453777777777,2.4685228,-1.6212751333333335
792,1778325919510,-1.0634240160000001,-0.542880604,-2.88457424,-0.48661804000000003,1.91671755,-1.10107423
793,1778325919520,-1.375714711111111,-0.43762667888888884,-3.033942088888889,-0.4462873644444445,1.3317701666666666,-0.6230078777777778
794,1778325919530,-1.4122561,-0.42888084,-3.0352297,-0.42616272,1.0559845,-0.4182434
795,1778325919540,-1.5440337,-0.2827051388888889,-3.123687822222222,-0.5605010955555555,0.5202145055555556,0.17428419133333334
796,1778325919550,-1.5716257,-0.22082314,-3.1114988,-0.6287960444444445,0.3255649177777778,0.41527472111111113
797,1778325919560,-1.6258869,-0.1378035,-2.968602766666667,-0.6560719799999999,-0.052424113333333335,0.7936859
798,1778325919570,-1.6452084999999999,-0.055880969433333344,-2.8397403999999997,-0.6420542399999999,-0.686793,1.2377166666666666
799,1778325919580,-1.6117729,0.0057846517,-2.7499278,-0.63175964,-1.148056,1.479538
800,1778325919590,-1.4714663555555556,0.03695654686666667,-2.568742211111111,-0.6129387711111112,-1.6753624555555555,1.7388068777777776
801,1778325919600,-1.2183512,0.0631381,-2.296835,-0.5870056,-2.407196,2.086197
802,1778325919610,-0.8697711333333333,-0.04659245222222222,-1.9800363555555553,-0.5946502733333333,-3.056304933333333,2.3168334333333336
803,1778325919620,-0.658729431111111,-0.17826236666666667,-1.782051611111111,-0.6056603444444444,-3.607042088888889,2.489291744444445
804,1778325919630,-0.3882316977777778,-0.3870673611111111,-1.4923817444444445,-0.60956319,-4.2098084,2.7010396333333335
805,1778325919640,-0.24770860088888888,-0.49043862222222223,-1.3172166333333335,-0.5949469688888889,-4.7419604444444445,2.9170498555555557
806,1778325919650,-0.034675248,-0.6226628,-1.0889953,-0.53482056,-5.2211,3.1594543
807,1778325919660,0.16288986044444445,-0.7338584,-0.8869567777777778,-0.4478793688888889,-5.551093233333334,3.4210967777777777
808,1778325919670,0.440798556,-0.88936931,-0.6335358400000001,-0.31531983,-5.86845401,3.8215682899999996
809,1778325919680,0.6720885222222222,-1.0545902166666667,-0.5545922222222222,-0.23879326666666667,-5.943050888888888,4.193946055555555
810,1778325919690,0.7885317777777777,-1.1759822444444445,-0.5486266155555555,-0.2015686011111111,-5.994127111111111,4.538323444444445
811,1778325919700,0.81074095,-1.2038858,-0.56476027,-0.21524048,-6.022705,4.71315
812,1778325919710,1.4386051277777778,-1.4054226,-0.6269407188888888,-0.71674094,-6.168648611111111,5.840015044444445
813,1778325919720,1.8124734000000002,-1.5001707,-0.5735469,-0.9374847399999999,-6.1420135,6.0921326
814,1778325919730,2.1493266444444448,-1.5279530888888888,-0.40585251888888885,-1.2450578088888888,-5.958440133333333,6.2094845111111105
815,1778325919740,2.6202898666666665,-1.5071944444444445,-0.09013711222222222,-1.7011091111111112,-5.618623488888889,6.254230044444444
816,1778325919750,2.8111556,-1.4386688,0.13641606,-1.8253783999999997,-5.4085846,6.1038513
817,1778325919760,2.952234288888889,-1.3271481666666667,0.5450766222222222,-1.7232971,-5.081192,5.7423706333333335
818,1778325919770,3.016665522222222,-1.210923388888889,0.8801399977777778,-1.5319061,-4.7529144,5.380005
819,1778325919780,2.95722438,-0.99231246,1.1277769,-1.016693139,-4.38076639,4.9565109
820,1778325919790,2.7692192,-0.83222768,1.2425236666666666,-0.14936828666666668,-3.9344331333333336,4.3869983333333336
821,1778325919800,2.5865016,-0.77153784,1.240653,0.4287262,-3.7494354,4.110733
822,1778325919810,2.3539146666666664,-0.7086800488888889,1.0452713999999999,1.1180114666666667,-3.7392526999999998,3.9781731999999996
823,1778325919820,2.1689193,-0.657198,0.8589469,1.7267456,-3.7813873000000005,3.9147340000000006
824,1778325919830,2.0980611444444444,-0.6008198555555556,0.6745760111111111,1.9738871333333334,-3.7401987444444447,4.042443244444445
825,1778325919840,1.9961264000000003,-0.50783455,0.4231833,2.1038513,-3.5097504,4.326462
826,1778325919850,1.9696467,-0.46829703000000006,0.34520638,2.0175629,-3.3046875,4.5011597
827,1778325919860,2.133517488888889,-0.2782581511111111,0.1739866598888889,1.5623389444444444,-2.723761677777778,4.810794411111111
828,1778325919870,2.323285,-0.07609796,-0.004039457,0.7232666,-1.7296906,5.274002
829,1778325919880,2.506355,0.1611138977777778,-0.03630879666666667,-0.25163777500000006,-1.0643734444444446,5.253770666666666
830,1778325919890,2.6190552222222223,0.3389635588888889,0.032203665,-0.7852206777777778,-0.8079935966666667,5.138424444444444
831,1778325919900,2.6869445,0.6253512866666666,0.35690788222222225,-1.3994039,-0.8313191644444444,4.677580222222222
832,1778325919910,2.7195128,0.7758262,0.5862537533333333,-1.3861389222222222,-0.9494493111111111,4.351849111111111
833,1778325919920,2.7551446,0.8996448,0.77279466,-1.2884827,-1.0207672,4.121933
834,1778325919930,2.6924223,1.1437429000000001,0.9040984933333333,-0.8195953333333333,-1.0120645833333333,3.5784606666666665
835,1778325919940,2.5243879,1.3524118666666665,0.8419449933333333,-0.4034322266666666,-0.9815216000000001,3.1646066666666663
836,1778325919950,2.3728287,1.4889218,0.7044583,-0.17687988,-0.9978485000000001,2.963974
837,1778325919960,1.9216895999999997,1.7658042333333333,0.10078369999999999,-0.5092519133333333,-0.9776153666666665,3.197809866666667
838,1778325919970,1.8216256,1.8514680999999997,-0.12228496,-0.9023285,-0.8732147,3.4417572
839,1778325919980,1.8928631555555553,2.1988024,-0.18770590122222222,-2.4804687666666663,-0.20476108444444444,4.027409855555556
840,1778325919990,2.009794,2.5312898,-0.008431997,-3.6437988,0.29858398,4.3562775
841,1778325920000,2.125273433333333,2.7835362333333333,0.65986421,-3.9622413333333335,0.622004211111111,4.456651355555556
842,1778325920010,2.4903022,3.400986766666667,2.240066866666667,-3.3771209333333334,1.2509257333333332,4.484822633333334
843,1778325920020,2.7442846,3.7824483,2.6639948,-2.5764008,1.4266968,4.3605347
844,1778325920030,3.871747444444444,5.015114644444444,2.1699956555555553,0.03823684444444448,1.2205064444444444,2.983032211111111
845,1778325920040,4.202852,5.300634422222222,1.7249705000000002,1.3334249222222223,0.9215240388888889,1.949902022222222
846,1778325920050,4.407371866666667,5.515025133333333,0.5676509666666667,1.8662923000000002,0.37846883166666667,0.13232926666666667
847,1778325920060,4.270658655555556,5.436913566666666,-0.1789611011111111,1.6638929666666664,-0.093688965,-1.7960425555555557
848,1778325920070,4.036323,5.2344675,-0.36451238,1.0897217,-0.046051025,-2.4704742
849,1778325920080,3.7992487333333336,4.8250209,-0.22046399444444445,0.23927646566666663,0.14967346222222222,-2.965579544444444
850,1778325920090,3.4463148,4.1252265,0.10175948,-1.0418854,0.46316528,-3.6182861000000006
851,1778325920100,3.2295667999999997,3.36847936,0.67187788,-1.9299957199999997,0.723834238,-3.7592254600000006
852,1778325920110,3.2150019333333333,2.8719661555555556,1.1328209555555555,-2.3150532777777775,0.8838823333333333,-3.7698008444444446
853,1778325920120,3.3116625777777777,2.3745500111111113,1.6066443444444445,-2.3045755999999997,1.0232493222222223,-3.8105146555555556
854,1778325920130,3.4496228,1.9992585444444444,2.038408377777778,-1.8632592222222222,1.1387176777777777,-3.9631500444444447
855,1778325920140,3.5981188,1.6567109,2.3824754,-1.2538757,1.271698,-4.1914062
856,1778325920150,3.701707711111111,1.4054128333333333,2.4472857666666665,-0.7073872800000001,1.4027201333333332,-4.4286092
857,1778325920160,3.8297288,1.0570607,2.3221931,0.60128784,1.845871,-5.14003
858,1778325920170,3.725638233333333,0.7866051177777778,2.007156188888889,1.2296854888888888,2.1393500444444444,-5.630164244444445
859,1778325920180,3.15891312,0.1918538405,1.29762868,2.13937073,2.6775756700000004,-6.482043389999999
860,1778325920190,2.9458747,0.025798395,1.1492543,2.2955933,2.8099365,-6.6282043
861,1778325920200,2.6371433,-0.19773239833333334,0.9379274333333333,2.452489233333333,3.0110948222222222,-6.684546566666667
862,1778325920210,2.3816697444444443,-0.40352625555555555,0.6740340611111111,2.5940467333333337,3.3280775444444446,-6.675252222222222
863,1778325920220,2.2597498666666667,-0.5376496166666667,0.3746563866666667,2.592744577777778,3.5539075666666666,-6.63169
864,1778325920230,2.158439066666667,-0.6311504099999999,0.17588531622222223,2.525338055555556,3.6740484666666666,-6.576773622222222
865,1778325920240,2.0589721,-0.69758797,0.008651313,2.4271545,3.7175445999999996,-6.5179443
866,1778325920250,1.990377711111111,-0.7114722622222223,-0.15405378822222224,2.2093098666666666,3.632324233333333,-6.3872731
867,1778325920260,1.9636179200000001,-0.716307709,-0.301314078,1.91342772,3.50214541,-6.2387923
868,1778325920270,2.0258747555555554,-0.7233783944444444,-0.3572846422222222,1.4290042666666667,3.363813611111111,-6.21216
869,1778325920280,2.0392980888888887,-0.75802045,-0.29796565333333336,0.9457923222222223,3.2629106111111112,-6.287317944444444
870,1778325920290,2.0268788,-0.77580905,-0.25175756,0.8447113,3.2371063,-6.325668299999999
871,1778325920300,1.7540377875,-0.82539838375,-0.004009124999999999,0.7722702025,3.095561975,-6.308349575
872,1778325920310,1.583426242857143,-0.8401006428571429,0.13669470428571429,0.7794167657142858,2.9908796142857144,-6.226891642857143
873,1778325920320,1.39327,-0.844144992857143,0.2745348714285714,1.0282352885714285,2.8186100714285716,-5.9621756
874,1778325920330,1.2348578555555556,-0.8353045277777777,0.3536810588888889,1.4343923,2.530010611111111,-5.577189111111111
875,1778325920340,1.1914703,-0.82413167,0.36290097,1.6015778,2.402481,-5.4319
876,1778325920350,1.0982666888888888,-0.7929604888888888,0.2203442277777778,2.051303433333333,2.107628688888889,-4.920105055555556
877,1778325920360,1.0772234555555553,-0.7860592177777778,0.1190335817777778,2.140311366666667,2.0324095888888887,-4.757951555555556
878,1778325920370,1.0213080777777777,-0.7399057333333334,-0.15658896666666666,1.9937727444444444,2.0305175888888893,-4.456831111111111
879,1778325920380,0.9946785766666666,-0.7108086,-0.39026048,1.6766815333333334,2.152313266666667,-4.268641
880,1778325920390,0.8636735477777777,-0.7355122977777778,-0.6115929444444445,1.413559,2.2645264,-4.204727
881,1778325920400,0.660864522,-0.7956756620000001,-0.7600802200000001,0.6925842452000001,2.56737672,-3.93297722
882,1778325920410,0.5373278044444445,-0.8120933333333333,-0.79097536,-0.04361301066666667,2.857337111111111,-3.6117265555555553
883,1778325920420,0.33101875555555554,-0.7825345777777778,-0.6901529777777777,-0.7161458444444444,2.9799702666666668,-3.0637054444444445
884,1778325920430,0.23000640000000003,-0.7659243,-0.6022244,-0.9880829,2.9841156,-2.7639465
885,1778325920440,-0.021128815000000002,-0.8138953777777778,-0.42661163333333335,-0.7672237711111111,2.7168426666666665,-2.384484188888889
886,1778325920450,-0.24631251333333332,-0.8581785333333333,-0.4082796533333333,-0.4002329486666667,2.3371378666666667,-2.0635427
887,1778325920460,-0.3632976,-0.8947872000000001,-0.48873696,-0.058639526,1.9401549999999999,-1.7844390999999997
888,1778325920470,-0.3747006422222222,-0.8893500611111111,-0.6856242466666667,0.193293258,1.5170644,-1.4609578333333333
889,1778325920480,-0.2991515733333333,-0.8170549666666668,-0.9549279666666668,0.29058838333333337,1.3737844,-1.1046295
890,1778325920490,-0.15194393,-0.8284651000000001,-1.2962612999999998,-0.164634705,2.1084595,-1.18922425
891,1778325920500,-0.23306611333333332,-0.9391242444444445,-1.5622093888888888,-0.5513288711111111,2.626771711111111,-1.3727739111111112
892,1778325920510,-0.4508876177777778,-1.0102396444444444,-1.6711948555555556,-0.6780293755555555,2.7477942111111116,-1.4545067666666667
893,1778325920520,-0.9260254222222222,-0.9995422555555555,-1.7862273888888889,-0.40982732222222223,2.0286237666666667,-1.4682328555555555
894,1778325920530,-1.2030032888888889,-1.0289644222222223,-1.9275095333333334,-0.019404089999999995,1.2234039133333334,-1.3109334000000001
895,1778325920540,-1.3944796,-1.0783592333333332,-2.1052508,0.2568579833333333,0.5799848777777777,-1.0240241111111112
896,1778325920550,-1.608762488888889,-1.0620345222222223,-2.2988150222222226,0.28609721555555556,0.29194472111111114,-0.7704942444444445
897,1778325920560,-1.7383167,-1.0387813,-2.4202056,0.22685242000000003,0.045043945,-0.5231781
898,1778325920570,-1.90420196,-1.04310074,-2.47236082,-0.0074539134000000005,-0.18713530550000002,-0.11570891799999998
899,1778325920580,-2.1377158,-1.0498855,-2.4720683,-0.3904724,-0.5051727,0.5367737
900,1778325920590,-2.160602822222222,-1.0640952555555556,-2.2866668555555556,-0.64980909,-0.561275901111111,1.1496565166666666
901,1778325920600,-2.0708447,-1.084175,-1.9862726999999998,-0.9955444300000001,-0.60317993,2.1389313
902,1778325920610,-2.0171243666666667,-1.094046788888889,-1.9050286777777776,-1.046920751111111,-0.6002722622222222,2.393297066666667
903,1778325920620,-1.8430977888888889,-1.1206763,-1.824449011111111,-1.1365203666666668,-0.7349700777777778,2.8769294444444444
904,1778325920630,-1.0553219,-1.2317759333333334,-1.5860326111111112,-1.3987427,-1.2093201,4.315277
905,1778325920640,-0.7120954666666667,-1.27629,-1.4991347,-1.6343400333333333,-1.6995663444444444,4.774273355555556
906,1778325920650,-0.32286518000000003,-1.3535747999999999,-1.3354530333333332,-1.8916066333333335,-2.3091939000000004,5.137115466666667
907,1778325920660,-0.15194394,-1.3947388,-1.2233489,-1.9857025,-2.6383667,5.2766724
908,1778325920670,0.2607301577777778,-1.5034255111111112,-0.85232786,-1.8957502333333334,-3.5774536333333335,5.551513822222223
909,1778325920680,0.45429504,-1.5566702,-0.6777593,-1.7833099,-4.061554,5.681473
910,1778325920690,0.7726943933333333,-1.6677031555555555,-0.46662271999999994,-1.3733554277777777,-4.754567433333333,5.875825722222222
911,1778325920700,1.0085484555555555,-1.7542760777777777,-0.32246595999999994,-0.9732259155555556,-5.2680240000000005,6.046444444444444
912,1778325920710,1.0583361,-1.7897454999999998,-0.31020916,-0.81604004,-5.4389496,6.141144
913,1778325920720,1.0583361,-1.7897454999999998,-0.31020916,-0.81604004,-5.4389496,6.141144
914,1778325920730,1.7718377,-1.9023774,-0.23638213000000002,-0.14887389899999998,-5.96726079,6.76373141
915,1778325920740,1.9975637666666666,-1.9081262888888888,-0.19797021222222222,-0.11172993666666667,-5.912277333333333,6.778696666666667
916,1778325920750,2.2927104333333332,-1.9037064666666668,-0.13879984555555558,0.10251363222222222,-5.681944222222222,6.889007533333333
917,1778325920760,2.313279333333333,-1.8916530333333332,-0.11698301088888889,0.08156839666666665,-5.092020577777777,6.802897044444444
918,1778325920770,2.201636488888889,-1.9267556555555554,-0.11966855066666666,0.05180189111111111,-4.721550711111111,7.008787366666667
919,1778325920780,2.172458,-1.9489920999999997,-0.12948506,0.04257202,-4.668762,7.1280975
920,1778325920790,2.4017909,-1.9334958333333334,-0.2181592,-0.14014180533333334,-4.366043233333333,7.644221
921,1778325920800,2.671527966666667,-1.8830300333333332,-0.2978840844444444,-0.3798760311111111,-4.036058188888889,7.977466111111111
922,1778325920810,2.847032111111111,-1.8528616333333332,-0.2836487711111111,-0.6289164244444445,-3.7845916444444447,8.130638666666666
923,1778325920820,3.2377817333333336,-1.7316061777777776,-0.06722317555555554,-1.4873454,-2.827626566666667,8.567098
924,1778325920830,3.4902449,-1.6058483,0.16008973,-1.6815796,-2.5584717,8.602966
925,1778325920840,4.12913882,-1.26613229,0.707083086,-1.33238528,-2.45130622,7.912664680000001
926,1778325920850,4.5875278,-0.9691025999999999,1.1887903,-0.8938141,-2.433838,7.258590700000001
927,1778325920860,4.503246377777778,-0.5500560755555556,1.3533933444444444,0.2376183311111111,-2.4471486666666666,6.029639366666667
928,1778325920870,4.0133554,-0.042551951111111104,1.316649711111111,1.9330546,-2.467748,4.3330281333333325
929,1778325920880,3.6396084,0.10096776,1.1570641,2.6503296,-2.4428864,3.7549438000000004
930,1778325920890,2.9766536111111113,0.4042756288888889,0.7732972244444444,2.8864644444444445,-1.7067277555555558,3.590886444444445
931,1778325920900,2.6707,0.52867734,0.57425463,2.783493,-1.1054382,3.6947479999999997
932,1778325920910,2.634119777777778,0.6707323644444445,0.2774536472222222,2.1771799444444446,0.0921495111111111,4.1487376000000005
933,1778325920920,2.6835956666666667,0.8093431333333334,-0.039753220000000006,1.5614522333333334,1.0091044,4.568628933333333
934,1778325920930,2.7821126,0.913555,-0.28568155,1.0700073,1.4906006,4.8686676
935,1778325920940,2.9878801444444445,1.1692867333333334,-0.6545339444444443,0.2553795666666667,1.8096533888888888,5.148071288888889
936,1778325920950,3.2014027,1.487945,-1.006139,-0.5507965,2.0429535,5.3539124
937,1778325920960,3.6511605999999994,1.8017202666666665,-1.0890373000000002,-1.8939158,1.909256,5.217198733333333
938,1778325920970,4.017409,2.0234056,-1.0159009,-2.7340546,1.7601166,4.902237
939,1778325920980,3.98687732,2.29179598,-0.43694777500000004,-3.4032043199999995,1.5987838799999998,4.3140442
940,1778325920990,3.8670695999999998,2.5677357333333335,0.25152995666666667,-3.8269602,1.2964342,3.791573422222222
941,1778325921000,3.718790955555556,2.724773177777778,0.6871715722222222,-3.7323252333333334,1.0787065777777778,3.7160594
942,1778325921010,4.239514366666667,3.2485875444444443,1.3356454,-3.162472211111111,1.0710754555555555,3.6958753777777775
943,1778325921020,5.027277033333333,3.762626611111111,1.8558675777777778,-2.4930114999999997,1.3004591,3.253906222222222
944,1778325921030,5.749360566666667,4.1955158,2.2149710000000002,-1.5548045,1.6108042333333334,2.0469665
945,1778325921040,6.2921443,4.5696554,2.4842474,-0.48741150000000005,1.7894135,0.5634155
946,1778325921050,6.2921443,4.5696554,2.4842474,-0.48741150000000005,1.7894135,0.5634155
947,1778325921060,6.136381533333333,4.3028064,2.349554866666667,2.639378877777778,0.8778466088888889,-2.6671295555555554
948,1778325921070,5.563633266666667,3.651553,1.31317919,5.0413733333333335,0.0005408377777777751,-5.3898315777777785
949,1778325921080,4.9520746,3.00629804,0.117232606,5.037695380000001,-0.20125732200000002,-6.592511
950,1778325921090,4.482256666666667,2.559031,-0.5495890933333334,4.064295533333333,-0.04852803666666667,-6.8387654
951,1778325921100,4.072566,2.1940022,-1.021026,2.8729706,0.19364929,-6.832733
952,1778325921110,3.9951186,1.9985393333333334,-1.0209717777777778,1.8125593466666667,0.5425804944444444,-6.657199377777777
953,1778325921120,3.8962342333333333,1.5339353777777776,-0.7771585244444444,-0.5642903577777778,1.4908972666666667,-6.320512588888889
954,1778325921130,3.845199433333333,1.0010776,0.36269807111111113,-1.9602593000000001,2.5322519777777774,-6.4031338333333325
955,1778325921140,3.8510029666666665,0.7158294933333333,1.0593187066666667,-1.7268422,2.6536967,-6.639206
956,1778325921150,3.8657277,0.43996328,1.637002,-1.118576,2.6853027,-6.972275
957,1778325921160,3.7609048111111107,-0.06465274777777777,1.8993368444444445,0.697638611111111,2.526696055555556,-7.679143222222223
958,1778325921170,3.6227437799999995,-0.47782748799999997,1.79583439,2.2796645599999996,2.2667068200000005,-8.278188850000001
959,1778325921180,3.525186555555555,-0.7796193666666666,1.44434652,3.1291706444444447,1.9348297555555556,-8.705878277777778
960,1778325921190,3.2371438222222224,-1.3868071444444443,0.6855729266666667,4.255098133333334,1.315258472222222,-9.434883555555555
961,1778325921200,2.8966982,-1.7267784,0.19108483,4.523056,0.83280945,-9.841568
962,1778325921210,2.5390729555555556,-1.8476953111111112,-0.09505936777777776,4.213896022222222,0.5666113988888889,-9.863228666666666
963,1778325921220,1.9746490000000003,-1.9611960999999998,-0.4307738,3.6058655,0.29537964,-9.753677
964,1778325921230,1.694891788888889,-1.8475869999999999,-0.47166731333333334,2.993047111111111,0.3280504022222222,-9.402855666666666
965,1778325921240,1.3548665555555557,-1.5930897222222222,-0.45478602888888886,1.6670888333333334,0.5077853711111111,-8.500344333333333
966,1778325921250,1.3206987,-1.5249441,-0.40941927,1.1983795,0.60058594,-8.116379
967,1778325921260,1.3206987,-1.5249441,-0.40941927,1.1983795,0.60058594,-8.116379
968,1778325921270,1.31407221,-1.332431,-0.23267195000000002,0.0770294225,0.9648437299999999,-7.05537417
969,1778325921280,1.5428309666666664,-1.0010330333333333,0.06852664000000001,-0.9296163111111111,1.432732488888889,-6.018281777777777
970,1778325921290,1.6332542555555554,-0.9469475444444444,0.17168185444444445,-1.1471625666666665,1.6456078222222221,-5.8293116666666664
971,1778325921300,1.6980787888888889,-0.9011333111111112,0.30690384555555555,-1.1613667666666665,1.8549245,-5.7880605
972,1778325921310,1.655991588888889,-0.8520228,0.4050685611111111,-1.0161404444444446,1.9416927444444445,-5.817649055555555
973,1778325921320,1.5272927,-0.8680633,0.40658683,-0.80859375,1.9284363000000002,-5.806885
974,1778325921330,1.28881278,-0.82069106,0.391480307,-0.47718353,1.67942504,-5.4529999
975,1778325921340,1.1297647333333334,-0.76893458,0.3747377933333333,-0.23334248999999996,1.5974884,-4.987162333333334
976,1778325921350,1.0073425666666667,-0.744705128888889,0.2589189522222222,-0.18925306333333333,2.050403222222222,-4.327290888888889
977,1778325921360,0.9164485225,-0.7151908,0.12967365,-0.27349281125,2.4012089125,-4.0497265
978,1778325921370,0.81769687,-0.6307168,-0.04980027,-0.5731659,3.1716003,-3.535202
979,1778325921380,0.7234295275,-0.6282312175,-0.27770372625,-1.0514678750000002,3.9737434125,-2.9830626875
980,1778325921390,0.5280821566666666,-0.6670008900000001,-0.42837428000000005,-1.4644317333333337,4.478144333333334,-2.467631
981,1778325921400,0.336781365,-0.632120565,-0.402401935,-1.51146505,4.398448875,-2.0935688625
982,1778325921410,0.31083028333333335,-0.6303097833333333,-0.33754379333333334,-1.1693623999999998,3.8574421,-1.8590189333333333
983,1778325921420,0.35679433,-0.64828855,-0.29361424,-0.7414856,3.2861023,-1.7833862
984,1778325921430,0.5390645,-0.76161316,-0.41722857999999996,0.5421702,2.1050872666666667,-2.199722333333333
985,1778325921440,0.5448137222222222,-0.9091870444444444,-0.7126465999999999,1.3613569222222222,1.3637882222222222,-2.753189088888889
986,1778325921450,0.050062828000000004,-1.1358188,-1.26691368,1.9494873,0.644149796,-3.4964355600000006
987,1778325921460,-0.37697882666666666,-1.2604126222222223,-1.6078752,2.0073785111111113,0.44073486222222225,-3.770517988888889
988,1778325921470,-0.66605,-1.321156,-1.7788248,1.9003906,0.44451904000000003,-3.7951354999999998
989,1778325921480,-1.6810979555555556,-1.6100922,-2.2685385777777776,0.87352328,1.10214062,-3.0215741666666664
990,1778325921490,-2.2095907,-1.7408116,-2.5213678,0.12724304,1.5673065,-2.2670135
991,1778325921500,-2.3961185222222223,-1.756878733333333,-2.562017366666667,-0.32513597111111114,1.5438723888888888,-1.4594234822222223
992,1778325921510,-2.477444411111111,-1.7205546444444444,-2.4518529222222223,-0.8445739755555556,1.2453596555555555,-0.243003
993,1778325921520,-2.4481303000000003,-1.6491955555555555,-2.3084692888888885,-0.9422726200000001,0.9076673844444445,0.3717770044444444
994,1778325921530,-2.26357598,-1.53061714,-2.1354764299999998,-0.972476218,0.3149795533,1.26588896
995,1778325921540,-2.0583966,-1.4251242,-2.0354493,-0.9385528600000002,-0.022064209,1.6808624
996,1778325921550,-1.9852202333333335,-1.3641097666666666,-1.9320913333333332,-0.8122592488888889,-0.3628946961111111,1.9051072666666669
997,1778325921560,-1.8186106,-1.2290645333333332,-1.6881975,-0.50782775,-1.1001230933333332,2.3681488
998,1778325921570,-1.6591056,-1.1805243333333335,-1.4991344111111111,-0.10586717,-1.762714,2.768091866666667
999,1778325921580,-1.4466679999999998,-1.1436039333333334,-1.3125523666666667,0.32947285333333337,-2.3986766,3.1795196666666663
1000,1778325921590,-1.3192708,-1.1260318,-1.2261565,0.5485687,-2.6745758,3.3868865999999995
