id,timestamp,acc_x,acc_y,acc_z,gyro_x,gyro_y,gyro_z
0,1778325819710,0.8697416250000001,-0.154256865,0.5429539,0.158462525,0.014877320999999994,-0.27281189
1,1778325819720,0.85223055,-0.15749061,0.5344729,0.20266724,-0.049041748,-0.29571533
2,1778325819730,0.8308445375,-0.18473263625,0.479956965,0.225040435,-0.208166121,-0.26109695374999997
3,1778325819740,0.8342000075,-0.1823530175,0.4726966,0.2089271525,-0.2778091425,-0.227809905
4,1778325819750,0.8704431125,-0.17375070875,0.50019915625,0.11165237165,-0.18772125,-0.1932544725
5,1778325819760,0.9213803833333335,-0.1672658111111111,0.5520599988888889,-0.013765123244444446,0.0038706466666666686,-0.16764661888888888
6,1778325819770,0.9421655999999999,-0.16432361,0.59182787,-0.083358765,0.16294861,-0.1631012
7,1778325819780,0.9239150444444445,-0.16192393555555556,0.6802840944444445,-0.16988118666666666,0.8351966244444445,-0.19724358777777778
8,1778325819790,0.89700073,-0.16878426222222223,0.7007710355555555,-0.18757629666666664,1.1416999333333335,-0.21174282888888887
9,1778325819800,0.8011003966666667,-0.20125787333333334,0.6368156833333333,-0.09052361111111112,1.1255934177777778,-0.14190504222222222
10,1778325819810,0.6474258055555556,-0.2285104288888889,0.52636581,0.060282391388888884,0.8115793888888888,0.02362569111111111
11,1778325819820,0.602072,-0.22667934,0.48175776000000003,0.13929749,0.58106995,0.13252258
12,1778325819830,0.6031088575,-0.1954717275,0.39093762375,0.2510032625,-0.07953262075,0.35063553000000003
13,1778325819840,0.62281674,-0.18275082,0.35741028,0.3027954,-0.47727966,0.46861267
14,1778325819850,0.6949495822222223,-0.18033661555555558,0.36014854,0.26321411,-0.806618591111111,0.4816911488888889
15,1778325819860,0.78267473,-0.18287215,0.4002422,0.18190002,-1.0977936,0.4595642
16,1778325819870,0.8202458666666667,-0.18418718444444446,0.4411355777777778,0.13491313,-1.0946570555555555,0.43008592
17,1778325819880,0.9290274,-0.20072903,0.5934538333333335,0.013636271555555555,-0.7983907088888889,0.3136783166666667
18,1778325819890,0.9593718,-0.20886497,0.6479603,-0.021575928,-0.55397034,0.24864197
19,1778325819900,0.9665036466666668,-0.21965690333333335,0.6828737111111112,-0.008495754333333334,0.02262878166666666,0.1622348388888889
20,1778325819910,0.95026045,-0.2164846911111111,0.6810435,0.04637146044444444,0.44578043,0.13116455444444447
21,1778325819920,0.9196723522222222,-0.19357006,0.6197300777777778,0.12828064,0.6414320211111111,0.09908040333333333
22,1778325819930,0.8852328433333334,-0.17991629777777776,0.5709187611111111,0.18444654666666666,0.6383039666666667,0.06931728711111111
23,1778325819940,0.87395215,-0.177747,0.56083125,0.1962738,0.6231537,0.066482544
24,1778325819950,0.8144689555555555,-0.1560798288888889,0.4511551455555555,0.2932129,0.18307495666666665,0.003977457888888888
25,1778325819960,0.8219265666666666,-0.15029051666666668,0.43148152333333334,0.2736867333333333,-0.006601968666666668,-0.031000772666666662
26,1778325819970,0.8302652666666667,-0.15911707666666666,0.44059270666666667,0.20906575666666666,-0.16621907333333333,-0.08621724333333333
27,1778325819980,0.8194992444444443,-0.18458053444444444,0.48408914444444445,0.12881469888888888,-0.23238796444444443,-0.13012864999999998
28,1778325819990,0.8124488,-0.19983414,0.50897,0.092422485,-0.23120116999999998,-0.1401825
29,1778325820000,0.7942257333333332,-0.22198936444444445,0.5478288666666666,0.04476928733333333,-0.16906399444444445,-0.11965094555555557
30,1778325820010,0.7817249222222222,-0.23359582555555555,0.5710818777777777,0.023162842,-0.11668396,-0.09013367
31,1778325820020,0.7762062333333334,-0.23571121333333334,0.5762077333333333,0.03239949566666667,-0.02240499,-0.020517986666666668
32,1778325820030,0.7892635766666667,-0.22716930333333332,0.5667709433333334,0.05796813966666666,0.070800782,0.06452433166666666
33,1778325820040,0.80317533,-0.21594219,0.55473083,0.078567505,0.093170166,0.096832275
34,1778325820050,0.8095204722222222,-0.20585434555555557,0.5398156166666667,0.09205966588888888,0.06275431315555555,0.098727755
35,1778325820060,0.8205029,-0.18714336,0.5094569,0.11798096,-0.0053710938,0.09524536
36,1778325820070,0.82294333,-0.1782354,0.50311226,0.1328888,-0.07194519,0.08831787
37,1778325820080,0.8406379,-0.16603148,0.48126933000000005,0.12863159,-0.17687988,0.06062317
38,1778325820090,0.87637670625,-0.15459204999999998,0.47773073250000003,0.08422470125,-0.22753524749999998,0.023273468525
39,1778325820100,0.8959159000000001,-0.14740311,0.48704516666666664,0.03565639933333334,-0.20404053333333336,-0.015674167177777778
40,1778325820110,0.9027493999999999,-0.14455563,0.49030018,-0.011993408000000002,-0.1592865,-0.045913696
41,1778325820120,0.90971898,-0.1381555511111111,0.49359423111111117,-0.06945800844444444,-0.06093173555555556,-0.06277296244444444
42,1778325820130,0.9235358822222223,-0.12503081377777778,0.49362051,-0.13467577,0.0654246011111111,-0.07159084711111112
43,1778325820140,0.95119494,-0.097696684,0.4879794700000001,-0.15798611222222225,0.13396029555555555,-0.08012729244444444
44,1778325820150,0.9934575866666666,-0.05918989222222223,0.46941832777777776,-0.15964423444444445,0.13039991333333334,-0.11658562888888888
45,1778325820160,1.0410087,-0.022038916,0.44929743,-0.14888,0.09477234,-0.15138245
46,1778325820170,1.1188765333333333,0.03428500522222222,0.4336641288888889,-0.11046685222222223,-0.0886400011111111,-0.2971988288888889
47,1778325820180,1.181653088888889,0.0885744211111111,0.43077552555555554,-0.0619405131111111,-0.2931722044444445,-0.4743804944444444
48,1778325820190,1.2167431,0.15531126666666667,0.43873518222222224,-0.009857178,-0.4437256,-0.63819885
49,1778325820200,1.2112388,0.24056778666666664,0.43786759999999997,0.06684366666666668,-0.7279713999999999,-1.0080312
50,1778325820210,1.194155,0.25618744,0.4372164,0.07003784,-0.785141,-1.1372833
51,1778325820220,1.189219088888889,0.2545608,0.42512273777777776,-0.045013425777777775,-0.6466590000000001,-1.2352854333333334
52,1778325820230,1.1946021,0.2622351288888889,0.42013360222222224,-0.14496696888888888,-0.5061001333333333,-1.275053188888889
53,1778325820240,1.2020861,0.2832784,0.42110834,-0.22450256000000002,-0.3744812,-1.2949371
54,1778325820250,1.2244174555555556,0.39458148111111113,0.43613243777777777,-0.4051886622222222,0.06761508444444445,-1.4518907333333333
55,1778325820260,1.230031,0.45936576000000007,0.4346546,-0.47537229999999997,0.26734924,-1.579361
56,1778325820270,1.1977073999999999,0.5653670577777778,0.44141969444444445,-0.5072140122222222,0.31943257333333336,-1.8618316444444447
57,1778325820280,1.1463601666666667,0.6597764333333332,0.4616221733333334,-0.5108269544444445,0.2898406955555555,-2.107967777777778
58,1778325820290,1.06107004,0.74630348,0.49652254000000007,-0.43415222,0.050030518,-2.3456085399999997
59,1778325820300,0.9691342344444445,0.8052489277777778,0.55805205,-0.2980753588888889,-0.2988450777777778,-2.5811886444444445
60,1778325820310,0.93191534,0.8120289,0.5974399,-0.22824097,-0.4453125,-2.6483612
61,1778325820320,0.9633170822222223,0.83827834,0.7231568466666667,0.01872931444444444,-0.7493303166666667,-2.7654198333333335
62,1778325820330,0.9829226,0.85547054,0.80110663,0.123306274,-0.85224915,-2.8171997
63,1778325820340,1.030947411111111,0.8842151044444444,0.9186202022222223,0.4024149666666667,-0.9923350000000001,-2.9556834
64,1778325820350,1.146265311111111,0.9409850877777779,1.0987209,0.7359585422222222,-1.1182742666666665,-3.1076575777777773
65,1778325820360,1.3844380666666667,1.0017960666666665,1.2421989888888887,1.0938262888888888,-1.188162922222222,-3.251590311111111
66,1778325820370,1.62675828,1.0500331,1.3234860099999999,1.3141723600000002,-1.1777923399999999,-3.4091675
67,1778325820380,1.8656785000000002,1.1045309,1.3897723,1.421875,-1.1515808,-3.5341187
68,1778325820390,2.309319388888889,1.1566510333333335,1.5054550111111111,1.5602332111111112,-0.8815460444444445,-4.016866055555556
69,1778325820400,2.5815514666666664,1.136597388888889,1.6046507666666667,1.631664677777778,-0.6887325744444444,-4.428944944444445
70,1778325820410,2.6641932666666666,1.0721116333333334,1.8392844333333334,1.861048388888889,-0.5735015888888889,-4.931576222222223
71,1778325820420,2.6741584555555553,1.083935,1.9963222333333333,2.0929768888888893,-0.4994693333333334,-5.061716711111111
72,1778325820430,2.8150613,1.1427262,2.2106593,2.715088,-0.276474,-5.2151184
73,1778325820440,2.9142431222222225,1.1998350777777778,2.1885579111111113,3.383014288888889,-0.1417761888888889,-5.3566776
74,1778325820450,3.1614590666666667,1.3925585666666667,1.9901121333333331,4.071770566666667,-0.10880872777777778,-5.487696266666666
75,1778325820460,3.4917775555555557,1.6112606111111112,1.6544249555555557,4.365136022222222,-0.3511573,-5.627246411111112
76,1778325820470,3.8302981000000003,1.7588478666666667,1.3500310666666666,4.139353466666667,-1.0578460666666667,-6.0124664333333335
77,1778325820480,4.0037413,1.844268,1.2676212,3.7888794,-1.456253,-6.2990265
78,1778325820490,4.353207490000001,1.8402409800000001,1.3890158400000001,2.89847716,-0.9778396380000001,-6.84257202
79,1778325820500,4.6185226,1.6751366,1.5114352,2.2825928,-0.38406372,-7.2231293
80,1778325820510,4.5679198,1.3400866,1.7659452333333334,1.9686991333333335,0.7152913533333334,-7.585322133333333
81,1778325820520,4.336201533333334,1.0257813411111112,1.9222640555555555,1.9296468555555555,1.9952664111111114,-7.997633244444444
82,1778325820530,3.8309498,0.80873287,1.7657421,2.4466553,2.2301025,-8.185608
83,1778325820540,3.241307011111111,0.7238688488888889,1.2978712000000001,2.7850478,1.3019595777777777,-7.9496461555555555
84,1778325820550,2.9702811,0.6881682,1.0297878,2.9116364,0.501709,-7.7046356
85,1778325820560,3.0007888333333335,0.5233494799999999,0.9379820666666667,2.6543782333333334,-0.11685689333333332,-7.512354533333333
86,1778325820570,3.0321629333333338,0.37905689777777773,0.9130197933333333,2.3933885555555556,-0.4450904011111112,-7.469440044444444
87,1778325820580,3.0293424,0.35844776,0.9307005399999999,2.3422546,-0.44319153,-7.4841156
88,1778325820590,2.803400977777778,-0.24638093333333336,1.0287570377777777,2.185306111111111,0.68481275,-8.062918755555556
89,1778325820600,2.6123180777777777,-0.5675598333333334,0.9655326833333332,2.275678833333333,1.2275136222222223,-8.39001288888889
90,1778325820610,1.76616435,-1.0572675999999999,0.605920885,2.586998,1.49266815,-8.598930249999999
91,1778325820620,0.7691564666666667,-1.4230896666666668,0.16076686722222222,2.794691311111111,1.1213989055555555,-8.311423555555555
92,1778325820630,0.21332906000000001,-1.4657593333333334,-0.11073328333333333,2.6920115333333334,0.68280538,-7.767659666666666
93,1778325820640,-0.22705936666666668,-1.3294941333333332,-0.3178836511111111,2.2348378666666666,0.3958841933333333,-6.8710632
94,1778325820650,-0.36966984444444445,-1.1918865555555556,-0.37640262888888887,1.7830454555555555,0.4297976988888889,-6.2113122
95,1778325820660,-0.37619212333333335,-1.0751457333333334,-0.30886682000000004,0.9741058566666667,0.7976735333333332,-5.080174666666667
96,1778325820670,-0.4315655011111111,-0.9905661555555556,-0.19049981444444442,0.3835873093333333,1.2215864,-4.1779004111111115
97,1778325820680,-0.5482524400000001,-0.9126026,-0.10442807999999999,0.008967082666666662,1.5975087,-3.151163733333333
98,1778325820690,-0.5026549499999999,-0.8042822833333333,-0.09141118533333333,-0.19840324888888888,1.7826249666666665,-2.4757894
99,1778325820700,-0.37940565,-0.73358685,-0.081649296,-0.36991882,1.9035950000000001,-2.009735
100,1778325820710,-0.2630441233333333,-0.7088152333333333,-0.017421704488888887,-0.3809237977777778,1.8770226555555556,-1.8269805333333333
101,1778325820720,-0.04236219,-0.6346225,0.17619778,-0.2980194,1.7512665,-1.5900116
102,1778325820730,0.10530655333333333,-0.5701636666666666,0.27312868333333334,0.0033365833333333216,1.4675411444444444,-1.7034064222222223
103,1778325820740,0.49060574111111105,-0.4546301611111111,0.4736351111111111,0.9253387222222221,0.6150360188888889,-2.2278764444444445
104,1778325820750,0.73422927,-0.41265145,0.62050384,1.6072235,0.062820435,-2.7303772
105,1778325820760,0.6744080166666667,-0.4858691055555555,0.5386905244444445,2.2884029444444445,-0.41063605500000006,-3.2221781333333332
106,1778325820770,0.44582600799999994,-0.58484634,0.26934203500000004,3.1369949,-1.05795134,-3.83766477
107,1778325820780,0.21178295333333333,-0.5941491333333333,-0.016892513333333328,3.0959319333333335,-1.2053833333333333,-3.8151702666666663
108,1778325820790,-0.048300829999999996,-0.5841021,-0.28848806,2.7122599333333333,-1.3049927000000001,-3.4391325999999998
109,1778325820800,-0.11289480999999998,-0.5140579,-0.3575565,2.3987122,-1.3401489,-3.0435638
110,1778325820810,-0.05122988133333333,-0.4710767866666667,-0.2819255177777778,2.0869446,-1.4148915666666666,-2.407780933333333
111,1778325820820,0.042082213,-0.4985595299999999,-0.15974754,1.8021698,-1.4956665,-1.6725769
112,1778325820830,0.15300647222222225,-0.532619678888889,-0.08339881133333332,1.764882388888889,-1.4482659222222223,-1.175275988888889
113,1778325820840,0.2986412388888889,-0.6415377766666667,-0.037271608,1.8951416333333333,-1.3984358222222224,-0.6393805566666666
114,1778325820850,0.3628963,-0.71015894,-0.10703239,2.0248108,-1.3284149,-0.46455383000000006
115,1778325820860,0.47301985555555554,-0.7946837244444445,-0.22695931,2.077365466666667,-1.1512298555555556,-0.5474124522222222
116,1778325820870,0.60353565,-0.9723970000000001,-0.46335541999999996,2.1739502,-0.8192291,-0.8118439
117,1778325820880,0.5191192188888888,-1.1321467777777778,-0.6612855133333333,2.1230502444444443,-0.797799,-1.1869320777777779
118,1778325820890,0.27710956,-1.4148723,-0.9257215999999999,1.9672851999999998,-0.8346709999999999,-1.6816254000000002
119,1778325820900,0.14022046666666668,-1.4916691000000002,-0.9970944888888889,1.8356662666666668,-0.8247290444444445,-1.7886268222222224
120,1778325820910,-0.42515230444444446,-1.6958906666666667,-1.0010544444444445,1.0347612,-0.5274675133333333,-1.6722717444444446
121,1778325820920,-0.9151517666666665,-1.9315016666666667,-0.8574668,0.6422644555555554,-0.37820943555555553,-1.4472045777777778
122,1778325820930,-1.1574192777777776,-2.051658777777778,-0.6931357666666667,0.6042735,-0.37590027000000004,-0.7552032788333334
123,1778325820940,-1.3755245,-2.1385028,-0.48470994999999995,0.6873627,-0.40538025,0.0057525635
124,1778325820950,-1.2224197333333333,-2.2196118,-0.48951053666666666,1.0160014,-0.46822612,0.8267161000000001
125,1778325820960,-1.0523114222222223,-2.258850511111111,-0.6730145544444444,1.2927958333333334,-0.5230221288888889,1.5083685555555555
126,1778325820970,-0.9811292,-2.1837752,-0.9152271,1.2743225,-0.49272155999999995,1.9392089999999997
127,1778325820980,-0.8918313333333333,-2.041110511111111,-1.1282348555555555,1.2085130400000001,-0.48751322666666663,2.0093994444444445
128,1778325820990,-0.6532379,-1.7563099,-1.451299,0.97817993,-0.46928405999999995,2.255066
129,1778325821000,-0.5990298844444445,-1.6525037666666664,-1.465807011111111,-0.1882849755555556,-0.29884169111111114,2.240860033333333
130,1778325821010,-0.566817806,-1.24596142,-1.3385445,-2.0840301400000003,0.10958862200000001,1.96456604
131,1778325821020,-0.5809158266666666,-1.1934991,-1.2317965888888889,-2.2655487,0.20077515,1.9019318000000003
132,1778325821030,-0.7576130999999999,-1.0714437666666667,-0.5880689066666667,-3.9161834666666664,1.7578379333333334,0.8892161
133,1778325821040,-1.0674442333333334,-1.0513087333333333,-0.20526414116666666,-4.158528666666666,2.4923401333333333,0.47979735333333334
134,1778325821050,-1.4394683666666666,-1.0118536666666667,0.060392241000000006,-3.833628311111111,2.7611355555555557,0.4639383977777778
135,1778325821060,-1.8652254333333333,-0.9107728666666666,0.26987472,-3.2763163333333334,2.6166127666666665,0.8285013800000001
136,1778325821070,-2.0724297,-0.8290142,0.42965078,-2.7102966,2.3542023,1.28302
137,1778325821080,-2.2220382,-0.8529721377777778,0.3692334811111111,-1.1211615733333333,0.8372565133333333,2.6941884666666667
138,1778325821090,-2.0355789,-0.8271020233333334,0.22297533666666666,-0.18425835777777777,-0.29790582111111114,3.6858334
139,1778325821100,-1.4631016,-0.7920794,0.27361761333333334,0.5978834388888888,-1.233195,4.641379466666667
140,1778325821110,-0.9246836066666666,-0.7669408111111111,0.41503541111111114,0.9915008666666666,-1.4051208666666666,4.986404433333334
141,1778325821120,-0.49691853,-0.7042996,0.5389883,1.2194672,-1.3039246,5.0876007
142,1778325821130,-0.13041475714285716,-0.7013372,0.6456065085714285,1.3241686000000001,-0.43892561428571425,4.933438985714285
143,1778325821140,0.040739875,-0.7837418,0.70104253,1.3558197,0.36428833,4.7685547
144,1778325821150,-0.4911307957142857,-1.4190397285714285,0.4319170428571429,1.3119898857142858,1.7110879142857143,5.4875335
145,1778325821160,-0.8836134933333333,-1.7807558666666665,0.21002619777777778,1.2884690666666667,2.2047136333333333,6.107769333333334
146,1778325821170,-1.2583772,-2.210622,-0.13631806,1.2610168,2.1379547,6.8293
147,1778325821180,-0.7096010444444444,-2.590388511111111,-0.5014552177777778,0.7282612866666667,1.1674957177777778,9.070266666666667
148,1778325821190,0.58254665,-3.0587213,-0.66360486,-0.33103943,-0.3025818,12.660034
149,1778325821200,2.28598535,-3.158947133333333,0.15134353733333336,-0.8975236466666667,0.1862046822222222,13.132775
150,1778325821210,4.5426204,-3.06616376,1.22022524,-1.55523983,1.2188461,13.374882300000001
151,1778325821220,5.42025,-2.7449844,1.4377294,-1.490036,2.2801666,12.205704
152,1778325821230,5.4097555,-2.6855022777777773,1.4092831444444445,-1.4783189444444444,2.330885122222222,12.018631222222222
153,1778325821240,5.3257995,-2.2096453,1.1817131,-1.3845825,2.7366333,10.522049
154,1778325821250,3.871109633333333,-2.1273165,0.47665852222222227,-1.443161,1.0311432,9.072754
155,1778325821260,3.2334430222222226,-2.2516236444444444,0.4767812355555555,-1.836908988888889,-0.26102871333333333,9.274032333333333
156,1778325821270,3.5700521444444444,-2.1881961555555556,1.1270040333333333,-1.6445007,-0.9905548066666666,9.454126666666667
157,1778325821280,3.82316426,-2.08334638,1.4988417,-1.003637668,-1.52219542,9.437292199999998
158,1778325821290,4.0741525,-1.9212915,1.7813617,-0.13183594,-1.9883575000000002,9.404053
159,1778325821300,4.40799581111111,-1.6363411222222224,1.7620542777777777,1.0213198922222224,-1.7699788444444444,9.343982555555556
160,1778325821310,4.7426257,-1.3709422,1.6673874,1.7704433333333334,-1.3000234,9.220001388888889
161,1778325821320,4.995413688888889,-0.9537131777777778,1.0240798444444446,1.5536058222222222,-0.023120422222222277,8.2622105
162,1778325821330,4.891717255555556,-0.5744342,0.42421419555555556,0.9167531333333334,1.1511637666666665,6.959981333333333
163,1778325821340,4.3560386,-0.393249,0.20487373,0.3922882,1.4508667,6.243408
164,1778325821350,3.6380831999999996,-0.308183659,0.243056322,-0.001385500000000006,1.35978091,5.729154899999999
165,1778325821360,2.8354406,-0.24815829,0.34142357,-0.30067444,1.1515198,5.3075714
166,1778325821370,2.4877263555555555,-0.21765039555555554,0.3274989911111111,-0.2783067577777778,0.9429083888888888,5.540690088888889
167,1778325821380,2.2935371555555553,-0.08081454555555555,0.17518036,-0.26730007777777776,0.5449710666666667,6.404863111111111
168,1778325821390,2.6199372,0.19309911,0.123358205,-0.36299133,0.5752106,6.876709
169,1778325821400,3.7537723555555553,0.9276024788888889,0.12346743166666668,-0.3423394155555555,0.6879476,6.585781600000001
170,1778325821410,4.3197956,1.3033152,0.0860185,-0.261261,0.8005066,6.0117188
171,1778325821420,4.6529334,1.6350702333333331,-0.30764682666666665,-0.25823974666666666,0.8738454266666666,4.395360166666666
172,1778325821430,4.44170193,1.7630341899999997,-0.717955252,-0.350205996,0.8367904809999999,2.53229673
173,1778325821440,3.9727461,1.755431,-0.8399349,-0.36512756,0.64178467,1.7437286
174,1778325821450,3.2994874333333337,2.1719015777777777,-0.8271768555555555,0.1824222122222222,-0.21504211427777775,1.2218170333333334
175,1778325821460,3.158300111111111,2.3497779999999997,-0.8794186333333333,0.5362752266666666,-0.4904124,1.2277985
176,1778325821470,3.2795828444444446,2.597007711111111,-1.0899320555555556,0.7192671111111111,-0.4738447555555556,1.3107164333333332
177,1778325821480,3.663431377777778,3.0436731222222217,-1.5886897777777778,0.8612467622222222,-0.1434393988888889,1.5320400333333333
178,1778325821490,4.0222898,3.3131263,-1.7368468,0.80773926,0.16668701,1.5642395
179,1778325821500,4.611823833333334,3.6497765222222225,-1.7781871999999999,0.9997236466666666,0.2968258266666666,1.280760021111111
180,1778325821510,6.1878104,4.2200427,-2.2542472,1.9997710999999998,0.48094177,-0.22221374999999996
181,1778325821520,6.6621353333333335,3.6453426666666666,-2.529869711111111,2.277153833333333,-0.40164523555555554,-1.9476504777777777
182,1778325821530,6.3145986,2.9078693,-2.586654,2.1345215,-1.2911377,-5.2337494
183,1778325821540,5.685607844444444,2.597116711111111,-2.3772254444444445,1.8220503333333333,-1.2256876888888888,-5.717498777777777
184,1778325821550,3.862799222222222,1.7752401333333332,-1.8289369777777778,1.0689121133333332,-0.8804813066666666,-5.832902688888889
185,1778325821560,3.7500440000000004,1.713453,-1.9530798,0.63890076,-0.99606323,-5.353592
186,1778325821570,4.165714133333334,1.8259641666666668,-1.9848495333333334,-0.6880696733333332,-1.1391652333333333,-4.799840333333333
187,1778325821580,4.845576311111111,1.8964155444444444,-1.6056109777777778,-1.8492686333333335,-0.8852200022222223,-4.619040666666667
188,1778325821590,5.382705533333333,1.8759146555555555,-0.9451102555555556,-2.8216298777777777,-0.18639798000000002,-5.012944666666666
189,1778325821600,5.654558666666667,1.7194734333333335,-0.39906044444444444,-3.153686544444444,0.26599290222222227,-5.70631911111111
190,1778325821610,5.761076,1.4405977,0.1660688,-3.0240173,0.3935852,-6.433777000000001
191,1778325821620,5.513343888888889,1.0765589111111111,0.5448185888888889,-2.190100788888889,0.23740641044444447,-7.5218219333333325
192,1778325821630,4.723262666666667,0.42914264,0.8650488666666667,-1.0458323333333333,-0.03535970133333334,-8.678645
193,1778325821640,3.9784819333333337,0.01851638,0.7874794666666667,-0.37435743111111114,-0.23835585555555555,-9.082144555555555
194,1778325821650,3.2526286,-0.3643559666666667,0.6151483333333333,0.6213175466666667,-0.6058722755555556,-9.459835222222223
195,1778325821660,2.8049324,-0.601064,0.4456375,1.009079,-0.87142944,-9.436218
196,1778325821670,2.5054738000000003,-0.6218767555555557,0.2706204555555556,1.1368510222222221,-1.2329644155555555,-8.965843888888891
197,1778325821680,2.3583071,-0.5573782,0.15691665,1.0879059,-1.4429321,-8.474289
198,1778325821690,2.707905888888889,-0.4103603,0.09393651555555554,0.7190789171111112,-1.3065287244444443,-8.164060911111111
199,1778325821700,3.29414498,-0.37084423600000005,0.071692972,-0.0520462057,-0.8601867719999999,-8.01158754
200,1778325821710,3.6245985,-0.52333134,0.17546518,-0.7193146,-0.36116028,-8.478012
201,1778325821720,3.554134,-0.917457588888889,0.5792041555555555,-1.1154276666666667,0.16685485733333336,-9.150197166666665
202,1778325821730,3.3568819555555556,-1.1692023333333335,0.8247664222222223,-1.1581488666666668,0.4463144911111111,-9.539377833333333
203,1778325821740,3.0314178666666667,-1.3538994000000002,1.0903542333333334,-0.79176329,0.4518178266666666,-9.631876666666667
204,1778325821750,2.6956494444444443,-1.449867888888889,1.3310763333333333,-0.199111936,0.3076493977777778,-9.524878888888889
205,1778325821760,2.529391188888889,-1.3993754111111112,1.2879463,0.46680027388888884,0.12495422177777778,-9.17363
206,1778325821770,2.408054533333333,-1.3281113666666666,1.1157772666666668,1.1054840333333333,-0.017796834,-8.721959333333334
207,1778325821780,2.342322,-1.2795435,0.9753631999999999,1.2897797,-0.029861449999999998,-8.447128
208,1778325821790,2.2846562555555554,-1.193472311111111,0.7286758655555556,1.3039703666666667,-0.04656473666666667,-7.997228166666667
209,1778325821800,2.337358633333333,-1.1145204666666666,0.6138741066666666,1.1679738333333334,-0.047983804666666664,-7.632019
210,1778325821810,2.42644772,-1.05279013,0.51946425,0.9636901550000001,0.0020355232,-7.4260604
211,1778325821820,2.4617476000000003,-0.9841120000000001,0.43676946666666666,0.6913265655555555,0.1284518788888889,-7.3325586000000005
212,1778325821830,2.471185,-0.9294438,0.4200102,0.40879822,0.3190155,-7.292373700000001
213,1778325821840,2.370903355555556,-0.8993833,0.5317623,0.15715705222222223,0.5569271666666666,-7.153065888888889
214,1778325821850,2.2742298,-0.8942988000000001,0.5851162,0.1318851077777778,0.6119673044444444,-7.042922933333333
215,1778325821860,2.1201886666666665,-0.8619336911111111,0.5368867733333333,0.20670064333333332,0.55525886,-6.889650088888889
216,1778325821870,1.8437127,-0.81998336,0.38816118,0.34754944,0.35682678,-6.611679
217,1778325821880,1.571778922222222,-0.8310483200000001,0.35377714444444447,0.46354335999999996,0.12436422000000001,-6.38062708888889
218,1778325821890,1.3509476999999999,-0.8251368133333333,0.35743759333333336,0.5668724866666666,0.01244947888888889,-6.137035811111111
219,1778325821900,0.5717275433333334,-0.8649716333333334,0.40614042,1.1424102666666665,-0.24966430333333334,-4.771601366666666
220,1778325821910,0.3191281633333334,-0.9907964111111112,0.23163857555555556,1.5172119,-0.0003916400000000079,-4.014027933333334
221,1778325821920,0.3182740533333333,-1.1439694999999999,-0.23162248666666663,1.966393322222222,0.4969770733333333,-3.0034484888888886
222,1778325821930,0.5406915,-1.3155409,-0.7766023,2.1851196,1.0173035,-2.2291718
223,1778325821940,0.7251989355555556,-2.0214094555555553,-2.0512592111111108,1.4831135933333333,1.5614725666666667,-2.1853179666666667
224,1778325821950,0.7261750666666668,-2.6441632,-3.1469138777777776,0.3052842888888889,2.1386022888888885,-2.313981777777778
225,1778325821960,-0.12989776666666666,-2.8816987,-3.4109162000000004,-1.4937794933333335,2.2837117666666664,-2.7046356333333335
226,1778325821970,-1.5871639333333334,-3.0538807666666665,-2.8639024333333336,-2.895550177777778,1.4951816015555555,-2.8756764333333336
227,1778325821980,-2.3699372,-3.2789829,-2.2845113,-2.824295,0.052703857,-2.5359802
228,1778325821990,-2.816940955555556,-3.4413620555555555,-1.2280144777777777,-1.3913879111111112,-2.0518494413333332,-1.7518818999999999
229,1778325822000,-3.1116261,-3.5257242,-0.4384623,0.5739136,-4.54126,-0.7489929
230,1778325822010,-3.2273094,-3.7003070666666664,-0.55133846,1.8040585,-4.793674055555556,0.0735168477777778
231,1778325822020,-3.3610774,-3.8575206,-1.12882622,2.1839600399999997,-3.5938141000000003,1.236666872
232,1778325822030,-3.2851912333333337,-3.854673333333333,-1.7262703333333334,0.8143157666666667,-1.4480896266666667,2.747385666666667
233,1778325822040,-2.8220246111111114,-3.598196444444445,-1.6240107555555554,-0.6985473666666667,0.11926778,4.027659133333334
234,1778325822050,-2.272679,-3.2227278,-1.1581872,-1.3409119,0.7115631,4.533661
235,1778325822060,-1.7963338666666668,-2.8376860222222224,-0.6736517644444444,-1.1615312555555557,0.8193308555555556,4.634034944444444
236,1778325822070,-1.1739343,-2.3076344,-0.15462394,-0.5339084055555556,0.5860951872222222,4.603441066666666
237,1778325822080,-0.7156624011111111,-1.9166008,-0.3678607022222222,0.4739583333333333,-0.5632069766666667,4.376007066666666
238,1778325822090,-0.5281987966666667,-1.6305796333333333,-0.5956755066666667,1.2377573666666666,-1.837615933333333,4.188873266666667
239,1778325822100,-0.48679113,-1.5184765,-0.6596992,1.4969635,-2.4916992,4.1618958
240,1778325822110,-0.41183446625,-1.44211585,-0.52253904125,1.379188525,-2.7637329,4.51262675
241,1778325822120,-0.382943865,-1.458406875,-0.35115007,1.1205368249999998,-2.6213875250000003,4.9187547
242,1778325822130,-0.2619400388,-1.5099334800000002,-0.111424308,0.87922364,-2.2427398999999997,5.362869300000001
243,1778325822140,0.13741122079999998,-1.69612428,0.388746948,0.450238048,-1.173535166,6.4846924
244,1778325822150,0.4606412,-1.761435,0.6302657,0.45407104,-0.56463623,7.0620728
245,1778325822160,1.1813417428571429,-1.8149876857142857,0.7810933257142858,0.6001674,0.5032261691428571,7.896017828571429
246,1778325822170,1.58254125,-1.8306858000000001,0.83417569875,0.6711864475,1.03706555,8.2661455
247,1778325822180,2.137463122222222,-1.8442923333333334,0.7232517,0.7725881111111111,1.5602875,8.527637111111112
248,1778325822190,2.613632433333333,-1.9038824666666667,0.52759945,0.8869272866666666,1.7079467666666668,8.862193
249,1778325822200,2.7782085,-1.9644904,0.37302995,0.9611358600000001,1.3208923,9.153717
250,1778325822210,3.4052403900000003,-1.78165454,0.39992475499999997,1.040182492,0.559014884,9.196325400000001
251,1778325822220,4.0453532333333335,-1.5795708,0.5360594333333333,1.1049499333333332,0.12513224,8.896809666666666
252,1778325822230,4.080252922222223,-1.418736688888889,0.7188582888888888,1.1776224444444443,0.3816257111111111,8.310913
253,1778325822240,3.9698171999999996,-1.3111483,0.8012279,1.2418365,0.6236725,7.9505005
254,1778325822250,3.8948920000000005,-1.2941864,0.80745125,1.2705994,0.6849365,7.8743286
255,1778325822260,3.761013244444444,-1.2803022666666668,0.7611888922222222,1.3475342,0.6652865755555556,7.891611733333333
256,1778325822270,3.2924376,-1.2317078,0.59927064,1.616806,0.59651184,7.952102700000001
257,1778325822280,3.368203488888889,-1.0799721111111111,0.5509611955555556,1.6341501777777776,0.5711873355555556,7.953457488888889
258,1778325822290,3.5062715,-0.8709102466666666,0.4973364466666667,1.5999501333333332,0.7176038955555556,7.750936
259,1778325822300,3.5776181,-0.75091594,0.4460030199999999,1.5427704,0.91023254,7.417862000000001
260,1778325822310,3.320760988888889,-0.5935248644444444,0.2506483622222222,1.3919762555555557,1.0610877200000002,6.784150911111111
261,1778325822320,3.1345315,-0.5371202,0.14837421,1.2642059,1.1525879,6.428238
262,1778325822330,2.8648481333333335,-0.4672797866666667,0.016014209333333335,0.8895873999999999,1.2967579999999999,6.325256333333333
263,1778325822340,2.6473525,-0.39792669999999997,-0.13623718333333334,0.3134562033333333,1.5272064333333333,6.373016333333333
264,1778325822350,2.5803995,-0.3452919,-0.22613183000000003,-0.07324219,1.6905365,6.441559
265,1778325822360,2.6233809666666668,-0.13549748533333333,-0.2566117177777778,-0.8667433077777777,1.8676130333333336,6.4037950666666665
266,1778325822370,2.6824157,0.008957733,-0.21673545,-1.4916382,1.9786987,6.335556
267,1778325822380,2.76355237,0.2307442939,0.09908693541,-1.72194826,1.88868102,6.072329659999999
268,1778325822390,2.8389378,0.54649327,0.44380624999999996,-1.8390909999999998,1.8025716333333333,5.712376866666666
269,1778325822400,2.8958038,0.78481555,0.45666035000000005,-1.6576436,1.8529968333333333,5.462392166666667
270,1778325822410,2.9453469333333335,1.0121149666666667,0.18079357999999998,-1.5504082222222222,1.9093356777777777,5.219390788888889
271,1778325822420,2.9699156,1.1899506,-0.11972316,-1.5752716,1.8679047,4.970413
272,1778325822430,3.0814355111111116,1.3615633333333332,-0.48014164222222216,-1.8964437,1.6933848333333335,4.476669266666667
273,1778325822440,3.1836681666666666,1.4445432666666664,-0.7161177666666667,-2.3634355333333334,1.4454702,3.7390900000000005
274,1778325822450,3.0878622555555557,1.4004232222222222,-0.6441479444444445,-2.5393269666666667,1.1838260555555555,3.2266422
275,1778325822460,2.69929256,1.43753478,-0.49319140999999994,-2.47142486,0.6603286589999999,2.8345672399999997
276,1778325822470,2.5285368,1.5881304,-0.4603052,-2.365158,0.21888733,2.8196564
277,1778325822480,2.656314866666667,1.7068775777777778,-0.4790972511111111,-2.3904910555555556,-0.2830403644444444,3.084554011111111
278,1778325822490,3.0381697444444447,1.9364271777777777,-0.4786086833333333,-2.6979980666666665,-0.35477024,3.362582766666667
279,1778325822500,3.418627155555556,2.2217021333333333,-0.32599229555555553,-2.986792711111111,-0.07537672333333331,3.3511657666666665
280,1778325822510,3.9946432888888888,2.7134371555555554,0.30375858222222224,-3.164750866666667,0.5369177888888889,3.0730115999999996
281,1778325822520,4.2986856,3.2109888,0.9864674000000001,-2.603241,1.0572357,2.5943604
282,1778325822530,4.4474382666666665,3.428036866666667,1.1651176,-1.2575717666666668,1.3304189,1.7996097455555555
283,1778325822540,4.7449436,3.862133,1.522418,1.0500946,1.7651062,0.41322327
284,1778325822550,5.531959533333333,4.211040588888888,0.7171633782222222,3.4067484666666665,1.374815222222222,-1.8425445666666667
285,1778325822560,5.162769133333334,3.7360372666666666,-0.40445588266666666,4.831949866666666,0.4896341933333333,-3.740076733333333
286,1778325822570,4.653666,3.3686504,-1.0964396,5.152954,-0.26635742,-4.6121674
287,1778325822580,4.015917622222222,3.1172038222222223,-1.7912709000000002,4.4032473888888894,-0.832007528888889,-4.856823277777778
288,1778325822590,3.2256866099999995,2.92745554,-2.64755797,2.14320825,-1.1598464700000002,-4.5468231
289,1778325822600,3.6519740333333335,2.967786133333333,-2.4636478,-0.45957436666666673,-0.6535746366666667,-3.9241892
290,1778325822610,4.3529887,2.9507012,-1.9748014,-2.8109741,-0.07727051,-3.510147
291,1778325822620,4.642181488888889,2.8962223777777774,-1.6472630777777777,-3.384730033333333,0.0938296811111111,-3.547020822222222
292,1778325822630,5.693878111111111,2.418805744444444,0.5781864388888889,-4.082483911111111,0.7990366533333333,-5.085623877777778
293,1778325822640,6.007573,2.1004057,1.6575027,-3.9012756,1.1552429,-6.0753174
294,1778325822650,5.64086541,1.68868185,2.12133336,-2.5805587720000003,1.47083279,-7.014344849999999
295,1778325822660,4.896259,1.1129506,2.4707012,-0.31025696,1.728363,-8.15683
296,1778325822670,4.676254211111111,0.9672615055555556,2.3750316555555555,0.31777106222222223,1.6811404555555556,-8.338291
297,1778325822680,4.292270944444444,0.6583118944444445,1.9076893222222222,1.24609376,1.4886779666666667,-8.526133333333332
298,1778325822690,3.7722526,0.008469327,0.8142842,3.2738342,0.94059753,-9.053787
299,1778325822700,3.428024288888889,-0.42242752811111106,0.3592540017777778,3.3644952,0.8508181922222222,-9.404907222222223
300,1778325822710,3.118329466666667,-0.6857379777777778,0.10464808755555556,3.2820587333333333,0.6968315888888889,-9.604585555555555
301,1778325822720,2.7534367299999998,-0.8659634549999999,-0.06535956579999999,2.9079117,0.348678582,-9.561866499999999
302,1778325822730,2.5563198666666667,-0.9924097333333334,-0.12887532333333335,2.5021668,0.12093098888888888,-9.433732777777777
303,1778325822740,2.490099,-1.0597703,-0.13375627,2.0999146,-0.04850769,-9.268448
304,1778325822750,2.394306444444444,-1.1040384222222221,-0.07302597657777778,1.4067739000000001,-0.18681335,-8.949925833333333
305,1778325822760,2.3280857333333334,-1.1105742222222221,0.01576983391111111,0.8899417222222223,-0.25422498555555556,-8.704330444444444
306,1778325822770,2.337034,-1.0356082,0.20605327,0.4433610922222222,-0.2958848766666667,-8.481212888888889
307,1778325822780,2.3753096666666664,-0.9698347199999999,0.45397514666666666,-0.17782083999999998,-0.27913920000000003,-8.090789533333334
308,1778325822790,2.401749,-0.96763736,0.6156229,-0.37205505,-0.22908019999999998,-7.9437866
309,1778325822800,2.42345875,-0.9867597619999999,0.86752603,-0.46536865,-0.0721618656,-7.7180572
310,1778325822810,2.5860946000000005,-0.9613736866666667,1.1908247666666667,-0.4123535155555556,0.24284871333333335,-7.402514977777778
311,1778325822820,2.8263010222222222,-0.9126167444444445,1.2052515888888888,-0.09330410333333333,0.7674967666666667,-7.422634577777777
312,1778325822830,2.9753252333333333,-0.8641850955555557,1.0059786,0.18615723,1.3736318333333335,-7.5695242
313,1778325822840,2.9474614,-0.85110134,0.8535791,0.27990723,1.7123871,-7.709427000000001
314,1778325822850,2.616357488888889,-0.8870587488888889,0.6678231888888889,0.4740193633333334,1.9351383,-7.722685044444445
315,1778325822860,2.4285014555555557,-0.899899,0.5940094777777778,0.6539917022222222,1.9341871777777777,-7.638890555555556
316,1778325822870,2.09680015,-0.8506735750000001,0.4212312,0.9500641,1.6575164399999998,-7.3354158
317,1778325822880,1.8878055333333335,-0.8066009333333333,0.25738771,1.1850229666666667,1.2383422666666668,-6.957351733333333
318,1778325822890,1.7587814,-0.7874017,0.13836813,1.2887115,0.9081116,-6.6952972
319,1778325822900,1.4397716777777778,-0.7885404577777778,0.12268125111111111,1.4360707666666666,0.3123304657777778,-6.145857066666667
320,1778325822910,1.1917013666666667,-0.7858288044444445,0.1348843111111111,1.5670352666666667,-0.10851372655555555,-5.6912875666666665
321,1778325822920,1.0029631888888888,-0.7117439066666668,0.06041920266666667,1.6775292333333336,-0.38880751666666663,-5.022301611111111
322,1778325822930,0.9927264666666668,-0.6627695933333333,-0.13949166266666665,1.6553938111111113,-0.4582858733333333,-4.447708222222222
323,1778325822940,0.9470471660000002,-0.7138431599999999,-0.39558121,1.27432254,-0.151519778,-3.93008436
324,1778325822950,0.6180032388888889,-0.8122145111111112,-0.6860844722222221,0.7199181466666666,0.4905192055555556,-3.419901533333333
325,1778325822960,0.51349202,-0.878801511111111,-0.8086965666666666,0.35843573444444443,0.9855177111111111,-3.1153496777777776
326,1778325822970,0.5632801777777777,-1.1438751111111112,-0.89129626,0.29002211222222224,1.316457088888889,-2.8883395888888885
327,1778325822980,0.6932674433333333,-1.4833315666666667,-0.9991022399999999,0.6797332933333333,0.9363352333333332,-3.0334523333333334
328,1778325822990,0.7128731455555556,-1.964666611111111,-1.3860138888888889,1.2460988666666666,0.011861166666666664,-3.651128066666667
329,1778325823000,0.30681638888888885,-2.3767435999999997,-1.929298422222222,1.4674988000000002,-1.1299234999999999,-4.622116
330,1778325823010,-0.0878788,-2.5721931,-2.2049477,1.2072144,-1.6203003,-5.12883
331,1778325823020,-1.3388764666666666,-3.1470689,-2.4742246666666663,-0.10512967777777778,-1.7083672555555556,-4.850196088888889
332,1778325823030,-2.23239883,-3.43358019,-2.3660509000000003,-1.39325565,-1.5657089000000002,-4.07607574
333,1778325823040,-2.8075299666666664,-3.7159670666666664,-1.6789235333333332,-2.3536173999999996,-1.421641,-2.5079193666666666
334,1778325823050,-2.988240944444444,-3.8398942777777783,-1.0916395244444446,-2.6206427333333333,-1.2766452,-1.028383016888889
335,1778325823060,-3.1199245,-3.7906485,-0.32692692,-2.2788696,-1.1569214,0.068618774
336,1778325823070,-3.0193595777777777,-3.682151133333333,-0.103628062,-1.2439609000000003,-1.1437801777777779,1.110739821777778
337,1778325823080,-2.7763194555555555,-3.4838270666666666,-0.007862706666666663,0.3175489666666667,-1.1084424999999998,2.5817481555555557
338,1778325823090,-2.2043294777777778,-3.120996266666667,-0.5201390666666666,1.263261588888889,-0.9345669444444444,3.3643578666666665
339,1778325823100,-1.9050748888888889,-2.9156361222222222,-0.7926295144444445,1.4761963,-0.7883301,3.5184631
340,1778325823110,-1.6742516000000003,-2.6759171,-0.9930811499999999,1.5480957,-0.5348053,3.5749207
341,1778325823120,-1.5724796,-2.4792067,-1.0601969833333333,1.520050033333333,-0.43609110000000006,3.571370433333333
342,1778325823130,-1.4552094,-2.136551,-1.1094974,1.4197388,-0.3201599,3.607956
343,1778325823140,-1.46845,-1.9644897,-1.0625771000000002,1.362747233333333,-0.4414113333333334,4.006530733333333
344,1778325823150,-1.3427867571428571,-1.867372457142857,-1.0154829571428572,1.279499614285714,-0.6875937142857144,4.742226714285715
345,1778325823160,-1.0955919,-1.8207405999999997,-0.9467106,1.1912384,-0.8112335,5.2756195
346,1778325823170,-0.4321353111111111,-1.7796985666666667,-0.8278276988888889,0.8447892888888888,-0.8036685555555556,6.259390944444444
347,1778325823180,-0.1543844,-1.7776644,-0.79271036,0.68203735,-0.7755585,6.5976105
348,1778325823190,0.33295734666666665,-1.7717252,-0.6722691433333333,0.3253529833333333,-0.7094980799999999,7.022303333333333
349,1778325823200,0.7349466555555556,-1.7731085111111111,-0.5135774122222222,-0.03115675222222222,-0.5936262355555555,7.375378222222222
350,1778325823210,0.8959164000000001,-1.8032900999999997,-0.43223903,-0.21385193,-0.48632812,7.5733950000000005
351,1778325823220,1.1782093555555555,-1.934267122222222,-0.33957778777777775,-0.4514109233333333,-0.3952484133333333,8.024358
352,1778325823230,1.404776,-2.039781,-0.27116004,-0.6282501,-0.3899231,8.490585
353,1778325823240,1.8604431099999998,-2.07598769,-0.224264684,-0.613545215,-0.678933714,8.9930235
354,1778325823250,2.4765808666666667,-2.0733395555555556,-0.15168055555555557,-0.5505455644444445,-1.0242292566666666,9.507436333333334
355,1778325823260,2.8721707,-2.0374637,-0.12472543,-0.49668884,-1.1899414,9.699661
356,1778325823270,3.0624263000000003,-2.001505522222222,-0.12331517222222223,-0.4895816355555556,-1.2666422444444445,9.709840555555555
357,1778325823280,3.4497455666666665,-1.8894835333333333,-0.11028600577777778,-0.5037790933333333,-1.3777279222222223,9.637699
358,1778325823290,3.9688824666666664,-1.5183941,-0.0009887333333333341,-0.7598012333333334,-1.50118,8.644699333333334
359,1778325823300,3.9255452400000004,-1.3878564,0.11974742999999999,-0.911811818,-1.5146362,7.933142200000001
360,1778325823310,3.745434444444444,-1.350008688888889,0.26423386,-0.8865102088888889,-1.619655988888889,7.671220444444444
361,1778325823320,3.405272,-1.2373076222222221,0.7460576555555556,-0.34097457777777784,-2.4080606777777778,7.116336355555556
362,1778325823330,3.351743,-1.1591002,1.0573657,0.2543335,-2.874115,7.0583496
363,1778325823340,3.3345778,-1.0971914,1.1896452666666668,0.9892510333333333,-2.903123666666667,6.993601488888888
364,1778325823350,3.308409411111111,-1.0246252999999999,1.2242742777777778,2.0860612666666665,-2.6684706222222223,6.887368111111112
365,1778325823360,3.3437974555555554,-0.8981762866666667,0.9976804555555555,2.5669640444444446,-2.3210754444444444,6.722495133333333
366,1778325823370,3.442057722222222,-0.7262381622222223,0.6380216111111111,2.986027988888889,-1.7469533222222222,6.270287222222222
367,1778325823380,3.434845,-0.64499414,0.3704666,2.9462585,-1.3252258,5.872177
368,1778325823390,3.05693386,-0.54483302,0.10355351474,2.40345611,-0.5363479557999999,5.46359092
369,1778325823400,2.7011535555555555,-0.4791714111111111,0.003905344044444444,1.9031287333333333,0.008070203555555556,5.383334644444444
370,1778325823410,2.4372598666666665,-0.42188605,0.08947467333333332,1.4612749111111112,0.3260057222222222,5.641601577777778
371,1778325823420,2.3651282444444446,-0.30270470555555556,0.27295240000000004,1.0257619466666668,0.45572746999999997,6.227142422222222
372,1778325823430,2.4876585,-0.14382303,0.37839928,0.97605896,0.36747742,6.5336914
373,1778325823440,2.703621922222222,0.07481195888888889,0.39567270444444447,0.9251624222222223,0.4152984666666667,6.5422159777777775
374,1778325823450,3.0926764,0.44923677999999995,0.41110224,0.7928314,0.60876465,6.4426117
375,1778325823460,3.207233944444445,0.6981755311111111,0.3386315511111111,0.6216752822222222,1.0720401555555554,5.931587888888888
376,1778325823470,3.11139484,0.887686145,0.1318521035,0.397299194,1.63973084,5.15823668
377,1778325823480,2.945834366666667,0.9024108866666667,-0.12818367,0.19290161266666667,1.6182810333333333,4.825017266666666
378,1778325823490,2.8812004,0.98758684,-0.36626120333333334,-0.09862264133333333,1.4526316000000001,4.7935841
379,1778325823500,2.856551,1.0682878,-0.49520445,-0.3720398,1.348587,4.8585663
380,1778325823510,3.065626,1.3771018,-0.32940783333333334,-0.7979685533333334,1.1374969333333333,4.869578166666667
381,1778325823520,3.1781366111111113,1.5745037222222222,-0.09389279055555555,-0.9344431777777777,1.1250610666666665,4.736885944444444
382,1778325823530,3.31381634,1.79574998,0.058952739,-0.67485045,1.4673691,4.2276611
383,1778325823540,3.3678095999999997,2.0596077333333334,0.06921879653333333,-0.41021727333333335,1.5344746999999999,3.9543304333333333
384,1778325823550,3.3011012,2.2291458,-0.0036739303999999994,-0.08389282,1.5067749,3.6894378999999997
385,1778325823560,3.3896939666666666,2.492891033333333,-0.17288679013333333,0.43276468,1.1854248,3.509765633333333
386,1778325823570,3.6826030999999997,2.9175099,-0.4725895233333334,1.0392506666666668,0.8512878666666667,3.2786000666666664
387,1778325823580,4.014276766666667,3.2273810111111114,-0.7339473988888888,1.1338822888888889,0.9021827111111111,3.0860239555555555
388,1778325823590,4.513576966666666,3.7141534666666667,-1.1644093666666666,1.1638946333333333,1.0382436433333333,2.0638428
389,1778325823600,4.7610517,3.9741554,-1.4048055,1.1699371,0.79145813,1.4587708
390,1778325823610,5.0700279,4.318385711111111,-1.4513123222222222,1.2518344555555556,-0.02493964555555555,0.32155352222222217
391,1778325823620,5.2026491,4.46219806,-1.45508148,1.2960128999999998,-0.755253603,-1.25563357
392,1778325823630,4.9648940999999995,4.264759966666667,-1.5450847777777779,1.0878448111111112,-0.8305884555555555,-2.1590983333333336
393,1778325823640,4.3126234,3.784889622222222,-1.7823085666666667,0.44578043333333334,-0.867821611111111,-3.6306999666666666
394,1778325823650,3.7124586,3.3748722,-1.9663819000000002,-0.3789673,-0.7878113,-4.0923157
395,1778325823660,3.302646611111111,3.023511711111111,-1.8798236222222222,-1.8078443888888889,-0.396731908,-3.870625811111111
396,1778325823670,3.1778114666666664,2.8180967666666668,-1.657908011111111,-3.263529488888889,0.01902601377777778,-3.517612011111111
397,1778325823680,3.552398855555556,2.8153455333333333,-1.2308073331111111,-4.138817688888889,0.39767456111111116,-3.2740190444444446
398,1778325823690,4.962046611111111,2.7242036444444446,0.23369900155555554,-5.0595736,1.172288688888889,-3.3831599666666667
399,1778325823700,5.633921,2.5938897,1.2084385,-4.9686584,2.079895,-4.1865997
400,1778325823710,5.736230600000001,2.14789958,2.25973942,-3.49263458,2.73956302,-5.528460730000001
401,1778325823720,5.626113,1.7828875999999998,2.8129926,-1.6258698,3.1361084,-6.8726654
402,1778325823730,4.9938417444444445,1.0912969888888888,2.574669666666667,0.6116010894444445,2.7823859555555557,-7.830630877777779
403,1778325823740,4.518743711111111,0.6103688211111111,2.090446344444444,3.2086656444444444,2.0969984555555556,-8.766466000000001
404,1778325823750,4.170555,0.21933459,1.3015451,4.272522,1.6415405,-9.190674
405,1778325823760,3.9276909,-0.0014558811111111064,0.6984659,4.3824767555555555,1.2391086222222223,-9.391303333333333
406,1778325823770,3.590553,-0.27890918,-0.17841895,4.1878204,0.74990845,-9.552338
407,1778325823780,3.5349892444444446,-0.34272994,-0.43857030555555554,3.506468033333333,0.4532911512222222,-9.536121111111111
408,1778325823790,3.4834607400000004,-0.463391516,-0.8348106200000001,2.05335698,-0.0432922362,-9.4918242
409,1778325823800,3.6842305666666664,-0.5664894,-0.6570554466666666,0.8836670222222222,0.04043918188888889,-9.461898999999999
410,1778325823810,3.8420130666666665,-0.6685863866666667,-0.3296525593333333,-0.04661051666666666,0.31421915666666667,-9.500488666666667
411,1778325823820,3.919541,-0.77824956,-0.026614998,-0.40667725,0.46655272999999997,-9.58429
412,1778325823830,3.8256066888888887,-1.0839175511111112,0.38887960466666666,-0.49686007666666665,0.5633748366666667,-9.684895777777777
413,1778325823840,3.6555118888888893,-1.2559917,0.6421022111111111,-0.4348975222222222,0.5270402677777778,-9.692587666666666
414,1778325823850,3.313994666666667,-1.3647195,0.82368111,-0.2716776622222222,0.19846089555555554,-9.437462444444444
415,1778325823860,3.0903813399999995,-1.3389349,1.032411641,-0.1764099146,0.004124449999999997,-9.0899002
416,1778325823870,3.0608258,-1.2696587,1.2779943,-0.060455322,-0.12414551000000001,-8.693192
417,1778325823880,3.1826104333333336,-1.1672360666666668,1.6076748666666667,0.41448466,0.17626444466666666,-8.111918333333334
418,1778325823890,3.3541826111111113,-1.107631911111111,1.6699370444444446,0.9273495111111111,0.7486657055555556,-7.7789644000000004
419,1778325823900,3.4464365333333333,-1.136091022222222,1.505265722222222,1.5063171111111113,1.2589314888888887,-7.655517566666666
420,1778325823910,3.4042155666666667,-1.1906246333333332,1.0242555766666668,2.044575988888889,1.3248681,-7.615802244444445
421,1778325823920,3.3881075,-1.2285347,0.72129893,2.3523712,1.1206207,-7.608764599999999
422,1778325823930,3.3997405333333335,-1.368339,0.27849750500000003,2.3865847999999996,0.6911519377777778,-7.629891288888889
423,1778325823940,3.2264196666666667,-1.5082247000000002,-0.005625998000000003,2.171819,0.33659872,-7.580174666666666
424,1778325823950,2.93708965,-1.51981805,-0.166033037,1.6700714399999999,0.37750244,-7.3938934000000005
425,1778325823960,2.7756189,-1.4919003555555554,-0.24522301444444444,1.1469607888888889,0.6203121444444445,-7.196738555555555
426,1778325823970,2.56112,-1.4603904,-0.33424833,0.6080017,0.9310149999999999,-7.022339
427,1778325823980,2.2689557555555555,-1.4488109444444446,-0.4488066022222223,0.051278,1.2160305333333332,-6.742111244444445
428,1778325823990,1.8449336999999997,-1.459535,-0.6141826,-0.7619324,1.6399384,-6.295822
429,1778325824000,1.5230215,-1.6619811666666666,-0.6118639333333333,-1.5159607,2.2020416666666667,-5.653645766666667
430,1778325824010,1.3097971333333334,-2.0049218,-0.4343129333333333,-1.715637211111111,2.9525841555555554,-5.207533077777778
431,1778325824020,1.326068,-2.309098,-0.2739676,-1.4650116,3.2671356,-5.2167053
432,1778325824030,0.78627385,-3.17411042,-0.8387886800000001,-0.101998921,2.5730652,-5.61431735
433,1778325824040,0.10647226666666668,-3.8423335666666665,-1.4695215555555554,1.0609757777777777,1.6038445700000001,-5.9184214
434,1778325824050,-1.0594301666666668,-4.1652355000000005,-2.088207466666667,1.5223575555555555,0.20928954555555557,-5.714370733333333
435,1778325824060,-2.2625510111111113,-4.587237611111111,-2.599940444444444,1.4637688666666666,-1.458680911111111,-4.742964022222221
436,1778325824070,-2.9437154777777774,-4.893977,-2.853028911111111,0.3621673444444444,-1.6643320888888888,-3.433454711111111
437,1778325824080,-3.6778393,-5.000929,-3.200457,-1.5273285,-1.0429382,-2.102417
438,1778325824090,-4.151921,-5.230464,-1.8118932,-2.5941925,-0.642395,0.35462952
439,1778325824100,-3.9139238,-5.0040206666666665,-0.7974694956666667,-2.1341704999999997,-0.60066732,2.1606140000000003
440,1778325824110,-3.4378490333333334,-4.776965133333333,-0.04142063566666667,-0.6095988,-0.9136759600000001,3.8517202000000004
441,1778325824120,-2.683225033333333,-4.308863133333333,-0.4358180443333333,1.5301717333333331,-1.3387248000000003,5.080683466666667
442,1778325824130,-2.2665437857142856,-4.0071797,-1.0296207000000002,2.2467673285714285,-1.552512042857143,5.461212114285714
443,1778325824140,-1.921511875,-3.7398849,-1.5967418500000001,2.5718231,-1.6836853,5.666046
444,1778325824150,-1.4668576111111111,-3.216558011111111,-2.1154598333333334,2.256858,-1.6108415555555555,5.7670016777777775
445,1778325824160,-1.022415388888889,-2.6186995444444445,-2.3913533777777776,1.4959547444444443,-1.2978939777777778,5.677993799999999
446,1778325824170,-1.0399063666666666,-2.3211805666666665,-2.4081256333333334,0.7592722366666665,-1.2061004666666666,5.770258666666667
447,1778325824180,-1.0308433099999998,-2.03164294,-2.2553092,0.103593443,-1.50782016,6.2303085
448,1778325824190,-0.823102,-1.8497835,-2.0109231,-0.20587158,-1.8456116,6.650879
449,1778325824200,-0.2102057611111111,-1.5473824666666667,-1.5737349333333333,-0.4270867266666667,-1.9805399777777777,7.041120711111111
450,1778325824210,0.41683245,-1.2151128,-1.1523294,-0.7368927,-1.9798279,7.5068207
451,1778325824220,0.9073058055555556,-1.0067416511111111,-0.87697816,-0.9076996111111111,-1.6922065000000002,7.537707855555556
452,1778325824230,1.6389479777777778,-0.775457001111111,-0.5592699244444445,-1.1879781444444444,-1.178041281111111,7.392306777777778
453,1778325824240,1.8584783999999999,-0.7246789,-0.45762055999999995,-1.4985657,-0.73347473,7.064209
454,1778325824250,1.8987747888888888,-0.7400007677777778,-0.2667132122222222,-2.1299133444444447,-0.08153110333333333,6.530863533333333
455,1778325824260,1.8689590666666664,-0.8132317122222222,-0.08704611777777777,-2.4580196666666665,0.19384765555555558,6.262651177777777
456,1778325824270,1.8215042000000001,-0.8955198000000001,0.07174119,-2.587265,0.24072266,6.113983
457,1778325824280,1.7170476666666667,-1.0781555333333332,0.41968513,-2.255610133333333,-0.30931598,6.021657266666667
458,1778325824290,1.7266883,-1.1741116,0.77096546,-1.728653,-1.1116486,5.9723053
459,1778325824300,2.1005968,-1.1373937777777778,1.3283106800000002,0.31044513333333323,-2.4751790000000002,5.805770900000001
460,1778325824310,2.2634909333333333,-1.1543420444444443,1.4215135555555554,2.1662546777777774,-3.2863717777777777,5.6650357
461,1778325824320,2.2746773333333334,-1.2062857666666664,1.0590745000000001,3.0746205666666664,-2.9039561333333332,5.731552199999999
462,1778325824330,2.2879708400000003,-1.2713915,0.648472066,3.64880066,-2.2459426799999997,5.93373426
463,1778325824340,2.3557049333333335,-1.3612617666666667,0.24197025800000002,3.5513254333333335,-1.4898172866666668,6.231511466666666
464,1778325824350,2.399594977777778,-1.4048123222222222,0.03663664688888889,3.2695617333333336,-0.9239790200000001,6.518366666666667
465,1778325824360,2.3979676,-1.4414749,-0.07530469,2.8136292,-0.3941803,6.98378
466,1778325824370,2.429681288888889,-1.4387905555555556,-0.0989512311111111,2.5967356555555554,-0.2969495977777778,7.2729340222222225
467,1778325824380,2.664844,-1.3831462,-0.12362729999999998,1.7867279,-0.08792114,8.354233
468,1778325824390,2.78362642,-1.34794071,-0.1071656951,1.58384553,-0.034126277999999996,8.4555925
469,1778325824400,3.414750333333333,-1.1287967333333333,0.0033643993333333337,0.5060882666666666,0.4503987666666667,8.522379333333333
470,1778325824410,3.5163456888888884,-1.0545220888888889,0.04945098644444444,0.19876097444444446,0.6500176222222223,8.279853
471,1778325824420,3.5961929555555554,-0.7333836333333333,0.47385255555555555,-0.2751702211111111,0.8339504666666667,7.089830066666667
472,1778325824430,3.4770392222222224,-0.6129817666666666,0.7141405555555556,-0.1846245688888889,0.7276000777777778,6.3533122
473,1778325824440,3.1220844000000003,-0.5186951,0.9882977,0.25516764000000003,0.46827018666666664,5.68332588888889
474,1778325824450,2.766899511111111,-0.5256918111111112,1.106178011111111,0.92213779,0.18212551555555556,5.1293232
475,1778325824460,2.6982796,-0.5365121,1.1164285,1.0410309,0.14483643,5.0796204
476,1778325824470,2.0763947111111114,-0.5632891833333333,0.7919532066666667,2.060372222222222,-0.020044962222222226,5.134238444444445
477,1778325824480,1.9721286333333334,-0.5058006,0.38360531,1.9621328000000002,0.30090332,5.5685731333333335
478,1778325824490,2.119512011111111,-0.39358893777777776,0.13870668333333333,1.5585140955555556,0.6591898688888889,5.866848422222223
479,1778325824500,2.3062017,-0.25511262,-0.03649977,0.93504333,1.1078339,6.109192
480,1778325824510,2.460012633333333,-0.10889649111111112,-0.09008405977777778,0.5117713033333333,1.3076358555555556,6.140916444444445
481,1778325824520,2.5209605,-0.015437510500000006,-0.04258897639999999,0.4588623,1.3326111,6.144882
482,1778325824530,2.8289855555555556,0.33936953,0.11540027333333334,-0.87431335,2.1347656,5.172287
483,1778325824540,2.8875595666666665,0.7767481777777777,0.4618257466666667,-0.8204583022222223,2.3167453,4.654569855555555
484,1778325824550,2.846503477777778,0.8611784277777778,0.32641518444444445,-0.7152353866666666,2.4713795666666667,4.1496328
485,1778325824560,2.8304367,0.9108718999999998,0.22147019,-0.6506195,2.4894867,3.9419098
486,1778325824570,2.962593566666667,1.0222838333333335,-0.07611765866666666,-0.7234073222222223,2.3494652555555557,3.7751379555555555
487,1778325824580,3.1236576333333335,1.1538168444444445,-0.4515049333333333,-0.9472808999999999,2.1342316,3.5653381
488,1778325824590,3.14112185,1.30532945,-0.8140649,-1.80620726,1.7581848,3.3326934800000005
489,1778325824600,3.0532202666666666,1.3374024666666666,-0.8913496466666666,-3.0037214444444444,1.4251183444444444,3.169242033333333
490,1778325824610,2.9274217777777776,1.200865911111111,-0.5380094288888889,-3.772432055555556,1.3655768222222222,3.2899678666666663
491,1778325824620,2.9318012666666666,1.2410812666666666,-0.1236677433333333,-4.0868020000000005,1.3519592333333332,3.5522003
492,1778325824630,3.012977044444445,1.415799111111111,0.17926216666666667,-4.120178,1.2915955,3.8103485000000004
493,1778325824640,3.5096885555555555,1.8837384888888888,0.4806996866666667,-3.689217444444444,0.9669867333333334,3.957417911111111
494,1778325824650,4.2846266,2.65163439,0.7817644930000001,-2.89885867,0.75753174,3.60677793
495,1778325824660,4.939945000000001,3.3662904,1.0061955333333334,-2.0546366333333332,0.6712646333333333,2.8473510666666666
496,1778325824670,5.583686866666667,4.043752666666666,1.3427905,-1.0729878466666667,0.46584065999999996,1.7909647666666666
497,1778325824680,6.0321026,4.427492,1.6427369,-0.38375854,0.29718018,1.0246887
498,1778325824690,6.124355622222222,4.346587333333334,1.4944587444444446,1.557746028888889,0.07442050444444444,-1.2889065555555554
499,1778325824700,5.854631277777778,4.091235777777778,1.071426211111111,2.818369588888889,-0.1373918322222222,-2.9918485
500,1778325824710,5.273558166666667,3.704649222222222,0.4799672711111111,3.0726674333333337,-0.40589904666666665,-4.097651133333333
501,1778325824720,4.2205455,3.0159465,-0.6850413200000001,2.2552592000000002,-0.43768310666666665,-4.829661066666667
502,1778325824730,3.7743274999999996,2.7964585,-1.1625797,1.135315,-0.15823364,-4.8513184
503,1778325824740,3.6110812,2.4855832222222225,-1.0542990244444443,-1.049131588888889,0.5732557511111112,-4.6959687
504,1778325824750,3.6032029111111115,2.194843255555556,-0.5691673411111111,-3.1098276444444446,1.2695261555555557,-4.567248888888889
505,1778325824760,3.673437977777778,2.0176038333333337,0.3098726611111111,-3.8130306666666667,1.4486100666666666,-4.646082488888889
506,1778325824770,3.759820266666667,1.7557294777777779,1.7026668444444446,-3.8671824333333333,1.4748857333333332,-4.938315455555555
507,1778325824780,3.7872624,1.5042957,2.606764,-2.8786162999999996,1.5094452,-5.2678375
508,1778325824790,3.8701444799999996,1.0729009399999998,3.01209472,0.218331916,1.6764862399999998,-6.2334015
509,1778325824800,3.890865,0.96505225,3.1134274,0.99256897,1.7182465,-6.4747925
510,1778325824810,3.826660728571429,0.5326870471428571,2.589957657142857,2.4251971142857145,1.7080383285714285,-7.061521257142857
511,1778325824820,3.616838,0.039782661999999996,1.8282694400000001,4.2048738,1.5486480999999999,-7.9850098
512,1778325824830,3.4354548,-0.17567205,1.48044,4.577713,1.4497833,-8.245789
513,1778325824840,2.9398557333333333,-0.6032606744444444,0.7455291244444444,4.629555533333334,1.1943647444444445,-8.538737222222222
514,1778325824850,2.5806437,-0.8888081,0.2324531,4.548416,1.0098419,-8.680954
515,1778325824860,2.3994583444444446,-0.9194371444444445,0.04238604111111111,4.027209755555556,0.9802500333333334,-8.537733444444445
516,1778325824870,2.1352252555555555,-0.9558418666666666,-0.2135361111111111,3.0648074555555556,0.9594184222222223,-8.266974888888889
517,1778325824880,2.0911865,-0.9678815999999999,-0.25334412,2.7518463,1.0162354,-8.16803
518,1778325824890,2.06043534,-1.0072122399999999,-0.1455074017,2.222145072,1.07455447,-8.00583968
519,1778325824900,2.074428611111111,-1.0364761555555555,0.06307657188888888,0.9486524866666666,1.1907484111111113,-7.605619622222223
520,1778325824910,2.2323337,-0.9717873,0.2996902766666667,0.77045188,1.0575968533333333,-7.5167947999999996
521,1778325824920,2.395960388888889,-0.9357752422222223,0.4889974011111111,0.6777784577777778,0.9272257533333332,-7.495306944444445
522,1778325824930,2.4453135,-0.9549466399999998,0.5536311,0.6863098,0.9011841,-7.525146500000001
523,1778325824940,2.3113807,-0.9688037822222222,0.6097106866666667,0.8032463866666667,0.9474622955555555,-7.548573833333332
524,1778325824950,2.1905181,-0.9699564999999999,0.6363677,0.8934936500000001,0.9725494400000001,-7.5272675
525,1778325824960,2.0025670666666664,-0.898204311111111,0.5125350888888889,0.9222615566666666,1.0313263,-7.203781
526,1778325824970,1.9584196000000003,-0.83843483,0.39770312,0.824784854,1.1668594300000001,-6.855940200000001
527,1778325824980,1.9239673000000002,-0.7664946333333333,0.21687336333333335,0.6271769233333333,1.3347422,-6.556986466666667
528,1778325824990,1.9560199222222225,-0.698673628888889,0.07095449,0.4154849577777778,1.4527519777777778,-6.3697882777777775
529,1778325825000,2.0223618,-0.64096713,-0.04113651,0.15367126,1.5360718,-6.2670593
530,1778325825010,2.0837434000000004,-0.5475482266666667,-0.07470791933333333,-0.07176038888888889,1.4313862888888889,-6.2526227
531,1778325825020,2.106685,-0.42985764,-0.037232377,-0.40826416,1.156311,-6.2585297
532,1778325825030,1.9825413,-0.35322409666666665,0.26914264,-0.4867977666666666,0.9556901688888888,-6.162601088888889
533,1778325825040,1.8860306888888887,-0.29291533555555554,0.5224197044444444,-0.29533895,0.8785705444444445,-5.923926422222222
534,1778325825050,1.6964242,-0.24779122,0.84674454,0.20799255,0.9262085,-5.722183
535,1778325825060,1.6019009199999998,-0.25807853199999997,0.858422877,0.32847594999999996,0.9156646800000001,-5.6705168
536,1778325825070,0.9283767299999999,-0.25340477,0.7597383,1.6223670166666666,0.7887318888888889,-4.993718666666667
537,1778325825080,0.7290900844444445,-0.3251985,0.5409810088888889,2.0704312,0.8297526055555555,-4.547132866666667
538,1778325825090,0.4626608455555556,-0.5048787222222222,0.03376272333333333,2.4025031444444442,1.0507965222222222,-3.790374777777778
539,1778325825100,0.4317195,-0.59361976,-0.29349136,2.3337402,1.2314148,-3.3674011
540,1778325825110,0.46108744555555553,-0.7239331622222223,-0.6615027622222223,1.9961615444444445,1.3767106666666669,-3.0955267222222225
541,1778325825120,0.44489866,-0.8490264,-1.0011352,1.2753906,1.681488,-2.9412994
542,1778325825130,0.32861799199999997,-1.053021285,-1.3776912700000001,0.12788696,2.2120422,-3.19584504
543,1778325825140,0.22573519000000003,-1.2465948,-1.6926725,-0.9089355500000001,2.671646,-3.506424
544,1778325825150,0.12896709,-1.3624014,-1.8111621999999998,-1.457016,2.857544,-3.7354584000000006
545,1778325825160,-0.5028167566666667,-1.9701982666666664,-1.213750288888889,-2.7106560444444443,2.824518844444444,-4.767934244444444
546,1778325825170,-0.9411033,-2.2993362,-0.730476,-2.6320038,2.4735107,-5.1719666
547,1778325825180,-1.7090289,-2.4362524333333333,-0.0413802,-0.7406311,1.2195179966666667,-4.9940694
548,1778325825190,-2.2274067,-2.5631623,0.34545058,1.3717957,-0.10496521,-4.5818176
549,1778325825200,-2.2868352,-2.636868,0.33642128,1.8135274333333333,-0.33932665,-4.4662848888888895
550,1778325825210,-2.64021763,-3.10849599,-0.626274957,3.00682069,-0.375224305,-3.64347079
551,1778325825220,-3.0612691333333335,-3.6771475222222225,-1.861165522222222,4.642756166666667,-0.10306633555555555,-2.086551222222222
552,1778325825230,-3.5377097,-3.993364422222222,-3.2850366666666666,3.196358611111111,0.9373457444444444,-0.08100384444444447
553,1778325825240,-3.7155460999999996,-4.027749,-3.722984,2.234665,1.0950623,1.0262756
554,1778325825250,-3.3756561333333335,-3.9065753999999995,-3.6198699999999997,0.7963714466666666,0.67746988,2.5045216666666668
555,1778325825260,-2.5441123666666665,-3.7198312666666666,-2.9108023666666667,-0.8888804066666667,-0.011749266666666666,4.303924533333333
556,1778325825270,-2.1454043,-3.5581846,-2.3629751,-1.2311859,-0.26315308,4.8638916
557,1778325825280,-2.1454043,-3.5581845999999997,-2.3629751,-1.2311859,-0.26315308,4.8638916
558,1778325825290,-1.3987238822222223,-3.1922062777777778,-1.6486466777777777,-0.9433305488888889,-0.9908548755555555,5.561292844444445
559,1778325825300,-0.7463040733333333,-2.838377866666667,-1.3123087,0.019444786666666675,-2.138025933333333,6.118428533333333
560,1778325825310,-0.21309298666666668,-2.5379430000000003,-1.1576036555555556,0.6959516888888888,-2.7713809222222223,6.372551777777778
561,1778325825320,0.10590315,-2.405258,-1.0987587,1.011734,-2.8954315,6.553406
562,1778325825330,0.4722194866666667,-2.279730822222222,-1.1001280444444446,1.0383097222222222,-2.7852935777777774,6.677866822222223
563,1778325825340,1.1171817777777777,-2.0661536777777783,-1.1165750555555556,0.8488108077777778,-2.3141428555555557,7.0008121333333335
564,1778325825350,1.44830404,-1.9281504699999998,-1.0127041479999999,0.5045654324,-2.0562073,7.29770824
565,1778325825360,1.9539317777777778,-1.7141146666666667,-0.7733216022222222,-0.10354275177777778,-1.759850411111111,7.836518933333334
566,1778325825370,2.408462,-1.6065809,-0.5764758,-0.44821166999999995,-1.5697021,8.011749
567,1778325825380,2.7686899666666664,-1.5439801444444443,-0.34491965111111106,-1.0597924055555556,-0.9525604133333333,7.789055666666666
568,1778325825390,2.9235439111111114,-1.4884707444444443,-0.1471931311111111,-1.4763675111111112,-0.523440888888889,7.578018177777778
569,1778325825400,2.84035771,-1.4786092400000002,0.010042648000000001,-1.712677,-0.324841312,7.34745788
570,1778325825410,2.6100523,-1.5382445,0.3015205,-1.8511658,-0.23492432,7.095627
571,1778325825420,2.5657965666666667,-1.5801125888888887,0.3574911666666667,-1.8241746888888888,-0.2742309688888889,7.064376866666667
572,1778325825430,2.575017311111111,-1.6768824666666666,0.7664630111111111,-1.010370888888889,-0.972810511111111,6.9225192444444446
573,1778325825440,2.5787050000000002,-1.6955127555555556,0.8376731133333334,-0.5452067155555556,-1.3211466444444444,6.875888344444444
574,1778325825450,2.6005344666666668,-1.7243784333333334,0.8524389833333333,0.12099202000000002,-1.7319794,6.8760069999999995
575,1778325825460,2.6573995666666668,-1.7298696333333332,0.73443822,0.8643748,-2.0979004,6.923767133333333
576,1778325825470,2.7284480333333336,-1.7090168333333333,0.5029363511111111,1.0818125555555556,-2.0400221333333333,6.9849514444444445
577,1778325825480,2.73410808,-1.71191598,0.309892156,0.999705505,-1.84619752,7.0496551400000005
578,1778325825490,2.7064018444444446,-1.7232401,0.19764668,0.7992858855555556,-1.6388888666666666,7.157943744444444
579,1778325825500,2.719525488888889,-1.7247036111111111,0.1462323911111111,0.18331231,-1.2508951777777777,7.510903166666667
580,1778325825510,2.764391088888889,-1.7471435,0.1620962411111111,-0.15810648666666668,-1.1102159111111112,7.770353333333333
581,1778325825520,3.0537352666666666,-1.7239855444444445,0.3731787611111111,-0.5105285733333333,-1.1382700333333335,8.256581666666667
582,1778325825530,3.260424922222222,-1.6868342777777778,0.5394904111111111,-0.5611369,-1.2416619,8.478273000000002
583,1778325825540,3.5705395,-1.6103637,0.7787753,-0.3949585,-1.3017883,8.524673
584,1778325825550,3.817308388888889,-1.507099522222222,0.885508331111111,-0.12975904666666666,-1.2107120111111112,8.322033244444444
585,1778325825560,4.118570055555555,-1.2794216333333333,0.8633819688888889,0.29481506,-0.9518584999999999,7.7395782
586,1778325825570,4.101816390000001,-1.053314335,0.6984918170000001,0.339714048,-0.670515446,7.2165834
587,1778325825580,3.802272333333333,-0.8406876666666666,0.49928796,0.12241109333333333,-0.09484863333333332,6.553762
588,1778325825590,3.5782280000000006,-0.8020445,0.44014528,-0.14888,0.24072266,6.460724
589,1778325825600,3.358929288888889,-0.8311964333333334,0.49180359777777777,-0.6574774777777778,0.8654361411111111,6.736397655555555
590,1778325825610,3.2964506888888887,-0.8278749266666667,0.5769939122222222,-1.3290642666666665,1.7754703555555555,7.328450544444444
591,1778325825620,3.6823731333333334,-0.6751492744444445,0.6763924222222222,-1.2761078,1.49364729,7.729995666666666
592,1778325825630,4.337937533333333,-0.3021753486666667,0.8487375666666667,-0.5330759500000001,0.18851724666666664,7.857650666666667
593,1778325825640,4.815476,0.067653514,0.9603533,0.19096375,-0.7095032,7.588851999999999
594,1778325825650,5.2964763,0.8812550937999999,0.5700327119999999,1.3209350499999999,-1.07430723,6.19569258
595,1778325825660,5.4272056,1.3136884,0.24758434,1.9076233,-1.1329498,5.26178
596,1778325825670,4.974966822222222,1.648100088888889,-0.3650401844444444,1.5622491022222222,-0.8320058333333333,4.363106555555556
597,1778325825680,3.9733574,1.9697135999999997,-1.0614175,0.58084106,-0.4479828,3.818344
598,1778325825690,3.7852703777777776,2.016247911111111,-1.0789890555555555,0.36068047333333336,-0.3746049688888889,3.8434363555555557
599,1778325825700,3.931242811111111,2.5300826333333335,-0.4367119195555555,-0.9971194777777777,0.6341450933333334,4.475965711111112
600,1778325825710,4.209237,2.9140925,0.030372921000000004,-2.2959137,1.7757568,5.1477966
601,1778325825720,5.02735462,3.51996495,0.2154052521,-2.166272,1.9612808299999998,4.88845982
602,1778325825730,5.841085866666667,4.3179099,0.27028068000000005,-1.4628177111111111,1.686345422222222,3.667314222222222
603,1778325825740,6.202453,4.7362237,0.24319024,-1.0692596,1.4274292,2.9006195
604,1778325825750,6.272009466666667,4.979346,0.16008921666666667,-0.37766349111111114,0.8556111688888889,1.1251746200000001
605,1778325825760,6.2762804,5.110974,0.13458532,0.20480537375000002,0.32839584625,-0.4411239575
606,1778325825770,6.015681555555556,4.6256396111111115,0.4568630722222222,0.9527994866666667,-0.4137166266666667,-2.4729410666666665
607,1778325825780,5.67956065,3.9655523500000003,0.7879881,1.5813236375,-0.83587455,-4.0292034375
608,1778325825790,5.4018545499999995,3.480580275,0.8551042,1.83525085,-0.76795960625,-4.9585151750000005
609,1778325825800,4.972486533333334,2.8510857,0.7712495766666666,1.6458045,-0.33275519444444446,-5.501134166666667
610,1778325825810,4.784237,2.5422711,0.74155533,1.44104,-0.084198,-5.660919
611,1778325825820,4.737066066666667,2.1406351444444445,0.8555985644444444,1.0161776777777778,0.3516235355555556,-5.745259566666666
612,1778325825830,4.7807949899999995,1.8612789499999998,0.9817333269999999,0.7210769450000001,0.71369476,-5.808410629999999
613,1778325825840,5.0668145,1.525706011111111,1.2041940333333332,0.7836490166666666,1.1264851666666666,-6.2011295
614,1778325825850,5.257735666666666,1.2117532777777777,1.3487294666666665,1.0300208,1.4458906333333332,-6.743053866666667
615,1778325825860,5.341542,0.9583406000000001,1.3772029,1.394165,1.4918671,-7.255096400000001
616,1778325825870,5.2922282222222226,0.59987466,1.3240527333333332,1.9181688000000001,1.3763444333333335,-7.934485577777778
617,1778325825880,5.152885,0.15978487,1.2496839,2.4706268,1.1989288,-8.6362
618,1778325825890,4.918942666666667,-0.22213764777777778,1.0390747311111113,2.860505822222222,0.9754520177777777,-9.162214666666667
619,1778325825900,4.652921,-0.6355842833333334,0.7401585533333334,3.0247937777777776,0.8291541188888889,-9.46640688888889
620,1778325825910,4.434137,-0.8766057499999999,0.4722385,2.826416,0.77708435,-9.503326
621,1778325825920,4.417594955555555,-1.0446249055555556,0.30817843777777776,2.380425333333333,0.7990976966666666,-9.473032666666667
622,1778325825930,4.437405177777777,-1.1745311444444444,0.2262564288888889,2.0017191555555556,0.8515302866666666,-9.475814666666666
623,1778325825940,4.372879033333334,-1.3702925666666668,0.24323224000000002,1.5140126333333335,1.0563557933333334,-9.63472
624,1778325825950,4.200886755555556,-1.6013740444444444,0.28869493555555553,1.0849507666666667,1.2505900111111112,-9.805513222222222
625,1778325825960,3.9515128,-1.8242792000000003,0.28663346,0.8652649,1.2164917,-9.879379
626,1778325825970,3.6067282,-1.9391082444444443,0.2986061388888889,0.6338094244444444,0.9743262411111111,-9.809061555555555
627,1778325825980,3.2674080888888892,-1.978265733333333,0.35566146888888883,0.37631226,0.78985596,-9.645538
628,1778325825990,3.030767066666667,-1.9416701333333333,0.43567131333333337,0.1505923811111111,0.8335927277777778,-9.320519222222222
629,1778325826000,2.8912790299999998,-1.85407856,0.49640073000000007,-0.11143340799999998,0.9572723199999998,-8.7767177
630,1778325826010,2.8060711222222223,-1.691729022222222,0.6292892688888889,-0.18562316555555555,1.0732863000000001,-8.347993444444445
631,1778325826020,2.6853845555555553,-1.5574303111111112,0.73971179,-0.11886257688888888,1.3351593333333334,-7.746478822222222
632,1778325826030,2.6287222,-1.4644175,0.74948806,0.040222168,1.6197052,-7.301437400000001
633,1778325826040,2.6214010666666665,-1.3815186777777777,0.64729563,0.18557060755555554,1.8444773777777779,-7.000439266666667
634,1778325826050,2.583599377777778,-1.2884511222222221,0.4021948066666667,0.4933709044444444,2.162214555555556,-6.522125255555555
635,1778325826060,2.534137488888889,-1.2291731111111113,0.22810047222222224,0.6628723,2.190155,-6.3000793
636,1778325826070,2.5386258,-1.1796827333333333,-0.052443463333333336,0.7784424,2.0513779555555556,-6.15077551111111
637,1778325826080,2.5204842,-1.2091322,-0.21978721,0.7784424,1.8993378000000003,-6.1296387
638,1778325826090,2.4305731199999996,-1.25123246,-0.314383306,0.7784424,1.8993378,-6.1296387
639,1778325826100,2.309102977777778,-1.2826348555555556,-0.4072224877777778,0.5317755888888889,1.856962422222222,-6.053534633333333
640,1778325826110,1.7833631999999997,-1.3521236111111112,-0.6585198177777778,-0.020329789999999997,2.0218404000000003,-5.7825419333333326
641,1778325826120,1.1832671222222222,-1.455901811111111,-0.9032819000000001,-0.6354658322222222,2.6724786,-5.244462733333333
642,1778325826130,0.9181264,-1.4952897,-0.9794151000000001,-0.85887146,3.0769806,-4.9456024
643,1778325826140,0.5783039333333334,-1.5763035666666667,-1.2034860666666667,-0.9047360044444444,3.4590623555555555,-4.139899377777777
644,1778325826150,0.4859553277777777,-1.6914848777777776,-1.3639950555555556,-0.6820373555555554,3.3567386444444445,-3.7414957999999996
645,1778325826160,0.40853422000000006,-1.9679061666666666,-1.6821774333333335,-0.14443800222222222,2.9302758222222223,-3.5812971555555557
646,1778325826170,0.16569653666666667,-2.2092381666666667,-2.1036238,0.10714721666666666,2.5340576333333336,-3.5806427000000003
647,1778325826180,-0.07787271,-2.3170307,-2.4213052,0.16113281,2.1842957,-3.5852508999999997
648,1778325826190,-0.5097591533333333,-2.4492551555555555,-2.8227652111111112,-0.17206827577777778,1.1409267933333334,-3.521221588888889
649,1778325826200,-0.8106140988888889,-2.5462542888888886,-3.0804078777777777,-0.5099945,0.14697266,-3.4457092
650,1778325826210,-1.1557105388888889,-2.6157296666666667,-2.9498650333333334,-1.2152048866666665,-0.8378702866666666,-3.2354889
651,1778325826220,-1.4833842444444445,-2.705664533333333,-2.6894967666666663,-1.955912311111111,-1.4700470222222222,-2.948104822222222
652,1778325826230,-1.7938393,-2.8208864,-2.3972645,-2.5808716,-1.4738312,-2.504013
653,1778325826240,-2.1623658333333333,-2.8379705333333334,-1.8975439444444444,-2.885538733333333,-1.3028564666666667,-1.7750193333333335
654,1778325826250,-2.432293,-2.848587,-1.5048696,-3.0613098,-1.1601105,-1.0067902
655,1778325826260,-2.4960192666666665,-2.7447818,-1.083626831111111,-2.6146088,-1.1466793444444445,-0.15207757888888887
656,1778325826270,-2.4767926666666664,-2.592693133333333,-0.75736268,-1.9381612666666668,-1.1418253333333332,0.7826996
657,1778325826280,-2.3577577599999997,-2.3964712,-0.6699743399999999,-1.1638031,-1.0948562499999999,1.55705265
658,1778325826290,-2.2392977111111114,-2.2689106,-0.7184089722222222,-0.8186934,-1.0498504888888889,1.9294467777777777
659,1778325826300,-1.9986025999999997,-2.094817,-0.84640235,-0.5227814,-0.9177704,2.3924866
660,1778325826310,-1.6304562555555555,-1.8633960333333333,-0.9381417277777779,-0.4355485755555556,-0.7968037888888889,2.7512987555555557
661,1778325826320,-1.2376738999999999,-1.6395685333333332,-0.9310909666666666,-0.39175415333333335,-0.7892252666666667,3.139404266666667
662,1778325826330,-0.9773187977777779,-1.5079948444444442,-0.7949889,-0.28522746,-0.9978383666666666,3.3645324
663,1778325826340,-0.7420344022222223,-1.4022223555555557,-0.5458202533333334,-0.006252711111111111,-1.3032209888888888,3.5571119111111114
664,1778325826350,-0.5944195409999999,-1.38672129,-0.385805463,0.444747925,-1.71666414,3.77306209
665,1778325826360,-0.35796919777777775,-1.3348768111111111,-0.3530951722222222,1.1435360333333333,-2.3738097999999996,4.204501633333333
666,1778325826370,-0.08854313844444445,-1.2984169333333333,-0.3629657633333333,1.5633697333333334,-2.7122090333333335,4.565088866666667
667,1778325826380,0.11891900733333334,-1.3141181666666666,-0.3776910466666667,1.7784407111111113,-2.7743462111111112,4.895316222222222
668,1778325826390,0.3087688277777778,-1.3479066555555557,-0.41937075333333335,1.8593343,-2.6246694,5.354446433333333
669,1778325826400,0.48150733000000007,-1.3676479,-0.46787085999999994,1.8405151,-2.5018158,5.6537933
670,1778325826410,0.8079064622222222,-1.3809900222222222,-0.5328303688888889,1.6052110555555557,-2.2309977555555554,6.140675822222223
671,1778325826420,1.15273773,-1.4000101800000002,-0.59603721,1.22373048,-1.87958988,6.6406525
672,1778325826430,1.5127313111111111,-1.4175578777777778,-0.6526898600000001,0.7258317755555556,-1.5598263444444445,7.009160277777777
673,1778325826440,1.7080315555555556,-1.4207576333333334,-0.6667098355555555,0.40394253222222226,-1.3938853222222223,7.192153755555555
674,1778325826450,1.7964883,-1.427686,-0.66262805,0.3161316,-1.3619843,7.229858400000001
675,1778325826460,2.3593248,-1.4533528222222223,-0.33510314888888887,-0.3690287266666667,-1.442469288888889,7.483620544444444
676,1778325826470,2.5149923555555556,-1.4181948333333334,-0.17218096844444444,-0.5115932866666666,-1.7519192000000001,7.501317288888888
677,1778325826480,2.6887064444444446,-1.3288965,0.095170492,-0.3185424766666667,-2.1679688222222224,7.377510888888889
678,1778325826490,2.8302896800000004,-1.27485756,0.30435201199999995,0.019490052499999994,-2.30564577,7.19730989
679,1778325826500,2.9326956,-1.2185286,0.4064655,0.27563477,-2.2605286,7.0455627
680,1778325826510,2.915218777777778,-1.1607143666666666,0.33452279444444444,0.5153825711111111,-2.094646888888889,6.907967422222222
681,1778325826520,2.877173,-1.1116315,0.22903581,0.6639252,-1.9191131999999997,6.828781
682,1778325826530,2.8881832666666667,-1.0943308777777778,0.09008595759999999,0.48946635111111114,-1.689722711111111,6.844399355555556
683,1778325826540,2.9176866666666665,-1.1073203333333332,-0.01673022693333333,0.20551045820000002,-1.449152633333333,6.880264333333333
684,1778325826550,2.9284244,-1.1477534,-0.046750065,0.0013275146,-1.3220367,6.920395
685,1778325826560,2.9284244,-1.1477534,-0.046750065,0.0013275146,-1.3220367,6.920395
686,1778325826570,3.1940813,-1.0541568,0.22964555,-0.12756348,-1.7396239999999998,7.042892499999999
687,1778325826580,3.3727449222222226,-0.9409544844444445,0.4351151933333333,0.11720784355555557,-1.8395182222222222,7.0234833
688,1778325826590,3.5496317666666664,-0.80269624,0.5801937966666667,0.37115478333333335,-1.7005615,6.917897533333334
689,1778325826600,3.5750143222222217,-0.66862768,0.4947193366666666,0.4662034833333333,-1.2349209444444444,6.7151421777777776
690,1778325826610,3.4906518,-0.5793300011111111,0.35318003444444446,0.33280267644444445,-0.8311801622222222,6.611278977777777
691,1778325826620,3.317819,-0.50454015,0.18120006,-0.007736206,-0.37713623,6.605072
692,1778325826630,3.1932817555555553,-0.39865931555555556,0.13447712488888888,-0.5445014124444444,0.09607103166666667,6.737577644444444
693,1778325826640,3.15376292,-0.291086982,0.174049889,-1.42899478,0.87262878,6.987451210000001
694,1778325826650,3.3896660666666665,-0.07606961333333334,0.33533646111111115,-1.7580685,1.136130411111111,7.044325077777778
695,1778325826660,3.6913482,0.2373133033333333,0.5361823,-1.5029398666666667,0.7452985955555556,6.803629611111111
696,1778325826670,3.8878148,0.49731517,0.6977481,-1.1821747,0.35736084,6.57045
697,1778325826680,3.933805888888889,0.8050449722222223,0.7462340488888889,-0.6424408066666667,-0.01832580666666665,6.1645813333333335
698,1778325826690,4.008067577777778,1.4995649333333334,0.7525252955555556,0.43702698,-0.7696991,5.352844
699,1778325826700,3.8488872222222223,1.7354859111111112,0.27715552222222223,0.6491885866666666,-0.49426100333333334,4.613979766666667
700,1778325826710,3.6110259222222223,1.8165538,-0.15949003333333334,0.6230875688888888,-0.22657945777777774,4.013882111111111
701,1778325826720,3.0992653,1.8359698,-0.6572587,0.17285156,-0.25357056,3.7416382
702,1778325826730,2.7814538200000003,2.0206975999999996,-0.8193617700000001,-0.629840094,-0.46982421599999996,4.0584473
703,1778325826740,2.7913468000000003,2.297564,-0.7478859333333333,-1.3813832666666666,-0.48384602666666665,4.4321035
704,1778325826750,3.1523299714285713,2.6117935142857145,-0.5882257257142857,-1.9583020857142854,-0.15655517714285713,4.575210642857143
705,1778325826760,3.6998897428571427,2.9661647428571425,-0.4935490228571428,-2.6076572857142857,0.35227312714285713,4.554748628571429
706,1778325826770,3.7883606,3.0179396,-0.49764648,-2.669281,0.40211487,4.4969177
707,1778325826780,4.492154666666667,3.960217722222222,0.08022763688888891,-2.5090857444444445,-0.05353291688888888,2.843685522222222
708,1778325826790,4.7769156,4.5208445,0.6220904,-2.0487823,-0.4634246799999999,1.6521301
709,1778325826800,4.792087133333333,4.895878499999999,0.99785732,-0.9462127666666666,-0.5545043933333333,0.41996257333333337
710,1778325826810,4.967184922222223,5.12709541111111,1.0737176066666667,0.14562648888888888,-0.4953816644444444,-0.7746700555555556
711,1778325826820,5.3735123,4.7952867,0.56510246,0.7502136,-0.38885498,-1.9175873
712,1778325826830,5.306559833333333,4.450148722222222,0.2440854811111111,0.6419728463333334,-0.273454454,-2.6748725
713,1778325826840,4.712729,3.5359511,-0.32924607,0.022094727,0.114486694,-4.4060516
714,1778325826850,4.16780954,3.09481772,-0.28553547300000004,-0.6608428872000001,0.42192078760000007,-4.51358483
715,1778325826860,3.4154425,2.4607573,-0.15828387,-1.7451782,0.9081116,-4.4987183
716,1778325826870,3.6785356000000005,2.293618266666667,0.5624582066666667,-2.252777066666667,1.2821960666666667,-4.303421
717,1778325826880,4.060268300000001,2.1955888,1.2329646444444444,-2.126597088888889,1.5865071555555557,-4.4647505333333335
718,1778325826890,4.4060707,2.0276768,1.8362746000000003,-1.5731354,1.7853546,-4.841736
719,1778325826900,4.504561433333333,1.9413620666666667,1.9084072444444447,-1.2111206222222224,1.778549188888889,-5.028688344444444
720,1778325826910,4.849279,1.6392605,2.1608715,-0.8737793,1.8476714999999997,-5.2172394
721,1778325826920,5.002993133333333,1.4056164666666666,1.9366637666666666,2.0194854666666666,1.4824574666666668,-6.806615333333333
722,1778325826930,5.182199355555555,1.0441805444444445,1.5559349444444444,3.2166018666666667,1.298280511111111,-7.738845777777779
723,1778325826940,5.214631,0.7781049,1.1778073,3.6594543,1.2452545,-8.291061
724,1778325826950,5.0849825555555555,0.4543216711111111,0.7754119,3.845516544444444,1.2722456555555555,-8.905841222222222
725,1778325826960,4.827434,0.08180795,0.3334924,3.8352203,1.3107758,-9.445282
726,1778325826970,4.456712055555555,-0.27196729333333336,-0.15319969111111112,3.372311022222222,1.1067250888888889,-9.696261999999999
727,1778325826980,4.195163599999999,-0.5323217333333333,-0.4627457066666667,2.5715823666666666,0.7164781444444445,-9.831427666666666
728,1778325826990,4.0762258,-0.6896568,-0.5764758,2.1291962,0.53419495,-9.828766
729,1778325827000,3.8929390666666666,-0.9084271111111111,-0.5081670933333333,1.3347490266666666,0.6229671944444444,-9.755381333333332
730,1778325827010,3.661125444444444,-1.1680906,-0.4029512688888889,0.2423824711111111,0.7739410444444444,-9.642345944444445
731,1778325827020,3.448619422222222,-1.2998951666666665,-0.28450164666666666,-0.37453206,1.0228017333333332,-9.423258666666667
732,1778325827030,3.1893366888888885,-1.3688272111111113,-0.11435381066666667,-1.0264790666666666,1.266566,-9.009226333333334
733,1778325827040,3.1026826,-1.3802173,0.013776462,-1.2530212,1.3187714,-8.759247
734,1778325827050,3.1066143333333334,-1.3501165888888889,0.23578777622222225,-1.2911309111111111,1.2750905333333333,-8.522288333333332
735,1778325827060,3.1169598,-1.3216429,0.5806008,-1.2125397,1.2063751,-8.212769
736,1778325827070,3.03374855,-1.32301008,0.7134164700000001,-0.8278182900000001,1.29937592,-8.0555878
737,1778325827080,2.8812817666666666,-1.3261992333333332,0.7824357166666666,-0.24048359500000002,1.4267120666666666,-7.8218179999999995
738,1778325827090,2.7943165,-1.3226197,0.72776645,0.071640015,1.4295502,-7.678008999999999
739,1778325827100,2.5668954444444445,-1.3235416444444443,0.48811583555555554,0.49804685944444443,1.4548797777777778,-7.3629777333333335
740,1778325827110,2.4300201222222224,-1.322998977777778,0.36536856777777776,0.6197272111111111,1.5014530222222222,-7.202650255555556
741,1778325827120,2.177637333333333,-1.3255070555555557,0.21763259666666668,0.6104905711111112,1.7074127111111113,-6.698662655555555
742,1778325827130,1.931451533333333,-1.3098064999999999,0.081664847,0.51835124,1.9474487333333335,-6.133895866666666
743,1778325827140,1.8038096,-1.2775915,-0.002210269,0.4104004,2.125702,-5.7589264
744,1778325827150,1.6089980222222222,-1.2241693,-0.12429232633333334,0.1792331287111111,2.3151991555555558,-5.1718496
745,1778325827160,1.4347959,-1.1830181,-0.22247033000000002,-0.0045318604,2.4250336,-4.7059174
746,1778325827170,1.3527378333333333,-1.1617581,-0.26791937,-0.21592712466666664,2.474397466666667,-4.368816822222223
747,1778325827180,1.23081178,-1.1424565,-0.347256752,-0.7544799839999999,2.67698362,-3.59569094
748,1778325827190,1.4680686333333335,-1.227112,-0.3740300866666667,-1.0513305777777777,3.188310411111111,-3.4866604333333333
749,1778325827200,1.8411913333333334,-1.4735282333333333,-0.46904985999999993,-1.213244988888889,3.8309614111111108,-3.6644422999999997
750,1778325827210,1.7836746,-1.7128667,-0.5707409,-0.9434950222222223,4.241682266666667,-4.197316666666667
751,1778325827220,0.9769030400000001,-1.9224714666666667,-0.8247227266666667,0.2612559,3.5078836000000004,-4.557673
752,1778325827230,0.19529606666666666,-1.8839651999999998,-1.1748086333333332,1.6822018333333333,1.9737921777777778,-4.524883733333334
753,1778325827240,-0.25562765555555556,-1.9043567777777777,-1.8213304111111113,2.650292322222222,0.34581839555555555,-4.243771011111111
754,1778325827250,-0.4299388788888889,-2.090112677777778,-2.490345588888889,2.6815371999999997,-0.4199896911111111,-3.991482222222222
755,1778325827260,-0.56476647,-2.3248405,-3.1363919,1.8080292,-0.33239746,-3.74292
756,1778325827270,-0.8180032944444444,-2.5064463555555556,-3.308330411111111,0.3731147022222222,0.19336784666666665,-3.4048733444444443
757,1778325827280,-1.2788652555555555,-2.7978104,-3.4961867,-2.0959964444444443,1.0680660555555554,-2.7825181333333333
758,1778325827290,-1.5227648999999999,-2.9158742,-2.79261378,-3.35531615,1.06230165,-1.8344955500000002
759,1778325827300,-1.6464554555555555,-3.027210011111111,-1.8126126444444444,-3.8724975333333336,0.8498738533333333,-0.9522806666666668
760,1778325827310,-1.6081114,-3.0219898,-1.1407367,-3.5870056,0.60983276,-0.5375366
761,1778325827320,-1.6694514444444446,-2.9560401555555558,-1.043846091111111,-3.1386498188888887,0.40453083999999995,-0.4228413733333334
762,1778325827330,-1.894310477777778,-2.7263416888888887,-0.7210127755555555,-2.6394653,0.1933136,-0.19291687
763,1778325827340,-2.140698433333333,-2.7578520444444443,-1.124898988888889,0.6011945972222222,-1.5902998,0.4363047277777778
764,1778325827350,-2.3866947555555553,-2.7904885666666663,-1.5389427111111111,1.3590138666666667,-2.2981669,0.8888600666666666
765,1778325827360,-2.5256453,-2.8062437,-1.7910271,1.4921722,-2.5705261,1.2862091
766,1778325827370,-2.5325056666666668,-2.724945544444444,-1.8419400444444445,1.158871091111111,-2.586386822222222,2.2041100555555553
767,1778325827380,-2.481958,-2.6363795,-1.8101854000000002,0.80615234,-2.4959564,3.0087433
768,1778325827390,-2.2762591555555556,-2.5566820555555556,-1.6811878888888887,0.40980190333333333,-2.2706502333333334,3.7738885
769,1778325827400,-1.818734,-2.4286873,-1.3433038,-0.17018127,-1.8914185,5.0034485
770,1778325827410,-1.73757263,-2.41429936,-1.2802639299999998,-0.21406555,-1.86457522,5.1551453
771,1778325827420,-0.9899692166666667,-2.2797307,-0.8966789000000001,0.05560303277777778,-2.368123366666667,6.252532955555555
772,1778325827430,-0.12448745,-2.1236157,-0.5315689,0.4727173,-3.0488281,7.3427734000000004
773,1778325827440,0.47521594777777776,-1.9743603666666667,-0.4635045666666666,0.8568657888888889,-3.4630346999999997,7.503979144444445
774,1778325827450,1.350826033333333,-1.659974911111111,-0.35766469333333334,1.4796295444444445,-3.988032011111111,7.5278320222222215
775,1778325827460,1.6766562,-1.4462345,-0.28800067,1.7078857,-4.0278015,7.3608856
776,1778325827470,2.018430533333333,-1.2043195,-0.10768290022222222,1.9484557444444444,-3.603529155555555,7.082609455555556
777,1778325827480,2.23597346,-1.05831764,0.0233431463,2.0587828999999997,-3.30928036,6.9710938
778,1778325827490,2.420122688888889,-0.9399925333333334,0.18808820333333334,2.2598165000000003,-2.6125979777777775,6.921569711111111
779,1778325827500,2.5152235555555555,-0.9062850777777778,0.24423480555555555,2.3976508222222224,-2.0685425000000004,6.947314822222221
780,1778325827510,2.586785788888889,-0.956845288888889,0.1893086937777778,2.473748111111111,-1.526624911111111,7.074859577777778
781,1778325827520,2.6841245666666667,-1.0772606666666666,-0.011197555333333336,2.4569448,-0.7183787233333333,7.4727324333333325
782,1778325827530,2.7512405,-1.1083372,-0.11874634999999999,2.3603668,-0.4623565700000001,7.7092133
783,1778325827540,2.9449807333333333,-1.1016800333333334,-0.3481333544444445,2.024095255555556,-0.648139118888889,8.065009255555557
784,1778325827550,3.172211911111111,-1.0188493555555556,-0.4511394155555555,1.6362812999999998,-0.9513854888888889,8.280961555555557
785,1778325827560,3.4421122444444445,-0.8747201866666666,-0.27577032444444444,1.1389193755555556,-1.0677286888888888,8.209951
786,1778325827570,3.594433,-0.722019432,0.015729151999999996,0.7879303,-0.971777372,7.97681886
787,1778325827580,3.6612069999999997,-0.6074102,0.3271478,0.65327454,-0.75531006,7.707092300000001
788,1778325827590,3.5847901999999996,-0.5803064555555556,0.6021184555555555,0.8826649799999999,-0.47621154666666665,7.3733062333333335
789,1778325827600,3.4503827666666664,-0.5746248,0.8019605466666666,1.4172515666666667,-0.1220143619,6.930689466666667
790,1778325827610,3.3444070333333333,-0.5820815244444444,0.7337330844444444,1.8939022555555556,0.0336388489,6.708643577777778
791,1778325827620,3.2494830666666665,-0.5912475466666667,0.48882113777777775,2.4381917,0.16887580333333332,6.4749925
792,1778325827630,3.164063,-0.5927658,0.24917088,2.6431885,0.23326111,6.3888245
793,1778325827640,3.1301263599999998,-0.552997002,0.08048987309000001,2.58353576,0.369189454,6.3796631
794,1778325827650,3.0762012,-0.4801338600000001,-0.22393556,2.332138,0.7376709,6.350479
795,1778325827660,3.0033645777777775,-0.4299939977777778,-0.33197170444444446,1.9586368111111112,0.9429067,6.356862555555555
796,1778325827670,2.874326222222222,-0.3372790111111111,-0.3852710111111111,1.0840539,1.2900679,6.4549864
797,1778325827680,2.784431666666667,-0.3288183333333333,-0.3275776266666666,0.3583679166666667,1.5880991666666668,6.5725810000000005
798,1778325827690,2.763117466666667,-0.32830332444444443,-0.23437509999999998,-0.16917250111111112,1.8411644777777778,6.675916888888889
799,1778325827700,2.7696662,-0.27012256,-0.12997346,-0.48815918,2.0122528,6.7393036
800,1778325827710,2.950959588888889,-0.11275983888888888,0.053193012000000005,-0.6827494322222223,2.0561625333333335,6.739181533333333
801,1778325827720,3.3248960333333333,0.09132702,0.15145242111111112,-0.5797644755555555,1.8550058999999999,6.501510655555555
802,1778325827730,3.5367785555555553,0.23758550333333334,0.049965142222222224,-0.39204067555555555,1.6610157888888888,5.982009877777778
803,1778325827740,3.570418066666667,0.49455014666666663,-0.13456976,-0.31292216,1.5330606666666666,5.178680433333334
804,1778325827750,3.4400916,0.63642836,-0.2111219,-0.36512756,1.554718,4.7792053
805,1778325827760,3.0915374,0.8686899911111111,-0.32946246,-0.5289967777777778,1.5142398666666665,4.552956455555556
806,1778325827770,2.7585618,1.1042868,-0.46445358,-0.7459564,1.3821564,4.3824005
807,1778325827780,2.592697133333333,1.2725918444444444,-0.6274291444444445,-1.2640262666666666,1.3712005333333335,4.398020388888889
808,1778325827790,2.6198142,1.3723842,-0.6855691,-1.805893,1.4801483,4.4005127
809,1778325827800,2.6198142,1.3723842,-0.6855691,-1.805893,1.4801483,4.4005127
810,1778325827810,2.8958034444444447,1.6589071222222223,-0.4867849044444445,-2.3546804,1.4478403666666668,4.134363933333334
811,1778325827820,3.1492966666666664,1.9288608333333335,-0.45211554000000004,-2.3099924444444446,1.3182339555555556,3.9095967666666667
812,1778325827830,3.3162324,2.1272523,-0.4617688999999999,-2.1703253444444446,1.125654458888889,3.543679111111111
813,1778325827840,3.7021134222222227,2.6317461555555557,-0.57196092,-1.7892608666666665,0.5577477322222222,2.583821666666667
814,1778325827850,3.879882,2.7992644,-0.59587824,-1.5283966,0.15815735,1.7794189999999999
815,1778325827860,3.5930661899999996,2.91542296,-0.461463553,-1.34479981,0.005712890900000002,1.11384431
816,1778325827870,3.218107822222222,3.090681833333333,-0.16785531555555558,-1.112118188888889,-0.11248440222222222,0.4858364555555556
817,1778325827880,3.0789818888888885,3.4098009777777776,0.16559457555555557,-0.514021108888889,-0.15071275777777776,0.33278739999999996
818,1778325827890,3.4969979777777778,3.750653377777778,0.053096751111111104,0.3042907733333334,-0.3838331466666667,0.3569946262222222
819,1778325827900,4.41925,3.6876323,-0.21075638,0.46418761999999997,-0.21522522,-0.015029907
820,1778325827910,4.945084666666666,3.4597919666666668,-0.26396079333333333,0.4409908711111111,0.08340622977777777,-1.5703142356666666
821,1778325827920,5.197219199999999,3.21319807,-0.27208799800000005,0.428343201,0.280924974,-3.0573135999999996
822,1778325827930,4.5503082,2.8150467999999997,-0.2468771366666667,0.37187195,0.059270220000000005,-4.039230333333333
823,1778325827940,3.8225286,2.486383,-0.26542515,0.19468689,-0.16835022,-4.586075
824,1778325827950,3.6143482,2.4269545,-0.21014665,0.11608717444444444,-0.16882494,-4.606433488888889
825,1778325827960,3.6233779666666663,2.2755986,0.21211427333333333,-0.4572652166666667,0.4763183733333334,-4.634541766666667
826,1778325827970,3.7183163,2.1421394,0.5555848,-0.7880249,1.0604401,-4.716568
827,1778325827980,3.8218783999999997,1.9937667,0.6760813277777777,-0.40648905999999996,1.3672383333333336,-5.2188365333333335
828,1778325827990,3.88154241,1.75046523,0.753173805,0.261633302,1.19407651,-5.80670938
829,1778325828000,3.951852,1.5615550777777778,0.6056439333333334,0.9011298044444445,0.7622799333333332,-6.363706766666667
830,1778325828010,4.1170518666666664,1.4361091222222222,0.5130646222222223,1.1693454222222222,0.5653262666666667,-6.798568722222223
831,1778325828020,4.2542667,1.3418759,0.4751674,1.2897797,0.49105835000000003,-7.105423
832,1778325828030,4.178595277777777,0.9494324222222222,0.35823742444444445,1.4083709333333334,0.4825388566666667,-7.743871166666667
833,1778325828040,4.032906533333334,0.7159921422222222,0.2766004077777778,1.427786911111111,0.4486846944444445,-8.114103611111112
834,1778325828050,3.884588288888889,0.49777747777777775,0.19938201444444445,1.3557027444444443,0.38570827888888887,-8.28934588888889
835,1778325828060,3.7599691666666666,0.20658971266666667,0.11827383555555555,1.1596357644444444,0.3567081011111111,-8.386637222222223
836,1778325828070,3.7280781,0.039829947,0.0675913,0.97073364,0.39730835,-8.402374
837,1778325828080,3.77087,-0.07308715955555556,0.009383748944444445,0.6434546733333333,0.47756448888888886,-8.398003222222222
838,1778325828090,3.8559642000000003,-0.15346359,-0.0011105785,0.20640564,0.5613556,-8.427948
839,1778325828100,3.9388767111111114,-0.22057823666666668,0.08830982794444445,0.013695609466666666,0.6217854777777778,-8.516601333333334
840,1778325828110,4.034804755555555,-0.4182510133333333,0.33886175555555553,-0.2809109277777778,0.8292236166666666,-8.732727333333335
841,1778325828120,4.0402284,-0.5811732,0.47455764000000006,-0.25061035,0.92248535,-8.904114
842,1778325828130,3.807451511111111,-0.8158484888888888,0.5811289377777779,0.023518876666666664,0.8124118344444444,-9.15386288888889
843,1778325828140,3.5944571000000005,-0.9505541,0.6322178,0.22396849999999996,0.71795654,-9.26152
844,1778325828150,3.337898788888889,-0.9910948555555554,0.5930603333333333,0.40637206666666664,0.6187676355555555,-9.110960222222223
845,1778325828160,3.0381285666666664,-1.0238123000000001,0.49526151333333335,0.5535024,0.6190592533333333,-8.797592333333334
846,1778325828170,2.8855925,-1.0326793,0.3916998,0.5084076,0.78985596,-8.522751
847,1778325828180,2.732772066666667,-1.0520007111111112,0.3056697144444444,0.36317613555555556,1.0422668377777777,-8.272832333333334
848,1778325828190,2.551899,-1.0823454555555554,0.24663483888888887,0.20587158,1.315567,-8.0061035
849,1778325828200,2.2381770222222226,-1.1302078111111111,0.24118459999999997,0.20290967777777777,1.4654778333333336,-7.554850166666666
850,1778325828210,2.0012515,-1.1363224,0.25132671,0.3384924888888889,1.3418511555555555,-7.217809000000001
851,1778325828220,1.7911188999999998,-1.1271298,0.26198453,0.44767760000000006,1.2202301,-6.978119
852,1778325828230,1.6252574,-1.02322187,0.138234513,0.673252865,0.93346099,-6.3707137199999995
853,1778325828240,1.5895271,-0.9788645,0.052948464,0.74861145,0.7829437,-6.0747833
854,1778325828250,1.5568099666666668,-0.9106641722222223,-0.17877115911111108,0.47502983555555556,0.6952294288888888,-5.751062955555556
855,1778325828260,1.5594671666666668,-0.8409047777777778,-0.40380588333333334,-0.005286321111111109,0.7905697422222223,-5.417456555555556
856,1778325828270,1.6161296,-0.7983846,-0.52937263,-0.5914917,1.169632,-5.1879425
857,1778325828280,1.6161296,-0.7983846,-0.52937263,-0.6939341222222222,1.2567461111111111,-5.162612888888889
858,1778325828290,1.4428499,-0.84121656,-0.6823976,-2.4594269,2.8096008,-4.683548
859,1778325828300,1.33360942,-0.911163696,-0.513802456,-2.59924622,2.93343963,-4.6220246000000005
860,1778325828310,1.170724811111111,-1.0256565333333334,-0.23604287333333332,-3.1803232777777777,3.4812537444444445,-4.206534544444444
861,1778325828320,1.1741412,-1.059159,-0.14900884,-3.3569183,3.7134857000000006,-3.9165496999999996
862,1778325828330,1.0555839388888888,-1.451793288888889,0.1320506511111111,-2.211875088888889,3.6058247999999997,-3.9927198444444443
863,1778325828340,0.9686453299999999,-1.657344,0.2086581,-1.4548798,3.5100098,-4.0763397
864,1778325828350,0.3115480277777778,-1.9327083111111112,-0.21345470888888887,-0.06282551777777773,3.0543755555555556,-4.069832655555555
865,1778325828360,-0.2538377,-1.9790933666666666,-0.630413,0.7374318400000001,2.6696980999999997,-3.8206736
866,1778325828370,-0.6520907850000001,-2.00735858,-1.0134599899999999,1.22682188,2.3021117799999997,-3.2805877600000004
867,1778325828380,-0.8916405333333333,-2.1563187333333333,-1.4161545333333332,1.4055328333333332,2.141855833333333,-2.6911468333333333
868,1778325828390,-0.9825929,-2.2832296,-1.690232,1.4229279,2.1198425,-2.2217255
869,1778325828400,-0.8858920022222222,-2.4542856,-2.2893651111111115,1.0452965555555556,2.186894722222222,-1.5872362
870,1778325828410,-0.8831534044444445,-2.5433531444444446,-2.698255911111111,0.6655883888888889,2.1883205444444447,-1.3956129444444445
871,1778325828420,-1.2124535333333333,-2.6455317666666662,-3.059921,0.14461263333333332,1.7551727000000001,-1.3130493333333333
872,1778325828430,-1.5640320222222222,-2.728863877777778,-3.191576644444444,-0.2575920933333333,0.9176381366666667,-1.2492506
873,1778325828440,-1.8159263999999997,-2.85652,-3.133586,-0.40507507,-0.005355835,-1.1862793
874,1778325828450,-2.12741708,-2.96113481,-2.80841594,-0.2091079705,-1.311270147,-0.791862488
875,1778325828460,-2.4187210222222224,-3.044308188888889,-2.394078511111111,0.157696195,-2.658884688888889,-0.08869594555555556
876,1778325828470,-2.4825687,-3.040456933333333,-2.1239213,0.41613769888888885,-3.1312714222222224,0.7403208511111111
877,1778325828480,-2.4668131888888887,-2.9853816222222225,-1.9177189444444442,0.5759853833333333,-3.124930511111111,2.0230221444444445
878,1778325828490,-2.4065442,-2.9477973,-1.8281226,0.5627289,-2.8171234,2.9948883
879,1778325828500,-2.208086022222222,-2.8393810444444445,-1.7344188666666664,0.47490777444444443,-2.5002102111111113,4.017779877777778
880,1778325828510,-1.8511928000000002,-2.715943,-1.5624672,0.35689798666666667,-2.0789608333333334,5.657398
881,1778325828520,-1.4033754777777778,-2.605235688888889,-1.4758403222222223,0.3403269422222222,-1.928168388888889,6.363852622222222
882,1778325828530,-0.35013224,-2.2431358444444442,-1.5213978333333333,0.24232483000000002,-1.7779744555555554,7.297734577777778
883,1778325828540,0.18668607,-2.0562563,-1.6121337,0.071640015,-1.789154,7.462616
884,1778325828550,0.5428606422222222,-1.9068929999999997,-1.5762839666666666,-0.19893731555555555,-2.005693211111111,7.385616722222222
885,1778325828560,1.0278295,-1.6949294,-1.4467851,-0.6258222822222222,-2.495120611111111,7.245942822222222
886,1778325828570,1.304563622222222,-1.6460496444444446,-1.138199922222222,-0.7474958644444444,-3.0076429888888887,7.241799133333334
887,1778325828580,1.7490587666666666,-1.5390719222222222,-0.5319216433333334,-0.6814439511111111,-3.6973453777777774,7.274768355555556
888,1778325828590,2.0374947,-1.4450151,-0.14962012,-0.44448853,-3.9798737000000006,7.243697999999999
889,1778325828600,2.231032211111111,-1.3552559,0.19027083111111112,-0.04708015444444443,-4.006264555555556,7.142735666666667
890,1778325828610,2.4102929,-1.2299999,0.5513136,0.6175842,-3.9164886,6.977920499999999
891,1778325828620,2.4656113,-1.1786936666666668,0.6558646944444444,1.2425435333333334,-3.5585530333333333,7.011291466666666
892,1778325828630,2.519928144444444,-1.1430335111111112,0.6665358033333333,1.7949354333333334,-3.1832885444444443,7.142676444444444
893,1778325828640,2.6274620333333334,-1.1135974222222222,0.5668246755555556,2.028767911111111,-2.8368971444444444,7.253755399999999
894,1778325828650,2.8360503,-1.1098008,0.33751944,2.1521115,-1.9887101666666664,7.3444857555555565
895,1778325828660,2.957346,-1.1017483,0.10542096,1.9305267,-1.4035187,7.324127
896,1778325828670,2.9525463555555556,-1.1139235222222221,0.02249569422222222,1.5646718333333334,-1.0558895666666668,7.265536822222223
897,1778325828680,2.88606901,-1.1531713,-0.0336920572,0.97636564,-0.621508783,7.174829239999999
898,1778325828690,2.7519305444444444,-1.1252186,0.01097046288888889,0.7093251688888889,-0.7734256233333334,7.220202977777777
899,1778325828700,2.612452366666667,-0.9946064866666666,0.31396758,0.30830891666666665,-1.4489746000000001,7.482498066666668
900,1778325828710,2.6489801,-0.94750386,0.5919492,0.28842163,-1.6964722,7.6458282
901,1778325828720,2.79724465,-0.931578585,0.904494605,0.53689957,-1.51124955,7.7572823
902,1778325828730,3.014364225,-0.9042442,1.186380875,0.9721984862499999,-1.02875705,7.8471603375
903,1778325828740,3.1035974,-0.8723952166666668,1.12074066,1.4106801000000002,-0.5200652983333333,7.776148466666666
904,1778325828750,3.162367977777778,-0.7823859666666667,0.83475906,1.8338334555555553,-0.05761549166666666,7.640036666666666
905,1778325828760,3.2005486,-0.6553673,0.50262386,1.9614257999999998,0.10437012,7.530258
906,1778325828770,3.254973622222222,-0.4999029,0.31209657333333335,1.8150092222222223,0.23569403777777775,7.353066222222221
907,1778325828780,3.3082998,-0.27353984,0.16924189,1.5736694,0.44152832,7.08284
908,1778325828790,3.3377632777777775,-0.0005475144444444494,0.18993294444444445,1.2993672666666667,0.7339324833333333,6.653371166666666
909,1778325828800,3.3212758,0.21563369333333332,0.20743656,1.0190226,0.9832102333333333,6.049540166666667
910,1778325828810,3.1962098888888892,0.3763316,0.22419512888888887,0.8309393822222222,1.1550716666666667,5.446478833333334
911,1778325828820,3.0209718,0.47398431399999996,0.24441187599999997,0.6910949759999999,1.3917388800000001,4.9746856
912,1778325828830,2.8870575,0.51257086,0.25429603,0.6096039,1.5802917,4.720627
913,1778325828840,2.777123188888889,0.49152620666666663,0.10628802688888889,0.36482746666666666,1.9041306888888891,4.442637111111111
914,1778325828850,2.7040145000000004,0.47164848666666664,-0.073025978,0.09116617666666665,2.0024922333333333,4.3083548
915,1778325828860,2.6565588333333334,0.4808417755555555,-0.22455858222222222,-0.30108981444444444,1.8223368333333332,4.173904444444444
916,1778325828870,2.6168448666666664,0.52424387,-0.2869429866666667,-0.6074676466666666,1.5092672,4.0242971
917,1778325828880,2.578188811111111,0.5866951733333334,-0.3105354422222222,-0.8237152,1.2127686,3.8854522999999994
918,1778325828890,2.5645216555555557,0.6517232666666667,-0.24480218888888888,-1.2788238444444444,0.91958618,3.5099435777777774
919,1778325828900,2.5374585333333335,0.6263551833333333,-0.18487242666666667,-1.560467211111111,0.8794013122222223,3.2776590888888886
920,1778325828910,2.4093962999999996,0.6065718333333333,-0.12000780333333333,-1.8293304666666665,0.9391733833333333,3.1228993999999997
921,1778325828920,2.28777482,0.6906585,-0.12091867,-2.0146789800000002,0.9520019550000001,3.14807591
922,1778325828930,2.2808201,0.7870128,-0.14888752,-2.1339874,0.9214325000000001,3.2233887
923,1778325828940,2.5259340666666668,0.957608,-0.12964733433333334,-2.2724762444444444,0.8933071444444445,3.1643879444444445
924,1778325828950,2.760839466666667,1.1529759666666668,-0.014289753999999997,-2.250101733333333,0.9244435466666666,2.9496205
925,1778325828960,2.9272051111111113,1.4486922555555557,0.08740128,-1.9411756888888891,0.8832516222222222,2.4581756777777777
926,1778325828970,2.9158975000000003,1.6187998000000001,0.09159109333333333,-1.5514662444444443,0.8032938777777778,2.0259128222222222
927,1778325828980,2.8212845,1.741398,0.08125888,-1.1102753,0.70677185,1.7496033
928,1778325828990,2.720935577777778,2.0146204222222224,-0.017746788277777776,-0.49182638888888897,0.38707309,1.6447313222222222
929,1778325829000,2.80539682,2.4524713399999998,-0.21873605300000004,0.139608767,-0.023094177,1.57926485
930,1778325829010,3.0742087333333337,2.782994,-0.30142406666666666,0.4904140877777778,-0.08147514977777777,1.3660379666666667
931,1778325829020,3.3325573333333334,3.1650929666666667,-0.2835943133333333,1.0402611666666666,0.13903808244444443,0.8168351733333332
932,1778325829030,3.3967712,3.7292447,-0.05504674,1.5800629,0.3163452,0.40257263
933,1778325829040,3.286199822222222,4.228286288888889,-0.19409165222222222,2.018773433333333,0.008538135555555552,0.2120090088888889
934,1778325829050,4.377759,4.3358493,-0.9284063000000001,2.3204193,-0.6274872,-0.6110382
935,1778325829060,4.8065144222222225,4.1539175,-1.2516198777777778,1.930055388888889,-0.6490292222222221,-1.9565819333333334
936,1778325829070,4.6425886,3.7609720555555555,-1.5399466666666666,1.07192145,-0.6202036611111112,-3.944252822222222
937,1778325829080,4.0951414,3.3685277,-1.5091408,0.45832825,-0.61735535,-4.6941986
938,1778325829090,3.197661288888889,3.0401897888888887,-1.5175197333333332,-0.8770955333333332,-0.768746271111111,-4.755862777777778
939,1778325829100,2.7569754,2.8995726,-1.3540425,-2.371187,-0.8121304011111111,-4.391070877777778
940,1778325829110,3.348692333333333,2.8267618666666667,-0.5667138933333333,-3.4224870444444444,-0.35547891888888894,-4.137415544444444
941,1778325829120,4.059671666666667,2.7388060666666667,0.34991170555555556,-4.464024833333333,0.5556165911111112,-4.0866987777777775
942,1778325829130,4.397773,2.7315378,0.9547397500000001,-4.5175323,0.8250122,-4.207901
943,1778325829140,4.897723822222222,2.5222319333333334,1.9855563555555555,-3.0356275666666668,1.1671413777777777,-5.225465544444444
944,1778325829150,5.347765,2.2091334,3.0275178,-1.0532837,1.4604492,-6.4449615
945,1778325829160,5.16523405,1.85102835,2.78260638,0.710484316,1.46028441,-7.1496246900000004
946,1778325829170,4.956053144444444,1.4423871666666668,2.176436222222222,2.4509701333333336,1.5134107888888888,-7.828730333333334
947,1778325829180,4.869046366666667,1.1786426,1.5770453,2.9450175,1.5517018666666667,-8.135889333333333
948,1778325829190,4.7727523,0.9420693888888889,0.9923376222222223,3.136054166666667,1.4674292222222223,-8.41829911111111
949,1778325829200,4.7039423,0.86205935,0.74851125,3.0229645,1.2756195,-8.587738
950,1778325829210,4.541372655555556,0.7427155333333333,0.5338906311111111,2.626332633333333,1.1529388333333332,-8.6104635
951,1778325829220,4.4258521,0.6469095666666667,0.32356788,1.9956343222222221,1.0860697555555554,-8.584477777777778
952,1778325829230,4.464359,0.47929601666666666,0.20178257333333333,1.3591919133333334,1.2031860333333335,-8.638865000000001
953,1778325829240,4.490879,0.32269305,0.14556822,0.85354614,1.3512573,-8.759247
954,1778325829250,4.4912092999999995,0.275796768,0.147325083,0.756817628,1.40622562,-8.7971742
955,1778325829260,4.215650888888889,-0.43868437000000005,0.26308180444444446,0.0916425921111111,1.8614620555555557,-9.266545666666666
956,1778325829270,4.006549,-0.8114409,0.370955,-0.030090332000000004,1.8886871,-9.47084
957,1778325829280,3.8325762888888892,-1.046495231111111,0.3970416544444444,0.047188652555555564,1.7186601444444445,-9.540562666666666
958,1778325829290,3.5486965,-1.3686247,0.43538564,0.19467163,1.3826904,-9.572037
959,1778325829300,3.487275566666667,-1.4141822333333334,0.4494602266666667,0.22284614,1.2857411777777776,-9.528540555555557
960,1778325829310,3.248506211111111,-1.5399392222222221,0.5183250644444445,0.26197306666666664,1.1376071777777779,-9.323182722222223
961,1778325829320,2.8312495444444448,-1.6362875555555556,0.5823487222222222,0.26445515666666664,1.2671000333333333,-8.750015166666666
962,1778325829330,2.555912466666667,-1.5871374666666667,0.5870672133333333,0.2953440333333333,1.5453084666666665,-8.0833382
963,1778325829340,2.3035661000000003,-1.4385591999999998,0.563186789,0.42424775,1.6777572900000002,-7.41056822
964,1778325829350,2.154765,-1.3272564,0.52739567,0.5211792,1.7374115,-6.949356
965,1778325829360,2.2082800777777774,-1.1263436222222223,0.4302207588888889,0.6551717055555556,1.9529537555555558,-6.140229933333334
966,1778325829370,2.2619320999999997,-1.044001488888889,0.36176308444444444,0.7118665944444444,2.0458729666666664,-5.829944144444444
967,1778325829380,2.466249322222222,-1.0296286,0.1653908151111111,0.7479705888888889,2.1014946666666665,-5.657077355555556
968,1778325829390,2.620710266666667,-1.1025069666666667,-0.03790968077777778,0.7508137888888888,2.1729855000000002,-5.646840433333334
969,1778325829400,2.5444021,-1.274297,-0.21795647,0.7006836,2.30307,-5.7093964
970,1778325829410,2.352654355555556,-1.3677164666666668,-0.36497348222222226,0.6325649711111111,2.2714690666666666,-5.633761933333334
971,1778325829420,1.7807456999999998,-1.5421487,-0.73938394,0.4391632,2.1347656,-5.385559
972,1778325829430,1.5706980099999999,-1.51581553,-0.9122252719999999,0.145782468,2.02653198,-5.0281616
973,1778325829440,1.3795291111111112,-1.464105188888889,-1.0816743777777778,-0.3466593533333333,1.915318833333333,-4.519851666666666
974,1778325829450,1.375733,-1.4330553,-1.0847256,-0.6207886,1.8780364999999999,-4.317093
975,1778325829460,1.366675888888889,-1.4424107,-1.063329777777778,-0.5801900444444444,1.7536366777777779,-4.298392488888889
976,1778325829470,1.2705176844444444,-1.5396671777777777,-1.015683988888889,-0.4380951,1.3182373,-4.2329407
977,1778325829480,0.4925714533333333,-2.148509666666667,-1.4593263444444444,-0.11177063022222221,0.9903039111111112,-3.859503833333333
978,1778325829490,0.041228286666666655,-2.2543085,-1.8943040666666664,-0.08176676533333332,0.7156474,-3.3823242000000002
979,1778325829500,-0.22666238700000002,-2.24613208,-2.29827598,-0.37279510699999996,0.346182259,-2.76974182
980,1778325829510,-0.2600884611111111,-2.2996480555555556,-2.5953988,-1.124533738888889,-0.0038825122222222236,-2.111284066666667
981,1778325829520,-0.24090219999999998,-2.331308,-2.6800048,-1.5944366,-0.101242065,-1.8414154
982,1778325829530,-0.2361430966666667,-2.3356605999999998,-2.6595451666666663,-2.3918507666666664,-0.02974785755555556,-1.6048702555555556
983,1778325829540,-0.18851162166666666,-2.3564058666666665,-2.3236008666666668,-3.5060628,0.05234273133333334,-1.3329366
984,1778325829550,-0.16496082333333334,-2.3755231666666665,-1.4478412566666665,-3.525353311111111,-0.10070292111111111,-1.4746161777777778
985,1778325829560,-0.387557048,-2.39459138,-0.667460454,-3.0081512399999997,-0.351574704,-1.7562011599999998
986,1778325829570,-0.56342417,-2.4380822,-0.35401788,-2.4658203,-0.5001831,-1.9415588000000001
987,1778325829580,-1.0819239977777777,-2.6134788333333336,-0.24482949444444443,-1.289354108888889,-0.9374152333333333,-1.9513787000000002
988,1778325829590,-1.6775188222222224,-2.8082641111111113,-0.17136834444444446,0.45756022444444444,-1.6358151111111112,-1.8592851444444445
989,1778325829600,-2.3187656000000003,-2.937139,-0.33949637666666665,1.6523183000000001,-2.058308933333333,-1.16088864
990,1778325829610,-2.8602749999999997,-3.0653367666666664,-0.5003435955555555,2.5968475,-2.2546692,-0.27920532
991,1778325829620,-2.926875,-3.0841029,-0.53754956,2.7103644777777776,-2.2322981333333334,-0.09153747444444443
992,1778325829630,-2.9493818888888885,-3.0490130777777775,-1.1492111066666666,3.2344699,-1.3315582222222222,2.7935570566666668
993,1778325829640,-2.7416599600000002,-2.9938505799999997,-1.3969721,3.20309448,-0.8872924600000001,3.97280582
994,1778325829650,-2.0322159444444443,-2.6296138,-1.6783941666666666,2.7709622,-0.5672370111111111,5.188859722222222
995,1778325829660,-1.3578040777777778,-2.2860353555555557,-1.8663726555555558,2.330417222222222,-0.5535041,5.907324833333333
996,1778325829670,-0.9871082999999999,-2.1194658,-1.9335561,2.075943,-0.64079285,6.160324
997,1778325829680,-0.17518347777777776,-1.7930808,-1.8152289777777777,1.4129265844444445,-1.019020938888889,6.4290652
998,1778325829690,0.25772057555555555,-1.6378743222222223,-1.7006034888888888,0.9355672188888889,-1.250418788888889,6.595842177777778
999,1778325829700,0.6973359666666666,-1.5061103,-1.2276611,0.5584716799999999,-1.4104512666666666,6.824341
1000,1778325829710,1.0511377,-1.3842443,-0.6956981,0.37524414,-1.5468140000000001,7.079651000000001
