id,timestamp,acc_x,acc_y,acc_z,gyro_x,gyro_y,gyro_z
0,1778325881320,0.5619247533333334,-0.5561981333333333,0.32291649666666666,0.13386027133333334,0.06533813333333333,-0.05096944133333334
1,1778325881330,0.54532826,-0.5606726,0.31640753,0.06106567399999999,0.04864502,-0.019729614
2,1778325881340,0.54982812625,-0.5773450975000001,0.34984369625,-0.22995567449999998,-0.082788466125,0.15964317325
3,1778325881350,0.5596738333333334,-0.5718319844444445,0.39267591111111116,-0.32438320666666665,-0.14884948555555555,0.21611870888888887
4,1778325881360,0.6231285666666666,-0.5594666333333334,0.5565748888888888,-0.33611043333333335,-0.14363607,0.25778707
5,1778325881370,0.7243040666666667,-0.5598191800000001,0.7591286166666666,-0.23455811000000004,-0.06960042333333333,0.25192260666666666
6,1778325881380,0.8035409,-0.56323594,0.9131288500000001,-0.09820557,0.02734375,0.20611572
7,1778325881390,0.810293,-0.5655136466666666,1.0218966166666668,0.16207885333333333,0.11505126666666667,0.129058836
8,1778325881400,0.7779825555555555,-0.5765777888888889,1.0514681555555554,0.7550862555555555,0.2973327577777778,-0.026000976888888888
9,1778325881410,0.7303641999999999,-0.5417042777777777,0.7991126888888889,1.1104142666666668,0.2972157777777778,-0.0037384033333333344
10,1778325881420,0.7165347,-0.5074675,0.5926818,1.2376556,0.2670288,0.028228760000000002
11,1778325881430,0.72117141,-0.4338447266666667,0.4898921533333333,1.1758727666666668,0.07403564333333333,0.14148966666666665
12,1778325881440,0.9147628611111112,-0.34506135555555556,0.5467304222222222,1.0926649222222222,-0.23525322999999998,0.3315870533333333
13,1778325881450,1.0742957444444445,-0.30696121888888883,0.6001791888888889,1.1081102555555558,-0.3313022222222222,0.3436025033333333
14,1778325881460,1.3907024555555556,-0.19675576555555552,0.6540883888888889,1.1907246999999999,-0.40823364444444443,0.042950103333333337
15,1778325881470,1.6011508875,-0.08692706537499999,0.66422044375,1.2524337625,-0.4235305825,-0.37159728125
16,1778325881480,1.6974003857142859,0.0035177209999999984,0.6315034271428572,1.2744794428571429,-0.41908045714285713,-0.8233903857142858
17,1778325881490,1.72110495,0.0643128375,0.50604078125,1.1628837625,-0.3936367,-1.3205413375
18,1778325881500,1.6995972,0.07033819,0.4377048,1.0320587,-0.3753357,-1.5302734
19,1778325881510,1.6995972,0.07033819,0.4377048,1.0320587,-0.3753357,-1.5302734
20,1778325881520,1.7582387555555554,0.08206701222222221,0.43438307777777774,0.9099070333333334,-0.3621927933333333,-1.5668436666666665
21,1778325881530,1.805152,0.09145007,0.4317257,0.8488312,-0.35562134,-1.5851288
22,1778325881540,1.8023862888888889,0.15669353244444442,0.4610533866666667,0.25595432,-0.08563402022222222,-1.6808878444444444
23,1778325881550,2.3220656,0.9347882000000001,0.7309395,-0.22123718,0.29525757,-1.7214813
24,1778325881560,2.7800117444444443,1.1430511333333333,0.85843205,-0.6276313066666668,-0.3656294094444445,-2.6336534555555553
25,1778325881570,3.2874339444444445,1.1593210888888887,1.173862611111111,-0.6541459888888889,-1.0016513277777779,-3.3689762222222224
26,1778325881580,3.7461257777777774,0.9494318888888889,1.619199222222222,-0.4854855111111111,-1.4952223,-4.354346555555555
27,1778325881590,3.8956784888888887,0.6047827455555556,1.9808380333333335,-0.24426099999999998,-1.6415235888888888,-5.165130733333333
28,1778325881600,3.912708,0.43410555,2.1240187,-0.07795715,-1.6483307,-5.6400604
29,1778325881610,3.852059666666667,-0.10295594333333333,2.335521688888889,0.15990024,-1.3429463888888888,-6.260158888888889
30,1778325881620,3.7867739999999994,-0.49697298,2.486688,0.38703918,-1.0112915,-6.798004
31,1778325881630,3.6491670666666667,-0.7820190311111112,2.6726998777777777,0.93553162,-1.1126776999999999,-7.1111873999999995
32,1778325881640,3.5103796999999997,-1.0037189111111111,2.903388044444444,1.9024336111111113,-1.6606378,-7.379397988888889
33,1778325881650,3.5565061999999994,-1.0877151,2.9084184,2.9820251,-2.5239716,-7.542618
34,1778325881660,3.7087985999999997,-1.2157226,2.862048,3.9327698000000004,-3.4981537,-7.825454699999999
35,1778325881670,3.7338545333333335,-1.2389078,2.855458,4.059714355555555,-3.639297477777778,-7.8784196444444445
36,1778325881680,4.0772641499999995,-1.53287437,2.46053687,5.49295654,-5.249391210000001,-9.02536163
37,1778325881690,4.331145,-1.7734336,1.8026358666666664,6.1953888,-6.6486732,-10.09168327777778
38,1778325881700,4.156725,-1.8969680999999998,1.2842984333333334,5.767515444444444,-8.290958111111111,-10.985504166666667
39,1778325881710,3.594457766666667,-1.9896693666666667,0.9897618333333335,5.063731,-8.734817666666666,-11.113927333333333
40,1778325881720,3.1734593,-2.0122035,0.8098917,4.334381,-8.592789,-10.868912
41,1778325881730,2.9256454555555553,-1.8332961777777779,0.7742999666666666,3.6649203777777775,-8.06678811111111,-10.403512
42,1778325881740,2.8021665000000002,-1.4683083555555556,0.7378411555555555,2.289542344444444,-5.805811555555555,-9.352334111111112
43,1778325881750,2.9470688444444444,-1.2215113222222223,0.6377776333333334,0.8765275933333334,-2.6020864222222224,-8.688193666666667
44,1778325881760,2.9692234,-1.1226144333333332,0.4985564,0.038691206666666665,-0.21642558000000003,-8.545919
45,1778325881770,2.7913878,-1.0999175,0.4162274,-0.2776947,0.8939361599999999,-8.545563
46,1778325881780,2.24340524,-1.0329232400000001,0.289098202,-0.48547668999999993,1.8576324760000003,-8.5202696
47,1778325881790,1.7505646,-0.9777253666666665,0.2020672166666667,-0.46115960666666667,2.026195988888889,-8.368496333333333
48,1778325881800,1.4253585,-0.881201,0.053842833,-0.2148963068888889,1.1578284488888888,-8.015604777777778
49,1778325881810,1.2818118,-0.7013712666666666,0.040338056000000004,-0.042154948,-0.24690245666666666,-7.792782166666667
50,1778325881820,1.234058,-0.5351682,0.17473257,0.04774475,-1.7473907,-7.626251
51,1778325881830,1.3213357444444445,-0.3893986177777778,0.665938868888889,0.20399305555555555,-2.4201066888888887,-7.619503388888889
52,1778325881840,1.3931834,-0.31710282,1.0528517,0.5803833,-2.9090729,-7.707733
53,1778325881850,1.2572306777777777,-0.24544613111111113,1.2326671111111112,1.0104641422222223,-2.7975056888888887,-7.837585222222223
54,1778325881860,0.9172854666666667,-0.21261977777777777,1.1290237,2.2267456,-2.3482056,-8.122131
55,1778325881870,0.47711480000000006,-0.30611992,0.7934181,3.0177002,-2.3657837,-8.017197
56,1778325881880,0.1489787675,-0.36001702,0.28851778055555555,3.4490797666666664,-2.8846215444444443,-7.533213333333332
57,1778325881890,0.0142586455,-0.369454,0.036596205,3.6643220000000003,-3.2371674,-7.162322999999999
58,1778325881900,0.12972649000000003,-0.298934,-0.4297573966666667,3.2109917666666665,-3.119686577777778,-6.602823911111112
59,1778325881910,0.17935082222222223,-0.3387157333333334,-0.9040008466666668,2.1827782888888887,-2.559594066666667,-6.0126004
60,1778325881920,0.13140756,-0.352492,-1.2173713,1.0427094,-1.9497986,-5.503174
61,1778325881930,0.11306622150000001,-0.39154144,-1.44751631,-0.04279629000000003,-1.52129519,-5.01757515
62,1778325881940,0.15739970111111112,-0.528308188888889,-1.6250680888888889,-2.276651933333333,-0.7010701733333334,-4.0735219222222225
63,1778325881950,0.24428371222222223,-0.6913385755555556,-1.4843283777777776,-3.564205577777778,-0.1850077311111111,-3.608715455555556
64,1778325881960,0.3748129755555556,-0.83366508,-1.169100388888889,-5.0032721222222225,0.35869513999999997,-3.1259189444444444
65,1778325881970,0.5674024333333334,-0.9190846000000001,-0.4603584466666667,-5.326636433333333,-0.023852877777777788,-3.0766771222222222
66,1778325881980,0.7472456333333333,-1.0087215333333335,0.5381348899999999,-5.269699066666667,-0.8768920666666666,-3.1155599333333335
67,1778325881990,0.7076267,-1.0040034,0.9061729299999999,-4.742752,-1.689331,-3.196869
68,1778325882000,0.5275391111111111,-1.091293888888889,1.5886384588888889,-3.2321997555555555,-1.671702088888889,-3.082180422222222
69,1778325882010,0.3801970333333333,-1.2750823111111111,1.746909488888889,-0.8652496177777778,-1.0463816222222222,-2.766164055555555
70,1778325882020,0.317036554,-1.43592338,1.214014315,0.201354972,-0.2287445,-2.6303742
71,1778325882030,0.15259859622222222,-1.6429715777777778,0.4374198093777777,1.1800129888888888,0.8956620999999999,-2.5691952666666666
72,1778325882040,-0.044437137,-1.8309907999999997,0.0037703672000000002,1.2392578,1.384491,-2.5460052
73,1778325882050,-0.53649704,-2.0585739666666667,-0.4694563666666667,0.6685062155555556,2.2472941222222222,-2.2483232444444443
74,1778325882060,-1.1049884444444444,-2.1084973888888885,-0.9208537777777779,-0.11677720888888891,2.672044533333333,-1.8515726444444445
75,1778325882070,-1.3841490555555556,-2.109758111111111,-1.0905147444444443,-0.7388322655555556,2.591859611111111,-1.4686702888888887
76,1778325882080,-1.5625141111111112,-2.1771314,-1.1937915000000001,-1.3200531,2.2148743,-1.0461121
77,1778325882090,-1.562839,-2.1971986,-1.1886939,-1.3200531,2.2148743,-1.0461121
78,1778325882100,-1.4795888222222222,-2.318576288888889,-0.6950467044444445,-1.6517113666666665,0.3646138555555556,-0.31580607777777775
79,1778325882110,-1.524725911111111,-2.2730325000000002,-0.4271798666666667,-1.5442352555555556,-0.2824215222222222,-0.06813219
80,1778325882120,-1.5949738,-2.171003166666667,-0.25277378,-1.0759938777777778,-0.46067130000000006,0.24340481444444448
81,1778325882130,-1.6284907666666666,-2.0921323333333337,-0.11484118000000001,-0.5019378733333333,-0.4976552133333334,0.62352498
82,1778325882140,-1.6280023,-2.106044,-0.13265814,-0.19300842,-0.4301910400000001,0.8404846000000001
83,1778325882150,-1.6744281666666665,-2.0571240444444445,-0.25658458888888885,0.11473761555555556,-0.25691223333333335,1.4119364222222222
84,1778325882160,-1.694875,-2.008055,-0.32497486,0.22351073999999999,-0.11221313500000002,1.7944182999999998
85,1778325882170,-1.5356939333333335,-1.898540288888889,-0.32332074777777775,0.13314819666666666,0.31567382666666666,2.3961181666666667
86,1778325882180,-1.3928125666666666,-1.7993574888888888,-0.30608725,0.025912815333333332,0.7692396333333333,2.972669766666667
87,1778325882190,-1.2403989333333332,-1.6475820666666665,-0.28710526999999997,-0.04421997066666667,1.0610097333333333,3.4265950333333333
88,1778325882200,-0.9976976444444444,-1.4977310888888888,-0.24794778111111113,-0.08292643177777777,1.3376278222222222,3.925730366666667
89,1778325882210,-0.8105325,-1.4012063,-0.20855854,-0.040664673,1.4233856,4.180084
90,1778325882220,-0.5991244,-1.3088440555555556,-0.21192208444444444,-0.0013105602222222214,1.4730885555555555,4.291939566666667
91,1778325882230,-0.18745445,-1.1266414,-0.25541905,0.06692505,1.638031,4.4549255
92,1778325882240,0.07958523666666667,-0.9815491466666667,-0.38513484,0.0068037237777777764,1.6806962666666667,4.3495789
93,1778325882250,0.19130950444444444,-0.9267988466666667,-0.4635991222222222,-0.10908338888888888,1.6573265666666666,4.253475744444445
94,1778325882260,0.3229917,-0.8675749,-0.5641505,-0.36663818,1.4835663,4.1374817
95,1778325882270,0.4384857933333333,-0.8580969511111111,-0.5552159555555556,-0.8643001888888888,0.8632219333333333,4.110899166666666
96,1778325882280,0.4738198533333333,-0.8785567599999999,-0.4743787666666667,-1.2616424666666666,0.23063151333333337,4.162333133333333
97,1778325882290,0.45215942,-0.95384925,-0.27390612999999997,-1.6092758500000002,-0.550834655,4.419502199999999
98,1778325882300,0.4657513,-0.9932645,-0.09848978888888889,-1.7920295000000002,-0.9561377722222222,4.670872888888889
99,1778325882310,0.52421635,-1.039391,0.12104061,-1.9581451000000003,-1.2589722,4.9960785
100,1778325882320,0.6547060522222222,-1.1144115666666667,0.3300756444444445,-2.0684594,-1.0505320333333334,5.359037622222222
101,1778325882330,0.86870414,-1.2447656,0.6606511,-2.209549,-0.6230011,5.8434906
102,1778325882340,0.9556564266666666,-1.3071358222222222,0.7125275133333333,-2.25589,-0.30448914,5.989975
103,1778325882350,1.2851065888888888,-1.3729501666666666,0.7471965666666667,-2.4974704666666665,1.032835211111111,6.472417311111112
104,1778325882360,1.4146608,-1.3278676,0.6986021,-2.5823975,1.2561188,6.4906464
105,1778325882370,1.4703867666666666,-1.2269491333333333,0.6957955666666666,-2.6409861333333335,0.8406728233333334,6.340092966666667
106,1778325882380,1.5203369,-1.1534882,0.717639,-2.6899872,0.27981567,6.1401825
107,1778325882390,1.5439384,-1.18179862,0.8921887,-2.34217835,-0.7292709399999999,6.15881345
108,1778325882400,1.5831415666666666,-1.2825937333333333,1.1211876333333333,-1.8482513333333332,-1.6905822666666668,6.378967266666667
109,1778325882410,1.6321149,-1.3692344,1.1873267,-1.4537506,-2.244873,6.6850586
110,1778325882420,1.7742378,-1.3700888666666668,1.3392114666666668,-0.8541157991111111,-2.5485331444444443,7.29569168888889
111,1778325882430,1.9626774444444446,-1.3198676222222223,1.494879066666667,-0.065704346,-2.5127869,8.119965
112,1778325882440,2.1682556777777777,-1.2196815111111112,1.4483320444444443,0.41141933555555554,-1.978788622222222,8.738294666666667
113,1778325882450,2.8297043,-1.055132,1.2139292,0.9771880999999999,-0.779068,9.662476
114,1778325882460,3.614715,-0.91870505,0.7681579,0.9830627399999999,0.69047546,9.927185
115,1778325882470,4.019374933333334,-0.7544273888888889,0.25519022888888887,0.4807247551111111,1.3782196022222222,9.537304333333333
116,1778325882480,4.25596236,-0.6294729219999999,-0.139991217,-0.0457229612,1.65091402,9.1034774
117,1778325882490,4.2688482,-0.41539758,-0.28354593,-0.699539165,1.2659836,8.472572
118,1778325882500,4.22495502,-0.1561233852,-0.23489388399999997,-1.1496124,0.617825334,7.874853400000001
119,1778325882510,4.149200111111111,0.03398653533333334,0.036026741111111114,-1.2021026444444445,-0.32668388055555553,7.396538666666667
120,1778325882520,4.0897315,0.08835735466666667,0.26259374,-1.0223134200000001,-1.033137,7.108143999999999
121,1778325882530,4.0342493,0.11292592399999998,0.440755,-0.82310486,-1.3878632,6.949768
122,1778325882540,3.9329381000000003,0.1988341648888889,0.39053320444444445,-0.8103213844444445,-0.8254038577777778,6.807969777777778
123,1778325882550,3.802435177777778,0.3011885166666667,0.21299515333333333,-0.9691653555555556,-0.12960815333333334,6.740388711111111
124,1778325882560,3.702412288888889,0.3799111722222222,-0.05862699777777777,-1.7905476666666666,0.6531880733333334,6.757146266666667
125,1778325882570,3.612910355555556,0.3909207011111111,-0.41858472888888887,-2.8720279444444445,1.2844204555555556,6.7691567444444445
126,1778325882580,3.6215482000000003,0.37431163,-0.49850039999999995,-3.9192963,1.6044617,6.6578827
127,1778325882590,3.682941977777778,0.3749759644444445,-0.38584063444444444,-4.396716655555555,1.2865431200000002,6.348191944444444
128,1778325882600,3.7345457,0.3495398,-0.35096768,-5.1438293,0.67822266,5.785446
129,1778325882610,3.8169293222222223,0.4919880044444444,0.6552541066666667,-4.681857633333333,-0.07113309111111112,5.184988888888889
130,1778325882620,3.4632357666666667,0.7878258166666667,1.8821578666666667,-2.5520375533333333,-1.7315826666666665,3.9158985333333334
131,1778325882630,3.13736244,0.9522874399999999,1.96438044,-0.6892028779999999,-2.28300172,3.5136596599999996
132,1778325882640,2.800986111111111,0.9621914711111111,1.3859758666666666,1.1688232333333335,-2.1967536111111112,3.345459011111111
133,1778325882650,2.5619728333333334,0.95740474,0.6523533786666667,1.7672678666666668,-1.8793029666666665,3.3403066
134,1778325882660,2.4045433333333337,1.0190155444444444,-0.3199305951111111,1.298256788888889,-1.2273627333333332,3.3919660777777776
135,1778325882670,2.3980489666666664,1.0585663666666667,-0.7585422166666667,0.7156728066666667,-0.82717895,3.389658633333333
136,1778325882680,2.4526365,1.0747553,-0.98527133,0.3577423,-0.58358765,3.3609009
137,1778325882690,2.5600476444444444,0.9329585,-1.1953103555555555,-2.280570144444445,0.5522291500000001,2.4201524555555554
138,1778325882700,2.429694266666667,0.8168683333333333,-0.9107936333333334,-3.5178799333333335,0.8522796666666667,1.7247721666666667
139,1778325882710,2.234692511111111,0.7539562622222222,-0.2982091711111111,-3.915515488888889,0.2967969977777778,0.8754611444444445
140,1778325882720,2.0679333888888887,0.6779183,0.21234516333333334,-3.8246103777777782,-0.2989959711111111,0.3215162366666667
141,1778325882730,1.9092416,0.55747616,0.63185227,-3.2844086,-1.0432587,-0.16140747
142,1778325882740,1.9092416000000003,0.55747616,0.63185227,-3.2844086,-1.0432587,-0.16140747
143,1778325882750,1.6307725,0.29389423,1.1979424,-1.3349609,-1.6669617,-0.64875793
144,1778325882760,1.5244998222222224,0.22413446888888888,1.114312731111111,-0.37232462,-1.5938110333333333,-0.6366882333333334
145,1778325882770,1.3956917111111113,0.18680790333333333,0.8864315577777777,0.45717706444444445,-1.4700114333333334,-0.5122884133333333
146,1778325882780,1.358622088888889,0.28171830555555555,0.64614326,0.8546380111111112,-1.2743581555555556,-0.26675076000000003
147,1778325882790,1.4847451111111112,0.369959,0.4604294822222223,0.9953019666666667,-1.002421088888889,-0.003684150000000002
148,1778325882800,1.7427948,0.4532638,0.32397318,0.9729309000000002,-0.762558,0.10652161
149,1778325882810,2.0758521666666665,0.53458922,0.2500111611111111,0.8504825177777778,-0.4117872453888889,-0.104461668
150,1778325882820,2.3629860000000003,0.6044575000000001,0.18925460000000002,0.64660644,0.11132812033333334,-0.63225302
151,1778325882830,2.411391,0.6283759,0.17119396,0.542572,0.3453369,-1.0072327
152,1778325882840,2.1707804250000002,0.644300215,0.1806665425,0.42892073875000003,0.602388375,-1.506767275
153,1778325882850,1.92990153,0.6526345840000001,0.195636331,0.369096374,0.7533736930000001,-1.80813905
154,1778325882860,1.6104893444444446,0.7422417888888888,0.2415375166666667,0.4846327011111111,0.7359280166666667,-1.8127407333333336
155,1778325882870,1.5610138444444444,0.8350784333333333,0.22336834666666666,0.6411624422222223,0.6496972222222221,-1.7103627333333333
156,1778325882880,1.7153393,0.977092861111111,0.11705404133333334,0.7763925999999999,0.49943543333333335,-1.6399892
157,1778325882890,1.9007007,1.0901324,-0.024174524,0.781723,0.4358673,-1.6815338
158,1778325882900,1.9007007,1.0901324,-0.024174524,0.781723,0.4358673,-1.6815338
159,1778325882910,2.107444522222222,1.3265414222222223,-0.3668852848888889,-0.15524123822222224,0.7869415266666667,-2.2458987777777777
160,1778325882920,2.1524215,1.4184127800000002,-0.417546094,-0.7042267,0.9961029079999999,-2.52566224
161,1778325882930,2.266623111111111,1.47204,-0.2126135577777778,-1.0934532777777777,1.1869490111111112,-2.7756839555555555
162,1778325882940,2.4435650333333334,1.490181166666667,-0.019780948333333333,-1.3186984333333334,1.387863177777778,-3.1294708555555553
163,1778325882950,2.6184735,1.4743987,0.092974395,-1.2710571,1.4633179,-3.3268433
164,1778325882960,2.8099492444444447,1.2868678777777778,0.11167138111111112,-0.9314710777777778,1.4827338555555556,-3.8922594111111106
165,1778325882970,2.9319646,1.1275934,0.095780395,-0.6148529,1.4723816,-4.3968964
166,1778325882980,2.9087789,0.7099308266666666,-0.13989763466666666,-0.5529429111111112,1.195349822222222,-4.842298555555555
167,1778325882990,2.8160367,0.33758008,-0.3496238,-0.7277052,1.0131954711111113,-5.032975855555555
168,1778325883000,2.7440403,0.15624626,-0.30435294,-1.2428284,0.97862244,-4.9273987
169,1778325883010,2.860536844444445,0.1689237211111111,0.0688793671111111,-1.5745951555555555,1.2706248,-4.762044322222223
170,1778325883020,3.1093943,0.24971995,0.8632181,-2.2047577,2.0603943,-4.405945
171,1778325883030,3.39601518,0.31690902,1.38684344,-1.7287475349999997,2.64778746,-4.3715989
172,1778325883040,3.9637153,0.34661093,2.125361,-0.83003235,3.1373901,-4.48851
173,1778325883050,4.204356144444445,0.28521698333333334,2.2461963333333332,0.9379018111111113,3.1585167555555556,-5.122992577777778
174,1778325883060,4.515014533333333,0.11688588444444445,2.102581466666667,2.5602434,2.8565656777777777,-5.798967133333333
175,1778325883070,4.609775888888889,-0.09661116444444445,1.5612630111111112,3.9360266777777775,2.1513028,-6.564173222222222
176,1778325883080,4.602278,-0.2546520533333333,1.2134003355555556,4.389482322222222,1.6937747333333333,-7.118645444444444
177,1778325883090,4.4186930222222225,-0.48395696444444447,0.7232377022222223,4.642242455555556,1.1878899666666665,-7.940380666666666
178,1778325883100,4.058450944444444,-0.6327917666666667,0.3436340088888889,4.335500088888889,0.9273715622222222,-8.360570333333335
179,1778325883110,3.782950666666667,-0.6707017666666667,0.11221300933333334,3.8756052333333333,0.80640666,-8.449691666666666
180,1778325883120,3.584207,-0.6684236,-0.030642012000000003,3.4150543,0.7911377,-8.406021
181,1778325883130,3.4479018,-0.6490221599999999,-0.12911900333333332,2.5152638666666665,1.1229756666666666,-8.223856333333334
182,1778325883140,3.4215033,-0.6568725888888889,-0.14911719666666667,1.6974978777777778,1.573577888888889,-8.072701111111112
183,1778325883150,3.434776788888889,-0.6904307333333333,-0.11771527,1.370330811111111,1.7651401444444443,-8.053888888888888
184,1778325883160,3.4659123000000003,-0.73466072,0.11379198000000001,0.82731478,1.8381942600000003,-8.192333699999999
185,1778325883170,3.4051907,-0.7853268,0.2883413,0.8829193,1.5879669,-8.407089
186,1778325883180,3.1234406777777775,-0.9768179166666666,0.5098644022222222,1.2690209333333333,1.1912689333333333,-8.721279333333333
187,1778325883190,2.8618254333333337,-1.0972598555555555,0.5955832177777778,1.7126481555555555,0.8958350444444445,-8.974809555555556
188,1778325883200,2.4152679999999997,-1.2005229333333332,0.41563114,2.0585022222222222,0.7045016666666667,-8.967532777777777
189,1778325883210,2.100379466666667,-1.2414162666666666,0.17938313733333333,2.2653351111111113,0.4677785222222222,-8.76838
190,1778325883220,1.9339462777777778,-1.2427722555555556,-0.021313740222222224,2.2464549000000003,0.3736250122222222,-8.635221833333334
191,1778325883230,1.7410055,-1.2374840666666667,-0.25192089,1.9085896999999998,0.18110656666666666,-8.333760666666667
192,1778325883240,1.4886501333333333,-1.2344333333333333,-0.38163667333333334,1.3938904,0.060368857666666664,-7.993764433333333
193,1778325883250,1.286381411111111,-1.240507533333333,-0.38173155444444445,0.9515753777777777,0.07836066344444444,-7.653110122222222
194,1778325883260,0.9857298333333334,-1.2110034222222223,-0.30054248333333333,0.549726708888889,0.22205098444444443,-7.208609777777777
195,1778325883270,0.8499114,-1.1996145,-0.27567545,0.36413574,0.32188416,-6.941818
196,1778325883280,0.62561064,-1.20805866,-0.18728957400000001,-0.009136963200000006,0.674923712,-6.1032378
197,1778325883290,0.44545448666666665,-1.2041427444444446,-0.13481327333333334,-0.18963114333333334,0.9102783333333334,-5.436065566666667
198,1778325883300,0.2573809733333333,-1.2077094666666666,-0.12143103000000001,-0.14855787222222222,0.9933641111111111,-4.826497277777778
199,1778325883310,0.17415758666666667,-1.2336608999999998,-0.16470988666666664,-0.04919433333333333,1.0539092666666667,-4.2200621
200,1778325883320,0.20230572,-1.2766147,-0.22735128000000002,0.0317688,1.0808868,-3.9345702999999994
201,1778325883330,0.46182020444444444,-1.426845188888889,-0.5079090444444445,0.13291253,1.097225611111111,-3.9517940777777776
202,1778325883340,0.5694903,-1.5077363,-0.6822747,0.15588379,1.0579834,-4.1433563
203,1778325883350,0.4459365275,-1.571283475,-0.87376865,0.015129087499999992,0.88674165,-4.442970175
204,1778325883360,0.16801621,-1.6428224,-1.1021761,-0.27929688,0.6020508,-4.8102264
205,1778325883370,-0.06040865977777779,-1.7330148888888888,-1.0380291555555554,-0.7160475,0.25288222,-4.877683844444444
206,1778325883380,-0.3007505588888889,-1.8537146333333334,-0.905451031111111,-1.1204359333333334,-0.15890333666666667,-4.735063333333333
207,1778325883390,-0.51876146,-1.9007908000000002,-0.82211894,-1.3408356,-0.36520386,-4.4943695
208,1778325883400,-0.8786103666666667,-1.817866311111111,-0.6745464822222222,-1.7823232,-0.3119472911111111,-3.7590992333333335
209,1778325883410,-1.0684061,-1.7361481,-0.5330071844444445,-2.081778622222222,-0.16008843166666667,-3.1940375666666667
210,1778325883420,-1.1448104333333333,-1.6567336666666668,-0.3004472633333333,-2.244171166666667,0.13689168333333332,-2.454564433333333
211,1778325883430,-1.2110309,-1.5818080333333333,-0.13033950566666666,-2.200312266666667,0.49304707999999997,-1.7161610999999999
212,1778325883440,-1.2495921,-1.5183537,-0.040038377,-2.0955658,0.83747864,-1.1632843
213,1778325883450,-1.15486665,-1.4840019500000001,-0.0293607236,-1.7992878,1.317251205,-0.67639731
214,1778325883460,-1.0467806666666666,-1.457122188888889,-0.16220200555555556,-1.2995164555555556,1.6805148333333333,-0.3083513088888889
215,1778325883470,-0.9997853999999999,-1.4274422666666666,-0.44731581666666664,-0.6614837611111111,1.475095988888889,-0.33504401777777776
216,1778325883480,-1.0426309666666667,-1.4248794333333334,-0.6911831999999999,-0.1864318833333333,0.9637146333333333,-0.48080952666666676
217,1778325883490,-1.1304911,-1.4429401,-0.8837436,0.14523315,0.45346070000000005,-0.6072235
218,1778325883500,-1.4147369333333333,-1.5078187,-1.1802732333333334,0.3976847233333333,-0.4593048066666667,-0.5967458133333333
219,1778325883510,-1.6790235111111111,-1.5553016333333334,-1.3434398111111112,0.3808797188888889,-0.9848344444444445,-0.4415741
220,1778325883520,-1.9757429999999998,-1.5880722999999999,-1.4148946,0.03265889333333335,-1.0428924333333331,0.03656513333333333
221,1778325883530,-2.1921814333333334,-1.6000713666666666,-1.3814590999999998,-0.5515798000000001,-0.8880767666666666,0.8523237333333333
222,1778325883540,-2.2122755,-1.5780247,-1.2766769,-0.9621277000000001,-0.7140808,1.5089417
223,1778325883550,-2.1161169444444443,-1.5225020000000002,-1.0452154466666665,-1.1719258666666665,-0.6141849033333333,2.2075161666666667
224,1778325883560,-1.9417792333333332,-1.4136801777777779,-0.6802951466666667,-1.3900655333333332,-0.4871809188888888,3.2460293222222223
225,1778325883570,-1.6800020875,-1.2738228624999999,-0.42827226375,-1.254673025,-0.46920395249999997,3.777545875
226,1778325883580,-1.3417913555555554,-1.1177328555555557,-0.21809179777777776,-0.8803422844444444,-0.48032125444444446,4.421959666666666
227,1778325883590,-1.0904667,-1.0041248,-0.16475137,-0.60899353,-0.5122223,4.60672
228,1778325883600,-0.8636285611111111,-0.9010108277777777,-0.16353122,-0.48589579222222223,-0.5388539666666667,4.6192694888888886
229,1778325883610,-0.39234063,-0.6656176,-0.21612573,0.3923645,-0.8147583,4.5167084
230,1778325883620,-0.2249170266666667,-0.5645238377777778,-0.25197498333333335,0.7409498333333333,-1.0491197444444444,4.270163733333333
231,1778325883630,-0.036152732666666666,-0.4663843733333333,-0.3014230333333333,1.2499101666666668,-1.4303012555555557,3.8287337
232,1778325883640,-0.05426625755555556,-0.49068196,-0.36856618888888887,1.583335011111111,-1.7322421444444445,3.4841800555555555
233,1778325883650,-0.15650031333333334,-0.5716824644444444,-0.4105975977777778,1.834493,-2.0051812222222223,3.2655657000000002
234,1778325883660,-0.22198816,-0.64523834,-0.42882174,2.024353,-2.2565918,3.2101593
235,1778325883670,-0.22198816,-0.64523834,-0.42882174,2.0392659333333336,-2.278133844444444,3.221406722222222
236,1778325883680,-0.24735690333333332,-0.7636604822222223,-0.42514675555555553,2.1292877,-2.4158478,3.554779
237,1778325883690,-0.20091826666666665,-0.93774198,-0.36447194,2.081171733333333,-2.2885487333333336,3.8441721333333336
238,1778325883700,-0.08885509333333334,-1.0112024333333334,-0.29670540333333334,1.9971923999999999,-2.029332466666667,4.264414433333333
239,1778325883710,-0.029657768888888894,-1.0449363444444444,-0.26267186555555555,1.961915788888889,-1.870730911111111,4.453445455555556
240,1778325883720,0.11285903666666666,-1.1130148,-0.19802413333333332,1.8723161666666666,-1.4927978222222222,4.960277988888889
241,1778325883730,0.3138809966666667,-1.1454336333333335,-0.15991085333333332,1.8620791999999997,-1.2078331888888887,5.386976499999999
242,1778325883740,0.5332472133333334,-1.1588165666666665,-0.16780260000000002,1.8650919444444445,-1.0100521777777778,5.654002000000001
243,1778325883750,0.7276527288888889,-1.1840087,-0.1794358511111111,1.8475206444444447,-0.8026190777777777,5.9184892
244,1778325883760,0.88615453,-1.2143803,-0.17915155,1.8251495,-0.6725464,6.0597534
245,1778325883770,1.08818807875,-1.2271320749999999,-0.1539364425,1.841194175,-0.59537315,6.2084808
246,1778325883780,1.2931193,-1.2263384,-0.11276727,1.9013062,-0.572937,6.327133
247,1778325883790,1.425520411111111,-1.2106244,-0.06445727666666666,2.0345255444444446,-0.6966874833333334,6.3390842888888885
248,1778325883800,1.7174402555555557,-1.1649040888888889,0.09210680888888888,2.4021589333333333,-1.0262061222222223,6.305825111111111
249,1778325883810,1.8318759,-1.1927816,0.16521488,2.6677704,-1.1455231,6.2376556
250,1778325883820,1.9154796666666667,-1.2138925333333335,0.16536385777777776,2.9359215666666665,-0.8457099177777778,6.2722710444444445
251,1778325883830,1.9188303714285715,-1.2065706285714286,0.07691789105714286,2.9347774,-0.3076913028571429,6.4579315
252,1778325883840,2.005644675,-1.2100786375,-0.0098970198625,2.4358139000000003,0.64120482,7.00090785
253,1778325883850,2.072069,-1.221891911111111,-0.014873214333333336,2.1611226111111113,1.078821788888889,7.271191033333333
254,1778325883860,2.1260874,-1.2263384,-0.013680025,2.0621643,1.2284393,7.3540497
255,1778325883870,2.6708366555555556,-1.2030720888888888,0.05965946,1.0567389777777778,2.4516550444444443,7.908806577777778
256,1778325883880,2.924466077777778,-1.1911402222222223,0.11424682977777777,0.5000813888888889,3.0449489666666665,8.167190333333334
257,1778325883890,3.105475577777778,-1.1740966,0.19486746222222223,0.18303934333333333,3.0656535,8.289347333333332
258,1778325883900,3.260859133333333,-1.1351561333333333,0.2610338088888889,-0.07830640777777778,2.770219611111111,8.403923777777777
259,1778325883910,3.4454608,-1.0838095,0.3217769,-0.12802124,2.3799896,8.42836
260,1778325883920,3.621344888888889,-0.9977927444444445,0.31380478888888885,-0.1106855588888889,2.1321360333333335,8.28703811111111
261,1778325883930,3.8411999999999997,-0.8902718,0.30383965,-0.09660339,1.8984832999999999,8.082153
262,1778325883940,3.864425755555556,-0.8783402377777778,0.21154480688888888,-0.2222442577777778,1.9243452444444447,7.9658032
263,1778325883950,3.8968856333333335,-0.83596903,0.030453803999999998,-0.6301218666666667,1.9384358333333336,7.703272500000001
264,1778325883960,3.8837878999999997,-0.77617615,0.04818884,-0.7852936,1.8990172999999997,7.621963499999999
265,1778325883970,3.937426055555555,-0.52097295,0.2968837577777778,-0.7160525955555556,1.5047505444444444,7.337295522222222
266,1778325883980,3.9912946,-0.3417533,0.5006718,-0.5322284712500001,1.1337566000000001,7.0730113875
267,1778325883990,4.054170125,-0.0766614125,0.749014625,0.504211405,0.785011285,6.5367203499999995
268,1778325884000,4.07570835,0.13928446875,0.673219775,1.2327880625,0.77695845625,6.1871185375
269,1778325884010,4.089161975,0.34317886875,0.37890227,1.7025051375000002,1.0450096125000001,5.8689995125
270,1778325884020,4.095332971428571,0.5518457499999999,-0.05647662285714285,2.0989990714285716,1.3586971,5.476209357142857
271,1778325884030,4.0527964,0.6637635,-0.40417123,2.183075,1.4047241,5.2357635
272,1778325884040,3.98019,0.7765876428571428,-0.82816868,1.8849552571428572,1.2345886,4.8985312
273,1778325884050,3.8778684125,0.91192392625,-1.2884981375,1.3096962375,1.02929305,4.4442768125
274,1778325884060,3.738054575,0.9680110875,-1.378036525,0.3783855375,1.1195087375,3.9782238125
275,1778325884070,3.447996466666667,0.9897561733333333,-1.2975702777777778,-1.133695811111111,1.4646267222222222,3.2720099555555553
276,1778325884080,3.2957318,0.98128164,-1.1703895,-1.7030182,1.6779785,3.0184174
277,1778325884090,2.9006846,1.0635017822222224,-0.7954087,-2.4690636666666665,2.0053643222222224,2.6659325555555555
278,1778325884100,2.6613664,1.1531280499999998,-0.5310202125,-2.818218225,2.1765155625,2.4943103625000003
279,1778325884110,2.6189065555555557,1.2621508,-0.31995877,-2.7694617666666668,2.083657122222222,2.2368774333333334
280,1778325884120,2.6487354,1.3336595999999998,-0.15747038666666668,-2.5003611333333335,1.7651418,1.8610127333333333
281,1778325884130,2.6658192,1.3452932,-0.08970332,-2.2308502,1.4441376,1.547821
282,1778325884140,2.632993544444444,1.3429339555555555,-0.07543949,-2.118582811111111,1.3103892244444444,1.4534267444444444
283,1778325884150,2.3534263,1.3208111,0.043460713750000005,-1.1652507562499999,0.18320846375,0.6605892125
284,1778325884160,2.1417881666666663,1.3044142222222221,0.12395548666666666,-0.46003214733333336,-0.4138641277777778,0.1778310088888889
285,1778325884170,1.983649625,1.323664125,0.1943492875,0.070381167,-0.684394825,-0.1671257025
286,1778325884180,1.8576245,1.3576185,0.22940134,0.4658661,-0.7583008,-0.38084412
287,1778325884190,1.7924611999999998,1.3277215,0.165336724,0.9915720666666665,-0.9195099,-0.63668824
288,1778325884200,1.7407213,1.2800086,0.059050422,1.4959717,-1.1167603,-0.9065552
289,1778325884210,1.6772113444444445,1.1834155333333334,-0.16006017533333333,1.7570292444444444,-1.414023488888889,-1.1308576888888888
290,1778325884220,1.6329538,1.1331164375,-0.32290049,1.9109669125,-1.7004470875,-1.2908458375
291,1778325884230,1.6747025,1.181164,-0.42369503,1.8443297999999997,-1.8677672999999997,-1.3150787
292,1778325884240,1.8230624555555555,1.2251623444444446,-0.5495204822222222,1.5499572666666666,-1.7459716666666667,-1.3154398333333333
293,1778325884250,1.9148551,1.2468157,-0.63443893,1.2216797,-1.5519257,-1.3220062
294,1778325884260,2.1018039,1.2263765,-0.8841103,0.29542922,-0.9102249250000001,-1.4120293
295,1778325884270,2.251370088888889,1.2142879777777777,-1.0440629111111113,-0.5630594844444444,-0.43486532222222224,-1.5577901222222221
296,1778325884280,2.381398422222222,1.1566367555555557,-1.0499738666666665,-1.5622253333333331,-0.04296874666666667,-1.8780772
297,1778325884290,2.4746469875,1.0806290875,-0.8924381,-2.2874412625,0.20051193375,-2.202848475
298,1778325884300,2.492905,1.0627972,-0.6440795,-2.7283325,0.30911255,-2.5374756
299,1778325884310,2.502586422222222,1.1102392222222222,-0.33504887555555557,-2.7987602999999996,0.27999199888888887,-2.8893670222222223
300,1778325884320,2.4980709777777776,1.1791310444444443,0.10959695333333334,-2.6885070888888887,0.22447374333333336,-3.478168088888889
301,1778325884330,2.4573033750000004,1.198858175,0.3450854375,-2.2843818249999996,0.1960601825,-3.7352371
302,1778325884340,2.4530694555555557,1.2071025222222223,0.56260738,-1.2467854644444445,0.04936218111111111,-4.159405177777778
303,1778325884350,2.5314658,1.1693271,0.5564387,-0.53175354,-0.18305969,-4.3367004
304,1778325884360,2.7546567,1.1264349125,0.33048672125,0.327318195,-0.69890976125,-4.6423092
305,1778325884370,2.9606549555555555,1.1205157888888888,0.1475876811111111,0.8804389111111112,-1.1235063666666667,-4.906682355555556
306,1778325884380,3.3239334555555557,1.0945917222222221,-0.027861938333333336,1.1860487333333334,-1.4120669888888888,-5.2911292
307,1778325884390,3.5958154625,1.0703320625,-0.170470878125,1.3849926125,-1.6202220875,-5.7891292375
308,1778325884400,3.7534614,1.043639,-0.2776275,1.3846588,-1.6648254,-6.0677643
309,1778325884410,3.8420262000000003,0.8823433777777778,-0.5175083222222222,1.0567914977777777,-1.516401488888889,-6.7171035888888895
310,1778325884420,3.8316354,0.72319113125,-0.6810084249999999,0.78544617,-1.3857269,-7.086685
311,1778325884430,3.6880948,0.6163347333333333,-0.7874633999999999,0.04023742222222221,-1.00104776,-7.257961555555555
312,1778325884440,3.580573555555555,0.6115353866666666,-0.8054148133333333,-0.7683054444444445,-0.6186218333333334,-7.257364844444445
313,1778325884450,3.6163,0.62068737,-0.75524783,-1.127243,-0.4653473,-7.2336884
314,1778325884460,3.7628978666666666,0.5648791744444445,-0.5360300566666667,-1.585959511111111,-0.17949422333333334,-7.369157522222222
315,1778325884470,3.8092282000000006,0.5092749,-0.42418343,-1.8297882000000003,-0.03390503,-7.468582
316,1778325884480,3.83387785,0.46867033874999997,-0.21694893,-1.8793830625,-0.0012245182500000007,-7.6034755
317,1778325884490,3.824034044444444,0.3685485533333333,0.2125487511111111,-1.6632435888888888,-0.06989712333333334,-7.930726888888889
318,1778325884500,3.7345467333333335,0.19391260200000002,0.4453523566666666,-1.2760264333333333,-0.04136149,-8.069926
319,1778325884510,3.6831863333333335,0.09534072466666667,0.5156136411111111,-0.815356771111111,0.03770955355555555,-8.109819333333334
320,1778325884520,3.67939,0.06326098,0.50384486,-0.44334412,0.042266846,-8.14502
321,1778325884530,3.649655666666667,-0.0037470328888888934,0.4219223333333333,-0.24886915777777777,-0.012190076222222226,-8.239359777777779
322,1778325884540,3.562730511111111,-0.15102311444444444,0.25676293777777776,0.18120998444444444,-0.13162739888888889,-8.515742
323,1778325884550,3.298874075,-0.32082555,0.11651099675,0.1854362475,-0.13004875375,-8.708757499999999
324,1778325884560,3.0214112,-0.45292160000000004,0.023539908,0.10687256,-0.12605286,-8.850235
325,1778325884570,3.0214112,-0.45292160000000004,0.023539908,0.10687256,-0.12605286,-8.850235
326,1778325884580,2.3618924875,-0.8108768712500001,0.15287446999999998,-0.22243118125,-0.043962478875,-8.541172125000001
327,1778325884590,2.1410153999999997,-0.9029635766666667,0.24087264666666666,-0.22703043333333334,0.03545633966666666,-8.344701444444445
328,1778325884600,1.948861,-0.9254975999999999,0.2503089266666667,-0.14146084444444446,0.06309509288888888,-8.143190333333333
329,1778325884610,1.7311621666666666,-0.9235040333333333,0.1842098133333333,0.09603881666666667,0.05309041341,-7.6392061
330,1778325884620,1.6732389,-0.9065011,0.10505388,0.16918945,-0.00088500977,-7.4531403
331,1778325884630,1.4709967888888889,-0.8616760111111111,-0.14418233111111112,0.06627230999999999,-0.1815134688377778,-7.048102511111111
332,1778325884640,1.2927538,-0.8270606,-0.34230238,-0.14027405,-0.31834412,-6.669098
333,1778325884650,1.162941911111111,-0.8748963111111112,-0.36460745333333333,-0.5990481888888889,-0.20465087955555555,-6.155405666666667
334,1778325884660,1.0793247925,-0.915348425,-0.35096692,-1.063858025,0.009235382,-5.62767025
335,1778325884670,0.9830439700000001,-0.9459173000000001,-0.345841,-1.3370972,0.22654724000000004,-5.2917175
336,1778325884680,0.9039433144444445,-0.9781597444444444,-0.40484888888888887,-1.7626122777777777,0.6554362088888889,-4.841822288888888
337,1778325884690,0.8583325,-1.0036364,-0.45884,-2.1861115,1.0942078,-4.4427032
338,1778325884700,0.7544042555555556,-1.0668336,-0.43996673333333336,-2.666907422222222,1.6573197888888889,-4.146265688888889
339,1778325884710,0.66337105,-1.1138145555555556,-0.33914415555555555,-2.9205576222222223,2.0008663444444448,-3.9684244777777775
340,1778325884720,0.66223145,-1.1346954,-0.1627993,-2.8886566,2.0422974,-3.9228515999999996
341,1778325884730,0.6698585050000001,-1.139180125,-0.08781231,-2.743848775,1.9681911749999998,-3.9558105
342,1778325884740,0.6434940077777778,-1.1923330555555556,0.29171851777777774,-1.753031377777778,1.4948136888888888,-4.212429466666666
343,1778325884750,0.34223118266666663,-1.326835888888889,0.24472337777777778,-0.57863192,1.081426,-4.374338822222222
344,1778325884760,-0.13724665677777778,-1.5554775,-0.16011410166666667,0.4223683688888889,0.73088752,-4.249647322222223
345,1778325884770,-0.41125467,-1.731538,-0.5000854,0.6895752,0.58714294,-4.043762
346,1778325884780,-0.5600075488888889,-1.7964840444444445,-0.7076968777777778,0.5932278155555556,0.5161251466666666,-3.6859502666666666
347,1778325884790,-0.9218221300000001,-1.9406939000000003,-1.2200545,0.29170227,0.38900757,-3.0099182
348,1778325884800,-1.08962660375,-1.9267521625000001,-1.457918925,-0.54294777875,0.40458107374999996,-2.4188346625
349,1778325884810,-1.1903533,-1.8943095555555556,-1.5113506111111112,-1.6985219555555555,0.6506974977777777,-1.7794273999999999
350,1778325884820,-1.2065154666666666,-1.8170391333333333,-1.1371167,-2.9722849666666664,1.2919921666666667,-1.2133534666666668
351,1778325884830,-1.2489403666666667,-1.7594404333333333,-0.7324286,-3.3783213333333335,1.5851135,-0.9092254666666667
352,1778325884840,-1.2908375,-1.7264113,-0.4715308,-3.502243,1.7253723,-0.6695404
353,1778325884850,-1.3067827333333333,-1.6461577666666667,-0.18984775,-3.0989243777777777,1.5988447444444445,-0.45228576555555555
354,1778325884860,-1.2963022555555554,-1.518298988888889,0.17331004555555557,-2.225887666666667,1.2746497444444445,-0.20881653
355,1778325884870,-1.2787969333333333,-1.4555086666666666,0.1856752088888889,-0.5798187333333333,0.6111670777777778,-0.13772922444444446
356,1778325884880,-1.35377305,-1.45700315,0.025919333750000002,0.0460796325,0.34665490062500004,-0.13889503875
357,1778325884890,-1.4774194,-1.4688101,-0.2221048,0.8397827,-0.046691895,-0.08576965
358,1778325884900,-1.6335619000000001,-1.4714406111111111,-0.4933472644444444,1.2272949444444443,-0.336683485,0.11710781666666668
359,1778325884910,-1.8183673857142857,-1.4706574142857143,-0.7956212628571429,1.6377345857142858,-0.6825038357142857,0.5562090228571429
360,1778325884920,-1.8439017,-1.4581316500000001,-0.932646375,1.597175625,-0.7215423625,0.9944076550000001
361,1778325884930,-1.8235799000000001,-1.4343623857142858,-1.094051757142857,1.3391592857142858,-0.6570957857142857,1.7381940571428571
362,1778325884940,-1.7789524,-1.4037681,-1.1555024,1.09758,-0.5798645,2.1635437
363,1778325884950,-1.6428499333333333,-1.358211533333333,-1.1668708833333332,0.7082189016666667,-0.45087432833333335,2.676638216666667
364,1778325884960,-1.3809761499999997,-1.27970685,-1.1053893833333335,0.18890381,-0.29170227,3.2948456
365,1778325884970,-1.1562553,-1.1979216375,-0.9811533499999999,-0.14134216249999998,-0.29856490874999997,3.7062511625
366,1778325884980,-0.863432,-1.0655059500000001,-0.7616546300000001,-0.42390442,-0.393974305,4.1497345
367,1778325884990,-0.7607447,-1.0158402,-0.66616666,-0.45932007,-0.44244385,4.2583923
368,1778325885000,-0.546081095,-0.92720102625,-0.4947012775,-0.34227371500000003,-0.5321922375,4.3389473249999995
369,1778325885010,-0.3908223488888889,-0.8584229288888889,-0.37346113999999997,-0.16371155,-0.6171417,4.369705
370,1778325885020,-0.27832485333333334,-0.8095702666666666,-0.3382349233333334,0.1427357978,-0.7364501999999999,4.314661666666667
371,1778325885030,-0.18091921555555557,-0.7805814666666667,-0.3424114366666667,0.4807790088888889,-0.9051208444444444,4.246960155555556
372,1778325885040,-0.12822982333333333,-0.7830905333333333,-0.38025388,0.7350802955555555,-1.0897674777777777,4.220740433333333
373,1778325885050,-0.10187147222222222,-0.7862359622222221,-0.4111679,0.9109090200000001,-1.2544691333333333,4.233637666666667
374,1778325885060,-0.08678067,-0.78898823,-0.4245505,1.0144806,-1.3654938,4.270096
375,1778325885070,-0.04100568422222222,-0.8460165877777778,-0.44065855555555555,1.1058569999999999,-1.4962819333333333,4.442316666666667
376,1778325885080,0.0124908965,-0.8962212875,-0.4613423,1.1678771749999999,-1.6358032,4.659191
377,1778325885090,0.08008475285714287,-0.8951182857142858,-0.4715832285714286,1.1302904,-1.7254028571428572,4.870459428571429
378,1778325885100,0.1593205775,-0.9091858125,-0.45045041750000003,1.04843519,-1.7400665750000002,5.076377750000001
379,1778325885110,0.24013382,-0.92053425,-0.41869277,0.96495056,-1.7053223,5.242157
380,1778325885120,0.37354656714285717,-0.9189663899999999,-0.3498688785714285,0.8570513028571429,-1.6416255285714285,5.4234030142857135
381,1778325885130,0.45673552,-0.92187816,-0.29446816,0.73431396,-1.5726776,5.644821
382,1778325885140,0.5778927857142858,-0.9360496428571429,-0.22672400285714284,0.6635502314285714,-1.487158657142857,5.8575766
383,1778325885150,0.7935499312500001,-0.94693924125,-0.13785911875,0.58517456,-1.3559113,6.1577606
384,1778325885160,0.9687682,-0.93529993,-0.12472543,0.5276489,-1.2595062,6.339905
385,1778325885170,1.1430519333333333,-0.9308800944444445,-0.11740383888888889,0.46900260222222223,-1.1429765288888887,6.430158933333334
386,1778325885180,1.4971516,-0.9305419,-0.11471934,0.28744507,-0.81155396,6.6328583
387,1778325885190,1.5939725571428571,-0.9019352714285713,-0.1244985637142857,0.1638641342857143,-0.7190355657142857,6.673342014285714
388,1778325885200,1.808141525,-0.78663995,-0.075913642,-0.20591736,-0.646308895,6.773208625
389,1778325885210,1.9196147,-0.7323674,0.04635965,-0.3948822,-0.70661926,6.849106
390,1778325885220,2.0779804333333334,-0.6828507555555556,0.29497229444444445,-0.4568939155555556,-0.7272220066666667,6.859054666666667
391,1778325885230,2.18395925,-0.6645194624999999,0.48535700000000004,-0.4331531525,-0.71307944125,6.8445188375
392,1778325885240,2.2985133999999996,-0.7071071666666666,0.6553626333333332,-0.15376790666666668,-0.62673442,6.8263804666666665
393,1778325885250,2.4758346,-0.7946424,0.7892967577777777,0.30631510666666667,-0.5032806511111112,6.80957888888889
394,1778325885260,2.638607,-0.8541515,0.75351506,0.6427002,-0.41793823,6.783066
395,1778325885270,2.7421420444444444,-0.797055591111111,0.5950538633333333,1.060104388888889,-0.1873033288888889,6.683458155555556
396,1778325885280,2.8223832555555557,-0.6412657588888888,0.3521762533333333,1.3239288,0.14453125,6.5732117
397,1778325885290,2.8222914125,-0.50824713125,0.176090269375,1.2563019,0.4023285,6.533783
398,1778325885300,2.8175828666666667,-0.4482037888888889,0.03963344648888889,0.7479281822222222,1.0299970777777778,6.515209666666666
399,1778325885310,2.8187213,-0.4641487000000001,0.0032819617,0.57559204,1.1511993,6.519943
400,1778325885320,2.7625885,-0.5737304400000001,0.0019404009249999995,-0.20711900000000003,1.38528825,6.7381896
401,1778325885330,2.7265088888888886,-0.5963465933333334,0.036637510444444445,-0.6241472222222222,1.4766930777777778,6.894387099999999
402,1778325885340,2.7568806666666665,-0.5447824511111111,0.1485645008888889,-0.9173889000000001,1.4528503333333334,7.1928304333333335
403,1778325885350,3.0075603500000003,-0.4381554875,0.3876420475,-0.9594611749999999,1.3562698499999999,7.394119275
404,1778325885360,3.233957377777778,-0.36003119,0.45866702111111113,-0.7674238222222223,1.306440577777778,7.3806152222222225
405,1778325885370,3.4923197333333333,-0.2845631833333333,0.3817751,-0.5136566266666667,1.254591188888889,7.194605555555556
406,1778325885380,3.6248426,-0.27048963,0.2708925,-0.27503967,1.1746368,6.8901215
407,1778325885390,3.6342253555555555,-0.2759129055555556,0.2402224888888889,-0.26343621,1.1514366666666667,6.834610055555555
408,1778325885400,3.632802088888889,-0.2780543966666667,0.10769880666666667,-0.2619442444444445,1.0384555333333334,6.580132555555555
409,1778325885410,3.3097654666666667,-0.03127143666666667,-0.010994833333333334,-0.6416609111111111,0.7456258088888889,6.068329
410,1778325885420,3.2471651,0.2164675325,0.2147585025,-0.836288475,0.56344223,5.916996
411,1778325885430,3.352964,0.2873054,0.39560547,-0.7192383,0.4220276,5.781189
412,1778325885440,3.4398324875,0.51928155,0.53395511375,-0.2547836375,0.27775001875,5.451684925
413,1778325885450,3.5297823,0.7895746,0.6555259,0.2831726,0.12535095,5.083969
414,1778325885460,3.599203255555556,0.9097732566666666,0.5800577722222222,0.8872951777777778,-0.046639337555555556,4.6051890222222225
415,1778325885470,3.6867115,1.0404658,0.3535046,1.6834564,-0.22673035,3.8594513
416,1778325885480,3.5998266,1.0900095,0.052582934,2.1628265,-0.2672119,3.009369
417,1778325885490,3.3122998,1.089195788888889,-0.29110429755555556,2.1295725111111112,-0.3075137622222222,2.4983911
418,1778325885500,3.040935,1.081467,-0.5830646,2.008377,-0.37001038,1.8365020999999997
419,1778325885510,2.714433275,1.0931366375,-0.71438389375,1.5841293375,-0.4895153125,1.5178566
420,1778325885520,2.4976238222222222,1.1231329444444444,-0.7035215855555556,1.101598088888889,-0.6612939,1.2142198555555557
421,1778325885530,2.3635552,1.1440669,-0.54645747,0.8738556,-0.7332611,1.0380859
422,1778325885540,2.2320846625,1.1082828625,-0.4438158975,0.64975738875,-0.5542984025000001,0.75806043625
423,1778325885550,2.1007059,1.070607,-0.3967285,0.46800231999999997,-0.3050232,0.52783203
424,1778325885560,1.8855227125,1.0077772999999999,-0.50968088125,0.12857818499999998,0.07660484375000001,0.3382835375
425,1778325885570,1.6864590999999998,0.9430864666666666,-0.5777367466666666,-0.2897694933333333,0.31265767333333333,0.17700195666666665
426,1778325885580,1.6069775,0.9145318000000001,-0.55292344,-0.5045929,0.30271912,0.09213257
427,1778325885590,1.58922225,0.9955284,-0.39466794250000004,-0.526165015,0.03347015000000002,-0.00947189175
428,1778325885600,1.6069775,1.1027002,-0.22918202,-0.4646454,-0.5622864,-0.20774841
429,1778325885610,1.7093723333333335,1.075243711111111,0.009682046444444446,0.21286011066666666,-1.5629221333333332,-0.6260376066666667
430,1778325885620,1.6526154,0.9659062,0.19608866,0.7518921,-1.9950714,-0.9768677
431,1778325885630,1.5412046,0.9591945000000001,0.2208589,0.85202026,-1.9881438999999999,-1.0279999
432,1778325885640,1.499211425,0.941393555,0.2177015675,0.948160165,-1.9236945875,-1.05210115
433,1778325885650,1.146075,0.649242,0.12640996,1.6211395,-1.4725494,-1.2208099
434,1778325885660,1.0048609555555557,0.48995349777777775,-0.008770908666666672,1.6481357222222224,-1.2808041000000001,-1.1901550222222221
435,1778325885670,0.8881885,0.3819990833333333,-0.16198528333333334,1.5694783333333335,-1.0998840666666667,-1.0675913333333333
436,1778325885680,0.946222975,0.3690946975,-0.2197253825,1.4552974625,-1.0198822200000002,-0.9706745
437,1778325885690,1.029482911111111,0.3841279511111111,-0.25353404444444444,1.3092702333333335,-0.8632236022222223,-0.9304674000000001
438,1778325885700,1.0489398,0.39286014,-0.26103106,1.2728119,-0.82221985,-0.9283905
439,1778325885710,1.17896155,0.499879315,-0.39910753,0.5929031300000001,-0.262413025,-1.04930875
440,1778325885720,1.2013134444444444,0.5526768111111111,-0.41085578666666667,0.3531290633333334,-0.20044962333333333,-1.1371917333333335
441,1778325885730,1.2479565,0.6126058666666667,-0.39594093111111106,0.11391194777777779,-0.2703433488888889,-1.3236694444444443
442,1778325885740,1.2947371875,0.631349285,-0.389145975,0.00486564625,-0.36727141500000005,-1.509096175
443,1778325885750,1.3240603666666668,0.6386522755555555,-0.40106592222222226,-0.057724,-0.46214293999999995,-1.6788788
444,1778325885760,1.2556704555555553,0.6652819555555556,-0.4350178777777778,-0.2433692088888889,-0.5243530333333334,-2.0488756
445,1778325885770,1.1663326,0.6852102,-0.4516099875,-0.38755035250000003,-0.45776367,-2.2190933
446,1778325885780,1.0635842000000002,0.7610200199999999,-0.46612097999999996,-0.5518239333333333,-0.259394329,-2.2317505
447,1778325885790,1.0139047333333333,0.9355208022222222,-0.4712193422222222,-0.7130347355555556,0.006688436777777775,-2.1353996777777775
448,1778325885800,1.1338726,1.0995271,-0.4739728,-0.75653076,0.13386536,-2.0032501
449,1778325885810,1.4598517777777777,1.2726180333333332,-0.4581091266666667,-0.6746843122222222,0.15712483666666666,-1.9992251777777779
450,1778325885820,1.9110722999999998,1.4977069,-0.46238017000000003,-0.48968506,0.15304565,-2.0698242
451,1778325885830,2.5480310499999996,1.7241618375,-0.70535402125,-0.26970672625000003,-0.045503618749999995,-2.32754705
452,1778325885840,3.0678765333333335,1.8982050222222222,-1.0284556,-0.07493760822222223,-0.7234310533333335,-3.0953758888888894
453,1778325885850,3.1955464,1.98997,-1.2011404,-0.31976318,-1.1258087,-3.865326
454,1778325885860,3.372182725,2.0317496875,-1.1831564875,-0.8305625950000001,-1.02527618,-4.1159286
455,1778325885870,3.6586038,2.0889486,-1.0540822333333333,-1.1997952,-0.9108632466666666,-4.2834387666666665
456,1778325885880,4.152860666666666,2.166681966666667,-0.8314071111111111,-1.3550279333333333,-0.8229726333333334,-4.572250333333334
457,1778325885890,4.670597375,2.194612725,-0.6503036125,-1.377311725,-0.82992555,-5.019805825000001
458,1778325885900,5.054530333333333,2.0693296333333335,-0.4659996533333334,-1.2811736666666667,-0.8561147,-5.834467533333334
459,1778325885910,5.067166888888889,1.8798863222222222,-0.33309664666666666,-1.2070736000000002,-0.7250891666666667,-6.5365955555555555
460,1778325885920,4.903825,1.6838003,-0.2278397,-1.1565399,-0.5026245,-7.066452
461,1778325885930,4.682587244444445,1.4359748555555556,-0.11669906155555555,-1.0680559222222223,-0.2609388527777778,-7.423192222222222
462,1778325885940,4.4024096,1.1733557,-0.004039457,-0.7948761,-0.117004395,-7.831314
463,1778325885950,4.2902038375,1.0782799375,0.025751538625,-0.6265010775,-0.216674805625,-7.931911425
464,1778325885960,4.044404322222222,0.7686402555555555,0.07968651,-0.1763712568888889,-0.5204399977777778,-8.166224333333334
465,1778325885970,3.988977,0.67315835,0.063077435,-0.049194336,-0.603302,-8.236649
466,1778325885980,3.63210345,0.284010225,-0.1023948715,0.131507873,-0.8593635625,-8.438978500000001
467,1778325885990,3.434803533333333,0.09881141533333333,-0.18871020333333333,0.12823825533333333,-0.9801093333333333,-8.495680111111112
468,1778325886000,3.2220128666666668,-0.09635348777777779,-0.25525607222222224,-0.07860311111111112,-1.0962185333333334,-8.458277222222222
469,1778325886010,3.0514985444444442,-0.27046181666666663,-0.2547944555555556,-0.3293609666666667,-1.1787159999999999,-8.405487
470,1778325886020,2.9800446,-0.35005155,-0.22625315,-0.47636414,-1.2046356,-8.380981
471,1778325886030,2.7382640222222223,-0.5122678922222222,-0.12467168066666666,-0.8499196377777778,-1.1182369333333333,-8.241787666666667
472,1778325886040,2.5680882666666665,-0.6067996266666666,-0.040512265444444445,-1.0690087222222222,-1.0152011055555556,-8.128576
473,1778325886050,2.3157810000000003,-0.6844709849999999,0.09199680225000001,-1.32991025,-0.679992675,-7.808937
474,1778325886060,2.107498533333333,-0.70840959,0.23171997,-1.4697265333333334,-0.3875783266666667,-7.488301666666666
475,1778325886070,1.97953,-0.70002997,0.33422503,-1.4803772,-0.23738098,-7.257141
476,1778325886080,1.9389357666666667,-0.6861995900000001,0.46658501999999996,-1.3434015666666668,-0.18420664333333334,-7.0227788
477,1778325886090,1.9334036,-0.6794065,0.6057381,-1.000473,-0.14364624,-6.6946716
478,1778325886100,1.8903275000000002,-0.68758184,0.6711456,-0.4811554,-0.24217224,-6.5519257
479,1778325886110,1.8074696,-0.7021034,0.618796,-0.091278076,-0.36575317,-6.4709625
480,1778325886120,1.8074696,-0.7021034,0.618796,-0.03502807612,-0.39003295600000004,-6.460415639999999
481,1778325886130,1.7108243833333334,-0.7532540033333334,0.287100623,0.33581543126666663,-0.5454177800000001,-6.36106615
482,1778325886140,1.6076696666666666,-0.8027361666666666,0.066411764,0.47154744666666665,-0.6308186833333334,-6.274780266666667
483,1778325886150,1.4042067222222223,-0.8116584777777778,-0.10295024444444444,0.1801317,-0.572106258888889,-6.108835844444444
484,1778325886160,1.196656275,-0.82150961125,-0.19013309374999998,-0.354125975,-0.33857727,-5.77295685
485,1778325886170,1.0194099,-0.84805113,-0.23772445000000003,-0.6111145,-0.18997192,-5.5894623
486,1778325886180,0.706419668888889,-0.8450944211111112,-0.25084918777777776,-1.1828054000000001,0.35668944999999996,-5.053985666666667
487,1778325886190,0.46295878,-0.8391416,-0.25200176,-1.717392,0.9099121000000001,-4.5311127
488,1778325886200,0.23825002166666667,-0.8588161,-0.16503635444444445,-2.1927982000000004,1.624589711111111,-3.769810988888889
489,1778325886210,0.016762113000000002,-0.8732491,-0.060294765,-2.63326265,2.5714569,-2.62376405
490,1778325886220,0.013650471,-0.868673,-0.04772532,-2.6846619,2.8076782,-2.2759552
491,1778325886230,0.3179346391111111,-0.8651752133333334,-0.2043559488888889,-2.537058533333333,3.1274990000000003,-1.9806942333333335
492,1778325886240,0.45734525,-0.874775,-0.30032438,-2.4428406,3.265747,-1.9015045
493,1778325886250,0.47213775555555554,-0.9217830688888888,-0.46532080333333325,-2.2350566,3.2604879,-2.1179403555555556
494,1778325886260,0.40133414,-0.9893589999999999,-0.65457404,-1.8425598,2.9669495,-2.5454712
495,1778325886270,0.34853655333333333,-1.0201508333333333,-0.68967754,-1.6738976333333335,2.711698788888889,-2.6371392444444446
496,1778325886280,-0.51131874,-1.2994344,-1.058246,-0.8827667,1.4494781,-2.925232
497,1778325886290,-0.83770438,-1.3397853999999998,-1.2424267333333334,-0.8179066866666668,1.2305043222222223,-2.765441911111111
498,1778325886300,-1.1966581666666665,-1.4880232111111111,-1.566683888888889,-0.9813029044444446,0.8828124944444444,-2.114568044444445
499,1778325886310,-1.3445699,-1.5927914333333333,-1.7139860666666666,-1.3894755,0.9374338666666667,-1.5986277333333332
500,1778325886320,-1.4946653222222224,-1.643148411111111,-1.7074774,-1.8918083666666665,1.0672827555555555,-1.0994856222222222
501,1778325886330,-1.6109046666666669,-1.655690188888889,-1.5415322,-2.1918538222222224,1.0184054733333334,-0.6446194000000001
502,1778325886340,-1.6690035,-1.6716213,-1.4055382,-2.2835846,0.9269714399999999,-0.3904419
503,1778325886350,-1.7393334,-1.6097254444444444,-1.133875911111111,-2.123263888888889,0.4413791244444445,0.2863074427777778
504,1778325886360,-1.7289742222222222,-1.5684662555555555,-1.0023554633333334,-1.974297377777778,0.16269090311111112,0.6641896622222223
505,1778325886370,-1.5490763555555556,-1.498503588888889,-0.9133557611111112,-1.7349785777777778,-0.1878950311111111,1.1075693777777778
506,1778325886380,-1.3583188666666668,-1.4379773,-0.8459011844444445,-1.5464223333333331,-0.4395955366666666,1.3748931666666666
507,1778325886390,-1.2765602,-1.4101143,-0.80149704,-1.4516144,-0.54470825,1.4402313
508,1778325886400,-1.240995388888889,-1.325847,-0.67470874,-1.191455422222222,-0.7598944744444445,1.4691111222222224
509,1778325886410,-1.2065831666666667,-1.2329562222222223,-0.5273654177777778,-0.9408264000000001,-0.95803833,1.4929657
510,1778325886420,-1.17680175,-1.10967945,-0.35847187,-0.280616755,-1.2888031,1.57072445
511,1778325886430,-1.147372888888889,-1.0196498333333333,-0.2908065111111111,0.22689310333333335,-1.4775865444444445,1.6499633555555553
512,1778325886440,-1.1026691,-0.9659295000000001,-0.32924607,0.624588,-1.5231476,1.7353058
513,1778325886450,-1.0072296911111112,-0.9539846555555557,-0.48519872666666664,0.9530520944444445,-1.4657440222222222,1.8588748444444443
514,1778325886460,-0.9719766755555556,-0.9777266066666667,-0.6223183666666667,1.2344513,-1.4592285,2.009079
515,1778325886470,-0.9523708066666666,-0.9564932399999999,-0.7666377,1.4359639666666668,-1.7441965666666668,2.3339844000000003
516,1778325886480,-0.7696127333333334,-0.8857164166666667,-0.8952559,1.5488892,-2.0651905999999998,2.7139282
517,1778325886490,-0.5840476,-0.85903245,-0.9331659,1.5332642,-2.1362152,2.855957
518,1778325886500,-0.5032373800000001,-0.8331625055555555,-0.9340334777777777,1.490653166666667,-2.0966830777777776,2.870813977777778
519,1778325886510,-0.36781302,-0.8115638,-0.9415855,1.2685394,-1.8810883000000003,2.9209442
520,1778325886520,-0.22219156888888889,-0.7708871822222222,-0.9222372822222221,1.2401377111111112,-1.8673553666666665,2.919052111111111
521,1778325886530,-0.05728949944444444,-0.7287057688888888,-0.8934387866666668,1.1731482444444445,-1.9103156000000001,2.941307888888889
522,1778325886540,0.10940183333333334,-0.7030802,-0.8364781933333334,1.02655029,-2.123423233333333,3.039016666666667
523,1778325886550,0.2711304666666667,-0.7185370466666667,-0.7516273,0.9297943133333333,-2.1015930333333332,3.0709686333333335
524,1778325886560,0.3389784,-0.74945074,-0.6909385,0.8818512,-2.0472717,3.0887299
525,1778325886570,0.4735487,-0.7478102600000001,-0.5929089288888889,0.8606685911111112,-2.1901312999999996,3.244847611111111
526,1778325886580,0.6341522533333334,-0.7109311555555556,-0.4562230844444444,0.8664008311111111,-2.3935969999999998,3.4489661333333332
527,1778325886590,0.7516521577777778,-0.7171808744444443,-0.30900247999999997,0.9330410666666666,-2.4416486666666666,3.5790422000000004
528,1778325886600,0.8011951222222221,-0.7595926322222222,-0.16587715444444445,1.1352691666666668,-2.473965166666667,3.7207844555555556
529,1778325886610,0.7805998,-0.7489623,-0.098489955,1.33992,-2.531952,3.841339
530,1778325886620,0.7660646377777778,-0.7675248222222222,-0.07455842377777779,1.5472869777777776,-2.567230244444444,3.9618292222222227
531,1778325886630,0.74277014,-0.8074154,-0.05224074,1.820343,-2.6033325,4.133209
532,1778325886640,0.7007522333333334,-0.8495152666666667,-0.095561076,1.9358723999999998,-2.545691588888889,4.348992222222222
533,1778325886650,0.660065875,-0.8577822900000001,-0.171798245,1.9866027624999998,-2.3922767250000003,4.7626476125
534,1778325886660,0.6553984,-0.85915536,-0.22918202,1.8379211,-2.2720337,5.101013
535,1778325886670,0.7624985355555556,-0.8549515355555556,-0.20207844888888887,1.4532436666666666,-1.867526588888889,5.681871144444445
536,1778325886680,0.8785610933333333,-0.8594800888888889,-0.16231089333333334,1.1376291611111111,-1.5029704,6.162187322222222
537,1778325886690,1.0228799555555554,-0.8953018666666667,-0.14054866222222223,0.9196150066666667,-1.251569948888889,6.562432144444444
538,1778325886700,1.2732284,-1.0126672,-0.13827012,0.56547546,-0.9750671399999999,7.3668213
539,1778325886710,1.5388448666666668,-1.0129114,-0.10633969766666666,0.3652631978888889,-0.9683871866666666,7.845718377777778
540,1778325886720,2.1588997222222224,-0.9734827333333332,-0.0026701590000000053,-0.022021823444444442,-0.9481472444444444,8.675796444444446
541,1778325886730,2.647028,-0.9063798000000001,0.12726389,-0.21963501,-0.8669586,8.924774
542,1778325886740,3.0169642,-0.8288104,0.2610614722222222,-0.2828403066666667,-0.6445515844444444,8.843107444444444
543,1778325886750,3.6137245333333334,-0.6919080000000001,0.4796962922222222,-0.36386108666666667,-0.2526482511111111,8.658467777777778
544,1778325886760,3.6907384,-0.6396248,0.51202023,-0.3288269,-0.1020813,8.505066
545,1778325886770,3.7045010222222223,-0.5820138277777778,0.5315715177777778,-0.19638061333333334,0.030721026666666665,8.285969999999999
546,1778325886780,3.706955311111111,-0.4903705288888889,0.5339848522222223,-0.011260985999999997,0.024739583111111112,8.059963555555555
547,1778325886790,3.6661699666666667,-0.35053942666666665,0.5815765466666667,0.2595621733333333,-0.16104126000000002,7.877975433333333
548,1778325886800,3.642170633333334,-0.30172789,0.6608543333333334,0.5397237100000001,-0.27874756,7.785649533333333
549,1778325886810,3.639702744444444,-0.2650926344444444,0.6844198355555555,0.81420899,-0.2774522577777778,7.737486
550,1778325886820,3.644733533333334,-0.16558455,0.6585357166666667,1.3341217222222221,-0.24608696888888884,7.6543325555555555
551,1778325886830,3.6549838,-0.14443275,0.63600063,1.4704132,-0.22619629,7.631546
552,1778325886840,3.72453995,-0.03625478725,0.39764853899999997,1.942991275,0.058040616875,7.438398275
553,1778325886850,3.8034619249999997,0.06795799375,-0.028841990500000005,2.1866684,0.2381439175,7.19704425
554,1778325886860,3.768308033333333,0.15974443333333332,-0.42544541333333336,2.0259500666666668,0.17666626,6.886388233333334
555,1778325886870,3.7106295,0.20969558,-0.6642146,1.8139648,0.04812622,6.7021027
556,1778325886880,3.693179,0.27522436,-0.84005773,1.2477722,-0.2038269,6.5039673
557,1778325886890,3.6350528555555552,0.5625202666666667,-0.641421798888889,0.5542806,-0.0042673800000000055,6.213328166666667
558,1778325886900,3.606033228571429,0.7469522571428572,-0.44529442,0.12802560114285713,0.2709851914285714,5.962886242857143
559,1778325886910,3.609802925,0.9167895687500001,-0.27678855125,-0.010572432499999996,0.51529694,5.6438178875
560,1778325886920,3.6158128666666665,1.1378851333333333,-0.19651950666666665,-0.0887841088888889,0.8039805111111112,5.145329788888889
561,1778325886930,3.6141039999999998,1.2475482,-0.24175147999999996,-0.06889343,0.85079956,4.7579956
562,1778325886940,3.5020543777777777,1.335204988888889,-0.39480254,-0.1561279266666667,0.8267076322222223,4.0875854333333335
563,1778325886950,3.32606708,1.4250504400000001,-0.498060862,-0.302241513,0.8185684240000001,3.5142974700000003
564,1778325886960,3.155547266666667,1.4953884000000002,-0.4658776544444444,-0.42310587666666666,0.7258097333333333,2.9839732
565,1778325886970,2.932628111111111,1.5693780555555557,-0.35331241333333335,-0.45056491222222217,0.5010376111111111,2.4341752666666667
566,1778325886980,2.881567,1.6220543,-0.29019696,-0.37516785,0.31336975,2.0746002
567,1778325886990,2.8249315333333334,1.6646828444444446,-0.2744418155555556,-0.2891116677777778,0.21146138333333334,1.6857757555555555
568,1778325887000,2.7307384,1.6723305,-0.28397366,-0.19140625,0.11470032000000001,1.1387634
569,1778325887010,2.4890406666666665,1.5934992,-0.34803776666666664,-0.23343064777777778,0.10741848388888889,0.7033606422222223
570,1778325887020,2.304614888888889,1.5485651111111112,-0.36230178222222226,-0.3987172455555556,0.09736293888888888,0.3616536444444444
571,1778325887030,2.1534214666666665,1.4637019333333334,-0.27193307333333333,-0.6120097000000001,0.16405741,0.05147807000000001
572,1778325887040,2.0829165333333335,1.3912841333333335,-0.19698044222222222,-0.7022095,0.22868347,-0.11399841
573,1778325887050,2.0655608,1.3755556,-0.17463614,-0.7022095,0.22868347,-0.11399841
574,1778325887060,1.8364185666666666,1.2304774222222223,0.020203680044444446,-0.53158569,0.34780883333333334,-0.5954945899999999
575,1778325887070,1.7011841555555556,1.1137373666666668,0.08472939666666668,-0.25177340711111107,0.24093627555555555,-0.8181406655555555
576,1778325887080,1.6376472,1.0104469977777777,0.07084629755555555,0.02306111677777778,0.03587002000000001,-0.9939659833333333
577,1778325887090,1.6153151333333333,0.9244984933333333,0.031145971666666668,0.25369771333333335,-0.20755004999999999,-1.1698557333333333
578,1778325887100,1.612224,0.890981,0.010968907,0.39183044,-0.38119507,-1.3087006
579,1778325887110,1.6443322222222223,0.8802423333333333,0.027728859444444445,0.4922637933333333,-0.53020902,-1.5901048333333334
580,1778325887120,1.6627045,0.8493690666666667,0.043348854,0.51700338,-0.5665486666666667,-1.7905476666666666
581,1778325887130,1.6726286666666668,0.8177227833333334,0.04761955333333333,0.47261556,-0.5019276800000001,-2.0032450333333336
582,1778325887140,1.6620527777777778,0.8152271944444445,0.04569392666666666,0.3807678222222222,-0.38154941555555555,-2.1949971222222224
583,1778325887150,1.6028292,0.79909235,0.03696173,0.2581482,-0.24110412999999997,-2.3292236
584,1778325887160,1.541014711111111,0.8266307500000001,0.12866032666666669,0.15718079000000001,0.011359317777777779,-2.418821511111111
585,1778325887170,1.4987927444444444,0.9050951888888888,0.2596247655555556,0.16624111444444445,0.23530578222222223,-2.4784190555555554
586,1778325887180,1.5232251444444445,1.045374011111111,0.34170907666666667,0.4552205466666666,0.2810618033333333,-2.474985766666667
587,1778325887190,1.6469751444444445,1.2409853555555557,0.3002058122222222,0.8360528111111112,0.1775512677777778,-2.445990688888889
588,1778325887200,1.845909,1.4230258,0.14996076,1.2664185,-0.19317627,-2.4128418
589,1778325887210,2.197433111111111,1.6465281444444446,0.0012346661111111126,1.421176511111111,-0.5541161377777777,-2.5549350444444445
590,1778325887220,2.6162755,1.8869786,-0.18220176,1.4901123,-0.9159546,-2.8378754
591,1778325887230,3.04220422,1.9297609999999998,-0.379399736,1.25171812,-1.002883932,-3.34016116
592,1778325887240,3.4321869222222223,1.8676304,-0.4860524666666666,0.63305156,-0.8297848244444445,-4.288479311111112
593,1778325887250,3.5544329,1.8114420999999998,-0.4476129,0.28424072,-0.6325989,-4.803833
594,1778325887260,3.5021503222222226,1.687840588888889,-0.2715670288888889,0.084325155,-0.49677531666666663,-5.2785797
595,1778325887270,3.434315777777778,1.5982313,-0.13856911666666666,-0.07464429888888889,-0.3575761611111111,-5.789905122222223
596,1778325887280,3.471087133333333,1.4752942666666666,0.01656967277777778,-0.0031534844444444455,-0.24294026666666665,-6.074276422222223
597,1778325887290,3.640977866666667,1.3266231666666668,0.019850943111111113,0.08450317466666667,-0.03355407999999999,-6.304255133333333
598,1778325887300,3.7602942,1.2259495,-0.058586902999999996,0.110076904,0.18873596,-6.478958
599,1778325887310,3.915256966666666,1.0869448777777777,-0.19791559255555555,-0.033745661555555556,0.25732760555555556,-6.784861222222222
600,1778325887320,3.9711595000000006,1.0247233,-0.22539921000000002,-0.1482544,0.22496033,-6.973236
601,1778325887330,4.152684455555556,0.9272778800000001,-0.11724206999999999,-0.2832031288888889,0.079779731,-7.072252033333333
602,1778325887340,4.5318135,0.8382776088888888,0.10247774,-0.41641066000000004,-0.05800204822222223,-7.209606533333333
603,1778325887350,4.725731100000001,0.7019032133333334,0.2606008822222222,-0.42955356222222224,0.040132312222222216,-7.509899399999999
604,1778325887360,4.835299455555555,0.41268291333333335,0.4545041444444445,-0.294564132,0.3579949333333333,-8.123184233333333
605,1778325887370,4.7739863,0.1993224,0.49835264999999995,-0.049728394,0.5700989,-8.563141
606,1778325887380,4.538145433333334,-0.05079626466666667,0.41639018333333333,0.20327758866666665,0.47866822000000003,-8.882548166666666
607,1778325887390,4.163111175,-0.38327401875,0.27836534875,0.520267485,0.2661724075,-9.264820375
608,1778325887400,3.8704598666666663,-0.5509108611111111,0.17368870733333333,0.5205485022222223,0.11599392433333332,-9.2561
609,1778325887410,3.525104388888889,-0.7370577277777778,0.02394604933333333,0.2513936362,0.102264403,-9.039322
610,1778325887420,3.3690705000000003,-0.823522,-0.052362066,0.0014038086,0.32669067,-8.911484
611,1778325887430,3.0222930555555556,-0.9312603222222222,-0.14414188333333333,-0.44417317777777776,0.7793070222222223,-8.700027666666667
612,1778325887440,2.825650711111111,-0.9832172888888889,-0.17932730666666666,-0.8401506066666666,1.187778011111111,-8.449574777777777
613,1778325887450,2.6247775333333334,-1.0664410666666668,-0.19163908333333335,-1.1235097066666666,1.4705963,-8.239837666666666
614,1778325887460,2.274067088888889,-1.1896903555555556,-0.19985522333333333,-1.4793039555555556,1.815621277777778,-7.955050911111111
615,1778325887470,1.9454846,-1.241227,-0.20697357,-1.6657257,2.0177917,-7.7636566
616,1778325887480,1.5321603777777777,-1.3261311222222223,-0.12139023944444445,-1.834391277777778,2.3851911555555554,-7.352172822222221
617,1778325887490,1.2815135555555557,-1.3676345444444447,-0.07195497511111111,-1.9094916222222222,2.6873711111111107,-6.9536472
618,1778325887500,0.8748053777777778,-1.3451816555555556,-0.06501360444444444,-1.7711893333333333,3.0168354666666666,-6.233769733333333
619,1778325887510,0.7465125,-1.3284364333333332,-0.11069232333333333,-1.6193898333333334,3.106313066666667,-5.745168066666667
620,1778325887520,0.6571063,-1.3190811,-0.15486659,-1.4685329444444446,3.123177411111111,-5.3377058
621,1778325887530,0.45885090000000006,-1.3036242333333332,-0.20221393999999998,-1.2158355666666667,3.0290781666666664,-4.756429000000001
622,1778325887540,0.31261955333333336,-1.2854816666666666,-0.2276768833333333,-0.9615885666666668,2.8902435,-4.214208
623,1778325887550,0.193373488,-1.29491896,-0.281874146,-0.76797943,2.79975434,-3.7964141099999997
624,1778325887560,0.11037760666666667,-1.3004107,-0.36703425333333334,-0.6049041666666667,2.7467905333333333,-3.3103281333333334
625,1778325887570,0.11249196,-1.2938209,-0.42064482,-0.5658417,2.754959,-3.104721
626,1778325887580,0.22056942222222223,-1.324110988888889,-0.5741982822222222,-0.606862388888889,2.9249301111111112,-2.9882592
627,1778325887590,0.24702300444444447,-1.3582103555555554,-0.6900311411111111,-0.6922013888888889,3.1425374444444447,-2.995062911111111
628,1778325887600,0.04464452666666668,-1.3712679,-0.7833554966666667,-0.8268992111111112,3.273681622222222,-2.968797488888889
629,1778325887610,-0.19855851555555556,-1.3327208444444445,-0.8499556333333333,-0.8948940555555556,3.2242092444444443,-2.8777703111111115
630,1778325887620,-0.33620664,-1.2475716,-0.8666603,-0.8683777,2.866272,-2.67276
631,1778325887630,-0.40028525555555555,-1.1421390444444444,-0.8261870888888889,-0.6966383066666667,2.288603022222222,-2.416926088888889
632,1778325887640,-0.45494056000000005,-1.0135211,-0.7739177,-0.46038818000000004,1.7514801,-2.1672974
633,1778325887650,-0.42055616444444444,-0.9110986377777777,-0.8375082266666667,-0.09381103111111111,1.4146169222222222,-1.9515177555555556
634,1778325887660,-0.383921072,-0.839728276,-1.0586594,0.30043792799999997,1.09698031,-1.7201492299999999
635,1778325887670,-0.44047416333333334,-0.9001834555555556,-1.5190109444444444,0.3414137,1.0351460555555556,-1.5514017666666666
636,1778325887680,-0.5166471133333332,-0.9664987999999999,-1.8980046333333331,0.13013203,0.9319305466666665,-1.3832651666666667
637,1778325887690,-0.609552,-1.043051,-2.2305737,-0.14506531,0.79060364,-1.2405243
638,1778325887700,-0.7101706822222221,-1.0575325444444443,-2.420545088888889,-0.7077670577777778,0.44350178715555555,-1.0299513333333334
639,1778325887710,-0.7822221,-1.0362179,-2.5240524,-1.3702985777777776,-0.013614230177777778,-0.80114746
640,1778325887720,-0.7736797,-1.0204769,-2.3993394,-1.54216,-0.14523315,-0.75476074
641,1778325887730,-0.7360133000000001,-1.017791388888889,-1.9579757111111111,-1.9552459444444443,-0.5025109166666666,-0.6687672955555556
642,1778325887740,-0.7812453,-1.0402449,-1.7403854,-2.0273895,-0.6464386,-0.6295929
643,1778325887750,-0.9563569,-1.0798905222222221,-1.4496856555555557,-1.8055792555555554,-0.7823215055555556,-0.5065477177777777
644,1778325887760,-1.1639277,-1.08767726,-1.16621608,-1.43888393,-0.9353897050000001,-0.2951416
645,1778325887770,-1.2341213222222223,-1.0764332888888888,-1.1077612000000001,-1.0079294866666666,-1.0713636444444443,-0.03942701444444444
646,1778325887780,-1.3221982,-1.088202,-1.0769143,-0.43748474,-1.2200928,0.33714294
647,1778325887790,-1.3578315,-1.121395,-1.1326827,-0.09979248,-1.3596344,0.6391449
648,1778325887800,-1.431048288888889,-1.171046111111111,-1.1632977444444446,0.16889106044444444,-1.6657257333333333,1.101710011111111
649,1778325887810,-1.4535420666666665,-1.2029632222222224,-1.1510131000000001,0.3278537355555555,-1.9225752444444444,1.5080515555555556
650,1778325887820,-1.4393866222222222,-1.2488596777777776,-1.0575529666666668,0.49178737777777776,-2.2491862,2.0803883555555553
651,1778325887830,-1.3939787333333333,-1.2508126222222222,-0.9943423,0.6548902666666666,-2.5892469555555553,2.578401322222222
652,1778325887840,-1.3522179,-1.2525754,-0.9707497999999999,0.75668335,-2.8153229,2.8639526
653,1778325887850,-1.05257643,-1.3037048,-0.9476866000000002,0.9819885000000002,-3.4681121599999996,3.50577092
654,1778325887860,-0.8716010533333333,-1.3213310555555557,-0.9301554222222221,1.0919460555555556,-3.842408933333333,3.8650038222222225
655,1778325887870,-0.4995493200000001,-1.3418862555555555,-0.8381727288888889,1.141662588888889,-4.194188444444444,4.268622488888889
656,1778325887880,-0.150316954,-1.3621561333333334,-0.72766896,1.1545664333333334,-4.387120533333333,4.5637564
657,1778325887890,0.012306578,-1.371919,-0.6642146,1.1460419,-4.4190826,4.682358
658,1778325887900,0.299481326,-1.3942094666666667,-0.5163163266666666,1.1387617333333333,-4.364629044444444,4.855999511111111
659,1778325887910,0.5371529,-1.4187781,-0.38196278,1.1412506,-4.28804,5.049881
660,1778325887920,0.8713473277777778,-1.4689051,-0.22157630333333334,1.2861277222222223,-4.102696755555555,5.279503722222222
661,1778325887930,1.03415016,-1.50136746,-0.17478235,1.4082000799999999,-3.96165162,5.452331599999999
662,1778325887940,1.2164857333333332,-1.5458102,-0.16283973666666665,1.5439097333333334,-3.727361,5.7282665
663,1778325887950,1.3157627555555556,-1.5846413777777777,-0.15421607222222222,1.6027442444444444,-3.5958675555555555,5.9786055000000005
664,1778325887960,1.4391332444444445,-1.6267826666666667,-0.15081297333333332,1.6669617,-3.5109406,6.3489685
665,1778325887970,1.6738631555555556,-1.6038417777777778,-0.18655402666666665,1.6695573777777777,-3.4591522111111113,6.857749
666,1778325887980,1.9238320333333334,-1.5698228666666667,-0.24256461666666665,1.5872904444444444,-3.3799675777777782,7.200412222222222
667,1778325887990,2.1849403,-1.5192074142857144,-0.3084313,1.361301942857143,-3.198891785714286,7.362407285714285
668,1778325888000,2.4792384000000003,-1.4382214333333334,-0.33994433333333335,0.8456319199999999,-2.6638743333333332,7.317830333333333
669,1778325888010,2.6486146,-1.3802173,-0.33351728,0.38864136,-2.180954,7.198517
670,1778325888020,2.7313858,-1.33529857,-0.271428965,-0.22368621600000002,-1.6833648799999998,7.003573609999999
671,1778325888030,2.7810144,-1.3027288,-0.18781531,-0.6851654,-1.4065094,6.8437805
672,1778325888040,2.8030341777777776,-1.2919230666666666,0.02478633111111111,-0.9127078555555556,-1.3776296,6.660795511111111
673,1778325888050,2.8205790666666664,-1.2766017111111112,0.20134860444444447,-1.0123647,-1.429946911111111,6.530007377777778
674,1778325888060,2.838612,-1.2496465,0.30859926,-0.9216461,-1.6275482,6.4794617
675,1778325888070,2.8516965555555553,-1.2512463555555557,0.3584410111111111,-0.8483225333333333,-1.7437218444444444,6.554858755555555
676,1778325888080,2.9032886,-1.2461079,0.5034778,-0.648407,-2.005188,6.9023743
677,1778325888090,2.9826328333333336,-1.2390566222222223,0.4910720155555555,-0.6266242177777778,-1.9559529777777778,7.0311447
678,1778325888100,3.1387485111111113,-1.211099,0.40448579,-0.7948811933333333,-1.493982961111111,7.6252712222222225
679,1778325888110,3.4419222,-1.0921078,0.20316587,-1.3285828,-0.92500305,8.126892
680,1778325888120,3.8019745555555553,-0.8789641,0.36911129111111113,-1.6890547,-0.893222391111111,8.122987444444444
681,1778325888130,4.1668809,-0.6377545777777778,0.7035233111111111,-1.9363148888888888,-1.0098724355555555,8.009535044444444
682,1778325888140,4.449281388888888,-0.20859294222222222,1.2879599777777777,-1.4849904333333335,-1.3260803333333333,7.6927948
683,1778325888150,4.603511466666666,0.24764603333333332,1.6314704,-0.5395609566666667,-1.4093475333333334,7.202774066666667
684,1778325888160,4.6230364,0.54686034,1.6318768,0.15960693,-1.1689606,6.836319
685,1778325888170,4.588597466666666,0.9282944688888889,1.2670657866666666,0.5635223433333334,-0.6317087833333334,6.437383033333333
686,1778325888180,4.560802,1.212282,0.9640147699999999,0.844574,-0.08984375,6.0475006
687,1778325888190,4.40527698,1.40552621,0.666227937,0.6851593060000001,0.20172729399999997,5.7064056700000005
688,1778325888200,4.172344633333333,1.6447646777777778,0.35027793777777777,0.35194736,0.5264214444444444,5.289979777777778
689,1778325888210,4.0907072,1.7310253333333334,0.2621462933333334,0.06851705333333334,0.6902923666666667,5.1132558333333336
690,1778325888220,4.005165666666667,1.8053811666666668,0.15504546666666666,-0.26171874666666667,0.811203,4.863276166666667
691,1778325888230,3.945047,1.8135171,0.08077048,-0.40872192,0.7490692,4.6914215
692,1778325888240,3.8537139888888894,1.8773919777777779,-0.026980352111111112,-0.45452371999999996,0.06379698333333333,4.283179333333333
693,1778325888250,3.809376577777778,1.909458766666667,-0.0844556411111111,-0.45979139222222226,-0.45853848333333336,3.9431220111111114
694,1778325888260,3.7364440000000005,1.868688,-0.09790649777777778,-0.47571478666666667,-0.8775431333333334,3.4976061111111107
695,1778325888270,3.4766862,1.7574520222222223,-0.06086474666666667,-0.5777486133333334,-1.0312974666666668,2.9916008222222223
696,1778325888280,3.3207479,1.6991757,-0.03296116,-0.6398773,-1.0192871,2.7915192
697,1778325888290,2.9295373555555555,1.5542333333333334,0.12345395244444443,-0.6830901988888889,-0.9933675133333334,2.4885118111111115
698,1778325888300,2.5276828,1.401183,0.32824594,-0.65586853,-0.9862671,2.2375793
699,1778325888310,2.4121501777777774,1.3456047555555555,0.4276311333333333,-0.4826982261666666,-1.0079243888888891,2.1471506555555555
700,1778325888320,2.2173648,1.2315615,0.6529642,0.0115356445,-1.0283356,1.9829865
701,1778325888330,2.1099556500000003,1.1534757900000001,0.6440678799999999,0.5510864,-0.99424744,1.7118682999999997
702,1778325888340,1.9461765222222225,1.0420382111111113,0.5323995111111111,0.8893110444444444,-0.8526899433333334,1.4140726333333333
703,1778325888350,1.8206487999999998,0.9546791000000001,0.4202544,1.08638,-0.72846985,1.1637878
704,1778325888360,1.6357759888888888,0.8355796944444445,0.2800712644444444,1.0836690333333334,-0.5699751133333333,0.8502468599999999
705,1778325888370,1.439730377777778,0.7277880844444444,0.1651070377777778,1.0037146666666668,-0.4243876177777778,0.5477735733333334
706,1778325888380,1.2981231,0.66656953,0.13312165,0.8802643,-0.3518982,0.36218262
707,1778325888390,1.0530617422222222,0.6113857444444445,0.18341102,0.6894531177777777,-0.23933240444444445,0.10591464582222222
708,1778325888400,0.8723241466666667,0.6414327,0.24188939,0.61464437,-0.16369628666666666,-0.025945027933333333
709,1778325888410,0.7297953888888888,0.7381066111111111,0.2653460033333333,0.6242370611111112,-0.10368516666666666,-0.09613206555555556
710,1778325888420,0.6906513755555556,0.7971274733333333,0.2380519677777778,0.64454312,-0.069598726,-0.1509280711111111
711,1778325888430,0.74655294,0.81459063,0.16838796,0.63790894,-0.024856567,-0.23916626000000002
712,1778325888440,0.9741239044444446,0.8853808022222222,0.014211636111111111,0.40828111333333333,0.18985833255555554,-0.6704881533333333
713,1778325888450,1.1410728,0.9563885300000001,-0.07957435,0.22535366244444444,0.3352118611111111,-1.003148411111111
714,1778325888460,1.2976753888888888,0.9762781777777777,-0.08213804555555555,-0.16382005666666666,0.5702785944444444,-1.7642160999999998
715,1778325888470,1.3699572,0.9674512666666667,0.04058226,-0.45795525,0.7558152888888888,-2.5831078888888888
716,1778325888480,1.3615786,0.964441,0.17985772,-0.5141754,0.8002014,-2.939087
717,1778325888490,1.2798321666666665,0.9455136111111112,0.4838176577777778,-0.21721394533333332,0.7522599933333333,-3.3924696
718,1778325888500,1.2346678,0.92331845,0.65235287,0.015777588,0.72509766,-3.6160583000000006
719,1778325888510,1.29343656,0.8973754279999999,0.58770226,0.41260529,0.532546995,-3.4940872
720,1778325888520,1.4459942000000001,0.9639541322222223,0.4304502511111111,0.5415039133333334,0.37343851666666666,-3.317671011111111
721,1778325888530,2.0473918555555555,1.2467487555555554,0.3713887777777778,0.19215393111111112,0.2555525,-3.094969022222222
722,1778325888540,2.8324293333333332,1.5725516333333334,0.6037456333333333,-0.27875773,0.36006163333333335,-3.084849033333333
723,1778325888550,3.4241064,1.8140055,0.9209387000000001,-0.54293823,0.6483917,-3.2847595
724,1778325888560,4.006345466666667,2.1420184777777775,1.4274388777777778,-0.46494209577777773,1.5667741666666666,-3.7609321000000002
725,1778325888570,4.810961,2.5588677,2.0780137,-0.06091308599999999,3.0937042,-4.530594
726,1778325888580,5.148817977777778,2.6331698777777777,1.9597949000000001,0.8252156533333334,3.4679769,-5.257807333333333
727,1778325888590,5.4335993600000005,2.62927836,1.41044368,2.0629150000000003,3.17467038,-6.30702224
728,1778325888600,5.4329405,2.5692408,1.0631005,2.310913,2.8071594,-6.6307526
729,1778325888610,5.516747433333333,2.377763388888889,0.7636839444444444,1.9560512777777777,2.3281369,-7.302520677777778
730,1778325888620,5.666991,2.1705728,0.8189225,1.4922485,2.3634644,-7.771652
731,1778325888630,5.521370866666667,1.6545274222222224,1.217982811111111,1.2141045444444445,2.804728222222222,-8.203679555555556
732,1778325888640,5.247661133333334,1.1415456,1.516763,1.2149352999999998,2.9703166,-8.420577999999999
733,1778325888650,5.0794234,0.9158741999999999,1.5852622,1.3591003,2.852417,-8.361282
734,1778325888660,4.9354303222222216,0.7033415177777778,1.4753817777777778,1.3506910555555554,2.8091057555555556,-8.185985777777777
735,1778325888670,4.8176723,0.48023188,1.3147243,1.1806641,2.850296,-7.928253
736,1778325888680,4.742150744444444,0.11628824444444444,1.425661311111111,0.9404466444444444,3.118742211111111,-8.01500811111111
737,1778325888690,4.618861011111111,-0.20254628666666666,1.5537781666666666,0.894229488888889,3.267940977777778,-8.115443222222222
738,1778325888700,4.510283,-0.33589554,1.6033223,0.9164734,3.3195496,-8.155685
739,1778325888710,3.9334393888888886,-0.7003543622222222,1.6037289444444445,1.6850636777777777,3.4225243444444446,-8.292393888888888
740,1778325888720,3.3187943,-1.0736805,1.5481651,2.4515228,3.4910583,-8.40123
741,1778325888730,2.846828822222222,-1.346645177777778,1.0821510733333333,3.345342,3.159283122222222,-8.280024000000001
742,1778325888740,2.354484466666667,-1.5853876,0.5261342366666667,3.778369555555555,2.823777977777778,-8.160890222222223
743,1778325888750,2.074713,-1.667473,0.21487983,3.907196,2.481186,-8.022522
744,1778325888760,1.5628708444444444,-1.6640015777777777,-0.2213044566666667,3.4979078444444442,1.998855622222222,-7.522555911111111
745,1778325888770,1.14414711,-1.6392471399999997,-0.55985522,3.03300172,1.6328048800000001,-7.02766722
746,1778325888780,0.8365566511111111,-1.5553958888888888,-0.6724042777777778,1.9108954,1.6224026111111112,-6.036582077777777
747,1778325888790,0.6557641200000001,-1.5021904333333334,-0.6493000666666666,0.9055819666666667,1.7535467777777776,-5.098970188888888
748,1778325888800,0.5151060111111111,-1.4848491222222222,-0.4154109488888889,-0.17341444444444443,2.1178707222222224,-3.7695719666666667
749,1778325888810,0.4352727822222222,-1.4650537000000001,-0.25444207333333335,-0.5635409911111111,2.351401411111111,-3.101772766666667
750,1778325888820,0.40499562,-1.414751,-0.15706442,-0.904068,2.6335144,-2.3420105
751,1778325888830,0.5463316933333333,-1.2797868888888888,-0.09381173622222222,-1.1420355666666666,2.8605922666666665,-1.848310711111111
752,1778325888840,0.8536683222222222,-1.0820196222222223,0.028895434000000005,-1.478961522222222,3.205624066666667,-1.2926025555555556
753,1778325888850,1.29807403,-0.9622696319999999,0.36291341,-1.4871445,3.3368042000000004,-1.31823122
754,1778325888860,1.8015044,-0.8469930533333333,0.8143668388888889,-0.9302809111111111,3.239830866666667,-1.7972377999999998
755,1778325888870,2.0052786,-0.8262066,1.052973,0.16918945,2.9813232,-2.5955353
756,1778325888880,1.7873631777777779,-0.9186774,0.8443315466666667,2.320787183333333,1.7378065200000001,-3.7015194777777776
757,1778325888890,1.563671088888889,-1.046157,0.621832528888889,3.6949140444444444,0.7583601244444445,-4.333223222222222
758,1778325888900,1.1685699911111112,-1.3623466,0.18496904444444442,4.921869911111111,-0.09930589333333334,-4.718605888888889
759,1778325888910,0.7756241344444444,-1.6737911111111112,-0.25998822222222223,5.8176999,-0.6288028266666666,-4.936744
760,1778325888920,0.60402405,-1.7881589,-0.45322645000000006,5.923752,-0.60435486,-4.898636
761,1778325888930,-0.25847487,-2.0414902600000002,-1.74311893,4.79499208,0.35118713599999996,-3.84786072
762,1778325888940,-0.7769611555555556,-2.057231566666667,-2.6052974777777775,3.5930107777777778,1.0205925999999998,-2.9009128
763,1778325888950,-0.8760894777777778,-1.8821754444444447,-2.977266844444445,1.6210276333333333,0.9663187833333333,-1.601106411111111
764,1778325888960,-0.5907046777777778,-1.6753503555555556,-2.943790088888889,0.009750366666666658,0.7089335133333334,-0.6897735533333333
765,1778325888970,-0.3105809,-1.5929133,-2.7410197,-0.8417511,0.42947388,-0.38404846
766,1778325888980,-0.04542674044444444,-1.4643765888888889,-2.0928573444444445,-1.6591610555555556,0.26685587555555557,-0.44417487777777775
767,1778325888990,0.040739875,-1.3641093,-1.7112194,-1.9826508000000003,0.14613342,-0.56407166
768,1778325889000,-0.08215706055555555,-1.3367474333333333,-1.4150425400000002,-1.806876266666667,-0.2021060488888889,-0.6574656155555556
769,1778325889010,-0.34758058,-1.26486374,-0.8821699839999999,-1.152069099,-0.86386411,-0.6108917220000001
770,1778325889020,-0.41284123,-1.2570908,-0.76061714,-0.75387573,-1.0853271,-0.4815216
771,1778325889030,-0.41766151,-1.265418975,-0.7730640950000001,-0.6457481374999999,-1.114623975,-0.41867065
772,1778325889040,-0.43736884,-1.2917459,-0.8321266000000002,-0.26065063,-1.2184906,-0.17152405
773,1778325889050,-0.4938275466666667,-1.2866482111111113,-1.0629499777777776,-0.23981899722222222,-1.2379048777777777,0.4503580833333333
774,1778325889060,-0.45575456000000003,-1.2537954,-1.1646126333333333,-0.6391804933333334,-1.1020202333333333,1.0416412333333334
775,1778325889070,-0.36537254,-1.1937568,-1.1894249,-1.0596008,-0.9479065,1.3789825
776,1778325889080,-0.27590113400000005,-1.13379227,-1.0879094999999999,-1.4863449,-0.710675054,1.5071853499999999
777,1778325889090,-0.172079,-1.025358,-0.8269999,-2.209015,-0.26826477,1.6788483
778,1778325889100,-0.2895521466666667,-0.8833165733333334,-0.4159538111111111,-2.5285406666666663,0.09096611666666668,1.6741672222222224
779,1778325889110,-0.4022254,-0.75726056,-0.11362120000000002,-2.515808,0.17648315,1.643692
780,1778325889120,-0.6619016755555555,-0.6474351022222222,0.10030843207777777,-1.9720526222222219,-0.026865645555555553,1.6169450666666667
781,1778325889130,-0.874787098888889,-0.5609983466666667,0.24912923333333334,-1.2208658888888888,-0.3150244844444445,1.585166111111111
782,1778325889140,-0.9523304,-0.53309476,0.25112295,-0.9706421,-0.43392944,1.5909576
783,1778325889150,-1.2838416333333333,-0.4915232533333333,-0.010710186666666668,0.2750091566666667,-0.9990437666666667,1.8787689333333333
784,1778325889160,-1.3906573,-0.5384641,-0.24248408,0.62086487,-1.1087646,2.1241302
785,1778325889170,-1.43666144,-0.525369572,-0.463014156,0.536709586,-1.07340088,2.57430724
786,1778325889180,-1.3250997111111111,-0.5655946955555555,-0.8373189666666666,0.14616732777777777,-1.100121411111111,3.3509555
787,1778325889190,-1.207247,-0.6020409,-0.9071731000000001,-0.14027405,-1.1758728,3.6980589999999998
788,1778325889200,-1.0873068,-0.7332348222222222,-0.8585112155555555,-0.5345408166666668,-1.6938917555555557,4.073152344444444
789,1778325889210,-1.0411658,-0.8679404,-0.78807366,-0.7629242,-2.1133118,4.331894
790,1778325889220,-0.9053490644444445,-0.9987826900000001,-0.5449383755555556,-0.6585269533333333,-2.9163954444444444,4.669455555555555
791,1778325889230,-0.716868568888889,-1.1131780000000002,-0.21813206833333332,-0.2055511511111111,-4.310239977777777,5.186294611111112
792,1778325889240,-0.5552488,-1.3032172,0.044040505,0.5079498,-5.335739,5.7747955
793,1778325889250,-0.37367015190999997,-1.42527025,0.10946010880000001,1.13160705,-5.67225032,6.5109391
794,1778325889260,0.05406802693333333,-1.6632161444444447,0.10238372077777777,1.9146270999999997,-6.004715,7.550049
795,1778325889270,0.6645913422222223,-1.8669490111111111,-0.1291181518888889,2.1306372999999996,-5.388758355555556,8.524529222222222
796,1778325889280,1.700125911111111,-2.1219204888888887,-0.5899662533333334,1.9108462555555557,-4.322730144444445,9.661997444444445
797,1778325889290,2.8063965333333334,-2.1564007333333333,-0.81980086,1.0663299466666667,-3.5320638,10.418986
798,1778325889300,3.525281488888889,-2.1140297111111113,-0.8524773844444444,0.2864328977777778,-2.8845045555555555,10.426439333333333
799,1778325889310,4.3776374,-1.9963394,-0.80930686,-0.7107239,-2.1292877,10.018799
800,1778325889320,4.520831611111111,-1.9017541333333332,-0.6819900722222222,-1.2643619444444445,-1.8413696444444443,9.527062222222222
801,1778325889330,4.4997873,-1.672231,-0.26627907,-2.1493683,-1.6983947999999998,8.427826
802,1778325889340,4.308609255555556,-1.5753137555555554,0.07838462333333335,-2.0950385111111114,-2.1983524222222224,8.167907555555555
803,1778325889350,4.1888993333333335,-1.3988056999999998,0.54317866,-1.8452351666666666,-2.9239756666666668,7.925740433333333
804,1778325889360,4.311986,-1.2312193,0.76242304,-1.5565491,-3.214798,7.9058533
805,1778325889370,4.345163444444444,-0.8639547333333334,0.9517436288888889,-0.9778052555555556,-2.9316711666666664,7.4258338
806,1778325889380,4.160588266666667,-0.66134689,0.9719464333333333,-0.6143137766666666,-2.4797567000000003,6.9884846666666665
807,1778325889390,3.736281688888889,-0.5109262522222222,0.9215072333333334,-0.39576212666666666,-1.8604838333333333,6.609242733333334
808,1778325889400,3.4122688666666665,-0.42395995333333336,0.83905655,-0.23277791,-1.2737019766666666,6.360321000000001
809,1778325889410,3.1904943599999998,-0.34038638,0.702506848,-0.163815308,-0.8485168439999999,6.2146332
810,1778325889420,2.880400688888889,-0.1911428911111111,0.5535777555555556,-0.1097937711111111,-0.5970221666666666,6.1839175555555554
811,1778325889430,2.783333633333333,0.015668390000000004,0.55847218,0.16243998,-0.9981587666666667,6.245641
812,1778325889440,2.982199733333333,0.32981122000000007,0.7900417599999999,0.8559366733333333,-2.0428212,6.198054133333333
813,1778325889450,3.156916911111111,0.6337440088888889,0.9900336888888889,1.7122870333333333,-2.8029496,5.939546377777778
814,1778325889460,3.18615,0.86010724,0.9414393,2.6762848,-3.1865692,5.5691833
815,1778325889470,3.177513211111111,1.0206430355555556,0.6771521917777777,2.8461999111111114,-2.840886433333333,5.382234355555555
816,1778325889480,3.17361716,1.3306378799999998,0.0145955514,2.8227692,-1.8416595,4.943344
817,1778325889490,3.172983933333333,1.5338680666666666,-0.5832956666666667,1.9687754333333334,-1.0464477466666666,4.541213966666667
818,1778325889500,3.2477469333333335,1.7170595777777777,-0.8875264188888888,0.4972924244444444,-0.3159111888888889,3.9781612555555554
819,1778325889510,3.2895086,1.8359698,-0.9656246300000001,-0.21644592,-0.060546875,3.7017822
820,1778325889520,3.2409141555555556,2.047079244444445,-0.8146623655555555,-1.2776811266666668,0.42231751666666667,3.2260250555555556
821,1778325889530,3.1993294,2.2280476,-0.6506699,-1.9650726,0.7666321,2.9049683
822,1778325889540,3.282105266666667,2.412963066666667,-0.35694625199999996,-2.444620788888889,0.9802890244444443,2.424470711111111
823,1778325889550,3.4068994599999995,2.64333688,0.026088797799999997,-2.46670846,0.8617645279999999,1.81860352
824,1778325889560,3.3607724,2.8093934,0.31335735,-2.2319183,0.826828,1.4764404
825,1778325889570,2.5561025111111113,4.525210266666666,1.7649968055555556,0.3411695866666667,1.6483222222222222,1.4116973777777777
826,1778325889580,2.426278,5.074244,1.9129093,2.0914612,1.8111267,1.6096039
827,1778325889590,5.2011008444444435,4.2307278777777775,0.1677771777777778,4.164050633333334,-0.1351114972222222,0.6375529
828,1778325889600,5.895796177777778,3.6906429444444444,-1.5677279444444445,5.448874466666667,-3.0126309,-3.2127363555555557
829,1778325889610,4.7105198,3.12368904,-2.19788193,4.7114716,-3.009735,-4.517273
830,1778325889620,3.5932102666666665,2.538081922222222,-2.121615333333333,2.5921952666666668,-1.582156661111111,-5.2992977888888895
831,1778325889630,2.9003582,2.4273217,-1.850454,0.8019562,-0.51275635,-5.3875885
832,1778325889640,2.909619822222222,2.583355188888889,-1.2733679677777776,-0.6329532111111111,-0.6831919222222222,-4.160819144444444
833,1778325889650,3.883191311111111,2.6301736222222223,-0.7153578988888889,-1.3002251333333334,-0.8346998377777778,-3.6115620666666666
834,1778325889660,4.620704888888889,2.5489565444444446,-0.39847695699999996,-2.0311822,-0.24578518,-3.738798222222222
835,1778325889670,5.230672044444445,2.3422536000000003,0.058995466222222216,-2.505928877777778,0.779249411111111,-4.467322255555556
836,1778325889680,5.3628964,2.0961344,0.46467289999999994,-2.5504303,1.4382935,-5.3034363
837,1778325889690,5.116615466666667,1.8864898444444447,0.7922254333333334,-2.132848122222222,1.5243361,-5.857489722222223
838,1778325889700,4.7274530666666665,1.5362538555555554,1.218036988888889,-1.2171987222222223,1.3556094444444444,-6.595419988888889
839,1778325889710,4.5632841,1.2586929333333332,1.2474860666666665,-0.3810272,1.0952708,-6.999694833333333
840,1778325889720,4.344852433333333,0.9551265166666667,1.1636933666666667,0.6878001,0.8902130199999999,-7.455266333333333
841,1778325889730,4.2787943,0.82081395,1.0673717,1.0847931,0.87849426,-7.634231599999999
842,1778325889740,3.9666717222222223,0.4908487277777778,0.7102894244444444,1.4498172333333335,0.8936377622222221,-8.030275066666668
843,1778325889750,3.6847857222222222,0.24721206444444446,0.46954001333333334,1.5821414333333335,0.8514404277777777,-8.253985777777778
844,1778325889760,3.29672075,-0.06895899400000001,0.22860808100000002,1.43514863,0.701124571,-8.300724599999999
845,1778325889770,3.1859469333333332,-0.23286373333333335,0.13649746000000001,1.2696651666666667,0.7057935888888889,-8.28398988888889
846,1778325889780,3.1818788,-0.3906872,0.06930072,1.0016937,0.8625183,-8.355957
847,1778325889790,2.938417822222222,-0.7676741644444445,-0.03174014533333333,0.5945214111111111,1.1333245222222221,-8.612087666666666
848,1778325889800,2.682917111111111,-0.9956502111111111,-0.05819372288888888,0.3359018922222223,1.268200377777778,-8.746550111111112
849,1778325889810,2.3624300333333332,-1.1655273444444445,0.04009350722222222,0.21908569333333333,1.2158304666666666,-8.656885666666666
850,1778325889820,2.1573943222222223,-1.2813323777777776,0.13584590333333335,0.17096965,1.1183573,-8.429626333333333
851,1778325889830,2.126453,-1.3200563,0.18339632,0.18411255,1.1080627,-8.313873
852,1778325889840,2.0207766,-1.3709970111111112,0.16769596888888888,0.2501525855555556,1.089596211111111,-8.090647533333332
853,1778325889850,1.9286447,-1.396094411111111,0.15455775222222223,0.2868448866666667,1.0343187111111112,-7.938727500000001
854,1778325889860,1.7763532,-1.3969749333333334,0.18421033333333334,0.28086853,0.9834238533333333,-7.693181366666668
855,1778325889870,1.6191536444444443,-1.3565157555555554,0.23597719111111115,0.2226308233333333,1.0436096066666667,-7.284296666666667
856,1778325889880,1.5116050444444447,-1.2751915777777778,0.25691244,0.13976881666666666,1.2004936666666668,-6.9609866333333335
857,1778325889890,1.44226228,-1.13403686,0.22618004000000003,-0.11897583200000002,1.60425414,-6.25003356
858,1778325889900,1.437479,-1.0249923,0.22207992,-0.29794312,1.7781066999999997,-5.809433
859,1778325889910,1.4683660555555555,-0.9206030033333334,0.32641449888888885,-0.38333468666666665,1.8038550444444443,-5.3661142222222225
860,1778325889920,1.5115509222222223,-0.84135222,0.45861204,-0.4001973477777778,1.7875247333333333,-5.009373833333334
861,1778325889930,1.6385833666666665,-0.8579747466666666,0.6562984933333333,-0.136540728,1.7386983333333332,-4.851588
862,1778325889940,1.6639649,-0.89157366,0.6521906,0.16918945399999996,1.7605285333333331,-4.854248133333333
863,1778325889950,1.6751909,-0.8888081,0.580845,0.33963013,1.8404236,-4.8922424
864,1778325889960,1.4389851333333334,-0.9056472166666667,0.34439339333333335,0.2986823211111111,2.1342061333333335,-4.883249822222222
865,1778325889970,1.1823050000000002,-0.9474895333333334,0.16863216244444446,0.13728671888888888,2.3894517333333334,-4.748084166666667
866,1778325889980,0.788018101,-1.0015133200000002,-0.0450166916,-0.23438873600000001,2.72128904,-4.3224884
867,1778325889990,0.5094516966666667,-1.0214128666666666,-0.0820163749,-0.5079650866666667,2.8992919666666666,-3.8191731666666664
868,1778325890000,0.38864335,-1.0044918,0.0073089753,-0.5637207,2.9227295,-3.5052795
869,1778325890010,0.31168473333333335,-0.9681938666666667,0.1390601234,-0.11305406555555554,2.9648098444444444,-2.8878309444444445
870,1778325890020,0.30664098,-0.9928975999999999,0.09944188,0.51220703,3.0947723,-2.320694
871,1778325890030,0.25351692466666664,-1.1406479111111112,-0.3640237988888889,0.9031575522222222,3.1875729,-2.131196777777778
872,1778325890040,0.04752089085714285,-1.4622205857142858,-1.3522474714285715,1.503289357142857,3.129093742857143,-1.8515276285714286
873,1778325890050,-0.1058176,-1.6232971,-1.9528371,1.5854644999999998,2.7086182,-1.826416
874,1778325890060,-0.5001118466666666,-1.6956197666666668,-2.6121778166666667,1.206235265,1.1440989233333334,-1.65552775
875,1778325890070,-0.6445726,-1.7204323,-2.7986174,0.9431152299999999,0.4609069800000001,-1.5329285
876,1778325890080,-0.87057065,-1.8076833999999997,-2.99953725,0.051208500000000046,0.49685669,-1.3750076500000001
877,1778325890090,-1.1559146666666666,-1.9203566,-3.1141015666666667,-0.9422454666666665,0.6198120133333334,-1.1655934666666665
878,1778325890100,-1.3180498,-2.047591,-3.0658593,-1.5821075,0.62976074,-0.951828
879,1778325890110,-1.677748811111111,-2.1968327555555556,-2.619221733333333,-2.1451618999999997,0.26282925,-0.3835703555555556
880,1778325890120,-1.8770627000000002,-2.2108662,-2.3533344,-2.466278,-0.03604126,0.08148193
881,1778325890130,-1.99699248,-2.2105240999999998,-1.9164970599999998,-2.42175288,-0.17367248799999999,0.68954468
882,1778325890140,-2.0427768,-2.1959777,-1.3328093,-2.081726,-0.176651,1.4407654
883,1778325890150,-2.0623692444444446,-2.1618100888888887,-1.224136411111111,-1.7884216000000004,-0.22210184666666669,1.7013956666666668
884,1778325890160,-2.066654,-2.1043755999999996,-1.1286829666666667,-1.3489396755555556,-0.3759748677777778,2.029495222222222
885,1778325890170,-1.9942101,-1.9671750999999997,-1.1716105,-0.012498643555555557,-1.0366786955555556,2.9565768777777777
886,1778325890180,-1.4428032444444443,-1.820578122222222,-1.5530033555555556,0.878243338888889,-2.0140058666666665,4.005918677777778
887,1778325890190,-1.0834856800000001,-1.7796045200000001,-1.66151781,0.98550415,-2.4122222800000004,4.41263424
888,1778325890200,-0.48463494444444444,-1.793744711111111,-1.4346083444444444,0.840966118888889,-2.7665558000000003,4.846876444444444
889,1778325890210,-0.15618784355555557,-1.8081715111111112,-1.1380517222222222,0.83729045,-3.0969085777777776,5.188003688888889
890,1778325890220,0.030245377,-1.8075614,-0.9379255,0.9207306000000001,-3.3330383,5.3806458
891,1778325890230,0.3462179307777778,-1.8045238,-0.6901797666666667,1.2968970444444445,-3.863779677777777,5.826161666666668
892,1778325890240,0.6370391444444444,-1.835776888888889,-0.5397592666666667,1.622331377777778,-4.183239333333333,6.321270355555556
893,1778325890250,0.9329725,-1.8753284333333333,-0.5532910000000001,1.8379211333333332,-4.215072666666667,7.096247333333333
894,1778325890260,1.1913480777777776,-1.8927105666666668,-0.6402026666666667,1.8060268777777777,-4.187435666666667,7.656631555555555
895,1778325890270,1.5894058,-1.9045736999999998,-0.7573227,1.4485779,-4.060089,8.74794
896,1778325890280,2.34544607,-1.8391297999999998,-0.772393,0.646002196,-3.46619568,9.435463
897,1778325890290,3.3754708555555553,-1.7425059666666667,-0.7658509888888889,-0.5427754711111111,-2.524793911111111,10.071772333333334
898,1778325890300,3.842719,-1.6588626222222222,-0.7177308,-1.6586914000000001,-1.7205267866666665,10.028450999999999
899,1778325890310,4.230091900000001,-1.5233828777777778,-0.5378055,-3.131417188888889,-0.85162184,9.679280444444444
900,1778325890320,4.3344383,-1.4435499,-0.3436447,-4.0295563,-0.61820984,9.225708
901,1778325890330,4.2883399777777775,-1.2782822444444444,0.5774684833333333,-4.511108377777778,-1.183570008888889,8.05238511111111
902,1778325890340,4.143952777777778,-1.1414747333333333,1.3251105666666667,-4.391735499999999,-1.9093153000000003,7.048672333333333
903,1778325890350,3.7486202,-1.0057516433333333,1.9007867333333333,-3.2121378666666667,-2.4719492666666665,6.527043766666667
904,1778325890360,3.2601725700000004,-0.887306451,2.23395418,-1.0622070190000001,-3.11583559,6.05564577
905,1778325890370,3.0724185,-0.8231564,2.193209,0.09994507,-3.2851105,6.0112762
906,1778325890380,2.9977912555555557,-0.7391328355555555,1.796073811111111,1.475557118888889,-3.1214650666666666,5.986780744444444
907,1778325890390,3.0127469000000002,-0.66838366,1.2680691,2.3844672333333334,-2.7315097222222224,5.997672111111111
908,1778325890400,3.0626435,-0.5392503311111111,0.7798449444444445,2.413762411111111,-1.8234405777777778,5.982108222222222
909,1778325890410,3.0674976,-0.39015835666666665,0.4139492133333333,2.0508609444444446,-1.0474599288888888,5.894515999999999
910,1778325890420,3.0220208,-0.31149083,0.23684564,1.737793,-0.68852234,5.8237915
911,1778325890430,2.796024266666667,-0.17324540333333335,0.07115756044444445,0.8690118,-0.25436571333333335,5.839179055555556
912,1778325890440,2.67485,-0.10013716,0.021709165,0.4269867,-0.09942627,5.898361
913,1778325890450,2.57258948,0.1221515014,0.0405743796,-0.43950195599999997,0.1909759488,6.15795898
914,1778325890460,2.5916534,0.3404686955555556,0.09575308977777779,-1.1004333666666666,0.50529988,6.327306133333334
915,1778325890470,2.7324071111111112,0.5745736644444445,0.1870716377777778,-1.6270294333333333,0.7858123766666667,6.338668999999999
916,1778325890480,3.0500068000000002,0.8468876333333334,0.3782364933333333,-2.0206451333333337,0.9661966999999999,6.066676
917,1778325890490,3.238744,1.0403429,0.51531464,-2.0849152,0.986084,5.71727
918,1778325890500,3.238066466666667,1.393426511111111,0.7262208511111111,-1.8012627555555558,0.8539869555555556,4.965833955555556
919,1778325890510,3.0940050444444447,1.5896350777777777,0.8093901355555556,-1.4005431888888888,0.6844889222222222,4.223405744444445
920,1778325890520,2.8695806444444445,1.771240788888889,0.7515757733333334,-0.9291025833333334,0.5012054400000001,3.8892721000000003
921,1778325890530,2.7431373199999998,2.07292484,0.382913774,-0.523666382,0.319332884,3.67813114
922,1778325890540,2.825257533333333,2.220657766666667,0.13564317822222222,-0.5183817566666666,0.2603420644444444,3.6095750888888887
923,1778325890550,3.025356933333333,2.430628811111111,-0.08398106133333333,-0.927202021111111,0.3725585911111111,3.4270596
924,1778325890560,3.112512522222222,2.572276711111111,-0.21154170222222224,-1.5889689333333332,0.8630506766666667,3.260521811111111
925,1778325890570,3.0848388555555557,2.717789155555556,-0.17361905777777775,-2.0782843888888887,1.2266591444444446,3.2402802
926,1778325890580,3.0767031,3.109718422222222,0.11160329111111111,-2.691045166666667,1.6083781000000001,3.2481537
927,1778325890590,3.1275756,3.3288689,0.28187385,-2.7996979,1.6534729,3.2431793
928,1778325890600,3.8127664444444442,3.853808166666666,0.8629881388888889,-2.5426279999999997,1.4537302333333333,2.9102935333333333
929,1778325890610,4.388700877777778,4.204735733333333,1.3912771666666666,-1.9866757555555554,1.2830522111111111,2.320249688888889
930,1778325890620,4.921424055555556,4.521631233333334,1.909994,-0.8255869555555555,1.1859961333333333,1.2392459777777778
931,1778325890630,5.3289723,4.758434,2.0881426,1.3170166,1.0318909,-0.6535492
932,1778325890640,5.3818384,4.755871533333333,2.045622577777778,1.3170166,1.0318909,-0.6535492
933,1778325890650,5.319779666666666,4.349475399999999,1.3178974,2.7732323555555554,0.5273675022222223,-2.4862823444444446
934,1778325890660,5.028402588888889,3.8530496000000003,0.4708145888888889,4.727695077777778,-0.19518534666666668,-5.182947766666667
935,1778325890670,4.331347933333333,3.2651697,-0.5934777,4.094339988888889,-0.38704936,-5.791797233333333
936,1778325890680,3.799520511111111,2.8557503555555557,-1.3312903444444446,2.387724148888889,-0.46736144777777777,-5.896248677777779
937,1778325890690,3.698427,2.6379428,-1.4929115,0.55641174,-0.24482726999999999,-5.6448517
938,1778325890700,3.88404404,2.35001624,-0.86961329,-1.296719358,0.473265071,-5.55606231
939,1778325890710,4.001205711111111,2.0890036333333333,-0.21395590666666664,-2.661687188888889,1.1310746777777778,-5.556733822222222
940,1778325890720,4.051048733333333,1.7725428777777779,0.8805608222222223,-3.103425811111111,1.976893077777778,-5.843171777777778
941,1778325890730,4.159233133333333,1.378837488888889,1.928501388888889,-2.319753022222222,2.4102817222222224,-6.284305111111111
942,1778325890740,4.2382803,1.1593211,2.299739,-1.5613403,2.530716,-6.558319
943,1778325890750,4.325870211111111,0.5673471222222222,2.3208375777777777,1.10650972,2.4827796222222225,-7.671047833333333
944,1778325890760,4.3167453,0.24666975,2.2144423,2.1388702,2.3837128,-8.126923
945,1778325890770,3.9681773,-0.3304999255555556,1.524627411111111,3.585973133333334,1.808225822222222,-8.870954555555555
946,1778325890780,3.5913525555555554,-0.7912396333333334,0.85074406,4.428778777777778,1.2642872777777778,-9.371568333333332
947,1778325890790,3.0486849499999997,-1.156844,0.21707609,4.275253319999999,0.8516418399999999,-9.481937
948,1778325890800,2.7761335,-1.2813742,-0.04406539,3.9492798000000002,0.6707611,-9.435593
949,1778325890810,2.5440351666666667,-1.3091967999999998,-0.24516824333333334,3.3509623333333334,0.6487477666666667,-9.213669000000001
950,1778325890820,2.2526444,-1.2860652555555554,-0.40152717222222223,1.6726396444444442,0.8730451888888889,-8.534320333333334
951,1778325890830,2.1829930555555555,-1.2470429111111112,-0.33376062666666667,0.7484046222222223,1.1047956777777777,-8.161061777777778
952,1778325890840,2.1165682,-1.2184072333333333,-0.05927751333333332,0.11948139999999999,1.4072164,-7.794382766666666
953,1778325890850,2.0376159,-1.1918661499999998,0.47272691,-0.584164436,1.8263672,-7.140380859999999
954,1778325890860,2.044816,-1.1907066,0.62831366,-0.64520264,1.9219207999999999,-6.8853607
955,1778325890870,2.039419777777778,-1.139942822222222,0.81260436,-0.37137688444444444,1.9031626555555556,-6.527011266666666
956,1778325890880,2.056476888888889,-1.088365422222222,0.9576423455555556,-0.01912943333333335,1.8490109111111108,-6.179316
957,1778325890890,2.112895011111111,-1.0726097222222224,0.9533168844444444,0.510847311111111,1.8151482222222224,-5.783811777777778
958,1778325890900,2.111403166666667,-1.0536279333333334,0.8614293933333333,0.6810557166666666,1.9552917333333335,-5.6512401
959,1778325890910,2.1142507,-1.0223078,0.7651077,0.80781555,2.1669312,-5.5287323
960,1778325890920,2.14994407,-1.05759803,0.701005848,0.8161788830000001,2.31398925,-5.47004544
961,1778325890930,2.2022474777777776,-1.125461388888889,0.6660332211111111,0.8759951888888888,2.3923526111111113,-5.4582586666666675
962,1778325890940,2.1127048666666663,-1.1710599333333334,0.5714071266666667,1.2408498000000001,2.171015433333333,-5.613072566666666
963,1778325890950,1.98067,-1.171751,0.4025198833333333,1.3661905666666665,1.943227133333333,-5.668467133333333
964,1778325890960,1.8272392,-1.191195,0.26064065,1.4017029,1.7461548,-5.682678
965,1778325890970,1.4245177333333332,-1.1201473444444445,0.15175037777777778,1.3096804888888889,1.5984954666666669,-5.519982111111111
966,1778325890980,1.063434888888889,-1.065926,0.061625531111111104,1.1635046666666666,1.5042775333333334,-5.187971444444445
967,1778325890990,0.6788816088888888,-1.0386048333333333,-0.043698309,0.9396786111111111,1.4790039222222222,-4.461578488888889
968,1778325891000,0.3343406333333333,-1.0085991766666667,-0.12545751933333332,0.7764519711111111,1.5549367444444444,-3.8617214666666664
969,1778325891010,0.006302611999999999,-0.967308081,-0.14726441299999998,0.6566619819999999,1.77523192,-2.9094696
970,1778325891020,-0.15894078666666667,-0.9508387,-0.16584949666666668,0.7730254999999999,1.8393656333333332,-2.1255799
971,1778325891030,-0.09068636,-0.9621467000000001,-0.19806561,0.9686736999999999,1.8212585,-1.6149597
972,1778325891040,0.39352483222222223,-1.0907375444444445,-0.6267383455555556,1.3195037888888888,2.128760411111111,-1.6133049888888888
973,1778325891050,0.8292895,-1.3078539,-1.2343333,1.5348663,2.418869,-1.8306732
974,1778325891060,0.7884504344444445,-1.5351522555555555,-1.8713891555555557,1.5359344,2.4737244,-2.1342773
975,1778325891070,-0.00782849,-1.6685711,-2.813016,1.0475006,1.9858397999999997,-3.4892883000000006
976,1778325891080,-0.9563574,-1.8464892,-3.388504,0.37052917,0.90460205,-3.8291168
977,1778325891090,-1.5071262444444444,-2.099047422222222,-3.3157884555555555,-0.4346364444444444,0.28697544,-3.634821555555556
978,1778325891100,-2.267188,-2.4514660999999998,-2.9180429333333335,-1.7147301888888888,-0.5264197333333333,-3.210135577777778
979,1778325891110,-2.7325507555555557,-2.601154655555556,-2.2764703777777777,-2.0676880222222223,-0.33189221333333335,-2.382424288888889
980,1778325891120,-3.1644912444444446,-2.679130888888889,-1.7873523333333334,-2.233040711111111,-0.04622904444444445,-1.497183948888889
981,1778325891130,-3.3226144,-2.6566374,-1.6092049,-2.114212,0.13227844,-0.84477234
982,1778325891140,-3.3250144222222224,-2.565454266666667,-1.4153546444444443,-1.3747389333333333,0.20471191611111114,1.0265486066666665
983,1778325891150,-3.2181578,-2.482135,-1.4207923,-0.8199158000000001,0.037994385,2.1779175
984,1778325891160,-2.793606511111111,-2.329138733333333,-1.5288277222222222,-0.30123902222222226,-0.40634155277777784,3.1792738555555555
985,1778325891170,-2.367753488888889,-2.1744739111111113,-1.6159156444444445,0.12729390666666665,-0.7916717533333334,4.038055433333334
986,1778325891180,-2.2956202,-2.1436281,-1.6295826,0.16279602,-0.82966614,4.1236267
987,1778325891190,-1.5246170222222222,-1.873591888888889,-1.7989727999999998,0.15510389366666666,-1.3385687933333335,5.0021143
988,1778325891200,-1.0598637888888889,-1.7507091444444445,-1.802403233333333,-0.02812703466666667,-1.7284003111111113,5.415201888888889
989,1778325891210,-0.5325270343999999,-1.6290335800000002,-1.5049191,-0.295269784,-1.97440184,5.6307678
990,1778325891220,0.11390255066666666,-1.5266790444444445,-1.0905016333333333,-0.6420152666666668,-2.0931871111111113,5.788162311111112
991,1778325891230,0.30139294,-1.5171342,-0.96977454,-0.7618561,-2.054718,5.7955627
992,1778325891240,0.49895771333333333,-1.5605349,-0.8108119766666666,-0.89235435,-2.0094451666666666,5.840830566666666
993,1778325891250,0.6583273,-1.6307414,-0.65579504,-1.0148621,-1.9982604999999998,5.928177
994,1778325891260,0.76339414,-1.7650550333333332,-0.3937996266666667,-0.9889390666666666,-2.2659946,6.344228122222223
995,1778325891270,0.9869498333333334,-1.8700805888888885,-0.16403258666666667,-0.8412153522222222,-2.5930362444444444,7.014282233333333
996,1778325891280,1.3382562444444444,-1.9758253888888886,-0.06268097066666667,-0.7025027833333334,-2.8030175333333336,7.7726271
997,1778325891290,1.7179496799999998,-2.00796836,-0.01103159086,-0.667738331,-2.87210083,8.29307265
998,1778325891300,1.8834945,-2.0123246,0.0034048408,-0.6755676,-2.8728485,8.4683075
999,1778325891310,2.7552669333333335,-1.8911098,0.04355209593333333,-0.99017842,-2.6528676333333334,8.6563315
1000,1778325891320,3.5856721,-1.7167723,0.07772027,-1.3701172,-2.3790894,8.584427
