id,timestamp,acc_x,acc_y,acc_z,gyro_x,gyro_y,gyro_z
0,1778444545880,-1.3021127,0.9291357,1.7810936,1.060305,0.8545132,-0.057264253
1,1778444545890,-1.22246861945728,0.9396383155648,1.7085675283456,1.060305,0.8545132,-0.057264253
2,1778444545900,-1.1428225,0.9501412,1.6360396,1.060305,0.8545132,-0.057264253
3,1778444545910,-1.04196110899072,0.96052503291136,1.58557330403968,1.22214267149568,0.638927370536704,0.1253169805098752
4,1778444545920,-0.9411023,0.9709086,1.5351083,1.3839762,0.42334706,0.30789354
5,1778444545930,-0.9274682245184,0.9718406505696,1.53544487069184,1.3837100784064,0.245421747473152,0.318007590538496
6,1778444545940,-0.9138338,0.972772725,1.53578145,1.38344395,0.06749188,0.3281219
7,1778444545950,-0.9001993754816,0.9737047994304,1.53611802930816,1.3831778215936,-0.1104379874731519,0.338236209461504
8,1778444545960,-0.8865653,0.97463685,1.5364546,1.3829117,-0.2883633,0.34835026
9,1778444545970,-0.73489444141184,1.00782765015232,1.63503828811264,1.3829117,-0.2883633,0.34835026
10,1778444545980,-0.5832197,1.0410193,1.7336245,1.3829117,-0.2883633,0.34835026
11,1778444545990,-0.41043887,1.0408094,1.9974514,1.3829117,-0.2883633,0.34835026
12,1778444546000,-0.2310052974999999,0.700812575,1.874452625,1.01080745,-0.8704655,-0.0948062949999999
13,1778444546010,-0.0515717249999999,0.36081575,1.75145385,0.6387032,-1.4525677,-0.53796285
14,1778444546020,-0.1472568231690531,0.5318738263435676,2.001692035338516,0.6387032,-1.4525677,-0.53796285
15,1778444546030,-0.2429419213381063,0.7029319026871352,2.251930220677032,0.6387032,-1.4525677,-0.53796285
16,1778444546040,-0.33862457,0.8739856,2.502162,0.6387032,-1.4525677,-0.53796285
17,1778444546050,-0.3571973,0.8053215,2.5146616,0.40343285,-0.6652497,-0.8738514
18,1778444546060,-0.39833755,0.717806,2.3939904,0.212851626,0.1667662,-0.9568942
19,1778444546070,-0.4394778,0.6302905,2.2733192,0.022270402,0.9987821,-1.039937
20,1778444546080,-0.48316305,0.5886226250000001,2.17345865,0.022270402,0.9987821,-1.039937
21,1778444546090,-0.5268483,0.54695475,2.0735981,0.022270402,0.9987821,-1.039937
22,1778444546100,-0.5695554,0.508101325,1.98972835,-1.7250833490000002,-0.77811135,-0.4618403099999999
23,1778444546110,-0.6122625,0.4692479,1.9058586,-3.4724371,-2.5550048,0.11625638
24,1778444546120,-0.64188384584192,0.44749340346112,1.84592381717504,-1.24521608379392,-1.09752085603328,-0.0752386888317439
25,1778444546130,-0.67150519168384,0.42573890692224,1.78598903435008,0.9820049324121598,0.3599630879334403,-0.266733757663488
26,1778444546140,-0.70112729584192,0.40398385346112,1.72605271717504,3.2092829662060796,1.8174843439667203,-0.458233728831744
27,1778444546150,-0.7307494,0.3822288,1.6661164,5.436561,3.2750056,-0.6497337
28,1778444546160,-0.7352647448018979,0.3804195404392125,1.6556128896311024,4.579969438008226,2.8547397196480837,-0.6624221417239113
29,1778444546170,-0.7397800896037956,0.3786102808784251,1.645109379262205,3.723377876016453,2.434473839296168,-0.6751105834478227
30,1778444546180,-0.7442955499999999,0.376800975,1.6346056,2.866764385,2.0141972,-0.6877993499999999
31,1778444546190,-0.7488110103962043,0.3749916691215749,1.624101820737795,2.010150893983548,1.5939205607038325,-0.7004881165521772
32,1778444546200,-0.7533263551981021,0.3731824095607874,1.6135983103688976,1.153559331991774,1.173654680351916,-0.7131765582760886
33,1778444546210,-0.7578417,0.37137315,1.6030948,0.29696777,0.7533888,-0.725865
34,1778444546220,-0.76345938,0.35056384,1.5203072,0.29696777,0.7533888,-0.725865
35,1778444546230,-0.76907706,0.32975453,1.4375196,0.29696777,0.7533888,-0.725865
36,1778444546240,-0.75303373,0.313588665,1.40851055,0.567109835,0.6298805999999999,-0.56244109
37,1778444546250,-0.7369904,0.2974228,1.3795015,0.8372519,0.5063724,-0.39901718
38,1778444546260,-0.7179254706480186,0.2819663581067174,1.3512162919693145,0.9419492600727036,0.5262518696359695,-0.3498624672184866
39,1778444546270,-0.6988605412960371,0.2665099162134348,1.3229310839386286,1.0466466201454072,0.546131339271939,-0.300707754436973
40,1778444546280,-0.6797961,0.25105387,1.2946466,1.1513413,0.5660103,-0.2515543
41,1778444546290,-0.65891701725568,0.237118140879616,1.26121995286656,1.35189015794176,0.7142610273664,-0.17011391745024
42,1778444546300,-0.6380374000000001,0.223182055,1.22779245,1.55244415,0.8625155499999999,-0.08867145
43,1778444546310,-0.6171577827443201,0.209245969120384,1.19436494713344,1.75299814205824,1.0107700726336,-0.00722898254976
44,1778444546320,-0.5962787,0.19531024,1.1609383,1.953547,1.1590208,0.0742114
45,1778444546330,-0.5331303700000001,0.152416685,0.979485275,2.044051,1.24818095,0.105086275
46,1778444546340,-0.10574464,0.437252983,0.626836615,2.134555,1.3373411,0.13596115
47,1778444546350,-0.288123854424064,0.2340243912073216,0.643050515035264,2.4912002150003203,1.45338078528896,0.310557394803328
48,1778444546360,-0.4704984,0.030801002,0.659264,2.8478363,1.5694175,0.48514917
49,1778444546370,-0.429039970674688,0.0074171998164992,0.608904424610816,2.90241195142272,1.54706883606656,0.554891642284928
50,1778444546380,-0.38758048,-0.015967201,0.55854356,2.956989,1.5247196,0.6246359
51,1778444546390,-0.34654373,-0.02795432,0.5313517,2.956989,1.5247196,0.6246359
52,1778444546400,-0.277984042575232,-0.035333540544768,0.454625224611456,2.9466088078681603,1.57715297884416,0.651382717636352
53,1778444546410,-0.209424355150464,-0.042712761089536,0.377898749222912,2.93622861573632,1.62958635768832,0.678129535272704
54,1778444546420,-0.140862912575232,-0.050092170544768,0.301170309611456,2.92584815786816,1.68202107884416,0.704877037636352
55,1778444546430,-0.07230147,-0.05747158,0.22444187,2.9154677,1.7344558,0.73162454
56,1778444546440,-0.043220098,-0.046770645,0.177318325,2.8289692,1.80818725,0.70953742
57,1778444546450,-0.014138726,-0.03606971,0.13019478,2.7424707,1.8819187,0.6874503
58,1778444546460,-0.0013089926252118,-0.026462541823857,0.1207469332552876,2.704139367492179,1.894481708643562,0.6738226284544295
59,1778444546470,0.0115207407495763,-0.0168553736477141,0.1112990865105753,2.6658080349843587,1.9070447172871237,0.6601949569088591
60,1778444546480,0.024350145687394,-0.0072484514119285,0.1018514816276438,2.62747768374609,1.919607404321781,0.6465676342272147
61,1778444546490,0.0371795506252118,0.002358470823857,0.0924038767447123,2.589147332507821,1.932170091356438,0.6329403115455704
62,1778444546500,0.050009284,0.011965639,0.08295603,2.550816,1.9447331,0.61931264
63,1778444546510,0.0676542704705812,0.0359324700286806,0.1029394543794106,2.4544722224205757,1.8265548497836792,0.5186985028740388
64,1778444546520,0.0852988052352906,0.0598986875143403,0.1229223671897053,2.358130911210288,1.7083796248918397,0.4180869414370194
65,1778444546530,0.10294334,0.083864905,0.14290528,2.2617896,1.5902044,0.31747538
66,1778444546540,0.13150341,0.1046390575,0.25007619,2.2532637500000003,1.5633176,0.1133416749999999
67,1778444546550,0.16006348,0.12541321,0.3572471,2.2447379,1.5364308,-0.09079203
68,1778444546560,0.16629475,0.11234151,0.3650501,2.2447379,1.5364308,-0.09079203
69,1778444546570,0.139586446870656,0.10827751201984,0.334710758348544,2.17181013348736,1.78794693055232,-0.2960051882379519
70,1778444546580,0.11287746,0.10421341,0.30437064,2.0988805,2.0394695,-0.5012236
71,1778444546590,0.055919135242775,0.1028832849746176,0.255920249842944,2.0988805,2.0394695,-0.5012236
72,1778444546600,-0.0010377314,0.101553194,0.2074711,2.0988805,2.0394695,-0.5012236
73,1778444546610,-0.0215338858458649,0.1038394977349376,0.1949155007137279,1.98841131402368,2.16695551815808,-0.5347597207321599
74,1778444546620,-0.042030565,0.10612586,0.18235958,1.8779393,2.2944448,-0.5682967
75,1778444546630,-0.07176064,0.124525815,0.13551132,1.7715092,2.374852,-0.5571091
76,1778444546640,-0.0764168869328509,0.1322109544193042,0.1135850771063343,1.709044399706452,2.407140324469438,-0.5422041271907294
77,1778444546650,-0.0810731338657018,0.1398960938386083,0.0916588342126686,1.6465795994129042,2.4394286489388755,-0.5272991543814587
78,1778444546660,-0.0857295,0.14758143,0.06973203,1.5841132,2.4717178,-0.5123938
79,1778444546670,-0.0871683177499648,0.152871029372672,0.0368653993125119,1.53389942393856,2.45530568992768,-0.5107095284416
80,1778444546680,-0.0886070986666666,0.1581604933333333,0.0039996099999999,1.4836869333333331,2.438894,-0.5090253
81,1778444546690,-0.0900458795833685,0.1634499572939946,-0.028866179312512,1.4334744427281068,2.4224823100723203,-0.5073410715584
82,1778444546700,-0.0914846973333333,0.1687395566666666,-0.06173281,1.3832606666666667,2.4060702000000003,-0.5056568
83,1778444546710,-0.0929235150832981,0.1740291560393387,-0.094599440687488,1.3330468906052266,2.3896580899276803,-0.5039725284416
84,1778444546720,-0.094362296,0.17931862,-0.12746523,1.2828344,2.3732464,-0.5022883
85,1778444546730,-0.1091949281398784,0.188734229478656,-0.240428619050112,1.24131358147328,2.33438704740608,-0.5078732935111681
86,1778444546740,-0.12402794,0.19815008,-0.3533949,1.1997917,2.2955267,-0.51345843
87,1778444546750,-0.1517331428294094,0.2034468637306186,-0.3922468630650157,1.0864015314992277,2.207868970660568,-0.5244600077578572
88,1778444546760,-0.1794376364147047,0.2087435118653093,-0.4310978315325078,0.973014265749614,2.120213485330284,-0.5354613038789285
89,1778444546770,-0.20714213,0.21404016,-0.4699488,0.859627,2.032558,-0.5464626
90,1778444546780,-0.270444235,0.21693419,-0.441281365,0.43243149385,1.86620195,-0.5464626
91,1778444546790,-0.33374634,0.21982822,-0.41261393,0.0052359877,1.6998459,-0.5464626
92,1778444546800,-0.38601853,0.218538135,-0.3501333,-0.47012188115,1.6793558,-0.49377111
93,1778444546810,-0.43829072,0.21724805,-0.28765267,-0.94547975,1.6588657,-0.44107962
94,1778444546820,-0.52048091,0.2053536749999999,-0.1405369315,-0.94547975,1.6588657,-0.44107962
95,1778444546830,-0.6026711,0.1934593,0.006578807,-0.94547975,1.6588657,-0.44107962
96,1778444546840,-0.6828526,0.1586909,0.23276912,-2.2374249,1.9697437,0.09389871
97,1778444546850,-0.6884417612770932,0.142456813731952,0.2712618130496296,-2.219855566520463,1.9699240302556575,0.3490556852652149
98,1778444546860,-0.6940310656385467,0.126222311865976,0.3097554915248148,-2.2022857832602316,1.970104365127829,0.6042191926326075
99,1778444546870,-0.69962037,0.10998781,0.34824917,-2.184716,1.9702847,0.8593827
100,1778444546880,-0.673492105,0.083598392,0.323848335,-2.0074603,1.84225605,1.03265895
101,1778444546890,-0.64736384,0.057208974,0.2994475,-1.8302046,1.7142274,1.2059352
102,1778444546900,-0.62747657,0.046006745,0.2325157799999999,-1.6840769,1.5337691,1.33022885
103,1778444546910,-0.6075893,0.034804516,0.16558406,-1.5379492,1.3533108,1.4545225
104,1778444546920,-0.6071671,0.0511421929999999,0.05764974,-1.5379492,1.3533108,1.4545225
105,1778444546930,-0.6067449,0.06747987,-0.05028458,-1.5379492,1.3533108,1.4545225
106,1778444546940,-0.6007518000000001,0.09064432,-0.089430385,-1.37798975,0.96817775,1.62965755
107,1778444546950,-0.5947587,0.11380877,-0.12857619,-1.2180303,0.5830447,1.8047926
108,1778444546960,-0.5666878062080265,0.1590790603552442,-0.1651060449412477,-1.1859107074240316,0.4522682893063223,1.86015396091034
109,1778444546970,-0.5386169124160529,0.2043493507104883,-0.2016358998824955,-1.1537911148480633,0.3214918786126448,1.9155153218206795
110,1778444546980,-0.5105453,0.2496208,-0.23816669,-1.1216707,0.19071212,1.9708781
111,1778444546990,-0.5128485859755775,0.2907711689573075,-0.2608341368528079,-1.110320072951778,-0.0261196472147934,2.0510831688156537
112,1778444547000,-0.5151518129877887,0.3319204844786538,-0.2835010034264039,-1.0989697364758888,-0.2429458636073967,2.1312861844078266
113,1778444547010,-0.51745504,0.3730698,-0.30616787,-1.0876194,-0.45977208,2.2114892
114,1778444547020,-0.4900130713870874,0.3775924391482489,-0.2569723407590794,-1.3810786430423765,-0.6746258833956549,2.123773040387241
115,1778444547030,-0.4625711027741748,0.3821150782964979,-0.2077768115181588,-1.6745378860847526,-0.8894796867913096,2.036056880774482
116,1778444547040,-0.4351298366666667,0.3866376016666667,-0.1585825416666666,-1.9679896166666664,-1.1043279899999998,1.9483429666666665
117,1778444547050,-0.4076885705591585,0.3911601250368354,-0.1093882718151744,-2.2614413472485806,-1.31917629320869,1.8606290525588511
118,1778444547060,-0.380246601946246,0.3956827641850844,-0.0601927425742539,-2.554900590290957,-1.534030096604345,1.7729128929460922
119,1778444547070,-0.3528046333333334,0.4002054033333334,-0.0109972133333333,-2.8483598333333333,-1.7488838999999998,1.6851967333333333
120,1778444547080,-0.44529316,0.5054465,-0.34247482,-1.6736835,-1.1310257,2.129511
121,1778444547090,-0.384474893483776,0.41854026241408,-0.299477340374784,-2.1413297640512,-1.36046371315584,1.97966771801856
122,1778444547100,-0.32365507,0.3316318,-0.25647876,-2.608988,-1.5899076,1.8298206
123,1778444547110,-0.298220549442304,0.2475979193800959,-0.232719500885376,-3.24593655283712,-2.0237584532198403,1.5665779805376
124,1778444547120,-0.27278668,0.16356619,-0.20896085,-3.8828688,-2.4575982,1.3033421
125,1778444547130,-0.232240993991424,0.0818036661537013,-0.1297706501475328,-3.8828688,-2.4575982,1.3033421
126,1778444547140,-0.19169427,3.904916e-05,-0.050578423,-3.8828688,-2.4575982,1.3033421
127,1778444547150,-0.1819597972004573,-0.0481774001102013,0.011619492830843,-4.079471888649764,-2.6442701191599753,1.241416743154104
128,1778444547160,-0.1722255736002287,-0.0963926150551006,0.0738158164154215,-4.276069944324882,-2.830937259579988,1.179492971577052
129,1778444547170,-0.16249135,-0.14460783,0.13601214,-4.472668,-3.0176044,1.1175692
130,1778444547180,-0.1536625913288903,-0.1701540046579001,0.1674502316016144,-4.652415100488957,-3.102067420741885,1.114020336383418
131,1778444547190,-0.1448338326577806,-0.1957001793158002,0.198888323203229,-4.8321622009779155,-3.18653044148377,1.110471472766836
132,1778444547200,-0.1360053,-0.2212457,0.23032561,-5.0119047,-3.2709913,1.1069227
133,1778444547210,-0.0784958951298048,-0.25911266529664,0.365121099595648,-5.0119047,-3.2709913,1.1069227
134,1778444547220,-0.020985018,-0.2969806,0.49992004,-5.0119047,-3.2709913,1.1069227
135,1778444547230,0.0223732834791552,-0.281550112492288,0.603758934120832,-4.94243096074752,-3.2864203474892797,1.20992461840768
136,1778444547240,0.065730475,-0.26612002,0.70759517,-4.872959,-3.301849,1.3129239
137,1778444547250,0.080010568462464,-0.249755706965888,0.754247830338304,-4.872959,-3.301849,1.3129239
138,1778444547260,0.0942910275,-0.233390975,0.800901685,-4.872959,-3.301849,1.3129239
139,1778444547270,0.108571486537536,-0.217026243034112,0.8475555396616961,-4.872959,-3.301849,1.3129239
140,1778444547280,0.12285158,-0.20066193,0.8942082,-4.872959,-3.301849,1.3129239
141,1778444547290,0.11175772,-0.14806758,1.1256175,-4.496073,-3.0351624,1.3198528
142,1778444547300,0.11530050284704,-0.149801874698688,1.11950644677952,-4.29485574945216,-2.59598832864384,1.28897755480192
143,1778444547310,0.11884328569408,-0.151536169397376,1.11339539355904,-4.09363849890432,-2.15681425728768,1.25810230960384
144,1778444547320,0.12238597784704,-0.153270419698688,1.10728449677952,-3.89242639945216,-1.71765142864384,1.22722785480192
145,1778444547330,0.12592867,-0.15500467,1.1011736,-3.6912143,-1.2784886,1.1963534
146,1778444547340,0.063219614,-0.21198325,0.8629435,-3.6912143,-1.2784886,1.1963534
147,1778444547350,0.0301596833383039,-0.205335774913408,0.82058510781952,-3.607371976832,-1.002875762200832,1.145249505878528
148,1778444547360,-0.002899401,-0.19868847,0.7782278,-3.5235318,-0.72726998,1.09414692
149,1778444547370,-0.035958485338304,-0.192041165086592,0.73587049218048,-3.439691623168,-0.451664197799168,1.043044334121472
150,1778444547380,-0.069018416,-0.18539369,0.6935121,-3.3558493,-0.17605136,0.99194044
151,1778444547390,-0.1227327507129118,-0.1510454637977762,0.6535332043689146,-3.3217740851237765,-0.1047185372687414,0.9965540054038418
152,1778444547400,-0.1764457103564559,-0.1166981168988881,0.6135553321844573,-3.2876997425618883,-0.0333875406343707,1.0011674527019208
153,1778444547410,-0.23015867,-0.08235077,0.57357746,-3.2536254,0.037943456,1.0057809
154,1778444547420,-0.2809539201139195,-0.0368415149926613,0.5616794184713452,-3.2536254,0.037943456,1.0057809
155,1778444547430,-0.331749170227839,0.0086677400146772,0.5497813769426904,-3.2536254,0.037943456,1.0057809
156,1778444547440,-0.38254312,0.05417583,0.53788364,-3.2536254,0.037943456,1.0057809
157,1778444547450,-0.41478994,0.183903,0.5691376,-3.1264083,-0.49703485,1.2501096
158,1778444547460,-0.3674030558687699,0.1930363480957811,0.6135026616959283,-3.0220728859307218,-0.6578957809032367,1.290517606559876
159,1778444547470,-0.3200161717375398,0.2021696961915622,0.6578677233918564,-2.9177374718614435,-0.8187567118064735,1.330925613119752
160,1778444547480,-0.2726305006950159,0.2113028104766249,0.7022316493567425,-2.813404728744578,-0.9796135247225892,1.3713325852479008
161,1778444547490,-0.225244829652492,0.2204359247616875,0.7465955753216287,-2.7090719856277112,-1.140470337638705,1.4117395573760496
162,1778444547500,-0.1778579455212619,0.2295692728574686,0.7909606370175569,-2.604736571558433,-1.301331268541942,1.4521475639359256
163,1778444547510,-0.1304710613900318,0.2387026209532498,0.8353256987134852,-2.500401157489155,-1.4621921994451788,1.4925555704958016
164,1778444547520,-0.0830853903475079,0.2478357352383124,0.8796896246783713,-2.396068414372289,-1.6230490123612946,1.5329625426239504
165,1778444547530,-0.035699719304984,0.2569688495233751,0.9240535506432574,-2.2917356712554224,-1.7839058252774105,1.5733695147520992
166,1778444547540,0.011687164826246,0.2661021976191562,0.9684186123391856,-2.1874002571861446,-1.9447667561806472,1.6137775213119752
167,1778444547550,0.0590740489574761,0.2752355457149373,1.0127836740351135,-2.0830648431168663,-2.105627687083884,1.6541855278718511
168,1778444547560,0.10645972,0.28436866,1.0571476,-1.9787321,-2.2664845,1.6945925
169,1778444547570,0.102522640395264,0.271158489092352,1.05449673393152,-1.73013058214016,-2.07272058020992,1.50109902674816
170,1778444547580,0.09858546,0.25794798,1.0518458,-1.4815227,-1.8789517,1.3076006
171,1778444547590,0.0590086299230592,0.305072143181568,1.02450467503808,-1.42217204032128,-1.76716191910912,1.237070947232
172,1778444547600,0.019432813,0.3521951,0.99716425,-1.3628229,-1.655375,1.1665431
173,1778444547610,0.0055388123454848,0.43748910822272,1.02575320905664,-1.2992064643008,-1.50951971697152,1.1079880995136
174,1778444547620,-0.008355544,0.5227853,1.0543429,-1.2355884,-1.3636607,1.0494316
175,1778444547630,-0.0617798708226304,0.53506635719552,1.10822903973376,-1.20020139705216,-1.39348003168256,1.0406437375167998
176,1778444547640,-0.11520283,0.5473471,1.1621138,-1.1648153,-1.4232986,1.0318561
177,1778444547650,-0.0967514415743932,0.5842502368450695,1.2125315395262313,-1.111758172186572,-1.518225413228317,1.0497745275215893
178,1778444547660,-0.0782995807871966,0.6211543184225348,1.2629505697631156,-1.058699686093286,-1.6131546566141586,1.0676934137607943
179,1778444547670,-0.05984772,0.6580584,1.3133696,-1.0056412,-1.7080839,1.0856123
180,1778444547680,-0.0158817825,0.698234615,1.38970635,-0.92019865,-1.59070175,1.039841
181,1778444547690,0.028084155,0.73841083,1.4660431,-0.8347561,-1.4733196,0.9940697
182,1778444547700,0.3128755,0.8406533,1.6248033,-0.8347561,-1.4733196,0.9940697
183,1778444547710,0.3564139322848,0.85453492768256,1.6130161491264,-0.82170958300672,-1.20768584993152,0.77660761652096
184,1778444547720,0.39995125,0.8684162,1.6012293,-0.8086634,-0.9420589,0.5591511
185,1778444547730,0.39222473640064,0.88311071190784,1.61783986238208,-0.89729446550784,-0.96960422241536,0.276228136460288
186,1778444547740,0.3844980249999999,0.8978056,1.63445085,-0.9859278,-0.99715025,-0.0067020699999999
187,1778444547750,0.37677131359936,0.91250048809216,1.65106183761792,-1.07456113449216,-1.02469627758464,-0.2896322764602879
188,1778444547760,0.3690448,0.927195,1.6676724,-1.1631922,-1.0522416,-0.57255524
189,1778444547770,0.3325024351408656,0.9056265083774018,1.7939987805732929,-1.1785533609995684,-1.0631173266159055,-0.6358249944420308
190,1778444547780,0.2959591347852164,0.8840574645943504,1.9203283951433232,-1.193914915249892,-1.0739933316539765,-0.6990963686105077
191,1778444547790,0.2594158344295672,0.8624884208112991,2.0466580097133535,-1.2092764695002158,-1.0848693366920472,-0.7623677427789847
192,1778444547800,0.2228734695704328,0.840919929188701,2.172984390286646,-1.224637630499784,-1.0957450633079528,-0.8256374972210153
193,1778444547810,0.1863311047112983,0.8193514375661027,2.2993107708599387,-1.2399987914993529,-1.1066207899238585,-0.8889072516630461
194,1778444547820,0.1497878043556492,0.7977823937830514,2.4256403854299693,-1.2553603457496765,-1.1174967949619292,-0.952178625831523
195,1778444547830,0.113244504,0.77621335,2.55197,-1.2707219,-1.1283728,-1.01545
196,1778444547840,-0.025526436,0.57593316,3.3150873,-1.2707219,-1.1283728,-1.01545
197,1778444547850,-0.0294781599172864,0.5575241556382721,3.3801176426009603,-1.16372585706688,-0.894287876325376,-0.9395945959616
198,1778444547860,-0.033429985,0.53911468,3.4451496500000003,-1.056727075,-0.6601969599999999,-0.8637372499999999
199,1778444547870,-0.0373818100827136,0.520705204361728,3.51018165739904,-0.94972829293312,-0.4261060436746239,-0.7878799040383999
200,1778444547880,-0.041333534,0.5022962,3.575212,-0.84273225,-0.19202112,-0.7120245
201,1778444547890,-0.2265914592242721,0.5206507767445472,3.0020393989376046,-0.84273225,-0.19202112,-0.7120245
202,1778444547900,-0.4118541271121361,0.5390058233722737,2.4288521244688024,-0.84273225,-0.19202112,-0.7120245
203,1778444547910,-0.597116795,0.55736087,1.85566485,-0.84273225,-0.19202112,-0.7120245
204,1778444547920,-0.2544043,0.7290712,2.0385027,-0.84273225,-0.19202112,-0.7120245
205,1778444547930,-0.1163770487714304,0.7515666620544,2.11307489546368,0.5008311771680001,-0.571031958599168,0.3826843375475199
206,1778444547940,0.021653736,0.7740627,2.187649,1.844429,-0.9500525,1.4774212
207,1778444547950,0.0516333281338675,0.754007383295232,2.1118757801152,1.895745826846976,-0.74819386624256,1.3727105767211776
208,1778444547960,0.0816121528,0.73395258,2.0361045,1.94706134,-0.5463404,1.268002634
209,1778444547970,0.1115909774661324,0.713897776704768,1.9603332198848,1.998376853153024,-0.34448693375744,1.1632946912788225
210,1778444547980,0.1415705696,0.6938424599999999,1.88456,2.04969368,-0.1426282999999999,1.058584068
211,1778444547990,0.1715501617338675,0.6737871432952319,1.8087867801152,2.101010506846976,0.05923033375744,0.9538734447211776
212,1778444548000,0.2015289864,0.65373234,1.7330155,2.15232602,0.2610838,0.849165502
213,1778444548010,0.2315078110661324,0.633677536704768,1.6572442198848,2.2036415331530237,0.46293726624256,0.7444575592788224
214,1778444548020,0.2614874031999999,0.61362222,1.581471,2.25495836,0.6647959,0.639746936
215,1778444548030,0.2914669953338675,0.593566903295232,1.5056977801152,2.306275186846976,0.86665453375744,0.5350363127211776
216,1778444548040,0.32144582,0.5735121,1.4299265,2.3575907,1.068508,0.43032837
217,1778444548050,0.2604726442999722,0.5209765191307093,1.3272314578466988,2.483217908617813,0.9435033067472214,0.333539468913792
218,1778444548060,0.1994979076666666,0.4684395933333333,1.2245337866666668,2.608848333333333,0.8184954133333333,0.23674809
219,1778444548070,0.138523171033361,0.4159026675359573,1.1218361154866348,2.734478758048853,0.6934875199194453,0.1399567110862079
220,1778444548080,0.0775499953333333,0.3633670866666666,1.0191410733333333,2.8601059666666666,0.5684828266666667,0.0431678099999999
221,1778444548090,0.0165768196333056,0.310831505797376,0.916446031180032,2.98573317528448,0.443478133413888,-0.053621091086208
222,1778444548100,-0.044397917,0.25829458,0.81374836,3.1113636,0.31847024,-0.15041247
223,1778444548110,0.0103228594169728,0.172315524482176,0.5738970599426559,3.134253892992,0.395658407995904,-0.14110102581504
224,1778444548120,0.065042235,0.08633867,0.3340519,3.1571436,0.4728446,-0.13178982
225,1778444548130,0.0294291246036479,0.055256912851584,0.252697676347392,2.94794237780992,0.66101924133376,-0.196732683720704
226,1778444548140,-0.0061848975,0.02417436,0.17134137,2.7387357999999997,0.8491987000000001,-0.26167721
227,1778444548150,-0.041798919603648,-0.0069081928515839,0.089985063652608,2.52952922219008,1.03737815866624,-0.3266217362792959
228,1778444548160,-0.07741203,-0.03798995,0.00863084,2.320328,1.2255528,-0.3915646
229,1778444548170,-0.1359233,-0.13397473,0.10067947,2.320328,1.2255528,-0.3915646
230,1778444548180,-0.154753285,-0.16927518,0.039167282,2.384207,1.075166465,-0.243045815
231,1778444548190,-0.17358327,-0.20457563,-0.022344906,2.448086,0.92478013,-0.09452703
232,1778444548200,-0.149361565,-0.188379495,-0.054183148,2.4230666999999997,-0.7483099350000001,3.551360985
233,1778444548210,-0.12513986,-0.17218336,-0.08602139,2.3980474,-2.4214,7.197249
234,1778444548220,0.0460497,-0.059964865,-0.08002734,2.3980474,-2.4214,7.197249
235,1778444548230,0.040686228848448,-0.044809936411897,-0.0624005696302272,2.31553594386688,-1.577121068368,5.345670982604736
236,1778444548240,0.035322895,-0.029655395785,-0.0447742505,2.2330265999999996,-0.7328637500000003,3.494140365
237,1778444548250,0.029959561151552,-0.0145008551581029,-0.0271479313697728,2.15051725613312,0.1113935683679998,1.6426097473952643
238,1778444548260,0.02459609,0.00065407343,-0.009521161,2.0680058,0.9556725,-0.20896827
239,1778444548270,-0.12957682,0.02663348,-0.097938225,2.0680058,0.9556725,-0.20896827
240,1778444548280,-0.1970523099999999,0.071044575,-0.1312452025,2.0123734,0.904560535,-0.174367115
241,1778444548290,-0.2645278,0.11545567,-0.16455218,1.956741,0.85344857,-0.13976596
242,1778444548300,-0.30556652,0.17401381,-0.08663154,1.956741,0.85344857,-0.13976596
243,1778444548310,-0.257259636679808,0.2307065906583039,-0.046049668058688,1.98522516459264,0.561206894354432,-0.0349052427999999
244,1778444548320,-0.20895399,0.28739792,-0.005468835,2.0137086,0.2689727,0.06995279
245,1778444548330,-0.4797059824641087,0.0418969799618046,-0.0878248176639428,2.0157314192860656,0.2703026263813795,0.0603186717546336
246,1778444548340,-0.7504649062679457,-0.2036102449809024,-0.1701829086680286,2.0177542903569674,0.2716325868093102,0.0506843068726831
247,1778444548350,-1.0212238300717826,-0.4491174699236094,-0.2525409996721143,2.0197771614278692,0.2729625472372409,0.0410499419907327
248,1778444548360,-1.2919758225358913,-0.6946184099618048,-0.3348969823360572,2.021799980713934,0.2742924736186205,0.0314158237453663
249,1778444548370,-1.562727815,-0.94011935,-0.417252965,2.0238228,0.2756224,0.0217817054999999
250,1778444548380,-1.0316456094898538,-0.408670698362887,-0.3017491210464809,1.9264005686742671,0.4086118014950337,-0.1259384001954338
251,1778444548390,-0.5005634039797079,0.122777953274226,-0.1862452770929617,1.828978337348534,0.5416012029900673,-0.2736585058908676
252,1778444548400,0.030505206,0.654213,-0.07074439,1.7315586,0.6745872,-0.42137483
253,1778444548410,-0.0692978045051136,0.7236093117158401,-0.13510536616896,1.7315586,0.6745872,-0.42137483
254,1778444548420,-0.16910337,0.7930074,-0.19946799,1.7315586,0.6745872,-0.42137483
255,1778444548430,-0.248190172298112,0.816740828784,-0.177468393408768,1.1723479421952,0.7794653924236801,-0.4320214712752639
256,1778444548440,-0.32727495,0.84047365,-0.15546936,0.6131516,0.8843409,-0.44266784
257,1778444548450,-0.3662368683747483,0.8432955518389255,-0.043576219667372,0.6131516,0.8843409,-0.44266784
258,1778444548460,-0.4051997841873741,0.8461175259194627,0.0683197851663139,0.6131516,0.8843409,-0.44266784
259,1778444548470,-0.4441627,0.8489395,0.18021579,0.6131516,0.8843409,-0.44266784
260,1778444548480,-0.394397975,0.84880525,0.218469805,0.440678175,0.7193112749999999,-0.11663162
261,1778444548490,-0.34463325,0.848671,0.25672382,0.26820475,0.55428165,0.2094046
262,1778444548500,-0.10136771,0.86059946,0.19117785,0.4012861,0.45739844,0.1897173
263,1778444548510,-0.1130667163271523,0.8561803312478347,-0.0215652807696246,0.383186731108058,0.3905046450271788,0.1277861400550658
264,1778444548520,-0.1247654231635761,0.8517613156239173,-0.2343029653848123,0.365087825554029,0.3236125625135894,0.0658565655275329
265,1778444548530,-0.13646413,0.8473423,-0.44704065,0.34698892,0.25672048,0.003926991
266,1778444548540,-0.0766724167406931,0.7367018230560178,-0.3126584289436698,0.3259086171404617,0.2202566876155453,-0.010709490975657
267,1778444548550,-0.0168807034813862,0.6260613461120356,-0.1782762078873397,0.3048283142809234,0.1837928952310906,-0.025345972951314
268,1778444548560,0.0429094791296534,0.5154237015280089,-0.0438974269718349,0.2837485510702308,0.1473300363077726,-0.0399820802378285
269,1778444548570,0.1026996617406931,0.4047860569439823,0.0904813539436699,0.2626687878595383,0.1108671773844546,-0.0546181875243429
270,1778444548580,0.162491375,0.2941455800000001,0.224863575,0.241588485,0.074403385,-0.0692546695
271,1778444548590,0.2222830882593069,0.1835051030560178,0.3592457960563301,0.2205081821404617,0.0379395926155453,-0.083891151475657
272,1778444548600,0.2820732708703466,0.0728674584719911,0.493624576971835,0.1994284189297691,0.0014767336922273,-0.0985272587621714
273,1778444548610,0.3418634534813863,-0.0377701861120354,0.6280033578873399,0.1783486557190765,-0.0349861252310906,-0.1131633660486859
274,1778444548620,0.4016551667406932,-0.1484106630560177,0.76238557894367,0.1572683528595383,-0.0714499176155452,-0.1277998480243429
275,1778444548630,0.46144688,-0.25905114,0.8967678,0.13618805,-0.10791371,-0.14243633
276,1778444548640,0.4730383725573298,-0.2371713865017152,0.9158496162218898,-0.2743474956246693,-0.3941832406249822,-0.1923560586838168
277,1778444548650,0.4846298651146597,-0.2152916330034304,0.9349314324437796,-0.6848830412493386,-0.6804527712499644,-0.2422757873676335
278,1778444548660,0.4962216544179973,-0.1934113193762864,0.9540137371664174,-1.095429096718502,-0.9667296304687366,-0.2921967940128626
279,1778444548670,0.5078134437213351,-0.1715310057491424,0.9730960418890552,-1.5059751521876652,-1.2530064896875088,-0.3421178006580916
280,1778444548680,0.5194049362786649,-0.1496512522508576,0.9921778581109448,-1.9165106978123343,-1.5392760203124911,-0.3920375293419084
281,1778444548690,0.5309964288359947,-0.1277714987525728,1.0112596743328346,-2.327046243437004,-1.8255455509374736,-0.4419572580257252
282,1778444548700,0.5425882181393324,-0.1058911851254287,1.0303419790554724,-2.737592298906167,-2.1118224101562455,-0.4918782646709542
283,1778444548710,0.5541800074426702,-0.0840108714982847,1.0494242837781105,-3.1481383543753303,-2.3980992693750176,-0.5417992713161832
284,1778444548720,0.5657715,-0.062131118,1.0685061,-3.5586739,-2.6843688,-0.591719
285,1778444548730,0.55998497406848,-0.0135960752564992,1.18083396218496,-0.1518348580979198,0.0320443294668801,-0.77988924139008
286,1778444548740,0.5541983,0.03494021,1.2931647,3.2550914,2.748527,-0.9680643
287,1778444548750,0.488266891088768,0.070595481381632,1.39373608729728,2.7554845051136,2.31653502057344,-3.57916257163008
288,1778444548760,0.42233717,0.10624984,1.4943049,2.2558904,1.8845541,-6.190194
289,1778444548770,0.3714333265775359,0.1186126467540479,1.52678118429824,2.2558904,1.8845541,-6.190194
290,1778444548780,0.32052818,0.13097577,1.5592583,2.2558904,1.8845541,-6.190194
291,1778444548790,0.2470723572775039,0.14772343436736,1.5412576320944,1.6431105315180805,1.5016763242272,-5.67722427157152
292,1778444548800,0.173618415,0.1644706699999999,1.523257425,1.0303463500000003,1.11880835,-5.1642676750000005
293,1778444548810,0.100164472722496,0.18121790563264,1.5052572179056,0.4175821684819203,0.7359403757727998,-4.65131107842848
294,1778444548820,0.02670865,0.19796557,1.48725655,-0.1951976999999995,0.3530625999999998,-4.13834135
295,1778444548830,-0.046747172722496,0.21471323436736,1.4692558820944,-0.8079775684819195,-0.0298151757728001,-3.62537162157152
296,1778444548840,-0.120201115,0.23146047,1.451255675,-1.4207417499999997,-0.4126831500000001,-3.112415025
297,1778444548850,-0.1936550572775039,0.24820770563264,1.4332554679056,-2.0335059315180795,-0.7955511242272002,-2.5994584284284805
298,1778444548860,-0.26711088,0.26495537,1.4152548,-2.6462858,-1.1784289,-2.0864887
299,1778444548870,-0.424446833874432,0.458522562628352,1.07844563889792,-2.4189711404096,-0.7908822794667519,-2.0508224934784
300,1778444548880,-0.58177876,0.6520848,0.7416451,-2.1916623,-0.40334558,-2.0151572
301,1778444548890,-0.5254366786878719,0.61508279863168,0.97886616353152,-2.02890370833664,-0.2980817591441536,-1.97270259342592
302,1778444548900,-0.469093155,0.57807985,1.2160933,-1.86614095,-0.1928152435,-1.9302469
303,1778444548910,-0.412749631312128,0.54107690136832,1.45332043646848,-1.70337819166336,-0.0875487278558464,-1.88779120657408
304,1778444548920,-0.35640755,0.5040749,1.6905415,-1.5406196,0.017715093,-1.8453366
305,1778444548930,-0.35571833382208,0.53937049821056,1.71143363257728,-1.5406196,0.017715093,-1.8453366
306,1778444548940,-0.3550291,0.574667,1.7323263,-1.5406196,0.017715093,-1.8453366
307,1778444548950,-0.3071654678826806,0.6095521032188846,1.8261082403147768,-1.3035211681431345,0.0523148526970043,-1.7778405288490782
308,1778444548960,-0.2593030610586597,0.6444363133905577,1.9198877798426115,-1.0664288059284328,0.0869137266514978,-1.710346185575461
309,1778444548970,-0.2114406542346387,0.6793205235622309,2.0136673193704464,-0.8293364437137314,0.1215126006059914,-1.6428518423018437
310,1778444548980,-0.1635770221173193,0.7142056267811154,2.107449259685223,-0.5922380118568658,0.1561123603029957,-1.5753557711509218
311,1778444548990,-0.11571339,0.74909073,2.2012312,-0.35513958,0.19071212,-1.5078597
312,1778444549000,-0.113128128091776,0.753769247614208,2.19924705039744,-0.108283369799936,0.382477722868864,-1.51025514433792
313,1778444549010,-0.110542866183552,0.7584477652284161,2.19726290079488,0.138572840400128,0.574243325737728,-1.51265058867584
314,1778444549020,-0.107957538091776,0.763126402614208,2.19527870039744,0.3854353702000639,0.7660138378688639,-1.51504609433792
315,1778444549030,-0.10537221,0.76780504,2.1932945,0.6322979,0.95778435,-1.5174416
316,1778444549040,-0.2209997,0.7164106,2.3412235,0.6322979,0.95778435,-1.5174416
317,1778444549050,-0.213800097156096,0.64682341572736,2.35456022928768,0.8859608030732801,1.40892875027776,-1.44769909271552
318,1778444549060,-0.20660031,0.57723445,2.3678973,1.1396302,1.8600847,-1.3779548
319,1778444549070,-0.203630583237984,0.5543716036093119,2.35476864445536,1.09471357507456,1.90021032610144,-1.7655603237872
320,1778444549080,-0.2006609325,0.5315093424999999,2.341640325,1.0497981,1.940334925,-2.153155925
321,1778444549090,-0.197691281762016,0.5086470813906879,2.32851200554464,1.00488262492544,1.98045952389856,-2.5407515262128
322,1778444549100,-0.194721555,0.485784235,2.3153833500000003,0.959966,2.02058515,-2.92835705
323,1778444549110,-0.191751828237984,0.462921388609312,2.30225469445536,0.91504937507456,2.06071077610144,-3.3159625737872003
324,1778444549120,-0.1887821775,0.4400591275,2.289126375,0.8701339,2.100835375,-3.703558175
325,1778444549130,-0.185812526762016,0.417196866390688,2.27599805554464,0.8252184249254401,2.1409599738985596,-4.0911537762128
326,1778444549140,-0.1828428,0.39433402,2.2628694,0.7803018,2.1810856,-4.4787593
327,1778444549150,-0.0978546376654464,0.3575599992985599,2.32826783708928,1.4105919676108798,1.70358358805248,-2.70875456922944
328,1778444549160,-0.012868651,0.32078692,2.3936646,2.040866,1.2260938,-0.93879515
329,1778444549170,0.0750344406593578,0.3330198867493546,2.4426435397282136,2.099685713764693,1.00988518000576,-0.8601894361660161
330,1778444549180,0.1629397826666666,0.3452531666666666,2.4916237333333333,2.1585069333333333,0.7936710249999999,-0.78158171
331,1778444549190,0.2508451246739754,0.3574864465839786,2.5406039269384535,2.217328152901973,0.57745686999424,-0.702973983833984
332,1778444549200,0.3387482163333333,0.3697194133333333,2.589582866666667,2.2761478666666664,0.3612482499999999,-0.6243682700000001
333,1778444549210,0.4266513079926912,0.381952380082688,2.63856180639488,2.3349675804313597,0.1450396300057599,-0.545762556166016
334,1778444549220,0.51455665,0.39418566,2.687542,2.3937888,-0.071174525,-0.46715483
335,1778444549230,0.5433438851385599,0.423892363574272,2.69132328173312,2.3990219503168,-0.103291901930496,-0.473897711307776
336,1778444549240,0.5721303833333333,0.4535983066666667,2.695104466666667,2.4042549666666666,-0.1354084566666666,-0.48064042
337,1778444549250,0.6009168815281066,0.4833042497590613,2.698885651600213,2.4094879830165334,-0.1675250114028373,-0.487383128692224
338,1778444549260,0.6297041166666666,0.5130109533333334,2.702666933333333,2.4147211333333334,-0.1996423883333333,-0.49412601
339,1778444549270,0.6584913518052267,0.5427176569076053,2.706448215066453,2.4199542836501333,-0.2317597652638293,-0.500868891307776
340,1778444549280,0.68727785,0.5724236,2.7102294,2.4251873,-0.26387632,-0.5076116
341,1778444549290,0.6872951163719835,0.584260497981022,2.7386732812182135,2.2906886954722325,-0.2230654031818957,-0.6470784530685736
342,1778444549300,0.6873123831859917,0.5960976989905109,2.7671178906091067,2.156186647736116,-0.1822534415909479,-0.7865488765342868
343,1778444549310,0.68732965,0.6079349,2.7955625,2.0216846,-0.14144148,-0.9260193
344,1778444549320,0.6788921050000001,0.606698,2.796548,1.7829323,0.2191958949999999,-1.09370185
345,1778444549330,0.67045456,0.6054611,2.7975335,1.54418,0.57983327,-1.2613844
346,1778444549340,0.54840153,0.58338955,2.6629951000000003,1.48935925,0.7123823149999999,-1.30529685
347,1778444549350,0.4263485,0.561318,2.5284567,1.4345385,0.84493136,-1.3492093
348,1778444549360,0.38405824,0.55180955,2.4778018,1.021995,2.1746976,-1.7617702
349,1778444549370,0.2084159067506432,0.50185311445056,2.3130092093721597,1.021995,2.1746976,-1.7617702
350,1778444549380,0.032769077,0.4518954,2.1482124,1.021995,2.1746976,-1.7617702
351,1778444549390,-0.0421691706972928,0.422818057814784,2.10542765236224,1.15640452041984,2.41504127635968,-1.7279627672704
352,1778444549400,-0.1171055,0.39374146,2.062644,1.2908106,2.6553788,-1.6941562
353,1778444549410,0.0404281647243745,0.1435437700952316,1.7851517359285936,2.4216251005188245,2.813834562320374,-1.2150714998168757
354,1778444549420,0.1979658623621872,-0.1066603249523842,1.5076523679642968,3.552468550259412,2.972294381160187,-0.7359745349084378
355,1778444549430,0.35550356,-0.35686442,1.230153,4.683312,3.1307542,-0.25687757
356,1778444549440,0.371858833766544,-0.3837309740691373,1.19588212578187,4.8337755493612775,3.0883371952964067,-0.2865130037743947
357,1778444549450,0.3882141075330881,-0.4105975281382747,1.16161125156374,4.984239098722554,3.0459201905928133,-0.3161484375487895
358,1778444549460,0.4045698,-0.43746477,1.1273395,5.1347065,3.0035021,-0.34578463
359,1778444549470,0.4382524809062377,-0.3146367352570233,1.0636998333381549,5.1347065,3.0035021,-0.34578463
360,1778444549480,0.4719342995468811,-0.1918118448714883,1.0000617958309226,5.1347065,3.0035021,-0.34578463
361,1778444549490,0.5056161181875246,-0.0689869544859533,0.9364237583236908,5.1347065,3.0035021,-0.34578463
362,1778444549500,0.5392987990937623,0.0538410802570233,0.8727840916618453,5.1347065,3.0035021,-0.34578463
363,1778444549510,0.57298148,0.176669115,0.8091444250000001,5.1347065,3.0035021,-0.34578463
364,1778444549520,0.58678952,-0.2308127625,0.6288486225000001,5.1347065,3.0035021,-0.34578463
365,1778444549530,0.60059756,-0.63829464,0.44855282,5.1347065,3.0035021,-0.34578463
366,1778444549540,0.6116047939271939,-0.6128748830875175,0.3532606668507014,4.115922906491279,2.2726188798763527,-0.6336849650514131
367,1778444549550,0.6226120278543879,-0.587455126175035,0.2579685137014029,3.097139312982558,1.541735659752705,-0.9215853001028262
368,1778444549560,0.6336189799999999,-0.5620360200000001,0.1626788,2.0783818,0.8108711500000001,-1.209478265
369,1778444549570,0.6446259321456121,-0.536616913824965,0.0673890862985971,1.0596242870174415,0.080006640247295,-1.4973712298971735
370,1778444549580,0.6556331660728061,-0.5111971569124826,-0.0279030668507014,0.0408406935087204,-0.6508765798763524,-1.7852715649485869
371,1778444549590,0.6666404,-0.4857774,-0.12319522,-0.9779429,-1.3817598,-2.0731719
372,1778444549600,0.4954791461420928,-0.360778003762752,-0.0890154392567935,0.1821058761855998,-0.0425857416473601,-1.99066250613376
373,1778444549610,0.3243178922841856,-0.235778607525504,-0.0548356585135871,1.3421546523711996,1.2965883167052796,-1.90815311226752
374,1778444549620,0.1531522566420928,-0.110776011262752,-0.0206550027567935,2.5022331261855992,2.6357966583526395,-1.82564160613376
375,1778444549630,-0.018013379,0.014226585,0.013525653,3.6623116,3.975005,-1.7431301
376,1778444549640,0.2805062104999999,-0.2360126225,-0.1194972735,3.6623116,3.975005,-1.7431301
377,1778444549650,0.5790258,-0.48625183,-0.2525202,3.6623116,3.975005,-1.7431301
378,1778444549660,0.4180511063668635,-0.4929075101277435,-0.5081599814315458,3.634101025939516,3.974300993992559,-1.760699916593849
379,1778444549670,0.257076412733727,-0.4995631902554869,-0.7637997628630918,3.605890451879032,3.973596987985118,-1.7782697331876984
380,1778444549680,0.09610584,-0.5062187,-1.019433,3.5776806,3.972893,-1.7958391
381,1778444549690,0.0393576451089538,-0.4428747686501597,-1.0255193376751044,3.5776806,3.972893,-1.7958391
382,1778444549700,-0.0173920025544769,-0.3795292156749201,-1.031605831162448,3.5776806,3.972893,-1.7958391
383,1778444549710,-0.0741416502179077,-0.3161836626996805,-1.037692324649791,3.5776806,3.972893,-1.7958391
384,1778444549720,-0.1308898451089539,-0.2528397313498402,-1.0437786623248957,3.5776806,3.972893,-1.7958391
385,1778444549730,-0.18763804,-0.1894958,-1.049865,3.5776806,3.972893,-1.7958391
386,1778444549740,-0.2917390779809843,-0.2035177155825777,-1.1155445725502142,2.720631391928443,3.19994507711458,-1.4076669151677053
387,1778444549750,-0.3958401159619687,-0.2175396311651554,-1.1812241451004286,1.863582183856886,2.4269971542291606,-1.0194947303354105
388,1778444549760,-0.4999384889904921,-0.2315611877912888,-1.246902036275107,1.0065549159642215,1.6540690185572904,-0.6313324825838527
389,1778444549770,-0.6040368620190155,-0.2455827444174222,-1.3125799274497858,0.149527648071557,0.8811408828854203,-0.2431702348322949
390,1778444549780,-0.7081379,-0.25960466,-1.3782595,-0.70752156,0.10819296,0.14500195
391,1778444549790,-0.6919257,-0.16687074,-1.4557242,-0.70752156,0.10819296,0.14500195
392,1778444549800,-0.7007957,-0.13372678,-1.4598675,-1.0860137,-0.21703169,0.27010715
393,1778444549810,-0.744004501920256,-0.1051957128690005,-1.4255403060603733,-1.27099588219776,-0.4165638876218454,0.31774821518656
394,1778444549820,-0.78721441,-0.0766639153333333,-1.3912122333333334,-1.4559828,-0.6161011933333334,0.3653905
395,1778444549830,-0.830424318079744,-0.0481321177976661,-1.3568841606062934,-1.64096971780224,-0.8156384990448214,0.41303278481344
396,1778444549840,-0.87363312,-0.0196010506666666,-1.3225569666666666,-1.8259518999999995,-1.0151706966666667,0.46067385
397,1778444549850,-0.916841921920256,0.0089300164643328,-1.28822977272704,-2.01093408219776,-1.214702894288512,0.50831491518656
398,1778444549860,-0.96005183,0.037461814,-1.2539017,-2.195921,-1.4142402,0.5559572
399,1778444549870,-0.028843627583435,0.4090303506885234,-0.3183804339747582,-2.195921,-1.4142402,0.5559572
400,1778444549880,0.9023407362082824,0.7805893753442616,0.6171168830126209,-2.195921,-1.4142402,0.5559572
401,1778444549890,1.8335251,1.1521484,1.5526142,-2.195921,-1.4142402,0.5559572
402,1778444549900,0.9850957601623032,0.8431487765702973,0.8255965795290473,-2.5495625843695597,-1.8189855871164284,0.8851174754650647
403,1778444549910,0.1366664203246066,0.5341491531405946,0.0985789590580946,-2.90320416873912,-2.223730974232857,1.2142777509301297
404,1778444549920,-0.7117412,0.22515744,-0.62842005,-3.2568367,-2.628466,1.5434296
405,1778444549930,-0.541603522790144,0.275200254443776,-0.468773760998656,-3.24990783869056,-2.69979663695616,1.62434201430784
406,1778444549940,-0.37146149,0.3252443499999999,-0.309123385,-3.2429788,-2.7711291,1.7052565
407,1778444549950,0.2415871819225599,0.2027824250074239,-0.20641814538976,-3.32363143234048,-3.06949696905984,1.77339502216192
408,1778444549960,0.85462016,0.0803236349999999,-0.1037155349999999,-3.404282,-3.3678572,1.8415318
409,1778444549970,0.5480914348238727,0.238496543814469,-0.0584049679769088,-3.3572636691231184,-3.2558962441581047,1.823782102932041
410,1778444549980,0.2415548624119363,0.3966735019072345,-0.0130932409884544,-3.310244134561559,-3.1439324220790525,1.8060319514660204
411,1778444549990,-0.06498171,0.55485046,0.032218486,-3.2632246,-3.0319686,1.7882818
412,1778444550000,0.042080845,0.64234698,0.208938883,-3.34680845,-3.1993892,1.84843455
413,1778444550010,0.1491434,0.7298435,0.38565928,-3.4303923,-3.3668098,1.9085873
414,1778444550020,0.239690159186946,0.7772631255707505,0.4858040094689037,-3.4278301337637536,-3.1649464529457845,1.7762516048998274
415,1778444550030,0.3302369183738921,0.824682751141501,0.5859487389378075,-3.4252679675275073,-2.963083105891569,1.643915909799655
416,1778444550040,0.420781359593473,0.8721011627853753,0.6860909047344518,-3.4227058668818766,-2.761224926472892,1.5115836024499136
417,1778444550050,0.5113258008130539,0.9195195744292496,0.7862330705310961,-3.4201437662362464,-2.5593667470542156,1.3792512951001723
418,1778444550060,0.60187256,0.9669392,0.8863778,-3.4175816,-2.3575034,1.2469156
419,1778444550070,0.5734815652799353,0.9635641254396788,0.9456829472769348,-3.3771314057953132,-2.2435881135223976,1.1143634626834875
420,1778444550080,0.5450912973600324,0.9601891372801604,1.0049865763615324,-3.3366822471023436,-2.129675743238802,0.9818147186582562
421,1778444550090,0.5167010294401294,0.9568141491206422,1.06429020544613,-3.2962330884093736,-2.015763372955205,0.8492659746330249
422,1778444550100,0.4883100347200647,0.9534390745603212,1.1235953527230649,-3.2557828942046867,-1.9018480864776024,0.7167138373165125
423,1778444550110,0.45991904,0.950064,1.1829005,-3.2153327,-1.7879328,0.5841617
424,1778444550120,0.1933929099999999,0.86517365,1.1385617,-3.2153327,-1.7879328,0.5841617
425,1778444550130,-0.07313322,0.7802833,1.0942229,-3.2153327,-1.7879328,0.5841617
426,1778444550140,-0.134499277975488,0.77789943198688,1.0828723797152,-2.820272381667651,-1.6428700807209602,0.62408879856032
427,1778444550150,-0.195865335950976,0.77551556397376,1.0715218594304,-2.425212063335302,-1.49780736144192,0.66401589712064
428,1778444550160,-0.2572298229754879,0.77313175698688,1.0601716297152,-2.030161858417651,-1.35274835572096,0.70394197356032
429,1778444550170,-0.31859431,0.77074795,1.0488214,-1.6351116535,-1.20768935,0.74386805
430,1778444550180,-0.379960367975488,0.76836408198688,1.0374708797152,-1.240051335167651,-1.0626266307209602,0.7837951485603201
431,1778444550190,-0.441326425950976,0.76598021397376,1.0261203594304,-0.8449910168353022,-0.9175639114419202,0.82372224712064
432,1778444550200,-0.502690912975488,0.76359640698688,1.0147701297152,-0.449940811917651,-0.7725049057209601,0.8636483235603201
433,1778444550210,-0.5640554,0.7612126,1.0034199,-0.054890607,-0.6274459,0.9035744
434,1778444550220,-0.531234939935659,0.7784536137881012,0.9105572742490698,-0.1173564743685787,-0.4624294185440488,0.9062331560210944
435,1778444550230,-0.4984144798713179,0.7956946275762024,0.8176946484981397,-0.1798223417371574,-0.2974129370880977,0.9088919120421888
436,1778444550240,-0.46559486,0.8129352,0.7248344,-0.24228661,-0.13240068,0.9115506
437,1778444550250,-0.4312853,0.7504565,0.7578739,-0.24228661,-0.13240068,0.9115506
438,1778444550260,-0.45240209,0.72483826,0.7745421,-0.24228661,-0.13240068,0.9115506
439,1778444550270,-0.483297202952384,0.7232743324819839,0.695882160665664,-0.335841814991296,0.034481101059456,0.81506756503296
440,1778444550280,-0.514191525,0.721710445,0.617224235,-0.429394625,0.20135861,0.718587
441,1778444550290,-0.545085847047616,0.720146557518016,0.538566309334336,-0.522947435008704,0.368236118940544,0.62210643496704
442,1778444550300,-0.57598096,0.71858263,0.45990637,-0.61650264,0.5351179,0.5256234
443,1778444550310,-0.4878318456077039,0.8306735329935915,0.6376624803321187,-0.6282139932045363,0.4990995286276635,0.6010345203333134
444,1778444550320,-0.399684987803852,0.9427615664967958,0.8154140401660593,-0.6399250466022682,0.4630820793138318,0.6764437101666567
445,1778444550330,-0.31153813,1.0548496,0.9931656,-0.6516361,0.42706463,0.7518529
446,1778444550340,-0.2361898520543872,1.2071876749024,0.817773315007488,-0.58084028132512,0.1746082410995839,0.40916621366656
447,1778444550350,-0.1608415741087744,1.3595257498048,0.6423810300149759,-0.5100444626502401,-0.077848147800832,0.06647952733312
448,1778444550360,-0.0854952250543872,1.5118599249024,0.4669932350074879,-0.43925045632512,-0.3302980739004161,-0.2761983863334399
449,1778444550370,-0.010148876,1.6641941,0.29160544,-0.36845645,-0.582748,-0.6188763
450,1778444550380,-0.09092596,1.7198755,0.44911608,-0.36845645,-0.582748,-0.6188763
451,1778444550390,-0.1128208736684103,1.7338865391186735,0.5779222515971908,-0.6674480693916561,-0.6428988932287711,-0.9402259842977464
452,1778444550400,-0.1347152268342051,1.7478972195593367,0.7067251257985955,-0.9664320346958282,-0.7030482466143856,-1.2615674421488732
453,1778444550410,-0.15660958,1.7619079,0.835528,-1.265416,-0.7631976,-1.5829089
454,1778444550420,-0.278079325,1.7223901,1.05333155,-1.265416,-0.7631976,-1.5829089
455,1778444550430,-0.39954907,1.6828723,1.2711351,-1.265416,-0.7631976,-1.5829089
456,1778444550440,-0.58139414,1.5582957,1.6195191,-1.265416,-0.7631976,-1.5829089
457,1778444550450,-0.5469198583686042,1.5249633022135372,1.7937291767766324,-1.6121255444147014,-1.234387741585316,-1.4319957822835103
458,1778444550460,-0.5124446941843022,1.4916300511067684,1.967943713388316,-1.9588439647073503,-1.7055899457926578,-1.281078801141755
459,1778444550470,-0.47796953,1.4582967999999998,2.14215825,-2.305562385,-2.17679215,-1.13016182
460,1778444550480,0.39856893,1.1670535,3.256652,3.2795608,-3.4381416,-2.1791134
461,1778444550490,0.437989780406656,0.916634664152128,2.7814017832806397,3.2795608,-3.4381416,-2.1791134
462,1778444550500,0.47741164,0.6662094175,2.3061393999999997,3.2795608,-3.4381416,-2.1791134
463,1778444550510,0.516833499593344,0.415784170847872,1.83087701671936,3.2795608,-3.4381416,-2.1791134
464,1778444550520,0.55625435,0.165365335,1.3556268,3.2795608,-3.4381416,-2.1791134
465,1778444550530,0.68868054242304,0.215829880295552,1.8076240143616,3.74587623108608,-3.21456781178112,-2.42597396514432
466,1778444550540,0.8211101249999999,0.2662957175,2.2596328,4.2122036,-2.9909883,-2.67284085
467,1778444550550,0.95353970757696,0.316761554704448,2.7116415856384,4.67853096891392,-2.76740878821888,-2.9197077348556797
468,1778444550560,1.0859659,0.3672261,3.1636388,5.1448464,-2.543835,-3.1665683
469,1778444550570,1.0572330542281068,0.3166604957984148,3.0164787469382324,4.029526161025435,-1.6922347204984844,-3.227682134186327
470,1778444550580,1.0284994728859465,0.2660935971007925,2.869314926530884,2.9141773694872812,-0.8406126397507578,-3.288797532906836
471,1778444550590,0.9997658915437864,0.2155266984031703,2.7221511061235355,1.798828577949127,0.0110094409969689,-3.349912931627345
472,1778444550600,0.9710330457718932,0.1649610942015851,2.5749910530617677,0.6835083389745632,0.8626097204984845,-3.411026765813672
473,1778444550610,0.9423002,0.11439549,2.427831,-0.4318119,1.71421,-3.4721406
474,1778444550620,0.923229515,-0.039028655,2.21249965,-0.4318119,1.71421,-3.4721406
475,1778444550630,0.90415883,-0.1924528,1.9971683,-0.4318119,1.71421,-3.4721406
476,1778444550640,0.9028998357435551,-0.2009065478604282,1.9690972395427824,0.8376831835032895,1.396862404734143,-3.756309791725191
477,1778444550650,0.9016408414871104,-0.2093602957208564,1.941026179085564,2.107178267006579,1.0795148094682858,-4.040478983450383
478,1778444550660,0.9003818149999999,-0.21781426,1.9129544,3.3767058499999996,0.7621590900000002,-4.32465545
479,1778444550670,0.8991227885128896,-0.2262682242791436,1.884882620914436,4.64623343299342,0.4448033705317144,-4.608831916549617
480,1778444550680,0.8978637942564448,-0.2347219721395718,1.856811560457218,5.91572851649671,0.1274557752658573,-4.893001108274809
481,1778444550690,0.8966048,-0.24317572,1.8287405,7.1852236,-0.18989182,-5.1771703
482,1778444550700,0.815177582663306,-0.4127486303369799,1.5141328820493567,7.147387460469075,-0.2310586674526017,-5.155964327378016
483,1778444550710,0.733750365326612,-0.5823215406739598,1.1995252640987133,7.1095513209381505,-0.2722255149052036,-5.134758354756033
484,1778444550720,0.6523252325,-0.75189011,0.8849257000000001,7.07171615,-0.3133913085,-5.1135529250000005
485,1778444550730,0.5709000996733881,-0.9214586793260402,0.5703261359012869,7.033880979061849,-0.3545571020947964,-5.092347495243967
486,1778444550740,0.489472882336694,-1.09103158966302,0.2557185179506435,6.996044839530925,-0.3957239495473982,-5.071141522621984
487,1778444550750,0.408045665,-1.2606045,-0.0588891,6.9582087,-0.436890797,-5.04993555
488,1778444550760,0.711095,-0.1945761,0.7776572,6.7705684,-0.8457167,-4.9125957
489,1778444550770,0.323178536644288,-0.362960504652032,0.4246868430784,6.40326850149888,-0.48440764981504,-5.138565007555839
490,1778444550780,-0.0647478575,-0.53134922,0.0717074499999999,6.0359592,-0.12308935,-5.364540099999999
491,1778444550790,-0.452674251644288,-0.699737935347968,-0.2812719430784,5.66864989850112,0.2382289498150399,-5.59051519244416
492,1778444550800,-0.840590715,-0.86812234,-0.6342422999999999,5.30135,0.599538,-5.8164845
493,1778444550810,-0.8655842051056423,-0.916368736584292,-0.63326885328037,5.078655800696318,-0.1888195451923404,-5.42417022891593
494,1778444550820,-0.8905783350528211,-0.964616368292146,-0.632295381640185,4.8559559003481585,-0.9771972725961702,-5.031845914457965
495,1778444550830,-0.915572465,-1.012864,-0.63132191,4.633256,-1.765575,-4.6395216
496,1778444550840,-1.0055004825,-1.2771257,-0.630689555,4.633256,-1.765575,-4.6395216
497,1778444550850,-1.0954285,-1.5413874,-0.6300572,4.633256,-1.765575,-4.6395216
498,1778444550860,-1.25678439032896,-1.72986546248832,-0.566609557880576,3.7771347917888,-1.399199540454144,-4.1984843047948806
499,1778444550870,-1.41814028065792,-1.91834352497664,-0.503161915761152,2.9210135835776,-1.032824080908288,-3.75744700958976
500,1778444550880,-1.5794920403289598,-2.10681676248832,-0.4397158978805759,2.0649142917888,-0.666458000454144,-3.31642100479488
501,1778444550890,-1.7408438,-2.29529,-0.37626988,1.208815,-0.30009192,-2.875395
502,1778444550900,-1.7827073,-2.3409874,-0.35852695,1.208815,-0.30009192,-2.875395
503,1778444550910,-2.2086868,-2.5999877,-0.3586148,-0.8842711,1.3506405,-1.0537775
504,1778444550920,-2.5391345,-2.6258433,-0.33943188,-0.8842711,1.3506405,-1.0537775
505,1778444550930,-2.1270466958331284,-2.476007154341771,-0.3976082882659539,-0.8842711,1.3506405,-1.0537775
506,1778444550940,-1.7149483420834355,-2.3261671728291144,-0.455786185867023,-0.8842711,1.3506405,-1.0537775
507,1778444550950,-1.302849988333743,-2.176327191316458,-0.5139640834680921,-0.8842711,1.3506405,-1.0537775
508,1778444550960,-0.8907621841668715,-2.026491045658229,-0.572140491734046,-0.8842711,1.3506405,-1.0537775
509,1778444550970,-0.47867438,-1.8766549,-0.6303169,-0.8842711,1.3506405,-1.0537775
510,1778444550980,0.3006682904584959,-1.370518566537856,-0.34646565425056,-0.96425182374016,1.000370251598208,1.00048826926528
511,1778444550990,1.080010960916992,-0.8643822330757119,-0.0626144085011199,-1.04423254748032,0.650100003196416,3.0547540385305605
512,1778444551000,1.859333680458496,-0.3582588565378559,0.22122957074944,-1.12421122374016,0.2998387215982081,5.10896721926528
513,1778444551010,2.6386564,0.14786452,0.50507355,-1.2041899,-0.05042256,7.1631804
514,1778444551020,-0.22021385,-1.202144,0.005205253,-1.2041899,-0.05042256,7.1631804
515,1778444551030,0.279349419328,-1.025538974484608,-0.0811091433101312,-1.2041899,-0.05042256,7.1631804
516,1778444551040,0.7788999,-0.84893847,-0.16742133,-1.2041899,-0.05042256,7.1631804
517,1778444551050,0.9014294652811912,-0.7985111123827517,-0.1320353417571577,-1.2782888412171296,-0.4356092836374621,7.331180599655935
518,1778444551060,1.0239621673594044,-0.7480824638086242,-0.0966484476214211,-1.3523896793914354,-0.820805868181269,7.499185100172032
519,1778444551070,1.1464948694376178,-0.6976538152344967,-0.0612615534856844,-1.426490517565741,-1.206002452725076,7.66718960068813
520,1778444551080,1.2690244347188089,-0.6472264576172483,-0.0258755652428422,-1.5005894587828703,-1.591189176362538,7.835189800344064
521,1778444551090,1.391554,-0.5967991,0.009510423,-1.5746884,-1.9763759,8.00319
522,1778444551100,1.6918702,-0.6337923,0.2422278,-1.5746884,-1.9763759,8.00319
523,1778444551110,1.9544507146500891,-0.616578792893239,0.5539000858055928,-0.673623555356823,-2.107504737903522,7.41300846103066
524,1778444551120,2.2170245073250445,-0.5993657264466195,0.8655643929027963,0.2274182223215884,-2.238630218951761,6.82284203051533
525,1778444551130,2.4795983,-0.58215266,1.1772287,1.12846,-2.3697557,6.2326756
526,1778444551140,2.44649660130368,-0.562039905060032,1.17081551791232,0.86761286119936,-2.3822655101235197,6.3006832204864
527,1778444551150,2.41339490260736,-0.541927150120064,1.16440233582464,0.60676572239872,-2.39477532024704,6.3686908409728
528,1778444551160,2.38029405130368,-0.521814910060032,1.15798931791232,0.3459252611993599,-2.40728481012352,6.4366967204864
529,1778444551170,2.3471932,-0.50170267,1.1515763,0.0850848,-2.4197943,6.5047026
530,1778444551180,2.273619738847834,-0.6047065872888435,0.9665695672960884,0.0850848,-2.4197943,6.5047026
531,1778444551190,2.2000462776956686,-0.7077105045776871,0.7815628345921767,0.0850848,-2.4197943,6.5047026
532,1778444551200,2.1264747,-0.810711785,0.596560838,0.0850848,-2.4197943,6.5047026
533,1778444551210,2.0529031223043313,-0.9137130654223128,0.4115588414078233,0.0850848,-2.4197943,6.5047026
534,1778444551220,1.9793296611521656,-1.0167169827111564,0.2265521087039116,0.0850848,-2.4197943,6.5047026
535,1778444551230,1.9057562,-1.1197209,0.041545376,0.0850848,-2.4197943,6.5047026
536,1778444551240,1.9821164050658835,-1.143453211047883,-0.0708060493285839,0.0850848,-2.4197943,6.5047026
537,1778444551250,2.058476610131767,-1.167185522095766,-0.1831574746571678,0.0850848,-2.4197943,6.5047026
538,1778444551260,2.134838770043922,-1.1909184406985889,-0.2955117762190559,0.0850848,-2.4197943,6.5047026
539,1778444551270,2.2112009299560778,-1.2146513593014112,-0.4078660777809441,0.0850848,-2.4197943,6.5047026
540,1778444551280,2.2875611350219613,-1.2383836703492943,-0.520217503109528,0.0850848,-2.4197943,6.5047026
541,1778444551290,2.363921340087845,-1.2621159813971774,-0.6325689284381119,0.0850848,-2.4197943,6.5047026
542,1778444551300,2.4402835,-1.2858489,-0.74492323,0.0850848,-2.4197943,6.5047026
543,1778444551310,3.1561849134208,-1.27673018328192,-0.582331183848448,0.42178930976256,-2.1727921384128,8.08998809139456
544,1778444551320,3.872068,-1.2676117,-0.4197433,0.7584852,-1.9257963,9.675233
545,1778444551330,4.5767956,-1.1296424,0.04663641,-0.38440877,-1.3886887,10.027091
546,1778444551340,4.565084,-1.0844234,0.13331577,-0.36524504,-0.9793217,8.822971
547,1778444551350,4.33526485835264,-0.943308713755136,0.164243595871104,-0.265707645937664,-1.0147261531712,8.6339930811136
548,1778444551360,4.1054516,-0.80219764,0.19517063,-0.1661728,-1.0501297,8.44502
549,1778444551370,3.8410435,-0.51052874,-0.06382488,1.0092018,-1.6612393,7.4724703
550,1778444551380,3.353186361864481,-0.2045664203420885,0.0988338302898646,0.7056233693535646,-1.5673195981513175,6.576176509359709
551,1778444551390,2.8653292237289625,0.1013958993158229,0.2614925405797292,0.4020449387071292,-1.4733998963026351,5.679882718719417
552,1778444551400,2.3774845745763207,0.4073503864386076,0.4241470868599098,0.098474279569043,-1.3794825987675452,4.783611872906473
553,1778444551410,1.889639925423679,0.7133048735613924,0.5868016331400904,-0.205096379569043,-1.2855653012324548,3.887341027093528
554,1778444551420,1.4017827872881603,1.0192671932193038,0.7494603434299549,-0.5086748102154784,-1.1916455993837725,2.991047236453236
555,1778444551430,0.9139256491526416,1.3252295128772154,0.9121190537198196,-0.8122532408619139,-1.09772589753509,2.0947534458129446
556,1778444551440,0.426081,1.631184,1.0747736,-1.1158239,-1.0038086,1.1984826
557,1778444551450,0.74776993232896,1.87556167192576,0.8242188131423233,-1.1158239,-1.0038086,1.1984826
558,1778444551460,1.0694671,2.1199456,0.5736576120000001,-1.1158239,-1.0038086,1.1984826
559,1778444551470,1.39116426767104,2.36432952807424,0.3230964108576769,-1.1158239,-1.0038086,1.1984826
560,1778444551480,1.7128532,2.6087072,0.072541624,-1.1158239,-1.0038086,1.1984826
561,1778444551490,1.88952138861824,2.55298823821184,0.0838100912617728,-0.9915318659584,-0.79713809541632,0.50886387723264
562,1778444551500,2.0661941,2.49726785,0.095078847,-0.86723665,-0.5904623,-0.1807724999999999
563,1778444551510,2.2428668113817603,2.44154746178816,0.1063476027382272,-0.7429414340416001,-0.38378650458368,-0.8704088772326398
564,1778444551520,2.419535,2.3858285,0.11761607,-0.6186494,-0.177116,-1.5600276
565,1778444551530,2.2267072,2.0633128,0.3371514,-0.6186494,-0.177116,-1.5600276
566,1778444551540,2.1225907782179063,1.8744765886182888,0.48467419217838,-0.727948666008465,0.0883333984725398,-1.822463372756596
567,1778444551550,2.0184743564358123,1.6856403772365771,0.6321969843567601,-0.83724793201693,0.3537827969450797,-2.0848991455131927
568,1778444551560,1.9143606,1.496809,0.779716,-0.9465444,0.6192254,-2.3473282
569,1778444551570,1.92681474058496,1.45232471940608,0.80232081065472,-0.724026513265408,0.84919575634176,-2.4242439154662403
570,1778444551580,1.9392692,1.4078393,0.8249262,-0.50150293,1.079172,-2.5011616
571,1778444551590,2.242773,-1.1113352,-0.2726344,-0.50150293,1.079172,-2.5011616
572,1778444551600,1.7942824,1.806919,0.88916606,-0.50150293,1.079172,-2.5011616
573,1778444551610,2.29788815376384,1.38565029230848,0.6460549068625919,0.242399232930432,0.904300953378048,-2.9461799036928
574,1778444551620,2.8015068,0.9643708,0.40293753,0.98632044,0.72942543,-3.3912096
575,1778444551630,2.8423759974920424,0.724444745314412,0.3053289125009173,1.0934913223596474,0.6091178401100805,-3.5093937503170145
576,1778444551640,2.883244148746021,0.484524832657206,0.2077227937504586,1.2006594611798236,0.4888133300550403,-3.627574875158507
577,1778444551650,2.9241123,0.24460492,0.110116675,1.3078276,0.36850882,-3.745756
578,1778444551660,2.9423399555406697,0.2780882223871898,0.015316547715935,0.8168564604332355,-0.0564592130141311,-1.0170326151918283
579,1778444551670,2.9605676110813395,0.3115715247743796,-0.0794835795681298,0.3258853208664709,-0.4814272460282622,1.711690769616343
580,1778444551680,2.9787948,0.34505397,-0.17428128,-0.16507325,-0.9063844,4.4403443
581,1778444551690,2.948507744603797,0.4241480178517587,-0.1796467900627485,-0.0250199268493181,-0.7831267701936501,3.6006410763011925
582,1778444551700,2.9182199138490508,0.5032440905370603,-0.1850124374843128,0.1150369817123295,-0.6598659849515874,2.760916355924701
583,1778444551710,2.887932083094305,0.5823401632223619,-0.1903780849058772,0.2550938902739773,-0.5366051997095249,1.9211916355482104
584,1778444551720,2.857645027698102,0.6614342110741206,-0.1957435949686257,0.3951472134246591,-0.4133475699031749,1.0814884118494033
585,1778444551730,2.8273579723018982,0.7405282589258794,-0.2011091050313742,0.535200536575341,-0.290089940096825,0.2417851881505962
586,1778444551740,2.7970701415471524,0.819624331611181,-0.2064747524529386,0.6752574451369887,-0.1668291548547624,-0.5979395322258949
587,1778444551750,2.7667823107924066,0.8987204042964826,-0.2118403998745029,0.8153143536986365,-0.0435683696126998,-1.4376642526023862
588,1778444551760,2.736495255396203,0.9778144521482413,-0.2172059099372514,0.9553676768493182,0.0796892601936501,-2.277367476301193
589,1778444551770,2.7062082,1.0569085,-0.22257142,1.095421,0.20294689,-3.1170707
590,1778444551780,2.4868646616257637,1.046326409700652,0.0758851501301328,0.8663445785728914,1.994059743967386,-4.838270820719699
591,1778444551790,2.2675211232515275,1.0357443194013038,0.3743417202602656,0.6372681571457829,3.785172597934772,-6.559470941439397
592,1778444551800,2.0481832,1.0251625,0.67279065,0.4081976,5.5762396,-8.280627
593,1778444551810,1.9797075,0.94662476,0.94128,0.4081976,5.5762396,-8.280627
594,1778444551820,1.9789526,0.8715205,0.9906498,0.4081976,5.5762396,-8.280627
595,1778444551830,1.981123877792,0.8035761303232001,0.98120375409216,0.241568887179776,2.0702995245414404,-2.0853533515123206
596,1778444551840,1.9832951,0.7356335,0.97175795,0.07494444,-1.4355508,4.1097617
597,1778444551850,2.003429,0.51837856,0.8104292,0.07494444,-1.4355508,4.1097617
598,1778444551860,1.919717919007919,0.357482938374936,0.6392482626080316,0.6562545537828106,-1.032393743103816,3.167357291585316
599,1778444551870,1.836006838015838,0.196587316749872,0.4680673252160631,1.2375646675656211,-0.6292366862076322,2.224952883170632
600,1778444551880,1.7522979,0.035695814,0.29689077,1.8188599,-0.22608995,1.2825726
601,1778444551890,1.7841434923712,-0.0590747949206783,0.210618609297792,1.8188599,-0.22608995,1.2825726
602,1778444551900,1.8159899,-0.15384783,0.12434424,1.8188599,-0.22608995,1.2825726
603,1778444551910,1.81194241485952,-0.208266461549568,0.082964130341376,1.857013305024,0.18584501436672,-0.0243873955404799
604,1778444551920,1.8078950333333332,-0.2626837,0.0415850799999999,1.8951657333333336,0.5977694333333333,-1.3313139333333333
605,1778444551930,1.803847651807147,-0.317100938450432,0.0002060296586239,1.933318161642667,1.0096938522999466,-2.638240471126186
606,1778444551940,1.7998001666666668,-0.37151957,-0.04117408,1.971471566666667,1.4216288166666666,-3.9452004666666665
607,1778444551950,1.7957526815261866,-0.4259382015495681,-0.082554189658624,2.0096249716906667,1.833563781033387,-5.252160462207146
608,1778444551960,1.7917053,-0.48035544,-0.12393324,2.0477774,2.2454882,-6.559087
609,1778444551970,1.7293613,-0.58916104,-0.14363843,2.0477774,2.2454882,-6.559087
610,1778444551980,1.727530517710858,-0.6000906532648395,-0.1421887176292794,1.852054496519268,2.223130375882343,-6.68986558262962
611,1778444551990,1.7256997354217156,-0.6110202665296788,-0.1407390052585589,1.6563315930385365,2.200772551764686,-6.8206441652592416
612,1778444552000,1.723869,-0.6219496,-0.13928933,1.4606137,2.1784153,-6.9514194
613,1778444552010,1.8286054093568,-0.692269429894656,-0.0548090178618367,1.17129417833728,2.25213705634944,-6.86012236861696
614,1778444552020,1.9333445,-0.76259106,0.029673457,0.88196725,2.3258607,-6.768823
615,1778444552030,0.5133725,-2.0765922,-0.64010257,0.88196725,2.3258607,-6.768823
616,1778444552040,0.06043512267264,-2.1441088607756797,-0.594113511167488,0.93826211691648,2.0181805133568,-7.1206854961024
617,1778444552050,-0.3925022546547199,-2.21162552155136,-0.548124452334976,0.99455698383296,1.7105003267136,-7.472547992204801
618,1778444552060,-0.8454512273273599,-2.27914391077568,-0.502134216167488,1.05085329191648,1.4028122633568,-7.824419496102401
619,1778444552070,-1.2984002,-2.3466623,-0.45614398,1.1071496,1.0951242,-8.176291
620,1778444552080,-2.2138863,-2.3929415,-0.5946455,1.9375772,-0.24897122,-6.2338448
621,1778444552090,-0.2388767304460799,-0.9271342625728,-0.189617179428864,1.7749582815488,-0.822278371574528,-4.59323015013632
622,1778444552100,1.7361834,0.5387105,0.21542151,1.6123352,-1.3956002,-2.9525735
623,1778444552110,-0.76181962402944,-0.88887232282624,-0.327971075336064,1.6123352,-1.3956002,-2.9525735
624,1778444552120,-3.2597587,-2.3164186,-0.87134975,1.6123352,-1.3956002,-2.9525735
625,1778444552130,-3.5474825,-2.3597221,-0.77515805,1.6123352,-1.3956002,-2.9525735
626,1778444552140,-3.6438177,-2.3740962,-0.6893182,1.6123352,-1.3956002,-2.9525735
627,1778444552150,-3.6705194,-2.381425,-0.43906385,0.59878755,-1.6138536,0.013526302
628,1778444552160,-3.6019726774092797,-2.3660275720896,-0.4103813971400959,0.59878755,-1.6138536,0.013526302
629,1778444552170,-3.53342595481856,-2.3506301441792,-0.3816989442801919,0.59878755,-1.6138536,0.013526302
630,1778444552180,-3.46487747740928,-2.3352323220896,-0.353015757140096,0.59878755,-1.6138536,0.013526302
631,1778444552190,-3.396329,-2.3198345,-0.32433257,0.59878755,-1.6138536,0.013526302
632,1778444552200,-3.1131237529201976,-2.3293045818126292,-0.3248535214272026,0.4972292035401207,-1.5798611943785956,0.7134504940191415
633,1778444552210,-2.8299185058403946,-2.338774663625259,-0.3253744728544052,0.3956708570802414,-1.545868788757191,1.413374686038283
634,1778444552220,-2.546706008613465,-2.3482449878750864,-0.325895437618135,0.2941099106934138,-1.5118755129190635,2.113316796346094
635,1778444552230,-2.2634935113865353,-2.3577153121249133,-0.3264164023818649,0.1925489643065861,-1.4778822370809366,2.8132589066539055
636,1778444552240,-1.9802882643067323,-2.367185393937543,-0.3269373538090675,0.0909906178467068,-1.443889831459532,3.5131830986730472
637,1778444552250,-1.69708301722693,-2.376655475750173,-0.3274583052362701,-0.0105677286131723,-1.4098974258381274,4.2131072906921885
638,1778444552260,-1.41387052,-2.3861258,-0.32797927,-0.112128675,-1.37590415,4.913049401
639,1778444552270,-1.1306580227730705,-2.395596124249827,-0.3285002347637298,-0.2136896213868277,-1.3419108741618728,5.612991511307811
640,1778444552280,-0.8474527756932676,-2.4050662060624566,-0.3290211861909324,-0.3152479678467069,-1.3079184685404683,6.3129157033269525
641,1778444552290,-0.5642475286134649,-2.4145362878750865,-0.329542137618135,-0.4168063143065861,-1.2739260629190636,7.012839895346094
642,1778444552300,-0.2810350313865352,-2.4240066121249133,-0.3300631023818649,-0.5183672606934139,-1.2399327870809365,7.712782005653906
643,1778444552310,0.0021774658403946,-2.4334769363747406,-0.3305840671455948,-0.6199282070802415,-1.2059395112428093,8.412724115961717
644,1778444552320,0.2853827129201973,-2.4429470181873705,-0.3311050185727974,-0.7214865535401208,-1.1719471056214046,9.11264830798086
645,1778444552330,0.56858796,-2.4524171,-0.33162597,-0.8230449,-1.1379547,9.8125725
646,1778444552340,1.149332812292641,-2.275149454002116,-0.3927576116499983,-0.879559148915418,-1.2217981154546542,9.843534847541983
647,1778444552350,1.730077664585282,-2.0978818080042325,-0.4538892532999966,-0.936073397830836,-1.3056415309093083,9.874497195083968
648,1778444552360,2.31080765,-1.9206187,-0.51501933,-0.9925862,-1.3894828,9.90545875
649,1778444552370,2.606610618231389,-1.7066930510444756,-0.1532845270196607,-0.642240603308052,-1.465161908393351,9.447928641947128
650,1778444552380,2.9024211591156943,-1.4927619255222375,0.2084595364901696,-0.2918860376540259,-1.5408429541966755,8.990386820973564
651,1778444552390,3.1982317,-1.2788308,0.5702036,0.058468528,-1.616524,8.532845
652,1778444552400,3.4074371,-1.0404537,0.37313862,0.157210534,-1.5986867,8.461513499999999
653,1778444552410,3.6166425,-0.8020766,0.17607364,0.25595254,-1.5808494,8.390182
654,1778444552420,2.9687202,0.114281274,-0.021570755,1.3057157,-1.0373539,6.3130655
655,1778444552430,2.97189669065856,0.1347042419106432,-0.0236562509440064,1.40606033439488,-1.1327722463392,6.279659447408
656,1778444552440,2.9750731,0.155126687,-0.0257416935,1.5064024,-1.22818815,6.24625425
657,1778444552450,2.97824950934144,0.1755491320893568,-0.0278271360559936,1.60674446560512,-1.3236040536608,6.212849052592
658,1778444552460,2.981426,0.1959721,-0.029912632,1.7070891,-1.4190224,6.179443
659,1778444552470,3.18800929423232,0.5184539777152001,-0.1356732647187712,1.7070891,-1.4190224,6.179443
660,1778444552480,3.3945873,0.8409276,-0.24143119,1.7070891,-1.4190224,6.179443
661,1778444552490,3.380924,1.1148877,-0.41468352,1.7885262,-1.4424448,4.8672695
662,1778444552500,3.25655435,1.17594595,-0.45120916,1.60140945,-1.2385729,4.31257775
663,1778444552510,3.1321847,1.2370042,-0.4877348,1.4142927,-1.034701,3.757886
664,1778444552520,2.70012495,1.33412245,-0.5590483300000001,1.23968995,-0.87260355,3.480815
665,1778444552530,2.2680652,1.4312407,-0.63036186,1.0650872,-0.7105061,3.203744
666,1778444552540,2.4387753850624,1.69384838633536,-0.340002253444608,1.16836399692608,0.11061636023296,1.99149690843584
667,1778444552550,2.6094855701248,1.95645607267072,-0.049642646889216,1.27164079385216,0.93173882046592,0.7792498168716796
668,1778444552560,2.7801913850624,2.21905703633536,0.2407095265553919,1.37491494692608,1.7528402602329602,-0.4329662415641605
669,1778444552570,2.9508972,2.481658,0.5310617,1.4781891,2.5739417,-1.6451823
670,1778444552580,2.9448298815595453,2.379553995390313,0.3209729972660169,1.5614100434762943,2.05962369454253,-1.624511606945677
671,1778444552590,2.9387625631190906,2.277449990780626,0.1108842945320339,1.644630986952589,1.54530568908506,-1.603840913891354
672,1778444552600,2.9326954,2.1753486,-0.09919903,1.7278498,1.03100085,-1.58317075
673,1778444552610,2.9266282368809096,2.073247209219374,-0.309282354532034,1.811068613047411,0.5166960109149401,-1.562500586108646
674,1778444552620,2.920560918440455,1.971143204609687,-0.5193710572660171,1.8942895565237057,0.00237800545747,-1.541829893054323
675,1778444552630,2.9144936,1.8690392,-0.72945976,1.9775105,-0.51194,-1.5211592
676,1778444552640,2.7729839890769643,1.7621551345068405,-0.5762109536878636,1.7142232760956828,-0.1465590615487014,-2.263747255800975
677,1778444552650,2.631474378153928,1.6552710690136807,-0.422962147375727,1.4509360521913657,0.218821876902597,-3.00633531160195
678,1778444552660,2.489961144538482,1.5483842672534205,-0.2697094178439317,1.1876420880478415,0.5842121692256493,-3.7489423779004873
679,1778444552670,2.348447910923036,1.4414974654931598,-0.1164566883121365,0.9243481239043172,0.9496024615487018,-4.491549444199025
680,1778444552680,2.2069383,1.3346134,0.036792118,0.6610609,1.3149834,-5.2341375
681,1778444552690,1.93587716962688,1.20110895887872,0.2374041261334272,-0.8443361306713598,0.857713003136,-4.0385500537152
682,1778444552700,1.6648091,1.0676011,0.43802127,-2.3497717,0.4004309,-2.842932
683,1778444552710,1.5116893994324476,0.9116826378871792,0.3484543857957938,-2.2740908623841896,0.4155142412685834,-2.892971266527374
684,1778444552720,1.358573618679056,0.7557681672358973,0.2588897944744742,-2.1984119621730236,0.4305971964085729,-2.9430092520659215
685,1778444552730,1.2054578379256644,0.5998536965846157,0.1693252031531547,-2.1227330619618576,0.4456801515485624,-2.9930472376044692
686,1778444552740,1.0523381373581118,0.4439352344717946,0.0797583189489485,-2.0470522243460474,0.4607634928171458,-3.0430865041318436
687,1778444552750,0.8992184367905594,0.2880167723589736,-0.0098085652552577,-1.971371386730237,0.4758468340857293,-3.0931257706592175
688,1778444552760,0.7461026560371677,0.132102301707692,-0.0993731565765772,-1.895692486519071,0.4909297892257188,-3.1431637561977652
689,1778444552770,0.5929868752837761,-0.0238121689435896,-0.1889377478978968,-1.820013586307905,0.5060127443657083,-3.193201741736313
690,1778444552780,0.4398671747162236,-0.1797306310564106,-0.278504632102103,-1.7443327486920948,0.5210960856342918,-3.243241008263687
691,1778444552790,0.2867474741486712,-0.3356490931692317,-0.3680715163063093,-1.6686519110762843,0.5361794269028752,-3.2932802747910612
692,1778444552800,0.1336316933952795,-0.4915635638205133,-0.4576361076276288,-1.5929730108651183,0.5512623820428647,-3.343318260329609
693,1778444552810,-0.019484087358112,-0.6474780344717951,-0.5472006989489483,-1.5172941106539524,0.5663453371828542,-3.3933562458681563
694,1778444552820,-0.1726037879256645,-0.8033964965846161,-0.6367675831531545,-1.441613273038142,0.5814286784514376,-3.4433955123955307
695,1778444552830,-0.325723488493217,-0.9593149586974372,-0.7263344673573608,-1.365932435422332,0.5965120197200211,-3.4934347789229045
696,1778444552840,-0.4788392692466086,-1.1152294293487188,-0.8158990586786803,-1.290253535211166,0.6115949748600106,-3.5434727644614523
697,1778444552850,-0.63195505,-1.2711439,-0.90546365,-1.214574635,0.62667793,-3.59351075
698,1778444552860,1.5676978,0.6791049,0.4999952,-1.6348499,-1.3386501,0.3973242
699,1778444552870,1.5843035,0.65258956,0.43372878,-1.6348499,-1.3386501,0.3973242
700,1778444552880,1.6783522641069402,0.5444747492581942,0.3350221323075085,-0.9185263460392364,-0.3102119761176581,-1.6370200067072287
701,1778444552890,1.7724010282138805,0.4363599385163883,0.236315484615017,-0.2022027920784727,0.7182261477646837,-3.6713642134144577
702,1778444552900,1.8664522,0.32824236,0.13760631,0.5141391,1.7466906,-5.7057605
703,1778444552910,1.65587837135616,0.236347282091392,0.319254750070272,0.5307286690104319,2.07513958742656,-6.1617045860096
704,1778444552920,1.4453099333333332,0.1444545566666666,0.50089854,0.5473178133333333,2.4035801666666665,-6.617637
705,1778444552930,1.2347414953105065,0.0525618312419413,0.6825423299297281,0.5639069576562347,2.732020745906773,-7.0735694139904
706,1778444552940,1.0241676666666666,-0.0393332466666666,0.8641907700000001,0.5804965266666666,3.060469733333333,-7.5295135
707,1778444552950,0.8135938380228266,-0.1312283245752746,1.045839210070272,0.5970860956770986,3.3889187207598934,-7.9854575860096
708,1778444552960,0.6030254,-0.22312105,1.227483,0.61367524,3.7173593,-8.44139
709,1778444552970,2.4541616,-0.46221025,-0.191525395,0.61367524,3.7173593,-8.44139
710,1778444552980,2.4947112552231547,-0.5357284528167607,-0.2010429394584078,0.3858446070441803,3.862048581599279,-8.338330744686735
711,1778444552990,2.535260910446309,-0.6092466556335215,-0.2105604839168155,0.1580139740883606,4.006737863198558,-8.235271489373467
712,1778444553000,2.575809527611577,-0.6827629764083804,-0.2200777847292039,-0.0698108264779099,4.15142344079964,-8.132214872343367
713,1778444553010,2.616358144776845,-0.7562792971832392,-0.2295950855415922,-0.2976356270441804,4.2961090184007205,-8.029158255313266
714,1778444553020,2.6569078,-0.8297975,-0.23911263,-0.52546626,4.4407983,-7.926099
715,1778444553030,2.390408351800968,-1.0712360871658118,-0.2959919640615426,-0.4443768794256189,4.620192094948245,-8.137438606816456
716,1778444553040,2.123915725900484,-1.3126684935829058,-0.3528698420307713,-0.3632895747128094,4.7995812974741225,-8.348772803408227
717,1778444553050,1.8574231,-1.5541009,-0.40974772,-0.28220227,4.9789705,-8.560107
718,1778444553060,2.04878735,-1.4346979,-0.37296878,-0.158711508,5.096344,-8.636491000000001
719,1778444553070,2.2401516,-1.3152949,-0.33618984,-0.035220746,5.2137175,-8.712875
720,1778444553080,1.8222136497828256,-1.5195670901883316,-0.4595294608217635,-0.035220746,5.2137175,-8.712875
721,1778444553090,1.4042756995656511,-1.723839280376663,-0.582869081643527,-0.035220746,5.2137175,-8.712875
722,1778444553100,0.98632705,-1.9281167,-0.70621186,-0.035220746,5.2137175,-8.712875
723,1778444553110,1.6413103,1.0254524,0.7964467,0.36402333,5.493738,-8.433396
724,1778444553120,1.3639207870874757,0.0185031927432223,0.2701378245598914,0.36402333,5.493738,-8.433396
725,1778444553130,1.086531274174951,-0.9884460145135554,-0.2561710508802172,0.36402333,5.493738,-8.433396
726,1778444553140,0.80913466,-1.995421,-0.7824934,0.36402333,5.493738,-8.433396
727,1778444553150,-0.5011172760101119,-2.35664692363264,-1.21924866539584,0.36402333,5.493738,-8.433396
728,1778444553160,-1.81133567,-2.7178636,-1.6559927500000002,0.36402333,5.493738,-8.433396
729,1778444553170,-3.121554063989888,-3.07908027636736,-2.0927368346041604,0.36402333,5.493738,-8.433396
730,1778444553180,-4.431806,-3.4403062,-2.5294921,0.36402333,5.493738,-8.433396
731,1778444553190,-3.6408336579241287,-3.480478187651269,-2.3811244867644104,-0.2319604639941924,4.019100199860296,-5.445565435723768
732,1778444553200,-2.849881564481032,-3.5206491469128176,-2.2327606716911026,-0.8279290009985479,2.5445001499650743,-2.4578113589309427
733,1778444553210,-2.058929471037936,-3.560820106174366,-2.084396856617795,-1.4238975380029035,1.0699001000698516,0.5299427178618829
734,1778444553220,-1.2679571289620646,-3.6009920938256346,-1.936029243382205,-2.019881331997096,-0.4047377000698513,3.5177732821381142
735,1778444553230,-0.4769847868861934,-3.6411640814769033,-1.787661630146615,-2.6158651259912884,-1.8793755002095545,6.5056038464143455
736,1778444553240,0.3139673065569031,-3.681335040738452,-1.6392978150733075,-3.211833662995644,-3.3539755501047765,9.49335792320717
737,1778444553250,1.1049194,-3.721506,-1.490934,-3.8078022,-4.8285756,12.481112
738,1778444553260,1.2330055338413095,-3.575008949881509,-1.3295272670173677,-3.790728962684594,-4.839070115138349,12.23498415680337
739,1778444553270,1.361091667682619,-3.4285118997630177,-1.1681205340347354,-3.773655725369187,-4.849564630276698,11.98885631360674
740,1778444553280,1.489174522560873,-3.282018599921006,-1.0067179330115783,-3.7565829251230625,-4.8600588767589,11.742734771202247
741,1778444553290,1.617257377439127,-3.1355253000789944,-0.8453153319884215,-3.739510124876938,-4.8705531232411,11.496613228797752
742,1778444553300,1.7453435112804363,-2.989028249960503,-0.6839085990057892,-3.722436887561531,-4.881047638379449,11.250485385601124
743,1778444553310,1.873429645121746,-2.842531199842012,-0.522501866023157,-3.705363650246125,-4.8915421535178,11.004357542404492
744,1778444553320,2.0015125,-2.6960379,-0.3610992649999999,-3.68829085,-4.9020364,10.758236
745,1778444553330,2.129595354878254,-2.549544600157988,-0.1996966639768429,-3.671218049753875,-4.9125306464822005,10.512114457595509
746,1778444553340,2.257681488719564,-2.403047550039497,-0.0382899309942107,-3.654144812438469,-4.923025161620551,10.265986614398876
747,1778444553350,2.385767622560873,-2.2565504999210058,0.1231168019884215,-3.6370715751230622,-4.9335196767589,10.019858771202248
748,1778444553360,2.513850477439127,-2.110057200078994,0.2845194030115786,-3.6199987748769376,-4.9440139232411004,9.773737228797753
749,1778444553370,2.641933332317381,-1.9635639002369825,0.4459220040347355,-3.602925974630813,-4.954508169723302,9.52761568639326
750,1778444553380,2.7700194661586908,-1.8170668501184912,0.6073287370173678,-3.585852737315406,-4.965002684861651,9.281487843196633
751,1778444553390,2.8981056,-1.6705698,0.76873547,-3.5687795,-4.9754972,9.03536
752,1778444553400,2.9784248,-1.5005498,0.78485006,-3.5687795,-4.9754972,9.03536
753,1778444553410,3.3814697,-1.0048451,0.5680286,-3.5687795,-4.9754972,9.03536
754,1778444553420,2.3646974999999997,-1.38262375,-0.074763,-3.5687795,-4.9754972,9.03536
755,1778444553430,1.3479253,-1.7604024,-0.7175546,-3.5687795,-4.9754972,9.03536
756,1778444553440,3.0373158,-0.6126072,0.19028461,-3.5687795,-4.9754972,9.03536
757,1778444553450,2.9468138751061335,-0.3268588409591467,0.2639775583848533,-3.40047955426688,-4.1600723842379095,7.874553475180374
758,1778444553460,2.8563096333333333,-0.0411031666666666,0.3376723933333333,-3.2321753,-3.3446266933333337,6.713717233333334
759,1778444553470,2.765805391560533,0.2446525076258133,0.4113672282818133,-3.06387104573312,-2.529181002428758,5.552880991486294
760,1778444553480,2.675303466666666,0.5304008666666667,0.4850601766666667,-2.8955711,-1.7137561866666673,4.392074466666667
761,1778444553490,2.5848015417728,0.8161492257075201,0.5587531250515201,-2.72727115426688,-0.8983313709045766,3.23126794184704
762,1778444553500,2.4942973,1.1019049,0.63244796,-2.5589669,-0.08288568,2.0704317
763,1778444553510,2.17325611572544,1.1907401620768,0.758675285689088,-2.45995308263936,-0.182697975081024,2.02730844802944
764,1778444553520,1.85222315,1.27957315,0.8848993800000001,-2.3609418,-0.282507715,1.9841863
765,1778444553530,1.53119018427456,1.3684061379232,1.011123474310912,-2.26193051736064,-0.382317454918976,1.94106415197056
766,1778444553540,1.210149,1.4572414,1.1373508,-2.1629167,-0.48212975,1.8979409
767,1778444553550,0.7195400270473686,1.0367776108431823,1.4325739717443062,-2.2026643783516944,-0.2557159592540982,1.932720093557306
768,1778444553560,0.2289436135236843,0.6163245854215912,1.727789585872153,-2.242411039175847,-0.029307964627049,1.9674983967786528
769,1778444553570,-0.2616528,0.19587156,2.0230052,-2.2821577,0.19710003,2.0022767
770,1778444553580,1.2167152,2.3540602,1.6657706,-1.5709709,0.58676225,2.0528562
771,1778444553590,1.5047574118931202,1.972567181951872,1.338634072706048,-0.6288780663660801,0.17394295348064,1.93574310097152
772,1778444553600,1.79279225,1.59108393,1.01150592,0.3131906499999998,-0.2388657749999999,1.818633
773,1778444553610,2.08082708810688,1.2096006780481283,0.6843777672939519,1.2552593663660798,-0.6516745034806398,1.70152289902848
774,1778444553620,2.3688693,0.82810766,0.35724124,2.1973522,-1.0644938,1.5844098
775,1778444553630,2.8272753,2.958787,1.3989283,3.16032,-1.4291455,0.89558077
776,1778444553640,2.905791096656626,2.9635372927969827,1.3398044378634149,3.2902004583392355,-1.4447660333697423,0.7410273722058761
777,1778444553650,2.9843068933132515,2.968287585593965,1.2806805757268298,3.420080916678471,-1.4603865667394846,0.5864739744117521
778,1778444553660,3.0628247,2.973038,1.2215552,3.5499647,-1.4760075,0.43191662
779,1778444553670,3.135153701065818,2.921679690162731,1.0040268875643203,3.5499647,-1.4760075,0.43191662
780,1778444553680,3.207480850532909,2.8703226950813656,0.7865041437821602,3.5499647,-1.4760075,0.43191662
781,1778444553690,3.279808,2.8189657,0.5689814,3.5499647,-1.4760075,0.43191662
782,1778444553700,3.2775935,2.77992725,0.46103732,3.5914948499999997,-1.4706755,-0.0761748899999999
783,1778444553710,3.275379,2.7408888,0.35309324,3.633025,-1.4653435,-0.5842664
784,1778444553720,3.189601675,2.592876075,-0.012967,3.633025,-1.4653435,-0.5842664
785,1778444553730,3.10382435,2.4448633500000003,-0.37902724,3.633025,-1.4653435,-0.5842664
786,1778444553740,2.76419424029024,2.0424629880912963,-0.0710400253141119,3.30550978285888,-1.46174810397952,-0.68234643040832
787,1778444553750,2.42456413058048,1.640062626182592,0.2369471893717761,2.97799456571776,-1.45815270795904,-0.7804264608166399
788,1778444553760,2.08494271529024,1.237672565591296,0.5449265196858881,2.6504877328588803,-1.45455740397952,-0.87850398040832
789,1778444553770,1.7453213,0.835282505,0.85290585,2.3229809,-1.4509621,-0.9765815
790,1778444553780,1.7495713,0.3804628,0.57216394,2.3229809,-1.4509621,-0.9765815
791,1778444553790,1.839868071807898,0.2935372943269058,0.4964955668508632,2.067104960515464,-0.9244309871004628,-1.7245683325412515
792,1778444553800,1.9301625320480256,0.2066140139182735,0.4208291307872842,1.811235571371134,-0.3979133532248842,-2.4725360168646873
793,1778444553810,2.0204569922881532,0.1196907335096412,0.3451626947237053,1.5553661822268043,0.1286042806506942,-3.220503701188123
794,1778444553820,2.110753764096051,0.032765227836547,0.2694943215745685,1.2994902427422683,0.6551353935502314,-3.9684905337293745
795,1778444553830,2.2010505359039487,-0.054160277836547,0.1938259484254316,1.043614303257732,1.181666506449769,-4.716477366270626
796,1778444553840,2.2913449961440766,-0.1410835582451793,0.1181595123618527,0.7877449141134023,1.708184140325347,-5.464445050594062
797,1778444553850,2.381639456384204,-0.2280068386538116,0.0424930762982737,0.5318755249690725,2.2347017742009254,-6.212412734917497
798,1778444553860,2.471936228192102,-0.3149323443269058,-0.033175296850863,0.2759995854845363,2.7612328871004626,-6.960399567458749
799,1778444553870,2.562233,-0.40185785,-0.10884367,0.020123646,3.287764,-7.7083864
800,1778444553880,2.5451198127010675,-0.5081233598560421,-0.1083666257374964,0.122154726656967,3.32556167745569,-7.832239543106317
801,1778444553890,2.528006625402135,-0.6143888697120842,-0.1078895814749929,0.2241858073139341,3.363359354911381,-7.956092686212634
802,1778444553900,2.510893,-0.7206571,-0.107412525,0.3262195,3.401158,-8.079949
803,1778444553910,2.41751320475392,-0.87922807968256,-0.177126909832704,0.3262195,3.401158,-8.079949
804,1778444553920,2.3241358,-1.037795,-0.24683951,0.3262195,3.401158,-8.079949
805,1778444553930,2.070486188006592,-1.150719804544,-0.314960870535424,0.409662624414336,3.4084795687827203,-8.088863135897599
806,1778444553940,1.8168300825,-1.2636475,-0.383083975,0.493107885,3.4158013250000003,-8.0977775
807,1778444553950,1.563173976993408,-1.376575195456,-0.451207079464576,0.5765531455856641,3.42312308121728,-8.1066918641024
808,1778444553960,1.309524365,-1.4895,-0.51932844,0.65999627,3.43044465,-8.115606
809,1778444553970,1.0558747530065922,-1.602424804544,-0.587449800535424,0.743439394414336,3.4377662187827203,-8.1245201358976
810,1778444553980,0.8022186475000003,-1.7153525,-0.655572905,0.8268846550000001,3.4450879750000003,-8.1334345
811,1778444553990,0.5485625419934083,-1.828280195456,-0.7236960094645759,0.910329915585664,3.45240973121728,-8.1423488641024
812,1778444554000,0.29491293,-1.941205,-0.79181737,0.99377304,3.4597313,-8.151263
813,1778444554010,-0.1987274010583067,-2.159601963586467,-0.9456392208440854,0.9956858924121406,3.467606159360408,-7.970382532239698
814,1778444554020,-0.6923803694708468,-2.3780045182067666,-1.0994650095779572,0.9975987937939296,3.475481220319796,-7.78949743388015
815,1778444554030,-1.1860333378833867,-2.5964070728270667,-1.253290798311829,0.9995116951757188,3.483356281279184,-7.608612335520603
816,1778444554040,-1.6796736689416936,-2.814804036413533,-1.4071126491559145,1.0014245475878594,3.491231140639592,-7.427731867760301
817,1778444554050,-2.173314,-3.033201,-1.5609345,1.0033374,3.499106,-7.2468514
818,1778444554060,-2.4758685,-3.1413032999999997,-1.5618238,1.0033374,3.499106,-7.2468514
819,1778444554070,-2.778423,-3.2494056,-1.5627131,1.0033374,3.499106,-7.2468514
820,1778444554080,-3.3096216,-3.3862114,-1.5121045,1.0033374,3.499106,-7.2468514
821,1778444554090,-4.273966,-3.5496905,-1.3683803,1.0033374,3.499106,-7.2468514
822,1778444554100,-3.9892160701650337,-3.4981562269131654,-1.4156818703015668,1.094013840429054,1.7963656701351671,-3.829828241775608
823,1778444554110,-3.704466140330067,-3.4466219538263303,-1.4629834406031337,1.1846902808581083,0.0936253402703346,-0.4128050835512164
824,1778444554120,-3.4197235,-3.395089,-1.5102838,1.2753644,-1.6090714,3.0041306
825,1778444554130,-2.830926482264396,-3.344859723923951,-1.5242351952264737,1.2753644,-1.6090714,3.0041306
826,1778444554140,-2.2421143911321977,-3.2946291619619754,-1.5381869476132368,1.2753644,-1.6090714,3.0041306
827,1778444554150,-1.6533023,-3.2443986,-1.5521387,1.2753644,-1.6090714,3.0041306
828,1778444554160,-0.2413560349999999,-2.000585425,-1.196626135,0.2716692,-1.6843998,6.1198228
829,1778444554170,1.1705902300000002,-0.7567722499999999,-0.8411135700000001,-0.732026,-1.7597282,9.235515
830,1778444554180,1.082855453607389,-1.23277907424749,-0.7725150975606335,-0.997552658958185,-1.7421595400992254,9.502957938580638
831,1778444554190,0.9951206772147784,-1.70878589849498,-0.703916625121267,-1.2630793179163702,-1.7245908801984509,9.770400877161274
832,1778444554200,0.9073881468036946,-2.184780537123745,-0.6353199087803167,-1.5285991794790923,-1.7070226700496127,10.037836969290318
833,1778444554210,0.8196556163926109,-2.6607751757525104,-0.5667231924393666,-1.794119041041815,-1.6894544599007748,10.305273061419362
834,1778444554220,0.73192084,-3.136782,-0.49812472,-2.0596457,-1.6718858,10.572716
835,1778444554230,0.929814893011456,-2.7107322641331844,-0.364374643020928,-1.885108349700512,-1.77269731537088,9.93098948600576
836,1778444554240,1.12770388,-2.2846934350000003,-0.23062799,-1.7105754675,-1.87350625,9.2892794
837,1778444554250,1.325592866988544,-1.858654605866816,-0.0968813369790719,-1.536042585299488,-1.97431518462912,8.64756931399424
838,1778444554260,1.52348692,-1.4326048700000005,0.03686874,-1.361505235,-2.0751267,8.0058428
839,1778444554270,1.721380973011456,-1.0065551341331842,0.170618816979072,-1.186967884700512,-2.17593821537088,7.36411628600576
840,1778444554280,1.91926996,-0.5805163050000002,0.3043654700000001,-1.0124350025000002,-2.27674715,6.7224062
841,1778444554290,2.117158946988544,-0.1544774758668161,0.438112123020928,-0.8379021202994881,-2.37755608462912,6.08069611399424
842,1778444554300,2.315053,0.27157226,0.5718622,-0.66336477,-2.4783676,5.4389696
843,1778444554310,2.2794724,0.3775683,0.5037488,-0.66336477,-2.4783676,5.4389696
844,1778444554320,2.3101214512774417,0.379806944528874,0.4505173378857214,-0.6729064403244948,-2.4421498417125096,5.431142852015102
845,1778444554330,2.3407705025548835,0.382045589057748,0.3972858757714428,-0.6824481106489895,-2.4059320834250193,5.423316104030204
846,1778444554340,2.371420338458081,0.3842842908966555,0.3440530509142911,-0.691990025243371,-2.369713397951049,5.415489155677993
847,1778444554350,2.402070174361279,0.386522992735563,0.2908202260571393,-0.7015319398377527,-2.333494712477078,5.4076622073257825
848,1778444554360,2.432719225638721,0.388761637264437,0.2375887639428607,-0.7110736101622473,-2.2972769541895883,5.399835459340884
849,1778444554370,2.463368276916163,0.391000281793311,0.1843573018285821,-0.7206152804867421,-2.261059195902098,5.392008711355986
850,1778444554380,2.4940181128193606,0.3932389836322185,0.1311244769714304,-0.7301571950811238,-2.2248405104281272,5.384181763003776
851,1778444554390,2.5246679487225583,0.395477685471126,0.0778916521142786,-0.7396991096755053,-2.188621824954157,5.376354814651564
852,1778444554400,2.555317,0.39771633,0.02466019,-0.74924078,-2.1524040666666666,5.368528066666666
853,1778444554410,2.6990926,1.0654299,0.14343537,-1.8307457,-0.9990265,4.3929586
854,1778444554420,2.6020945,1.27608455,0.458518155,-1.86080895,-0.945252875,3.9000253
855,1778444554430,2.5050964,1.4867392,0.77360094,-1.8908722,-0.89147925,3.407092
856,1778444554440,2.279881782784,1.60982639946368,0.814519793731968,-1.72479317583872,-0.854086056139008,3.1855122112576
857,1778444554450,2.054667165568,1.73291359892736,0.855438647463936,-1.55871415167744,-0.816692862278016,2.9639324225152
858,1778444554460,1.829446782784,1.85600394946368,0.896358548731968,-1.39263087583872,-0.7792987111390081,2.7423469612575997
859,1778444554470,1.6042264,1.9790943,0.93727845,-1.2265476,-0.74190456,2.5207615
860,1778444554480,1.4380517,2.0979285,0.97355413,-1.2265476,-0.74190456,2.5207615
861,1778444554490,1.5113162622016,2.3563419422656,1.038749280491392,-1.2265476,-0.74190456,2.5207615
862,1778444554500,1.5845827,2.614762,1.1039461,-1.2265476,-0.74190456,2.5207615
863,1778444554510,1.6704683,2.7272959,1.1110315,-0.60320324,0.30515337,1.9873716
864,1778444554520,2.2806276,1.562481865,0.86182175,-0.60320324,0.30515337,1.9873716
865,1778444554530,1.65360595097984,1.412571851372736,0.37521687862208,-0.1781511957358079,0.1915077096830719,1.60064645014528
866,1778444554540,1.0265682500000002,1.262658,-0.1114004499999999,0.24691173,0.07785914,1.2139114
867,1778444554550,2.2234911954176,1.8056754505344,0.15789967199744,0.24691173,0.07785914,1.2139114
868,1778444554560,3.4203835,2.348679,0.4271929,0.24691173,0.07785914,1.2139114
869,1778444554570,3.32867907383168,2.25474605235712,0.3256951991871999,0.24691173,0.07785914,1.2139114
870,1778444554580,3.2369723,2.1608107,0.2241949,0.24691173,0.07785914,1.2139114
871,1778444554590,2.072298,1.2342287,0.6546855,0.946108065,1.56171192,-2.3292378
872,1778444554600,1.93359372543744,1.1730279833792,0.739916284032,0.214772109970048,1.595045088329984,-2.45433049879296
873,1778444554610,1.79488945087488,1.1118272667584,0.825147068064,-0.5165638450599039,1.628378256659968,-2.57942319758592
874,1778444554620,1.65618162543744,1.0506249833792,0.910380034032,-1.2479185225299518,1.661712278329984,-2.70451909879296
875,1778444554630,1.5174738,0.9894227,0.995613,-1.9792732,1.6950463,-2.829615
876,1778444554640,1.57681635,0.9335802375,1.032857375,-1.9792732,1.6950463,-2.829615
877,1778444554650,1.6361589,0.8777377749999999,1.07010175,-1.9792732,1.6950463,-2.829615
878,1778444554660,1.60347603166464,0.8166915498683199,1.0609203199792,-1.9792732,1.6950463,-2.829615
879,1778444554670,1.57079316332928,0.75564532473664,1.0517388899584,-1.9792732,1.6950463,-2.829615
880,1778444554680,1.53811113166464,0.69460066236832,1.0425576949792,-1.9792732,1.6950463,-2.829615
881,1778444554690,1.5054291,0.633556,1.0333765,-1.9792732,1.6950463,-2.829615
882,1778444554700,1.4687493,0.58776605,0.9821302,-1.9792732,1.6950463,-2.829615
883,1778444554710,1.45072346927232,0.54987567750944,0.920115698724544,-1.33049547075136,1.79326598219584,-3.1901391146496
884,1778444554720,1.4326981,0.511986275,0.858102785,-0.68173435,1.89148315,-3.550654
885,1778444554730,1.41467273072768,0.47409687249056,0.7960898712754559,-0.03297322924864,1.98970031780416,-3.9111688853504
886,1778444554740,1.3966469,0.4362065,0.73407537,0.6158045,2.08792,-4.271693
887,1778444554750,1.4150554688250965,0.3182626614947678,0.670399092897963,0.6503121274748028,2.1179174201995896,-4.3046031376417595
888,1778444554760,1.433463566396863,0.200321842313154,0.6067244458877546,0.6848188715656496,2.1479140724750514,-4.33751243279478
889,1778444554770,1.451871663968629,0.0823810231315402,0.5430497988775462,0.7193256156564964,2.177910724750513,-4.3704217279478
890,1778444554780,1.470280232793726,-0.0355628153736919,0.4793735217755092,0.7538332431312993,2.207908144950103,-4.40333186558956
891,1778444554790,1.4886888016188222,-0.1535066538789241,0.4156972446734722,0.7883408706061021,2.237905565149692,-4.43624200323132
892,1778444554800,1.5070968991905886,-0.2714474730605379,0.3520225976632639,0.8228476146969489,2.2679022174251537,-4.46915129838434
893,1778444554810,1.5255049967623553,-0.3893882922421517,0.2883479506530555,0.8573543587877956,2.2978988697006155,-4.50206059353736
894,1778444554820,1.5439135655874516,-0.5073321307473839,0.2246716735510185,0.8918619862625985,2.327896289900205,-4.53497073117912
895,1778444554830,1.5623221344125482,-0.6252759692526161,0.1609953964489815,0.9263696137374012,2.3578937100997948,-4.56788086882088
896,1778444554840,1.5807302319843146,-0.7432167884342299,0.0973207494387731,0.9608763578282482,2.3878903623752565,-4.6007901639739
897,1778444554850,1.5991383295560813,-0.8611576076158437,0.0336461024285647,0.995383101919095,2.4178870146507183,-4.6336994591269205
898,1778444554860,1.6175468983811776,-0.979101446121076,-0.0300301746734722,1.029890729393898,2.447884434850308,-4.66660959676868
899,1778444554870,1.635955467206274,-1.097045284626308,-0.0937064517755092,1.0643983568687008,2.477881855049897,-4.6995197344104405
900,1778444554880,1.6543635647780406,-1.214986103807922,-0.1573810987857176,1.0989051009595474,2.5078785073253593,-4.73242902956346
901,1778444554890,1.672771662349807,-1.3329269229895355,-0.221055745795926,1.1334118450503945,2.537875159600821,-4.76533832471648
902,1778444554900,1.6911802311749036,-1.4508707614947678,-0.284732022897963,1.1679194725251971,2.5678725798004103,-4.798248462358241
903,1778444554910,1.7095888,-1.5688146,-0.3484083,1.2024271,2.59787,-4.8311586
904,1778444554920,1.647142310511375,-1.6059843104192149,-0.3647561562175662,1.2024271,2.59787,-4.8311586
905,1778444554930,1.5846958210227498,-1.6431540208384297,-0.3811040124351323,1.2024271,2.59787,-4.8311586
906,1778444554940,1.522247732883531,-1.6803246828144112,-0.3974522871631746,1.2024271,2.59787,-4.8311586
907,1778444554950,1.4597996447443125,-1.717495344790393,-0.4138005618912169,1.2024271,2.59787,-4.8311586
908,1778444554960,1.3973531552556877,-1.7546650552096077,-0.430148418108783,1.2024271,2.59787,-4.8311586
909,1778444554970,1.3349066657670623,-1.7918347656288225,-0.4464962743263492,1.2024271,2.59787,-4.8311586
910,1778444554980,1.272458577627844,-1.829005427604804,-0.4628445490543915,1.2024271,2.59787,-4.8311586
911,1778444554990,1.210010489488625,-1.8661760895807853,-0.4791928237824338,1.2024271,2.59787,-4.8311586
912,1778444555000,1.147564,-1.9033458,-0.49554068,1.2024271,2.59787,-4.8311586
913,1778444555010,1.1730747,0.5219086,0.44573933,2.3719373,3.4703603,-8.970521
914,1778444555020,0.8293081658757481,-0.1302717582413868,0.1015272193131025,2.341379787095073,3.3027825440257432,-8.81784863665501
915,1778444555030,0.4855416317514963,-0.7824521164827737,-0.2426848913737948,2.310822274190146,3.1352047880514866,-8.66517627331002
916,1778444555040,0.1417838979378741,-1.4346157791206933,-0.5868881903434486,2.2802655435475363,2.9676313220128714,-8.512507818327505
917,1778444555050,-0.201973835875748,-2.0867794417586127,-0.9310914893131024,2.249708812904927,2.8000578559742566,-8.35983936334499
918,1778444555060,-0.54574037,-2.7389598,-1.2753036,2.2191513,2.6324801,-8.207167
919,1778444555070,-1.1504553670038489,-2.9373169519187283,-1.298430844699924,2.102223871130757,2.386541536035567,-7.83577766170309
920,1778444555080,-1.7551548835019244,-3.135669025959364,-1.321557497349962,1.9852994355653784,2.1406092680177835,-7.464397830851545
921,1778444555090,-2.3598544,-3.3340211,-1.34468415,1.868375,1.894677,-7.093018
922,1778444555100,-2.177944847270023,-2.8149530748114566,-1.1458171436279203,1.806195263287646,1.4653006772427335,-6.120981846477193
923,1778444555110,-1.996035294540046,-2.295885049622913,-0.9469501372558408,1.744015526575292,1.035924354485467,-5.148945692954386
924,1778444555120,-1.8141303986350117,-1.7768303124057283,-0.7480882218139602,1.6818373816438228,0.6065590236213668,-4.176934423238596
925,1778444555130,-1.6322255027299772,-1.2577755751885435,-0.5492263063720798,1.619659236712354,0.1771936927572666,-3.204923153522807
926,1778444555140,-1.4503159500000002,-0.73870755,-0.3503593,1.5574795,-0.25218263,-2.232887
927,1778444555150,-3.8246279,-3.7939508,-1.076103,1.5574795,-0.25218263,-2.232887
928,1778444555160,-0.98299035,-2.08078515,-0.635677815,1.007325515,2.618639685,-4.52774175
929,1778444555170,1.8586472,-0.3676195,-0.19525263,0.45717153,5.489462,-6.8225965
930,1778444555180,0.9189543613904154,-1.4309462736056593,-0.637917330690429,0.45717153,5.489462,-6.8225965
931,1778444555190,-0.0207384772191691,-2.4942730472113186,-1.080582031380858,0.45717153,5.489462,-6.8225965
932,1778444555200,-0.96040726,-3.5575726,-1.5232354,0.45717153,5.489462,-6.8225965
933,1778444555210,-0.0570260912359626,-3.36087760697085,-1.1783690557942792,-0.0112610186488377,3.404562149412909,-1.0024299987797385
934,1778444555220,0.8463782043820187,-3.164177578485425,-0.8334938828971395,-0.4797055593244188,1.3196089247064544,4.8178855006101315
935,1778444555230,1.7497825,-2.96747755,-0.48861871,-0.9481501,-0.7653443,10.638201
936,1778444555240,2.0001477952832003,-1.81960313048064,-0.125961249574912,-1.57841533250176,-0.93860965717504,10.8748164712832
937,1778444555250,2.2505130905664004,-0.6717287109612801,0.2366962108501759,-2.20868056500352,-1.11187501435008,11.1114319425664
938,1778444555260,2.5008847952832003,0.4761750945193598,0.5993629554250879,-2.83896193250176,-1.28514480717504,11.3480534712832
939,1778444555270,2.7512565,1.6240789,0.9620297,-3.4692433,-1.4584146,11.584675
940,1778444555280,3.1443546,-2.002848,-0.2709504,-3.4692433,-1.4584146,11.584675
941,1778444555290,3.17483290987264,-1.80213791912192,-0.052056791874048,-3.4692433,-1.4584146,11.584675
942,1778444555300,3.205312,-1.6014227,0.16684242,-3.4692433,-1.4584146,11.584675
943,1778444555310,2.87086,-1.3624096,0.6402637,0.4161563,-1.3163098,3.455525
944,1778444555320,2.635092,2.303669,-0.18273933,-2.5834713,-3.3125303,8.155958
945,1778444555330,3.3863323,-0.48527268,0.5477982,-2.5834713,-3.3125303,8.155958
946,1778444555340,3.3767555627879995,-0.4385846098431582,0.5702124184128486,-2.478203099357953,-3.1120321484912945,7.685473202461435
947,1778444555350,3.3671788255759987,-0.3918965396863164,0.5926266368256973,-2.372934898715906,-2.9115339969825884,7.214988404922871
948,1778444555360,3.3576023335253327,-0.3452096647287721,0.615040281441899,-2.267669392905302,-2.711040978160863,6.744515651640957
949,1778444555370,3.348025841474667,-0.2985227897712278,0.6374539260581009,-2.1624038870946976,-2.5105479593391373,6.274042898359043
950,1778444555380,3.3384491042626663,-0.251834719614386,0.6598681444709495,-2.057135686452651,-2.3100498078304317,5.803558100820479
951,1778444555390,3.328872367050666,-0.2051466494575442,0.6822823628837982,-1.951867485810604,-2.1095516563217256,5.333073303281914
952,1778444555400,3.319295875,-0.1584597744999999,0.7046960075,-1.84660198,-1.9090586375,4.862600550000001
953,1778444555410,3.309719382949334,-0.1117728995424556,0.7271096521162018,-1.7413364741893955,-1.7085656186782745,4.3921277967180865
954,1778444555420,3.3001426457373335,-0.0650848293856138,0.7495238705290505,-1.6360682735473489,-1.5080674671695686,3.921642999179522
955,1778444555430,3.2905659085253327,-0.018396759228772,0.7719380889418991,-1.530800072905302,-1.307569315660863,3.451158201640957
956,1778444555440,3.280989416474667,0.0282901157287722,0.794351733558101,-1.4255345670946975,-1.1070762968391372,2.9806854483590435
957,1778444555450,3.271412924424001,0.0749769906863165,0.8167653781743027,-1.3202690612840935,-0.9065832780174116,2.5102126950771293
958,1778444555460,3.2618361872120003,0.1216650608431583,0.8391795965871514,-1.2150008606420466,-0.7060851265087059,2.039727897538565
959,1778444555470,3.25225945,0.168353131,0.861593815,-1.10973266,-0.505586975,1.5692431000000002
960,1778444555480,2.7759657,0.3414449,0.91279364,-1.6439081,-1.394553,4.788468
961,1778444555490,2.5263094608543537,0.3939293375874663,0.8539029984131481,-1.6158785783766256,-1.3574711662047307,4.709510680888828
962,1778444555500,2.2766468304271767,0.4464151187937331,0.795010849206574,-1.5878483391883127,-1.3203883831023655,4.6305513404444145
963,1778444555510,2.0269842,0.4989009,0.7361187,-1.5598181,-1.2833056,4.551592
964,1778444555520,2.15349844309696,0.76639606351808,0.704293547367168,-0.81456987679936,-1.29448211943872,3.87980807394432
965,1778444555530,2.28001268619392,1.03389122703616,0.6724683947343361,-0.06932165359872,-1.30565863887744,3.20802414788864
966,1778444555540,2.40653016809696,1.30139323851808,0.640642427367168,0.67594564820064,-1.31683544443872,2.53622302394432
967,1778444555550,2.53304765,1.56889525,0.60881646,1.42121295,-1.32801225,1.8644218999999995
968,1778444555560,2.65956189309696,1.83639041351808,0.576991307367168,2.16646117320064,-1.33918876943872,1.1926379739443198
969,1778444555570,2.78607613619392,2.1038855770361597,0.545166154734336,2.91170939640128,-1.35036528887744,0.5208540478886396
970,1778444555580,2.91259361809696,2.37138758851808,0.513340187367168,3.65697669820064,-1.36154209443872,-0.1509470760556805
971,1778444555590,3.0391111,2.6388896,0.48151422,4.402244,-1.3727189,-0.8227482
972,1778444555600,2.6143415,2.5427516,-0.37987703,4.402244,-1.3727189,-0.8227482
973,1778444555610,2.5748328076236473,2.464060643009523,-0.3713670719051439,3.748379192768884,-1.339540732914633,-1.066903966354917
974,1778444555620,2.5353231038118236,2.3853676715047616,-0.3628568959525719,3.094497646384442,-1.3063617164573165,-1.3110659831774585
975,1778444555630,2.4958134,2.3066747,-0.35434672,2.4406161,-1.2731827,-1.555228
976,1778444555640,2.4872617,1.9974874,0.1523639399999999,2.4406161,-1.2731827,-1.555228
977,1778444555650,2.47871,1.6883001,0.6590746,2.4406161,-1.2731827,-1.555228
978,1778444555660,2.27263418726336,1.60375686786048,0.80316274430464,2.4406161,-1.2731827,-1.555228
979,1778444555670,2.06655837452672,1.51921363572096,0.94725088860928,2.4406161,-1.2731827,-1.555228
980,1778444555680,1.86048783726336,1.43467256786048,1.09133534430464,2.4406161,-1.2731827,-1.555228
981,1778444555690,1.6544173,1.3501315,1.2354198,2.4406161,-1.2731827,-1.555228
982,1778444555700,1.59527996805184,1.26540034045504,1.1199667797202562,2.3228353924262404,-0.776119672674688,-2.3518631968
983,1778444555710,1.53614263610368,1.18066918091008,1.004513759440512,2.20505468485248,-0.2790566453493759,-3.1484983936
984,1778444555720,1.47700681805184,1.09594019045504,0.889063694720256,2.08727699242624,0.2179936573253121,-3.9451131968
985,1778444555730,1.417871,1.0112112,0.77361363,1.9694993,0.71504396,-4.741728
986,1778444555740,1.409763030812882,0.9504329480322216,0.7319842781007442,1.9694993,0.71504396,-4.741728
987,1778444555750,1.4016550616257637,0.8896546960644435,0.6903549262014882,1.9694993,0.71504396,-4.741728
988,1778444555760,1.3935473,0.828878,0.64872664,1.9694993,0.71504396,-4.741728
989,1778444555770,1.3508198,0.69347507,0.5905102,1.9694993,0.71504396,-4.741728
990,1778444555780,1.4322669616735502,0.6355689025403625,0.5238875314938389,1.9269129032673995,0.9639939976797964,-5.034154628675291
991,1778444555790,1.5137141233471003,0.577662735080725,0.4572648629876779,1.8843265065347987,1.212944035359593,-5.326581257350582
992,1778444555800,1.5951592,0.51975805,0.3906439,1.8417412,1.4618877,-5.6190004
993,1778444555810,1.7094,-0.053326025,0.35766834,1.8417412,1.4618877,-5.6190004
994,1778444555820,1.7071134,0.1669412475,0.40235057,1.8417412,1.4618877,-5.6190004
995,1778444555830,1.7048268,0.38720852,0.4470328,1.8417412,1.4618877,-5.6190004
996,1778444555840,2.0360136,0.35297316,0.5548983,1.8417412,1.4618877,-5.6190004
