id;timestamp;acc_x;acc_y;acc_z;gyro_x;gyro_y;gyro_z
0;2026-05-10 20:22:58.860;1,8789333;-0,43910488;0,2570118;1,0829419;0,7564082;-0,34533083
1;2026-05-10 20:22:58.870;2,017133291916339;-0,2935056481382491;0,24327569557348513;1,0829419;0,7564082;-0,34533083
2;2026-05-10 20:22:58.880;2,1553297459581695;-0,14791014356912455;0,22953994278674256;1,0829419;0,7564082;-0,34533083
3;2026-05-10 20:22:58.890;2,2935262;-0,002314639;0,21580419;1,0829419;0,7564082;-0,34533083
4;2026-05-10 20:22:58.900;2,2273691688005597;0,053405732807753355;0,3262042687352801;0,2099265836979895;0,3383575660135851;1,4986542818048776
5;2026-05-10 20:22:58.910;2,1612121376011197;0,10912610461550672;0,4366043474705601;-0,663088732604021;-0,07969306797282988;3,342639393609755
6;2026-05-10 20:22:58.920;2,0950568;0,16484505;0,5470016;-1,5360817;-0,497733;5,1865773
7;2026-05-10 20:22:58.930;2,16641478660608;0,7035330297055999;0,501997061065472;-0,045336581781759804;-0,56613157448704;4,69232382652544
8;2026-05-10 20:22:58.940;2,2377746;1,2422348;0,45699137;1,4454467;-0,6345319;4,1980577
9;2026-05-10 20:22:58.950;2,322889;1,509172;-0,013985456;1,4454467;-0,6345319;4,1980577
10;2026-05-10 20:22:58.960;2,326261051670169;1,5245150396423444;-0,02957148136029249;1,404119376360467;-0,57825203344683;4,161955211016158
11;2026-05-10 20:22:58.970;2,3296331033403384;1,5398580792846885;-0,04515750672058498;1,362792052720934;-0,5219721668936599;4,125852722032317
12;2026-05-10 20:22:58.980;2,3330052413361355;1,5552015117138756;-0,06074393108823399;1,3214636710883736;-0,4656908595574639;4,089749308812927
13;2026-05-10 20:22:58.990;2,3363773793319322;1,5705449441430623;-0,076330355455883;1,2801352894558131;-0,40940955222126807;4,053645895593537
14;2026-05-10 20:22:59.000;2,3397494310021014;1,5858879837854065;-0,09191638081617548;1,2388079658162803;-0,35312968566809794;4,017543406609695
15;2026-05-10 20:22:59.010;2,3431214826722706;1,601231023427751;-0,10750240617646797;1,1974806421767472;-0,29684981911492786;3,981440917625853
16;2026-05-10 20:22:59.020;2,3464936206680678;1,6165744558569377;-0,12308883054411698;1,1561522605441867;-0,24056851177873195;3,945337504406463
17;2026-05-10 20:22:59.030;2,3498657586638645;1,6319178882861245;-0,138675254911766;1,1148238789116263;-0,18428720444253607;3,9092340911870735
18;2026-05-10 20:22:59.040;2,3532378103340337;1,647260927928469;-0,1542612802720585;1,0734965552720934;-0,12800733788936597;3,8731316022032316
19;2026-05-10 20:22:59.050;2,356609862004203;1,6626039675708133;-0,16984730563235098;1,0321692316325604;-0,07172747133619585;3,83702911321939
20;2026-05-10 20:22:59.060;2,359982;1,6779474;-0,18543373;0,99084085;-0,015446164;3,8009257
21;2026-05-10 20:22:59.070;2,38950252785792;1,88142385446528;-0,143570539158016;0,47687845036549115;0,1591500728032256;3,4112584623232
22;2026-05-10 20:22:59.080;2,4190223;2,0848951;-0,10170842;-0,037070792;0,33374184;3,0216012
23;2026-05-10 20:22:59.090;2,3599432437216;2,04202431125312;-0,08835573046661375;-0,1326219786791552;0,356099223821824;2,28806835184064
24;2026-05-10 20:22:59.100;2,300862675;1,999152425;-0,0750026991;-0,22817561150000001;0,37845718;1,554516725
25;2026-05-10 20:22:59.110;2,2417821062784;1,9562805387468798;-0,06164966773338624;-0,3237292443208448;0,40081513617817605;0,82096509815936
26;2026-05-10 20:22:59.120;2,1827030499999998;1,9134097499999998;-0,0482969782;-0,419280431;0,42317252;0,08743225000000007
27;2026-05-10 20:22:59.130;2,1236239937216;1,87053896125312;-0,03494428866661376;-0,5148316176791552;0,445529903821824;-0,6461005981593599
28;2026-05-10 20:22:59.140;2,064543425;1,827667075;-0,0215912573;-0,6103852505;0,46788786000000004;-1,3796522249999998
29;2026-05-10 20:22:59.150;2,0054628562784;1,78479518874688;-0,00823822593338624;-0,7059388833208449;0,49024581617817603;-2,1132038518406397
30;2026-05-10 20:22:59.160;1,9463838;1,7419244;0,0051144636;-0,80149007;0,5126032;-2,8467367
31;2026-05-10 20:22:59.170;1,9412057829461333;1,6194756340309333;0,006565609258431146;-0,6767500811922944;0,5850857955442347;-3,0897386395353603
32;2026-05-10 20:22:59.180;1,9360276333333333;1,4970237333333334;0,008016792066666665;-0,552006899;0,6575702466666666;-3,3327468000000002
33;2026-05-10 20:22:59.190;1,9308494837205334;1,3745718326357335;0,009467974874902186;-0,4272637168077056;0,7300546977890987;-3,57575496046464
34;2026-05-10 20:22:59.200;1,9256714666666668;1,2521230666666667;0,010919120533333332;-0,302523728;0,8025372933333333;-3,8187569
35;2026-05-10 20:22:59.210;1,9204934496128;1,1296743006976;0,012370266191764479;-0,17778373919229437;0,875019888877568;-4,06175883953536
36;2026-05-10 20:22:59.220;1,9153153;1,0072224;0,013821449;-0,053040557;0,94750434;-4,304767
37;2026-05-10 20:22:59.230;1,9183092706578673;0,9495344692831507;0,0406022254316405;-0,07901830160869988;1,000845638207902;-4,4136836552922745
38;2026-05-10 20:22:59.240;1,9213031646710665;0,8918480153584247;0,06738231628417976;-0,10499538119565006;1,0541855708960488;-4,522597522353863
39;2026-05-10 20:22:59.250;1,9242970586842658;0,8341615614336987;0,09416240713671901;-0,13097246078260025;1,1075255035841955;-4,631511389415451
40;2026-05-10 20:22:59.260;1,9272910293421328;0,7764736307168494;0,12094318356835951;-0,15695020539130014;1,1608668017920978;-4,740428044707725
41;2026-05-10 20:22:59.270;1,930285;0,7187857;0,14772396;-0,18292795;1,2142081;-4,8493447
42;2026-05-10 20:22:59.280;1,9576281;0,571765615;0,15243719;-0,18292795;1,2142081;-4,8493447
43;2026-05-10 20:22:59.290;1,9849712;0,42474553;0,15715042;-0,18292795;1,2142081;-4,8493447
44;2026-05-10 20:22:59.300;1,9343948026303999;0,30900599755294716;0,12208943772517121;-0,03267935934265601;1,30976174807104;-5,28944825825344
45;2026-05-10 20:22:59.310;1,8838184052608;0,1932664651058944;0,0870284554503424;0,11756923131468798;1,40531539614208;-5,72955181650688
46;2026-05-10 20:22:59.320;1,8332433026304;0,07752989555294722;0,051968370725171194;0,267813975657344;1,50086659807104;-6,16964410825344
47;2026-05-10 20:22:59.330;1,7826682;-0,038206674;0,016908286;0,41805872;1,5964178;-6,6097364
48;2026-05-10 20:22:59.340;1,0317647;-0,7402451;-0,083112225;0,41805872;1,5964178;-6,6097364
49;2026-05-10 20:22:59.350;0,9313240993767681;-0,786991948352;-0,110380601530752;0,788561952380672;1,129832947790336;-7,13860396941824
50;2026-05-10 20:22:59.360;0,83088607;-0,8337376;-0,13764828;1,1590557;0,66326004;-7,667458
51;2026-05-10 20:22:59.370;0,7555046;-0,86337006;-0,1997794;1,1590557;0,66326004;-7,667458
52;2026-05-10 20:22:59.380;1,4389175;2,3841171;-0,28767517;1,1425449;0,14475761;-7,506172
53;2026-05-10 20:22:59.390;0,724877680407296;1,036892173241664;0,032942551354303955;1,1425449;0,14475761;-7,506172
54;2026-05-10 20:22:59.400;0,010856140000000014;-0,310298265;0,35355206499999997;1,1425449;0,14475761;-7,506172
55;2026-05-10 20:22:59.410;0,12509885;-1,0309789;-0,044207554;1,1425449;0,14475761;-7,506172
56;2026-05-10 20:22:59.420;-0,022353692;-1,0464178;0,058717243;1,1425449;0,14475761;-7,506172
57;2026-05-10 20:22:59.430;-0,096873129782126;-1,0547566089805183;0,09669743352028809;1,1425449;0,14475761;-7,506172
58;2026-05-10 20:22:59.440;-0,171390659891063;-1,0630952044902593;0,13467665176014404;1,1425449;0,14475761;-7,506172
59;2026-05-10 20:22:59.450;-0,24590819;-1,0714338;0,17265587;1,1425449;0,14475761;-7,506172
60;2026-05-10 20:22:59.460;-0,290524775;-1,1311624;0,15014499499999998;0,723604785;0,34384732500000004;-6,6347555
61;2026-05-10 20:22:59.470;-0,33514136;-1,190891;0,12763412;0,30466467;0,54293704;-5,763339
62;2026-05-10 20:22:59.480;-0,339356658543488;-1,2103733756224;0,10276329885058559;0,30466467;0,54293704;-5,763339
63;2026-05-10 20:22:59.490;-0,343571957086976;-1,2298557512448;0,07789247770117119;0,30466467;0,54293704;-5,763339
64;2026-05-10 20:22:59.500;-0,347787363543488;-1,2493386256224;0,0530210198505856;0,30466467;0,54293704;-5,763339
65;2026-05-10 20:22:59.510;-0,35200277;-1,2688215;0,028149562;0,30466467;0,54293704;-5,763339
66;2026-05-10 20:22:59.520;-0,3486344040991161;-1,293291231528652;0,005604357641979691;0,28702457068242415;0,6392881343058913;-5,718245151893123
67;2026-05-10 20:22:59.530;-0,34526603819823215;-1,317760963057304;-0,016940846716040618;0,2693844713648482;0,7356392286117825;-5,673151303786247
68;2026-05-10 20:22:59.540;-0,3418975860660774;-1,3422313210191013;-0,0394866282386802;0,2517439204549494;0,8319927895372609;-5,628056301262082
69;2026-05-10 20:22:59.550;-0,33852913393392264;-1,3667016789808988;-0,06203240976131978;0,2341033695450506;0,9283463504627391;-5,582961298737918
70;2026-05-10 20:22:59.560;-0,33516076803303874;-1,3911714105095507;-0,08457761411934009;0,2164632702274747;1,0246974447686303;-5,537867450631041
71;2026-05-10 20:22:59.570;-0,3317924021321548;-1,4156411420382025;-0,1071228184773604;0,1988231709098988;1,1210485390745217;-5,4927736025241645
72;2026-05-10 20:22:59.580;-0,32842395;-1,4401115;-0,1296686;0,18118262;1,2174021;-5,4476786
73;2026-05-10 20:22:59.590;-0,3207332;-1,5130612;-0,17877583;0,04597197;1,6975596;-5,5253983
74;2026-05-10 20:22:59.600;-0,34417290997858124;-0,8663787850939098;0,15270380467091055;0,2592493933426916;1,756469797293215;-5,3523911763463525
75;2026-05-10 20:22:59.610;-0,3676126199571625;-0,2196963701878194;0,4841834393418211;0,47252681668538316;1,8153799945864302;-5,179384052692705
76;2026-05-10 20:22:59.620;-0,39105293;0,4270026;0,81567156;0,6858097;1,8742917;-5,0063725
77;2026-05-10 20:22:59.630;-2,7005384;-1,8050542;-0,10398303;0,6858097;1,8742917;-5,0063725
78;2026-05-10 20:22:59.640;-2,80855404238208;-1,7530472406976;-0,205255251198976;0,81875407329024;1,6048031994969598;-3,9813929449062404
79;2026-05-10 20:22:59.650;-2,91656968476416;-1,7010402813952001;-0,30652747239795197;0,9516984465804801;1,33531469899392;-2,9564133898124805
80;2026-05-10 20:22:59.660;-3,0245880923820803;-1,6490319906976;-0,40780228619897596;1,08464622329024;1,06581929949696;-1,9314075949062404
81;2026-05-10 20:22:59.670;-3,1326065;-1,5970237;-0,5090771;1,217594;0,7963239;-0,9064018
82;2026-05-10 20:22:59.680;-3,14968965;-1,5949297;-0,58649985;1,217594;0,7963239;-0,9064018
83;2026-05-10 20:22:59.690;-3,1667728;-1,5928357;-0,6639226;1,217594;0,7963239;-0,9064018
84;2026-05-10 20:22:59.700;-2,983430552785092;-1,6254048816115902;-0,5049513787380686;0,8863368513966603;0,46643310924450876;0,3856397753604108
85;2026-05-10 20:22:59.710;-2,800088305570184;-1,6579740632231803;-0,3459801574761372;0,5550797027933205;0,1365423184890176;1,6776813507208215
86;2026-05-10 20:22:59.720;-2,616750751856728;-1,6905424110743934;-0,1870130058253791;0,2238310342644401;-0,1933400271703275;2,969689850240274
87;2026-05-10 20:22:59.730;-2,433413198143272;-1,7231107589256065;-0,02804585417462098;-0,10741763426444037;-0,5232223728296725;4,261698349759726
88;2026-05-10 20:22:59.740;-2,250070950928364;-1,7556799405371968;0,13092536708731042;-0,4386747828677801;-0,8531131635851638;5,553739925120137
89;2026-05-10 20:22:59.750;-2,066728703713456;-1,7882491221487868;0,2898965883492418;-0,7699319314711198;-1,183003954340655;6,845781500480547
90;2026-05-10 20:22:59.760;-1,88339115;-1,82081747;0,44886374;-1,1011806;-1,5128863;8,13779
91;2026-05-10 20:22:59.770;-1,1806064582592;-1,513920613330048;0,4253782906176;-0,8183972441732864;-1,7328691591833598;7,61212087865088
92;2026-05-10 20:22:59.780;-0,47780377499999993;-1,2070159;0,40189224;-0,535606649;-1,95285765;7,0864383
93;2026-05-10 20:22:59.790;0,22499890825920013;-0,9001111866699522;0,3784061893824;-0,2528160538267136;-2,17284614081664;6,56075572134912
94;2026-05-10 20:22:59.800;0,9277836;-0,59321433;0,35492074;0,029967302;-2,392829;6,0350866
95;2026-05-10 20:22:59.810;1,1222379812694132;-0,5291149206439226;0,24936940809912278;0,3333934361276923;-2,064741766093798;6,202769204846913
96;2026-05-10 20:22:59.820;1,3166973406347067;-0,4650138703219613;0,14381537404956138;0,6368273380638462;-1,736646133046899;6,370456102423456
97;2026-05-10 20:22:59.830;1,5111567;-0,40091282;0,03826134;0,94026124;-1,4085505;6,538143
98;2026-05-10 20:22:59.840;1,5538416229007945;-0,36249801937259357;0,023316794234107475;0,94026124;-1,4085505;6,538143
99;2026-05-10 20:22:59.850;1,5965265458015891;-0,3240832187451872;0,008372248468214953;0,94026124;-1,4085505;6,538143
100;2026-05-10 20:22:59.860;1,6392125614503974;-0,2856674346862968;-0,006572679882946266;0,94026124;-1,4085505;6,538143
101;2026-05-10 20:22:59.870;1,6818985770992054;-0,2472516506274064;-0,021517608234107487;0,94026124;-1,4085505;6,538143
102;2026-05-10 20:22:59.880;1,7245835;-0,20883685;-0,036462154;0,94026124;-1,4085505;6,538143
103;2026-05-10 20:22:59.890;1,74475835;-0,523496415;-0,396231355;-1,6281652;-0,09688323;-3,2512865
104;2026-05-10 20:22:59.900;2,210502675;0,025957692500000015;-0,5662355275000001;0,08909035000000008;-0,697616865;1,6066977499999997
105;2026-05-10 20:22:59.910;2,676247;0,5754118;-0,7362397;1,8063459;-1,2983505;6,464682
106;2026-05-10 20:22:59.920;2,4533518;0,8348461500000001;-0,593029825;1,3150183;0,0045029499999999735;-0,4848175000000004
107;2026-05-10 20:22:59.930;2,2304566;1,0942805;-0,44981995;0,8236907;1,3073564;-7,434317
108;2026-05-10 20:22:59.940;1,9724491;1,5778115;-0,010031729;0,8236907;1,3073564;-7,434317
109;2026-05-10 20:22:59.950;2,1307828688617336;1,7915435809808256;-0,38453157738226934;0,632748417960098;0,8234672217303967;-4,873793910965295
110;2026-05-10 20:22:59.960;2,289112584430867;2,0052701904904127;-0,7590218386911346;0,44181102398004907;0,3395904308651983;-2,3133363704826477
111;2026-05-10 20:22:59.970;2,4474423;2,2189968;-1,1335121;0,25087363;-0,14428636;0,24712117
112;2026-05-10 20:22:59.980;2,1297154000000003;2,30889825;-0,7160736999999999;-0,7120681850000001;-0,143474785;1,475737035
113;2026-05-10 20:22:59.990;1,8119885;2,3987997;-0,2986353;-1,67501;-0,14266321;2,7043529
114;2026-05-10 20:23:00.000;1,8000435167694935;2,3868782272258326;-0,3041351050156526;-1,5137196553224328;-0,15346294079572262;2,448954185696047
115;2026-05-10 20:23:00.010;1,788098533538987;2,374956754451665;-0,30963491003130517;-1,3524293106448653;-0,1642626715914452;2,1935554713920937
116;2026-05-10 20:23:00.020;1,7761532445129957;2,3630349764838887;-0,3151348558437684;-1,191134836881622;-0,17506267886381507;1,9381502187973647
117;2026-05-10 20:23:00.030;1,7642079554870043;2,351113198516112;-0,3206348016562316;-1,0298403631183783;-0,18586268613618495;1,6827449662026353
118;2026-05-10 20:23:00.040;1,7522629722564977;2,3391917257419443;-0,3261346066718842;-0,868550018440811;-0,19666241693190753;1,4273462518986824
119;2026-05-10 20:23:00.050;1,7403179890259914;2,327270252967777;-0,33163441168753677;-0,7072596737632436;-0,20746214772763014;1,1719475375947292
120;2026-05-10 20:23:00.060;1,7283727;2,3153484750000004;-0,3371343575;-0,5459652000000002;-0,218262155;0,916542285
121;2026-05-10 20:23:00.070;1,7164274109740085;2,3034266970322235;-0,3426343033124632;-0,3846707262367567;-0,22906216227236986;0,6611370324052707
122;2026-05-10 20:23:00.080;1,7044824277435022;2,291505224258056;-0,34813410832811575;-0,2233803815591893;-0,23986189306809247;0,40573831810131766
123;2026-05-10 20:23:00.090;1,6925374445129957;2,2795837514838886;-0,35363391334376837;-0,0620900368816219;-0,2506616238638151;0,15033960379736463
124;2026-05-10 20:23:00.100;1,6805921554870042;2,2676619735161117;-0,3591338591562316;0,09920443688162155;-0,2614616311361849;-0,10506564879736469
125;2026-05-10 20:23:00.110;1,668646866461013;2,255740195548335;-0,3646338049686948;0,26049891064486497;-0,27226163840855483;-0,360470901392094
126;2026-05-10 20:23:00.120;1,6567018832305065;2,2438187227741677;-0,37013360998434736;0,4217892553224324;-0,2830613692042774;-0,615869615696047
127;2026-05-10 20:23:00.130;1,6447569;2,2318972500000003;-0,37563341499999997;0,5830796;-0,2938611;-0,87126833
128;2026-05-10 20:23:00.140;1,64464295;2,4936342750000002;-0,6260483574999999;0,20806070000000002;-0,42853943;-1,181081765
129;2026-05-10 20:23:00.150;1,644529;2,7553713;-0,8764633;-0,1669582;-0,56321776;-1,4908952
130;2026-05-10 20:23:00.160;1,6421994198793382;2,637576938524751;-0,8182889964270781;-0,6618420769368616;-0,568186080936452;-1,8528733777466784
131;2026-05-10 20:23:00.170;1,6398698397586762;2,519782577049502;-0,7601146928541562;-1,1567259538737231;-0,573154401872904;-2,214851555493357
132;2026-05-10 20:23:00.180;1,6375402;2,4019852;-0,7019389;-1,6516225;-0,57812285;-2,576839
133;2026-05-10 20:23:00.190;1,6253477451508602;2,328825330852529;-0,6500239803980278;-1,69718652656966;-0,5585330794033168;-2,613889239389595
134;2026-05-10 20:23:00.200;1,6131556024245697;2,2556673345737357;-0,5981103898009861;-1,74274938671517;-0,5389438102983416;-2,6509385303052024
135;2026-05-10 20:23:00.210;1,6009634596982791;2,182509338294942;-0,5461967992039445;-1,78831224686068;-0,5193545411933665;-2,6879878212208097
136;2026-05-10 20:23:00.220;1,5887710048491397;2,109349469147471;-0,49428187960197223;-1,83387627343034;-0,4997647705966833;-2,7250380606104048
137;2026-05-10 20:23:00.230;1,57657855;2,0361896;-0,44236696;-1,8794403;-0,480175;-2,7620883
138;2026-05-10 20:23:00.240;1,57157887649664;1,94526446385664;-0,378912027233536;-1,95104155849216;-0,439186464659968;-2,8672212042816
139;2026-05-10 20:23:00.250;1,5665792029932801;1,85433932771328;-0,315457094467072;-2,02264281698432;-0,39819792931993603;-2,9723541085632
140;2026-05-10 20:23:00.260;1,56157940149664;1,76341186385664;-0,252000537233536;-2,09424590849216;-0,357208344659968;-3,0774897042816
141;2026-05-10 20:23:00.270;1,5565796;1,6724844;-0,18854398;-2,165849;-0,31621876;-3,1826253
142;2026-05-10 20:23:00.280;1,62280442731136;1,43648062088704;-0,162202974669184;-2,1586583420416;-0,34043925247372797;-3,2940151741913604
143;2026-05-10 20:23:00.290;1,6890292546227201;1,20047684177408;-0,135861969338368;-2,1514676840832;-0,364659744947456;-3,40540504838272
144;2026-05-10 20:23:00.300;1,75525577731136;0,9644670208870401;-0,109520289669184;-2,1442768420416;-0,38888085747372797;-3,5167977741913603
145;2026-05-10 20:23:00.310;1,8214823;0,7284572;-0,08317861;-2,137086;-0,41310197;-3,6281905
146;2026-05-10 20:23:00.320;1,72980944842752;0,9782146280640001;-0,231628932311552;-1,99349518798592;-0,09131974636518402;-4,11672369669504
147;2026-05-10 20:23:00.330;1,63813659685504;1,227972056128;-0,380079254623104;-1,84990437597184;0,23046247726963195;-4,60525689339008
148;2026-05-10 20:23:00.340;1,54646139842752;1,477735878064;-0,5285333773115519;-1,7063098879859202;0,552252938634816;-5,093802596695039
149;2026-05-10 20:23:00.350;1,4547862;1,7274997;-0,6769875;-1,5627154;0,8740434;-5,5823483
150;2026-05-10 20:23:00.360;1,2431095;-0,38552257;-0,016005274;-1,5627154;0,8740434;-5,5823483
151;2026-05-10 20:23:00.370;1,1590616508262401;-0,450422421771264;-0,025555600254259198;-1,258495326566784;1,0989480211840001;-5,87020179042816
152;2026-05-10 20:23:00.380;1,07501165;-0,515323935;-0,035106171;-0,954267465;1,3238584;-6,15806265
153;2026-05-10 20:23:00.390;0,9909616491737601;-0,580225448228736;-0,044656741745740795;-0,650039603433216;1,548768778816;-6,4459235095718395
154;2026-05-10 20:23:00.400;0,9069138;-0,6451253;-0,054207068;-0,34581953;1,7736734;-6,733777
155;2026-05-10 20:23:00.410;0,7124919;-0,7825305;-0,1189125;-0,34581953;1,7736734;-6,733777
156;2026-05-10 20:23:00.420;0,656163986007953;-0,8207879264591939;-0,18257357656756665;-0,3113955262522613;1,6633036581902585;-6,636183167209953
157;2026-05-10 20:23:00.430;0,599836072015906;-0,8590453529183876;-0,2462346531351333;-0,27697152250452267;1,5529339163805167;-6,538589334419906
158;2026-05-10 20:23:00.440;0,5435096;-0,8973018;-0,3098941;-0,2425484;1,442567;-6,440998
159;2026-05-10 20:23:00.450;0,30246931785510406;-0,604837388592384;-0,060329729464832005;-0,342100715714048;1,3930613836799999;-6,3656704642048
160;2026-05-10 20:23:00.460;0,06142286500000002;-0,31236549;0,18924103;-0,44165558;1,3435545;-6,290341
161;2026-05-10 20:23:00.470;-0,6511124842685843;-0,875630059755367;0,15633806327793337;-0,6041159875732798;1,3447273720100557;-6,0779392250336635
162;2026-05-10 20:23:00.480;-1,3636295928657078;-1,4388802101223164;0,12343593886103332;-0,7665722362133601;1,3459002139949723;-5,865542887483167
163;2026-05-10 20:23:00.490;-2,0761467014628314;-2,0021303604892657;0,09053381444413326;-0,9290284848534404;1,3470730559798887;-5,653146549932672
164;2026-05-10 20:23:00.500;-2,7886820507314156;-2,565394930244633;0,057630847722066635;-1,09148889242672;1,3482459279899444;-5,440744774966336
165;2026-05-10 20:23:00.510;-3,5012174;-3,1286595;0,024727881;-1,2539493;1,3494188;-5,228343
166;2026-05-10 20:23:00.520;1,4906187;1,1863681;0,32856843;-1,8390185;-1,457542;3,5730903
167;2026-05-10 20:23:00.530;1,1760308807249291;0,9467757201691459;0,32444829783579404;-1,5824079102325252;-1,2999113441556354;3,658407169257073
168;2026-05-10 20:23:00.540;0,8614350078985993;0,7071772066948576;0,3203280601948546;-1,3257907511498652;-1,142276652914828;3,7437262226539567
169;2026-05-10 20:23:00.550;0,5468391350722694;0,4675786932205693;0,3162078225539151;-1,0691735920672052;-0,9846419616740207;3,8290452760508398
170;2026-05-10 20:23:00.560;0,23225131579719857;0,22798631338971526;0,3120876903897091;-0,8125630022997304;-0,8270113058296562;3,9143621453079134
171;2026-05-10 20:23:00.570;-0,08233650347787233;-0,011606066441138764;0,3079675582255032;-0,5559524125322558;-0,6693806499852916;3,9996790145649865
172;2026-05-10 20:23:00.580;-0,39693237630420214;-0,2512045799154271;0,3038473205845637;-0,2993352534495958;-0,5117459587444844;4,08499806796187
173;2026-05-10 20:23:00.590;-0,7115282491305319;-0,4908030933897154;0,29972708294362427;-0,042718094366935765;-0,35411126750367705;4,170317121358753
174;2026-05-10 20:23:00.600;-1,0261160684056028;-0,7303954732205694;0,2956069507794183;0,21389249540053895;-0,1964806116593125;4,255633990615826
175;2026-05-10 20:23:00.610;-1,3407038876806736;-0,9699878530514234;0,2914868186152123;0,47050308516801365;-0,03884995581494792;4,340950859872899
176;2026-05-10 20:23:00.620;-1,6552997605070034;-1,2095863665257118;0,28736658097427287;0,7271202442506737;0,11878473542585935;4,426269913269783
177;2026-05-10 20:23:00.630;-1,9698956333333335;-1,44918488;0,2832463433333334;0,9837374033333334;0,2764194266666667;4,511588966666666
178;2026-05-10 20:23:00.640;0,6051058;-1,3507446;-0,4653723;0,4579744;0,5706179;8,770192
179;2026-05-10 20:23:00.650;0,69606646068864;-1,25420926066816;-0,3284486536451072;-0,22431846653951995;0,36807504258176;8,55673230731904
180;2026-05-10 20:23:00.660;0,78702945;-1,15767145;-0,19152150200000004;-0,9066287999999999;0,16552699999999998;8,343267149999999
181;2026-05-10 20:23:00.670;0,8779924393113601;-1,06113363933184;-0,05459435035489283;-1,5889391334604799;-0,037021042581760054;8,12980199268096
182;2026-05-10 20:23:00.680;0,9689531;-0,9645983;0,082329296;-2,271232;-0,2395639;7,9163423
183;2026-05-10 20:23:00.690;0,9715924549544322;-0,9552653459511213;0,08844494095832338;-2,271232;-0,2395639;7,9163423
184;2026-05-10 20:23:00.700;0,9742318774772161;-0,9459321529755607;0,09456074247916169;-2,271232;-0,2395639;7,9163423
185;2026-05-10 20:23:00.710;0,9768713;-0,93659896;0,100676544;-2,271232;-0,2395639;7,9163423
186;2026-05-10 20:23:00.720;0,9340876;-0,8612785049999999;0,18324356200000003;-1,9574305;-0,6183090499999999;7,75158315
187;2026-05-10 20:23:00.730;0,8913039;-0,78595805;0,26581058;-1,643629;-0,9970542;7,586824
188;2026-05-10 20:23:00.740;0,93966335;-0,74464455;0,302806705;-1,643629;-0,9970542;7,586824
189;2026-05-10 20:23:00.750;0,9880228;-0,70333105;0,33980283;-1,643629;-0,9970542;7,586824
190;2026-05-10 20:23:00.760;1,3453117266432;-0,664902044397568;0,771194850611456;-1,56324885387904;-0,96471803890816;7,5930809199104
191;2026-05-10 20:23:00.770;1,7026006532864;-0,6264730387951359;1,202586871222912;-1,48286870775808;-0,93238187781632;7,5993378398208
192;2026-05-10 20:23:00.780;2,0598987266432;-0,588043049397568;1,633989935611456;-1,40248650387904;-0,90004488890816;7,6055949199104
193;2026-05-10 20:23:00.790;2,4171968;-0,54961306;2,065393;-1,3221043;-0,8677079;7,611852
194;2026-05-10 20:23:00.800;2,4142810915476973;-0,48019041241417565;2,24315461641479;-3,473570840583853;0,19870243318200828;7,705715065691587
195;2026-05-10 20:23:00.810;2,4113653830953945;-0,41076776482835126;2,42091623282958;-5,625037381167705;1,2651127663640165;7,799578131383174
196;2026-05-10 20:23:00.820;2,4084496;-0,34134334;2,5986824;-7,776559;2,3315504;7,8934436
197;2026-05-10 20:23:00.830;2,34214355129344;-0,11001560404288;2,6592289249856;-7,5592322182528;2,25555777730688;7,77992592199232
198;2026-05-10 20:23:00.840;2,2758392;0,12130621;2,7197739;-7,3419110000000005;2,1795671;7,66641115
199;2026-05-10 20:23:00.850;2,2095348487065603;0,35262802404288;2,7803188750144003;-7,124589781747201;2,10357642269312;7,55289637800768
200;2026-05-10 20:23:00.860;2,1432288;0,58395576;2,8408654;-6,907263;2,0275838;7,4393787
201;2026-05-10 20:23:00.870;1,774810710975488;0,5546208445178881;2,5045843706579203;-6,31247332012288;2,3040416719488;6,84582825265152
202;2026-05-10 20:23:00.880;1,4064020533333335;0,52528668;2,16831195;-5,717698866666667;2,5804924666666667;6,252293
203;2026-05-10 20:23:00.890;1,0379933956911787;0,495952515482112;1,8320395293420801;-5,122924413210454;2,8569432613845334;5,65875774734848
204;2026-05-10 20:23:00.900;0,6695753066666668;0,4666176;1,4957585;-4,528134733333333;3,1334011333333334;5,0652073
205;2026-05-10 20:23:00.910;0,3011572176421547;0,437282684517888;1,15947747065792;-3,9333450534562138;3,4098590052821334;4,4716568526515195
206;2026-05-10 20:23:00.920;-0,06725144;0,40794852;0,82320505;-3,3385706;3,6863098;3,8781216
207;2026-05-10 20:23:00.930;0,30935532937164795;0,508884917997568;1,1993076108256;-3,3385706;3,6863098;3,8781216
208;2026-05-10 20:23:00.940;0,68597174;0,6098239;1,5754198;-3,3385706;3,6863098;3,8781216
209;2026-05-10 20:23:00.950;0,6329036907376641;0,592009441977856;1,56504771723904;-1,326075455391872;2,6323007588569602;-1,55591710480512
210;2026-05-10 20:23:00.960;0,579837;0,57419544;1,5546759;0,68636817;1,5783187;-6,9898167
211;2026-05-10 20:23:00.970;0,56166768257024;0,548490199031296;1,6130878523174401;0,68636817;1,5783187;-6,9898167
212;2026-05-10 20:23:00.980;0,5434979;0,5227843;1,6715013;0,68636817;1,5783187;-6,9898167
213;2026-05-10 20:23:00.990;0,6026043754042684;0,4700159427648971;1,798507234206866;0,24736965452123535;1,6099038723800423;-3,7991898806659443
214;2026-05-10 20:23:01.000;0,6617093377021342;0,4172489363824486;1,925509917103433;-0,19161762273938232;1,6414882361900212;-0,6086447403329723
215;2026-05-10 20:23:01.010;0,7208143;0,36448193;2,0525126;-0,6306049;1,6730726;2,5819004
216;2026-05-10 20:23:01.020;0,93126;0,2835545;2,1380088;-0,23511331;2,1478894;2,3561945
217;2026-05-10 20:23:01.030;0,965127253495296;0,252160038156032;2,1675684283584;-0,23511331;2,1478894;2,3561945
218;2026-05-10 20:23:01.040;0,99899364;0,22076638;2,1971273;-0,23511331;2,1478894;2,3561945
219;2026-05-10 20:23:01.050;0,99939775;0,07172745;2,131554;-0,23511331;2,1478894;2,3561945
220;2026-05-10 20:23:01.060;0,992806666885216;0,057008290972175996;2,1179744761843198;-0,23511331;2,1478894;2,3561945
221;2026-05-10 20:23:01.070;0,986215583770432;0,04228913194435199;2,10439495236864;-0,23511331;2,1478894;2,3561945
222;2026-05-10 20:23:01.080;0,979624669385216;0,027570349722175994;2,09081577618432;-0,23511331;2,1478894;2,3561945
223;2026-05-10 20:23:01.090;0,973033755;0,012851567499999992;2,0772366;-0,23511331;2,1478894;2,3561945
224;2026-05-10 20:23:01.100;0,966442671885216;-0,0018675915278240096;2,06365707618432;-0,23511331;2,1478894;2,3561945
225;2026-05-10 20:23:01.110;0,959851588770432;-0,01658675055564801;2,05007755236864;-0,23511331;2,1478894;2,3561945
226;2026-05-10 20:23:01.120;0,953260674385216;-0,03130553277782401;2,03649837618432;-0,23511331;2,1478894;2,3561945
227;2026-05-10 20:23:01.130;0,94666976;-0,046024315;2,0229192;-0,23511331;2,1478894;2,3561945
228;2026-05-10 20:23:01.140;0,7744307935796327;0,0004558592924104801;1,8292060581134586;0,04536542894349251;2,2353117459944705;2,301720368493361
229;2026-05-10 20:23:01.150;0,6021918271592656;0,046936033584820964;1,6354929162269174;0,325844167886985;2,322734091988941;2,2472462369867223
230;2026-05-10 20:23:01.160;0,42995727;0,093415018;1,4417847333333331;0,6063157266666667;2,4101542;2,1927735
231;2026-05-10 20:23:01.170;0,413576924671104;0,061236809136345605;1,3468894146756265;0,8087742284980053;2,63789638486272;2,09562679349376
232;2026-05-10 20:23:01.180;0,39719616;0,029057776500000007;1,2519916666666666;1,0112379133333333;2,8656444;1,9984776
233;2026-05-10 20:23:01.190;0,38081539532889597;-0,003121256136345589;1,1570939186577067;1,2137015981686612;3,0933924151372802;1,90132840650624
234;2026-05-10 20:23:01.200;0,36443505;-0,035299465;1,0621986;1,4161601;3,3211346;1,8041817
235;2026-05-10 20:23:01.210;-0,3021575;0,3936282;0,8353103;1,4161601;3,3211346;1,8041817
236;2026-05-10 20:23:01.220;-0,03628398250000004;0,19943478674999998;0,8989573;1,4161601;3,3211346;1,8041817
237;2026-05-10 20:23:01.230;0,229589535;0,0052413735;0,9626043;1,4161601;3,3211346;1,8041817
238;2026-05-10 20:23:01.240;0,2301477669030268;0,03539764332987021;0,9012079705887172;1,5501246234881;2,8390264473755624;1,5887692048768207
239;2026-05-10 20:23:01.250;0,23070599880605355;0,06555391315974042;0,8398116411774343;1,6840891469762005;2,3569182947511242;1,3733567097536417
240;2026-05-10 20:23:01.260;0,23126424499999998;0,095710955;0,77841374;1,8180571;1,8747978;1,1579387
241;2026-05-10 20:23:01.270;0,2322333559235688;0,11739742006655983;0,7450968508394218;1,7953780477694778;1,8163496014981082;1,0875628193602065
242;2026-05-10 20:23:01.280;0,23320244203821558;0,1390833299667201;0,7117808145802891;1,7726995761152613;1,757902899250946;1,017188740319897
243;2026-05-10 20:23:01.290;0,23417152815286232;0,16076923986688035;0,6784647783211563;1,7500211044610445;1,6994561970037838;0,9468146612795872
244;2026-05-10 20:23:01.300;0,23514063907643118;0,18245570493344018;0,6451478891605782;1,7273420522305223;1,641007998501892;0,8764387806397936
245;2026-05-10 20:23:01.310;0,23610975;0,20414217;0,611831;1,704663;1,5825598;0,8060629
246;2026-05-10 20:23:01.320;0,20293620962675202;0,20431837524454402;0,5928272432512001;1,69362394130176;1,5562144122252801;0,77758383953664
247;2026-05-10 20:23:01.330;0,169762669253504;0,204494580489088;0,5738234865024;1,68258488260352;1,52986902445056;0,74910477907328
248;2026-05-10 20:23:01.340;0,13658827962675202;0,20467079024454402;0,5548192432512;1,67154554130176;1,50352296222528;0,72062498953664
249;2026-05-10 20:23:01.350;0,10341389;0,204847;0,535815;1,6605062;1,4771769;0,6921452
250;2026-05-10 20:23:01.360;0,0842682507115465;0,20014324347256948;0,5306146577101556;1,6152560194731498;1,3849021207548617;0,6330605041958579
251;2026-05-10 20:23:01.370;0,065122611423093;0,19543948694513896;0,5254143154203111;1,5700058389462994;1,2926273415097238;0,5739758083917158
252;2026-05-10 20:23:01.380;0,045976482;0,19073561;0,52021384;1,5247545;1,2003502;0,5148896
253;2026-05-10 20:23:01.390;0,03566233226351225;0,2234443627619159;0,562175719548781;1,3264198701134082;1,1058242743813016;0,4420359954694836
254;2026-05-10 20:23:01.400;0,025348446565878063;0,256152278190479;0,6041365248871953;1,128090317528352;1,0113007685953255;0,36918425596737087
255;2026-05-10 20:23:01.410;0,015034560868243873;0,288860193619042;0,6460973302256096;0,929760764943296;0,9167772628093491;0,29633251646525816
256;2026-05-10 20:23:01.420;0,004720411131756126;0,32156894638095795;0,6880592097743905;0,7314261350567042;0,8222513371906508;0,22347891193474181
257;2026-05-10 20:23:01.430;-0,005593738604731621;0,3542776991428738;0,7300210893231713;0,5330915051701125;0,7277254115719526;0,15062530740422544
258;2026-05-10 20:23:01.440;-0,01590762430236581;0,38698561457143693;0,7719818946615857;0,3347619525850563;0,6332019057859762;0,07777356790211273
259;2026-05-10 20:23:01.450;-0,02622151;0,41969353;0,8139427;0,1364324;0,5386784;0,0049218284
260;2026-05-10 20:23:01.460;-0,018676238;0,41024947;0,8152;0,16997762;0,68931776;0,08529424
261;2026-05-10 20:23:01.470;-0,14006880707332725;0,39651434559021054;0,8401935265507267;0,16997762;0,68931776;0,08529424
262;2026-05-10 20:23:01.480;-0,26145826853666365;0,38277957279510527;0,8651864132753633;0,16997762;0,68931776;0,08529424
263;2026-05-10 20:23:01.490;-0,38284773;0,3690448;0,8901793;0,16997762;0,68931776;0,08529424
264;2026-05-10 20:23:01.500;-0,15972865;0,35793436;0,8463193;0,16997762;0,68931776;0,08529424
265;2026-05-10 20:23:01.510;-0,23501149;0,3652375;0,83085775;0,16997762;0,68931776;0,08529424
266;2026-05-10 20:23:01.520;0,5397708951056857;-0,04227570917610316;0,2931144021353051;0,248586575861657;0,6261548389971584;0,16106415342179592
267;2026-05-10 20:23:01.530;1,3145532802113713;-0,4497889183522063;-0,2446289457293898;0,327195531723314;0,5629919179943168;0,23683406684359185
268;2026-05-10 20:23:01.540;2,0893555;-0,85731256;-0,78238606;0,4058065;0,49982738;0,31260592
269;2026-05-10 20:23:01.550;1,545129926501824;-0,525370081190656;-0,38060056971155193;0,4058065;0,49982738;0,31260592
270;2026-05-10 20:23:01.560;1,000918285;-0,19343610000000003;0,021174635000000094;0,4058065;0,49982738;0,31260592
271;2026-05-10 20:23:01.570;0,45670664349817613;0,13849788119065598;0,42294983971155214;0,4058065;0,49982738;0,31260592
272;2026-05-10 20:23:01.580;-0,08751893;0,47044036;0,82473533;0,4058065;0,49982738;0,31260592
273;2026-05-10 20:23:01.590;-0,095059908189952;0,469639436414976;0,815083968130816;0,26624818867648;0,447478469942528;0,28891568010214397
274;2026-05-10 20:23:01.600;-0,10260069333333333;0,4688385333333333;0,8054328533333334;0,12669344999999999;0,3951309;0,26522604666666666
275;2026-05-10 20:23:01.610;-0,11014147847671465;0,46803763025169065;0,7957817385358507;-0,012861288676480018;0,34278333005747197;0,24153641323118932
276;2026-05-10 20:23:01.620;-0,11768245666666666;0,46723670666666667;0,7861303766666666;-0,15241960000000002;0,29043441999999997;0,2178461733333333
277;2026-05-10 20:23:01.630;-0,12522343485661866;0,46643578308164263;0,7764790147974827;-0,29197791132352;0,23808550994252797;0,19415593343547732
278;2026-05-10 20:23:01.640;-0,13276422;0,46563488;0,7668279;-0,43153265;0,18573794;0,1704663
279;2026-05-10 20:23:01.650;-0,13945569434803198;0,46478872833088;0,74723497579264;-0,43153265;0,18573794;0,1704663
280;2026-05-10 20:23:01.660;-0,14614734;0,463942555;0,7276415500000001;-0,43153265;0,18573794;0,1704663
281;2026-05-10 20:23:01.670;-0,15283898565196802;0,46309638166912;0,7080481242073601;-0,43153265;0,18573794;0,1704663
282;2026-05-10 20:23:01.680;-0,15953046;0,46225023;0,6884552;-0,43153265;0,18573794;0,1704663
283;2026-05-10 20:23:01.690;-0,12680890334128642;0,516505428024576;0,74711752411264;-0,30564366389964803;0,153000345296576;0,166343012778752
284;2026-05-10 20:23:01.700;-0,09408650900000001;0,570762015;0,8057813500000001;-0,179751455;0,1202619125;0,16221961999999998
285;2026-05-10 20:23:01.710;-0,061364114658713616;0,625018601975424;0,86444517588736;-0,05385924610035198;0,087523479703424;0,158096227221248
286;2026-05-10 20:23:01.720;-0,028642558;0,6792738;0,9231075;0,07202974;0,054785885;0,15397294
287;2026-05-10 20:23:01.730;-0,056405039921397025;0,66309370710784;0,8986237848241371;0,05906460309873371;0,04322821329723429;0,141007803455872
288;2026-05-10 20:23:01.740;-0,08416823257142857;0,6469132000000001;0,8741394428571428;0,04609913428571428;0,031670245714285714;0,128042335
289;2026-05-10 20:23:01.750;-0,11193142522146012;0,63073269289216;0,8496551008901485;0,03313366547269485;0,02011227813133714;0,115076866544128
290;2026-05-10 20:23:01.760;-0,13969390714285715;0,6145526;0,8251713857142857;0,020168528571428566;0,008554606428571426;0,10211173000000001
291;2026-05-10 20:23:01.770;-0,16745638906425417;0,5983725071078401;0,8006876705384228;0,007203391670162278;-0,003003065274194288;0,089146593455872
292;2026-05-10 20:23:01.780;-0,19521958171428572;0,582192;0,7762033285714286;-0,005762077142857151;-0,01456103285714286;0,076181125
293;2026-05-10 20:23:01.790;-0,22298277436431727;0,56601149289216;0,7517189866044343;-0,01872754595587658;-0,026119000440091432;0,063215656544128
294;2026-05-10 20:23:01.800;-0,2507452562857143;0,5498314;0,7272352714285715;-0,03169268285714286;-0,037676672142857144;0,05025052000000001
295;2026-05-10 20:23:01.810;-0,27850773820711133;0,53365130710784;0,7027515562527086;-0,04465781975840915;-0,04923434384562286;0,037285383455872005
296;2026-05-10 20:23:01.820;-0,30627093085714285;0,5174708;0,6782672142857142;-0,05762328857142858;-0,06079231142857143;0,024319915000000008
297;2026-05-10 20:23:01.830;-0,3340341235071744;0,50129029289216;0,65378287231872;-0,070588757384448;-0,07235027901152001;0,011354446544128009
298;2026-05-10 20:23:01.840;-0,36179660542857145;0,4851102;0,6292991571428571;-0,0835538942857143;-0,08390795071428572;-0,0016106899999999908
299;2026-05-10 20:23:01.850;-0,38955908734996847;0,46893010710784;0,6048154419669943;-0,09651903118698059;-0,09546562241705144;-0,014575826544127991
300;2026-05-10 20:23:01.860;-0,41732228;0,4527496;0,5803311;-0,1094845;-0,10702359;-0,027541295
301;2026-05-10 20:23:01.870;-0,395014179459968;0,44724166449932795;0,6509265036096;-0,136101110688256;-0,10595892637248;-0,0043892066570624
302;2026-05-10 20:23:01.880;-0,37270665;0,44173387;0,7215201;-0,16271704;-0,10489429;0,018762289
303;2026-05-10 20:23:01.890;-0,36453596708608;0,444671297400448;0,72728367622528;-0,224461634659072;-0,067365827870464;0,0773173372357888
304;2026-05-10 20:23:01.900;-0,356365075;0,4476088;0,7330474;-0,28620781;-0,029836405000000003;0,13587388450000001
305;2026-05-10 20:23:01.910;-0,34819418291391996;0,450546302599552;0,73881112377472;-0,347953985340928;0,007693017870463998;0,1944304317642112
306;2026-05-10 20:23:01.920;-0,3400235;0,45348373;0,7445747;-0,40969858;0,04522148;0,25298548
307;2026-05-10 20:23:01.930;-0,7474405979955148;0,10997317159314321;0,6445292414786086;-0,40608229503123205;0,08588723557733267;0,20858824803347462
308;2026-05-10 20:23:01.940;-1,1548681260022424;-0,23354618079657175;0,5444812217606957;-0,40246591748438393;0,12655403221133366;0,16418987948326266
309;2026-05-10 20:23:01.950;-1,56229565400897;-0,5770655331862867;0,44443320204278286;-0,39884953993753586;0,16722082884533462;0,1197915109330507
310;2026-05-10 20:23:01.960;-1,969712752004485;-0,9205760915931435;0,34438774352139145;-0,39523325496876793;0,2078865844226673;0,07539427896652534
311;2026-05-10 20:23:01.970;-2,3771298499999998;-1,26408665;0,244342285;-0,39161697;0,24855234;0,030997047
312;2026-05-10 20:23:01.980;-1,2393210199999998;-0,366624225;0,5554518425;-0,382567435;0,29646162;-0,0272882235
313;2026-05-10 20:23:01.990;-0,10151219;0,5308382;0,8665614;-0,3735179;0,3443709;-0,085573494
314;2026-05-10 20:23:02.000;-0,13807733;0,51433601;0,8856452;-0,3735179;0,3443709;-0,085573494
315;2026-05-10 20:23:02.010;-0,17464247;0,49783382;0,904729;-0,3735179;0,3443709;-0,085573494
316;2026-05-10 20:23:02.020;-0,209175064511552;0,475925494577024;0,917094068270848;-0,312033528010112;0,29100241689216;-0,0847706317234944
317;2026-05-10 20:23:02.030;-0,24370765902310398;0,454017169154048;0,929459136541696;-0,25054915602022404;0,23763393378432;-0,0839677694469888
318;2026-05-10 20:23:02.040;-0,278239369511552;0,43210940457702396;0,9418238882708481;-0,189066358010112;0,18426681689215998;-0,0831649277234944
319;2026-05-10 20:23:02.050;-0,31277108;0,41020164;0,95418864;-0,12758356;0,1308997;-0,082362086
320;2026-05-10 20:23:02.060;-0,29443067;0,41106364;0,9632755;-0,12758356;0,1308997;-0,082362086
321;2026-05-10 20:23:02.070;-0,244956701741312;0,42571701756083197;0,96689384631424;-0,12758356;0,1308997;-0,082362086
322;2026-05-10 20:23:02.080;-0,195484;0,44037002;0,9705121;-0,12758356;0,1308997;-0,082362086
323;2026-05-10 20:23:02.090;-0,17873973;0,4608904;0,858237;-0,12758356;0,1308997;-0,082362086
324;2026-05-10 20:23:02.100;-0,20491166374646402;0,45267837863747196;0,8245275185241601;-0,12059560930537601;0,1067483963672704;-0,0649980197427968
325;2026-05-10 20:23:02.110;-0,231083597492928;0,444466357274944;0,79081803704832;-0,113607658610752;0,0825970927345408;-0,0476339534855936
326;2026-05-10 20:23:02.120;-0,257254861246464;0,436254546137472;0,75710941852416;-0,10661988680537601;0,0584464073672704;-0,030270331742796804
327;2026-05-10 20:23:02.130;-0,28342612500000003;0,428042735;0,7234008000000001;-0,09963211500000001;0,034295721999999994;-0,012906710000000005
328;2026-05-10 20:23:02.140;-0,309598058746464;0,419830713637472;0,68969131852416;-0,092644164305376;0,010144418367270392;0,0044573562572031945
329;2026-05-10 20:23:02.150;-0,335769992492928;0,41161869227494396;0,65598183704832;-0,085656213610752;-0,01400688526545921;0,021821422514406393
330;2026-05-10 20:23:02.160;-0,361941256246464;0,403406881137472;0,62227321852416;-0,07866844180537601;-0,038157570632729614;0,03918504425720319
331;2026-05-10 20:23:02.170;-0,38811252;0,39519507;0,5885646;-0,07168067;-0,062308256;0,056548666
332;2026-05-10 20:23:02.180;-0,33952951000000003;0,40486559499999997;0,648408875;-0,07168067;-0,062308256;0,056548666
333;2026-05-10 20:23:02.190;-0,2909465;0,41453612;0,70825315;-0,07168067;-0,062308256;0,056548666
334;2026-05-10 20:23:02.200;-0,22452192;0,4320682;0,76321876;-0,24363051;0,068626344;0,14810865
335;2026-05-10 20:23:02.210;1,0908113499999998;1,38514591;-0,09152536499999997;-0,29899237;0,17828538;0,14756759
336;2026-05-10 20:23:02.220;1,276398633657883;0,8435501134416921;0,046846012420640355;-0,31620146018235656;0,2620444414015087;0,09789509503346844
337;2026-05-10 20:23:02.230;1,461985917315766;0,301954316883384;0,18521738984128067;-0,3334105503647131;0,34580350280301736;0,048222600066936884
338;2026-05-10 20:23:02.240;1,64756845;-0,239627615;0,323585225;-0,3506192;0,42956042;-0,0014486233
339;2026-05-10 20:23:02.250;1,3019058520378881;0,5748458921056642;0,30962289122015996;-0,3506192;0,42956042;-0,0014486233
340;2026-05-10 20:23:02.260;0,9562344050000001;1,38934025;0,2956602;-0,3506192;0,42956042;-0,0014486233
341;2026-05-10 20:23:02.270;1,08804731;1,20763385;-0,15673989999999993;-0,19306833;0,29326767;-0,11484266
342;2026-05-10 20:23:02.280;0,7429659920974081;0,9956397710589439;0,10169693196620805;-0,175632713178752;0,270513231260544;-0,1087209968582912
343;2026-05-10 20:23:02.290;0,39788467419481605;0,7836456921178879;0,36013376393241603;-0,158197096357504;0,24775879252108798;-0,1025993337165824
344;2026-05-10 20:23:02.300;0,052794522097408016;0,5716461860589439;0,618577211966208;-0,140761033178752;0,225003771260544;-0,0964775138582912
345;2026-05-10 20:23:02.310;-0,29229563;0,35964668;0,87702066;-0,12332497;0,20224875;-0,090355694
346;2026-05-10 20:23:02.320;-0,293592065;0,358513265;0,8772369050000001;-0,12332497;0,20224875;-0,090355694
347;2026-05-10 20:23:02.330;-0,2948885;0,35737985;0,87745315;-0,12332497;0,20224875;-0,090355694
348;2026-05-10 20:23:02.340;-0,3061022156891491;0,3614559681157627;0,8558792825720211;-0,03389935024447896;0,15149996028253745;-0,017254865547581665
349;2026-05-10 20:23:02.350;-0,3173159313782981;0,3655320862315254;0,834305415144042;0,05552626951104209;0,10075117056507492;0,05584596290483667
350;2026-05-10 20:23:02.360;-0,32852936;0,3696081;0,8127321;0,1449496;0,05000368;0,12894492
351;2026-05-10 20:23:02.370;-0,312447729463341;0,37818673025616956;0,782996182499488;0,7491315551626447;-0,0020731578772570794;-1,9042300200368643
352;2026-05-10 20:23:02.380;-0,2963656872316705;0,38676558012808476;0,7532595037497439;1,3533289775813226;-0,054151328938628576;-3,9374570100184325
353;2026-05-10 20:23:02.390;-0,280283645;0,39534442999999997;0,723522825;1,9575264000000003;-0,10622950000000009;-5,970684
354;2026-05-10 20:23:02.400;-0,261153586117888;0,40286666371417595;0,772489726965632;1,4178949523709443;-0,08686312939271686;-4,492500700988416
355;2026-05-10 20:23:02.410;-0,242023527235776;0,410388897428352;0,821456628931264;0,8782635047418881;-0,06749675878543364;-3,0143174019768324
356;2026-05-10 20:23:02.420;-0,222892978617888;0,417911323714176;0,870424784465632;0,338618242370944;-0,04812989239271681;-1,5360962609884166
357;2026-05-10 20:23:02.430;-0,20376243;0,42543375;0,91939294;-0,20102702;-0,028763026;-0,05787512
358;2026-05-10 20:23:02.440;-0,21553401954781673;0,4240930747739084;0,9322274788105336;-0,1650124587448565;-0,026636651311962932;-0,08298437406495601
359;2026-05-10 20:23:02.450;-0,22730560909563347;0,42275239954781674;0,9450620176210672;-0,12899789748971302;-0,02451027662392586;-0,10809362812991202
360;2026-05-10 20:23:02.460;-0,2390775;0,42141169;0,957896885;-0,09298241425;-0,022383847499999998;-0,133203525
361;2026-05-10 20:23:02.470;-0,24588841217856;0,42590630586368;0,938335370449152;-0,0747071287876736;-0,0275282714311168;-0,133424603663104
362;2026-05-10 20:23:02.480;-0,25269915;0,4304008066666667;0,9187743566666667;-0,056432311166666665;-0,03267256366666667;-0,13364567666666666
363;2026-05-10 20:23:02.490;-0,25950988782144;0,4348953074696533;0,8992133428841814;-0,03815749354565973;-0,037816855902216534;-0,13386674967022932
364;2026-05-10 20:23:02.500;-0,2663208;0,4393899233333333;0,8796518283333333;-0,01988220808333333;-0,04296127983333334;-0,13408782833333333
365;2026-05-10 20:23:02.510;-0,27313171217856;0,4438845391970133;0,8600903137824853;-0,001606922621006929;-0,048105703764450135;-0,13430890699643733
366;2026-05-10 20:23:02.520;-0,27994245;0,44837904;0,8405293;0,016667895;-0,053249996;-0,13452998
367;2026-05-10 20:23:02.530;-0,251977262958976;0,456940450412544;0,8740911204032;-0,06903539548384;-0,08333035796643841;-0,0743867028438016
368;2026-05-10 20:23:02.540;-0,22401136;0,46550208;0,9076538;-0,15474088;-0,11341149;-0,014241886
369;2026-05-10 20:23:02.550;-0,22485906780069462;0,4652785295181206;0,9004556238193656;-0,16484650913386298;-0,03658078543942588;-0,04884072114589502
370;2026-05-10 20:23:02.560;-0,2257067539003473;0,46505498475906026;0,8932576319096828;-0,17495187956693148;0,04024795228028706;-0,08343867057294752
371;2026-05-10 20:23:02.570;-0,22655444;0,46483144;0,88605964;-0,18505725;0,11707669;-0,11803662
372;2026-05-10 20:23:02.580;-0,22586425;0,4660898;0,8720351;-0,18505725;0,11707669;-0,11803662
373;2026-05-10 20:23:02.590;1,9234034;0,93207896;0,048307717;-0,18505725;0,11707669;-0,11803662
374;2026-05-10 20:23:02.600;1,1724111852155956;0,7578681799510184;0,3138172789560702;-0,08268293027204383;0,06491506078493349;-0,14145873679537832
375;2026-05-10 20:23:02.610;0,42141897043119136;0,5836573999020369;0,5793268409121404;0,019691389455912336;0,012753431569866977;-0,16488085359075666
376;2026-05-10 20:23:02.620;-0,32959247;0,40944216;0,8448432;0,12206833;-0,039409533;-0,18830357
377;2026-05-10 20:23:02.630;-0,3231410065976226;0,41222173236569265;0,8504221619938959;0,07583273876326575;-0,0836334462004534;0,575827078812247
378;2026-05-10 20:23:02.640;-0,31668970835059435;0,4150012335752435;0,8560009811681928;0,029598331142516886;-0,12785622728322;1,3399381661302716
379;2026-05-10 20:23:02.650;-0,3102384101035661;0,4177807347847944;0,8615798003424896;-0,016636076478231985;-0,17207900836598655;2,1040492534482964
380;2026-05-10 20:23:02.660;-0,3037869467011887;0,42056030715048703;0,8671587623363854;-0,06287166771496623;-0,21630292156643996;2,868179902260543
381;2026-05-10 20:23:02.670;-0,2973354832988113;0,42333987951617963;0,8727377243302813;-0,10910725895170048;-0,26052683476689337;3,6323105510727904
382;2026-05-10 20:23:02.680;-0,29088418505178304;0,4261193807257305;0,8783165435045782;-0,15534166657244936;-0,30474961584966;4,396421638390815
383;2026-05-10 20:23:02.690;-0,28443288680475476;0,4288988819352814;0,883895362678875;-0,20157607419319823;-0,34897239693242654;5,16053272570884
384;2026-05-10 20:23:02.700;-0,2779814234023774;0,431678454300974;0,8894743246727709;-0,24781166542993247;-0,3931963101328799;5,924663374521087
385;2026-05-10 20:23:02.710;-0,27152996;0,43445802666666666;0,8950532866666667;-0,2940472566666667;-0,43742022333333336;6,688794023333333
386;2026-05-10 20:23:02.720;-0,280773065;0,43904142333333335;0,8108780933333334;0,001564986666666672;-0,3121463166666667;3,271800046666667
387;2026-05-10 20:23:02.730;-0,29001617;0,44362482;0,7267029;0,29717723;-0,18687241;-0,14519393
388;2026-05-10 20:23:02.740;-0,26158544;0,45766395;0,69653744;0,29717723;-0,18687241;-0,14519393
389;2026-05-10 20:23:02.750;-0,255181948036352;0,461294928142592;0,6950763312980479;0,263646114140544;-0,15129632563194878;-0,093735149669376
390;2026-05-10 20:23:02.760;-0,24877862;0,4649258133333333;0,69361526;0,23011585666666667;-0,115721152;-0,04227768666666666
391;2026-05-10 20:23:02.770;-0,24237529196364802;0,46855669852407467;0,692154188701952;0,19658559919278934;-0,08014597836805121;0,009179776336042673
392;2026-05-10 20:23:02.780;-0,2359718;0,47218767666666667;0,69069308;0,16305448333333333;-0,044569894000000006;0,060638556666666676
393;2026-05-10 20:23:02.790;-0,229568308036352;0,47581865480925867;0,6892319712980479;0,12952336747387733;-0,008993809631948811;0,11209733699729067
394;2026-05-10 20:23:02.800;-0,22316498;0,47944954;0,6877709;0,09599311;0,026581364;0,1635548
395;2026-05-10 20:23:02.810;-0,17474791;0,4911828;0,76215076;-0,18133971;0,08407251;-0,06958628
396;2026-05-10 20:23:02.820;-0,1713925847015906;0,48656291391080997;0,8164891036812643;-0,18133971;0,08407251;-0,06958628
397;2026-05-10 20:23:02.830;-0,16803725940318123;0,48194302782161996;0,8708274473625286;-0,18133971;0,08407251;-0,06958628
398;2026-05-10 20:23:02.840;-0,16468202;0,47732326;0,9251644;-0,18133971;0,08407251;-0,06958628
399;2026-05-10 20:23:02.850;-0,1884850004239342;0,46432758512902345;0,944240241101478;-0,13308218027238283;0,08974473319281838;-0,19628338434174147
400;2026-05-10 20:23:02.860;-0,2122885902119671;0,45133157756451175;0,963316570550739;-0,08482341513619142;0,09541710159640919;-0,32298373217087073
401;2026-05-10 20:23:02.870;-0,23609218;0,43833557;0,9823929;-0,03656465;0,10108947;-0,44968408
402;2026-05-10 20:23:02.880;-0,35207796;0,3944053;0,93084025;-0,03656465;0,10108947;-0,44968408
403;2026-05-10 20:23:02.890;-0,19409256723891202;0,3687981650255232;0,861086705981792;0,0016924790524799989;0,086786679953056;-0,44063466458399997
404;2026-05-10 20:23:02.900;-0,036103130000000025;0,3431903745;0,79133137625;0,039950587499999995;0,07248352375;-0,4315850175
405;2026-05-10 20:23:02.910;0,12188630723891197;0,3175825839744768;0,7215760465182081;0,07820869594751999;0,058180367546944;-0,422535370416
406;2026-05-10 20:23:02.920;0,2798717;0,291975449;0,6518225025000001;0,11646582499999998;0,0438775775;-0,413485955
407;2026-05-10 20:23:02.930;0,437857092761088;0,26636831402552325;0,5820689584817921;0,15472295405248;0,029574787453055997;-0,404436539584
408;2026-05-10 20:23:02.940;0,59584653;0,24076052350000002;0,51231362875;0,19298106249999997;0,015271631249999995;-0,3953868925
409;2026-05-10 20:23:02.950;0,753835967238912;0,21515273297447682;0,44255829901820803;0,23123917094751997;0,0009684750469439946;-0,386337245416
410;2026-05-10 20:23:02.960;0,9118213599999999;0,189545598;0,372804755;0,2694963;-0,013334315;-0,37728783
411;2026-05-10 20:23:02.970;0,27923840716543996;0,2843708752209152;0,612827855164992;0,2694963;-0,013334315;-0,37728783
412;2026-05-10 20:23:02.980;-0,35336074;0,37919858;0,8528571;0,2694963;-0,013334315;-0,37728783
413;2026-05-10 20:23:02.990;-0,3860683;0,3630088;0,8855637;-0,17442821;-0,011746066;-0,20692624
414;2026-05-10 20:23:03.000;-1,3970430729048444;-0,4124338828044066;0,4634045524708372;-0,17442821;-0,011746066;-0,20692624
415;2026-05-10 20:23:03.010;-2,4080178458096886;-1,1878765656088133;0,04124540494167448;-0,17442821;-0,011746066;-0,20692624
416;2026-05-10 20:23:03.020;-3,4190185;-1,9633391;-0,38092455;-0,17442821;-0,011746066;-0,20692624
417;2026-05-10 20:23:03.030;-1,879748262593152;-0,78243928467584;0,20813956492416003;0,065644902896512;-0,15467291244021758;-0,162480861106432
418;2026-05-10 20:23:03.040;-0,34051743;0,3984303;0,7971886;0,30571187;-0,2975961;-0,11803662
419;2026-05-10 20:23:03.050;-0,371299495984512;0,370061453125888;0,85902950842624;0,186472501283456;-0,194596808407808;-0,0871621391984128
420;2026-05-10 20:23:03.060;-0,40208235;0,34169188;0,920872;0,06723008;-0,09159488;-0,056286868
421;2026-05-10 20:23:03.070;-0,31588817;0,4150125;0,7456925;0,06723008;-0,09159488;-0,056286868
422;2026-05-10 20:23:03.080;-0,290327894675712;0,423555623146624;0,7824529044608;0,004015066662528003;-0,24397325953177598;1,9997892808884226
423;2026-05-10 20:23:03.090;-0,264767619351424;0,432098746293248;0,8192133089215999;-0,05919994667494399;-0,396351639063552;4,055865429776845
424;2026-05-10 20:23:03.100;-0,239206689675712;0,440642088146624;0,8559746544608;-0,12241657833747199;-0,548733919531776;6,111994214888423
425;2026-05-10 20:23:03.110;-0,21364576;0,44918543;0,892736;-0,18563321;-0,7011162;8,168123
426;2026-05-10 20:23:03.120;-0,2195206598668794;0,44531503636111514;0,9116662384598975;-0,14322207391299377;-0,44010444066218946;5,349667351129391
427;2026-05-10 20:23:03.130;-0,22539555973375885;0,4414446427222303;0,9305964769197949;-0,10081093782598753;-0,179092681324379;2,5312117022587826
428;2026-05-10 20:23:03.140;-0,23127061;0,43757415;0,9495272;-0,058398716;0,08192576;-0,2873161
429;2026-05-10 20:23:03.150;-0,2348008921870336;0,43600357089684477;0,950675744701184;-0,05121310362533888;0,0775606351271168;-0,289180133859328
430;2026-05-10 20:23:03.160;-0,238331084;0,434433032;0,95182426;-0,044027675200000005;0,073195622;-0,29104412
431;2026-05-10 20:23:03.170;-0,2418612758129664;0,4328624931031552;0,9529727752988161;-0,03684224677466112;0,0688306088728832;-0,29290810614067203
432;2026-05-10 20:23:03.180;-0,245391558;0,431291914;0,95412132;-0,0296566344;0,064465484;-0,29477214
433;2026-05-10 20:23:03.190;-0,2489218401870336;0,4297213348968448;0,955269864701184;-0,02247102202533888;0,0601003591271168;-0,296636173859328
434;2026-05-10 20:23:03.200;-0,252452032;0,428150796;0,95641838;-0,0152855936;0,055735346000000005;-0,29850016
435;2026-05-10 20:23:03.210;-0,2559822238129664;0,4265802571031552;0,957566895298816;-0,00810016517466112;0,0513703328728832;-0,30036414614067203
436;2026-05-10 20:23:03.220;-0,25951250600000003;0,425009678;0,9587154400000001;-0,0009145527999999988;0,047005208;-0,30222818
437;2026-05-10 20:23:03.230;-0,26304278818703364;0,4234390988968448;0,9598639847011841;0,0062710595746611215;0,042640083127116805;-0,304092213859328
438;2026-05-10 20:23:03.240;-0,26657298;0,42186856;0,9610125;0,013456488;0,03827507;-0,3059562
439;2026-05-10 20:23:03.250;-0,2864206009472;0,410551119865088;0,945648156666112;-0,05032866020631894;0,08698367818850133;-0,2481138233918976
440;2026-05-10 20:23:03.260;-0,30626873;0,39923339;0,9302834200000001;-0,11411544133333333;0,13569353333333334;-0,190269966
441;2026-05-10 20:23:03.270;-0,3261168590528;0,387915660134912;0,914918683333888;-0,17790222246034773;0,18440338847816534;-0,13242610860810242
442;2026-05-10 20:23:03.280;-0,34596448;0,37659822;0,89955434;-0,24168737066666668;0,23311199666666668;-0,07458373200000001
443;2026-05-10 20:23:03.290;-0,3658121009472;0,365280779865088;0,8841899966661121;-0,3054725188729856;0,281820604855168;-0,01674135539189761
444;2026-05-10 20:23:03.300;-0,38566023;0,35396305;0,86882526;-0,3692593;0,33053046;0,041102502
445;2026-05-10 20:23:03.310;-0,369037;0,36488122;0,8232071;-0,16484635;0,2645221;0,2183756
446;2026-05-10 20:23:03.320;0,641800725;0,5658237899999999;0,89156652;-0,16484635;0,2645221;0,2183756
447;2026-05-10 20:23:03.330;-0,3115137;0,3981794;0,80732965;0,079482295;0,010070549;0,27108455
448;2026-05-10 20:23:03.340;-0,29279451500000003;0,40748481;0,8110691;0,036093409349999994;0,053721234500000006;0,26762006
449;2026-05-10 20:23:03.350;-0,27407533;0,41679022;0,81480855;-0,0072954763;0,09737192;0,26415557
450;2026-05-10 20:23:03.360;2,475591;-1,7019331;0,025792945;-0,0072954763;0,09737192;0,26415557
451;2026-05-10 20:23:03.370;-0,25316352;0,42914438;0,8404424;-0,18935077;0,28047442;0,20453514
452;2026-05-10 20:23:03.380;-0,26003167194081306;0,4249524175623784;0,8574155881693518;-0,21490261137292213;0,38073280219391065;-2,389325573994778
453;2026-05-10 20:23:03.390;-0,2668998238816261;0,4207604551247568;0,8743887763387036;-0,2404544527458443;0,4809911843878213;-4,983186287989556
454;2026-05-10 20:23:03.400;-0,2737678;0,4165686;0,89136153;-0,26600564;0,581247;-7,5769806
455;2026-05-10 20:23:03.410;-0,300452561240912;0,40595424782059597;0,8630751027612042;-0,26600564;0,581247;-7,5769806
456;2026-05-10 20:23:03.420;-0,32713800562045603;0,395339623910298;0,8347879513806021;-0,26600564;0,581247;-7,5769806
457;2026-05-10 20:23:03.430;-0,35382345;0,384725;0,8065008;-0,26600564;0,581247;-7,5769806
458;2026-05-10 20:23:03.440;-0,6670917017433674;-0,16918893987387681;0,7908126222074974;-0,2593501717940556;0,518168429944021;-6,294357775854865
459;2026-05-10 20:23:03.450;-0,9803599534867349;-0,7231028797477537;0,7751244444149948;-0,2526947035881113;0,4550898598880422;-5,0117349517097285
460;2026-05-10 20:23:03.460;-1,293636225;-1,277031;0,7594358649999999;-0,24603906499999997;0,39200967499999995;-3,7290792919999998
461;2026-05-10 20:23:03.470;-1,606912496513265;-1,8309591202522464;0,7437472855850051;-0,23938342641188867;0,32892949011195777;-2,4464236322902706
462;2026-05-10 20:23:03.480;-1,9201807482566324;-2,3848730601261234;0,7280591077925026;-0,23272795820594433;0,2658509200559789;-1,1638008081451352
463;2026-05-10 20:23:03.490;-2,233449;-2,938787;0,71237093;-0,22607249;0,20277235;0,118822016
464;2026-05-10 20:23:03.500;-1,2415500199999998;-1,2511824;0,748280015;-0,314167995;0,28128598499999996;0,0631983725
465;2026-05-10 20:23:03.510;-0,24965104;0,4364222;0,7841891;-0,4022635;0,35979962;0,007574729
466;2026-05-10 20:23:03.520;-0,25228685;0,42937478;0,8167952;-0,4022635;0,35979962;0,007574729
467;2026-05-10 20:23:03.530;-0,27703345823936;0,41266489388928;0,84766075491584;-0,432335130078208;0,366187443234816;-0,0166326776412288
468;2026-05-10 20:23:03.540;-0,3017807;0,39595458;0,8785271;-0,46240753;0,37257543;-0,040840704
469;2026-05-10 20:23:03.550;-0,31106365;0,39309812;0,8814606;-0,46240753;0,37257543;-0,040840704
470;2026-05-10 20:23:03.560;-0,32586041059904003;0,387060717279744;0,887823331056;-0,441119144994816;0,349951887085056;-0,0521546556795648
471;2026-05-10 20:23:03.570;-0,34065717119808;0,381023314559488;0,894186062112;-0,419830759989632;0,327328344170112;-0,0634686073591296
472;2026-05-10 20:23:03.580;-0,35545431059904;0,374985757279744;0,9005489560559999;-0,398541829994816;0,304704222085056;-0,07478284867956479
473;2026-05-10 20:23:03.590;-0,37025145;0,3689482;0,90691185;-0,3772529;0,2820801;-0,08609709
474;2026-05-10 20:23:03.600;1,1296922;-1,1467137;0,15232784;0,2561969;-0,28961992;0,16727236
475;2026-05-10 20:23:03.610;0,6509280576792846;-0,6298001687705226;0,33761456439942655;0,29860185627948255;-0,29760176044151276;0,16070421543110217
476;2026-05-10 20:23:03.620;0,17215165883964237;-0,1128734043852613;0,5229060321997133;0,34100789813974125;-0,30558380522075634;0,15413590271555108
477;2026-05-10 20:23:03.630;-0,30662474;0,40405336;0,7081975;0,38341394;-0,31356585;0,14756759
478;2026-05-10 20:23:03.640;1,5853012;1,6117424;0,025294093;0,38341394;-0,31356585;0,14756759
479;2026-05-10 20:23:03.650;-0,25949436;0,41780943;0,82313967;0,38341394;-0,31356585;0,14756759
480;2026-05-10 20:23:03.660;-0,2764534;0,41089284;0,8537318;-0,29686305;0,27836257;0,045361105
481;2026-05-10 20:23:03.670;-0,2801732234841749;0,409374117414133;0,85298140719346;1,4580605836466503;-0,1450149955512983;-2,041029403942246
482;2026-05-10 20:23:03.680;-0,28389295174208745;0,4078554337070665;0,85223103359673;3,212939291823325;-0,568381722775649;-4,127366501971123
483;2026-05-10 20:23:03.690;-0,28761268;0,40633675;0,85148066;4,967818;-0,99174845;-6,2137036
484;2026-05-10 20:23:03.700;-0,290146271179552;0,40515476612080004;0,852961117699616;4,305131990227649;-0,8189433693732799;-5,43722942069522
485;2026-05-10 20:23:03.710;-0,292679862359104;0,4039727822416;0,8544415753992319;3,642445980455296;-0,64613828874656;-4,660755241390441
486;2026-05-10 20:23:03.720;-0,295213388679552;0,4027908286208;0,855921995199616;2,979776935227648;-0,47333763187327993;-3,8843009395702204
487;2026-05-10 20:23:03.730;-0,297746915;0,401608875;0,857402415;2,31710789;-0,30053697499999993;-3,10784663775
488;2026-05-10 20:23:03.740;-0,300280506179552;0,4004268911208;0,8588828726996159;1,6544218802276478;-0,12773189437327992;-2,3313724584452205
489;2026-05-10 20:23:03.750;-0,302814097359104;0,3992449072416;0,860363330399232;0,9917358704552957;0,04507318625344009;-1,5548982791404413
490;2026-05-10 20:23:03.760;-0,305347623679552;0,39806295362079996;0,8618437501996159;0,3290668252276475;0,21787384312672012;-0,7784439773202206
491;2026-05-10 20:23:03.770;-0,30788115;0,396881;0,86332417;-0,33360222;0,3906745;-0,0019896755
492;2026-05-10 20:23:03.780;0,056798201002238154;0,6663536707480306;0,6221335509710794;-0,32592269003137825;0,37485665502929366;-0,0026753480941401706
493;2026-05-10 20:23:03.790;0,4214775520044763;0,9358263414960613;0,3809429319421587;-0,31824316006275644;0,3590388100585873;-0,0033610206882803413
494;2026-05-10 20:23:03.800;0,7861475673348254;1,2052921138320205;0,13975848731405288;-0,3105638266875855;0,34322137001952907;-0,004046675729426781
495;2026-05-10 20:23:03.810;1,1508175826651745;1,4747578861679795;-0,10142595731405292;-0,3028844933124145;0,32740392998047085;-0,00473233077057322
496;2026-05-10 20:23:03.820;1,5154969336674127;1,7442305569160101;-0,34261657634297354;-0,29520496334379276;0,31158608500976454;-0,00541800336471339
497;2026-05-10 20:23:03.830;1,8801762846696508;2,013703227664041;-0,5838071953718942;-0,28752543337517095;0,2957682400390582;-0,006103675958853561
498;2026-05-10 20:23:03.840;2,2448463;2,283169;-0,82499164;-0,2798461;0,2799508;-0,006789331
499;2026-05-10 20:23:03.850;1,8806390107576854;2,011504514114205;-0,5772181589041757;-0,2444812590580095;0,22497373424622766;-0,003216444981173063
500;2026-05-10 20:23:03.860;1,516422397689421;1,7398330735285512;-0,32943833472604395;-0,20911551276450235;0,1699952610615569;0,00035653250470673404
501;2026-05-10 20:23:03.870;1,152205784621157;1,4681616329428975;-0,08165851054791212;-0,17374976647099524;0,11501678787688617;0,0039295099905865315
502;2026-05-10 20:23:03.880;0,7879984953788425;1,1964971470571024;0,1661149705479122;-0,13838492552900475;0,06003972212311383;0,007502396009413468
503;2026-05-10 20:23:03.890;0,423791206136528;0,9248326611713076;0,4138884516437365;-0,10302008458701424;0,005062656369341492;0,011075282028240405
504;2026-05-10 20:23:03.900;0,05957459306826387;0,6531612205856537;0,6616682758218683;-0,06765433829350713;-0,04991581681532926;0,014648259514120202
505;2026-05-10 20:23:03.910;-0,30464202;0,38148978;0,9094481;-0,032288592;-0,10489429;0,018221237
506;2026-05-10 20:23:03.920;-0,3102563;0,37908536;0,9100446;-0,032288592;-0,10489429;0,018221237
507;2026-05-10 20:23:03.930;-0,3037413845226474;0,38191051178345903;0,8962240025412158;0,024654710155203603;-0,1441111706900024;0,02851268569036079
508;2026-05-10 20:23:03.940;-0,2972263022613237;0,38473573589172955;0,8824030512706079;0,0815994700776018;-0,18332905534500119;0,038804397845180395
509;2026-05-10 20:23:03.950;-0,29071122;0,38756096;0,8685821;0,13854423;-0,22254694;0,04909611
510;2026-05-10 20:23:03.960;-0,295296085;0,387289565;0,82610495;0,173677715;-0,20365375;0,054681165000000004
511;2026-05-10 20:23:03.970;-0,29988095;0,38701817;0,7836278;0,2088112;-0,18476056;0,06026622
512;2026-05-10 20:23:03.980;-0,2932827604837824;0,39027588262061136;0,7821224384281054;0,16599002835201657;-0,16938015500740977;0,055179496902913565
513;2026-05-10 20:23:03.990;-0,28668457096756483;0,3935335952412228;0,7806170768562107;0,12316885670403313;-0,15399975001481953;0,05009277380582712
514;2026-05-10 20:23:04.000;-0,2800865503628368;0,39679122446545856;0,779111753821079;0,08034878126401243;-0,13861973875555733;0,045006180927185176
515;2026-05-10 20:23:04.010;-0,2734885297581088;0,4000488536896943;0,7776064307859474;0,03752870582399172;-0,12323972749629512;0,039919588048543224
516;2026-05-10 20:23:04.020;-0,2668903402418912;0,4033065663103057;0,7761010692140526;-0,005292465823991713;-0,10785932250370489;0,03483286495145678
517;2026-05-10 20:23:04.030;-0,26029215072567363;0,40656427893091707;0,774595707642158;-0,04811363747197515;-0,09247891751111466;0,029746141854370342
518;2026-05-10 20:23:04.040;-0,2536941301209456;0,40982190815515285;0,7730903846070264;-0,09093371291199585;-0,07709890625185245;0,02465954897572839
519;2026-05-10 20:23:04.050;-0,24709610951621758;0,41307953737938863;0,7715850615718947;-0,13375378835201657;-0,06171889499259025;0,019572956097086442
520;2026-05-10 20:23:04.060;-0,24049792;0,41633725;0,7700797;-0,17657496;-0,04633849;0,014486233
521;2026-05-10 20:23:04.070;-0,239957083077376;0,41893942080736;0,79620733442944;-0,08367862094207999;-0,006151770616576002;-0,06655480256197761
522;2026-05-10 20:23:04.080;-0,23941626;0,421541525;0,8223343;0,009215340000000032;0,034033919999999995;-0,14759376350000003
523;2026-05-10 20:23:04.090;-0,238875436922624;0,42414362919264;0,84846126557056;0,10210930094208005;0,074219610616576;-0,22863272443802243
524;2026-05-10 20:23:04.100;-0,2383346;0,4267458;0,8745889;0,19500564;0,11440633;-0,30967376
525;2026-05-10 20:23:04.110;-0,234089405662208;0,44675045605632;0,884281039057792;0,05153773863436801;-0,038102492087936014;-0,1582296070396544
526;2026-05-10 20:23:04.120;-0,22984432;0,4667546;0,89397293;-0,09192649;-0,19060741;-0,006789331
527;2026-05-10 20:23:04.130;-0,21096799;0,49637535;0,8957359;-0,09192649;-0,19060741;-0,006789331
528;2026-05-10 20:23:04.140;0,92377664;-0,51310685;0,5834366;0,05550147;-0,49136254;-0,0073129297
529;2026-05-10 20:23:04.150;0,495802897006208;0,15393838306969593;0,749083700255744;0,05550147;-0,49136254;-0,0073129297
530;2026-05-10 20:23:04.160;0,06784011;0,82096654;0,91472656;0,05550147;-0,49136254;-0,0073129297
531;2026-05-10 20:23:04.170;0,24006154;0,90256083;0,9067547;0,05550147;-0,49136254;-0,0073129297
532;2026-05-10 20:23:04.180;0,25950558;0,9068845649999999;0,9599074;0,05550147;-0,49136254;-0,0073129297
533;2026-05-10 20:23:04.190;0,27894962;0,9112083;1,0130601;0,05550147;-0,49136254;-0,0073129297
534;2026-05-10 20:23:04.200;0,28075465019598667;0,9032328646458965;1,058486344459967;-0,028682316371778514;-0,43189982582784336;-0,4816109216639939
535;2026-05-10 20:23:04.210;0,28255968039197327;0,895257429291793;1,103912588919934;-0,11286610274355703;-0,3724371116556867;-0,9559089136279878
536;2026-05-10 20:23:04.220;0,2843647567973244;0,887281789763931;1,1493399963066446;-0,19705204424785236;-0,3129728752185622;-1,430219047775996
537;2026-05-10 20:23:04.230;0,2861698332026756;0,879306150236069;1,1947674036933553;-0,2812379857521477;-0,25350863878143776;-1,904529181924004
538;2026-05-10 20:23:04.240;0,28797486339866224;0,8713307148819655;1,2401936481533222;-0,3654217721239262;-0,1940459246092811;-2,378827173887998
539;2026-05-10 20:23:04.250;0,28977989359464884;0,863355279527862;1,2856198926132894;-0,4496055584957047;-0,13458321043712446;-2,853125165851992
540;2026-05-10 20:23:04.260;0,29158497;0,85537964;1,3310473;-0,5337915;-0,075118974;-3,3274353
541;2026-05-10 20:23:04.270;0,4829073;0,93961257;1,5568353;0,54684657;-2,633981;-1,4882423
542;2026-05-10 20:23:04.280;0,38096996;0,797975435;2,05749135;0,7430041150000001;-2,9137137;-1,81189615
543;2026-05-10 20:23:04.290;0,27903262;0,6563383;2,5581474;0,93916166;-3,1934464;-2,13555
544;2026-05-10 20:23:04.300;0,253613239636096;0,60820885895104;2,62458460038528;1,680438683224448;-3,65777531833408;-2,37496858951872
545;2026-05-10 20:23:04.310;0,22819385927219202;0,56007941790208;2,69102180077056;2,4217157064488957;-4,12210423666816;-2,61438717903744
546;2026-05-10 20:23:04.320;0,202775129636096;0,51195120895104;2,75745730038528;3,1629737532244477;-4,58642126833408;-2,85379963951872
547;2026-05-10 20:23:04.330;0,1773564;0,463823;2,8238928;3,9042318;-5,0507383;-3,0932121
548;2026-05-10 20:23:04.340;0,34133773262279415;0,5102896215100949;2,7905749156910264;3,675239712625866;-4,1668058805399015;-2,8400877566999183
549;2026-05-10 20:23:04.350;0,5053190652455883;0,5567562430201898;2,7572570313820526;3,4462476252517322;-3,2828734610798036;-2,586963413399836
550;2026-05-10 20:23:04.360;0,6692962;0,603221675;2,72394;3,2172614;-2,39896367;-2,33384555
551;2026-05-10 20:23:04.370;0,8332733347544118;0,6496871069798102;2,6906229686179475;2,9882751747482676;-1,5150538789201968;-2,080727686600164
552;2026-05-10 20:23:04.380;0,9972546673772059;0,6961537284899052;2,6573050843089736;2,7592830873741336;-0,6311214594600986;-1,827603343300082
553;2026-05-10 20:23:04.390;1,161236;0,74262035;2,6239872;2,530291;0,25281096;-1,574479
554;2026-05-10 20:23:04.400;1,1636137797093533;0,5940584344112402;2,527661921986227;3,8814901362864482;-1,6915797676534086;-2,6715952044885523
555;2026-05-10 20:23:04.410;1,165991559418707;0,4454965188224803;2,4313366439724544;5,232689272572896;-3,6359704953068173;-3,7687114089771048
556;2026-05-10 20:23:04.420;1,1683694;0,2969308;2,3350089;6,583923;-5,580411;-4,8658557
557;2026-05-10 20:23:04.430;0,88002944;0,3025002;2,4899483;6,583923;-5,580411;-4,8658557
558;2026-05-10 20:23:04.440;0,726153789633536;0,315636529352832;2,2850554226624;6,6471424407808;-5,59677761550464;-4,97258565883904
559;2026-05-10 20:23:04.450;0,572278139267072;0,32877285870566403;2,0801625453248;6,7103618815616;-5,613144231009279;-5,07931561767808
560;2026-05-10 20:23:04.460;0,418398549633536;0,341909524352832;1,8752644226624;6,7735829407808;-5,6295112655046395;-5,18604830883904
561;2026-05-10 20:23:04.470;0,26451895999999997;0,35504619000000004;1,6703663;6,836804;-5,6458783;-5,292781
562;2026-05-10 20:23:04.480;-1,2461690200000002;-1,377269905;1,08802205;6,836804;-5,6458783;-5,292781
563;2026-05-10 20:23:04.490;-2,756857;-3,109586;0,5056778;6,836804;-5,6458783;-5,292781
564;2026-05-10 20:23:04.500;-1,4541338719049306;-2,211630415877095;0,5231503490971772;6,836804;-5,6458783;-5,292781
565;2026-05-10 20:23:04.510;-0,15141074380986122;-1,3136748317541898;0,5406228981943544;6,836804;-5,6458783;-5,292781
566;2026-05-10 20:23:04.520;1,151279035;-0,41574223499999996;0,558095;6,836804;-5,6458783;-5,292781
567;2026-05-10 20:23:04.530;0,8898186323146567;-0,2685910840784551;0,546974803120456;6,779313814511725;-4,182363244309998;-5,382384604078916
568;2026-05-10 20:23:04.540;0,6283515361573284;-0,12143616603922755;0,535854321560228;6,721822157255862;-2,718810722154999;-5,471990502039458
569;2026-05-10 20:23:04.550;0,36688444;0,025718752;0,52473384;6,6643305;-1,2552582;-5,5615964
570;2026-05-10 20:23:04.560;0,18150245;-0,49742478;0,6164056;5,510214;-1,8930016;-5,9097548
571;2026-05-10 20:23:04.570;-0,2374417499564799;-0,675397501536004;0,38870427769138605;5,030068316754731;-1,9004505637216351;-5,5329769982540755
572;2026-05-10 20:23:04.580;-0,6563966750217601;-0,853374779231998;0,16099712615430692;4,549910341622635;-1,9078997181391824;-5,156189550872963
573;2026-05-10 20:23:04.590;-1,0753516000870402;-1,0313520569279921;-0,06671002538277224;4,069752366490539;-1,9153488725567298;-4,779402103491849
574;2026-05-10 20:23:04.600;-1,4942958000435203;-1,209324778463996;-0,29441134769138616;3,589606683245269;-1,9227978362783649;-4,402624301745925
575;2026-05-10 20:23:04.610;-1,91324;-1,3872975;-0,52211267;3,109461;-1,9302468;-4,0258465
576;2026-05-10 20:23:04.620;-1,8251734727628801;-1,2538731171897601;-0,619656026038976;2,252541399069504;-1,44702877973851;-2,9111471020303363
577;2026-05-10 20:23:04.630;-1,73710694552576;-1,12044873437952;-0,717199382077952;1,395621798139008;-0,9638107594770201;-1,7964477040606721
578;2026-05-10 20:23:04.640;-1,64904267276288;-0,98702776718976;-0,814740241038976;0,5387241340695039;-0,4806051094385101;-0,6817768420303362
579;2026-05-10 20:23:04.650;-1,5609784;-0,8536068;-0,9122811;-0,31817353;0,0026005406;0,43289402
580;2026-05-10 20:23:04.660;-1,587147467967826;-0,8494257771868744;-0,8465292547097223;-0,28591253165160535;-0,37918367694034705;0,5459610937920159
581;2026-05-10 20:23:04.670;-1,613316535935652;-0,8452447543737488;-0,7807774094194446;-0,2536515333032107;-0,7609678944806941;0,6590281675840318
582;2026-05-10 20:23:04.680;-1,639484933983913;-0,8410638385934373;-0,7150272473548611;-0,22139136082580266;-1,1427423384701736;0,7720923468960079
583;2026-05-10 20:23:04.690;-1,665653332032174;-0,8368829228131256;-0,6492770852902776;-0,18913118834839462;-1,524516782459653;0,8851565262079841
584;2026-05-10 20:23:04.700;-1,6918224;-0,8327019;-0,58352524;-0,15687019;-1,906301;0,9982236
585;2026-05-10 20:23:04.710;-1,6693137876644233;-0,8447614629274632;-0,572972654050474;-0,15135898984239146;-1,7817990030774942;1,1265160925862456
586;2026-05-10 20:23:04.720;-1,646805751541947;-0,856820717134067;-0,5624203382436906;-0,14584793076970107;-1,6573001933653133;1,2548053009267193
587;2026-05-10 20:23:04.730;-1,6242977154194707;-0,868879971340671;-0,5518680224369072;-0,14033687169701067;-1,5328013836531325;1,383094509267193
588;2026-05-10 20:23:04.740;-1,601789103083894;-0,8809395342681342;-0,5413154364873815;-0,13482567153940214;-1,4082993867306266;1,5113870018534385
589;2026-05-10 20:23:04.750;-1,5792804907483176;-0,8929990971955974;-0,5307628505378555;-0,12931447138179358;-1,2837973898081207;1,6396794944396842
590;2026-05-10 20:23:04.760;-1,5567724546258412;-0,9050583514022013;-0,5202105347310721;-0,1238034123091032;-1,1592985800959397;1,7679687027801578
591;2026-05-10 20:23:04.770;-1,534264418503365;-0,9171176056088052;-0,5096582189242888;-0,11829235323641281;-1,0347997703837588;1,8962579111206315
592;2026-05-10 20:23:04.780;-1,5117558061677883;-0,9291771685362684;-0,4991056329747629;-0,11278115307880426;-0,910297773461253;2,024550403706877
593;2026-05-10 20:23:04.790;-1,4892471938322116;-0,9412367314637315;-0,48855304702523705;-0,10726995292119573;-0,7857957765387472;2,1528428962931225
594;2026-05-10 20:23:04.800;-1,4667391577097353;-0,9532959856703355;-0,47800073121845366;-0,10175889384850534;-0,6612969668265662;2,2811321046335964
595;2026-05-10 20:23:04.810;-1,444231121587259;-0,9653552398769394;-0,46744841541167026;-0,09624783477581494;-0,5367981571143853;2,4094213129740703
596;2026-05-10 20:23:04.820;-1,4217225092516823;-0,9774148028044025;-0,4568958294621444;-0,0907366346182064;-0,4122961601918795;2,5377138055603154
597;2026-05-10 20:23:04.830;-1,3992138969161059;-0,9894743657318658;-0,44634324351261856;-0,08522543446059787;-0,2877941632693736;2,666006298146561
598;2026-05-10 20:23:04.840;-1,3767058607936296;-1,0015336199384697;-0,43579092770583516;-0,07971437538790747;-0,16329535355719274;2,794295506487035
599;2026-05-10 20:23:04.850;-1,354197824671153;-1,0135928741450735;-0,42523861189905177;-0,07420331631521708;-0,03879654384501182;2,922584714827509
600;2026-05-10 20:23:04.860;-1,3316892123355766;-1,0256524370725368;-0,4146860259495259;-0,06869211615760853;0,08570545307749403;3,050877207413754
601;2026-05-10 20:23:04.870;-1,3091806;-1,037712;-0,40413344;-0,063180916;0,21020745;3,1791697
602;2026-05-10 20:23:04.880;2,2000747;0,13345733;-0,5565862;-0,45073128;-0,35191074;5,9877186
603;2026-05-10 20:23:04.890;1,4652144563315201;0,47763490947059206;-0,146017146601152;-1,444840565238272;-0,0005891869734400246;6,922993628326401
604;2026-05-10 20:23:04.900;0,7303354000000002;0,8218213000000001;0,2645624175;-2,4389753;0,35074136;7,8582926
605;2026-05-10 20:23:04.910;1,1116582808704;-0,32985371625152;0,0048319267422719985;-2,4389753;0,35074136;7,8582926
606;2026-05-10 20:23:04.920;1,4929714;-1,48149925;-0,25489191499999997;-2,4389753;0,35074136;7,8582926
607;2026-05-10 20:23:04.930;1,6557209334234457;-1,2351957761798558;-0,07979151305106698;-2,0147110785212377;0,3375433151497092;6,289334462736975
608;2026-05-10 20:23:04.940;1,8184746332882773;-0,9888859969100721;0,09531337152553353;-1,590435995739381;0,3243449324251454;4,720336159631513
609;2026-05-10 20:23:04.950;1,981228333153109;-0,7425762176402884;0,27041825610213405;-1,1661609129575243;0,31114654970058164;3,1513378565260513
610;2026-05-10 20:23:04.960;2,1439778665765545;-0,49627274382014414;0,44551865805106705;-0,7418966914787621;0,2979485048502908;1,5823797192630258
611;2026-05-10 20:23:04.970;2,3067274;-0,24996927;0,62061906;-0,31763247;0,28475046;0,013421582
612;2026-05-10 20:23:04.980;2,2740424614561263;-0,24999107580365396;0,621552230617272;-0,2814979256522245;-0,1047396892534198;0,7210094013405848
613;2026-05-10 20:23:04.990;2,241357522912252;-0,25001288160730795;0,622485401234544;-0,24536338130444899;-0,49422983850683955;1,4285972206811695
614;2026-05-10 20:23:05.000;2,2086734210920946;-0,25003468685274044;0,623418547962954;-0,20922976198916837;-0,8837100169400649;2,1361669260054383
615;2026-05-10 20:23:05.010;2,1759893192719373;-0,250056492098173;0,624351694691364;-0,17309614267388776;-1,2731901953732903;2,8437366313297074
616;2026-05-10 20:23:05.020;2,143304380728063;-0,25007829790182695;0,625284865308636;-0,13696159832611224;-1,66268034462671;3,5513244506702923
617;2026-05-10 20:23:05.030;2,110619442184189;-0,2501001037054809;0,626218035925908;-0,10082705397833673;-2,05217049388013;4,258912270010877
618;2026-05-10 20:23:05.040;2,0779353403640317;-0,25012190895091346;0,627151182654318;-0,06469343466305612;-2,4416506723133553;4,966481975335146
619;2026-05-10 20:23:05.050;2,045251238543874;-0,250143714196346;0,628084329382728;-0,02855981534777549;-2,8311308507465807;5,6740516806594155
620;2026-05-10 20:23:05.060;2,0125663;-0,25016552;0,6290175;0,007574729;-3,220621;6,3816395
621;2026-05-10 20:23:05.070;-3,579958;-3,5213037;1,6120996;0,007574729;-3,220621;6,3816395
622;2026-05-10 20:23:05.080;-0,8251362749999996;-1,6616819975;0,713776885;0,007574729;-3,220621;6,3816395
623;2026-05-10 20:23:05.090;1,92968545;0,197939705;-0,18454583;0,007574729;-3,220621;6,3816395
624;2026-05-10 20:23:05.100;2,260919475;0,3436143025;-0,33592943;0,007574729;-3,220621;6,3816395
625;2026-05-10 20:23:05.110;2,5921535;0,4892889;-0,48731303;0,007574729;-3,220621;6,3816395
626;2026-05-10 20:23:05.120;2,5213283710488366;0,5564772933183715;-0,5843587918655653;0,6153164332044084;-3,153013410258817;6,1245255274006505
627;2026-05-10 20:23:05.130;2,450503242097673;0,623665686636743;-0,6814045537311305;1,2230581374088167;-3,0854058205176345;5,867411554801301
628;2026-05-10 20:23:05.140;2,3796763;0,6908558;-0,7784528;1,8308154;-3,0177965;5,610291
629;2026-05-10 20:23:05.150;2,2505066;0,7891581;-0,96909666;1,8308154;-3,0177965;5,610291
630;2026-05-10 20:23:05.160;2,1812928499999997;0,8122865;-0,98737998;1,4432738500000002;-2,6571417000000004;5,512875500000001
631;2026-05-10 20:23:05.170;2,1120791;0,8354149;-1,0056633;1,0557323;-2,2964869;5,41546
632;2026-05-10 20:23:05.180;1,8319215;0,96754202;0,043743841;-0,14941764;-1,652373;5,029533
633;2026-05-10 20:23:05.190;2,0605266;0,8298132;-0,9562094;-0,14941764;-1,652373;5,029533
634;2026-05-10 20:23:05.200;2,0084655931115347;1,217158553532809;-0,8380837896217335;-0,6561792426947654;-1,525356220668469;5,755833962582944
635;2026-05-10 20:23:05.210;1,9564045862230688;1,6045039070656182;-0,7199581792434668;-1,1629408453895307;-1,3983394413369379;6,482134925165888
636;2026-05-10 20:23:05.220;1,9043422465557673;1,9918591767664044;-0,6018295448108667;-1,6697154213473828;-1,2713194103342345;7,208454481291472
637;2026-05-10 20:23:05.230;1,8522799068884657;2,379214446467191;-0,48370091037826657;-2,176489997305235;-1,144299379331531;7,934774037417056
638;2026-05-10 20:23:05.240;1,8002189;2,7665598;-0,3655753;-2,6832516;-1,0172826;8,661075
639;2026-05-10 20:23:05.250;1,864652566984674;2,7472184300969382;-0,37796506187869067;-2,6832516;-1,0172826;8,661075
640;2026-05-10 20:23:05.260;1,929087883492337;2,727876565048469;-0,3903551409393453;-2,6832516;-1,0172826;8,661075
641;2026-05-10 20:23:05.270;1,9935232;2,7085347;-0,40274522;-2,6832516;-1,0172826;8,661075
642;2026-05-10 20:23:05.280;1,968728528250574;2,607826503832052;-0,4430871035226319;-2,2234252839014568;-0,8453516838292643;7,007241162896055
643;2026-05-10 20:23:05.290;1,9439338565011477;2,5071183076641037;-0,4834289870452638;-1,7635989678029134;-0,6734207676585287;5,35340732579211
644;2026-05-10 20:23:05.300;1,91913855;2,4064075333333332;-0,5237719033333333;-1,30376088;-0,50148545;3,6995311500000003
645;2026-05-10 20:23:05.310;1,8943432434988523;2,3056967590025628;-0,5641148196214029;-0,8439227921970867;-0,3295501323414714;2,04565497420789
646;2026-05-10 20:23:05.320;1,869548571749426;2,2049885628346146;-0,6044567031440348;-0,3840964760985432;-0,15761921617073574;0,3918211371039451
647;2026-05-10 20:23:05.330;1,8447539;2,1042803666666665;-0,6447985866666667;0,07572984;0,014311700000000002;-1,2620127
648;2026-05-10 20:23:05.340;1,91740705;2,2678274333333333;-0,43236368833333333;-1,28754688;-1,00614745;3,6265936500000002
649;2026-05-10 20:23:05.350;1,9900602;2,4313745;-0,21992879;-2,6508236;-2,0266066;8,5152
650;2026-05-10 20:23:05.360;1,94317345;2,35495375;-0,09494706450000001;-1,3660605175;-0,9611703170000001;3,3716098000000003
651;2026-05-10 20:23:05.370;1,8962867;2,278533;0,030034661;-0,081297435;0,104265966;-1,7719804
652;2026-05-10 20:23:05.380;1,9014448106819812;2,1945564167423286;-0,338829773602886;0,06491004428785369;-0,32301173538971567;-1,8724132903496944
653;2026-05-10 20:23:05.390;1,9066029213639621;2,110579833484657;-0,707694208205772;0,21111752357570737;-0,7502894367794314;-1,9728461806993889
654;2026-05-10 20:23:05.400;1,9117609;2,0266054;-1,0765492;0,35732126;-1,1775562;-2,0732765
655;2026-05-10 20:23:05.410;1,49437514260608;1,74926430001152;-0,576583344644864;0,35732126;-1,1775562;-2,0732765
656;2026-05-10 20:23:05.420;1,0769787;1,4719161;-0,07660469;0,35732126;-1,1775562;-2,0732765
657;2026-05-10 20:23:05.430;1,17653487430272;1,42511805099264;0,035823184058368006;0,35732126;-1,1775562;-2,0732765
658;2026-05-10 20:23:05.440;1,2760885;1,3783212;0,14824818;0,35732126;-1,1775562;-2,0732765
659;2026-05-10 20:23:05.450;1,4409133902144;1,32063598838016;0,22790207041715202;0,35732126;-1,1775562;-2,0732765
660;2026-05-10 20:23:05.460;1,6057425;1,2629493;0,307558;0,35732126;-1,1775562;-2,0732765
661;2026-05-10 20:23:05.470;1,7422633;1,1353289;0,47743064;-2,03652;0,41142645;-3,8432498
662;2026-05-10 20:23:05.480;1,5711292000000001;1,35211957;0,42444727;-0,5199685;1,2024446;-5,3795586
663;2026-05-10 20:23:05.490;1,6544919105915283;1,1008976875750076;0,3638617473394887;-0,43478624712905756;1,2338599971703588;-5,475904922335052
664;2026-05-10 20:23:05.500;1,7378567552957642;0,8496693737875038;0,3032746736697443;-0,34960181356452874;1,2652761985851793;-5,572253711167526
665;2026-05-10 20:23:05.510;1,8212216;0,59844106;0,2426876;-0,26441738;1,2966924;-5,6686025
666;2026-05-10 20:23:05.520;1,9252164;0,37262562;-0,10309368;-0,12173671;1,4153922;-5,7803907
667;2026-05-10 20:23:05.530;2,01607063705088;0,317929677617024;-0,19469987742566397;-0,108965428474496;1,46782557884416;-5,82803329016704
668;2026-05-10 20:23:05.540;2,1069272000000003;0,263232335;-0,28630841999999995;-0,09619382;1,5202603;-5,8756771
669;2026-05-10 20:23:05.550;2,19778376294912;0,208534992382976;-0,37791696257433594;-0,083422211525504;1,57269502115584;-5,92332090983296
670;2026-05-10 20:23:05.560;2,288638;0,15383905;-0,46952316;-0,07065093;1,6251284;-5,9709635
671;2026-05-10 20:23:05.570;2,2618354635164097;0,10270952653288863;-0,4505668915923902;-0,1322476817731259;1,6237595914525413;-6,0621406661912385
672;2026-05-10 20:23:05.580;2,235032240879103;0,05157869413322216;-0,43161013789809755;-0,19384601044328148;1,6223907478631352;-6,153320166547809
673;2026-05-10 20:23:05.590;2,2082290182417954;0,0004478617335556892;-0,4126533842038049;-0,25544433911343706;1,6210219042737293;-6,24449966690438
674;2026-05-10 20:23:05.600;2,181426481758205;-0,050681661733555684;-0,3936971157961951;-0,31704109088656296;1,6196530957262707;-6,3356768330956195
675;2026-05-10 20:23:05.610;2,1546239452746145;-0,10181118520066706;-0,3747408473885853;-0,3786378426596888;1,6182842871788121;-6,426853999286858
676;2026-05-10 20:23:05.620;2,1278207226373076;-0,15294201760033352;-0,35578409369429265;-0,4402361713298444;1,616915443589406;-6,518033499643429
677;2026-05-10 20:23:05.630;2,1010175;-0,20407285;-0,33682734;-0,5018345;1,6155466;-6,609213
678;2026-05-10 20:23:05.640;1,9949771715557187;-0,28651110651787315;-0,345212738443684;-0,4384795973020898;1,550609254139111;-6,911925983482809
679;2026-05-10 20:23:05.650;1,8889368431114373;-0,36894936303574627;-0,353598136887368;-0,37512469460417963;1,485671908278222;-7,214638966965619
680;2026-05-10 20:23:05.660;1,7828938;-0,45138973;-0,36198375;-0,31176817;1,4207329;-7,5173597
681;2026-05-10 20:23:05.670;1,69459126974208;-0,5249422064596481;-0,415981136157696;-0,31176817;1,4207329;-7,5173597
682;2026-05-10 20:23:05.680;1,606291;-0,5984928;-0,46997714;-0,31176817;1,4207329;-7,5173597
683;2026-05-10 20:23:05.690;1,5708222720073728;-0,6804185017834591;-0,557384901555108;-0,31176817;1,4207329;-7,5173597
684;2026-05-10 20:23:05.700;1,5353526360036864;-0,7623463008917296;-0,6447949007775541;-0,31176817;1,4207329;-7,5173597
685;2026-05-10 20:23:05.710;1,499883;-0,8442741;-0,7322049;-0,31176817;1,4207329;-7,5173597
686;2026-05-10 20:23:05.720;1,4194320531902003;-0,9684441737351412;-0,7410768009588095;-0,35968286445604036;1,103289308886651;-7,559061110810073
687;2026-05-10 20:23:05.730;1,3389811063804005;-1,0926142474702825;-0,7499487019176189;-0,4075975589120807;0,7858457177733024;-7,600762521620146
688;2026-05-10 20:23:05.740;1,2585281;-1,2167875;-0,75882083;-0,45551348;0,468394;-7,642465
689;2026-05-10 20:23:05.750;1,1766984893178984;-1,2839623090706618;-0,740573842869127;-0,5115727746613419;0,5139691154037017;-7,6488113826763
690;2026-05-10 20:23:05.760;1,0948709734470168;-1,3511353984882228;-0,7223273228551454;-0,5676306342231097;0,559543064099383;-7,655157602887283
691;2026-05-10 20:23:05.770;1,0130434575761353;-1,4183084879057841;-0,7040808028411639;-0,6236884937848775;0,6051170127950644;-7,661503823098267
692;2026-05-10 20:23:05.780;0,9312138468940337;-1,485483296976446;-0,685833815710291;-0,6797477884462194;0,6506921281987661;-7,667850205774567
693;2026-05-10 20:23:05.790;0,8493842362119323;-1,5526581060471079;-0,667586828579418;-0,7358070831075613;0,6962672436024678;-7,674196588450867
694;2026-05-10 20:23:05.800;0,7675567203410507;-1,619831195464669;-0,6493403085654365;-0,791864942669329;0,7418411922981492;-7,6805428086618495
695;2026-05-10 20:23:05.810;0,685729204470169;-1,6870042848822302;-0,6310937885514549;-0,8479228022310968;0,7874151409938304;-7,686889028872833
696;2026-05-10 20:23:05.820;0,6038995937880676;-1,7541790939528918;-0,612846801420582;-0,9039820968924387;0,8329902563975322;-7,693235411549133
697;2026-05-10 20:23:05.830;0,5220699831059661;-1,8213539030235537;-0,594599814289709;-0,9600413915537805;0,878565371801234;-7,699581794225433
698;2026-05-10 20:23:05.840;0,44024246723508453;-1,888526992441115;-0,5763532942757275;-1,0160992511155484;0,9241393204969152;-7,705928014436417
699;2026-05-10 20:23:05.850;0,3584149513642029;-1,955700081858676;-0,5581067742617459;-1,0721571106773162;0,9697132691925965;-7,7122742346474
700;2026-05-10 20:23:05.860;0,27658534068210144;-2,022874890929338;-0,539859787130873;-1,128216405338658;1,0152883845962983;-7,7186206173237
701;2026-05-10 20:23:05.870;0,19475573;-2,0900497;-0,5216128;-1,1842757;1,0608635;-7,724967
702;2026-05-10 20:23:05.880;0,007268024999999967;-0,7917510349999999;0,18269248000000007;-1,1842757;1,0608635;-7,724967
703;2026-05-10 20:23:05.890;-0,18021968;0,50654763;0,88699776;-1,1842757;1,0608635;-7,724967
704;2026-05-10 20:23:05.900;-0,22163279;0,46636849500000005;0,8765740799999999;-1,0903159;1,29003395;-1,0621289999999994
705;2026-05-10 20:23:05.910;-0,2630459;0,42618936;0,8661504;-0,9963561;1,5192044;5,600709
706;2026-05-10 20:23:05.920;-0,9070148547279133;-0,6081569334653162;0,6024777433688037;-0,9963561;1,5192044;5,600709
707;2026-05-10 20:23:05.930;-1,5509838094558268;-1,6425032269306323;0,3388050867376074;-0,9963561;1,5192044;5,600709
708;2026-05-10 20:23:05.940;-2,1949692499999998;-2,676876;0,07512568000000003;-0,9963561;1,5192044;5,600709
709;2026-05-10 20:23:05.950;-0,27917024;0,39755464;0,7759761;-0,9963561;1,5192044;5,600709
710;2026-05-10 20:23:05.960;-0,03809284083020801;-0,243827185207552;0,280066197728;-0,59526275906048;1,03173581467776;6,551560828940801
711;2026-05-10 20:23:05.970;0,20298455833958398;-0,885209010415104;-0,21584370454399995;-0,19416941812096006;0,54426722935552;7,5024126578816
712;2026-05-10 20:23:05.980;0,444068129169792;-1,526607255207552;-0,7117663022719999;0,2069341909395199;0,056786164677759925;8,453288828940801
713;2026-05-10 20:23:05.990;0,6851517;-2,1680055;-1,2076889;0,6080378;-0,4306949;9,404165
714;2026-05-10 20:23:06.000;1,48740735;-1,8419641;-1,1722743;0,07439465999999997;-0,50042952;9,8068735
715;2026-05-10 20:23:06.010;2,289663;-1,5159227;-1,1368597;-0,45924848;-0,57016414;10,209582
716;2026-05-10 20:23:06.020;2,65835685;-1,3523452;-1,005306475;-0,45924848;-0,57016414;10,209582
717;2026-05-10 20:23:06.030;3,0270507;-1,1887677;-0,87375325;-0,45924848;-0,57016414;10,209582
718;2026-05-10 20:23:06.040;-0,16144387;-2,901007;-0,40552455;0,86310023;1,2349775;4,676086
719;2026-05-10 20:23:06.050;3,5958848;-0,79365367;-0,063934214;-1,5994896;-2,0750394;8,800526
720;2026-05-10 20:23:06.060;3,42641410580288;-0,6030510615678399;0,05976461532474879;-1,6959813600787201;-1,3530747214704;6,827698383129728
721;2026-05-10 20:23:06.070;3,25694341160576;-0,41244845313568;0,18346344464949757;-1,79247312015744;-0,6311100429408;4,854870766259456
722;2026-05-10 20:23:06.080;3,08747705580288;-0,22185072406784004;0,30715910732474877;-1,8889624100787201;0,09083615352960009;2,882093653129728
723;2026-05-10 20:23:06.090;2,9180107;-0,031252995;0,43085477;-1,9854517;0,81278235;0,90931654
724;2026-05-10 20:23:06.100;3,0894525;0,23839511;0,36041498;-1,9854517;0,81278235;0,90931654
725;2026-05-10 20:23:06.110;2,89437461970176;0,30032591345413756;0,253455108014496;-1,5437032123584;0,53686262660608;1,5649723422868478
726;2026-05-10 20:23:06.120;2,6993017333333333;0,3622551315;0,14649797416666668;-1,1019660333333334;0,26094996666666664;2,22061136
727;2026-05-10 20:23:06.130;2,504228846964907;0,42418434954586237;0,03954084031883737;-0,6602288543082666;-0,014962693272746689;2,8762503777131516
728;2026-05-10 20:23:06.140;2,309150966666667;0,48611515299999997;-0,06741903166666662;-0,21848036666666662;-0,2908824166666667;3,5319061799999996
729;2026-05-10 20:23:06.150;2,114073086368427;0,5480459564541376;-0,1743789036521706;0,2232681209749334;-0,5668021400605867;4,187561982286848
730;2026-05-10 20:23:06.160;1,9190002000000002;0,6099751744999999;-0,28133603749999997;0,6650053;-0,8427148;4,843201
731;2026-05-10 20:23:06.170;1,785177250364545;0,9004618049788287;-0,167971530867407;0,6016644686184157;-0,7652055137052511;4,284907396999672
732;2026-05-10 20:23:06.180;1,6513508748177277;1,1909558720105855;-0,054604122066296466;0,5383220156907922;-0,6876942431473745;3,726599501500164
733;2026-05-10 20:23:06.190;1,5175244992709103;1,4814499390423423;0,05876328673481406;0,47497956276316866;-0,6101829725894978;3,1682916060006554
734;2026-05-10 20:23:06.200;1,383701549635455;1,7719365695211713;0,17212779336740705;0,41163873138158436;-0,532673686294749;2,6099980030003276
735;2026-05-10 20:23:06.210;1,2498786;2,0624232;0,2854923;0,3482979;-0,4551644;2,0517044
736;2026-05-10 20:23:06.220;1,1268728000000001;2,19801995;0,38958566;0,36611772;-0,5155877000000001;1,74189095
737;2026-05-10 20:23:06.230;1,003867;2,3336167;0,49367902;0,38393754;-0,576011;1,4320775
738;2026-05-10 20:23:06.240;1,027474265215425;2,4252213516303;0,5214879560273751;0,38393754;-0,576011;1,4320775
739;2026-05-10 20:23:06.250;1,0510815304308498;2,5168260032606002;0,5492968920547501;0,38393754;-0,576011;1,4320775
740;2026-05-10 20:23:06.260;1,0746894;2,608433;0,57710654;0,38393754;-0,576011;1,4320775
741;2026-05-10 20:23:06.270;1,8526162573363198;1,0601243169025278;0,013065450366463881;0,39911336424806404;-0,17757341506419203;1,13689492171136
742;2026-05-10 20:23:06.280;2,6305232;-0,48814473;-0,5509612;0,4142888;0,22085397;0,8417199
743;2026-05-10 20:23:06.290;1,1772863;2,7516;0,5613902;3,8589404;-1,6997762;8,254343
744;2026-05-10 20:23:06.300;1,0257935327339194;2,516359989173122;0,5807925586776097;3,8589404;-1,6997762;8,254343
745;2026-05-10 20:23:06.310;0,8743007654678389;2,281119978346244;0,6001949173552196;3,8589404;-1,6997762;8,254343
746;2026-05-10 20:23:06.320;0,7228118763669598;2,045885989586561;0,6195967793388049;3,8589404;-1,6997762;8,254343
747;2026-05-10 20:23:06.330;0,5713229872660807;1,8106520008268778;0,6389986413223901;3,8589404;-1,6997762;8,254343
748;2026-05-10 20:23:06.340;0,4198302200000001;1,5754119899999999;0,658401;3,8589404;-1,6997762;8,254343
749;2026-05-10 20:23:06.350;0,2683374527339195;1,340171979173122;0,6778033586776098;3,8589404;-1,6997762;8,254343
750;2026-05-10 20:23:06.360;0,11684856363304044;1,1049379904134389;0,6972052206611951;3,8589404;-1,6997762;8,254343
751;2026-05-10 20:23:06.370;-0,03464032546783864;0,8697040016537557;0,7166070826447805;3,8589404;-1,6997762;8,254343
752;2026-05-10 20:23:06.380;-0,18613309273391923;0,6344639908268779;0,7360094413223902;3,8589404;-1,6997762;8,254343
753;2026-05-10 20:23:06.390;-0,33762586;0,39922398;0,7554118;3,8589404;-1,6997762;8,254343
754;2026-05-10 20:23:06.400;2,072829;1,9144349;-1,2515988;1,6785704;-0,81716317;-2,0051389
755;2026-05-10 20:23:06.410;1,8819848142694766;1,7746705912048415;-1,0178087940403047;1,151043055949148;-0,7843722597832187;-2,15312384461477
756;2026-05-10 20:23:06.420;1,6911357428652618;1,6349027043975792;-0,7840128029798477;0,6235022070254259;-0,7515805101083907;-2,301112577692615
757;2026-05-10 20:23:06.430;1,500286671461047;1,4951348175903172;-0,5502168119193905;0,09596135810170384;-0,7187887604335628;-2,4491013107704593
758;2026-05-10 20:23:06.440;1,3094424857305236;1,3553705087951586;-0,31642680595969525;-0,43156598594914813;-0,6859978502167814;-2,59708625538523
759;2026-05-10 20:23:06.450;1,1185983;1,2156062;-0,0826368;-0,95909333;-0,65320694;-2,7450712
760;2026-05-10 20:23:06.460;1,2052094;1,1464384;-0,13446675;-0,95909333;-0,65320694;-2,7450712
761;2026-05-10 20:23:06.470;-1,6882321855782403;-0,8889811530368;-0,09223161839723519;-0,95909333;-0,65320694;-2,7450712
762;2026-05-10 20:23:06.480;-4,5815997;-2,9243486;-0,049997568;-0,95909333;-0,65320694;-2,7450712
763;2026-05-10 20:23:06.490;-1,6564138928576;-0,9776747877437441;-0,1263889511777792;-0,95909333;-0,65320694;-2,7450712
764;2026-05-10 20:23:06.500;1,2688468;0,96904886;-0,20278229;-0,95909333;-0,65320694;-2,7450712
765;2026-05-10 20:23:06.510;1,2900729;0,6990415;-0,172034;-1,4881724;-0,116588;-1,6921141
766;2026-05-10 20:23:06.520;1,34325499426048;0,617348528183424;-0,17611531775846398;-1,4881724;-0,116588;-1,6921141
767;2026-05-10 20:23:06.530;1,39643708852096;0,535655556366848;-0,180196635516928;-1,4881724;-0,116588;-1,6921141
768;2026-05-10 20:23:06.540;1,44962054426048;0,45396049318342396;-0,18427805775846398;-1,4881724;-0,116588;-1,6921141
769;2026-05-10 20:23:06.550;1,502804;0,37226543;-0,18835948;-1,4881724;-0,116588;-1,6921141
770;2026-05-10 20:23:06.560;1,5556611489465555;0,3667499370661422;-0,2598674931238107;-1,1975426467389727;-0,10950202046779933;-2,931537490118358
771;2026-05-10 20:23:06.570;1,608518297893111;0,3612344441322843;-0,33137550624762135;-0,9069128934779456;-0,10241604093559865;-4,1709608802367155
772;2026-05-10 20:23:06.580;1,6613768;0,35571881;-0,40288535000000003;-0,6162757;-0,09532988;-5,410416
773;2026-05-10 20:23:06.590;1,39071818561408;0,758192206593536;-0,003799516766720024;-1,0346888556198401;0,746549185914112;-6,3659522307072
774;2026-05-10 20:23:06.600;1,1200665;1,1606553;0,3952761;-1,4530913;1,5884067;-7,321464
775;2026-05-10 20:23:06.610;1,3382786091323344;0,8374694524424002;0,04116058698211421;-1,4530913;1,5884067;-7,321464
776;2026-05-10 20:23:06.620;1,556496304566167;0,5142753312212002;-0,3129639915089429;-1,4530913;1,5884067;-7,321464
777;2026-05-10 20:23:06.630;1,774714;0,19108121;-0,66708857;-1,4530913;1,5884067;-7,321464
778;2026-05-10 20:23:06.640;1,7581677078635;0,12079868808519716;-0,6664522304301672;-1,4530913;1,5884067;-7,321464
779;2026-05-10 20:23:06.650;1,7416214157270005;0,05051616617039432;-0,6658158908603343;-1,4530913;1,5884067;-7,321464
780;2026-05-10 20:23:06.660;1,7250747;-0,01976815500000001;-0,6651795349999999;-1,4530913;1,5884067;-7,321464
781;2026-05-10 20:23:06.670;1,7085279842729995;-0,09005247617039434;-0,6645431791396657;-1,4530913;1,5884067;-7,321464
782;2026-05-10 20:23:06.680;1,6919816921364998;-0,1603349980851972;-0,6639068395698328;-1,4530913;1,5884067;-7,321464
783;2026-05-10 20:23:06.690;1,6754354;-0,23061752;-0,6632705;-1,4530913;1,5884067;-7,321464
784;2026-05-10 20:23:06.700;1,6356511;-0,44115007;-0,48093238;-3,0681841;2,9442308;-5,1240425
785;2026-05-10 20:23:06.710;1,27860225483328;-0,6513396391420481;-0,51694775974096;-2,4564012817801597;2,94835637780672;-5,2277796403184
786;2026-05-10 20:23:06.720;0,92156255;-0,8615238275000001;-0,5529622175;-1,8446341249999998;2,9524818500000003;-5,331514125
787;2026-05-10 20:23:06.730;0,5645228451667199;-1,0717080158579522;-0,58897667525904;-1,2328669682198399;2,95660732219328;-5,4352486096816
788;2026-05-10 20:23:06.740;0,20747399999999994;-1,281897585;-0,624992055;-0,6210841499999998;2,9607329;-5,53898575
789;2026-05-10 20:23:06.750;-0,1495748451667201;-1,4920871541420482;-0,66100743474096;-0,009301331780159768;2,96485847780672;-5,6427228903183995
790;2026-05-10 20:23:06.760;-0,5066145500000001;-1,7022713425000002;-0,6970218925;0,6024658250000002;2,96898395;-5,746457374999999
791;2026-05-10 20:23:06.770;-0,8636542548332802;-1,9124555308579523;-0,73303635025904;1,2142329817801603;2,97310942219328;-5,850191859681599
792;2026-05-10 20:23:06.780;-1,2207031;-2,1226451;-0,76905173;1,8260158;2,977235;-5,953929
793;2026-05-10 20:23:06.790;-2,0748237101384963;-2,3899388284212413;-0,846391539915861;1,8466052180549037;1,9377747867727648;-5,764592435363991
794;2026-05-10 20:23:06.800;-2,928922455069248;-2,657225714210621;-0,9237293699579305;1,8671941090274518;0,8983411833863822;-5,575260717681996
795;2026-05-10 20:23:06.810;-3,7830212;-2,9245126;-1,0010672;1,887783;-0,14109242;-5,385929
796;2026-05-10 20:23:06.820;-3,8261195442729248;-2,9391677750718626;-0,9715524047561056;1,7658006045531345;-0,3731140484332829;-4,985463806380971
797;2026-05-10 20:23:06.830;-3,8692178885458492;-2,953822950143725;-0,9420376095122112;1,643818209106269;-0,6051356768665658;-4,584998612761942
798;2026-05-10 20:23:06.840;-3,912315129515283;-2,9684777500479083;-0,9125235698374037;1,5218389363687563;-0,8371513656221886;-4,184543670920648
799;2026-05-10 20:23:06.850;-3,9554123704847166;-2,9831325499520918;-0,8830095301625963;1,3998596636312437;-1,0691670543778116;-3,7840887290793526
800;2026-05-10 20:23:06.860;-3,9985107147576415;-2,9977877250239544;-0,8534947349187019;1,2778772681843782;-1,3011886828110943;-3,3836235354603237
801;2026-05-10 20:23:06.870;-4,041609059030566;-3,012442900095817;-0,8239799396748074;1,1558948727375127;-1,5332103112443771;-2,983158341841295
802;2026-05-10 20:23:06.880;-4,0847063;-3,0270977;-0,7944659;1,0339156;-1,765226;-2,5827034
803;2026-05-10 20:23:06.890;-4,258816;-3,1041026;-0,5485343;1,0339156;-1,765226;-2,5827034
804;2026-05-10 20:23:06.900;-3,371908652185006;-2,319481757585414;-0,18634847126458556;0,6749116538466462;-1,4324162300715775;-1,3792167364543069
805;2026-05-10 20:23:06.910;-2,4850013043700114;-1,5348609151708283;0,17583735747082888;0,31590770769329224;-1,0996064601431548;-0,17573007290861337
806;2026-05-10 20:23:06.920;-1,5981166610925033;-0,7502601587927072;0,5380139143677073;-0,04308704807667701;-0,7668052100357887;1,0277257817728467
807;2026-05-10 20:23:06.930;-0,7112320178149948;0,03434059758541406;0,9001904712645856;-0,40208180384664627;-0,4340039599284226;2,231181636454307
808;2026-05-10 20:23:06.940;0,17567533;0,81896144;1,2623763;-0,76108575;-0,10119419;3,4346683
809;2026-05-10 20:23:06.950;-0,8967536158864036;-0,41177874436362405;0,716800462291551;-0,37639115462960915;-0,3190964454842261;3,5633187289392168
810;2026-05-10 20:23:06.960;-1,9691551079432015;-1,6424874221818122;0,17123859114577544;0,008293592685195379;-0,5369931227421131;3,691965864469608
811;2026-05-10 20:23:06.970;-3,0415566;-2,8731961;-0,37432328;0,39297834;-0,7548898;3,820613
812;2026-05-10 20:23:06.980;-1,7670616616736;-2,2651638672870402;-0,216016696201664;0,050431270453632;-1,00295225015872;5,228234767328
813;2026-05-10 20:23:06.990;-0,4925667233471999;-1,65713163457408;-0,057710112403328;-0,292115799092736;-1,25101470031744;6,635856534656001
814;2026-05-10 20:23:07.000;0,7818955883264;-1,0491149672870401;0,10059241879833598;-0,634654099546368;-1,49907080015872;8,043442267328
815;2026-05-10 20:23:07.010;2,0563579;-0,4410983;0,25889495;-0,9771924;-1,7471269;9,451028
816;2026-05-10 20:23:07.020;2,0399890346981766;-0,2859957040390143;0,17748534397461216;-0,780840705768986;-1,5360968318711739;8,894436364901368
817;2026-05-10 20:23:07.030;2,023620169396353;-0,13089310807802865;0,09607573794922433;-0,584489011537972;-1,3250667637423474;8,337844729802734
818;2026-05-10 20:23:07.040;2,007251723132118;0,02420551730732378;0,014668215983074783;-0,3881423438459906;-1,114042097914116;7,7812673432675785
819;2026-05-10 20:23:07.050;1,9908832768678824;0,17930414269267622;-0,06673930598307476;-0,19179567615400925;-0,9030174320858843;7,224689956732423
820;2026-05-10 20:23:07.060;1,974514411566059;0,3344067386536619;-0,1481489120084626;0,004556018077004724;-0,691987363957058;6,6680983216337895
821;2026-05-10 20:23:07.070;1,9581455462642354;0,4895093346146476;-0,22955851803385044;0,2009077123080187;-0,4809572958282317;6,111506686535157
822;2026-05-10 20:23:07.080;1,9417771;0,64460796;-0,31096604;0,39725438;-0,26993263;5,5549293
823;2026-05-10 20:23:07.090;1,79253221035904;0,34145024546841596;-0,15686293984493055;-0,29849475429708805;0,19237298741235198;1,4478293715520005
824;2026-05-10 20:23:07.100;1,6432835;0,03828477;-0,0027558946;-0,9942617;0,65469044;-2,6593757
825;2026-05-10 20:23:07.110;2,0172810371072;0,623480075404032;0,02823733190822144;-0,5020987388947328;0,543703534385792;0,8265977698892801
826;2026-05-10 20:23:07.120;2,391269;1,2086604;0,059229765;-0,009948377;0,43271947;4,312482
827;2026-05-10 20:23:07.130;1,70235129325952;0,7463220555065601;0,155859091253792;-0,1647265590639104;0,3306451980674048;3,83871836425216
828;2026-05-10 20:23:07.140;1,01341595;0,28397187499999993;0,25249089124999996;-0,3195087035;0,228568313;3,3649426
829;2026-05-10 20:23:07.150;0,3244806067404802;-0,17837830550656011;0,349122691246208;-0,4742908479360896;0,12649142793259519;2,89116683574784
830;2026-05-10 20:23:07.160;-0,36443709999999996;-0,64071665;0,4457520175;-0,62906903;0,024417156;2,4174032
831;2026-05-10 20:23:07.170;0,08790698793724916;-0,06269260904194321;0,4154516412798241;-0,62906903;0,024417156;2,4174032
832;2026-05-10 20:23:07.180;0,5402626560313755;0,5153462295209714;0,38515048936008794;-0,62906903;0,024417156;2,4174032
833;2026-05-10 20:23:07.190;0,9926183241255018;1,0933850680838861;0,35484933744035185;-0,62906903;0,024417156;2,4174032
834;2026-05-10 20:23:07.200;1,444962412062751;1,671409109041943;0,32454896122017596;-0,62906903;0,024417156;2,4174032
835;2026-05-10 20:23:07.210;1,8973065;2,2494331499999998;0,294248585;-0,62906903;0,024417156;2,4174032
836;2026-05-10 20:23:07.220;1,8053513;2,411005575;0,1951108275;0,22639538499999992;0,42580797800000003;1,6793383499999999
837;2026-05-10 20:23:07.230;1,7133961;2,572578;0,09597307;1,0818598;0,8271988;0,9412735
838;2026-05-10 20:23:07.240;1,7055882;2,9085152;-0,029835511;1,0818598;0,8271988;0,9412735
839;2026-05-10 20:23:07.250;1,319136281647872;2,87790149186048;0,3697259800474496;1,0818598;0,8271988;0,9412735
840;2026-05-10 20:23:07.260;0,93267447;2,847287;0,7692977;1,0818598;0,8271988;0,9412735
841;2026-05-10 20:23:07.270;1,0287455529254952;1,593642138068216;0,40888213565310144;1,0765189755177622;0,5808937314473022;0,33050838974220687
842;2026-05-10 20:23:07.280;1,1248141764627477;0,3400293690341083;0,04847579782655078;1,0711782877588811;0,3345949682236511;-0,2802410851288966
843;2026-05-10 20:23:07.290;1,2208828;-0,9135834;-0,31193054;1,0658376;0,088296205;-0,89099056
844;2026-05-10 20:23:07.300;1,72599;0,7766859;-0,29999613999999997;1,0658376;0,088296205;-0,89099056
845;2026-05-10 20:23:07.310;2,2310972;2,4669552;-0,28806174;1,0658376;0,088296205;-0,89099056
846;2026-05-10 20:23:07.320;2,268110017486581;2,376090842052446;-0,6416020097510816;1,1130367305622637;-0,22647706390039;-1,1855414598001486
847;2026-05-10 20:23:07.330;2,3051228349731625;2,2852264841048924;-0,9951422795021632;1,1602358611245276;-0,5412503328007799;-1,480092359600297
848;2026-05-10 20:23:07.340;2,3421366;2,1943598;-1,3486916;1,2074362;-0,85603166;-1,7746508
849;2026-05-10 20:23:07.350;1,977798397463657;1,4836263745469707;-1,199282864391615;1,2074362;-0,85603166;-1,7746508
850;2026-05-10 20:23:07.360;1,6134695218659143;0,7729111436367426;-1,0498779535979037;1,2074362;-0,85603166;-1,7746508
851;2026-05-10 20:23:07.370;1,2491406462681713;0,062195912726514604;-0,9004730428041925;1,2074362;-0,85603166;-1,7746508
852;2026-05-10 20:23:07.380;0,8848024437318286;-0,6485375127265148;-0,7510643071958074;1,2074362;-0,85603166;-1,7746508
853;2026-05-10 20:23:07.390;0,5204642411954856;-1,3592709381795443;-0,6016555715874223;1,2074362;-0,85603166;-1,7746508
854;2026-05-10 20:23:07.400;0,15613536559774288;-2,069986169089772;-0,4522506607937111;1,2074362;-0,85603166;-1,7746508
855;2026-05-10 20:23:07.410;-0,20819351;-2,7807014;-0,30284575;1,2074362;-0,85603166;-1,7746508
856;2026-05-10 20:23:07.420;1,1215475950000002;-0,37582520000000014;-0,732035525;0,36503559999999996;-0,76021308;-1,9649528
857;2026-05-10 20:23:07.430;2,4512887;2,029051;-1,1612253;-0,477365;-0,6643945;-2,1552548
858;2026-05-10 20:23:07.440;2,3140095714635582;1,8972709245377046;-0,9629132589510782;-0,707833766641351;-0,760730021259696;-2,2084810791299376
859;2026-05-10 20:23:07.450;2,1767304429271164;1,7654908490754093;-0,7646012179021563;-0,9383025332827021;-0,857065542519392;-2,2617073582598755
860;2026-05-10 20:23:07.460;2,0394478;1,6337074;-0,5662841;-1,1687772;-0,95340353;-2,314935
861;2026-05-10 20:23:07.470;1,5934478;1,4012263;-0,13758776;-1,1687772;-0,95340353;-2,314935
862;2026-05-10 20:23:07.480;1,5294897;1,3679975;-0,08055744000000001;-1,2145834;-0,521172755;-2,6167722
863;2026-05-10 20:23:07.490;1,4655316;1,3347687;-0,02352712;-1,2603896;-0,08894198;-2,9186094
864;2026-05-10 20:23:07.500;1,418642433217565;1,1917658630580776;-0,05178431112494453;-1,162973202057378;-0,06410282370857938;-3,2068646264131138
865;2026-05-10 20:23:07.510;1,37175326643513;1,0487630261161551;-0,08004150224988907;-1,0655568041147558;-0,039263667417158754;-3,495119852826228
866;2026-05-10 20:23:07.520;1,3248653;0,9057638499999999;-0,10829797000000001;-0,9681429;-0,014425147;-3,7833677000000003
867;2026-05-10 20:23:07.530;1,27797733356487;0,7627646738838447;-0,13655443775011095;-0,8707289958852442;0,010413373417158756;-4,0716155471737725
868;2026-05-10 20:23:07.540;1,2310881667824352;0,6197618369419223;-0,1648116288750555;-0,7733125979426221;0,03525252970857938;-4,359870773586886
869;2026-05-10 20:23:07.550;1,184199;0,476759;-0,19306882;-0,6758962;0,060091686;-4,648126
870;2026-05-10 20:23:07.560;1,25772175;0,43303468;-0,23007667999999998;0,21093174999999995;-0,5012411070000001;-3,1363305
871;2026-05-10 20:23:07.570;1,3312445;0,38931036;-0,26708454;1,0977597;-1,0625739;-1,624535
872;2026-05-10 20:23:07.580;1,4110652973545028;0,3661561209036265;-0,3072013267906386;1,0977597;-1,0625739;-1,624535
873;2026-05-10 20:23:07.590;1,4908860947090055;0,343001881807253;-0,34731811358127723;1,0977597;-1,0625739;-1,624535
874;2026-05-10 20:23:07.600;1,5707048486772512;0,31984823545181323;-0,3874338733953193;1,0977597;-1,0625739;-1,624535
875;2026-05-10 20:23:07.610;1,6505236026454972;0,29669458909637353;-0,4275496332093614;1,0977597;-1,0625739;-1,624535
876;2026-05-10 20:23:07.620;1,7303444;0,27354035;-0,46766642;1,0977597;-1,0625739;-1,624535
877;2026-05-10 20:23:07.630;1,802719690126094;0,24079552044137464;-0,4674865712870809;0,7838140724865812;-1,0127073393032828;-1,6330484301960104
878;2026-05-10 20:23:07.640;1,8750931274684763;0,20805152913965633;-0,4673067271782298;0,4698764818783545;-0,9628420551741794;-1,6415616424509973
879;2026-05-10 20:23:07.650;1,947466564810859;0,17530753783793798;-0,4671268830693788;0,1559388912701278;-0,9129767710450759;-1,6500748547059845
880;2026-05-10 20:23:07.660;2,019841854936953;0,14256270827931267;-0,4669470343564596;-0,15800673624329087;-0,8631102103483587;-1,6585882849019948
881;2026-05-10 20:23:07.670;2,092217145063047;0,10981787872068732;-0,4667671856435404;-0,4719523637567095;-0,8132436496516414;-1,6671017150980052
882;2026-05-10 20:23:07.680;2,1645905824054292;0,07707388741896899;-0,4665873415346894;-0,7858899543649362;-0,763378365522538;-1,6756149273529921
883;2026-05-10 20:23:07.690;2,236964019747812;0,04432989611725067;-0,46640749742583837;-1,099827544973163;-0,7135130813934345;-1,6841281396079792
884;2026-05-10 20:23:07.700;2,309339309873906;0,011585066558625326;-0,46622764871291916;-1,4137731724865816;-0,6636465206967173;-1,6926415698039896
885;2026-05-10 20:23:07.710;2,3817146;-0,021159763;-0,4660478;-1,7277188;-0,61377996;-1,701155
886;2026-05-10 20:23:07.720;2,305298942506349;-0,14445856780407756;-0,3755087631316048;-1,798641273744573;-0,1769704009871385;-2,6466669978332105
887;2026-05-10 20:23:07.730;2,2288832850126976;-0,26775737260815513;-0,28496972626320966;-1,8695637474891456;0,259839158025723;-3,592178995666421
888;2026-05-10 20:23:07.740;2,1524656712531747;-0,3910593339020388;-0,1944283715658024;-1,9404880368722863;0,6966598995064308;-4,537715198916605
889;2026-05-10 20:23:07.750;2,0760480574936513;-0,5143612951959224;-0,10388701686839516;-2,011412326255427;1,1334806409871385;-5,48325140216679
890;2026-05-10 20:23:07.760;1,9996324;-0,6376601;-0,01334798;-2,0823348;1,5702902;-6,4287634
891;2026-05-10 20:23:07.770;1,7285725;-0,8802959;0,026927326;0,362086;-0,2395988;0,8209505
892;2026-05-10 20:23:07.780;1,275483400427007;-1,1676036619938253;-0,0435745011294691;0,3609201080614194;-0,15485172620107213;-1,0234624865472346
893;2026-05-10 20:23:07.790;0,8223943008540139;-1,4549114239876506;-0,1140763282589382;0,35975421612283875;-0,07010465240214424;-2,867875473094469
894;2026-05-10 20:23:07.800;0,3693168002135035;-1,7422118309969126;-0,18457635056473454;0,35858835403070966;0,014640251899463963;-4,712241243273618
895;2026-05-10 20:23:07.810;-0,08376070042700687;-2,0295122380061748;-0,25507637287053087;0,3574224919385806;0,09938515620107216;-6,5566070134527665
896;2026-05-10 20:23:07.820;-0,5368498;-2,31682;-0,3255782;0,3562566;0,18413223;-8,40102
897;2026-05-10 20:23:07.830;-2,6005073;-3,290629;-0,1498326;0,3562566;0,18413223;-8,40102
898;2026-05-10 20:23:07.840;-0,31887642;0,39284334;0,87861097;0,3562566;0,18413223;-8,40102
899;2026-05-10 20:23:07.850;-3,3410149;-3,5462708;-0,082186766;0,028850293;-0,004310963;-5,5168986
900;2026-05-10 20:23:07.860;-4,112559;-3,853948;0,23564409;-1,7666746;1,188063;2,5951824
901;2026-05-10 20:23:07.870;-3,9282845878379695;-3,7717637493822727;0,2220346769348822;-1,6096699801925243;1,091370668759113;2,2473719434072357
902;2026-05-10 20:23:07.880;-3,7440148930405077;-3,6895816026544317;0,20842561226627945;-1,452669379651869;0,9946808128102218;1,899570390648191
903;2026-05-10 20:23:07.890;-3,559745198243046;-3,6073994559265907;0,19481654759767666;-1,2956687791112136;0,8979909568613307;1,5517688378891463
904;2026-05-10 20:23:07.900;-3,3754707860810154;-3,5252152053088635;0,18120713453255888;-1,1386641593037379;0,8012986256204436;1,2039583812963819
905;2026-05-10 20:23:07.910;-3,1911963739189844;-3,443030954691136;0,16759772146744112;-0,9816595394962622;0,7046062943795565;0,8561479247036176
906;2026-05-10 20:23:07.920;-3,006926679121523;-3,360848807963295;0,15398865679883833;-0,8246589389556068;0,6079164384306653;0,5083463719445729
907;2026-05-10 20:23:07.930;-2,822656984324061;-3,278666661235454;0,14037959213023554;-0,6676583384149516;0,5112265824817742;0,1605448191855282
908;2026-05-10 20:23:07.940;-2,6383825721620306;-3,196482410617727;0,12677017906511776;-0,5106537186074758;0,41453425124088705;-0,18726563740723617
909;2026-05-10 20:23:07.950;-2,4541081599999996;-3,1142981599999997;0,113160766;-0,35364909879999995;0,31784191999999994;-0,5350760940000001
910;2026-05-10 20:23:07.960;-1,4904186799999999;-2,85679988;-0,38153461699999996;-0,5246337743999999;0,53630479;-1,2184719970000002
911;2026-05-10 20:23:07.970;-0,5267292;-2,5993016;-0,87623;-0,69561845;0,75476766;-1,9018679
912;2026-05-10 20:23:07.980;0,44180004999999994;-2,3364985000000003;-0,603488195;-0,69561845;0,75476766;-1,9018679
913;2026-05-10 20:23:07.990;1,4103293;-2,0736954;-0,33074639;-0,69561845;0,75476766;-1,9018679
914;2026-05-10 20:23:08.000;0,5069323386291199;-2,16173754804608;-0,491248100551808;-0,8159224725888;0,5744469066351872;1,23334894371072
915;2026-05-10 20:23:08.010;-0,39646462274176003;-2,24977969609216;-0,651749811103616;-0,9362264951776;0,39412615327037437;4,368565787421439
916;2026-05-10 20:23:08.020;-1,29988471137088;-2,33782409804608;-0,812255630551808;-1,0565335975888002;0,21380078363518715;7,5038628937107195
917;2026-05-10 20:23:08.030;-2,2033048;-2,4258685;-0,97276145;-1,1768407;0,033475414;10,63916
918;2026-05-10 20:23:08.040;1,8085151;0,21615368;-0,11265976;-1,1768407;0,033475414;10,63916
919;2026-05-10 20:23:08.050;2,9254653;-1,4897255;-0,02014839;-1,6442049;0,58922315;10,377797
920;2026-05-10 20:23:08.060;3,1145328466890807;-1,3096796802953374;-0,07283233956394854;-1,6442049;0,58922315;10,377797
921;2026-05-10 20:23:08.070;3,3036003933781615;-1,1296338605906748;-0,12551628912789706;-1,6442049;0,58922315;10,377797
922;2026-05-10 20:23:08.080;3,4926631;-0,94959265;-0,17819889;-1,6442049;0,58922315;10,377797
923;2026-05-10 20:23:08.090;2,2307928695275967;-0,4965305256925624;0,12316371334573509;-1,6418952727514762;0,23400235584582038;9,982998737976583
924;2026-05-10 20:23:08.100;0,968890334763798;-0,04345680284628118;0,4245340316728676;-1,639585586375738;-0,12122753207708986;9,588190368988291
925;2026-05-10 20:23:08.110;-0,2930122;0,40961692;0,72590435;-1,6372759;-0,47645742;9,193382
926;2026-05-10 20:23:08.120;3,4965703;-0,8890293;-0,17466202;0,49363148;-0,086795226;0,10658725
927;2026-05-10 20:23:08.130;3,3489180233066667;-0,5184103273169067;-0,04807993027148801;0,49363148;-0,086795226;0,10658725
928;2026-05-10 20:23:08.140;3,201261966666667;-0,14778186666666673;0,07850539999999998;0,49363148;-0,086795226;0,10658725
929;2026-05-10 20:23:08.150;3,0536059100266666;0,22284659398357326;0,20509073027148797;0,49363148;-0,086795226;0,10658725
930;2026-05-10 20:23:08.160;2,905953633333333;0,5934655666666666;0,33167282;0,49363148;-0,086795226;0,10658725
931;2026-05-10 20:23:08.170;2,75830135664;0,9640845393497599;0,45825490972851196;0,49363148;-0,086795226;0,10658725
932;2026-05-10 20:23:08.180;2,6106453;1,334713;0,58484024;0,49363148;-0,086795226;0,10658725
933;2026-05-10 20:23:08.190;2,4578374218105083;1,4800410544860425;0,5287193618993772;0,526252160044983;-0,1302196518006122;0,3430179871710851
934;2026-05-10 20:23:08.200;2,305033455452627;1,6253653886215107;0,47259992047484434;0,5588720050112458;-0,17364296595015305;0,5794426717927713
935;2026-05-10 20:23:08.210;2,1522294890947458;1,770689722756979;0,41648047905031144;0,5914918499775086;-0,21706628009969392;0,8158673564144574
936;2026-05-10 20:23:08.220;1,999421610905254;1,9160177772430214;0,3603596009496886;0,6241125300224915;-0,2604907059003061;1,0522980935855426
937;2026-05-10 20:23:08.230;1,8466137327157626;2,0613458317290636;0,3042387228490658;0,6567332100674744;-0,30391513170091833;1,2887288307566276
938;2026-05-10 20:23:08.240;1,6938097663578813;2,206670165864532;0,2481192814245329;0,6893530550337372;-0,3473384458504592;1,5251535153783138
939;2026-05-10 20:23:08.250;1,5410058;2,3519945;0,19199984;0,7219729;-0,39076176;1,7615782
940;2026-05-10 20:23:08.260;1,7608173;2,7683166;0,1159315885;0,8574453700000001;-0,04050908999999996;1,175487935
941;2026-05-10 20:23:08.270;1,9806288;3,1846387;0,039863337;0,99291784;0,30974358;0,58939767
942;2026-05-10 20:23:08.280;1,9854191591217456;3,1682970727836706;0,08031987609978068;0,9148441095710276;0,40219287442258955;0,30585390960439296
943;2026-05-10 20:23:08.290;1,9902095182434913;3,151955445567341;0,12077641519956138;0,8367703791420551;0,49464216884517914;0,022310149208785903
944;2026-05-10 20:23:08.300;1,995;3,1356134;0,16123399;0,75869465;0,58709383;-0,26124087
945;2026-05-10 20:23:08.310;2,0383595549952;3,00430161923072;0,143873485288384;0,9532577028752;0,5313298487301761;-0,557352867685056
946;2026-05-10 20:23:08.320;2,081718;2,8729932000000002;0,126513425;1,147815775;0,475567295;-0,8534572850000001
947;2026-05-10 20:23:08.330;2,1250764450048;2,74168478076928;0,109153364711616;1,3423738471248;0,41980474126982403;-1,149561702314944
948;2026-05-10 20:23:08.340;2,168436;2,610373;0,09179286;1,5369369;0,36404076;-1,4456737
949;2026-05-10 20:23:08.350;2,1393545134760226;2,5406026140933484;0,08736344316133303;1,3160202723033598;0,30548546121605485;-1,5268163457554285
950;2026-05-10 20:23:08.360;2,110273771428571;2,4708340142857144;0,08293413971428572;1,0951092999999998;0,24693166142857143;-1,6079569142857142
951;2026-05-10 20:23:08.370;2,08119302938112;2,40106541447808;0,0785048362672384;0,8741983276966399;0,188377861641088;-1,689097482816
952;2026-05-10 20:23:08.380;2,052111542857143;2,3312950285714287;0,07407541942857143;0,6532816999999999;0,12982256285714286;-1,7702401285714284
953;2026-05-10 20:23:08.390;2,0230300563331656;2,261524642664777;0,06964600258990446;0,4323650723033599;0,0712672640731977;-1,8513827743268572
954;2026-05-10 20:23:08.400;1,9939493142857143;2,191756042857143;0,06521669914285715;0,21145409999999987;0,012713464285714265;-1,932523342857143
955;2026-05-10 20:23:08.410;1,9648685722382628;2,1219874430495085;0,060787395695809834;-0,009456872303360139;-0,04584033550176917;-2,0136639113874284
956;2026-05-10 20:23:08.420;1,9357870857142856;2,0522170571428573;0,05635797885714286;-0,23037350000000015;-0,10439563428571431;-2,094806557142857
957;2026-05-10 20:23:08.430;1,9067055991903086;1,9824466712362057;0,05192856201847589;-0,4512901276966402;-0,16295093306965946;-2,175949202898286
958;2026-05-10 20:23:08.440;1,877624857142857;1,9126780714285714;0,047499258571428574;-0,6722011000000002;-0,2215047328571429;-2,2570897714285714
959;2026-05-10 20:23:08.450;1,8485441150954058;1,842909471620937;0,04306995512438126;-0,8931120723033602;-0,2800585326446263;-2,338230339958857
960;2026-05-10 20:23:08.460;1,8194626285714286;1,7731390857142857;0,03864053828571429;-1,1140287000000002;-0,3386138314285715;-2,419372985714286
961;2026-05-10 20:23:08.470;1,7903811420474516;1,7033686998076343;0,03421112144704732;-1,3349453276966403;-0,39716913021251665;-2,5005156314697143
962;2026-05-10 20:23:08.480;1,7613004;1,6336001;0,029781818;-1,5558563;-0,45572293;-2,5816562
963;2026-05-10 20:23:08.490;1,2632598;1,3505533;0,49213657;-1,5558563;-0,45572293;-2,5816562
964;2026-05-10 20:23:08.500;1,1034375;1,1949462;0,4583083;-1,5558563;-0,45572293;-2,5816562
965;2026-05-10 20:23:08.510;1,1749413521900745;1,0914289599970304;0,3771357800040346;-1,2411457804055286;-0,4802101547459719;-2,7178246943475344
966;2026-05-10 20:23:08.520;1,246443373904963;0,9879143700014847;0,29596533799798275;-0,9264433172972358;-0,5046967526270141;-2,8539897028262327
967;2026-05-10 20:23:08.530;1,3179453956198512;0,8843997800059391;0,2147948959919309;-0,611740854188943;-0,5291833505080563;-2,990154711304931
968;2026-05-10 20:23:08.540;1,3894492478099256;0,7808825400029695;0,13362237599596546;-0,2970303345944716;-0,5536705752540282;-3,1263232056524655
969;2026-05-10 20:23:08.550;1,4609531;0,6773653;0,052449856;0,017680185;-0,5781578;-3,2624917
970;2026-05-10 20:23:08.560;0,9358443875;-0,08819565000000004;-0,07860302825000001;0,03484986125;-0,48034081500000003;-3,73386585
