id;timestamp;acc_x;acc_y;acc_z;gyro_x;gyro_y;gyro_z
0;2026-05-10 20:05:32.220;-0,1807156;0,65227133;0,72767323;0,53876567;0,080564395;0,7205417
1;2026-05-10 20:05:32.230;-0,14965786;0,66328514;0,63555044;0,6691767;-0,06421066;0,5975833
2;2026-05-10 20:05:32.240;-0,15398451;0,6539343;0,47792168;0,6691767;-0,06421066;0,5975833
3;2026-05-10 20:05:32.250;-0,15831116;0,64458346;0,32029292;0,6691767;-0,06421066;0,5975833
4;2026-05-10 20:05:32.260;-0,180692537651978;0,6159989060815954;0,3711202253874543;0,5848911207722634;-0,41688072607937676;0,6192284730364457
5;2026-05-10 20:05:32.270;-0,20307391530395602;0,5874143521631907;0,42194753077490865;0,5006055415445267;-0,7695507921587535;0,6408736460728914
6;2026-05-10 20:05:32.280;-0,22545472;0,5588305299999999;0,47277353499999997;0,41632211999999996;-1,1222118300000001;0,662518265
7;2026-05-10 20:05:32.290;-0,24783552469604395;0,5302467078368092;0,5235995392250913;0,3320386984554732;-1,4748728678412466;0,6841628839271086
8;2026-05-10 20:05:32.300;-0,270216902348022;0,5016621539184046;0,5744268446125456;0,24775311922773657;-1,8275429339206233;0,7058080569635543
9;2026-05-10 20:05:32.310;-0,29259828;0,4730776;0,62525415;0,16346754;-2,180213;0,72745323
10;2026-05-10 20:05:32.320;-0,09223070000000001;0,46227761;0,6849393549999999;0,16798794;-1,0697908680000001;3,4119703649999997
11;2026-05-10 20:05:32.330;0,10813688;0,45147762;0,74462456;0,17250834;0,040631264;6,0964875
12;2026-05-10 20:05:32.340;0,10972911;0,44301565;0,73942318;0,17250834;0,040631264;6,0964875
13;2026-05-10 20:05:32.350;0,11132134;0,43455368;0,7342218;0,17250834;0,040631264;6,0964875
14;2026-05-10 20:05:32.360;0,08467029;0,34886712;0,5944766;0,17250834;0,040631264;6,0964875
15;2026-05-10 20:05:32.370;0,0835256796512;0,33763233880704;0,564956307864576;0,17250834;0,040631264;6,0964875
16;2026-05-10 20:05:32.380;0,08238104;0,32639727;0,53543526;0,17250834;0,040631264;6,0964875
17;2026-05-10 20:05:32.390;0,0806605673043085;0,28458109634643775;0,47969162865420223;1,8701260323044366;-0,3635764223895483;2,7871529214127846
18;2026-05-10 20:05:32.400;0,07894013865215425;0,24276599317321887;0,42394942432710114;3,5677002661522184;-0,7677737611947741;-0,522096939293608
19;2026-05-10 20:05:32.410;0,07721971;0,20095089;0,36820722;5,2652745;-1,1719711;-3,8313468
20;2026-05-10 20:05:32.420;0,0780581055850609;0,18950058275035456;0,36475114061020003;4,503720201783803;-1,543433343724688;-2,8542072342189204
21;2026-05-10 20:05:32.430;0,0788965011701218;0,17805027550070912;0,36129506122040006;3,7421659035676074;-1,9148955874493763;-1,877067668437841
22;2026-05-10 20:05:32.440;0,07973487529253045;0,16660026137517728;0,35783907030510004;2,980631100891902;-2,286348321862344;-0,8999531171094602
23;2026-05-10 20:05:32.450;0,0805732494149391;0,15515024724964543;0,35438307938979996;2,219096298216197;-2,657801056275312;0,07716143421892033
24;2026-05-10 20:05:32.460;0,081411645;0,14369994;0,350927;1,457542;-3,0292633;1,054301
25;2026-05-10 20:05:32.470;0,12310432987938083;0,1327534565157398;0,3253355299111676;1,5618853474370022;-3,263665000404482;1,1698205048409807
26;2026-05-10 20:05:32.480;0,16479594743969042;0,1218072532578699;0,2997447149555838;1,6662260237185011;-3,498060700202241;1,2853370524204903
27;2026-05-10 20:05:32.490;0,206487565;0,11086105;0,2741539;1,7705667;-3,7324564;1,4008536
28;2026-05-10 20:05:32.500;0,54829895;0,14794847;0,24843271;1,9212061;-3,820299;1,4876314
29;2026-05-10 20:05:32.510;0,617165728983488;0,200215221505856;0,341952742041088;2,10738708308608;-2,68723417195584;0,23851381149951997
30;2026-05-10 20:05:32.520;0,686030745;0,252480635;0,43547038;2,2935632999999997;-1,55419835;-1,0105718
31;2026-05-10 20:05:32.530;0,754895761016512;0,304746048494144;0,5289880179589119;2,47973951691392;-0,4211625280441601;-2,25965741149952
32;2026-05-10 20:05:32.540;0,82376254;0,3570128;0,62250805;2,6659205;0,7119023;-3,508775
33;2026-05-10 20:05:32.550;0,856293786394624;0,397245189968;0,65526291925696;1,8620989112153599;-1,1265027312832003;-0,21444133306880006
34;2026-05-10 20:05:32.560;0,8888242;0,43747655;0,68801695;1,0582979;-2,9648607;3,079808
35;2026-05-10 20:05:32.570;0,8991173909939584;0,47981585739990446;0,5720500791932621;1,3100922359883265;-3,29258137349558;3,2382637623203743
36;2026-05-10 20:05:32.580;0,9094108454969793;0,5221562486999523;0,456080239596631;1,5618930179941632;-3,62031043674779;3,3967235811601872
37;2026-05-10 20:05:32.590;0,9197043;0,56449664;0,3401104;1,8136938;-3,9480395;3,5551834
38;2026-05-10 20:05:32.600;1,1211932;0,5858106;0,38390988;-1,8604163;-0,58854246;3,130911
39;2026-05-10 20:05:32.610;1,1940202237362187;0,6216890043340615;0,4337816355111445;-0,752494375442878;-1,6948703584288494;3,4435581974195313
40;2026-05-10 20:05:32.620;1,2668491118681093;0,6575683271670307;0,48365466775557225;0,35545591227856116;-2,8012265792144246;3,7562133987097654
41;2026-05-10 20:05:32.630;1,339678;0,69344765;0,5335277;1,4634062;-3,9075828;4,0688686
42;2026-05-10 20:05:32.640;0,58824383;-0,09093917500000008;-0,29610735000000005;1,4634062;-3,9075828;4,0688686
43;2026-05-10 20:05:32.650;-0,16319034;-0,875326;-1,1257424;1,4634062;-3,9075828;4,0688686
44;2026-05-10 20:05:32.660;0,9064208;0,85682344;0,2507854;1,4634062;-3,9075828;4,0688686
45;2026-05-10 20:05:32.670;0,8845992;0,90821415;0,29981068;-2,518894;1,7781589;1,3247398
46;2026-05-10 20:05:32.680;0,9504546500000001;1,055752575;0,423591125;-1,218169965;-0,7559718999999997;2,6198875000000004
47;2026-05-10 20:05:32.690;1,0163101;1,203291;0,54737157;0,08255407;-3,2901027;3,9150352
48;2026-05-10 20:05:32.700;1,0997854;1,6495165;0,7200753;0,08255407;-3,2901027;3,9150352
49;2026-05-10 20:05:32.710;1,2033793807887851;1,822759533985961;0,7461619591239702;-0,4000518458213227;-2,1837097106808048;3,291782237971359
50;2026-05-10 20:05:32.720;1,3069707096056074;1,9959981330070196;0,7722479504380149;-0,8826454070893386;-1,0773450446595976;2,6685452310143205
51;2026-05-10 20:05:32.730;1,4105620384224296;2,169236732028078;0,7983339417520595;-1,3652389683573545;0,029019621361609217;2,0453082240572824
52;2026-05-10 20:05:32.740;1,514156019211215;2,342479766014039;0,8244206008760298;-1,8478448841786772;1,1354126106808045;1,4220552620286413
53;2026-05-10 20:05:32.750;1,61775;2,5157228;0,85050726;-2,3304508;2,2418056;0,7988023
54;2026-05-10 20:05:32.760;0,9454504;2,212586;1,000831;-2,3304508;2,2418056;0,7988023
55;2026-05-10 20:05:32.770;1,6792518072217602;2,07600444826624;0,28059892908851203;-1,83965313229056;2,62587788381184;-0,68290213394048
56;2026-05-10 20:05:32.780;2,413072;1,9394194;-0,43965158;-1,3488429;3,00996;-2,1646445
57;2026-05-10 20:05:32.790;1,5525510479728002;1,71379611205888;0,45172104442355215;-0,47743244608896;2,33495396003328;-2,11087896180992
58;2026-05-10 20:05:32.800;0,692052125;1,4881786;1,3430708500000001;0,3939557;1,6599652;-2,0571148
59;2026-05-10 20:05:32.810;0,8161171695576821;1,4043583783300564;1,279670229230667;0,8044843561327517;1,476637689297739;-2,115135945855861
60;2026-05-10 20:05:32.820;0,940185390221159;1,3205360108349717;1,2162679853846667;1,215023521933624;1,2933054853511305;-2,173158577072069
61;2026-05-10 20:05:32.830;1,0642536108846359;1,2367136433398869;1,1528657415386663;1,6255626877344966;1,109973281404522;-2,231181208288277
62;2026-05-10 20:05:32.840;1,188318655442318;1,1528934216699436;1,089465120769333;2,0360913438672483;0,926645770702261;-2,289202354144139
63;2026-05-10 20:05:32.850;1,3123837;1,0690732;1,0260645;2,44662;0,74331826;-2,3472235
64;2026-05-10 20:05:32.860;2,0431252;0,6253088;0,5969796;4,975148;0,4074122;-4,2444487
65;2026-05-10 20:05:32.870;1,5578506748524676;0,3780364619636686;0,49690222722081995;4,9804748545462925;0,520692207972434;-4,410001855242611
66;2026-05-10 20:05:32.880;1,0725885725737663;0,1307704540181657;0,3968274163895901;4,985801572726854;0,633969316013783;-4,575550772378695
67;2026-05-10 20:05:32.890;0,5873264702950649;-0,11649555392733717;0,29675260555836025;4,991128290907415;0,7472464240551321;-4,74109968951478
68;2026-05-10 20:05:32.900;0,10205194514753252;-0,3637678919636686;0,19667523277918014;4,996455145453708;0,8605264320275661;-4,90665284475739
69;2026-05-10 20:05:32.910;-0,38322258;-0,61104023;0,09659786;5,001782;0,97380644;-5,072206
70;2026-05-10 20:05:32.920;-0,26539612927079476;-0,5729788401745689;0,13449232267697184;4,984941341421082;0,8783777086394515;-5,034797708029333
71;2026-05-10 20:05:32.930;-0,14756967854158956;-0,5349174503491378;0,17238678535394367;4,968100682842162;0,7829489772789031;-4,997389416058667
72;2026-05-10 20:05:32.940;-0,02974021141663581;-0,4968550861396551;0,21028221814157746;4,951259593136865;0,6875178029115613;-4,959980166423467
73;2026-05-10 20:05:32.950;0,08808925570831794;-0,4587927219301724;0,24817765092921124;4,934418503431568;0,5920866285442195;-4,922570916788267
74;2026-05-10 20:05:32.960;0,20591570643752313;-0,42073133210474134;0,28607211360618306;4,917577844852649;0,496657897183671;-4,8851626248176
75;2026-05-10 20:05:32.970;0,32374215716672833;-0,3826699422793103;0,3239665762831549;4,90073718627373;0,40122916582312246;-4,847754332846933
76;2026-05-10 20:05:32.980;0,4415716242916821;-0,34460757806982756;0,3618620090707887;4,883896096568432;0,3057979914557807;-4,810345083211733
77;2026-05-10 20:05:32.990;0,5594010914166359;-0,30654521386034483;0,3997574418584225;4,8670550068631355;0,21036681708843885;-4,7729358335765335
78;2026-05-10 20:05:33.000;0,677227542145841;-0,2684838240349138;0,4376519045353943;4,850214348284217;0,11493808572789035;-4,735527541605866
79;2026-05-10 20:05:33.010;0,7950539928750463;-0,2304224342094827;0,47554636721236615;4,833373689705297;0,01950935436734186;-4,6981192496352
80;2026-05-10 20:05:33.020;0,91288346;-0,19236007;0,5134418;4,8165326;-0,07592182;-4,66071
81;2026-05-10 20:05:33.030;1,047604;-0,1356607;0,42399776;5,163068;-0,81585413;-4,0411005
82;2026-05-10 20:05:33.040;1,1003384833266487;-0,1757729443711333;0,29524010207941154;5,076657504045671;-1,0550436455566743;-3,861879996034543
83;2026-05-10 20:05:33.050;1,1530729666532977;-0,21588518874226661;0,1664824441588231;4,990247008091341;-1,2942331611133489;-3,682659492069086
84;2026-05-10 20:05:33.060;1,2058088;-0,25599846;0,03772149;4,9038343;-1,5334288;-3,5034344
85;2026-05-10 20:05:33.070;1,3536029223207353;-0,2140459340193878;-0,1711586181748829;4,3106332761654444;-1,3109129924454932;-3,27418148746704
86;2026-05-10 20:05:33.080;1,5013932611603675;-0,17209448200969388;-0,38003337908744145;3,7174474380827225;-1,0884028812227466;-3,0449344437335197
87;2026-05-10 20:05:33.090;1,6491836;-0,13014303;-0,58890814;3,1242616;-0,86589277;-2,8156874
88;2026-05-10 20:05:33.100;0,6415582;-0,7067722;-0,120476425;1,9046953;-0,2893756;-2,4382598
89;2026-05-10 20:05:33.110;0,7922325755512238;-0,733863359157027;-0,10185346814766107;1,5205825953375;-0,0038180941836693685;-1,6466815776325077
90;2026-05-10 20:05:33.120;0,942903093887806;-0,7609538247892568;-0,08323098803691527;1,136479723834375;0,2817321014540827;-0,8551236194081271
91;2026-05-10 20:05:33.130;1,0935736122243882;-0,7880442904214865;-0,06460850792616947;0,75237685233125;0,5672822970918346;-0,06356566118374643
92;2026-05-10 20:05:33.140;1,244247987775612;-0,8151354495785135;-0,04598555107383053;0,36826414766875;0,8528398029081653;0,7280125611837458
93;2026-05-10 20:05:33.150;1,394922363326836;-0,8422266087355406;-0,027362594221491603;-0,015848556993750006;1,138397308724496;1,5195907835512381
94;2026-05-10 20:05:33.160;1,5455928816634181;-0,8693170743677703;-0,008740114110745802;-0,39995142849687504;1,423947504362248;2,311148741775619
95;2026-05-10 20:05:33.170;1,6962634;-0,89640754;0,009882366;-0,7840543;1,7094977;3,1027067
96;2026-05-10 20:05:33.180;1,7545579;-0,78982925;-0,154943642;-1,08481815;0,61290731;4,4880792000000005
97;2026-05-10 20:05:33.190;1,8128524;-0,68325096;-0,31976965;-1,385582;-0,48368308;5,8734517
98;2026-05-10 20:05:33.200;1,7337487250342858;-0,5831063044582847;-0,30040454960839247;-1,7457341914225215;-0,5777503079349173;5,5809801231578025
99;2026-05-10 20:05:33.210;1,6546450500685714;-0,48296164891656945;-0,28103944921678486;-2,105886382845043;-0,6718175358698347;5,2885085463156045
100;2026-05-10 20:05:33.220;1,5755393500228572;-0,3828144296388565;-0,26167385307226165;-2,466047794281681;-0,7658871719566115;4,996029482105202
101;2026-05-10 20:05:33.230;1,4964336499771427;-0,28266721036114356;-0,24230825692773839;-2,826209205718319;-0,8599568080433884;4,703550417894799
102;2026-05-10 20:05:33.240;1,4173299750114285;-0,18252255481942828;-0,2229431565361308;-3,1863613971408404;-0,9540240359783058;4,411078841052601
103;2026-05-10 20:05:33.250;1,3382263000457142;-0,08237789927771301;-0,20357805614452323;-3,546513588563362;-1,0480912639132232;4,118607264210403
104;2026-05-10 20:05:33.260;1,2591206;0,01776932;-0,18421246;-3,906675;-1,1421609;3,8261282
105;2026-05-10 20:05:33.270;1,3901918221521352;0,2582937039381659;-0,02481538079480116;-3,710030266383702;-1,4584718789829658;3,8736662367832655
106;2026-05-10 20:05:33.280;1,5212596889239323;0,498811930530917;0,13457761789740058;-3,513390566808149;-1,7747747605085171;3,9212030566083667
107;2026-05-10 20:05:33.290;1,6523275556957295;0,7393301571236681;0,29397061658960233;-3,316750867232596;-2,0910776420340684;3,968739876433468
108;2026-05-10 20:05:33.300;1,7833987778478648;0,979854541061834;0,4533676957948012;-3,120106133616298;-2,4073886210170343;4,016277913216734
109;2026-05-10 20:05:33.310;1,9144700000000001;1,220378925;0,612764775;-2,9234614;-2,7236996;4,0638159499999995
110;2026-05-10 20:05:33.320;2,705118;1,7654251125;0,7413095375;-2,37969535;-3,4788031500000005;4,152317224999999
111;2026-05-10 20:05:33.330;3,495766;2,3104713;0,8698543;-1,8359293;-4,2339067;4,2408185
112;2026-05-10 20:05:33.340;3,59861761648384;2,4389146940544;0,815180592685504;-1,6681093769324802;-4,16563735116352;4,069141327560319
113;2026-05-10 20:05:33.350;3,70146923296768;2,5673580881088003;0,760506885371008;-1,50028945386496;-4,09736800232704;3,8974641551206397
114;2026-05-10 20:05:33.360;3,80431821648384;2,6957981940544;0,7058345776855041;-1,33247382693248;-4,02910040116352;3,7257913775603195
115;2026-05-10 20:05:33.370;3,9071672;2,8242383;0,65116227;-1,1646582;-3,9608328;3,5541186
116;2026-05-10 20:05:33.380;2,78756135;2,45681065;0,51642512;-2,3285921000000003;-1,3045376499999997;1,0442129999999998
117;2026-05-10 20:05:33.390;1,6679555;2,089383;0,38168797;-3,492526;1,3517575;-1,4656926
118;2026-05-10 20:05:33.400;0,71701187;1,7165816;0,8102886;-3,492526;1,3517575;-1,4656926
119;2026-05-10 20:05:33.410;0,6072904859355907;1,693248531556132;0,958258307951326;-3,492526;1,3517575;-1,4656926
120;2026-05-10 20:05:33.420;0,49756629296779536;1,669914865778066;1,1062318039756631;-3,492526;1,3517575;-1,4656926
121;2026-05-10 20:05:33.430;0,3878421;1,6465812;1,2542053;-3,492526;1,3517575;-1,4656926
122;2026-05-10 20:05:33.440;0,42858730345472;1,65330132648128;1,26464471637376;-3,492526;1,3517575;-1,4656926
123;2026-05-10 20:05:33.450;0,46933250690944;1,66002145296256;1,27508413274752;-3,492526;1,3517575;-1,4656926
124;2026-05-10 20:05:33.460;0,51007875345472;1,6667417514812801;1,28552381637376;-3,492526;1,3517575;-1,4656926
125;2026-05-10 20:05:33.470;0,550825;1,67346205;1,2959635;-3,492526;1,3517575;-1,4656926
126;2026-05-10 20:05:33.480;0,59157020345472;1,68018217648128;1,3064029163737598;-3,492526;1,3517575;-1,4656926
127;2026-05-10 20:05:33.490;0,63231540690944;1,68690230296256;1,3168423327475198;-3,492526;1,3517575;-1,4656926
128;2026-05-10 20:05:33.500;0,67306165345472;1,69362260148128;1,32728201637376;-3,492526;1,3517575;-1,4656926
129;2026-05-10 20:05:33.510;0,7138079;1,7003429;1,3377217;-3,492526;1,3517575;-1,4656926
130;2026-05-10 20:05:33.520;0,9416763465972393;1,6044684217672238;1,0578990684204246;-3,2641624984721878;0,8211444335473499;0,7029755125542722
131;2026-05-10 20:05:33.530;1,1695447931944787;1,5085939435344475;0,7780764368408494;-3,035798996944376;0,2905313670946999;2,871643625108544
132;2026-05-10 20:05:33.540;1,3974190732986198;1,412717010883612;0,49824664171021227;-2,807429649236094;-0,24009528322632484;5,040367256277136
133;2026-05-10 20:05:33.550;1,625293353402761;1,3168400782327763;0,21841684657957516;-2,579060301527812;-0,7707219335473495;7,209090887445727
134;2026-05-10 20:05:33.560;1,8531618;1,2209656;-0,061405785;-2,3506968;-1,301335;9,377759
135;2026-05-10 20:05:33.570;1,57927110584576;0,9912945898265599;-0,065162751910208;0,2100263223244803;0,23333955591424033;2,0778119405183997
136;2026-05-10 20:05:33.580;1,3053734;0,7616177;-0,068919815;2,770815;1,7680534;-5,222322
137;2026-05-10 20:05:33.590;0,7849058706008959;0,29281239936896;-0,256640072788544;2,770815;1,7680534;-5,222322
138;2026-05-10 20:05:33.600;0,264451665;-0,1759809;-0,444355525;2,770815;1,7680534;-5,222322
139;2026-05-10 20:05:33.610;0,49945828;0,20015037;-0,1601157;-0,020176006;-0,83767074;-1,2570385
140;2026-05-10 20:05:33.620;0,711012788575366;0,20457190939665323;-0,15486704187869066;0,31341744162764956;-0,3545856777269003;-1,7918497303307506
141;2026-05-10 20:05:33.630;0,922567297150732;0,20899344879330647;-0,1496183837573813;0,6470108892552991;0,12849938454619939;-2,326660960661501
142;2026-05-10 20:05:33.640;1,13411639;0,213414875;-0,14436986000000002;0,980595797;0,6115720800000002;-2,8614585
143;2026-05-10 20:05:33.650;1,3456654828492678;0,21783630120669353;-0,13912133624261872;1,3141807047447007;1,094644775453801;-3,3962560393384984
144;2026-05-10 20:05:33.660;1,5572199914246339;0,22225784060334677;-0,13387267812130935;1,6477741523723504;1,5777298377269007;-3,9310672696692492
145;2026-05-10 20:05:33.670;1,7687745;0,22667938;-0,12862402;1,9813676;2,0608149;-4,4658785
146;2026-05-10 20:05:33.680;1,8105980014348861;0,30297768224615357;-0,13537556455274902;2,037968150335788;2,1148905718816935;-4,784828894921791
147;2026-05-10 20:05:33.690;1,8524215028697721;0,37927598449230715;-0,14212710910549806;2,094568700671576;2,168966243763387;-5,103779289843583
148;2026-05-10 20:05:33.700;1,894246075;0,45557623999999997;-0,1488788265;2,1511706999999998;2,2230433;-5,42273785
149;2026-05-10 20:05:33.710;1,9360706471302278;0,5318764955076928;-0,15563054389450195;2,207772699328424;2,277120356236613;-5,7416964101564165
150;2026-05-10 20:05:33.720;1,9778941485651138;0,6081747977538464;-0,16238208844725097;2,264373249664212;2,3311960281183066;-6,060646805078209
151;2026-05-10 20:05:33.730;2,01971765;0,6844731;-0,169133633;2,3209738;2,3852717;-6,3795972
152;2026-05-10 20:05:33.740;1,742058825;0,013463620000000062;-0,054801108;2,3837881999999997;2,3987107;-6,4759481
153;2026-05-10 20:05:33.750;1,4644;-0,65754586;0,059531417;2,4466026;2,4121497;-6,572299
154;2026-05-10 20:05:33.760;1,31928845;-0,763704445;0,0893952385;2,48253895;2,3905948500000003;-6,5794811
155;2026-05-10 20:05:33.770;1,1741769;-0,86986303;0,11925906;2,5184753;2,36904;-6,5866632
156;2026-05-10 20:05:33.780;0,898283026103616;-0,7575295921503999;-0,19329805567987202;2,82363693101888;2,01890069327424;-6,30692264436672
157;2026-05-10 20:05:33.790;0,622389152207232;-0,6451961543008;-0,505855171359744;3,12879856203776;1,66876138654848;-6,02718208873344
158;2026-05-10 20:05:33.800;0,346502341103616;-0,5328655921504;-0,8184042856798721;3,43395238101888;1,31863104327424;-5,74744869436672
159;2026-05-10 20:05:33.810;0,07061553;-0,42053503;-1,1309534;3,7391062;0,9685007;-5,4677153
160;2026-05-10 20:05:33.820;-0,11318302;-0,5101177;-0,7954929;1,1685153;-1,1048981;-2,297185
161;2026-05-10 20:05:33.830;-0,3487832;-0,54605466;-0,067570664;-1,7651212;0,04277802;0,20950933
162;2026-05-10 20:05:33.840;-0,7783161000000001;-0,6084073799999999;-0,114746442;-1,7651212;0,04277802;0,20950933
163;2026-05-10 20:05:33.850;-1,207849;-0,6707601;-0,16192222;-1,7651212;0,04277802;0,20950933
164;2026-05-10 20:05:33.860;-2,0351505;-1,0418618;-0,6482443;-1,7651212;0,04277802;0,20950933
165;2026-05-10 20:05:33.870;-0,9768100004150015;-1,20276940959104;-0,2791757509830399;-2,35095724860544;0,452673826599168;2,6068720008494073
166;2026-05-10 20:05:33.880;0,081503406;-1,3636729;0,08988335;-2,9367783;0,86255914;5,0041733
167;2026-05-10 20:05:33.890;0,9676815097750785;-1,152941417397504;0,40936778554687997;-2,9367783;0,86255914;5,0041733
168;2026-05-10 20:05:33.900;1,8538823;-0,94220454;0,7288604;-2,9367783;0,86255914;5,0041733
169;2026-05-10 20:05:33.910;1,8795354711418502;-0,8818334796804252;0,5628592536166981;-2,0183238219108772;1,0637815941525937;1,2806765531355864
170;2026-05-10 20:05:33.920;1,905187985570925;-0,8214639648402127;0,396862356808349;-1,0998928559554386;1,2649988970762969;-2,442724873432207
171;2026-05-10 20:05:33.930;1,9308405;-0,76109445;0,23086546;-0,18146189;1,4662162;-6,1661263
172;2026-05-10 20:05:33.940;2,107059630576;-0,576245572714656;0,216009747349312;-0,498601001828672;1,048872090563776;-3,0892503414918404
173;2026-05-10 20:05:33.950;2,2832787611520002;-0,391396695429312;0,201154034698624;-0,815740113657344;0,631527981127552;-0,01237438298368032
174;2026-05-10 20:05:33.960;2,459493380576;-0,20655255021465604;0,186298702349312;-1,132871106828672;0,21419455556377595;3,0644228085081595
175;2026-05-10 20:05:33.970;2,635708;-0,021708405;0,17144337;-1,4500021;-0,20313887;6,14122
176;2026-05-10 20:05:33.980;2,6668405734918403;0,043978249528416;0,17060673929126402;-1,3632275893004802;-0,266621672569472;5,98378055980096
177;2026-05-10 20:05:33.990;2,69797314698368;0,109664904056832;0,169770108582528;-1,27645307860096;-0,330104475138944;5,82634111960192
178;2026-05-10 20:05:34.000;2,7291049234918403;0,175349877028416;0,168933499291264;-1,1896807893004802;-0,393585652569472;5,66890570980096
179;2026-05-10 20:05:34.010;2,7602367;0,24103485;0,16809689;-1,1029085;-0,45706683;5,5114703
180;2026-05-10 20:05:34.020;2,5120968988512002;0,35802250992288;-0,02890352907308803;-1,1931431549888;-0,574179921528384;5,0423504203424
181;2026-05-10 20:05:34.030;2,2639570977024;0,47501016984575994;-0,22590394814617606;-1,2833778099776;-0,691293013056768;4,5732305406848
182;2026-05-10 20:05:34.040;2,0158236488512;0,59199483492288;-0,42289932407308806;-1,3736101549888;-0,808403106528384;4,1041226703424005
183;2026-05-10 20:05:34.050;1,7676902;0,7089795;-0,6198947;-1,4638425;-0,9255132;3,6350148
184;2026-05-10 20:05:34.060;1,69872635;0,7302984;-0,62856848;-1,4638425;-0,9255132;3,6350148
185;2026-05-10 20:05:34.070;1,6297625;0,7516173;-0,63724226;-1,4638425;-0,9255132;3,6350148
186;2026-05-10 20:05:34.080;1,5135654;0,81389632;-0,5059497049999999;-1,84259645;-1,2276122;3,4827695999999997
187;2026-05-10 20:05:34.090;1,3973683;0,87617534;-0,37465715;-2,2213504;-1,5297112;3,3305244
188;2026-05-10 20:05:34.100;1,4326945999999998;0,98423507;-0,21978037500000003;-1,3999635;-1,05486823;2,0542786499999997
189;2026-05-10 20:05:34.110;1,4680209;1,0922948;-0,0649036;-0,5785766;-0,58002526;0,7780329
190;2026-05-10 20:05:34.120;1,6922574237886048;1,3532968873044156;-0,053435761732167;-0,7242193685989596;-0,8799360568741297;1,1534249559361434
191;2026-05-10 20:05:34.130;1,9164939475772096;1,614298974608831;-0,04196792346433399;-0,8698621371979193;-1,1798468537482594;1,5288170118722866
192;2026-05-10 20:05:34.140;2,140736211894302;1,8753077436522079;-0,030499791616083502;-1,01550863429948;-1,4797653284370649;1,9042186779680716
193;2026-05-10 20:05:34.150;2,364978476211395;2,1363165126955845;-0,01903165976783301;-1,1611551314010404;-1,7796838031258706;2,279620344063857
194;2026-05-10 20:05:34.160;2,589215;2,3973186;-0,0075638215;-1,3067979;-2,0795946;2,6550124
195;2026-05-10 20:05:34.170;2,2464738;2,3709333;-0,32422128;-1,4862002;-1,5041422;0,9962863
196;2026-05-10 20:05:34.180;1,9821864781103866;2,2221719972531315;-0,22484454699606615;-1,7271681895671913;-1,2750657785728914;0,6763588999877974
197;2026-05-10 20:05:34.190;1,7178991562207735;2,0734106945062636;-0,1254678139921323;-1,9681361791343823;-1,0459893571457828;0,3564314999755948
198;2026-05-10 20:05:34.200;1,4536186;1,9246532;-0,026093625;-2,209098;-0,8169188;0,03651229
199;2026-05-10 20:05:34.210;1,045306326464;1,78421604761856;0,26149780628256003;-2,209098;-0,8169188;0,03651229
200;2026-05-10 20:05:34.220;0,6369836;1,6437753;0,5490966;-2,209098;-0,8169188;0,03651229
201;2026-05-10 20:05:34.230;0,4187837;1,5774397;0,92909867;-2,9724529;1,2522213;-1,5902742
202;2026-05-10 20:05:34.240;0,5160103936549275;1,588720570402007;1,0272299759354706;-2,5991184858277796;1,1982736603590842;-1,5515922300903684
203;2026-05-10 20:05:34.250;0,6132370873098552;1,6000014408040142;1,1253612818709413;-2,2257840716555592;1,1443260207181682;-1,5129102601807367
204;2026-05-10 20:05:34.260;0,71046627;1,6112826;1,2234951;-1,8524401;1,090377;-1,4742273
205;2026-05-10 20:05:34.270;0,845427262478592;1,637636687328;1,26685875504768;-1,142841232250752;0,913913211292416;-1,3014811388774399
206;2026-05-10 20:05:34.280;0,9803848;1,6639901;1,3102213;-0,43326053;0,73745394;-1,1287394
207;2026-05-10 20:05:34.290;1,3460195764199405;1,7511374459995903;1,2394963570544766;0,40690330768696453;0,7784393938393009;-1,1509221547428063
208;2026-05-10 20:05:34.300;1,7116637132099701;1,838287022999795;1,1687696035272384;1,2470886538434822;0,8194258969196504;-1,1731054773714031
209;2026-05-10 20:05:34.310;2,07730785;1,9254365999999998;1,0980428500000001;2,087274;0,8604124;-1,1952888
210;2026-05-10 20:05:34.320;2,184378525;1,4417221512499998;0,6629278310000001;2,4745539;0,9762062499999999;-1,46996
211;2026-05-10 20:05:34.330;2,2914491999999997;0,9580077025;0,227812812;2,8618338;1,0920001;-1,7446312
212;2026-05-10 20:05:34.340;2,245255186979361;0,7337083932044718;0,1769040935013952;2,8737580021022664;1,0897625770880586;-2,6718468545667724
213;2026-05-10 20:05:34.350;2,1990611739587225;0,5094090839089437;0,12599537500279037;2,885682204204533;1,0875250541761172;-3,5990625091335446
214;2026-05-10 20:05:34.360;2,1528683434896805;0,285115516602236;0,07508795975069758;2,8976061010511334;1,0852875885440294;-4,526254427283386
215;2026-05-10 20:05:34.370;2,1066755130206385;0,06082194929552834;0,024180544498604777;2,9095299978977334;1,0830501229119414;-5,453446345433228
216;2026-05-10 20:05:34.380;2,0604815;-0,16347736;-0,026728174;2,9214542;1,0808126;-6,380662
217;2026-05-10 20:05:34.390;1,9934303890090197;-0,3753782897295775;-0,016751594101882462;2,9214542;1,0808126;-6,380662
218;2026-05-10 20:05:34.400;1,9263809945045098;-0,5872737948647887;-0,0067752696009412295;2,9214542;1,0808126;-6,380662
219;2026-05-10 20:05:34.410;1,8593316;-0,7991693;0,0032010549;2,9214542;1,0808126;-6,380662
220;2026-05-10 20:05:34.420;1,65841082824704;-0,85316989119872;-0,034690293828055684;3,08208768108224;0,89902113559904;-6,5182698863584
221;2026-05-10 20:05:34.430;1,45749005649408;-0,9071704823974399;-0,07258164255611137;3,24272116216448;0,71722967119808;-6,6558777727168
222;2026-05-10 20:05:34.440;1,2565744282470401;-0,96116969119872;-0,1104720212780557;3,40335053108224;0,53544286059904;-6,7934821363584
223;2026-05-10 20:05:34.450;1,0556588;-1,0151689;-0,1483624;3,5639799;0,35365605;-6,9310865
224;2026-05-10 20:05:34.460;0,8244961;-0,93521035;-0,32374096;3,60894825;0,05582434499999999;-6,60104475
225;2026-05-10 20:05:34.470;0,5933334;-0,8552518;-0,49911952;3,6539166;-0,24200736;-6,271003
226;2026-05-10 20:05:34.480;0,4822994308363307;-0,8464304170818133;-0,46752581919621333;3,236004307679147;-0,3158658429326507;-5,8181772962432
227;2026-05-10 20:05:34.490;0,3712654616726614;-0,8376090341636266;-0,4359321183924266;2,8180920153582933;-0,38972432586530137;-5,3653515924864
228;2026-05-10 20:05:34.500;0,2602286500029974;-0,8287874254151467;-0,40433760877954666;2,4001690243458134;-0,46358469959931736;-4,9125142962432005
229;2026-05-10 20:05:34.510;0,14919183833333338;-0,8199658166666667;-0,37274309916666665;1,9822460333333334;-0,5374450733333334;-4,459677
230;2026-05-10 20:05:34.520;0,03815786916966406;-0,81114443374848;-0,34114939836288;1,56433374101248;-0,611303556265984;-4,0068512962432
231;2026-05-10 20:05:34.530;-0,07287609999400527;-0,8023230508302933;-0,3095556975590933;1,1464214486916267;-0,6851620391986347;-3,5540255924864
232;2026-05-10 20:05:34.540;-0,18391291166366924;-0,7935014420818134;-0,27796118794621333;0,7284984576791467;-0,7590224129326507;-3,1011882962432002
233;2026-05-10 20:05:34.550;-0,29494972333333325;-0,7846798333333334;-0,2463666783333333;0,31057546666666663;-0,8328827866666667;-2,648351
234;2026-05-10 20:05:34.560;-0,40598369249700256;-0,7758584504151467;-0,21477297752954663;-0,10733682565418674;-0,9067412695993173;-2,1955252962432
235;2026-05-10 20:05:34.570;-0,5170176616606719;-0,76703706749696;-0,18317927672575998;-0,5252491179750401;-0,9805997525319681;-1,7426995924864
236;2026-05-10 20:05:34.580;-0,6280544733303359;-0,7582154587484801;-0,15158476711287996;-0,9431721089875201;-1,054460126265984;-1,2898622962431998
237;2026-05-10 20:05:34.590;-0,739091285;-0,74939385;-0,1199902575;-1,3610951;-1,1283205;-0,837025
238;2026-05-10 20:05:34.600;-1,3969476;-0,80726236;-0,34693223;-1,3610951;-1,1283205;-0,837025
239;2026-05-10 20:05:34.610;-0,83542788754432;-0,944182092404992;-0,12226212331417599;-1,68035098847232;-1,33778786878336;1,2937111012288
240;2026-05-10 20:05:34.620;-0,2738937999999999;-1,08110533;0,10241373500000003;-1,99961505;-1,5472606;3,42450175
241;2026-05-10 20:05:34.630;0,28764028754432014;-1,218028567595008;0,32708959331417603;-2,31887911152768;-1,75673333121664;5,5552923987712
242;2026-05-10 20:05:34.640;0,84916;-1,3549483;0,5517597;-2,638135;-1,9662007;7,6860285
243;2026-05-10 20:05:34.650;1,1962589070771201;-1,15009437216384;0,5008880886649599;-2,12206083083392;-1,496036825674624;7,587946630464
244;2026-05-10 20:05:34.660;1,5433667;-0,9452351999999999;0,450015175;-1,60597345;-1,025860915;7,48986225
245;2026-05-10 20:05:34.670;1,89047449292288;-0,74037602783616;0,39914226133504;-1,0898860691660799;-0,555685004325376;7,391777869536
246;2026-05-10 20:05:34.680;2,2375734;-0,5355221;0,34827065;-0,5738119;-0,08552113;7,293696
247;2026-05-10 20:05:34.690;2,23175902442496;-0,48138114301312;0,199444989992832;-0,5738119;-0,08552113;7,293696
248;2026-05-10 20:05:34.700;2,2259445;-0,4272388;0,05061552;-0,5738119;-0,08552113;7,293696
249;2026-05-10 20:05:34.710;2,4329403995136;-0,28023440336780797;0,20411289974131203;-0,5738119;-0,08552113;7,293696
250;2026-05-10 20:05:34.720;2,639931;-0,13323377;0,35760635;-0,5738119;-0,08552113;7,293696
251;2026-05-10 20:05:34.730;2,6573095775513598;-0,10460768641856;0,374571537842816;-0,5738119;-0,08552113;7,293696
252;2026-05-10 20:05:34.740;2,6746886;-0,07598087;0,39153716;-0,5738119;-0,08552113;7,293696
253;2026-05-10 20:05:34.750;2,672919202352;0,17795246530508801;0,18255167502003197;-0,65884106335936;0,20380578083705603;6,66980261426688
254;2026-05-10 20:05:34.760;2,67114985;0,4318793;-0,026428460000000067;-0,74386805;0,4931252850000001;6,0459252
255;2026-05-10 20:05:34.770;2,669380497648;0,685806134694912;-0,23540859502003209;-0,82889503664064;0,7824447891629441;5,4220477857331195
256;2026-05-10 20:05:34.780;2,6676111;0,93973947;-0,44439408;-0,9139242;1,0717717;4,7981544
257;2026-05-10 20:05:34.790;1,3809814;0,21869287;-0,26060238;-0,9139242;1,0717717;4,7981544
258;2026-05-10 20:05:34.800;1,6893164999999999;1,0858714925000001;-0,3617297025;-0,9139242;1,0717717;4,7981544
259;2026-05-10 20:05:34.810;1,9976515999999997;1,953050115;-0,46285702500000003;-0,9139242;1,0717717;4,7981544
260;2026-05-10 20:05:34.820;1,9536495499999997;1,4137648225;-0,5075134125;-0,9139242;1,0717717;4,7981544
261;2026-05-10 20:05:34.830;1,9096475;0,87447953;-0,5521698;-0,9139242;1,0717717;4,7981544
262;2026-05-10 20:05:34.840;1,6615788;1,0409306;-0,7586549;0,22415264;0,22961551;6,0629597
263;2026-05-10 20:05:34.850;1,7735894;0,115626514;0,35573685;0,22415264;0,22961551;6,0629597
264;2026-05-10 20:05:34.860;1,848180886505871;0,6642868411748644;0,10439690759327747;-0,6160327428234972;-0,155075792657098;5,0863115993762165
265;2026-05-10 20:05:34.870;1,9227723730117419;1,2129471683497288;-0,14694303481344506;-1,4562181256469944;-0,539767095314196;4,109663498752432
266;2026-05-10 20:05:34.880;1,9973619500000002;1,7615934500000001;-0,39827654300000004;-2,296382;-0,92444855;3,1330404
267;2026-05-10 20:05:34.890;1,7693352250392533;1,6307803659052122;-0,2691303194570946;-2,423788858895109;-1,0273630435701608;3,0764345660852648
268;2026-05-10 20:05:34.900;1,5413026625196267;1,499963932952606;-0,1399807897285473;-2,5511989794475545;-1,1302801717850803;3,0198272830426327
269;2026-05-10 20:05:34.910;1,3132701;1,3691475;-0,01083126;-2,6786091;-1,2331973;2,96322
270;2026-05-10 20:05:34.920;1,3294442743743344;1,3099454862363809;-0,11535755763701155;-2,6786091;-1,2331973;2,96322
271;2026-05-10 20:05:34.930;1,3456184487486689;1,2507434724727615;-0,2198838552740231;-2,6786091;-1,2331973;2,96322
272;2026-05-10 20:05:34.940;1,3617930371871672;1,1915399431181903;-0,3244128288185058;-2,6786091;-1,2331973;2,96322
273;2026-05-10 20:05:34.950;1,3779676256256657;1,1323364137636194;-0,42894180236298846;-2,6786091;-1,2331973;2,96322
274;2026-05-10 20:05:34.960;1,3941418;1,0731344;-0,5334681;-2,6786091;-1,2331973;2,96322
275;2026-05-10 20:05:34.970;1,5793055398317235;1,3547866264071406;-0,13841679562856268;-2,4401197702699937;-1,345862177161484;2,8736163292555554
276;2026-05-10 20:05:34.980;1,7644740199158617;1,6364460632035704;0,2566446221857186;-2,201624335134997;-1,458529938580742;2,7840103646277776
277;2026-05-10 20:05:34.990;1,9496425;1,9181055;0,65170604;-1,9631289;-1,5711977;2,6944044
278;2026-05-10 20:05:35.000;2,3632775500000003;1,9198216499999998;-0,30117152;-1,9631289;-1,5711977;2,6944044
279;2026-05-10 20:05:35.010;2,31366902908785;1,8036776763584272;-0,3014489415806818;-1,9631289;-1,5711977;2,6944044
280;2026-05-10 20:05:35.020;2,2640592381813085;1,687530729393071;-0,301726370263447;-1,9631289;-1,5711977;2,6944044
281;2026-05-10 20:05:35.030;2,214449447274767;1,5713837824277148;-0,30200379894621215;-1,9631289;-1,5711977;2,6944044
282;2026-05-10 20:05:35.040;2,1648409263626167;1,4552398087861425;-0,30228122052689393;-1,9631289;-1,5711977;2,6944044
283;2026-05-10 20:05:35.050;2,1152324054504663;1,3390958351445699;-0,30255864210757577;-1,9631289;-1,5711977;2,6944044
284;2026-05-10 20:05:35.060;2,065622614543925;1,2229488881792137;-0,3028360707903409;-1,9631289;-1,5711977;2,6944044
285;2026-05-10 20:05:35.070;2,0160128236373835;1,1068019412138574;-0,3031134994731061;-1,9631289;-1,5711977;2,6944044
286;2026-05-10 20:05:35.080;1,9664043027252334;0,9906579675722849;-0,3033909210537879;-1,9631289;-1,5711977;2,6944044
287;2026-05-10 20:05:35.090;1,916795781813083;0,8745139939307124;-0,3036683426344697;-1,9631289;-1,5711977;2,6944044
288;2026-05-10 20:05:35.100;1,8671859909065416;0,7583670469653562;-0,3039457713172349;-1,9631289;-1,5711977;2,6944044
289;2026-05-10 20:05:35.110;1,8175762;0,6422201;-0,3042232;-1,9631289;-1,5711977;2,6944044
290;2026-05-10 20:05:35.120;2,256277;-0,5129839;0,06423001;2,315127;1,1617086;-7,328742
291;2026-05-10 20:05:35.130;2,2238216654336;-0,69891457005696;0,057750862934144005;2,315127;1,1617086;-7,328742
292;2026-05-10 20:05:35.140;2,1913655;-0,88485;0,05127155;2,315127;1,1617086;-7,328742
293;2026-05-10 20:05:35.150;1,8549161;-1,2490187;0,054225616;2,315127;1,1617086;-7,328742
294;2026-05-10 20:05:35.160;-0,06859919999999997;-1,3557478;-0,4401133295;2,315127;1,1617086;-7,328742
295;2026-05-10 20:05:35.170;0,163317421429248;-1,40229530418432;-0,3494325704785728;2,315127;1,1617086;-7,328742
296;2026-05-10 20:05:35.180;0,39523998;-1,448844;-0,25874949;2,315127;1,1617086;-7,328742
297;2026-05-10 20:05:35.190;-0,10307516335219201;-1,2994350875904002;-0,505981184525184;2,6528961233894397;0,731592874589184;-6,24144923283072
298;2026-05-10 20:05:35.200;-0,60137755;-1,15003;-0,75320655;2,9906566;0,30148816;-5,1541843
299;2026-05-10 20:05:35.210;-0,5206819203338249;-1,0688796309904154;-0,6013439705927184;2,591521333197448;0,05619861979704268;-4,386896517127468
300;2026-05-10 20:05:35.220;-0,43998422483308763;-0,9877271845047924;-0,44947750345364085;2,192375848401276;-0,18909719989852136;-3,619589091436266
301;2026-05-10 20:05:35.230;-0,35928652933235034;-0,9065747380191693;-0,29761103631456337;1,7932303636051037;-0,4343930195940854;-2,8522816657450645
302;2026-05-10 20:05:35.240;-0,2785908996661752;-0,8254243690095847;-0,1457484569072817;1,3940950968025518;-0,6796825597970427;-2,0849938828725323
303;2026-05-10 20:05:35.250;-0,19789527;-0,744274;0,0061141225;0,99495983;-0,9249721;-1,3177061
304;2026-05-10 20:05:35.260;-0,28264686384521254;-0,7197241366126167;-0,0029916488419050448;0,7078223077494074;-0,8517268699784448;-0,7517389045701004
305;2026-05-10 20:05:35.270;-0,3673984576904251;-0,6951742732252334;-0,01209742018381009;0,4206847854988147;-0,7784816399568897;-0,18577170914020066
306;2026-05-10 20:05:35.280;-0,45214788192260624;-0,6706250383063084;-0,021202958420952524;0,13355461387470366;-0,7052382849892225;0,38018099771494984
307;2026-05-10 20:05:35.290;-0,5368973061547874;-0,6460758033873834;-0,030308496658094958;-0,1535755577494074;-0,6319949300215552;0,9461337045701003
308;2026-05-10 20:05:35.300;-0,6216489;-0,62152594;-0,039414268;-0,44071308;-0,5587497;1,5121009
309;2026-05-10 20:05:35.310;-1,6955985;-0,8828547;-0,7715128;-0,44071308;-0,5587497;1,5121009
310;2026-05-10 20:05:35.320;-1,9249635;-1,1045631;-0,96414816;-0,44071308;-0,5587497;1,5121009
311;2026-05-10 20:05:35.330;-0,857313581093888;-1,31695953129088;-0,45237837323712;-0,44071308;-0,5587497;1,5121009
312;2026-05-10 20:05:35.340;0,21036367;-1,5293614;0,059404515;-0,44071308;-0,5587497;1,5121009
313;2026-05-10 20:05:35.350;0,9389494310378285;-1,3617899468171384;0,43377406582521955;-0,7957772596844359;-0,800694279134631;2,7775501800579416
314;2026-05-10 20:05:35.360;1,6675165405189143;-1,1942227834085692;0,8081340329126098;-1,150832349842218;-1,0426326645673156;4,042967065028971
315;2026-05-10 20:05:35.370;2,39608365;-1,02665562;1,1824940000000002;-1,50588744;-1,28457105;5,30838395
316;2026-05-10 20:05:35.380;2,673563525;-0,8803757600000001;1,1383135000000002;-1,53224197;-1,331542275;7,083025975
317;2026-05-10 20:05:35.390;2,9510434;-0,7340959;1,094133;-1,5585965;-1,3785135;8,857668
318;2026-05-10 20:05:35.400;3,0518241;-0,54226446;0,85182028;-1,5585965;-1,3785135;8,857668
319;2026-05-10 20:05:35.410;3,1526048;-0,35043302;0,60950756;-1,5585965;-1,3785135;8,857668
320;2026-05-10 20:05:35.420;3,1406162465484804;-0,313154262838016;0,5696029592276479;-1,32050435245952;-0,9075347140487039;8,58391834604928
321;2026-05-10 20:05:35.430;3,12862769309696;-0,275875505676032;0,529698358455296;-1,0824122049190399;-0,4365559280974079;8,31016869209856
322;2026-05-10 20:05:35.440;3,11663944654848;-0,238597702838016;0,48979477922764797;-0,8443261524595199;0,03441080095129613;8,03642604604928
323;2026-05-10 20:05:35.450;3,1046512;-0,2013199;0,4498912;-0,6062401;0,50537753;7,7626834
324;2026-05-10 20:05:35.460;2,7525723747589765;0,06993161757998698;0,2679358728012984;-0,514043885922852;0,32076518359377;7,390156565374041
325;2026-05-10 20:05:35.470;2,4004935495179534;0,34118313515997395;0,0859805456025968;-0,42184767184570404;0,13615283718754;7,017629730748081
326;2026-05-10 20:05:35.480;2,0484237373794882;0,6124277087899934;-0,09597012359935087;-0,329653817961426;-0,04845478320311498;6,645112432687021
327;2026-05-10 20:05:35.490;1,6963539252410231;0,8836722824200129;-0,2779207928012985;-0,23745996407714798;-0,23306240359376995;6,272595134625959
328;2026-05-10 20:05:35.500;1,3442751;1,1549238;-0,45987612;-0,14526375;-0,41767475;5,9000683
329;2026-05-10 20:05:35.510;1,3016638;1,219308;-0,22921467;-0,14526375;-0,41767475;5,9000683
330;2026-05-10 20:05:35.520;1,7114503031104134;1,6163847449017383;-0,10251326119919446;-0,5425554764005392;-0,6756729317206687;4,967971420661848
331;2026-05-10 20:05:35.530;2,1212368062208267;2,013461489803477;0,024188147601611098;-0,9398472028010786;-0,9336711134413374;4,035874541323696
332;2026-05-10 20:05:35.540;2,5310338;2,4105484;0,1508928;-1,3371491;-1,1916759;3,1037538
333;2026-05-10 20:05:35.550;2,4584292456736;2,0834626196056;0,11455123045886399;-1,3371491;-1,1916759;3,1037538
334;2026-05-10 20:05:35.560;2,38582655;1,7563852125000001;0,07821059125;-1,3371491;-1,1916759;3,1037538
335;2026-05-10 20:05:35.570;2,3132238543264;1,4293078053944;0,041869952041136006;-1,3371491;-1,1916759;3,1037538
336;2026-05-10 20:05:35.580;2,2406193;1,1022220249999999;0,005528382500000005;-1,3371491;-1,1916759;3,1037538
337;2026-05-10 20:05:35.590;2,22739218069504;1,47693474001136;-0,139291416794704;-1,2805866260096;-1,0110800084021758;2,2006565480031357
338;2026-05-10 20:05:35.600;2,2141653999999997;1,8516378625;-0,28410750874999996;-1,2240255999999998;-0,83048874;1,297582415
339;2026-05-10 20:05:35.610;2,20093861930496;2,22634098498864;-0,428923600705296;-1,1674645739904;-0,649897471597824;0,39450828199686405
340;2026-05-10 20:05:35.620;2,1877115;2,6010537;-0,5737434;-1,1109021;-0,46930158;-0,50858897
341;2026-05-10 20:05:35.630;1,95544472702336;2,46520486115712;-0,525188568506112;-1,1109021;-0,46930158;-0,50858897
342;2026-05-10 20:05:35.640;1,7231839;2,3293595;-0,47663498;-1,1109021;-0,46930158;-0,50858897
343;2026-05-10 20:05:35.650;0,9773731;1,8646199;0,43792266;-2,2612486;0,755553;-2,4153612
344;2026-05-10 20:05:35.660;0,959725815;1,83350745;0,5109226099999999;-2,2612486;0,755553;-2,4153612
345;2026-05-10 20:05:35.670;0,94207853;1,802395;0,58392256;-2,2612486;0,755553;-2,4153612
346;2026-05-10 20:05:35.680;1,13104574;1,790159925;0,594397505;-1,74116665;0,9786060999999999;-2,63441745
347;2026-05-10 20:05:35.690;1,32001295;1,77792485;0,60487245;-1,2210847;1,2016592;-2,8534737
348;2026-05-10 20:05:35.700;1,3728443939147081;1,6756892640582144;0,4013478185011959;-1,12313574823097;1,2009735210486472;-3,258805932731003
349;2026-05-10 20:05:35.710;1,4256758378294165;1,5734536781164286;0,19782318700239176;-1,02518679646194;1,2002878420972944;-3,6641381654620058
350;2026-05-10 20:05:35.720;1,4785059292764722;1,4712207093721428;-0,005696234332536082;-0,92724035215398;1,1996021806990982;-4,069460021820668
351;2026-05-10 20:05:35.730;1,5313360207235278;1,3689877406278572;-0,20921565566746392;-0,82929390784602;1,1989165193009017;-4,474781878179331
352;2026-05-10 20:05:35.740;1,584167464638236;1,2667521546860714;-0,41274028716626804;-0,73134495607699;1,198230840349549;-4,880114110910334
353;2026-05-10 20:05:35.750;1,6369989085529444;1,1645165687442858;-0,6162649186650722;-0,6333960043079601;1,1975451613981962;-5,285446343641337
354;2026-05-10 20:05:35.760;1,689829;1,0622836;-0,81978434;-0,53544956;1,1968595;-5,6907682
355;2026-05-10 20:05:35.770;1,5429963;0,7966653;-0,5619408;-0,53544956;1,1968595;-5,6907682
356;2026-05-10 20:05:35.780;1,5112875;0,600457;-0,2437673;-0,93523467;1,5061493;-5,8302374
357;2026-05-10 20:05:35.790;1,7243150356234052;0,4532365408029901;-0,08471899227695903;-0,93523467;1,5061493;-5,8302374
358;2026-05-10 20:05:35.800;1,9373371178117027;0,30601985040149504;0,07432524386152049;-0,93523467;1,5061493;-5,8302374
359;2026-05-10 20:05:35.810;2,1503592;0,15880316;0,23336948;-0,93523467;1,5061493;-5,8302374
360;2026-05-10 20:05:35.820;2,3467793;-0,191007;0,13202034;-0,93523467;1,5061493;-5,8302374
361;2026-05-10 20:05:35.830;2,32010780860928;-0,41191925264064;0,09620056851279361;-0,93523467;1,5061493;-5,8302374
362;2026-05-10 20:05:35.840;2,293437;-0,63282585;0,060381714;-0,93523467;1,5061493;-5,8302374
363;2026-05-10 20:05:35.850;1,75627;1,4565072;0,23039395;1,9552749;1,147362;-8,14957
364;2026-05-10 20:05:35.860;1,71230455;0,05045634999999989;0,186272305;1,9552749;1,147362;-8,14957
365;2026-05-10 20:05:35.870;1,6683391;-1,3555945;0,14215066;1,9552749;1,147362;-8,14957
366;2026-05-10 20:05:35.880;1,257583593987776;-1,3218615567872;0,056776375304832004;2,1232214002572802;1,3288783015616;-8,166072038771201
367;2026-05-10 20:05:35.890;0,846828087975552;-1,2881286135744001;-0,028597909390336004;2,29116790051456;1,5103946031232;-8,1825740775424
368;2026-05-10 20:05:35.900;0,436062066487776;-1,2543948067872;-0,11397437969516801;2,4591187002572803;1,6919155515616;-8,1990765387712
369;2026-05-10 20:05:35.910;0,025296045;-1,220661;-0,19935085;2,6270695;1,8734365;-8,215579
370;2026-05-10 20:05:35.920;-0,18451998249999998;-1,13943395;-0,306416325;3,1572657000000004;1,22000265;-7,12538525
371;2026-05-10 20:05:35.930;-0,39433601;-1,0582069;-0,4134818;3,6874619;0,5665688;-6,0351915
372;2026-05-10 20:05:35.940;-0,47537180500000004;-1,0762153;-0,4846206;3,6544577;0,39383355;-5,54650805
373;2026-05-10 20:05:35.950;-0,5564076;-1,0942237;-0,5557594;3,6214535;0,2210983;-5,0578246
374;2026-05-10 20:05:35.960;-0,6292327999999999;-1,0765715999999999;-0,65801985;3,6214535;0,2210983;-5,0578246
375;2026-05-10 20:05:35.970;-0,702058;-1,0589195;-0,7602803;3,6214535;0,2210983;-5,0578246
376;2026-05-10 20:05:35.980;-0,684123715;-1,0196492000000001;-0,77484467;3,18228505;-0,14486232500000001;-3,8486518
377;2026-05-10 20:05:35.990;-0,66618943;-0,9803789;-0,78940904;2,7431166;-0,51082295;-2,639479
378;2026-05-10 20:05:36.000;-0,41366336;-0,72362;-0,79799104;2,7431166;-0,51082295;-2,639479
379;2026-05-10 20:05:36.010;0,4778590683668481;-0,9192313461427201;-0,34800578988492803;2,7431166;-0,51082295;-2,639479
380;2026-05-10 20:05:36.020;1,3694043200000001;-1,1148477;0,1019909799999999;2,7431166;-0,51082295;-2,639479
381;2026-05-10 20:05:36.030;2,2609495716331525;-1,31046405385728;0,5519877498849278;2,7431166;-0,51082295;-2,639479
382;2026-05-10 20:05:36.040;3,152472;-1,5060754;1,001973;2,7431166;-0,51082295;-2,639479
383;2026-05-10 20:05:36.050;2,739761;-1,2657424;0,3843228;2,7431166;-0,51082295;-2,639479
384;2026-05-10 20:05:36.060;2,7066432173985393;-1,2579910338558555;0,334051781026129;2,7431166;-0,51082295;-2,639479
385;2026-05-10 20:05:36.070;2,673525434797078;-1,2502396677117111;0,28378076205225794;2,7431166;-0,51082295;-2,639479
386;2026-05-10 20:05:36.080;2,6404085;-1,2424885;0,23351103;2,7431166;-0,51082295;-2,639479
387;2026-05-10 20:05:36.090;2,7127165707941105;-1,1508757901802238;0,24625217075578376;2,133160365759697;-0,41805008572327185;-1,0012346797665286
388;2026-05-10 20:05:36.100;2,7850264926985275;-1,059260735045056;0,25899363768894595;1,5231885164399241;-0,325274846430818;0,6370515800583676
389;2026-05-10 20:05:36.110;2,857336414602945;-0,9676456799098883;0,2717351046221081;0,9132166671201513;-0,23249960713836412;2,2753378398832638
390;2026-05-10 20:05:36.120;2,929644485397055;-0,8760329700901118;0,2844762453778919;0,3032604328798481;-0,13972674286163594;3,9135821601167353
391;2026-05-10 20:05:36.130;3,0019525561911657;-0,7844202602703355;0,29721738613367565;-0,30669580136045504;-0,04695387858490778;5,551826480350207
392;2026-05-10 20:05:36.140;3,074262478095583;-0,6928052051351677;0,3099588530668378;-0,9166676506802278;0,045821360707546076;7,1901127401751035
393;2026-05-10 20:05:36.150;3,1465724;-0,60119015;0,32270032;-1,5266395;0,1385966;8,828399
394;2026-05-10 20:05:36.160;3,3097715500000002;0,08851857500000002;-0,03994825500000007;-1,5266395;0,1385966;8,828399
395;2026-05-10 20:05:36.170;3,4729707;0,7782273;-0,40259683;-1,5266395;0,1385966;8,828399
396;2026-05-10 20:05:36.180;3,3512068;1,1757195;-0,68554604;-0,8074766;-0,61463517;5,641358
397;2026-05-10 20:05:36.190;2,5770354;1,3605264;-0,6985348;-0,8074766;-0,61463517;5,641358
398;2026-05-10 20:05:36.200;1,96850615;-0,021215400000000002;-0,41383226;-1,5042905999999998;-0,327179432;4,989521000000001
399;2026-05-10 20:05:36.210;1,3599769;-1,4029572;-0,12912972;-2,2011046;-0,039723694;4,337684
400;2026-05-10 20:05:36.220;1,791305;1,5335113;0,4999903;-3,6649995;-1,8161024;3,7856715
401;2026-05-10 20:05:36.230;2,0969227991436763;1,941743833746064;0,34859673458288887;-2,504155365180353;-1,5971296295792194;3,235947384828522
402;2026-05-10 20:05:36.240;2,402532774571838;2,349965916873032;0,19720704479144444;-1,3433409475901765;-1,3781624647896098;2,6862373424142607
403;2026-05-10 20:05:36.250;2,70814275;2,7581879999999996;0,045817355000000004;-0,18252653;-1,1591953;2,1365273
404;2026-05-10 20:05:36.260;2,633690875;2,8577435999999996;-0,14212820749999996;-0,18252653;-1,1591953;2,1365273
405;2026-05-10 20:05:36.270;2,559239;2,9572992;-0,33007377;-0,18252653;-1,1591953;2,1365273
406;2026-05-10 20:05:36.280;2,3448351962692104;2,8963234536663625;-0,3942381324570985;-0,5933037146564891;-0,8179805350699308;1,2896077104730046
407;2026-05-10 20:05:36.290;2,1304313925384215;2,8353477073327245;-0,45840249491419693;-1,0040808993129784;-0,4767657701398619;0,4426881209460092
408;2026-05-10 20:05:36.300;1,9160221;2,7743704;-0,5225685;-1,4148686;-0,13554227;-0,40425315
409;2026-05-10 20:05:36.310;1,8710627758613503;2,6875115382208;-0,45677740888481283;-1,45296438761984;-0,0620635508177664;-0,57979712193408
410;2026-05-10 20:05:36.320;1,8261046026666665;2,6006549;-0,390988002;-1,4910592;0,011413287333333334;-0,7553366
411;2026-05-10 20:05:36.330;1,781146429471983;2,5137982617792;-0,32519859511518723;-1,52915401238016;0,08489012548443306;-0,93087607806592
412;2026-05-10 20:05:36.340;1,7361871053333333;2,4269394;-0,25940750400000007;-1,5672498;0,15836884466666665;-1,10642005
413;2026-05-10 20:05:36.350;1,6912277811946836;2,3400805382208;-0,19361641288481288;-1,60534558761984;0,23184756384890026;-1,28196402193408
414;2026-05-10 20:05:36.360;1,6462696079999999;2,2532239;-0,12782700600000008;-1,6434404;0,305324402;-1,4575035
415;2026-05-10 20:05:36.370;1,6013114348053161;2,1663672617792;-0,06203759911518729;-1,68153521238016;0,3788012401510997;-1,63304297806592
416;2026-05-10 20:05:36.380;1,5563521106666667;2,0795084;0,003753491999999893;-1,719631;0,4522799593333333;-1,80858695
417;2026-05-10 20:05:36.390;1,511392786528017;1,9926495382208;0,06954458311518708;-1,75772678761984;0,5257586785155669;-1,98413092193408
418;2026-05-10 20:05:36.400;1,4664346133333332;1,9057929;0,13533398999999993;-1,7958216;0,5992355166666666;-2,1596704
419;2026-05-10 20:05:36.410;1,8428187518507013;2,0270168644178583;0,15598402423490454;-0,798679684773185;0,4767407050493224;-2,405129344113732
420;2026-05-10 20:05:36.420;2,2192125259253506;2,148243932208929;0,17663458711745228;0,1984877576134075;0,3542427575246612;-2,650594572056866
421;2026-05-10 20:05:36.430;2,5956063;2,269471;0,19728515;1,1956552;0,23174481;-2,8960598
422;2026-05-10 20:05:36.440;2,50255046612992;2,05215685665664;0,011678325797759983;1,29040791214976;0,299218368827392;-3,4728269672857603
423;2026-05-10 20:05:36.450;2,40949463225984;1,8348427133132799;-0,17392849840448002;1,38516062429952;0,366691927654784;-4,04959413457152
424;2026-05-10 20:05:36.460;2,31643641612992;1,61752300665664;-0,35954007420224005;1,47991576214976;0,434167213827392;-4,62637606728576
425;2026-05-10 20:05:36.470;2,2233782;1,4002033;-0,54515165;1,5746709;0,5016425;-5,203158
426;2026-05-10 20:05:36.480;2,0593283500000004;1,1297107;-0,400996825;0,81930988;0,9844704;-5,7455976500000006
427;2026-05-10 20:05:36.490;1,9195493;0,8891396;-0,33335683;0,06394886;1,4672983;-6,2880373
428;2026-05-10 20:05:36.500;1,9060022;0,74462695;-0,226519787;0,06394886;1,4672983;-6,2880373
429;2026-05-10 20:05:36.510;1,8924551;0,6001143;-0,119682744;0,06394886;1,4672983;-6,2880373
430;2026-05-10 20:05:36.520;0,8745177;-1,052124;-0,14283597;0,06394886;1,4672983;-6,2880373
431;2026-05-10 20:05:36.530;2,0029397;0,5216187;-0,034788895;0,16133824;1,5620347;-6,434418
432;2026-05-10 20:05:36.540;2,175875275698024;0,4681557104549954;-0,013178905263781274;0,16133824;1,5620347;-6,434418
433;2026-05-10 20:05:36.550;2,3488108513960477;0,4146927209099908;0,008431084472437452;0,16133824;1,5620347;-6,434418
434;2026-05-10 20:05:36.560;2,521742;0,3612311;0,030040521;0,16133824;1,5620347;-6,434418
435;2026-05-10 20:05:36.570;2,56224383156992;0,345985525145856;0,0294992074289024;0,515330118845952;1,51066165758336;-6,7649967685376
436;2026-05-10 20:05:36.580;2,6027467;0,33073956;0,02895788;0,86933106;1,4592873;-7,095584
437;2026-05-10 20:05:36.590;2,65956102721408;0,2663687970647808;0,018607442182758397;0,965328295415552;1,45733539168256;-7,292189016512
438;2026-05-10 20:05:36.600;2,7163739;0,20199968199999999;0,008257269333333333;1,0613230733333334;1,4553835333333334;-7,488789
439;2026-05-10 20:05:36.610;2,77318677278592;0,1376305669352192;-0,0020929035160917346;1,1573178512511146;1,4534316749841065;-7,685388983488
440;2026-05-10 20:05:36.620;2,8300011;0,073259804;-0,012443341333333335;1,2533150866666667;1,4514797666666666;-7,881994000000001
441;2026-05-10 20:05:36.630;2,88681542721408;0,008889041064780803;-0,022793779150574935;1,3493123220822185;1,4495278583492266;-8,078599016512001
442;2026-05-10 20:05:36.640;2,9436283;-0,055480074;-0,033143952;1,4453071;1,447576;-8,275199
443;2026-05-10 20:05:36.650;1,0932115;1,9285697;0,21355204;1,698188;1,4156541;-8,757486
444;2026-05-10 20:05:36.660;2,9080875;-1,0697654;-0,07647875;-1,2093736;-0,10786135;3,616933
445;2026-05-10 20:05:36.670;0,88183196426112;-1,18468852099712;-0,3107547486944;0,20715383131903992;0,6153076314444801;-0,07850865104767979
446;2026-05-10 20:05:36.680;-1,1443717;-1,2996087;-0,54502475;1,623645;1,3384581;-3,7738557
447;2026-05-10 20:05:36.690;-1,0377978;-1,2478833;-0,4886338;1,623645;1,3384581;-3,7738557
448;2026-05-10 20:05:36.700;-0,8822609719582581;-1,3159770468989127;-0,4231056238637104;1,2186382236178344;1,0817298762916348;-2,6925465994733386
449;2026-05-10 20:05:36.710;-0,7267241439165163;-1,3840707937978254;-0,35757744772742084;0,8136314472356687;0,8250016525832696;-1,6112374989466778
450;2026-05-10 20:05:36.720;-0,5711912975666066;-1,4521627975191302;-0,29205094909096835;0,4086350388942675;0,5682800010333078;-0,5299560795786713
451;2026-05-10 20:05:36.730;-0,4156584512166968;-1,5202548012404349;-0,22652445045451583;0,0036386305528663242;0,311558349483346;0,5513253397893352
452;2026-05-10 20:05:36.740;-0,2601216231749549;-1,5883485481393476;-0,16099627431822622;-0,4013681458292993;0,05483012577498083;1,6326344403159962
453;2026-05-10 20:05:36.750;-0,10458479513321298;-1,6564422950382602;-0,09546809818193663;-0,806374922211465;-0,20189809793338434;2,7139435408426573
454;2026-05-10 20:05:36.760;0,05094805121669674;-1,724534298759565;-0,029941599545484136;-1,2113713305528662;-0,45861974948334616;3,795224960210664
455;2026-05-10 20:05:36.770;0,20648089756660645;-1,7926263024808697;0,03558489909096836;-1,6163677388942674;-0,715341401033308;4,876506379578671
456;2026-05-10 20:05:36.780;0,3620177256083484;-1,8607200493797824;0,10111307522725796;-2,021374515276433;-0,9720696247416731;5,957815480105332
457;2026-05-10 20:05:36.790;0,5175545536500903;-1,928813796278695;0,16664125136354754;-2,4263812916585987;-1,2287978484500384;7,039124580631992
458;2026-05-10 20:05:36.800;0,6730874;-1,9969058;0,23216775;-2,8313777;-1,4855195;8,120406
459;2026-05-10 20:05:36.810;2,5654116;-1,3854622;0,44456393;-1,8534873;-1,7027084;9,356465
460;2026-05-10 20:05:36.820;2,5240839140082603;-1,2361288257048504;0,355393442421579;-1,3740412621128444;-1,4196833715506707;9,089235719672663
461;2026-05-10 20:05:36.830;2,4827562280165205;-1,0867954514097007;0,266222954843158;-0,8945952242256886;-1,1366583431013415;8,822006439345325
462;2026-05-10 20:05:36.840;2,4414296;-0,9374659;0,17705475;-0,41516146;-0,85364056;8,554784
463;2026-05-10 20:05:36.850;2,678334556770318;-0,7422198322422091;0,016569025658087874;-0,13463948096972386;-0,671413833375943;8,158025004773526
464;2026-05-10 20:05:36.860;2,915245578385159;-0,5469687661211046;-0,14392080717095604;0,14588967951513807;-0,4891824416879715;7,761255852386763
465;2026-05-10 20:05:36.870;3,1521566;-0,3517177;-0,30441064;0,42641884;-0,30695105;7,3644867
466;2026-05-10 20:05:36.880;2,91275611436544;-0,228387398648064;-0,409271420264832;0,337259836249856;-0,459194173763072;7,04403087688704
467;2026-05-10 20:05:36.890;2,67335562873088;-0,10505709729612801;-0,514132200529664;0,248100832499712;-0,611437297526144;6,72357505377408
468;2026-05-10 20:05:36.900;2,43394901436544;0,018276361351936;-0,618995665264832;0,15893954624985598;-0,763684318763072;6,403111026887039
469;2026-05-10 20:05:36.910;2,1945424;0,14160982;-0,72385913;0,06977826;-0,91593134;6,082647
470;2026-05-10 20:05:36.920;2,0390787;0,3586714;-0,5702046;-0,6104987;-1,1304498;6,401519
471;2026-05-10 20:05:36.930;2,14755794915827;0,5827607052961415;-0,5280008921714999;-0,6465917384025559;-1,154405934686041;6,373838283454166
472;2026-05-10 20:05:36.940;2,2560399754208653;0,8068557473519291;-0,48579610391425;-0,682685700798722;-1,1783626826569797;6,346156858272917
473;2026-05-10 20:05:36.950;2,3645220016834605;1,0309507894077168;-0,44359131565700005;-0,7187796631948882;-1,2023194306279186;6,318475433091669
474;2026-05-10 20:05:36.960;2,47300125084173;1,2550400947038582;-0,4013876078285;-0,754872701597444;-1,2262755653139592;6,290794716545834
475;2026-05-10 20:05:36.970;2,5814805;1,4791294;-0,3591839;-0,79096574;-1,2502317;6,263114
476;2026-05-10 20:05:36.980;2,299302;1,5860982;-0,30304196;-0,89530152;-1,3239543999999999;5,288426149999999
477;2026-05-10 20:05:36.990;2,0171235;1,693067;-0,24690002;-0,9996373;-1,3976771;4,3137383
478;2026-05-10 20:05:37.000;2,019818410504704;1,6139052966161067;-0,23094400673958398;-0,99875011135616;-1,2960042464291839;4,086173546199467
479;2026-05-10 20:05:37.010;2,022513321009408;1,5347435932322133;-0,214987993479168;-0,9978629227123199;-1,1943313928583679;3,8586087923989334
480;2026-05-10 20:05:37.020;2,025208300504704;1,4555798632827734;-0,199031571739584;-0,9969757113561599;-1,092655936429184;3,6310382128661334
481;2026-05-10 20:05:37.030;2,02790328;1,3764161333333333;-0,18307515;-0,9960884999999999;-0,9909804799999998;3,4034676333333334
482;2026-05-10 20:05:37.040;1,949556437852416;1,7071576164548268;-0,21152942328063998;-0,99564490567808;-0,9401440532145918;3,2896852564330668
483;2026-05-10 20:05:37.050;1,8712095957048318;2,03789909957632;-0,23998369656128;-0,99520131135616;-0,8893076264291839;3,1759028795328
484;2026-05-10 20:05:37.060;1,792860747852416;2,36864904978816;-0,26843869828064;-0,99475770567808;-0,838469898214592;3,0621175897664
485;2026-05-10 20:05:37.070;1,7145119;2,699399;-0,2968937;-0,9943141;-0,78763217;2,9483323
486;2026-05-10 20:05:37.080;1,664052063929446;2,678165314529769;-0,28925476518641147;-1,2642094968631332;-0,5528873931810696;1,992813427198751
487;2026-05-10 20:05:37.090;1,6135922278588923;2,6569316290595375;-0,28161583037282295;-1,5341048937262667;-0,31814261636213914;1,0372945543975016
488;2026-05-10 20:05:37.100;1,5631311;2,6356974;-0,2739767;-1,8040072;-0,08339183;0,08175122
489;2026-05-10 20:05:37.110;-0,57443756;-0,64970773;-0,7913703;-1,8817267;-0,0078016217;-0,026825711
490;2026-05-10 20:05:37.120;-0,34469280071128683;-0,5927408600171717;-0,7316592060570329;-1,633175959837105;0,13039594709090177;-0,49768313902871536
491;2026-05-10 20:05:37.130;-0,11494804142257367;-0,5357739900343435;-0,6719481121140658;-1,3846252196742102;0,2685935158818035;-0,9685405670574307
492;2026-05-10 20:05:37.140;0,11480259940726101;-0,47880566168097644;-0,6122354895475274;-1,1360681165309208;0,4067946225757515;-1,4394100491905961
493;2026-05-10 20:05:37.150;0,3445532402370957;-0,4218373333276095;-0,552522866980989;-0,8875110133876316;0,5449957292696995;-1,9102795313237615
494;2026-05-10 20:05:37.160;0,5742979995258088;-0,3648704633447812;-0,4928117730380219;-0,6389602732247367;0,6831932980606013;-2,381136959352477
495;2026-05-10 20:05:37.170;0,804042758814522;-0,3079035933619529;-0,43310067909505484;-0,39040953306184173;0,821390866851503;-2,8519943873811924
496;2026-05-10 20:05:37.180;1,0337933996443567;-0,2509352650085859;-0,3733880565285164;-0,14185242991855251;0,959591973545451;-3,3228638695143577
497;2026-05-10 20:05:37.190;1,2635440404741913;-0,19396693665521889;-0,31367543396197806;0,10670467322473674;1,097793080239399;-3,793733351647523
498;2026-05-10 20:05:37.200;1,4932887997629045;-0,1370000666723906;-0,25396434001901097;0,35525541338763167;1,2359906490303008;-4,264590779676238
499;2026-05-10 20:05:37.210;1,7230335590516177;-0,08003319668956231;-0,19425324607604386;0,6038061535505266;1,3741882178212024;-4,735448207704954
500;2026-05-10 20:05:37.220;1,9527841998814524;-0,02306486833619532;-0,13454062350950546;0,8523632566938159;1,5123893245151505;-5,206317689838119
501;2026-05-10 20:05:37.230;2,1825348407112872;0,03390346001717168;-0,07482800094296706;1,1009203598371051;1,6505904312090984;-5,677187171971285
502;2026-05-10 20:05:37.240;2,4122796;0,09087033;-0,015116907;1,3494711;1,788788;-6,1480446
503;2026-05-10 20:05:37.250;2,45794441548288;0,0345196942973696;0,0058141515790207975;1,25498890938752;1,88647279961856;-6,99362817639168
504;2026-05-10 20:05:37.260;2,5036104;-0,021832384;0,026745746;1,1605043;1,9841601;-7,8392334
505;2026-05-10 20:05:37.270;2,5622017;-0,3677923;0,088188626;1,1605043;1,9841601;-7,8392334
506;2026-05-10 20:05:37.280;2,536936;-0,45676973;0,08055841;1,1605043;1,9841601;-7,8392334
507;2026-05-10 20:05:37.290;2,0819564900830287;-0,6004032852892788;-0,017323308630619184;1,3118624834539372;2,2047193690736253;-8,142653754892994
508;2026-05-10 20:05:37.300;1,6269653325415145;-0,7440405176446393;-0,1152075330653096;1,4632245417269685;2,4252842845368123;-8,446081877446497
509;2026-05-10 20:05:37.310;1,1719741750000001;-0,8876777499999999;-0,2130917575;1,6145866;2,6458492;-8,74951
510;2026-05-10 20:05:37.320;1,7551975874999999;-0,917559845;-0,05811661875;1,6145866;2,6458492;-8,74951
511;2026-05-10 20:05:37.330;2,338421;-0,94744194;0,09685852;1,6145866;2,6458492;-8,74951
512;2026-05-10 20:05:37.340;2,0684836758771814;-0,9614277352127099;0,0584548387513376;1,4286966665114458;2,0543266528866484;-5,924752934857896
513;2026-05-10 20:05:37.350;1,7985463517543634;-0,9754135304254198;0,02005115750267519;1,2428067330228914;1,462804105773297;-3,0999958697157903
514;2026-05-10 20:05:37.360;1,5286159379385909;-0,9893989676063549;-0,018351540624331208;1,0569215582557228;0,8712967014433243;-0,27531111742894804
515;2026-05-10 20:05:37.370;1,258685524122818;-1,0033844047872902;-0,05675423875133761;0,8710363834885542;0,2797892971133514;2,5493736348578944
516;2026-05-10 20:05:37.380;0,9887482;-1,0173702;-0,09515792;0,68514645;-0,31173325;5,3741307
517;2026-05-10 20:05:37.390;-0,14912483;-0,98968536;-0,55374926;0,68514645;-0,31173325;5,3741307
518;2026-05-10 20:05:37.400;-0,18961931;-1,01072015;-1,0232637;3,8423772;-1,0325018;-6,525978
519;2026-05-10 20:05:37.410;-0,3176044;-0,82662386;-0,7221351;3,8423772;-1,0325018;-6,525978
520;2026-05-10 20:05:37.420;-0,294048475;-0,8287080800000001;-0,34806125;1,0013652000000002;-0,37481813999999997;-4,18295205
521;2026-05-10 20:05:37.430;-0,27049255;-0,8307923;0,0260126;-1,8396468;0,28286552;-1,8399261
522;2026-05-10 20:05:37.440;-1,02862250831232;-0,9872412974272;-0,09720837275135999;-1,7142857796416;0,5387755143101439;-1,186509371341184
523;2026-05-10 20:05:37.450;-1,7867524666246402;-1,1436902948543999;-0,22042934550272;-1,5889247592831999;0,7946855086202879;-0,533092642682368
524;2026-05-10 20:05:37.460;-2,54490183331232;-1,3001432974272;-0,34365347275136;-1,4635605296415999;1,0506020543101438;0,12034081365881594
525;2026-05-10 20:05:37.470;-3,3030512;-1,4565963;-0,4668776;-1,3381963;1,3065186;0,77377427
526;2026-05-10 20:05:37.480;-2,9656944121481055;-1,6189781809902122;-0,524222443984401;-1,2569286268263544;0,3817056251717341;3,0066829589352917
527;2026-05-10 20:05:37.490;-2,6283376242962104;-1,7813600619804244;-0,581567287968802;-1,175660953652709;-0,5431073496565317;5,239591647870583
528;2026-05-10 20:05:37.500;-2,2909722;-1,9437461;-0,6389136;-1,0943912;-1,467944;7,4725575
529;2026-05-10 20:05:37.510;0,5126081;-1,9379103;-0,40561438;-1,0943912;-1,467944;7,4725575
530;2026-05-10 20:05:37.520;-1,0113332;-1,2079184;-0,32095188;-1,0943912;-1,467944;7,4725575
531;2026-05-10 20:05:37.530;1,9448745;-1,709664;-0,13977744;-1,8338;-2,1594436;10,020267
532;2026-05-10 20:05:37.540;2,4201703;-1,543828;0,032270227;3,3670194;0,9285675;-7,26591
533;2026-05-10 20:05:37.550;2,3753029757056;-1,48327929998656;0,1923960448342336;3,3670194;0,9285675;-7,26591
534;2026-05-10 20:05:37.560;2,3304368;-1,4227321499999999;0,35251776349999997;3,3670194;0,9285675;-7,26591
535;2026-05-10 20:05:37.570;2,2855706242944;-1,36218500001344;0,5126394821657664;3,3670194;0,9285675;-7,26591
536;2026-05-10 20:05:37.580;2,2407033;-1,3016363;0,6727653;3,3670194;0,9285675;-7,26591
537;2026-05-10 20:05:37.590;2,41225134578688;-1,14709292187008;0,6196328699136;1,7556409896203522;-0,05650895881728003;0,8417627768831998
538;2026-05-10 20:05:37.600;2,583795;-0,9925535;0,5665018;0,14430383;-1,0415602;8,949228
539;2026-05-10 20:05:37.610;2,56010264076608;-0,9089395396057258;0,450733504353152;0,14430383;-1,0415602;8,949228
540;2026-05-10 20:05:37.620;2,536409675;-0,8253234386666667;0,334962245;0,14430383;-1,0415602;8,949228
541;2026-05-10 20:05:37.630;2,5127167092339198;-0,7417073377276074;0,219190985646848;0,14430383;-1,0415602;8,949228
542;2026-05-10 20:05:37.640;2,4890243499999998;-0,6580933773333334;0,10342268999999997;0,14430383;-1,0415602;8,949228
543;2026-05-10 20:05:37.650;2,46533199076608;-0,5744794169390592;-0,012345605646848046;0,14430383;-1,0415602;8,949228
544;2026-05-10 20:05:37.660;2,4416390249999997;-0,49086331600000005;-0,12811686500000008;0,14430383;-1,0415602;8,949228
545;2026-05-10 20:05:37.670;2,41794605923392;-0,40724721506094086;-0,24388812435315207;0,14430383;-1,0415602;8,949228
546;2026-05-10 20:05:37.680;2,3942537;-0,32363325466666676;-0,3596564200000001;0,14430383;-1,0415602;8,949228
547;2026-05-10 20:05:37.690;2,37056134076608;-0,2400192942723926;-0,47542471564684813;0,14430383;-1,0415602;8,949228
548;2026-05-10 20:05:37.700;2,346868375;-0,1564031933333334;-0,5911959750000001;0,14430383;-1,0415602;8,949228
549;2026-05-10 20:05:37.710;2,32317540923392;-0,07278709239427424;-0,7069672343531521;0,14430383;-1,0415602;8,949228
550;2026-05-10 20:05:37.720;2,29948305;0,010826867999999998;-0,8227355300000001;0,14430383;-1,0415602;8,949228
551;2026-05-10 20:05:37.730;2,260070429488;0,0860265274320384;-0,8415630090051841;0,334428841368704;-1,0843260192571733;8,568797602904747
552;2026-05-10 20:05:37.740;2,2206568;0,161228112;-0,8603909700000001;0,5245587199999999;-1,1270929333333333;8,188357466666666
553;2026-05-10 20:05:37.750;2,181243170512;0,23642969656796162;-0,8792189309948161;0,714688598631296;-1,1698598474094932;7,8079173304285865
554;2026-05-10 20:05:37.760;2,14183055;0,311629356;-0,89804641;0,9048136099999999;-1,2126256666666666;7,427486933333333
555;2026-05-10 20:05:37.770;2,102417929488;0,3868290154320384;-0,916873889005184;1,094938621368704;-1,25539148592384;7,04705653623808
556;2026-05-10 20:05:37.780;2,0630043;0,4620306;-0,93570185;1,2850685;-1,2981584;6,6666164
557;2026-05-10 20:05:37.790;2,1038213;1,5589255;-0,87963307;1,2850685;-1,2981584;6,6666164
558;2026-05-10 20:05:37.800;1,9888279;2,10236175;-0,611408785;1,2850685;-1,2981584;6,6666164
559;2026-05-10 20:05:37.810;1,8738345;2,645798;-0,3431845;1,2850685;-1,2981584;6,6666164
560;2026-05-10 20:05:37.820;1,7759992318163977;2,574426390970065;-0,3403966962110455;0,38402291117605897;-0,8352058811890722;4,054836979767552
561;2026-05-10 20:05:37.830;1,6781639636327952;2,5030547819401305;-0,337608892422091;-0,517022677647882;-0,37225336237814444;1,4430575595351054
562;2026-05-10 20:05:37.840;1,5803312;2,431685;-0,33482116;-1,4180452;0,090687305;-1,168655
563;2026-05-10 20:05:37.850;1,3558271315851453;2,337874534385773;-0,22559601703296756;-1,5019766342185206;0,22252141000247466;-1,3439645080127658
564;2026-05-10 20:05:37.860;1,1313173157925727;2,2440616671928866;-0,11636807786648379;-1,5859102171092603;0,3543588900012373;-1,5192785040063828
565;2026-05-10 20:05:37.870;0,9068075;2,1502488;-0,0071401387;-1,6698438;0,48619637;-1,6945925
566;2026-05-10 20:05:37.880;0,8937776;2,1070838;0,41861776;-1,6698438;0,48619637;-1,6945925
567;2026-05-10 20:05:37.890;1,40303318144512;2,20817685599232;0,375876542094592;1,03512012601856;0,06727034732172803;-4,0269508954304
568;2026-05-10 20:05:37.900;1,9123018;2,3092725;0,33313423;3,7401533;-0,3516664;-6,359369
569;2026-05-10 20:05:37.910;1,69262158812928;1,7990921697753601;-0,197043946193792;1,1876289781068798;-0,23402096915776;-1,6980148354303999
570;2026-05-10 20:05:37.920;1,472947;1,2889249;-0,72720855;-1,36483;-0,11637855;2,96322
571;2026-05-10 20:05:37.930;2,1518917;1,6170648;-0,4463485;-1,36483;-0,11637855;2,96322
572;2026-05-10 20:05:37.940;1,6176358;1,5353935;0,079407446;-1,36483;-0,11637855;2,96322
573;2026-05-10 20:05:37.950;1,806128350231681;1,2992829370979717;-0,00037493093513785164;-1,048262607318986;0,6858466578016331;-0,13442586581276045
574;2026-05-10 20:05:37.960;1,9946160751158406;1,0631784185489859;-0,08015526546756893;-0,731703318659493;1,4880513289008164;-3,23199243290638
575;2026-05-10 20:05:37.970;2,1831038;0,8270739;-0,1599356;-0,41514403;2,290256;-6,329559
576;2026-05-10 20:05:37.980;2,2288308;0,61104125;-0,20004006;-0,08830493999999998;2,2237153;-6,71522435
577;2026-05-10 20:05:37.990;2,2745578;0,3950086;-0,24014452;0,23853415;2,1571746;-7,1008897
578;2026-05-10 20:05:38.000;1,2812214;-1,2306489;-0,038174458;0,23853415;2,1571746;-7,1008897
579;2026-05-10 20:05:38.010;1,73751770933248;-0,7044604002990081;-0,18216347091704319;0,38943339346496003;2,11138638609664;-7,368384026028799
580;2026-05-10 20:05:38.020;2,1938257;-0,17825843;-0,32615617;0,5403365;2,065597;-7,6358852
581;2026-05-10 20:05:38.030;2,2130759;-0,9242878;-0,28022456;0,5403365;2,065597;-7,6358852
582;2026-05-10 20:05:38.040;2,0874411720967343;-1,0965334634848576;-0,213181312109705;0,5653642864268221;2,2524504054971968;-7,855730590628653
583;2026-05-10 20:05:38.050;1,9618064441934686;-1,268779126969715;-0,14613806421941;0,5903920728536443;2,4393038109943936;-8,075575981257307
584;2026-05-10 20:05:38.060;1,8361685;-1,4410292;-0,0790931;0,6154205;2,626162;-8,295427
585;2026-05-10 20:05:38.070;1,098813;-1,5665644;8,981307e-05;0,6154205;2,626162;-8,295427
586;2026-05-10 20:05:38.080;0,5382323036831731;-1,6084803756457628;-0,1384603089771583;1,3164842175130347;2,5539408829614203;-8,188608244865044
587;2026-05-10 20:05:38.090;-0,022348392633653916;-1,6503963512915256;-0,2770104310243166;2,0175479350260694;2,481719765922841;-8,08178948973009
588;2026-05-10 20:05:38.100;-0,58294344;-1,6923134;-0,4155641;2,7186296;2,4094968;-7,974968
589;2026-05-10 20:05:38.110;2,500592;-1,2821733;0,42964616;4,0249386;1,2261287;-5,59282
590;2026-05-10 20:05:38.120;0,6397736500000001;-1,1539358;-0,34057847;3,7499968999999997;0,07178539999999996;-4,37406545
591;2026-05-10 20:05:38.130;-1,2210447;-1,0256983;-1,1108031;3,4750552;-1,0825579;-3,1553109
592;2026-05-10 20:05:38.140;-1,0218545569325357;-0,901764365777298;-1,0074631848440114;3,4750552;-1,0825579;-3,1553109
593;2026-05-10 20:05:38.150;-0,8226644138650715;-0,7778304315545961;-0,9041232696880227;3,4750552;-1,0825579;-3,1553109
594;2026-05-10 20:05:38.160;-0,62347937;-0,65389967;-0,800786;3,4750552;-1,0825579;-3,1553109
595;2026-05-10 20:05:38.170;-0,5615284292321919;-0,641047413260992;-0,76858171222016;3,12405653034048;-1,02985836206272;-2,74609315680416
596;2026-05-10 20:05:38.180;-0,49957590249999995;-0,6281948275;-0,7363766;2,7730488749999997;-0,977157475;-2,3368649374999997
597;2026-05-10 20:05:38.190;-0,43762337576780796;-0,615342241739008;-0,70417148777984;2,42204121965952;-0,92445658793728;-1,9276367181958398
598;2026-05-10 20:05:38.200;-0,37567243499999997;-0,6024899850000001;-0,6719672;2,07104255;-0,87175705;-1,5184189749999997
599;2026-05-10 20:05:38.210;-0,313721494232192;-0,589637728260992;-0,63976291222016;1,72004388034048;-0,81905751206272;-1,1092012318041597
600;2026-05-10 20:05:38.220;-0,25176896749999994;-0,5767851425;-0,6075578;1,3690362249999999;-0,766356625;-0,6999730124999997
601;2026-05-10 20:05:38.230;-0,18981644076780793;-0,563932556739008;-0,5753526877798399;1,01802856965952;-0,71365573793728;-0,2907447931958397
602;2026-05-10 20:05:38.240;-0,1278655;-0,5510803;-0,5431484;0,6670299;-0,6609562;0,11847295
603;2026-05-10 20:05:38.250;-0,127913829381376;-0,51221709745536;-0,402675728073216;-0,3459461837401599;-0,0024693537395200867;0,82459793648448
604;2026-05-10 20:05:38.260;-0,12796216;-0,4733529;-0,26219946;-1,3589482;0,65603435;1,530741
605;2026-05-10 20:05:38.270;-0,6211725240158038;-0,5516595364161554;-0,250931964370536;-1,375808387743521;0,7309102445322433;1,5680044359545
606;2026-05-10 20:05:38.280;-1,114370262007902;-0,6299641682080777;-0,239664757185268;-1,3926681438717605;0,8057842222661217;1,6052669179772499
607;2026-05-10 20:05:38.290;-1,607568;-0,7082688;-0,22839755;-1,4095279;0,8806582;1,6425294
608;2026-05-10 20:05:38.300;-1,8632627485672595;-0,7823525321730894;-0,26904253349941976;-1,3447640140219135;0,843214763820101;1,9289228771930573
609;2026-05-10 20:05:38.310;-2,118957497134519;-0,8564362643461788;-0,30968751699883945;-1,2800001280438271;0,805771327640202;2,2153163543861147
610;2026-05-10 20:05:38.320;-2,3746457;-0,9305181;-0,35033146;-1,2152379;0,76832885;2,5017025
611;2026-05-10 20:05:38.330;-2,49642729117568;-1,04184922494336;-0,365382302346752;-1,30148219605888;-0,3564516276256001;1,68059673528832
612;2026-05-10 20:05:38.340;-2,618212;-1,1531832;-0,38043353;-1,3877287;-1,4812609;0,85946995
613;2026-05-10 20:05:38.350;0,06450748836991999;-0,5124090381957119;-0,251663359262912;-1,3877287;-1,4812609;0,85946995
614;2026-05-10 20:05:38.360;2,7471583;0,12834872;-0,122896485;-1,3877287;-1,4812609;0,85946995
615;2026-05-10 20:05:38.370;2,278747702585914;0,5446778127355206;-0,04572110428601416;-0,9796504787744736;-1,293350216230032;2,0189710865563817
616;2026-05-10 20:05:38.380;1,8103251137070433;0,9610175636322397;0,0314562521430071;-0,5715618106127632;-1,105434721884984;3,178501906721809
617;2026-05-10 20:05:38.390;1,3419025248281726;1,3773573145289588;0,10863360857202838;-0,1634731424510527;-0,9175192275399361;4,338032726887237
618;2026-05-10 20:05:38.400;0,8734919274140864;1,7936864072644794;0,18580898928601422;0,24460507877447363;-0,7296085437699681;5,497533863443618
619;2026-05-10 20:05:38.410;0,40508133;2,2100155;0,26298437;0,6526833;-0,54169786;6,657035
620;2026-05-10 20:05:38.420;0,9235336107361675;1,9803104398752431;0,07656209921698469;-0,2703768100121172;-0,30694907016930056;5,879123495240127
621;2026-05-10 20:05:38.430;1,441985891472335;1,7506053797504864;-0,10986017156603065;-1,1934369200242345;-0,07220028033860117;5,1012119904802535
622;2026-05-10 20:05:38.440;1,9604249;1,5209062;-0,29627767;-2,1164734;0,1625425;4,3233204
623;2026-05-10 20:05:38.450;1,6708696;1,6797299;0,1904369;-2,1164734;0,1625425;4,3233204
624;2026-05-10 20:05:38.460;1,232624960360276;0,4848931041898488;0,09681215974577602;-1,88721664370072;-0,02696114041036624;3,9941600912013175
625;2026-05-10 20:05:38.470;0,7943803207205516;-0,7099436916203025;0,0031874194915520455;-1,6579598874014403;-0,21646478082073248;3,664999782402635
626;2026-05-10 20:05:38.480;0,3561469;-1,9047499;-0,090434924;-1,428709;-0,40596357;3,3358479
627;2026-05-10 20:05:38.490;0,8814861340956412;-0,44110947978291315;0,156404921212718;-1,428709;-0,40596357;3,3358479
628;2026-05-10 20:05:38.500;1,4068388170478205;1,0225684101085433;0,40325108560635897;-1,428709;-0,40596357;3,3358479
629;2026-05-10 20:05:38.510;1,9321915;2,4862463;0,65009725;-1,428709;-0,40596357;3,3358479
630;2026-05-10 20:05:38.520;1,87925731506624;2,4940600812323197;0,478793097096224;-1,178652347016128;-0,410887516972672;3,08792267348352
631;2026-05-10 20:05:38.530;1,82632313013248;2,50187386246464;0,30748894419244793;-0,9285956940322561;-0,415811463945344;2,83999744696704
632;2026-05-10 20:05:38.540;1,7733875900662401;2,50968784373232;0,13618040584622393;-0,6785326395161281;-0,420735536972672;2,59206587348352
633;2026-05-10 20:05:38.550;1,72045205;2,517501825;-0,035128132500000075;-0,42846958500000004;-0,42565961;2,3441343
634;2026-05-10 20:05:38.560;1,6675178650662401;2,52531560623232;-0,2064322854037761;-0,17841293201612807;-0,430583556972672;2,09620907348352
635;2026-05-10 20:05:38.570;1,61458368013248;2,5331293874646397;-0,3777364383075521;0,07164372096774393;-0,435507503945344;1,84828384696704
636;2026-05-10 20:05:38.580;1,56164814006624;2,5409433687323197;-0,549044976653776;0,32170677548387194;-0,440431576972672;1,60035227348352
637;2026-05-10 20:05:38.590;1,5087126;2,54875735;-0,720353515;0,57176983;-0,44535565;1,3524207
638;2026-05-10 20:05:38.600;1,2109847;2,1053948;-0,3899293;-0,70157;-0,36498326;-2,4302838
639;2026-05-10 20:05:38.610;1,297769811309085;2,077426546398583;-0,22571716155382157;-0,7995133770469812;-0,22786112814860324;-2,7132650622347834
640;2026-05-10 20:05:38.620;1,3845571443454574;2,049457576800709;-0,06150081922308922;-0,8974592614765093;-0,09073548592569834;-2,9962535688826084
641;2026-05-10 20:05:38.630;1,47134447738183;2,0214886072028344;0,10271552310764313;-0,9954051459060375;0,04639015629720656;-3,2792420755304335
642;2026-05-10 20:05:38.640;1,558129588690915;1,9935203536014172;0,2669276615538215;-1,0933485229530187;0,1835122881486033;-3,562223337765217
643;2026-05-10 20:05:38.650;1,6449147;1,9655521;0,4311398;-1,1912919;0,32063442;-3,8452046
644;2026-05-10 20:05:38.660;2,5224342;1,8542162;0,03728023;-1,1912919;0,32063442;-3,8452046
645;2026-05-10 20:05:38.670;2,1737065;2,0340786;0,4707708;-1,1912919;0,32063442;-3,8452046
646;2026-05-10 20:05:38.680;2,1670654600064;1,96874083633408;0,4049917053165227;-1,0544423883628373;0,355901258578688;-4,03076127484416
647;2026-05-10 20:05:38.690;2,1604244200128;1,90340307266816;0,3392126106330453;-0,9175928767256747;0,391168097157376;-4,21631794968832
648;2026-05-10 20:05:38.700;2,1537832100064;1,83806363633408;0,2734318319831893;-0,7807398616961706;0,42643583857868794;-4,40187937484416
649;2026-05-10 20:05:38.710;2,147142;1,7727242;0,2076510533333333;-0,6438868466666666;0,46170357999999995;-4,5874408
650;2026-05-10 20:05:38.720;2,1405009600064;1,70738643633408;0,141871958649856;-0,507037335029504;0,49697041857868796;-4,77299747484416
651;2026-05-10 20:05:38.730;2,1338599200128;1,64204867266816;0,07609286396637864;-0,37018782339234135;0,5322372571573759;-4,95855414968832
652;2026-05-10 20:05:38.740;2,1272187100064;1,57670923633408;0,010312085316522645;-0,23333480836283735;0,567504998578688;-5,14411557484416
653;2026-05-10 20:05:38.750;2,1205775;1,5113698;-0,05546869333333335;-0,09648179333333336;0,6027727399999999;-5,329677
654;2026-05-10 20:05:38.760;2,1139364600064;1,4460320363340802;-0,12124778801681069;0,040367718303829306;0,638039578578688;-5,5152336748441595
655;2026-05-10 20:05:38.770;2,1072954200128;1,3806942726681601;-0,18702688270028803;0,17721722994099195;0,6733064171573759;-5,70079034968832
656;2026-05-10 20:05:38.780;2,1006542100064;1,3153548363340801;-0,25280766135014404;0,31407024497049596;0,7085741585786879;-5,88635177484416
657;2026-05-10 20:05:38.790;2,094013;1,2500154;-0,31858844;0,45092326;0,7438419;-6,0719132
658;2026-05-10 20:05:38.800;1,9837020495985909;1,22432030312116;-0,37167482838842464;0,26248548162754975;0,9062012374191037;-6,112687142469484
659;2026-05-10 20:05:38.810;1,8733910991971818;1,1986252062423202;-0,42476121677684936;0,07404770325509956;1,0685605748382074;-6,15346108493897
660;2026-05-10 20:05:38.820;1,7630773247992955;1,1729294515605801;-0,47784896419421236;-0,11439489918622507;1,2309240687095517;-6,194236071234743
661;2026-05-10 20:05:38.830;1,652763550401409;1,1472336968788401;-0,5309367116115753;-0,3028375016275497;1,393287562580896;-6,2350110575305155
662;2026-05-10 20:05:38.840;1,5424526;1,1215386;-0,5840231;-0,49127528;1,5556469;-6,275785
663;2026-05-10 20:05:38.850;2,0947795;0,35623476;-0,05658028;0,45622906;1,492815;-6,8390026
664;2026-05-10 20:05:38.860;1,7355232999999999;1,38245448;-0,10155564;-0,141825455;0,37547269999999994;-1,1708104500000005
665;2026-05-10 20:05:38.870;1,3762671;2,4086742;-0,146531;-0,73987997;-0,7418696;4,4973817
666;2026-05-10 20:05:38.880;2,2193012;0,08679457;-0,23343687;-0,73987997;-0,7418696;4,4973817
667;2026-05-10 20:05:38.890;2,213441999998293;0,05416727484629826;-0,25442705509625557;-0,14422091271136978;-0,09972159279960408;0,527907546559375
668;2026-05-10 20:05:38.900;2,2075826499991464;0,021539144423149133;-0,2754177775481278;0,45145339364431514;0,542442853600198;-3,4416682267203123
669;2026-05-10 20:05:38.910;2,2017233;-0,011088986;-0,2964085;1,0471277;1,1846073;-7,411244
670;2026-05-10 20:05:38.920;2,115828;-0,43236494;-0,5525222;1,0471277;1,1846073;-7,411244
671;2026-05-10 20:05:38.930;1,715030270276608;-0,45042006889139197;-0,5123970969412266;1,037010739498752;1,1571012687483733;-7,47086368685824
672;2026-05-10 20:05:38.940;1,31422228;-0,46847566;-0,4722709666666666;1,02689352;1,1295945333333333;-7,5304849
673;2026-05-10 20:05:38.950;0,9134142897233921;-0,486531251108608;-0,43214483639210666;1,016776300501248;1,1020877979182933;-7,5901061131417595
674;2026-05-10 20:05:38.960;0,5126165600000001;-0,50458638;-0,3920197333333333;1,0066593400000001;1,0745817666666666;-7,6497258
675;2026-05-10 20:05:38.970;0,11181883027660817;-0,522641508891392;-0,35189463027455997;0,996542379498752;1,04707573541504;-7,70934548685824
676;2026-05-10 20:05:38.980;-0,28898916;-0,5406971;-0,3117685;0,98642516;1,019569;-7,7689667
677;2026-05-10 20:05:38.990;-0,91600103;-0,61541037;-0,37727298;-0,28899163;-0,30269244;3,238441
678;2026-05-10 20:05:39.000;-1,1188628222238814;-0,827365937956002;-0,44672081403756386;-0,7288690329981141;-0,2370395355786222;4,0841214501011205
679;2026-05-10 20:05:39.010;-1,321724614447763;-1,039321505912004;-0,5161686480751277;-1,1687464359962283;-0,1713866311572444;4,929801900202241
680;2026-05-10 20:05:39.020;-1,5245916;-1,2512825;-0,58561826;-1,6086351;-0,105732046;5,775504
681;2026-05-10 20:05:39.030;-0,827619185156374;-1,306311839155367;-0,455830641652999;-1,7601729862134878;-0,7786028475146901;7,146442730388182
682;2026-05-10 20:05:39.040;-0,13066461257818715;-1,3613397695776834;-0,3260463458264995;-1,911706993106744;-1,451456423757345;8,517346365194092
683;2026-05-10 20:05:39.050;0,56628996;-1,4163677;-0,19626205;-2,063241;-2,12431;9,88825
684;2026-05-10 20:05:39.060;0,85436733;-1,37407305;-0,13433936;-2,05525615;-2,1791395000000002;9,99365025
685;2026-05-10 20:05:39.070;1,1424447;-1,3317784;-0,07241667;-2,0472713;-2,233969;10,0990505
686;2026-05-10 20:05:39.080;3,2726026;-0,46612886;0,5646274;-2,0472713;-2,233969;10,0990505
687;2026-05-10 20:05:39.090;3,2258634976908898;-0,44041151224835307;0,54745843968734;-2,0472713;-2,233969;10,0990505
688;2026-05-10 20:05:39.100;3,179123198845445;-0,4146935061241765;0,53028903984367;-2,0472713;-2,233969;10,0990505
689;2026-05-10 20:05:39.110;3,1323829;-0,3889755;0,51311964;-2,0472713;-2,233969;10,0990505
690;2026-05-10 20:05:39.120;2,5900421000000002;0,53712652625;0,5005792225;-2,0472713;-2,233969;10,0990505
691;2026-05-10 20:05:39.130;2,0477013;1,4632285525000002;0,48803880499999996;-2,0472713;-2,233969;10,0990505
692;2026-05-10 20:05:39.140;1,170670375;-0,7052576;0,5393289400000001;-2,0472713;-2,233969;10,0990505
693;2026-05-10 20:05:39.150;2,0625373532512;-0,04361748111488006;0,43452769856128004;-2,0068052820416;-1,27310935115392;7,6732126996736
694;2026-05-10 20:05:39.160;2,9543815;0,6180057;0,32972914;-1,9663403;-0,3122743;5,247437
695;2026-05-10 20:05:39.170;2,833318936262028;0,6564854512830709;0,27668864452216785;-1,88008846530679;-0,32591968002602667;5,1944710565042715
696;2026-05-10 20:05:39.180;2,712253273282754;0,6949661876603839;0,22364679119027098;-1,7938344225383487;-0,3395654093782533;5,141503757063034
697;2026-05-10 20:05:39.190;2,5911876103034794;0,7334469240376968;0,17060493785837408;-1,7075803797699074;-0,35321113873048;5,088536457621796
698;2026-05-10 20:05:39.200;2,470125046565507;0,7719266753207676;0,11756444238054196;-1,6213285450766974;-0,36685651875650666;5,035570514126068
699;2026-05-10 20:05:39.210;2,349062482827535;0,8104064266038385;0,06452394690270985;-1,5350767103834875;-0,38050189878253327;4,98260457063034
700;2026-05-10 20:05:39.220;2,2279968198482605;0,8488871629811515;0,011482093570812958;-1,4488226676150462;-0,39414762813475995;4,929637271189102
701;2026-05-10 20:05:39.230;2,106931156868986;0,8873678993584645;-0,04155975976108393;-1,362568624846605;-0,40779335748698664;4,876669971747864
702;2026-05-10 20:05:39.240;1,9858685931310138;0,9258476506415354;-0,09460025523891605;-1,276316790153395;-0,4214387375130133;4,823704028252136
703;2026-05-10 20:05:39.250;1,8648060293930415;0,9643274019246063;-0,14764075071674818;-1,190064955460185;-0,4350841175390399;4,770738084756408
704;2026-05-10 20:05:39.260;1,7437403664137674;1,0028081383019192;-0,20068260404864505;-1,1038109126917437;-0,4487298468912666;4,71777078531517
705;2026-05-10 20:05:39.270;1,622674703434493;1,0412888746792321;-0,25372445738054195;-1,0175568699233024;-0,4623755762434933;4,664803485873932
706;2026-05-10 20:05:39.280;1,5016121396965207;1,0797686259623032;-0,3067649528583741;-0,9313050352300924;-0,47602095626951996;4,611837542378204
707;2026-05-10 20:05:39.290;1,3805495759585484;1,118248377245374;-0,3598054483362062;-0,8450532005368826;-0,48966633629554657;4,558871598882476
708;2026-05-10 20:05:39.300;1,259483912979274;1,156729113622687;-0,4128473016681031;-0,7587991577684412;-0,5033120656477733;4,505904299441238
709;2026-05-10 20:05:39.310;1,13841825;1,19520985;-0,46588915499999994;-0,6725451149999999;-0,5169577949999999;4,452937
710;2026-05-10 20:05:39.320;1,188383;1,4908754;0,17885686;-0,18413223;-0,942024;5,878234
711;2026-05-10 20:05:39.330;0,5885677777331201;0,7699500279628801;0,237276582217984;-0,535986111212672;-1,0844148773734401;4,43059787997952
712;2026-05-10 20:05:39.340;-0,011262800000000017;0,04900620000000011;0,2956978;-0,887849;-1,2268094;2,9829247
713;2026-05-10 20:05:39.350;-0,103473170277632;-0,4596959113036799;-0,03015013080012802;-0,71272040838272;-1,12034293724672;2,55705894898816
714;2026-05-10 20:05:39.360;-0,19568118;-0,968385;-0,35598972;-0,5375963;-1,0138792;2,1312041
715;2026-05-10 20:05:39.370;2,0574124;2,4015458;0,019887738;-0,5375963;-1,0138792;2,1312041
716;2026-05-10 20:05:39.380;2,2232687;2,7046473;-0,31554648;-0,5375963;-1,0138792;2,1312041
717;2026-05-10 20:05:39.390;2,1524208;2,6634076;-0,6248324;-0,5375963;-1,0138792;2,1312041
718;2026-05-10 20:05:39.400;1,8816644438171468;2,517151114737983;-0,5557670793649466;-0,5375963;-1,0138792;2,1312041
719;2026-05-10 20:05:39.410;1,6109080876342938;2,370894629475966;-0,48670175872989324;-0,5375963;-1,0138792;2,1312041
720;2026-05-10 20:05:39.420;1,3401448;2,2246344;-0,41763467;-0,5375963;-1,0138792;2,1312041
721;2026-05-10 20:05:39.430;1,250734974091836;2,1901235110217003;-0,3795819172413322;-1,147116369009361;-0,6982019358436516;0,8999173196412574
722;2026-05-10 20:05:39.440;1,1613274370459181;2,15561350551085;-0,3415301386206661;-1,7566208345046805;-0,3825327529218258;-0,331337940179371
723;2026-05-10 20:05:39.450;1,0719199;2,1211035;-0,30347836;-2,3661253;-0,06686357;-1,5625932
724;2026-05-10 20:05:39.460;0,5977071067692937;2,0611539884373826;-0,10614369943245044;-2,5600738216728676;0,2576715393308189;-1,442461208220125
725;2026-05-10 20:05:39.470;0,12349431353858746;2,0012044768747654;0,09119096113509911;-2,754022343345735;0,5822066486616377;-1,32232921644025
726;2026-05-10 20:05:39.480;-0,35070634;1,9412565;0,28852057;-2,9479659;0,90673345;-1,2022003
727;2026-05-10 20:05:39.490;-0,1825625596905827;1,9801432696573027;0,40394466673686724;-2,9479659;0,90673345;-1,2022003
728;2026-05-10 20:05:39.500;-0,014414474845291379;2,0190310348286515;0,5193717183684335;-2,9479659;0,90673345;-1,2022003
729;2026-05-10 20:05:39.510;0,15373361;2,0579188;0,63479877;-2,9479659;0,90673345;-1,2022003
730;2026-05-10 20:05:39.520;-0,36566317;-0,37875926;-0,753638;-2,9479659;0,90673345;-1,2022003
731;2026-05-10 20:05:39.530;1,8965952;2,4403782;0,9630811;-1,8593516;1,1739608;0,94570667
732;2026-05-10 20:05:39.540;-1,4173722;-1,3887669;-0,5422532;-1,8593516;1,1739608;0,94570667
733;2026-05-10 20:05:39.550;1,0635058;0,6474966;-0,4383034;1,250476;1,2676501;-5,499131
734;2026-05-10 20:05:39.560;2,0109408;-0,21778691;0,0009654905;2,8394413;1,2543333;-3,2005672
735;2026-05-10 20:05:39.570;1,95642007287424;-0,276586379857152;0,0298593030294656;2,43075588124032;1,4567496340377601;-4,26586763897984
736;2026-05-10 20:05:39.580;1,90189795;-0,335387355;0,05875385525;2,02206;1,6591711500000002;-5,331195350000001
737;2026-05-10 20:05:39.590;1,8473758271257599;-0,394188330142848;0,0876484074705344;1,61336411875968;1,86159266596224;-6,396523061020161
738;2026-05-10 20:05:39.600;1,7928551;-0,4529878;0,11654222;1,2046787;2,064009;-7,4618235
739;2026-05-10 20:05:39.610;1,6962092370828799;-0,48781115425536;0,10509803248747521;1,50597539335296;1,9958721721625599;-7,51146006464384
740;2026-05-10 20:05:39.620;1,5995609;-0,5226354;0,093653552;1,8072798;1,9277335999999998;-7,5610979
741;2026-05-10 20:05:39.630;1,5029125629171198;-0,55745964574464;0,08220907151252481;2,10858420664704;1,8595950278374398;-7,61073573535616
742;2026-05-10 20:05:39.640;1,4062667;-0,592283;0,070764884;2,4098809;1,7914582;-7,6603723
743;2026-05-10 20:05:39.650;0,9849119645461992;-0,48219163558333616;-0,09378286901573542;2,8501094200037547;0,9605211648402566;-7,1702862309093085
744;2026-05-10 20:05:39.660;0,5635464422730996;-0,3720974527916681;-0,25833483450786776;3,2903492100018776;0,12956285742012827;-6,6801876154546544
745;2026-05-10 20:05:39.670;0,14218092;-0,26200327;-0,4228868;3,730589;-0,70139545;-6,190089
746;2026-05-10 20:05:39.680;0,008020871513734451;-0,3617297423232099;-0,4355428520003072;3,730589;-0,70139545;-6,190089
747;2026-05-10 20:05:39.690;-0,12613917697253108;-0,46145621464641984;-0,4481989040006144;3,730589;-0,70139545;-6,190089
748;2026-05-10 20:05:39.700;-0,26030266;-0,56118524;-0,46085528;3,730589;-0,70139545;-6,190089
749;2026-05-10 20:05:39.710;-0,33250165;-0,61854357;-0,56298345;3,730589;-0,70139545;-6,190089
750;2026-05-10 20:05:39.720;-0,2919941556275648;-0,635612842760512;-0,49721952741398406;3,20718889960704;-0,72395354250272;-5,4552232189024
751;2026-05-10 20:05:39.730;-0,2514866612551296;-0,6526821155210241;-0,431455604827968;2,68378879921408;-0,74651163500544;-4,7203574378048
752;2026-05-10 20:05:39.740;-0,21097812987756479;-0,669751825260512;-0,36568999866398405;2,16037529960704;-0,76907030500272;-3,9854728439024
753;2026-05-10 20:05:39.750;-0,1704695985;-0,6868215350000001;-0,2999243925;1,6369617999999997;-0,791628975;-3,2505882500000003
754;2026-05-10 20:05:39.760;-0,12996210412756481;-0,703890807760512;-0,234160469913984;1,1135616996070397;-0,81418706750272;-2,5157224689024003
755;2026-05-10 20:05:39.770;-0,08945460975512962;-0,720960080521024;-0,168396547327968;0,5901615992140796;-0,83674516000544;-1,7808566878048002
756;2026-05-10 20:05:39.780;-0,04894607837756482;-0,7380297902605121;-0,102630941163984;0,06674809960703952;-0,85930383000272;-1,0459720939024002
757;2026-05-10 20:05:39.790;-0,008437547;-0,7550995;-0,036865335;-0,4566654;-0,8818625;-0,3110875
758;2026-05-10 20:05:39.800;-0,8726743230851118;-0,9766091430935172;-0,14776041701652062;-0,7835162441704284;-0,06813297724747626;0,17899678456057408
759;2026-05-10 20:05:39.810;-1,7369110991702237;-1,1981187861870344;-0,25865549903304125;-1,110367088340857;0,7455965455050475;0,6690810691211482
760;2026-05-10 20:05:39.820;-2,60117;-1,4196341;-0,36955342;-1,4372263;1,5593469;1,1591779
761;2026-05-10 20:05:39.830;-1,9978506901116801;-1,42925398563296;-0,28210415441372805;-1,47847985303872;1,18505625914112;2,22790246699936
762;2026-05-10 20:05:39.840;-1,3945468250000002;-1,4388736249999998;-0,19465712750000003;-1,5197323500000002;0,8107751999999999;3,296599675
763;2026-05-10 20:05:39.850;-0,79124295988832;-1,4484932643670398;-0,10721010058627205;-1,5609848469612801;0,43649414085887994;4,36529688300064
764;2026-05-10 20:05:39.860;-0,18792364999999997;-1,45811315;-0,019760835000000056;-1,6022384;0,06220349999999996;5,4340214499999995
765;2026-05-10 20:05:39.870;0,4153956598883201;-1,46773303563296;0,06768843058627193;-1,64349195303872;-0,31208714085888006;6,502746016999359
766;2026-05-10 20:05:39.880;1,0186995250000002;-1,477352675;0,15513545749999993;-1,6847444500000002;-0,6863682000000001;7,571443224999999
767;2026-05-10 20:05:39.890;1,6220033901116802;-1,48697231436704;0,24258248441372793;-1,7259969469612801;-1,06064925914112;8,64014043300064
768;2026-05-10 20:05:39.900;2,2253227;-1,4965922;0,33003175;-1,7672505;-1,4349399;9,708865
769;2026-05-10 20:05:39.910;1,947084853601152;-1,2007781136281601;0,29646490784992;-1,8005256759168;-0,6079748649830401;9,392118445696
770;2026-05-10 20:05:39.920;1,6688541300000002;-0,9049716000000001;0,262898925;-1,8338;0,218969;9,07538
771;2026-05-10 20:05:39.930;2,155622809281152;-0,45477373510643204;0,30213307279648;-1,8338;0,218969;9,07538
772;2026-05-10 20:05:39.940;2,6424039500000003;-0,00456434499999997;0,341368225;-1,8338;0,218969;9,07538
773;2026-05-10 20:05:39.950;2,2273583;-0,44847277;0,22630161;-1,0725746;0,5181359;8,330125
774;2026-05-10 20:05:39.960;2,2562544640994924;-0,2787161813297186;0,09265116759804824;-0,9365677227282502;0,40842737342969193;7,972673010355227
775;2026-05-10 20:05:39.970;2,285150628198984;-0,10895959265943721;-0,04099927480390349;-0,8005608454565004;0,29871884685938394;7,615221020710454
776;2026-05-10 20:05:39.980;2,314047532049746;0,0608013418351407;-0,17465313870097585;-0,6645504863641252;0,18900751171484595;7,2577598801776135
777;2026-05-10 20:05:39.990;2,342944435900508;0,23056227632971862;-0,3083070025980482;-0,5285401272717498;0,07929617657030798;6,900298739644774
778;2026-05-10 20:05:40.000;2,3718406;0,400318865;-0,44195744499999995;-0,39253325000000006;-0,030412350000000057;6,542846750000001
779;2026-05-10 20:05:40.010;2,4007367640994923;0,5700754536702815;-0,5756078874019517;-0,25652637272825024;-0,14012087657030808;6,185394760355226
780;2026-05-10 20:05:40.020;2,429633667950254;0,7398363881648593;-0,709261751299024;-0,12051601363587496;-0,24983221171484607;5,827933619822387
781;2026-05-10 20:05:40.030;2,458530571801016;0,9095973226594373;-0,8429156151960965;0,015494345456500329;-0,35954354685938406;5,470472479289547
782;2026-05-10 20:05:40.040;2,487426735900508;1,0793539113297186;-0,9765660575980482;0,15150122272825015;-0,46925207342969205;5,113020489644773
783;2026-05-10 20:05:40.050;2,5163229;1,2491105;-1,1102165;0,2875081;-0,5789606;4,7555685
784;2026-05-10 20:05:40.060;2,315293;1,3275689;-1,1204171;-0,22513002;-0,5273338;4,4846063
785;2026-05-10 20:05:40.070;2,2083693751934943;1,3665243648314231;-1,0436819104028605;0,14270439762704057;-0,366929479134631;2,3038150483056996
786;2026-05-10 20:05:40.080;2,101448487596747;1,4054788324157117;-0,9669486852014302;0,5105293988135203;-0,20652926456731552;0,12307962415284993
787;2026-05-10 20:05:40.090;1,9945276;1,4444333;-0,89021546;0,8783544;-0,04612905;-2,0576558
788;2026-05-10 20:05:40.100;1,95990365;1,4515485000000001;-0,82927678;-0,12746139999999995;-0,343690245;0,9489094
789;2026-05-10 20:05:40.110;1,9252797;1,4586637;-0,7683381;-1,1332772;-0,64125144;3,9554746
790;2026-05-10 20:05:40.120;2,0027665065249445;1,6982987661055133;-0,7127568751590276;-1,1838493421346359;-0,7115211644288113;3,8541208578756043
791;2026-05-10 20:05:40.130;2,0802533130498895;1,9379338322110264;-0,6571756503180552;-1,2344214842692718;-0,7817908888576227;3,752767115751208
792;2026-05-10 20:05:40.140;2,157742103262472;2,1775750330527566;-0,6015930025795138;-1,284994921067318;-0,8520624122144057;3,651410778937802
793;2026-05-10 20:05:40.150;2,2352308934750553;2,4172162338944867;-0,5460103548409724;-1,335568357865364;-0,9223339355711887;3,5500544421243956
794;2026-05-10 20:05:40.160;2,3127177;2,6568513;-0,49042913;-1,3861405;-0,99260366;3,4487007
795;2026-05-10 20:05:40.170;2,0540936472403315;2,549715828468785;-0,19673565243284294;-1,3861405;-0,99260366;3,4487007
796;2026-05-10 20:05:40.180;1,7954629736201657;2,4425776142343927;0,09696534378357853;-1,3861405;-0,99260366;3,4487007
797;2026-05-10 20:05:40.190;1,5368323;2,3354394;0,39066634;-1,3861405;-0,99260366;3,4487007
798;2026-05-10 20:05:40.200;2,213821;2,4416754;0,059066735;-1,3861405;-0,99260366;3,4487007
799;2026-05-10 20:05:40.210;2,4568727;2,4554746;-0,08337581;-1,3861405;-0,99260366;3,4487007
800;2026-05-10 20:05:40.220;2,3674945373161074;2,269617880709629;-0,16309892029516676;-0,6419432162644639;-0,18239745966225215;1,1057449737003788
801;2026-05-10 20:05:40.230;2,278116374632215;2,083761161419258;-0,2428220305903335;0,10225406747107207;0,6278087406754957;-1,237210752599242
802;2026-05-10 20:05:40.240;2,1887405;1,8979092;-0,3225431;0,8464323;1,4379942;-3,5801065
803;2026-05-10 20:05:40.250;2,036996525681067;1,7081892534464;-0,3239988871990187;0,8081053572578133;1,49273284933632;-3,9057080822464
804;2026-05-10 20:05:40.260;1,8852486666666668;1,51846445;-0,3254547116666667;0,7697774333333334;1,5474728999999998;-4,231318
805;2026-05-10 20:05:40.270;1,7335008076522667;1,3287396465535999;-0,3269105361343147;0,7314495094088533;1,60221295066368;-4,5569279177536
806;2026-05-10 20:05:40.280;1,5817568333333334;1,1390197;-0,3283663233333334;0,6931225666666666;1,6569516;-4,8825295
807;2026-05-10 20:05:40.290;1,4300128590144;0,9492997534463999;-0,329822110532352;0,65479562392448;1,71169024933632;-5,2081310822464
808;2026-05-10 20:05:40.300;1,278265;0,75957495;-0,331277935;0,6164677;1,7664303;-5,533741
809;2026-05-10 20:05:40.310;2,8844903;-0,4443726;-0,066408955;0,6164677;1,7664303;-5,533741
810;2026-05-10 20:05:40.320;2,68363004604416;-0,25854319864678404;-0,11516389217881601;0,66171479582976;1,74300827480576;-5,7448052983424
811;2026-05-10 20:05:40.330;2,48276979208832;-0,07271379729356803;-0,163918829357632;0,70696189165952;1,71958624961152;-5,9558695966848
812;2026-05-10 20:05:40.340;2,28190439604416;0,11312036135321596;-0,212675014678816;0,75221014582976;1,69616362480576;-6,1669392983424
813;2026-05-10 20:05:40.350;2,081039;0,29895452;-0,2614312;0,7974584;1,672741;-6,378009
814;2026-05-10 20:05:40.360;2,092897628566089;0,1689544642176108;-0,24209249703085317;0,9769514619675186;1,3793244846235766;-5,377303287357663
815;2026-05-10 20:05:40.370;2,1047562571321783;0,0389544084352216;-0,22275379406170637;1,1564445239350372;1,0859079692471534;-4,376597574715327
816;2026-05-10 20:05:40.380;2,1166151892830443;-0,0910489753911946;-0,20341459601542658;1,3359421809837593;0,7924839423117883;-3,3758662436788316
817;2026-05-10 20:05:40.390;2,1284741214339107;-0,2210523592176108;-0,1840753979691468;1,5154398380324814;0,4990599153764234;-2,375134912642336
818;2026-05-10 20:05:40.400;2,14033275;-0,351052415;-0,164736695;1,6949329;0,20564339999999998;-1,3744291999999998
819;2026-05-10 20:05:40.410;1,4668767;-0,9955358;0,067444734;2,5631557;1,0690665;-7,1573334
820;2026-05-10 20:05:40.420;1,519251120384;-0,97460860713536;0,08958735142187521;2,2053018695296;1,37130466859904;-7,2898841466278395
821;2026-05-10 20:05:40.430;1,571625540768;-0,95368141427072;0,1117299688437504;1,8474480390591999;1,67354283719808;-7,42243489325568
822;2026-05-10 20:05:40.440;1,623998620384;-0,93275475713536;0,1338720194218752;1,4896033695295998;1,9757732685990401;-7,55498224662784
823;2026-05-10 20:05:40.450;1,6763717;-0,9118281;0,15601407;1,1317587;2,2780037;-7,6875296
824;2026-05-10 20:05:40.460;1,0448473277276684;-0,9433095019711916;-0,06535587566602383;0,9415453101998499;2,217853353390279;-7,715204969493464
825;2026-05-10 20:05:40.470;0,4133229554553367;-0,9747909039423832;-0,28672582133204766;0,7513319203996996;2,1577030067805576;-7,742880338986927
826;2026-05-10 20:05:40.480;-0,21818525;-1,0062715;-0,5080901;0,5611234;2,0975542;-7,770555
827;2026-05-10 20:05:40.490;-0,2291026717202437;-0,990991223531477;-0,5232401155169362;0,5126812429343398;1,6882779800601964;-6,7967203888486605
828;2026-05-10 20:05:40.500;-0,24002037293006093;-0,9757105558828693;-0,5383905188792341;0,464237845733585;1,2789912825150491;-5,822860847212165
829;2026-05-10 20:05:40.510;-0,2509380741398781;-0,9604298882342615;-0,5535409222415318;0,41579444853283015;0,8697045849699018;-4,84900130557567
830;2026-05-10 20:05:40.520;-0,26185549586012186;-0,9451496117657385;-0,5686909377584681;0,3673522914671699;0,4604283650300983;-3,87516669442433
831;2026-05-10 20:05:40.530;-0,27277291758036554;-0,9298693352972155;-0,5838409532754043;0,3189101344015097;0,05115214509029484;-2,9013320832729903
832;2026-05-10 20:05:40.540;-0,28369061879018276;-0,9145886676486077;-0,5989913566377021;0,27046673720075487;-0,35813455245485243;-1,9274725416364953
833;2026-05-10 20:05:40.550;-0,29460832;-0,899308;-0,61414176;0,22202334;-0,76742125;-0,953613
834;2026-05-10 20:05:40.560;-0,28947189;-0,8688985;-0,47699524499999996;-0,44258057999999995;-0,43126212;-0,35980835499999997
835;2026-05-10 20:05:40.570;-0,28433546;-0,838489;-0,33984873;-1,1071845;-0,09510299;0,23399629
836;2026-05-10 20:05:40.580;-0,52877444;-0,85742784;-0,33223316;-2,0249135;1,0637608;0,60821235
837;2026-05-10 20:05:40.590;-1,3430599569616084;-1,0904586036741277;-0,36612515841603593;-2,103518674844479;1,0367949864560062;0,9444732054451432
838;2026-05-10 20:05:40.600;-2,1573246284808043;-1,3234834018370638;-0,40001628920801796;-2,1821218374222395;1,0098298632280032;1,2807254527225715
839;2026-05-10 20:05:40.610;-2,9715893;-1,5565082;-0,43390742;-2,260725;0,98286474;1,6169777
840;2026-05-10 20:05:40.620;-3,0599136;-1,6779561;-0,35972574;-2,260725;0,98286474;1,6169777
841;2026-05-10 20:05:40.630;-1,9109792;-2,0197737;-0,04399376;-1,4388145;-0,6093119;-0,12051498
842;2026-05-10 20:05:40.640;-1,59057735;-2,0299685;-0,004201691499999997;-1,92217475;-0,7392080249999999;4,07952401
843;2026-05-10 20:05:40.650;-1,2701755;-2,0401633;0,035590377;-2,405535;-0,86910415;8,279563
844;2026-05-10 20:05:40.660;-0,7053044757947499;-1,9692734940976793;0,11078108354297972;-2,279475549167746;-0,9791866872307526;8,528906753247352
845;2026-05-10 20:05:40.670;-0,14043345158949988;-1,8983836881953582;0,18597179008595946;-2,153416098335492;-1,0892692244615054;8,778250506494702
846;2026-05-10 20:05:40.680;0,424423112102625;-1,8274956970488396;0,2611605717714898;-2,027359874583873;-1,1993489436153764;9,027587876623675
847;2026-05-10 20:05:40.690;0,98927967579475;-1,7566077059023208;0,3363493534570203;-1,9013036508322538;-1,3094286627692473;9,276925246752647
848;2026-05-10 20:05:40.700;1,5541507;-1,6857179;0,41154006;-1,7752442;-1,4195112;9,526269
849;2026-05-10 20:05:40.710;2,23945082172928;-1,3358559718246399;0,530701105241856;-1,7752442;-1,4195112;9,526269
850;2026-05-10 20:05:40.720;2,9247334;-0,986003;0,6498591;-1,7752442;-1,4195112;9,526269
851;2026-05-10 20:05:40.730;2,7796817566848;0,013072611668480038;-0,005746458141440018;-1,7752442;-1,4195112;9,526269
852;2026-05-10 20:05:40.740;2,6346264;1,0121738;-0,6613688;-1,7752442;-1,4195112;9,526269
853;2026-05-10 20:05:40.750;2,4400680346848;1,20544617385472;-0,524613714557312;-1,62765726091136;-1,45611121847424;8,073800483640959
854;2026-05-10 20:05:40.760;2,24551465;1,3987136;-0,38786212999999997;-1,4800741;-1,4927103000000002;6,62136915
855;2026-05-10 20:05:40.770;2,0509612653152;1,59198102614528;-0,25111054544268796;-1,33249093908864;-1,5293093815257601;5,16893781635904
856;2026-05-10 20:05:40.780;1,8564029;1,7852534;-0,11435546;-1,184904;-1,5659094;3,7164693
857;2026-05-10 20:05:40.790;1,988083097697093;1,9047957391874546;-0,10324664940081263;-1,1885052574424821;-1,459392892311794;3,6398631746142622
858;2026-05-10 20:05:40.800;2,1197599244242733;2,024335018130197;-0,0921381231835365;-1,1921064226939537;-1,352879111411282;3,563259010320232
859;2026-05-10 20:05:40.810;2,2514367511514535;2,1438742970729394;-0,08102959696626036;-1,1957075879454255;-1,2463653305107696;3,486654846026202
860;2026-05-10 20:05:40.820;2,3831169488485466;2,263416636260394;-0,06992078636707298;-1,1993088453879077;-1,1398488228225636;3,4100487206404644
861;2026-05-10 20:05:40.830;2,5147971465456394;2,382958975447848;-0,0588119757678856;-1,20291010283039;-1,0333323151343576;3,3334425952547266
862;2026-05-10 20:05:40.840;2,64647397327282;2,502498254390591;-0,04770344955060946;-1,2065112680818615;-0,9268185342338454;3,2568384309606966
863;2026-05-10 20:05:40.850;2,7781508;2,6220375333333332;-0,036594923333333335;-1,2101124333333333;-0,8203047533333333;3,1802342666666665
864;2026-05-10 20:05:40.860;2,6741819294769944;2,3266591433588903;-0,1622744163401685;-1,14937253724841;-0,8262796532073818;2,6449430100175215
865;2026-05-10 20:05:40.870;2,5702130589539887;2,031280753384448;-0,28795390934700366;-1,0886326411634866;-0,8322545530814304;2,1096517533683765
866;2026-05-10 20:05:40.880;2,46624685;1,735909925;-0,413630185;-1,0278943;-0,8382293;1,5743742
867;2026-05-10 20:05:40.890;2,283508;2,9095743;0,07371603;-1,6980658;-0,03440044;0,3117158
868;2026-05-10 20:05:40.900;1,9129188;2,7059605;-0,8583923;-1,6980658;-0,03440044;0,3117158
869;2026-05-10 20:05:40.910;1,6480131;2,5263665;-0,7849116;-2,465679;-0,14088298;-0,29352948
870;2026-05-10 20:05:40.920;1,49938342748416;2,4229985731264;-0,6283179169248;-2,465679;-0,14088298;-0,29352948
871;2026-05-10 20:05:40.930;1,35075375496832;2,3196306462528002;-0,4717242338496;-2,465679;-0,14088298;-0,29352948
872;2026-05-10 20:05:40.940;1,20212027748416;2,2162600731264;-0,31512654192479994;-2,465679;-0,14088298;-0,29352948
873;2026-05-10 20:05:40.950;1,0534868;2,1128895;-0,15852885;-2,465679;-0,14088298;-0,29352948
874;2026-05-10 20:05:40.960;1,005585803140608;2,093551622528;-0,068741584291712;-2,6848590194598403;-0,026168318366464;-0,5595535298485761
875;2026-05-10 20:05:40.970;0,957684806281216;2,0742137450560003;0,021045681416575993;-2,90403903891968;0,08854634326707199;-0,8255775796971521
876;2026-05-10 20:05:40.980;0,909782583140608;2,054875372528;0,110835245708288;-3,12322466945984;0,20326394163353598;-1,0916084398485761
877;2026-05-10 20:05:40.990;0,86188036;2,035537;0,20062481;-3,3424103;0,31798154;-1,3576393
878;2026-05-10 20:05:41.000;1,51196243;2,1200497;0,43493345499999997;-1,14472655;0,90805992;-1,9764719000000002
879;2026-05-10 20:05:41.010;2,1620445;2,2045624;0,6692421;1,0529572;1,4981383;-2,5953045
880;2026-05-10 20:05:41.020;2,06668782945024;1,6566537938596095;0,44989905869500796;1,12788513406528;1,59395810147776;-3,2979831191712
881;2026-05-10 20:05:41.030;1,9713311589004798;1,1087451877192191;0,2305560173900159;1,20281306813056;1,68977790295552;-4,0006617383424
882;2026-05-10 20:05:41.040;1,87597692945024;0,5608506078596096;0,011218591195007897;1,27773908406528;1,78559525147776;-4,7033223691712
883;2026-05-10 20:05:41.050;1,7806227;0,012956027999999994;-0,208118835;1,3526651;1,8814126;-5,405983
884;2026-05-10 20:05:41.060;1,893484;-0,241603;-0,10652805;1,2243834;2,0922134;-6,7942877
885;2026-05-10 20:05:41.070;2,1326865617536;0,99629564489984;-0,100106337803136;1,23796222380672;2,24313393175808;-7,08121477261952
886;2026-05-10 20:05:41.080;2,371883;2,2341626;-0,09368479;1,2515407;2,3940506;-7,3681345
887;2026-05-10 20:05:41.090;1,7717541;-0,5129585;0,03494802;1,2515407;2,3940506;-7,3681345
888;2026-05-10 20:05:41.100;1,636562;-0,59953636;0,09262168;1,2515407;2,3940506;-7,3681345
889;2026-05-10 20:05:41.110;1,660164186138821;-0,31735648252506676;-0,00952420660081751;1,8640802538745767;2,081928073177059;-7,518601767941837
890;2026-05-10 20:05:41.120;1,6837657680694105;-0,035183828762533426;-0,11166747830040877;2,4766041269372883;1,7698135365885295;-7,669065183970918
891;2026-05-10 20:05:41.130;1,70736735;0,24698882499999997;-0,21381075000000002;3,089128;1,457699;-7,8195286
892;2026-05-10 20:05:41.140;1,1314590989791617;0,03589313200647673;-0,1309034682002509;3,5400145141823396;0,9175673409355054;-7,444413532392395
893;2026-05-10 20:05:41.150;0,5555508479583233;-0,1752025609870465;-0,047996186400501746;3,990901028364679;0,3774356818710107;-7,06929846478479
894;2026-05-10 20:05:41.160;-0,02034266;-0,38629285;0,034908973;4,441776;-0,16268215;-6,694193
895;2026-05-10 20:05:41.170;-0,475486969078272;-0,65618985777408;-0,050177318631526385;4,51602999953664;-0,344739472136448;-6,4903193596160005
896;2026-05-10 20:05:41.180;-0,93064293;-0,926093775;-0,13526578849999998;4,5902859000000005;-0,526801455;-6,2864405
897;2026-05-10 20:05:41.190;-1,3857988909217278;-1,19599769222592;-0,22035425836847358;4,66454180046336;-0,708863437863552;-6,082561640384
898;2026-05-10 20:05:41.200;-1,8409432;-1,4658947;-0,30544055;4,7387958;-0,89092076;-5,878688
899;2026-05-10 20:05:41.210;-1,4749016938550021;-1,171185319771137;-0,4365797151962658;4,671904341628836;-1,182269400919548;-5,381679049061337
900;2026-05-10 20:05:41.220;-1,108850816927501;-0,8764683948855685;-0,5677222375981329;4,605011170814418;-1,473625500459774;-4,8846573745306685
901;2026-05-10 20:05:41.230;-0,74279994;-0,58175147;-0,69886476;4,538118;-1,7649816;-4,3876357
902;2026-05-10 20:05:41.240;-0,43619935531804405;-0,6773935106567509;-0,6034132051104641;3,731959244826413;-1,7232337866104441;-3,7832248184785526
903;2026-05-10 20:05:41.250;-0,12959877063608807;-0,7730355513135019;-0,5079616502209284;2,925800489652827;-1,6814859732208882;-3,178813936957105
904;2026-05-10 20:05:41.260;0,17700966312130395;-0,868680040437834;-0,41250765174030946;2,1196210965509423;-1,6397370910736295;-2,574387582319035
905;2026-05-10 20:05:41.270;0,48361809687869595;-0,9643245295621661;-0,31705365325969054;1,313441703449058;-1,5979882089263706;-1,969961227680965
906;2026-05-10 20:05:41.280;0,790218681560652;-1,059966570218917;-0,2216020983701547;0,5072829482754714;-1,5562403955368147;-1,3655503461595178
907;2026-05-10 20:05:41.290;1,096819266242608;-1,1556086108756678;-0,1261505434806189;-0,2988758068981152;-1,5144925821472588;-0,7611394646380706
908;2026-05-10 20:05:41.300;1,4034277;-1,2512531;-0,030696545;-1,1050552;-1,4727437;-0,15671311
909;2026-05-10 20:05:41.310;1,5067899640267266;-1,4147017228207908;0,09724630352999908;-1,3217182643356344;-1,5334356691296818;3,095309760479917
910;2026-05-10 20:05:41.320;1,6101495820133633;-1,5781461614103955;0,22518587676499957;-1,5383757821678172;-1,5941260845648408;6,347249380239959
911;2026-05-10 20:05:41.330;1,7135092;-1,7415906;0,35312545;-1,7550333;-1,6548165;9,599189
912;2026-05-10 20:05:41.340;1,76074767026968;-1,635666382312368;0,32418056201017603;-1,630035580362168;-1,5695260748590318;9,44729159948816
913;2026-05-10 20:05:41.350;1,80798614053936;-1,529742164624736;0,295235674020352;-1,505037860724336;-1,484235649718064;9,295394198976322
914;2026-05-10 20:05:41.360;1,85522340151968;-1,423820658562368;0,266291527010176;-1,380043340987168;-1,3989474079840318;9,14350068698816
915;2026-05-10 20:05:41.370;1,9024606625;-1,3178991525000001;0,23734738000000002;-1,25504882125;-1,31365916625;8,991607175
916;2026-05-10 20:05:41.380;1,94969913276968;-1,211974934812368;0,20840249201017602;-1,130051101612168;-1,2283687411090318;8,839709774488162
917;2026-05-10 20:05:41.390;1,99693760303936;-1,106050717124736;0,17945760402035202;-1,0050533819743361;-1,143078315968064;8,687812373976321
918;2026-05-10 20:05:41.400;2,04417486401968;-1,000129211062368;0,15051345701017602;-0,880058862237168;-1,057790074234032;8,535918861988161
919;2026-05-10 20:05:41.410;2,091412125;-0,894207705;0,12156931000000003;-0,7550643425000001;-0,9725018325;8,38402535
920;2026-05-10 20:05:41.420;2,13865059526968;-0,7882834873123681;0,09262442201017602;-0,6300666228621681;-0,8872114073590319;8,232127949488161
921;2026-05-10 20:05:41.430;2,18588906553936;-0,682359269624736;0,06367953402035202;-0,5050689032243361;-0,801920982218064;8,08023054897632
922;2026-05-10 20:05:41.440;2,23312632651968;-0,576437763562368;0,034735387010176026;-0,38007438348716804;-0,7166327404840319;7,928337036988161
923;2026-05-10 20:05:41.450;2,2803635875;-0,47051625750000003;0,005791240000000032;-0,2550798637500001;-0,63134449875;7,776443525
924;2026-05-10 20:05:41.460;2,32760205776968;-0,364592039812368;-0,023153647989823965;-0,13008214411216806;-0,546054073609032;7,624546124488161
925;2026-05-10 20:05:41.470;2,37484052803936;-0,258667822124736;-0,05209853597964796;-0,005084424474336058;-0,460763648468064;7,47264872397632
926;2026-05-10 20:05:41.480;2,42207778901968;-0,152746316062368;-0,08104268298982396;0,11991009526283194;-0,37547540673403196;7,3207552119881605
927;2026-05-10 20:05:41.490;2,46931505;-0,046824809999999994;-0,10998683;0,244904615;-0,29018716499999997;7,168861700000001
928;2026-05-10 20:05:41.500;2,3565448852482938;0,24374744742183063;-0,2655778572317255;0,32741414688679193;-0,3123862333155499;6,790426684875047
929;2026-05-10 20:05:41.510;2,2437747204965874;0,5343197048436612;-0,421168884463451;0,40992367877358393;-0,3345853016310998;6,411991669750094
930;2026-05-10 20:05:41.520;2,131007442624147;0,8248845237109154;-0,5767559286158628;0,49243109844339594;-0,35678380165777496;6,033566342437523
931;2026-05-10 20:05:41.530;2,018240164751706;1,1154493425781695;-0,7323429727682745;0,574938518113208;-0,3789823016844501;5,655141015124953
932;2026-05-10 20:05:41.540;1,90547;1,4060216;-0,887934;0,65744805;-0,40118137;5,276706
933;2026-05-10 20:05:41.550;1,9603065735990375;1,5291004099679268;-0,7664804976172208;0,26048205017170317;-0,5332773018738503;5,043722791832122
934;2026-05-10 20:05:41.560;2,0151417433997594;1,6521760691586485;-0,6450301044043052;-0,1364737874570742;-0,6653698521351292;4,810745547958031
935;2026-05-10 20:05:41.570;2,069976913200481;1,77525172834937;-0,5235797111913896;-0,5334296250858516;-0,7974624023964083;4,577768304083938
936;2026-05-10 20:05:41.580;2,1248134867995185;1,8983305383172968;-0,40212620880861033;-0,9303956249141483;-0,9295583342702586;4,344785095916061
937;2026-05-10 20:05:41.590;2,179650060398556;2,0214093482852236;-0,28067270642583114;-1,3273616247424451;-1,0616542661441088;4,111801887748183
938;2026-05-10 20:05:41.600;2,234485230199278;2,144485007475945;-0,15922231321291552;-1,7243174623712225;-1,193746816405388;3,878824643874091
939;2026-05-10 20:05:41.610;2,2893204;2,267560666666667;-0,03777192000000001;-2,1212733;-1,3258393666666668;3,6458473999999996
940;2026-05-10 20:05:41.620;2,290914;2,4837551833333333;0,075146855;-0,8058971249999999;0,44760711666666647;-1,1712409999999995
941;2026-05-10 20:05:41.630;2,2925076;2,6999497;0,18806563;0,50947905;2,2210536;-5,9883294
942;2026-05-10 20:05:41.640;2,2936923898896637;2,700386729603966;0,11945814545802863;-0,1238024625952538;1,2689089917379914;-3,716215155623064
943;2026-05-10 20:05:41.650;2,294877179779327;2,7008237592079327;0,05085066091605726;-0,7570839751905076;0,31676438347598296;-1,4441009112461278
944;2026-05-10 20:05:41.660;2,296062;2,7012608;-0,01775858;-1,3903817;-0,6354046;0,8280715
945;2026-05-10 20:05:41.670;1,42953605;1,1690563200000001;-0,164036725;-1,3137268;-0,56459653;0,27551767
946;2026-05-10 20:05:41.680;1,8326930263497658;0,5148405293795388;-0,06977155773972368;-1,3137268;-0,56459653;0,27551767
947;2026-05-10 20:05:41.690;2,2358500026995314;-0,13937526124092245;0,02449360952055264;-1,3137268;-0,56459653;0,27551767
948;2026-05-10 20:05:41.700;2,6390173;-0,7936078;0,11876119;-1,3137268;-0,56459653;0,27551767
949;2026-05-10 20:05:41.710;1,95649516382848;0,7390908182912;0,20870329624422398;-0,84580676070016;0,060885091062272;-0,355819646014208
950;2026-05-10 20:05:41.720;1,2739905;2,2717502;0,2986431;-0,3778987;0,6863507;-0,9871408
951;2026-05-10 20:05:41.730;1,62375547295104;2,347218608992;0,275463811698688;-0,3778987;0,6863507;-0,9871408
952;2026-05-10 20:05:41.740;1,9735294;2,42268895;0,25228393;-0,3778987;0,6863507;-0,9871408
953;2026-05-10 20:05:41.750;2,32330332704896;2,4981592910079997;0,229104048301312;-0,3778987;0,6863507;-0,9871408
954;2026-05-10 20:05:41.760;2,6730683;2,5736277;0,20592476;-0,3778987;0,6863507;-0,9871408
955;2026-05-10 20:05:41.770;2,66071965806464;2,5048088308928;0,11890677884441601;0,07695447780480005;0,97299988084352;-1,7936034271462398
956;2026-05-10 20:05:41.780;2,6483707;2,4359882;0,03188657;0,5318193;1,2596564;-2,6000867
957;2026-05-10 20:05:41.790;2,275961944305256;2,13446558741328;-0,11148291680792238;0,8613314569354963;1,4328367555735704;-2,981953850449282
958;2026-05-10 20:05:41.800;1,9035627221526277;1,8329506937066398;-0,2548487334039612;1,1908351784677482;1,6060126777867851;-3,363811225224641
959;2026-05-10 20:05:41.810;1,5311635;1,5314358;-0,39821455;1,5203389;1,7791886;-3,7456686
960;2026-05-10 20:05:41.820;1,3229152;1,0976113;-0,40525022;1,5203389;1,7791886;-3,7456686
961;2026-05-10 20:05:41.830;1,3491677193612799;1,0708388573171201;-0,38527973938112;1,417556596070016;1,7815419134553598;-3,87617724548928
962;2026-05-10 20:05:41.840;1,3754195666666666;1,0440671000000001;-0,36530977;1,3147769233333333;1,7838951666666667;-4,00668255
963;2026-05-10 20:05:41.850;1,4016714139720534;1,0172953426828801;-0,34533980061888;1,2119972505966508;1,7862484198779733;-4,13718785451072
964;2026-05-10 20:05:41.860;1,4279239333333333;0,9905229000000001;-0,32536932;1,1092149466666668;1,7886017333333333;-4,2676965000000004
965;2026-05-10 20:05:41.870;1,4541764526946133;0,9637504573171201;-0,30539883938112;1,0064326427366828;1,7909550467886934;-4,39820514548928
966;2026-05-10 20:05:41.880;1,4804283;0,9369787;-0,28542887;0,90365297;1,7933083;-4,52871045
967;2026-05-10 20:05:41.890;1,59168120094464;0,81595933656768;-0,198400143981952;0,746420447602048;1,84887013879936;-4,9027952491532805
968;2026-05-10 20:05:41.900;1,70293695;0,694936875;-0,11136918999999999;0,5891839;1,9044334;-5,276889625
969;2026-05-10 20:05:41.910;1,81419269905536;0,57391441343232;-0,024338236018047996;0,43194735239795196;1,95999666120064;-5,65098400084672
970;2026-05-10 20:05:41.920;1,9254456;0,45289505;0,06269049;0,27471483;2,0155585;-6,0250688
971;2026-05-10 20:05:41.930;1,7673643312881864;0,455203487268833;0,06991023344813463;1,0398308285198141;1,7320113725995836;-6,604054318520667
972;2026-05-10 20:05:41.940;1,6092790156440933;0,4575119836344165;0,07713016172406731;1,804966414259907;1,4484569862997918;-7,183054659260334
973;2026-05-10 20:05:41.950;1,4511937;0,45982048;0,08435009;2,570102;1,1649026;-7,762055
974;2026-05-10 20:05:41.960;-0,7897029;-1,0833966;-0,7751082;2,570102;1,1649026;-7,762055
975;2026-05-10 20:05:41.970;1,2038631;2,1338952;0,8206923;2,570102;1,1649026;-7,762055
976;2026-05-10 20:05:41.980;0,9255252698571012;1,5617363411682788;0,5201073420494284;2,146471354077711;0,5247232446473096;-6,346585493777782
977;2026-05-10 20:05:41.990;0,6471874397142023;0,9895774823365573;0,21952238409885674;1,7228407081554222;-0,11545611070538077;-4,931115987555565
978;2026-05-10 20:05:42.000;0,3688567349285506;0,4174332705841394;-0,08105487897528578;1,2992209070388554;-0,7556190776763454;-3,5156827168888913
979;2026-05-10 20:05:42.010;0,09052603014289887;-0,15471094116827844;-0,3816321420494283;0,8756011059222888;-1,3957820446473101;-2,1002494462222177
980;2026-05-10 20:05:42.020;-0,1878118;-0,7268698;-0,6822171;0,45197046;-2,0359614;-0,68477994
981;2026-05-10 20:05:42.030;-0,34998885;-0,64444;-0,281234;0,45197046;-2,0359614;-0,68477994
982;2026-05-10 20:05:42.040;-0,5928443;-0,66648227;-0,19426665;0,45197046;-2,0359614;-0,68477994
983;2026-05-10 20:05:42.050;-1,0547015505212174;-0,8581142536633694;-0,12681167274780863;0,45197046;-2,0359614;-0,68477994
984;2026-05-10 20:05:42.060;-1,5165706247393915;-1,0497511431683153;-0,05935496862609569;0,45197046;-2,0359614;-0,68477994
985;2026-05-10 20:05:42.070;-1,9784396989575654;-1,2413880326732611;0,00810173549561726;0,45197046;-2,0359614;-0,68477994
986;2026-05-10 20:05:42.080;-2,4402969494787827;-1,4330200163366305;0,07555671274780863;0,45197046;-2,0359614;-0,68477994
987;2026-05-10 20:05:42.090;-2,9021542;-1,624652;0,14301169;0,45197046;-2,0359614;-0,68477994
988;2026-05-10 20:05:42.100;-1,1346924;-1,9377384;0,43709287;0,45197046;-2,0359614;-0,68477994
989;2026-05-10 20:05:42.110;1,4250503;1,343378;-0,088049024;0,45197046;-2,0359614;-0,68477994
990;2026-05-10 20:05:42.120;1,7410483041390188;1,1353682760468378;-0,11198064503706377;0,5579003952635783;-1,94280715391169;1,3409051047196283
991;2026-05-10 20:05:42.130;2,0570463082780375;0,9273585520936757;-0,13591226607412754;0,6638303305271566;-1,84965290782338;3,3665901494392565
992;2026-05-10 20:05:42.140;2,3730524020695096;0,7193435030234189;-0,15984449976853188;0,7697629776317892;-1,756496276955845;5,392327052359815
993;2026-05-10 20:05:42.150;2,689058495860982;0,5113284539531621;-0,18377673346293621;0,8756956247364218;-1,6633396460883099;7,418063955280373
994;2026-05-10 20:05:42.160;3,0050565000000002;0,3033187299999999;-0,2077083545;0,98162556;-1,5701854;9,443749
