id;timestamp;acc_x;acc_y;acc_z;gyro_x;gyro_y;gyro_z
0;2026-05-10 20:04:26.400;0,091916844;0,5908558;0,8505531;-0,14758503;0,22883011;0,3821224
1;2026-05-10 20:04:26.410;0,0623858050021376;0,599050160110848;0,88070361406848;-0,1103227339634944;0,295902261465472;0,37652867160063996
2;2026-05-10 20:04:26.420;0,03285401;0,60724473;0,9108549;-0,073059484;0,36297613;0,3709348
3;2026-05-10 20:04:26.430;0,0017138584111616052;0,600354376804608;0,912863945715456;-0,073059484;0,36297613;0,3709348
4;2026-05-10 20:04:26.440;-0,029425496;0,5934642;0,91487294;-0,073059484;0,36297613;0,3709348
5;2026-05-10 20:04:26.450;-0,04763861829524044;0,5938757897852667;0,8995783186189277;0,009978942475628753;0,2683348731388752;0,4047903533146965
6;2026-05-10 20:04:26.460;-0,06585220685237977;0,5942873901073666;0,8842833056905361;0,09301949476218566;0,17369119343056239;0,4386467733426518
7;2026-05-10 20:04:26.470;-0,08406579540951913;0,5946989904294667;0,8689882927621447;0,17606004704874256;0,07904751372224952;0,47250319337060703
8;2026-05-10 20:04:26.480;-0,10227891770475957;0,5951105802147333;0,8536936713810723;0,2590984735243713;-0,01559374313887525;0,5063587466853036
9;2026-05-10 20:04:26.490;-0,12049204;0,59552217;0,83839905;0,3421369;-0,110235;0,5402143
10;2026-05-10 20:04:26.500;-0,15514915;0,6229122;0,72734916;0,47043604;-0,49617964;0,6887418
11;2026-05-10 20:04:26.510;-0,09892976470143874;0,6426613037137225;0,6999195885413059;0,5217146918111224;-0,6615582324251836;0,7490730629737087
12;2026-05-10 20:04:26.520;-0,04271181860071938;0,6624099018568612;0,672490719270653;0,5729920309055613;-0,8269325912125919;0,8094027814868543
13;2026-05-10 20:04:26.530;0,0135061275;0,6821585;0,64506185;0,62426937;-0,99230695;0,8697325
14;2026-05-10 20:04:26.540;0,08961684;0,7052776;0,64333975;0,62426937;-0,99230695;0,8697325
15;2026-05-10 20:04:26.550;0,179462780013312;0,7220753150079999;0,65307629962624;0,658879693006464;-1,05778381309312;0,8753263466003199
16;2026-05-10 20:04:26.560;0,26930642;0,7388726;0,6628126;0,69348913;-1,123259;0,88092005
17;2026-05-10 20:04:26.570;0,29442447848473596;0,737439983337728;0,6639635852672;0,754435234879872;-1,14507532074752;0,8282204995628799
18;2026-05-10 20:04:26.580;0,31954318;0,73600733;0,6651146;0,8153829;-1,1668922;0,7755196
19;2026-05-10 20:04:26.590;0,334921588507776;0,720169438944256;0,66105261467392;0,78619189302656;-1,079860242671872;0,09724105147903996
20;2026-05-10 20:04:26.600;0,3502996033333333;0,7043319533333333;0,6569907333333334;0,7570016333333334;-0,9928305133333333;-0,5810201333333334
21;2026-05-10 20:04:26.610;0,36567761815889066;0,6884944677224106;0,6529288519927466;0,7278113736401066;-0,9058007839947946;-1,2592813181457068
22;2026-05-10 20:04:26.620;0,38105602666666666;0,6726565766666667;0,6488668666666666;0,6986203666666666;-0,8187688266666666;-1,9375598666666667
23;2026-05-10 20:04:26.630;0,39643443517444266;0,6568186856109227;0,6448048813405867;0,6694293596932266;-0,7317368693385387;-2,6158384151876266
24;2026-05-10 20:04:26.640;0,41181245;0,6409812;0,640743;0,6402391;-0,64470714;-3,2940996
25;2026-05-10 20:04:26.650;0,34448328682432;0,59593272662784;0,6067204354944;0,7727951532608;-0,795606388464896;-1,413688439570944
26;2026-05-10 20:04:26.660;0,2771524;0,5508831;0,572697;0,9053546;-0,9465095;0,46677086
27;2026-05-10 20:04:26.670;0,25969280402003203;0,529446295612416;0,552961279886016;0,928109623760576;-0,910978502709056;0,474088243661312
28;2026-05-10 20:04:26.680;0,24223365500000002;0,5080100399999999;0,533226065;0,950864065;-0,8754484149999999;0,48140544
29;2026-05-10 20:04:26.690;0,224774505979968;0,486573784387584;0,513490850113984;0,9736185062394239;-0,839918327290944;0,488722636338688
30;2026-05-10 20:04:26.700;0,20731491;0,46513698;0,49375513;0,99637353;-0,80438733;0,49604002
31;2026-05-10 20:04:26.710;0,20662617618432;0,458781668653056;0,488135393068288;0,99637353;-0,80438733;0,49604002
32;2026-05-10 20:04:26.720;0,20593746;0,45242652;0,4825158;0,99637353;-0,80438733;0,49604002
33;2026-05-10 20:04:26.730;0,22660745389425538;0,41848001936102674;0,44130207005666106;1,1033662273012594;-1,0891794594854423;0,5274437773690139
34;2026-05-10 20:04:26.740;0,24727797694712766;0,38453264968051337;0,4000872850283305;1,2103616636506298;-1,373978879742721;0,5588483386845069
35;2026-05-10 20:04:26.750;0,2679485;0,35058528;0,3588725;1,3173571;-1,6587783;0,5902529
36;2026-05-10 20:04:26.760;0,358339975;0,28285990499999997;0,315600675;1,4983564999999999;-2,1077904;0,5122715999999999
37;2026-05-10 20:04:26.770;0,44873145;0,21513453;0,27232885;1,6793559;-2,5568025;0,4342903
38;2026-05-10 20:04:26.780;0,4696945322160119;0,17122987868510428;0,2323805624456429;1,6793559;-2,5568025;0,4342903
39;2026-05-10 20:04:26.790;0,4906576144320237;0,12732522737020854;0,1924322748912858;1,6793559;-2,5568025;0,4342903
40;2026-05-10 20:04:26.800;0,51162016;0,0834217;0,15248501;1,6793559;-2,5568025;0,4342903
41;2026-05-10 20:04:26.810;0,5126936416790114;0,07548346414762604;0,1444947163694235;1,7707339404614808;-2,8249154241475236;0,32995629065655185
42;2026-05-10 20:04:26.820;0,5137671508395057;0,06754502507381302;0,13650421818471176;1,8621143202307404;-3,0930352120737616;0,22561961032827593
43;2026-05-10 20:04:26.830;0,51484066;0,059606586;0,12851372;1,9534947;-3,361155;0,12128293
44;2026-05-10 20:04:26.840;0,504333555;-0,08894617699999999;0,016346467499999982;1,9534947;-3,361155;0,12128293
45;2026-05-10 20:04:26.850;0,49382645;-0,23749894;-0,095820785;1,9534947;-3,361155;0,12128293
46;2026-05-10 20:04:26.860;0,5253416689264259;-0,26929986469775063;-0,14431407047073933;1,9534947;-3,361155;0,12128293
47;2026-05-10 20:04:26.870;0,5568568878528518;-0,3011007893955012;-0,19280735594147863;1,9534947;-3,361155;0,12128293
48;2026-05-10 20:04:26.880;0,5883713;-0,3329009;-0,2412994;1,9534947;-3,361155;0,12128293
49;2026-05-10 20:04:26.890;0,468947788640512;-0,396089931170048;-0,22263803886848;1,86672676064384;-4,2133970911616005;0,029200538669695995
50;2026-05-10 20:04:26.900;0,34952122;-0,45928058;-0,2039762;1,7799566;-5,065661;-0,06288421
51;2026-05-10 20:04:26.910;0,323529279807424;-0,476342353387904;-0,1552956776472896;1,7465505724083201;-5,159351499223041;-0,0394659557501824
52;2026-05-10 20:04:26.920;0,297538005;-0,49340369;-0,1066164015;1,7131454000000002;-5,2530396;-0,016048301
53;2026-05-10 20:04:26.930;0,271546730192576;-0,5104650266120959;-0,0579371253527104;1,67974022759168;-5,34672770077696;0,007369353750182395
54;2026-05-10 20:04:26.940;0,24555479;-0,5275268;-0,009256603;1,6463342;-5,4404182;0,030787608
55;2026-05-10 20:04:26.950;0,241374996499328;-0,530519973312128;0,007518642220390399;1,48290820817408;-5,74837669181824;0,26367858496634883
56;2026-05-10 20:04:26.960;0,23719531;-0,53351307;0,024293458;1,3194864;-6,0563273;0,4965636
57;2026-05-10 20:04:26.970;0,271311158311552;-0,552978335841408;0,1344233743190272;1,3194864;-6,0563273;0,4965636
58;2026-05-10 20:04:26.980;0,30542788;-0,5724441;0,24455611;1,3194864;-6,0563273;0,4965636
59;2026-05-10 20:04:26.990;0,3439342705006528;-0,5543422243986108;0,25840643637587785;1,3194864;-6,0563273;0,4965636
60;2026-05-10 20:04:27.000;0,3824396752503264;-0,5362408121993054;0,27225640818793895;1,3194864;-6,0563273;0,4965636
61;2026-05-10 20:04:27.010;0,42094508;-0,5181394;0,28610638;1,3194864;-6,0563273;0,4965636
62;2026-05-10 20:04:27.020;0,4899432587769226;-0,4921076911989282;0,2942381027231457;0,9191742573801072;-5,578998926850019;0,9288155551694712
63;2026-05-10 20:04:27.030;0,5589414375538452;-0,4660759823978564;0,30236982544629143;0,5188621147602144;-5,101670553700037;1,3610675103389425
64;2026-05-10 20:04:27.040;0,62793785;-0,44004494;0,31050134;0,11856022;-4,6243544;1,7933084
65;2026-05-10 20:04:27.050;0,8734830819808;-0,337170776806144;0,337319956717312;0,11856022;-4,6243544;1,7933084
66;2026-05-10 20:04:27.060;1,1190346;-0,23429398;0,36413926;0,11856022;-4,6243544;1,7933084
67;2026-05-10 20:04:27.070;1,20382123525504;-0,1518948070540864;0,26792457521779844;-0,46725828838092803;-3,8625869995020796;1,92692376025472
68;2026-05-10 20:04:27.080;1,2886057;-0,0694977435;0,17171235350000003;-1,0530618;-3,1008391;2,0605357
69;2026-05-10 20:04:27.090;1,22604880073856;-0,0899182403642944;0,3021316873611584;-1,0530618;-3,1008391;2,0605357
70;2026-05-10 20:04:27.100;1,1634903;-0,11033926;0,43255436;-1,0530618;-3,1008391;2,0605357
71;2026-05-10 20:04:27.110;1,0851898;-0,13494706;0,5283644;-1,262257;-3,864194;1,6820611
72;2026-05-10 20:04:27.120;1,0853899224384;-0,140989597654528;0,546990126587648;-1,17203335487744;-4,20274856644608;1,76749823139072
73;2026-05-10 20:04:27.130;1,0855900448767999;-0,147032135309056;0,565615853175296;-1,08180970975488;-4,5413031328921605;1,85293536278144
74;2026-05-10 20:04:27.140;1,0857901724384;-0,153074827654528;0,584242056587648;-0,99158375487744;-4,87986636644608;1,93837468139072
75;2026-05-10 20:04:27.150;1,0859903;-0,15911752;0,60286826;-0,9013578;-5,2184296;2,023814
76;2026-05-10 20:04:27.160;1,1266299238449249;-0,1609282104582924;0,6395839510265114;-0,8232132342105963;-5,312973111862046;2,1440101091760875
77;2026-05-10 20:04:27.170;1,16726954768985;-0,16273890091658474;0,6762996420530228;-0,7450686684211928;-5,407516623724093;2,2642062183521747
78;2026-05-10 20:04:27.180;1,2079102119224625;-0,1645496377291462;0,7130162730132558;-0,6669221021052982;-5,5020625559310234;2,3844054045880436
79;2026-05-10 20:04:27.190;1,248550876155075;-0,16636037454170763;0,7497329039734886;-0,5887755357894037;-5,596608488137954;2,5046045908239125
80;2026-05-10 20:04:27.200;1,2891905;-0,168171065;0,786448595;-0,51063097;-5,691152;2,6248007
81;2026-05-10 20:04:27.210;1,4606745733010205;-0,09022962021768441;0,8134351694232345;-0,4737237098919685;-5,679260702947401;2,6778577611478993
82;2026-05-10 20:04:27.220;1,6321630366505102;-0,012286180108842198;0,8404224347116172;-0,43681550494598426;-5,6673691014737;2,7309161805739497
83;2026-05-10 20:04:27.230;1,8036515;0,06565726;0,8674097;-0,3999073;-5,6554775;2,7839746
84;2026-05-10 20:04:27.240;1,888229944921365;0,1393092048286926;0,8204642139399421;-0,24659888358189905;-5,463132308033314;2,91528044617577
85;2026-05-10 20:04:27.250;1,97280838984273;0,21296114965738522;0,7735187278798843;-0,09329046716379807;-5,270787116066629;3,0465862923515408
86;2026-05-10 20:04:27.260;2,057389;0,28661498;0,72657204;0,060021874;-5,078437;3,1778955
87;2026-05-10 20:04:27.270;2,0509450591852803;0,388720166929664;0,5752193943776;0,039083471991884805;-4,93479454473344;3,16937817431296
88;2026-05-10 20:04:27.280;2,0445012833333336;0,49082274000000004;0,4238706233333333;0,01814560600000001;-4,791155766666667;3,1608610666666666
89;2026-05-10 20:04:27.290;2,038057507481387;0,592925313070336;0,27252185228906667;-0,002792259991884787;-4,647516988599894;3,1523439590203735
90;2026-05-10 20:04:27.300;2,0316135666666666;0,6950305;0,12116920666666667;-0,023730661999999982;-4,503874533333334;3,1438266333333336
91;2026-05-10 20:04:27.310;2,0251696258519467;0,797135686929664;-0,030183438955733333;-0,044669064008115184;-4,360232078066773;3,1353093076462932
92;2026-05-10 20:04:27.320;2,01872585;0,89923826;-0,18153221;-0,06560693;-4,2165933;3,1267922
93;2026-05-10 20:04:27.330;2,0437077641819243;1,09025023201237;0,13301071103926024;-0,4557957084157656;-3,600592627927624;2,8778793888998115
94;2026-05-10 20:04:27.340;2,068690317909038;1,281267093993815;0,44756168448036987;-0,8459944757921174;-2,9845761860361883;2,6289602055500945
95;2026-05-10 20:04:27.350;2,0936728716361515;1,47228395597526;0,7621126579214794;-1,2361932431684692;-2,3685597441447532;2,380041022200377
96;2026-05-10 20:04:27.360;2,1186547858180758;1,66329592798763;1,0766555789607397;-1,6263820215842348;-1,7525590720723765;2,1311282111001884
97;2026-05-10 20:04:27.370;2,1436367;1,8543079;1,3911985;-2,0165708;-1,1365584;1,8822154
98;2026-05-10 20:04:27.380;2,02273865;1,9159363;1,4322953;-1,7397703500000001;-1,16558325;1,74779885
99;2026-05-10 20:04:27.390;1,9018406;1,9775647;1,4733921;-1,4629699;-1,1946081;1,6133823
100;2026-05-10 20:04:27.400;1,8187820754418154;2,0606520909785213;1,4246777157014003;-1,4629699;-1,1946081;1,6133823
101;2026-05-10 20:04:27.410;1,7357235508836304;2,143739481957043;1,3759633314028008;-1,4629699;-1,1946081;1,6133823
102;2026-05-10 20:04:27.420;1,6526629;2,226829;1,3272477;-1,4629699;-1,1946081;1,6133823
103;2026-05-10 20:04:27.430;1,6513697112631947;2,274193808349049;1,2715971835766766;-1,1563394002397878;-1,0677263012450187;1,4425058504125885
104;2026-05-10 20:04:27.440;1,6500765556315973;2,3215574041745244;1,2159480917883383;-0,8497167501198939;-0,9408477506225092;1,2716337752062943
105;2026-05-10 20:04:27.450;1,6487834;2,368921;1,160299;-0,5430941;-0,8139692;1,1007617
106;2026-05-10 20:04:27.460;1,8175412;2,7429497;0,71098465;-0,8028689;0,43589598;0,16386896
107;2026-05-10 20:04:27.470;1,7364400952524799;2,72322324750464;0,66410098323008;-0,87021037862656;0,601809090327296;-0,05589407959756802
108;2026-05-10 20:04:27.480;1,6553410666666666;2,7034973;0,6172185166666667;-0,9375501333333333;0,7677179533333334;-0,2756514933333334
109;2026-05-10 20:04:27.490;1,5742420380808533;2,68377135249536;0,5703360501032533;-1,0048898880401067;0,9336268163393706;-0,49540890706909874
110;2026-05-10 20:04:27.500;1,4931409333333334;2,6640449;0,5234523833333333;-1,0722313666666665;1,0995399266666666;-0,7151719466666667
111;2026-05-10 20:04:27.510;1,4120398285858133;2,6443184475046397;0,4765687165634133;-1,1395728452932266;1,2654530369939627;-0,9349349862642348
112;2026-05-10 20:04:27.520;1,3309408;2,6245925;0,42968625;-1,2069126;1,4313619;-1,1546924
113;2026-05-10 20:04:27.530;1,2862758542186241;2,3947253798368;0,45295802711744;-1,00536237987584;1,56563928122752;-1,46044181135744
114;2026-05-10 20:04:27.540;1,241609765;2,1648523749999997;0,4762304;-0,8038069999999999;1,6999201;-1,76619905
115;2026-05-10 20:04:27.550;1,196943675781376;1,9349793701631999;0,49950277288255995;-0,60225162012416;1,83420091877248;-2,0719562886425598
116;2026-05-10 20:04:27.560;1,1522787300000001;1,70511225;0,52277455;-0,4007014;1,9684783;-2,3777057
117;2026-05-10 20:04:27.570;1,107613784218624;1,4752451298368;0,54604632711744;-0,19915117987584002;2,10275568122752;-2,68345511135744
118;2026-05-10 20:04:27.580;1,062947695;1,245372125;0,5693187;0,0024041999999999545;2,2370365;-2,98921235
119;2026-05-10 20:04:27.590;1,018281605781376;1,0154991201632;0,59259107288256;0,20395957987583993;2,37131731877248;-3,2949695886425596
120;2026-05-10 20:04:27.600;0,97361666;0,785632;0,61586285;0,4055098;2,5055947;-3,600719
121;2026-05-10 20:04:27.610;1,193033021434624;0,63845173393152;0,352965305131648;2,47594989802752;1,561793800806144;-4,09896927231488
122;2026-05-10 20:04:27.620;1,412455;0,4912677;0,09006103;4,546443;0,61796874;-4,5972323
123;2026-05-10 20:04:27.630;1,45312132052224;0,319729384337664;-0,045047864371712;4,58104464289536;0,552753670257792;-4,78461304844288
124;2026-05-10 20:04:27.640;1,4937866;0,14819546;-0,1801533;4,6156454;0,48754027;-4,971989
125;2026-05-10 20:04:27.650;1,4612692883025566;0,08455683077984094;-0,08579294043741678;4,37805778821381;0,7554728405589309;-5,239741263636208
126;2026-05-10 20:04:27.660;1,4287511441512784;0,020916572389920476;0,008569834781291613;4,140464094106905;1,0234122702794655;-5,507500381818104
127;2026-05-10 20:04:27.670;1,396233;-0,042723686;0,10293261;3,9028704;1,2913517;-5,7752595
128;2026-05-10 20:04:27.680;1,34475935;-0,08617173299999999;0,344199305;3,3926408;2,01105565;-5,7957585
129;2026-05-10 20:04:27.690;1,2932857;-0,12961978;0,585466;2,8824112;2,7307596;-5,8162575
130;2026-05-10 20:04:27.700;1,3976646906893198;0,02380731256109842;0,500767653916698;3,587210280875175;1,849576065330085;-5,359343767719391
131;2026-05-10 20:04:27.710;1,5020436813786395;0,17723440512219682;0,41606930783339596;4,29200936175035;0,96839253066017;-4,902430035438782
132;2026-05-10 20:04:27.720;1,60642;0,33065757;0,33137313;4,9967904;0,087231554;-4,445528
133;2026-05-10 20:04:27.730;1,71538968017024;0,337419325948416;0,14888043343641602;5,01395990522752;0,0340040568206848;-4,4307539391104
134;2026-05-10 20:04:27.740;1,82436215;0,344181255;-0,03361693499999997;5,03112985;-0,01922480299999999;-4,415979500000001
135;2026-05-10 20:04:27.750;1,93333461982976;0,35094318405158403;-0,21611430343641597;5,04829979477248;-0,07245366282068479;-4,4012050608896
136;2026-05-10 20:04:27.760;2,0423043;0,35770494;-0,398607;5,0654693;-0,12568116;-4,386431
137;2026-05-10 20:04:27.770;1,9325917057855755;0,27669916918285153;-0,47774689266187664;4,430232574845547;-0,5549084477605215;-4,340302787264908
138;2026-05-10 20:04:27.780;1,8228763028927877;0,19569132459142577;-0,5568888113309384;3,7949795874227736;-0,9841467238802606;-4,2941733936324535
139;2026-05-10 20:04:27.790;1,7131609;0,11468348;-0,63603073;3,1597266;-1,413385;-4,248044
140;2026-05-10 20:04:27.800;1,5645134;-0,0023639399999999962;-0,7123982;3,1597266;-1,413385;-4,248044
141;2026-05-10 20:04:27.810;1,4158659;-0,11941136;-0,78876567;3,1597266;-1,413385;-4,248044
142;2026-05-10 20:04:27.820;1,2712742000000001;-0,24807392999999997;-0,745314685;2,5251947;-1,21775985;-4,006892000000001
143;2026-05-10 20:04:27.830;1,1266825;-0,3767365;-0,7018637;1,8906628;-1,0221347;-3,76574
144;2026-05-10 20:04:27.840;1,0189238999999999;-0,4746191;-0,54588282;1,8906628;-1,0221347;-3,76574
145;2026-05-10 20:04:27.850;0,9111653;-0,5725017;-0,38990194;1,8906628;-1,0221347;-3,76574
146;2026-05-10 20:04:27.860;0,43588036;-0,8460674;0,07804658;-0,13906783;-0,21991149;-2,9890857
147;2026-05-10 20:04:27.870;1,127115027690496;0,9974264964198397;0,30709578679232;-0,33044561460428795;0,114654962395776;-2,85706736018688
148;2026-05-10 20:04:27.880;1,818332;2,8408732;0,53613913;-0,5218185;0,44921285;-2,7250524
149;2026-05-10 20:04:27.890;1,14756703590144;1,8463978294476797;0,459509545871232;-0,52740785345536;0,50710032153088;-2,69670423786112
150;2026-05-10 20:04:27.900;0,4767849;0,8518969999999998;0,382878;-0,53299735;0,564989275;-2,66835535
151;2026-05-10 20:04:27.910;-0,19399723590144002;-0,14260382944768027;0,306246454128768;-0,53858684654464;0,62287822846912;-2,64000646213888
152;2026-05-10 20:04:27.920;-0,8647622;-1,1370792;0,22961687;-0,5441762;0,6807657;-2,6116583
153;2026-05-10 20:04:27.930;-1,153585670683005;-1,1766792908164658;0,13567172668430214;-0,4087875073299314;0,7831507859388334;-1,8112348907343758
154;2026-05-10 20:04:27.940;-1,4424165353415026;-1,216280395408233;0,04172417834215105;-0,2733953486649657;0,8855384929694167;-1,010790990367188
155;2026-05-10 20:04:27.950;-1,7312474;-1,2558815;-0,05222337;-0,13800319;0,9879262;-0,21034709
156;2026-05-10 20:04:27.960;-1,8941194;-1,2581571;-0,6077055;-0,13800319;0,9879262;-0,21034709
157;2026-05-10 20:04:27.970;-0,41512218140671986;-1,11300250800256;-0,3137139851395584;-0,13800319;0,9879262;-0,21034709
158;2026-05-10 20:04:27.980;1,0639129;-0,9678442;-0,019714944;-0,13800319;0,9879262;-0,21034709
159;2026-05-10 20:04:27.990;1,3118180975278828;-0,7990866232408885;0,12373491551293231;-0,7565759168394105;0,1967025632894435;1,7750802908602492
160;2026-05-10 20:04:28.000;1,5597169487639413;-0,6303333666204443;0,2671811027564661;-1,3751328084197052;-0,594500818355278;3,760456845430125
161;2026-05-10 20:04:28.010;1,8076158;-0,46158011;0,41062729;-1,9936897;-1,3857042;5,7458334
162;2026-05-10 20:04:28.020;1,72245795;-0,335579455;0,27499199;-1,7344559;-0,78045018;4,7738072
163;2026-05-10 20:04:28.030;1,6373001;-0,2095788;0,13935669;-1,4752221;-0,17519616;3,801781
164;2026-05-10 20:04:28.040;1,52603799917312;-0,121044137008192;-0,012236668330175995;-1,4752221;-0,17519616;3,801781
165;2026-05-10 20:04:28.050;1,41477589834624;-0,03250947401638398;-0,16383002666035199;-1,4752221;-0,17519616;3,801781
166;2026-05-10 20:04:28.060;1,30351094917312;0,056027455491808036;-0,315427265830176;-1,4752221;-0,17519616;3,801781
167;2026-05-10 20:04:28.070;1,192246;0,14456438500000002;-0,46702450500000003;-1,4752221;-0,17519616;3,801781
168;2026-05-10 20:04:28.080;1,2165281927893026;0,27853946339803054;-0,44674954301522357;-1,5465472580175277;-0,8821183075204587;3,7957480181487706
169;2026-05-10 20:04:28.090;1,240810385578605;0,412514541796061;-0,42647458103044705;-1,617872416035055;-1,5890404550409174;3,7897150362975416
170;2026-05-10 20:04:28.100;1,2650932;0,54649305;-0,4061991;-1,6891994;-2,2959807;3,7836819
171;2026-05-10 20:04:28.110;1,26078259482496;0,7194542013744;-0,30235312553854077;-0,66793310295872;-2,08464916999104;1,56425784173568
172;2026-05-10 20:04:28.120;1,2564720999999999;0,892410925;-0,19850980950000002;0,35330704999999984;-1,87332305;-0,6551094000000001
173;2026-05-10 20:04:28.130;1,25216160517504;1,0653676486255999;-0,09466649346145922;1,3745472029587198;-1,66199693000896;-2,87447664173568
174;2026-05-10 20:04:28.140;1,247851;1,2383288;0,009179481;2,3958135;-1,4506654;-5,0939007
175;2026-05-10 20:04:28.150;1,3702079329189558;1,358059266024279;0,05194011666330454;1,5994569854136693;-1,857785048851843;-3,1590926478191417
176;2026-05-10 20:04:28.160;1,4925617335405221;1,4777866669878605;0,09469965766834773;0,8031208572931654;-2,2648942755740786;-1,224334126090429
177;2026-05-10 20:04:28.170;1,6149155341620887;1,5975140679514421;0,1374591986733909;0,006784729172661465;-2,672003502296314;0,7104243956382832
178;2026-05-10 20:04:28.180;1,7372724670810442;1,717244533975721;0,18021983433669544;-0,7895717854136691;-3,079123151148157;2,645232447819142
179;2026-05-10 20:04:28.190;1,8596294;1,836975;0,22298047;-1,5859283;-3,4862428;4,5800405
180;2026-05-10 20:04:28.200;1,99934768658304;2,1065532993536;0,239257901646208;-1,50714513343744;-3,10470560873856;4,10827098872704
181;2026-05-10 20:04:28.210;2,13906597316608;2,3761315987072003;0,255535333292416;-1,42836196687488;-2,72316841747712;3,63650147745408
182;2026-05-10 20:04:28.220;2,27878783658304;2,6457167993536;0,271813181646208;-1,34957678343744;-2,34162145873856;3,16471988872704
183;2026-05-10 20:04:28.230;2,4185097;2,915302;0,28809103;-1,2707916;-1,9600745;2,6929383
184;2026-05-10 20:04:28.240;1,66305827;2,6790818;0,335389805;-1,2707916;-1,9600745;2,6929383
185;2026-05-10 20:04:28.250;0,90760684;2,4428616;0,38268858;-1,2707916;-1,9600745;2,6929383
186;2026-05-10 20:04:28.260;0,283744335;2,28544715;0,6354523599999999;-1,5901956499999998;-0,36205105000000015;0,8865050850000001
187;2026-05-10 20:04:28.270;-0,34011817;2,1280327;0,88821614;-1,9095997;1,2359724;-0,91992813
188;2026-05-10 20:04:28.280;-0,146436785;2,12186005;0,9966726699999999;-1,49837395;1,2998514;-0,863501635
189;2026-05-10 20:04:28.290;0,0472446;2,1156874;1,1051292;-1,0871482;1,3637304;-0,80707514
190;2026-05-10 20:04:28.300;0,30153814661048917;2,124957112433867;1,0149675172968222;-0,41570847045431264;1,12294274530498;-0,6773669865045909
191;2026-05-10 20:04:28.310;0,5558316932209783;2,1342268248677336;0,9248058345936444;0,25573125909137456;0,88215509060996;-0,5476588330091818
192;2026-05-10 20:04:28.320;0,81011873;2,1434963;0,83464646;0,9271538;0,6413736;-0,417954
193;2026-05-10 20:04:28.330;0,976417218852096;2,1471816028275197;0,6467506632219839;1,38574622994176;0,63645183799936;-0,82065302038656
194;2026-05-10 20:04:28.340;1,142719965;2,150867;0,45885005624999997;1,8443504;0,63152995;-1,22336235
195;2026-05-10 20:04:28.350;1,309022711147904;2,15455239717248;0,27094944927801595;2,30295457005824;0,62660806200064;-1,62607167961344
196;2026-05-10 20:04:28.360;1,4753212;2,1582377;0,08305365249999999;2,761547;0,6216863;-2,0287707
197;2026-05-10 20:04:28.370;1,3772742500136193;1,9540957904399114;0,04587162074887871;2,31141727738736;1,0557382552510854;-2,465273090158311
198;2026-05-10 20:04:28.380;1,2792247899931903;1,7499486547800442;0,008688637125560643;1,8612760313063204;1,4898013223744573;-2,9017866549208446
199;2026-05-10 20:04:28.390;1,1811753299727616;1,545801519120177;-0,02849434649775743;1,411134785225281;1,9238643894978291;-3,3383002196833784
200;2026-05-10 20:04:28.400;1,0831283799863807;1,3416596095600886;-0,0656763782488787;0,9610050626126405;2,3579163447489146;-3,7748026098416894
201;2026-05-10 20:04:28.410;0,98508143;1,1375177;-0,10285841;0,51087534;2,7919683;-4,211305
202;2026-05-10 20:04:28.420;0,9838705016002519;0,9584889307688685;-0,010080753968962635;0,7443539227900856;2,7307485131174065;-4,373880604752884
203;2026-05-10 20:04:28.430;0,9826595732005038;0,7794601615377369;0,08269690206207472;0,9778325055801713;2,669528726234813;-4,536456209505768
204;2026-05-10 20:04:28.440;0,981448675800126;0,6004359753844343;0,17547218301551867;1,2113051113950428;2,6083105065587033;-4,699027652376442
205;2026-05-10 20:04:28.450;0,9802377783997481;0,42141178923113154;0,26824746396896265;1,4447777172099143;2,547092286882594;-4,861599095247116
206;2026-05-10 20:04:28.460;0,97902685;0,24238302;0,36102512;1,6782563;2,4858725;-5,0241747
207;2026-05-10 20:04:28.470;1,03336315382912;0,192642945418528;0,334057175648064;1,82456328937216;2,39244965420288;-5,04289357293184
208;2026-05-10 20:04:28.480;1,0876980666666667;0,14290414416666666;0,30708992166666665;1,9708665333333333;2,2990292;-5,061611966666667
209;2026-05-10 20:04:28.490;1,1420329795042135;0,09316534291480534;0,28012266768526933;2,1171697772945066;2,2056087457971203;-5,0803303604014936
210;2026-05-10 20:04:28.500;1,1963692833333333;0,04342526833333335;0,25315472333333333;2,263476766666667;2,1121859;-5,099049233333333
211;2026-05-10 20:04:28.510;1,2507055871624533;-0,006314806248138648;0,22618677898139733;2,4097837560388267;2,0187630542028803;-5,117768106265173
212;2026-05-10 20:04:28.520;1,3050405;-0,0560536075;0,199219525;2,556087;1,9253426;-5,1364865
213;2026-05-10 20:04:28.530;1,36054718950528;-0,11207257169808;0,139946351206336;0,47896233753600015;0,7749933246592001;-0,5082554921152004
214;2026-05-10 20:04:28.540;1,4160553;-0,16809297;0,08067166;-1,5982155;-0,3753854;4,120094
215;2026-05-10 20:04:28.550;1,407175406338816;-0,1230632446268928;-0,03862769301217278;-1,134606485880576;-0,575380019898368;3,276455631567104
216;2026-05-10 20:04:28.560;1,39829574;-0,07803467200000001;-0,15792399199999996;-0,6710093399999999;-0,77536952;2,43283886
217;2026-05-10 20:04:28.570;1,389416073661184;-0,03300609937310721;-0,27722029098782713;-0,20741219411942385;-0,975359020101632;1,5892220884328963
218;2026-05-10 20:04:28.580;1,38053618;0,012023625999999992;-0,39651964399999995;0,2561968200000002;-1,17535364;0,7455837200000003
219;2026-05-10 20:04:28.590;1,371656286338816;0,05705335137310719;-0,5158189970121727;0,7198058341194242;-1,3753482598983682;-0,09805464843289563
220;2026-05-10 20:04:28.600;1,36277662;0,10208192399999999;-0,6351152959999999;1,1834029800000003;-1,57533776;-0,9416714199999996
221;2026-05-10 20:04:28.610;1,353896953661184;0,1471104966268928;-0,7544115949878271;1,6470001258805764;-1,775327260101632;-1,7852881915671035
222;2026-05-10 20:04:28.620;1,34501706;0,192140222;-0,8737109479999998;2,11060914;-1,97532188;-2,6289265599999996
223;2026-05-10 20:04:28.630;1,336137166338816;0,2371699473731072;-0,9930103010121727;2,5742181541194245;-2,175316499898368;-3,472564928432895
224;2026-05-10 20:04:28.640;1,3272575;0,28219852;-1,1123066;3,0378153;-2,375306;-4,3161817
225;2026-05-10 20:04:28.650;1,28686506702976;0,165582622702592;-1,01652652600064;3,0378153;-2,375306;-4,3161817
226;2026-05-10 20:04:28.660;1,2464716;0,04896374;-0,920744;3,0378153;-2,375306;-4,3161817
227;2026-05-10 20:04:28.670;1,01131356501568;-0,106059979278208;-0,652360594736384;1,3098736326297602;-2,2648425860864;-3,4737616671616
228;2026-05-10 20:04:28.680;0,77616155;-0,26107973;-0,38398406;-0,4180238;-2,154382;-2,6313632
229;2026-05-10 20:04:28.690;0,030033034089667874;-0,4572789181576612;-0,23584383829214597;-0,4180238;-2,154382;-2,6313632
230;2026-05-10 20:04:28.700;-0,7161145829551661;-0,6534831290788305;-0,08769982414607298;-0,4180238;-2,154382;-2,6313632
231;2026-05-10 20:04:28.710;-1,4622622;-0,84968734;0,06044419;-0,4180238;-2,154382;-2,6313632
232;2026-05-10 20:04:28.720;-1,5427951953315722;-0,8938604596614648;0,017868351982161877;-0,6697046827547718;-1,515179185520603;-1,6597762691775213
233;2026-05-10 20:04:28.730;-1,623328190663144;-0,9380335793229295;-0,024707486035676247;-0,9213855655095436;-0,875976371041206;-0,6881893383550426
234;2026-05-10 20:04:28.740;-1,703863247665786;-0,9822078298307324;-0,06728441400891906;-1,1730728913773858;-0,2367571927603016;0,28342246541123894
235;2026-05-10 20:04:28.750;-1,784398304668428;-1,0263820803385353;-0,10986134198216187;-1,424760217245228;0,40246198552060275;1,2550342691775205
236;2026-05-10 20:04:28.760;-1,8649313;-1,0705552;-0,15243718;-1,6764411;1,0416648;2,2266212
237;2026-05-10 20:04:28.770;-0,8879230808652799;-0,93782974890752;-0,07022925727488001;-1,343872866927872;0,3595072317286399;3,42420717070336
238;2026-05-10 20:04:28.780;0,0891101500000001;-0,8051009;0,011980769999999995;-1,01129612;-0,3226678000000001;4,6218238
239;2026-05-10 20:04:28.790;1,0661433808652803;-0,67237205109248;0,09419079727488;-0,6787193730721278;-1,0048428317286402;5,81944042929664
240;2026-05-10 20:04:28.800;2,0431516;-0,5396466;0,17639872;-0,34615114;-1,6870004;7,0170264
241;2026-05-10 20:04:28.810;2,11739624965632;-0,46539025049343996;0,171486402878464;-0,431854447983616;-1,00270043415168;6,70322021677056
242;2026-05-10 20:04:28.820;2,1916428;-0,391132;0,16657396;-0,51755995;-0,31838295;6,389406
243;2026-05-10 20:04:28.830;1,9852516082265599;-0,31210875101536;0,026968015566783993;-0,59297077357952;-0,45998333746176;6,06956452274816
244;2026-05-10 20:04:28.840;1,7788656999999999;-0,233087525;-0,112634355;-0,6683796666666667;-0,6015801000000001;5,749731233333334
245;2026-05-10 20:04:28.850;1,5724797917734399;-0,15406629898464;-0,252236725566784;-0,7437885597538133;-0,74317686253824;5,429897943918506
246;2026-05-10 20:04:28.860;1,3660886;-0,07504305;-0,39184267;-0,8191993833333333;-0,8847772500000001;5,110056466666666
247;2026-05-10 20:04:28.870;1,15969740822656;0,003980198984639999;-0,531448614433216;-0,8946102069128533;-1,0263776374617601;4,790214989414826
248;2026-05-10 20:04:28.880;0,9533115000000001;0,083001425;-0,6710509849999999;-0,9700191;-1,1679744;4,4703817
249;2026-05-10 20:04:28.890;0,7850385;0,24320889;-0,6596965;-0,9700191;-1,1679744;4,4703817
250;2026-05-10 20:04:28.900;0,87796638946176;0,557422214379072;-0,443471942361088;-0,9700191;-1,1679744;4,4703817
251;2026-05-10 20:04:28.910;0,97089427892352;0,871635538758144;-0,227247384722176;-0,9700191;-1,1679744;4,4703817
252;2026-05-10 20:04:28.920;1,06381978946176;1,185840819379072;-0,011028362361087994;-0,9700191;-1,1679744;4,4703817
253;2026-05-10 20:04:28.930;1,1567453;1,5000461;0,20519066;-0,9700191;-1,1679744;4,4703817
254;2026-05-10 20:04:28.940;1,6238427;2,2044764;0,23444432;-0,80288637;-2,725035;4,7498436
255;2026-05-10 20:04:28.950;1,7976859251647999;2,39178749755136;0,184153564619904;-0,80288637;-2,725035;4,7498436
256;2026-05-10 20:04:28.960;1,9715247;2,5790938;0,13386409666666668;-0,80288637;-2,725035;4,7498436
257;2026-05-10 20:04:28.970;2,1453634748351997;2,7664001024486398;0,08357462871342933;-0,80288637;-2,725035;4,7498436
258;2026-05-10 20:04:28.980;2,3192067;2,9537112;0,033283873333333325;-0,80288637;-2,725035;4,7498436
259;2026-05-10 20:04:28.990;2,4930499251648;3,14102229755136;-0,017006882046762678;-0,80288637;-2,725035;4,7498436
260;2026-05-10 20:04:29.000;2,6668887;3,3283286;-0,06729635;-0,80288637;-2,725035;4,7498436
261;2026-05-10 20:04:29.010;2,46430524310144;3,2715706265113598;-0,11323514197593601;-0,7796039755184639;-2,04354062713963;3,619862128947968
262;2026-05-10 20:04:29.020;2,2617166;3,2148112;-0,15917511;-0,756320985;-1,3620288078;2,4898517300000003
263;2026-05-10 20:04:29.030;2,05912795689856;3,15805177348864;-0,20511507802406403;-0,7330379944815361;-0,6805169884603698;1,359841331052032
264;2026-05-10 20:04:29.040;1,8565445;3,1012938;-0,25105387;-0,7097556;0,0009773844;0,22985986
265;2026-05-10 20:04:29.050;1,4187226181918209;2,84822411433344;-0,06187727399142402;0,06037416721280009;-0,1497996817288499;-0,6686896034196479
266;2026-05-10 20:04:29.060;0,9808895280000001;2,59514795;0,12730416499999997;0,8305236500000003;-0,30058060779999995;-1,5672620699999997
267;2026-05-10 20:04:29.070;0,5430564378081792;2,34207178566656;0,31648560399142395;1,6006731327872004;-0,45136153387114997;-2,465834536580352
268;2026-05-10 20:04:29.080;0,105234556;2,0890021;0,5056622;2,3708029;-0,6021386;-3,364384
269;2026-05-10 20:04:29.090;0,1990909466228224;2,08368361807744;0,55715959082496;1,096720123468288;0,40394357198335995;-2,31570762322944
270;2026-05-10 20:04:29.100;0,29294974;2,078365;0,6086583;-0,17739527;1,4100515;-1,2670044
271;2026-05-10 20:04:29.110;0,557190237235072;2,1032116430329597;0,60493002727872;0,08210796909894401;1,32554156828672;-1,3837203939456
272;2026-05-10 20:04:29.120;0,82142397;2,1280576499999997;0,6012018499999999;0,341604565;1,2410338;-1,5004334000000001
273;2026-05-10 20:04:29.130;1,085657702764928;2,15290365696704;0,5974736727212799;0,601101160901056;1,15652603171328;-1,6171464060544
274;2026-05-10 20:04:29.140;1,3498982;2,1777503;0,5937454;0,8606044;1,0720161;-1,7338624
275;2026-05-10 20:04:29.150;1,5321112322969601;2,2130750021503998;0,47097326853683197;0,7150071663792641;0,18303000612364784;2,5186607315993594
276;2026-05-10 20:04:29.160;1,7143196;2,2483988;0,34820428;0,56941366;-0,70593333;6,771075
277;2026-05-10 20:04:29.170;1,73386612480128;2,23946106440448;0,318864095559168;1,205268230957312;-0,726296699345536;3,8565040569856
278;2026-05-10 20:04:29.180;1,7534131499999999;2,2305230999999996;0,28952316;1,84113908;-0,7466605900000001;0,9418585000000004
279;2026-05-10 20:04:29.190;1,7729601751987198;2,22158513559552;0,260182224440832;2,477009929042688;-0,767024480654464;-1,9727870569855992
280;2026-05-10 20:04:29.200;1,7925067;2,2126474;0,23084204;3,1128645;-0,78738785;-4,887358
281;2026-05-10 20:04:29.210;1,773837468625627;1,5987421247841416;0,014050663286855329;1,5508680250810662;0,19330759591681734;-4,513677810890194
282;2026-05-10 20:04:29.220;1,7551677593128137;0,9848211333920709;-0,2027462633565723;-0,011168437459466964;1,1740281479584085;-4,139988055445096
283;2026-05-10 20:04:29.230;1,73649805;0,370900142;-0,41954318999999995;-1,5732049;2,1547487;-3,7662983
284;2026-05-10 20:04:29.240;1,3983817;2,3529274;-0,500909;-1,5732049;2,1547487;-3,7662983
285;2026-05-10 20:04:29.250;1,563518748291634;1,3622538543782639;-0,44189011393521527;-0,6359674623903471;1,906520536481551;-4,884156788304264
286;2026-05-10 20:04:29.260;1,728660024145817;0,3715549471891319;-0,38286971696760763;0,30129396880482645;1,6582860182407755;-6,0020438941521315
287;2026-05-10 20:04:29.270;1,8938013;-0,61914396;-0,32384932;1,2385554;1,4100515;-7,119931
288;2026-05-10 20:04:29.280;1,392335375;-0,659580095;-0,3286374875;1,41236405;1,2945369;-7,1217898
289;2026-05-10 20:04:29.290;0,8908694500000001;-0,70001623;-0,333425655;1,5861727;1,1790223;-7,1236486
290;2026-05-10 20:04:29.300;0,5804774500000001;-0,504990815;-0,4842591275;2,06366855;0,37814305;-6,61448355
291;2026-05-10 20:04:29.310;0,27008545;-0,3099654;-0,6350926;2,5411644;-0,4227362;-6,1053185
292;2026-05-10 20:04:29.320;0,241918815;-0,32522825;-0,6750901499999999;2,5411644;-0,4227362;-6,1053185
293;2026-05-10 20:04:29.330;0,21375218;-0,3404911;-0,7150877;2,5411644;-0,4227362;-6,1053185
294;2026-05-10 20:04:29.340;0,2149086898687579;-0,36316355346912654;-0,7124007637384374;2,5411644;-0,4227362;-6,1053185
295;2026-05-10 20:04:29.350;0,21606519973751578;-0,38583600693825304;-0,7097138274768747;2,5411644;-0,4227362;-6,1053185
296;2026-05-10 20:04:29.360;0,21722168;-0,40850788;-0,70702696;2,5411644;-0,4227362;-6,1053185
297;2026-05-10 20:04:29.370;0,22165962;-0,3517519;-0,6140432;1,7272302;-2,3332434;-3,7976794
298;2026-05-10 20:04:29.380;0,22735272191384784;-0,3351737685350889;-0,5952288061192272;1,7272302;-2,3332434;-3,7976794
299;2026-05-10 20:04:29.390;0,23304582382769568;-0,31859563707017785;-0,5764144122384545;1,7272302;-2,3332434;-3,7976794
300;2026-05-10 20:04:29.400;0,23873878;-0,30201793;-0,5576005;1,7272302;-2,3332434;-3,7976794
301;2026-05-10 20:04:29.410;0,62782264;1,0293231;-0,0024884075;1,7272302;-2,3332434;-3,7976794
302;2026-05-10 20:04:29.420;0,395334146685376;0,703157660135808;0,015461501630896001;1,1700136177190399;-2,0774621260416;-3,06971943223168
303;2026-05-10 20:04:29.430;0,162845653370752;0,37699222027161616;0,033411410761792;0,61279703543808;-1,8216808520832002;-2,34175946446336
304;2026-05-10 20:04:29.440;-0,06963688831462403;0,050835130135808204;0,051360860380896003;0,055594717719039975;-1,5659061260416;-1,61381813223168
305;2026-05-10 20:04:29.450;-0,30211943;-0,27532196;0,06931031;-0,5016076;-1,3101314;-0,8858768
306;2026-05-10 20:04:29.460;-0,700931761488335;-0,35138255570877563;0,05129954464343619;-0,41368589307770426;-1,1191122099904427;-0,027318740398334318
307;2026-05-10 20:04:29.470;-1,0997440929766702;-0,4274431514175513;0,03328877928687238;-0,3257641861554084;-0,9280930199808853;0,8312393192033314
308;2026-05-10 20:04:29.480;-1,4985462150000002;-0,5035018;0,015278475000000001;-0,23784473000000003;-0,73707872;1,6897754
309;2026-05-10 20:04:29.490;-1,8973483370233304;-0,5795604485824487;-0,002731829286872373;-0,14992527384459162;-0,5460644200191145;2,5483114807966687
310;2026-05-10 20:04:29.500;-2,2961606685116656;-0,6556210442912244;-0,020742594643436186;-0,062003566922295805;-0,3550452300095572;3,4068695403983345
311;2026-05-10 20:04:29.510;-2,694973;-0,73168164;-0,03875336;0,02591814;-0,16402604;4,2654276
312;2026-05-10 20:04:29.520;-1,769913277277343;-0,66461284732769;-0,03867575116227056;0,02591814;-0,16402604;4,2654276
313;2026-05-10 20:04:29.530;-0,844853554554686;-0,5975440546553799;-0,03859814232454112;0,02591814;-0,16402604;4,2654276
314;2026-05-10 20:04:29.540;0,08022985000000023;-0,530473545;-0,0385205315;0,02591814;-0,16402604;4,2654276
315;2026-05-10 20:04:29.550;1,0053132545546863;-0,4634030353446202;-0,03844292067545888;0,02591814;-0,16402604;4,2654276
316;2026-05-10 20:04:29.560;1,9303729772773435;-0,3963342426723101;-0,03836531183772944;0,02591814;-0,16402604;4,2654276
317;2026-05-10 20:04:29.570;2,8554327;-0,32926545;-0,038287703;0,02591814;-0,16402604;4,2654276
318;2026-05-10 20:04:29.580;2,43303815591904;0,0078064678403232;-0,005380799797030397;-0,17716224439564798;0,144591395252608;4,6935535799423995
319;2026-05-10 20:04:29.590;2,01064361183808;0,34487838568064644;0,027526103405939206;-0,380242628791296;0,453208830505216;5,1216795598848
320;2026-05-10 20:04:29.600;1,58825988091904;0,6819416745903232;0,06043216420296961;-0,583317814395648;0,761818365252608;5,5497945799424
321;2026-05-10 20:04:29.610;1,16587615;1,0190049635;0,09333822500000001;-0,786393;1,0704279;5,9779096
322;2026-05-10 20:04:29.620;1,107202419188687;0,954696672291527;-0,11478753118046416;-0,786393;1,0704279;5,9779096
323;2026-05-10 20:04:29.630;1,048528688377374;0,890388381083054;-0,32291328736092834;-0,786393;1,0704279;5,9779096
324;2026-05-10 20:04:29.640;0,9898564595943434;0,8260817361457635;-0,531033715590232;-0,786393;1,0704279;5,9779096
325;2026-05-10 20:04:29.650;0,9311842308113132;0,7617750912084731;-0,7391541438195357;-0,786393;1,0704279;5,9779096
326;2026-05-10 20:04:29.660;0,8725105;0,6974668;-0,9472799;-0,786393;1,0704279;5,9779096
327;2026-05-10 20:04:29.670;0,79384106;0,7283527;-0,8926053;3,1187637;1,2253433;-5,7741947
328;2026-05-10 20:04:29.680;0,68997323;0,8141745199999999;-0,69725545;3,1187637;1,2253433;-5,7741947
329;2026-05-10 20:04:29.690;0,5861054;0,89999634;-0,5019056;3,1187637;1,2253433;-5,7741947
330;2026-05-10 20:04:29.700;0,56666774;0,9620629;-0,37964177;3,1187637;1,2253433;-5,7741947
331;2026-05-10 20:04:29.710;0,6683693;1,2981483;0,017941136;-2,0607975;-1,2595518;4,692353
332;2026-05-10 20:04:29.720;0,41273203;1,2704879;0,06909261;-1,7914408;-1,4474714;4,6289973
333;2026-05-10 20:04:29.730;0,6057630388952794;1,4257651499010138;0,13092330474263578;-1,7914408;-1,4474714;4,6289973
334;2026-05-10 20:04:29.740;0,7987989894476397;1,581046374950507;0,19275558237131787;-1,7914408;-1,4474714;4,6289973
335;2026-05-10 20:04:29.750;0,99183494;1,7363276;0,25458786;-1,7914408;-1,4474714;4,6289973
336;2026-05-10 20:04:29.760;1,0923814419922004;1,865362015558893;0,24884474900850775;-1,6173718854070844;-1,552516053607482;4,531937444921365
337;2026-05-10 20:04:29.770;1,192927943984401;1,9943964311177862;0,24310163801701554;-1,4433029708141687;-1,657560707214964;4,4348775898427295
338;2026-05-10 20:04:29.780;1,29347702;2,12343415;0,23735838;-1,2692295999999998;-1,76260805;4,33781525
339;2026-05-10 20:04:29.790;1,394026096015599;2,252471868882214;0,23161512198298445;-1,0951562291858312;-1,867655392785036;4,24075291015727
340;2026-05-10 20:04:29.800;1,4945725980077995;2,381506284441107;0,22587201099149223;-0,9210873145929155;-1,9727000463925182;4,143693055078635
341;2026-05-10 20:04:29.810;1,5951191;2,5105407;0,2201289;-0,7470184;-2,0777447;4,0466332
342;2026-05-10 20:04:29.820;1,5203977290524626;2,426254164097433;0,1280080522454944;-0,6582065588153224;-1,742021929369027;2,8960936155212136
343;2026-05-10 20:04:29.830;1,4456763581049255;2,3419676281948663;0,03588720449098884;-0,5693947176306448;-1,4062991587380533;1,7455540310424273
344;2026-05-10 20:04:29.840;1,3709569;2,25768325;-0,05623128499999999;-0,48058515;-1,0705849825;0,5950438999999998
345;2026-05-10 20:04:29.850;1,2962374418950746;2,1733988718051336;-0,14834977449098882;-0,3917755823693552;-0,7348708062619465;-0,5554662310424276
346;2026-05-10 20:04:29.860;1,2215160709475372;2,0891123359025667;-0,2404706222454944;-0,3029637411846776;-0,399148035630973;-1,7060058155212139
347;2026-05-10 20:04:29.870;1,1467947;2,0048258;-0,33259147;-0,2141519;-0,063425265;-2,8565454
348;2026-05-10 20:04:29.880;1,05202801302912;1,94633484869376;-0,322644789819136;-0,2444896991712;0,09387488778227202;-3,01929964171904
349;2026-05-10 20:04:29.890;0,95726132605824;1,88784389738752;-0,312698109638272;-0,2748274983424;0,25117504056454404;-3,18205388343808
350;2026-05-10 20:04:29.900;0,86249221302912;1,8293514486937599;-0,302751174819136;-0,3051660741712;0,408479220282272;-3,34481229171904
351;2026-05-10 20:04:29.910;0,7677231;1,770859;-0,29280424;-0,33550465;0,5657834;-3,5075707
352;2026-05-10 20:04:29.920;1,1546309;1,8447193;-0,30664134;-0,33550465;0,5657834;-3,5075707
353;2026-05-10 20:04:29.930;1,91532651297152;1,20289361547392;-0,189068749948416;-0,23729623208384001;0,67942904531712;-3,47669624519808
354;2026-05-10 20:04:29.940;2,6760416;0,5610515;-0,07149315;-0,1390853;0,7930776;-3,445821
355;2026-05-10 20:04:29.950;2,3370057603968;1,38847914093824;-0,30885308816831997;-0,1390853;0,7930776;-3,445821
356;2026-05-10 20:04:29.960;1,9979786;2,2158856;-0,54620695;-0,1390853;0,7930776;-3,445821
357;2026-05-10 20:04:29.970;2,1466925285831313;2,1185750941205583;-0,6272146841169745;-0,48545158860634186;0,9085873286087313;-3,992512669676076
358;2026-05-10 20:04:29.980;2,295410264291566;2,021262097060279;-0,7082244920584873;-0,8318267443031708;1,0241000143043657;-4,539218334838038
359;2026-05-10 20:04:29.990;2,444128;1,9239491;-0,7892343;-1,1782019;1,1396127;-5,085924
360;2026-05-10 20:04:30.000;2,356050689904;1,750646763298304;-0,713282089700736;-1,1782019;1,1396127;-5,085924
361;2026-05-10 20:04:30.010;2,267973379808;1,577344426596608;-0,637329879401472;-1,1782019;1,1396127;-5,085924
362;2026-05-10 20:04:30.020;2,179893814904;1,404037653298304;-0,561375724700736;-1,1782019;1,1396127;-5,085924
363;2026-05-10 20:04:30.030;2,09181425;1,23073088;-0,48542157;-1,1782019;1,1396127;-5,085924
364;2026-05-10 20:04:30.040;2,003736939904;1,0574285432983042;-0,409469359700736;-1,1782019;1,1396127;-5,085924
365;2026-05-10 20:04:30.050;1,915659629808;0,8841262065966081;-0,333517149401472;-1,1782019;1,1396127;-5,085924
366;2026-05-10 20:04:30.060;1,827580064904;0,7108194332983041;-0,257562994700736;-1,1782019;1,1396127;-5,085924
367;2026-05-10 20:04:30.070;1,7395005;0,53751266;-0,18160884;-1,1782019;1,1396127;-5,085924
368;2026-05-10 20:04:30.080;1,7494618816617884;0,4115932111930504;-0,19536672259789908;-0,852770607049246;1,3280542919444989;-5,316061169471016
369;2026-05-10 20:04:30.090;1,7594232633235767;0,2856737623861008;-0,20912460519579817;-0,5273393140984921;1,516495883888998;-5,546198338942033
370;2026-05-10 20:04:30.100;1,7693849;0,15975109;-0,22288284;-0,20189969;1,7049423;-5,7763414
371;2026-05-10 20:04:30.110;1,8291006;0,10766048;-0,29144827;-0,20189969;1,7049423;-5,7763414
372;2026-05-10 20:04:30.120;1,90311055;-0,036098020000000015;-0,41321041;-0,812215195;0,39809212999999993;1,6227028
373;2026-05-10 20:04:30.130;1,9771205;-0,17985652;-0,53497255;-1,4225307;-0,90875804;9,021747
374;2026-05-10 20:04:30.140;1,8540086241881601;-0,372598807069696;-0,56115729766048;-1,0065130350420481;-0,324658653623552;5,0975332707072
375;2026-05-10 20:04:30.150;1,73089674837632;-0,565341094139392;-0,58734204532096;-0,590495370084096;0,259440732752896;1,1733195414144004
376;2026-05-10 20:04:30.160;1,6077880241881601;-0,7580784470696961;-0,61352612266048;-0,1744883550420481;0,843525166376448;-2,7507937292927993
377;2026-05-10 20:04:30.170;1,4846793;-0,9508158;-0,6397102;0,24151866;1,4276096;-6,674907
378;2026-05-10 20:04:30.180;1,3639598;-1,1093173;-0,3659248;0,24151866;1,4276096;-6,674907
379;2026-05-10 20:04:30.190;-0,5286299;-0,3674731;0,34276962;0,24151866;1,4276096;-6,674907
380;2026-05-10 20:04:30.200;-0,5019397277590517;-0,6234030160367617;0,16716932847500152;0,24151866;1,4276096;-6,674907
381;2026-05-10 20:04:30.210;-0,47524955551810355;-0,8793329320735236;-0,008430963049996968;0,24151866;1,4276096;-6,674907
382;2026-05-10 20:04:30.220;-0,4485587;-1,1352694;-0,18403575;0,24151866;1,4276096;-6,674907
383;2026-05-10 20:04:30.230;-0,07625777999999998;0,11528091999999994;0,10466673333333336;0,24151866;1,4276096;-6,674907
384;2026-05-10 20:04:30.240;-0,57789709;-0,25752969;-0,2538910983333333;1,1906461299999997;0,41673230000000006;-4,7170141
385;2026-05-10 20:04:30.250;-1,0795364;-0,6303403;-0,61244893;2,1397736;-0,594145;-2,7591212
386;2026-05-10 20:04:30.260;-0,5251516;-0,37220877;-0,52527857;2,1397736;-0,594145;-2,7591212
387;2026-05-10 20:04:30.270;-0,4301814658637904;-0,3403314259669588;-0,4382023372513163;2,1397736;-0,594145;-2,7591212
388;2026-05-10 20:04:30.280;-0,33521376293189525;-0,3084548979834794;-0,35112833362565815;2,1397736;-0,594145;-2,7591212
389;2026-05-10 20:04:30.290;-0,24024606;-0,27657837;-0,26405433;2,1397736;-0,594145;-2,7591212
390;2026-05-10 20:04:30.300;-0,35294485;-0,29760632;-0,265915;-1,2894492;0,788819;2,964948
391;2026-05-10 20:04:30.310;-0,52448528735616;-0,342875446104064;-0,278892022770432;-1,27649580086528;0,69202471104896;3,20751407147264
392;2026-05-10 20:04:30.320;-0,6960213333333333;-0,3881434133333333;-0,29186871333333336;-1,2635427333333333;0,5952329000000001;3,4500739333333335
393;2026-05-10 20:04:30.330;-0,8675573793105066;-0,43341138056260264;-0,30484540389623466;-1,2505896658013866;0,49844108895104;3,6926337951940265
394;2026-05-10 20:04:30.340;-1,0390978166666667;-0,47868050666666667;-0,31782242666666666;-1,2376362666666667;0,40164679999999997;3,9351998666666663
395;2026-05-10 20:04:30.350;-1,2106382540228267;-0,5239496327707307;-0,33079944943709866;-1,2246828675319468;0,30485251104896;4,177765938139307
396;2026-05-10 20:04:30.360;-1,3821743;-0,5692176;-0,34377614;-1,2117298;0,2080607;4,4203258
397;2026-05-10 20:04:30.370;-1,3693393857186742;-0,6292042428815237;-0,3626232116725262;-1,2218408607690208;-0,00699509633409567;4,929575042035021
398;2026-05-10 20:04:30.380;-1,3565041428593372;-0,6891924214407619;-0,3814707658362631;-1,2319521803845104;-0,22205639816704786;5,43883732101751
399;2026-05-10 20:04:30.390;-1,3436689;-0,7491806;-0,40031832;-1,2420635;-0,4371177;5,9480996
400;2026-05-10 20:04:30.400;-0,9082819666827208;-0,7629941154564925;-0,3515046798817275;-1,3235115383011768;-0,8072523414772971;6,9948228011810185
401;2026-05-10 20:04:30.410;-0,47289503336544153;-0,7768076309129852;-0,302691039763455;-1,4049595766023535;-1,177386982954594;8,041546002362036
402;2026-05-10 20:04:30.420;-0,037496954;-0,7906215;-0,25387615;-1,4864097;-1,5475311;9,088296
403;2026-05-10 20:04:30.430;0,27903372454082565;-0,753187050845184;-0,21528875108761603;-1,4954593158336;-1,57628576805504;9,2362843942272
404;2026-05-10 20:04:30.440;0,5955563;-0,71575356;-0,17670234;-1,5045087;-1,6050397;9,384269
405;2026-05-10 20:04:30.450;0,7882949263312035;-0,5138410056110223;-0,13813719671212216;-1,4585162509687064;-1,3210984815952937;9,032512002037764
406;2026-05-10 20:04:30.460;0,9810384868343982;-0,3119232821944888;-0,09957106614393893;-1,4125226245156466;-1,0371499942023532;8,680745998981118
407;2026-05-10 20:04:30.470;1,173782047337593;-0,11000555877795523;-0,06100493557575572;-1,366528998062587;-0,7532015068094127;8,32897999592447
408;2026-05-10 20:04:30.480;1,3665206736687965;0,09190699561102242;-0,022439792287877854;-1,3205365490312935;-0,4692602884047063;7,977222997962235
409;2026-05-10 20:04:30.490;1,5592593;0,29381955;0,016125351;-1,2745441;-0,18531907;7,625466
410;2026-05-10 20:04:30.500;1,4078705748327474;0,5597082022207904;-0,22765965627210125;-1,2745441;-0,18531907;7,625466
411;2026-05-10 20:04:30.510;1,2564818496654948;0,8255968544415809;-0,47144466354420245;-1,2745441;-0,18531907;7,625466
412;2026-05-10 20:04:30.520;1,105097;1,0914787;-0,71522343;-1,2745441;-0,18531907;7,625466
413;2026-05-10 20:04:30.530;1,0589064472466432;1,1136559961269759;-0,6459448597770496;-1,2212581360690689;-0,2407866690056448;7,178370692893185
414;2026-05-10 20:04:30.540;1,012714712;1,13583386;-0,576664516;-1,167970808;-0,29625568799999996;6,731263940000001
415;2026-05-10 20:04:30.550;0,9665229767533569;1,1580117238730239;-0,5073841722229504;-1,114683479930931;-0,35172470699435515;6,284157187106817
416;2026-05-10 20:04:30.560;0,920332424;1,18018902;-0,438105602;-1,061397516;-0,40719230599999995;5,83706188
417;2026-05-10 20:04:30.570;0,8741418712466432;1,202366316126976;-0,36882703177704956;-1,0081115520690689;-0,46265990500564474;5,389966572893185
418;2026-05-10 20:04:30.580;0,827950136;1,2245441799999999;-0,299546688;-0,954824224;-0,518128924;4,942859820000001
419;2026-05-10 20:04:30.590;0,7817584007533569;1,246722043873024;-0,2302663442229504;-0,9015368959309312;-0,5735979429943552;4,495753067106817
420;2026-05-10 20:04:30.600;0,7355678480000001;1,26889934;-0,16098777399999997;-0,848250932;-0,629065542;4,04865776
421;2026-05-10 20:04:30.610;0,6893772952466433;1,2910766361269759;-0,09170920377704958;-0,7949649680690688;-0,6845331410056447;3,6015624528931847
422;2026-05-10 20:04:30.620;0,64318556;1,3132545;-0,02242886;-0,74167764;-0,74000216;3,1544557
423;2026-05-10 20:04:30.630;0,7661572;1,9684486;-0,34267005;-0,74167764;-0,74000216;3,1544557
424;2026-05-10 20:04:30.640;0,9606922499999999;1,9952895499999999;-0,234165125;-0,3565533;-0,98406898;2,79407145
425;2026-05-10 20:04:30.650;1,1552273;2,0221305;-0,1256602;0,02857104;-1,2281358;2,4336872
426;2026-05-10 20:04:30.660;1,2394468;2,3091633;-0,32204917;0,02857104;-1,2281358;2,4336872
427;2026-05-10 20:04:30.670;1,56005305;1,2939134700000001;-0,558979925;0,009948377;-1,21510695;2,1369114
428;2026-05-10 20:04:30.680;1,418454059990272;1,1352455709751041;-0,350902067180672;-0,0005670976502016017;-1,21623922300672;2,0627183996825598
429;2026-05-10 20:04:30.690;1,276855069980544;0,9765776719502081;-0,14282420936134405;-0,011082572300403203;-1,21737149601344;1,98852539936512
430;2026-05-10 20:04:30.700;1,135252454990272;0,817905710975104;0,06525897531932798;-0,021598316150201604;-1,21850379800672;1,9143304996825599
431;2026-05-10 20:04:30.710;0,99364984;0,65923375;0,27334216;-0,03211406;-1,2196361;1,8401356
432;2026-05-10 20:04:30.720;1,3163297;2,574271;-0,44171923;-0,03211406;-1,2196361;1,8401356
433;2026-05-10 20:04:30.730;1,211554791136;2,37475185387776;-0,24778942233331203;-0,7422183405488639;-0,6958258548569599;0,5197323513779201
434;2026-05-10 20:04:30.740;1,1067772;2,1752276;-0,05385465;-1,4523408;-0,1720022;-0,8007047
435;2026-05-10 20:04:30.750;0,982747642441984;2,11690740351104;0,006443881811327993;-1,4523408;-0,1720022;-0,8007047
436;2026-05-10 20:04:30.760;0,85872126;2,0585887;0,06674087;-1,4523408;-0,1720022;-0,8007047
437;2026-05-10 20:04:30.770;0,71354437;1,8669432;0,2974052;-0,47659707;0,6903301;-2,0415466
438;2026-05-10 20:04:30.780;1,011213337614016;1,9306363152614399;-0,047553140410240016;-0,47659707;0,6903301;-2,0415466
439;2026-05-10 20:04:30.790;1,308882305228032;1,9943294305228798;-0,39251148082048004;-0,47659707;0,6903301;-2,0415466
440;2026-05-10 20:04:30.800;1,606543652614016;2,05802091526144;-0,73746099041024;-0,47659707;0,6903301;-2,0415466
441;2026-05-10 20:04:30.810;1,904205;2,1217124;-1,0824105;-0,47659707;0,6903301;-2,0415466
442;2026-05-10 20:04:30.820;1,6244485;1,7770660999999999;-0,91773092;-0,556707685;0,8037154;-3,1953663000000003
443;2026-05-10 20:04:30.830;1,344692;1,4324198;-0,75305134;-0,6368183;0,9171007;-4,349186
444;2026-05-10 20:04:30.840;1,3557659055014635;1,2009839082782219;-0,5084882109654142;-0,9443252092407861;1,0673955508008568;-4,452811115721027
445;2026-05-10 20:04:30.850;1,366839811002927;0,969548016556444;-0,26392508193082853;-1,2518321184815722;1,2176904016017134;-4,556436231442055
446;2026-05-10 20:04:30.860;1,377914;0,7381062;-0,019355692;-1,5593469;1,3679891;-4,660064
447;2026-05-10 20:04:30.870;1,51657297481216;0,6715172976729601;-0,08229154156856319;-1,5593469;1,3679891;-4,660064
448;2026-05-10 20:04:30.880;1,6552284;0,6049301;-0,14522578;-1,5593469;1,3679891;-4,660064
449;2026-05-10 20:04:30.890;1,4204674049791999;0,66109230611456;-0,17693719908864;-0,7582161546048;1,1223109447206399;-4,9986186664448
450;2026-05-10 20:04:30.900;1,1857004;0,71725595;-0,20864943;0,0429351;0,8766265;-5,337182
451;2026-05-10 20:04:30.910;2,035078;0,077754684;-0,59119064;-0,3195698;1,3094158;-6,1590924
452;2026-05-10 20:04:30.920;2,01345365;-0,11733685799999999;-0,5092840200000001;-0,3195698;1,3094158;-6,1590924
453;2026-05-10 20:04:30.930;1,9918293;-0,3124284;-0,4273774;-0,3195698;1,3094158;-6,1590924
454;2026-05-10 20:04:30.940;1,95533728290816;-0,281243953344192;-0,377234961935008;-0,315572943840896;1,51316813299648;-6,27221299792512
455;2026-05-10 20:04:30.950;1,91884526581632;-0,250059506688384;-0,327092523870016;-0,311576087681792;1,71692046599296;-6,3853335958502395
456;2026-05-10 20:04:30.960;1,8823541829081598;-0,21887585834419201;-0,276951369435008;-0,307579333840896;1,9206675829964799;-6,49845129792512
457;2026-05-10 20:04:30.970;1,8458630999999999;-0,18769221;-0,22681021499999998;-0,30358258;2,1244147;-6,611569
458;2026-05-10 20:04:30.980;1,6737837;-0,74196917;-0,067218244;-0,30358258;2,1244147;-6,611569
459;2026-05-10 20:04:30.990;1,65318111129024;-0,553168693384832;-0,1656412092978304;-0,231717725141632;2,1143003705382397;-6,6174245749504
460;2026-05-10 20:04:31.000;1,63257905;-0,36437305;-0,264061655;-0,15985471;2,1041863;-6,62328
461;2026-05-10 20:04:31.010;0,86018753;-0,90089536;0,13714845;0,98354536;1,5026412;-6,517356
462;2026-05-10 20:04:31.020;0,4509534279136943;-0,6932330913046558;-0,1599729520701778;1,6746958710755369;0,8037065025002561;-6,05830728283442
463;2026-05-10 20:04:31.030;0,04171932582738854;-0,48557082260931156;-0,4570943541403556;2,3658463821510733;0,10477180500051211;-5,5992585656688405
464;2026-05-10 20:04:31.040;-0,3675043;-0,27791387;-0,75420815;3,0569792;-0,594145;-5,1402216
465;2026-05-10 20:04:31.050;0,0464861508544;0,427075323522816;-0,67890720136448;3,0569792;-0,594145;-5,1402216
466;2026-05-10 20:04:31.060;0,4604872;1,1320825650000002;-0,6036043249999999;3,0569792;-0,594145;-5,1402216
467;2026-05-10 20:04:31.070;0,8744882491456;1,8370898064771841;-0,52830144863552;3,0569792;-0,594145;-5,1402216
468;2026-05-10 20:04:31.080;1,2884787;2,542079;-0,4530005;3,0569792;-0,594145;-5,1402216
469;2026-05-10 20:04:31.090;0,6795207197619201;1,7115491059187202;-0,415321477297664;3,0569792;-0,594145;-5,1402216
470;2026-05-10 20:04:31.100;0,07054715000000007;0,8809979500000001;-0,37764149;3,0569792;-0,594145;-5,1402216
471;2026-05-10 20:04:31.110;-0,5384264197619198;0,05044679408128013;-0,339961502702336;3,0569792;-0,594145;-5,1402216
472;2026-05-10 20:04:31.120;-1,1473844;-0,7800831;-0,30228248;3,0569792;-0,594145;-5,1402216
473;2026-05-10 20:04:31.130;-0,2958380546880966;-0,56842128463011;-0,18762319465462904;1,5300593264327407;-0,6655393837424766;-0,789486675715375
474;2026-05-10 20:04:31.140;0,555730090489285;-0,35675405064838833;-0,07296097399398117;0,0031003632163706563;-0,7369355952045716;3,561359628808979
475;2026-05-10 20:04:31.150;1,4072982356666668;-0,14508681666666665;0,04170124666666667;-1,5238585999999998;-0,8083318066666667;7,9122059333333326
476;2026-05-10 20:04:31.160;1,5817544178333334;0,12518054166666667;0,2730705983333333;-1,29113935;-0,2362565033333334;6,605434316666667
477;2026-05-10 20:04:31.170;1,7562106;0,3954479;0,50443995;-1,0584201;0,3358188;5,2986627
478;2026-05-10 20:04:31.180;0,58736967;-0,18666571999999998;0,394863625;-0,013238399999999826;0,277498625;-0,12626564999999956
479;2026-05-10 20:04:31.190;-0,58147126;-0,76877934;0,2852873;1,0319433;0,21917845;-5,551194
480;2026-05-10 20:04:31.200;0,2720231100881498;-0,19505412251785606;0,024335060154283314;1,2257255797033801;0,048504156439280785;-2,0455033489431425
481;2026-05-10 20:04:31.210;1,1255174801762995;0,3786710949642879;-0,2366171796914334;1,41950785940676;-0,12217013712143843;1,4601873021137153
482;2026-05-10 20:04:31.220;1,9790337;0,952411;-0,4975761;1,6132951;-0,2928488;4,9659677
483;2026-05-10 20:04:31.230;1,6105767;0,96968627;-1,1394067;2,6145904;-0,8523315;4,148316
484;2026-05-10 20:04:31.240;1,53859989631488;1,063877118091712;-0,9278156727748161;2,179088341997696;-0,9965920159417601;4,01503563101056
485;2026-05-10 20:04:31.250;1,4666230926297599;1,158067966183424;-0,7162246455496322;1,743586283995392;-1,14085253188352;3,8817552620211204
486;2026-05-10 20:04:31.260;1,39464444631488;1,252261225591712;-0,5046282015248161;1,308073076997696;-1,28511674094176;3,74847148101056
487;2026-05-10 20:04:31.270;1,3226658;1,346454485;-0,2930317575000001;0,87255987;-1,42938095;3,6151877000000003
488;2026-05-10 20:04:31.280;1,25068899631488;1,440645333091712;-0,08144073027481613;0,43705781199769606;-1,5736414659417601;3,48190733101056
489;2026-05-10 20:04:31.290;1,17871219262976;1,534836181183424;0,13015029695036787;0,0015557539953920518;-1,7179019818835202;3,34862696202112
490;2026-05-10 20:04:31.300;1,10673354631488;1,629029440591712;0,34174674097518387;-0,43395745300230393;-1,8621661909417602;3,21534318101056
491;2026-05-10 20:04:31.310;1,0347549;1,7232227;0,5533431849999999;-0,86947066;-2,0064304;3,0820594
492;2026-05-10 20:04:31.320;1,1258498000000001;1,9767332;0,35194421749999993;-0,86947066;-2,0064304;3,0820594
493;2026-05-10 20:04:31.330;1,2169447;2,2302437;0,15054525;-0,86947066;-2,0064304;3,0820594
494;2026-05-10 20:04:31.340;1,4196243;2,4682856;-0,22702889;-0,86947066;-2,0064304;3,0820594
495;2026-05-10 20:04:31.350;1,3081511797719882;2,2517189484209;-0,24937731840829613;-0,86947066;-2,0064304;3,0820594
496;2026-05-10 20:04:31.360;1,1966809132193275;2,0351578408771167;-0,2717251747041481;-0,8694706599999998;-2,0064304;3,0820594
497;2026-05-10 20:04:31.370;1,0852106466666667;1,8185967333333333;-0,294073031;-0,8694706599999998;-2,0064304;3,0820594
498;2026-05-10 20:04:31.380;0,9673229609059458;1,8399435913453872;-0,19968576245008007;-0,7798096205886159;-1,5799595210651045;2,4591570373872687
499;2026-05-10 20:04:31.390;0,8494352751452249;1,8612904493574411;-0,10529849390016019;-0,690148581177232;-1,1534886421302089;1,8362546747745376
500;2026-05-10 20:04:31.400;0,7315506072706305;1,8826367608969248;-0,010913641633386746;-0,6004898370590773;-0,7270286807100698;1,2133682582581793
501;2026-05-10 20:04:31.410;0,6136659393960362;1,9039830724364084;0,0834712106333867;-0,5108310929409225;-0,3005687192899307;0,590481841741821
502;2026-05-10 20:04:31.420;0,4957782536353153;1,9253299304484623;0,1778584791833066;-0,4211700535295387;0,12590215964496496;-0,0324205208709102
503;2026-05-10 20:04:31.430;0,3778905678745944;1,9466767884605163;0,2722457477332265;-0,3315090141181548;0,5523730385798606;-0,6553228834836413
504;2026-05-10 20:04:31.440;0,2600059;1,9680231;0,3666306;-0,24185027;0,978833;-1,2782093
505;2026-05-10 20:04:31.450;0,5479305311842133;2,0711279969070935;0,19684588993877333;-0,08951988152059734;0,9743999234107733;-1,3652419359680001
506;2026-05-10 20:04:31.460;0,8358625333333333;2,1742355333333334;0,027056833333333342;0,06281440666666667;0,9699667333333333;-1,4522768000000001
507;2026-05-10 20:04:31.470;1,1237945354824532;2,2773430697595733;-0,14273222327210663;0,21514869485393068;0,9655335432558934;-1,5393116640320001
508;2026-05-10 20:04:31.480;1,4117191666666664;2,3804479666666665;-0,3125169333333333;0,36747908333333335;0,9611004666666667;-1,6263443
509;2026-05-10 20:04:31.490;1,6996437978508798;2,48355286357376;-0,48230164339455994;0,5198094718127361;0,9566673900774401;-1,713376935968
510;2026-05-10 20:04:31.500;1,9875758;2,5866604;-0,6520907;0,67214376;0,9522342;-1,8004118
511;2026-05-10 20:04:31.510;2,04716607941248;1,7076775491635199;-0,499031334198528;0,67214376;0,9522342;-1,8004118
512;2026-05-10 20:04:31.520;2,1067548333333335;0,8287171999999999;-0,3459758866666667;0,67214376;0,9522342;-1,8004118
513;2026-05-10 20:04:31.530;1,9825399755162645;1,287041911158139;-0,438892005322388;0,3328808168283442;1,0725318802266444;-2,2642367839522817
514;2026-05-10 20:04:31.540;1,8583219377581324;1,7453783555790696;-0,531810502661194;-0,006390811585827899;1,1928326401133222;-2,728073641976141
515;2026-05-10 20:04:31.550;1,7341039;2,2037148;-0,624729;-0,34566244;1,3131334;-3,1919105
516;2026-05-10 20:04:31.560;1,62959991266816;1,5732339452582402;-0,447503961009536;-0,466625306655488;1,4120137593152;-3,30635901004032
517;2026-05-10 20:04:31.570;1,52509592533632;0,9427530905164802;-0,270278922019072;-0,587588173310976;1,5108941186304;-3,4208075200806403
518;2026-05-10 20:04:31.580;1,42058926266816;0,31225609525824005;-0,09304934600953602;-0,708554136655488;1,6097770093152;-3,53525896004032
519;2026-05-10 20:04:31.590;1,3160826;-0,3182409;0,08418023;-0,8295201;1,7086599;-3,6497104
520;2026-05-10 20:04:31.600;1,355138630061133;-0,3199297065064;0,05234812046497399;-0,6968694533600086;1,6198165697673466;-3,885369346821496
521;2026-05-10 20:04:31.610;1,394194660122266;-0,32161851301280003;0,020516010929947974;-0,5642188067200171;1,5309732395346933;-4,121028293642992
522;2026-05-10 20:04:31.620;1,4332516900305665;-0,3233073627532;-0,011316913517513011;-0,4315647641800043;1,4421276348836733;-4,356693273410748
523;2026-05-10 20:04:31.630;1,4723087199388671;-0,3249962124936;-0,04314983796497399;-0,29891072163999133;1,3532820302326534;-4,592358253178504
524;2026-05-10 20:04:31.640;1,51136475;-0,326685019;-0,0749819475;-0,16626007499999995;1,2644387000000001;-4,8280172
525;2026-05-10 20:04:31.650;1,550420780061133;-0,3283738255064;-0,10681405703502601;-0,033609428360008534;1,1755953697673467;-5,0636761468214955
526;2026-05-10 20:04:31.660;1,5894778099694336;-0,3300626752468;-0,138646981482487;0,09904461418000438;1,0867497651163267;-5,299341126589252
527;2026-05-10 20:04:31.670;1,628534839877734;-0,33175152498719995;-0,170479905929948;0,2316986567200173;0,9979041604653068;-5,535006106357009
528;2026-05-10 20:04:31.680;1,667590869938867;-0,3334403314936;-0,202312015464974;0,3643493033600087;0,9090608302326535;-5,770665053178504
529;2026-05-10 20:04:31.690;1,7066469;-0,335129138;-0,23414412499999998;0,49699995;0,8202175;-6,006324
530;2026-05-10 20:04:31.700;1,3169829249099736;-0,38395484864073115;-0,19470137342616137;1,092505581583012;0,5725066178941957;-5,86187920075349
531;2026-05-10 20:04:31.710;0,9273189498199474;-0,43278055928146225;-0,15525862185232275;1,6880112131660239;0,32479573578839127;-5,7174344015069805
532;2026-05-10 20:04:31.720;0,53766495;-0,48160502;-0,11581688;2,2835016;0,077091195;-5,5729933
533;2026-05-10 20:04:31.730;0,050523758;-0,57537085;-0,115768075;2,2835016;0,077091195;-5,5729933
534;2026-05-10 20:04:31.740;-0,52793148;-0,50277988;-0,35390155;2,3250055;-0,3801676;-4,7803698
535;2026-05-10 20:04:31.750;-0,5502528342795703;-0,446346866888904;-0,4351030624880746;2,3250055;-0,3801676;-4,7803698
536;2026-05-10 20:04:31.760;-0,5725736171397852;-0,389915298444452;-0,5163024962440372;2,3250055;-0,3801676;-4,7803698
537;2026-05-10 20:04:31.770;-0,5948944;-0,33348373;-0,59750193;2,3250055;-0,3801676;-4,7803698
538;2026-05-10 20:04:31.780;-0,48983499683790155;-0,29216838744692286;-0,5954684359810731;1,3270758844429464;0,021203368321756472;-3,0790489755814585
539;2026-05-10 20:04:31.790;-0,384775593675803;-0,2508530448938458;-0,5934349419621463;0,329146268885893;0,42257433664351296;-1,3777281511629174
540;2026-05-10 20:04:31.800;-0,27971888;-0,20953876;-0,5914015;-0,6687578;0,82393503;0,32354912
541;2026-05-10 20:04:31.810;-0,18397938048128;-0,179129134248192;-0,46357228623488;-0,019870155868160017;0,18463783310886406;0,01827749752678402
542;2026-05-10 20:04:31.820;-0,08823743;-0,14871873;-0,3357398;0,6290341;-0,45467573;-0,28700194
543;2026-05-10 20:04:31.830;-0,772012889618473;-0,3107497852946146;-0,18551414451496326;0,5415567070716035;-0,3081062935803033;1,8341679075020265
544;2026-05-10 20:04:31.840;-1,4557708448092366;-0,4727766926473073;-0,03529233475748165;0,45408155353580176;-0,16154060929015165;3,9552834537510133
545;2026-05-10 20:04:31.850;-2,1395288;-0,6348036;0,114929475;0,3666064;-0,014974925;6,076399
546;2026-05-10 20:04:31.860;-0,1287646;-0,9635683;-0,6583308;0,3666064;-0,014974925;6,076399
547;2026-05-10 20:04:31.870;0,47916903145087997;-0,9165429580833281;-0,63452609530368;-0,03025164471795198;-0,55955948309312;6,73435272169984
548;2026-05-10 20:04:31.880;1,0870871;-0,86951882;-0,610722;-0,42709953;-1,1041301;7,3922896
549;2026-05-10 20:04:31.890;1,41889795276672;-0,802918662492928;-0,32596161297960957;-1,1215135263870721;-0,6380895703951359;7,55225575240704
550;2026-05-10 20:04:31.900;1,7507173;-0,7363168;-0,041193936;-1,8159453;-0,17203711;7,712226
551;2026-05-10 20:04:31.910;1,947203;-0,5220229;0,5757184;-1,8159453;-0,17203711;7,712226
552;2026-05-10 20:04:31.920;1,95401655;-0,40011725;0,6338128;-1,50665545;-0,1012291;7,300206
553;2026-05-10 20:04:31.930;1,9608301;-0,2782116;0,6919072;-1,1973656;-0,03042109;6,888186
554;2026-05-10 20:04:31.940;1,8674733;-0,140380267;0,36750043899999996;-0,0259966499999999;-0,511110945;6,652095350000001
555;2026-05-10 20:04:31.950;1,7741165;-0,002548934;0,043093678;1,1453723;-0,9918008;6,4160047
556;2026-05-10 20:04:31.960;1,66665865;0,109967323;-0,17648122100000002;1,1453723;-0,9918008;6,4160047
557;2026-05-10 20:04:31.970;1,5592008;0,22248358;-0,39605612;1,1453723;-0,9918008;6,4160047
558;2026-05-10 20:04:31.980;1,8082924;0,55161381;-0,63653061;1,28245045;-1,02853125;6,5131586
559;2026-05-10 20:04:31.990;2,057384;0,88074404;-0,8770051;1,4195286;-1,0652617;6,6103125
560;2026-05-10 20:04:32.000;2,00218825651456;1,0141313226209279;-0,8044556136453119;0,68586266604416;-0,77754785778432;6,0419271504256
561;2026-05-10 20:04:32.010;1,94699251302912;1,147518605241856;-0,731906127290624;-0,047803267911679916;-0,48983401556864004;5,4735418008512005
562;2026-05-10 20:04:32.020;1,89179535651456;1,280909302620928;-0,659354783645312;-0,7814879839558398;-0,2021128077843201;4,9051419004256
563;2026-05-10 20:04:32.030;1,8365982;1,4143;-0,58680344;-1,5151727;0,0856084;4,336742
564;2026-05-10 20:04:32.040;1,6092276069205629;1,3667310392603274;-0,5210618043358052;-1,5151727;0,0856084;4,336742
565;2026-05-10 20:04:32.050;1,381857013841126;1,319162078520655;-0,4553201686716103;-1,5151727;0,0856084;4,336742
566;2026-05-10 20:04:32.060;1,1544806;1,2715919;-0,38957685;-1,5151727;0,0856084;4,336742
567;2026-05-10 20:04:32.070;1,1298703292239074;1,2998694571828606;-0,3435071618297286;-1,4707038692057706;-0,0030459782413998758;4,332605489587703
568;2026-05-10 20:04:32.080;1,105260688462682;1,3281462904695231;-0,2974386530283785;-1,4262361767990381;-0,09169808695976667;4,328469085068717
569;2026-05-10 20:04:32.090;1,080651047701457;1,356423123756186;-0,2513701442270284;-1,3817684843923057;-0,18035019567813346;4,32433268054973
570;2026-05-10 20:04:32.100;1,0560407769253644;1,3847006809390465;-0,2053004560567571;-1,3372996535980763;-0,26900457391953336;4,320196170137432
571;2026-05-10 20:04:32.110;1,0314305061492715;1,4129782381219071;-0,15923076788648574;-1,292830822803847;-0,35765895216093324;4,316059659725135
572;2026-05-10 20:04:32.120;1,0068208653880464;1,4412550714085697;-0,11316225908513564;-1,2483631303971146;-0,4463110608793;4,311923255206149
573;2026-05-10 20:04:32.130;0,9822112246268213;1,4695319046952322;-0,06709375028378553;-1,2038954379903823;-0,5349631695976668;4,307786850687163
574;2026-05-10 20:04:32.140;0,9576009538507285;1,4978094618780928;-0,02102406211351419;-1,159426607196153;-0,6236175478390666;4,303650340274865
575;2026-05-10 20:04:32.150;0,9329906830746357;1,5260870190609535;0,02504562605675715;-1,1149577764019236;-0,7122719260804665;4,299513829862568
576;2026-05-10 20:04:32.160;0,9083810423134107;1,5543638523476162;0,07111413485810725;-1,0704900839951912;-0,8009240347988333;4,295377425343582
577;2026-05-10 20:04:32.170;0,8837714015521856;1,5826406856342787;0,11718264365945735;-1,0260223915884588;-0,8895761435172002;4,291241020824595
578;2026-05-10 20:04:32.180;0,8591611307760928;1,6109182428171394;0,1632523318297287;-0,9815535607942294;-0,9782305217586;4,287104510412298
579;2026-05-10 20:04:32.190;0,83455086;1,6391958;0,20932202;-0,93708473;-1,0668849;4,282968
580;2026-05-10 20:04:32.200;1,1696376;2,6272478;-0,17405187;-0,12473868;-1,2452052;4,0503507
581;2026-05-10 20:04:32.210;2,0261877;2,5046697;0,08241715;-0,12473868;-1,2452052;4,0503507
582;2026-05-10 20:04:32.220;1,6791592499999999;2,5154096;-0,09021136500000003;0,04400848000000001;-0,81348053;2,64555265
583;2026-05-10 20:04:32.230;1,3321308;2,5261495;-0,26283988;0,21275564;-0,38175586;1,2407546
584;2026-05-10 20:04:32.240;1,0446951;2,252401625;-0,043620832500000005;0,05784894;-0,11321077499999997;-0,17097239999999989
585;2026-05-10 20:04:32.250;0,7572593999999999;1,9786537499999999;0,175598215;-0,09705776;0,15533431;-1,5826994
586;2026-05-10 20:04:32.260;1,6041802;2,013604875;0,037402262500000005;0,18719528500000002;0,497619555;-2,5648399
587;2026-05-10 20:04:32.270;2,451101;2,048556;-0,10079369;0,47144833;0,8399048;-3,5469804
588;2026-05-10 20:04:32.280;2,2565226770896087;1,8466029566880287;-0,13845188697927244;0,34750774263988327;0,9971169084395027;-3,78607969299325
589;2026-05-10 20:04:32.290;2,061944354179218;1,644649913376057;-0,17611008395854488;0,22356715527976653;1,1543290168790055;-4,0251789859865
590;2026-05-10 20:04:32.300;1,86736105;1,4426917000000001;-0,213769245;0,099623395;1,3115451500000002;-4,264284399999999
591;2026-05-10 20:04:32.310;1,6727777458207822;1,240733486623943;-0,2514284060414551;-0,02432036527976653;1,4687612831209946;-4,5033898140135
592;2026-05-10 20:04:32.320;1,478199422910391;1,0387804433119716;-0,28908660302072753;-0,14826095263988326;1,6259733915604975;-4,742489107006749
593;2026-05-10 20:04:32.330;1,2836211;0,8368274;-0,3267448;-0,27220154;1,7831855;-4,9815884
594;2026-05-10 20:04:32.340;1,3378028;0,68618256;-0,1934027;-0,27220154;1,7831855;-4,9815884
595;2026-05-10 20:04:32.350;1,5622554;0,57317233;-0,25572416;-0,27220154;1,7831855;-4,9815884
596;2026-05-10 20:04:32.360;1,5532486122306872;0,45147589818741296;-0,29712697602973703;-0,13177727796284922;1,6999306525405506;-4,985955215283239
597;2026-05-10 20:04:32.370;1,5442418244613745;0,3297794663748259;-0,3385297920594741;0,008646984074301613;1,6166758050811012;-4,990322030566478
598;2026-05-10 20:04:32.380;1,5352348061153436;0,20807991909370652;-0,3799336680148685;0,1490748410185754;1,5334188262702753;-4,994688957641619
599;2026-05-10 20:04:32.390;1,5262277877693127;0,08638037181258706;-0,42133754397026296;0,28950269796284916;1,4501618474594495;-4,9990558847167605
600;2026-05-10 20:04:32.400;1,517221;-0,03531606;-0,46274036;0,42992696;1,366907;-5,0034227
601;2026-05-10 20:04:32.410;1,4857922;-0,57761127;-0,23857571;0,22390829;1,7336705;-5,4803863
602;2026-05-10 20:04:32.420;1,1534896090812798;-0,682731738024768;-0,157625526350912;0,555551262475712;1,5686475127328;-5,49382552201984
603;2026-05-10 20:04:32.430;0,8211870181625599;-0,787852206049536;-0,07667534270182401;0,887194234951424;1,4036245254656;-5,50726474403968
604;2026-05-10 20:04:32.440;0,48889293408127993;-0,892969983024768;0,004272768649087978;1,218828717475712;1,2386057627328;-5,52070362201984
605;2026-05-10 20:04:32.450;0,15659885;-0,99808776;0,08522088;1,5504632;1,073587;-5,5341425
606;2026-05-10 20:04:32.460;-0,14939817780788137;-0,9133549036222138;-0,03680260458707377;2,0123568747755742;0,49814700630823977;-4,895521050500051
607;2026-05-10 20:04:32.470;-0,45539520561576274;-0,8286220472444278;-0,15882608917414753;2,4742505495511486;-0,07729298738352057;-4,256899601000103
608;2026-05-10 20:04:32.480;-0,7613844;-0,74389136;-0,28084645;2,9361324;-0,65271825;-3,6182945
609;2026-05-10 20:04:32.490;-0,825571671189883;-0,7635558477217804;-0,3715938345581459;2,8039317895859646;-0,8713228357673141;-3,04730231172475
610;2026-05-10 20:04:32.500;-0,8897605855949414;-0,7832208388608902;-0,4623435422790729;2,6717277947929823;-1,089933017883657;-2,476295505862375
611;2026-05-10 20:04:32.510;-0,9539495;-0,80288583;-0,55309325;2,5395238;-1,3085432;-1,9052887
612;2026-05-10 20:04:32.520;-0,8714058852574342;-0,7310628674765504;-0,6018288409411608;2,5395238;-1,3085432;-1,9052887
613;2026-05-10 20:04:32.530;-0,7888622705148686;-0,6592399049531007;-0,6505644318823216;2,5395238;-1,3085432;-1,9052887
614;2026-05-10 20:04:32.540;-0,7063165426287171;-0,5874151037382752;-0,6993012704705804;2,5395238;-1,3085432;-1,9052887
615;2026-05-10 20:04:32.550;-0,6237708147425658;-0,5155903025234497;-0,7480381090588393;2,5395238;-1,3085432;-1,9052887
616;2026-05-10 20:04:32.560;-0,5412272;-0,44376734;-0,7967737;2,5395238;-1,3085432;-1,9052887
617;2026-05-10 20:04:32.570;-0,46283149797044065;-0,42245467040755025;-0,6238923572126839;1,071575719967915;-0,5906375190804518;-0,48400992346827315
618;2026-05-10 20:04:32.580;-0,38443378898522035;-0,40114145520377514;-0,4510065886063419;-0,3964099400160421;0,12728654045977417;0,9373052382658636
619;2026-05-10 20:04:32.590;-0,30603608;-0,37982824;-0,27812082;-1,8643956;0,8452106;2,3586204
620;2026-05-10 20:04:32.600;-0,53653594;-0,43707625499999997;-0,23744965;-1,8691778;0,8284467;2,4358076
621;2026-05-10 20:04:32.610;-0,7670358;-0,49432427;-0,19677848;-1,87396;0,8116828;2,5129948
622;2026-05-10 20:04:32.620;-0,8532532628555192;-0,521222045429695;-0,20255386013913565;-1,7566918716897366;0,6822731673623236;2,6939864283305517
623;2026-05-10 20:04:32.630;-0,9394707257110382;-0,5481198208593898;-0,2083292402782713;-1,639423743379473;0,5528635347246471;2,874978056661103
624;2026-05-10 20:04:32.640;-1,0256859814277597;-0,5750169077148475;-0,21410447256956783;-1,5221586170948682;0,4234572149311618;3,055965051665276
625;2026-05-10 20:04:32.650;-1,111901237144481;-0,6019139945703051;-0,21987970486086436;-1,4048934908102635;0,2940508951376764;3,236952046669449
626;2026-05-10 20:04:32.660;-1,1981187;-0,6288117700000001;-0,22565508499999998;-1,2876253625;0,16464126249999997;3,417943675
627;2026-05-10 20:04:32.670;-1,2843361628555192;-0,655709545429695;-0,23143046513913562;-1,1703572341897366;0,035231629862323505;3,598935303330552
628;2026-05-10 20:04:32.680;-1,3705514185722405;-0,6826066322851526;-0,23720569743043216;-1,0530921079051319;-0,09417468993116183;3,7799222983347245
629;2026-05-10 20:04:32.690;-1,4567666742889618;-0,7095037191406103;-0,2429809297217287;-0,935826981620527;-0,22358100972464717;3,9609092933388976
630;2026-05-10 20:04:32.700;-1,542984137144481;-0,7364014945703052;-0,24875630986086433;-0,8185588533102635;-0,35299064236232364;4,141900921669449
631;2026-05-10 20:04:32.710;-1,6292016;-0,7632992700000001;-0,25453169;-0,701290725;-0,482400275;4,322892550000001
632;2026-05-10 20:04:32.720;-1,4368919;-1,2721874;-0,28195542;0,24836035;-0,930627;5,0388703
633;2026-05-10 20:04:32.730;-1,0101094563081634;-1,2822424770346932;-0,24825009514694438;-0,19899087906477841;-1,12193756095478;5,8735514927551815
634;2026-05-10 20:04:32.740;-0,5833160868459183;-1,2922978114826533;-0,21454390742652782;-0,6463535604676108;-1,31325301952261;6,70825405362241
635;2026-05-10 20:04:32.750;-0,1565227173836733;-1,3023531459306135;-0,18083771970611126;-1,0937162418704434;-1,5045684780904398;7,542956614489638
636;2026-05-10 20:04:32.760;0,27025972630816336;-1,3124082229653067;-0,14713239485305565;-1,5410674709352217;-1,6958790390452199;8,377637807244819
637;2026-05-10 20:04:32.770;0,69704217;-1,3224633;-0,11342707;-1,9884187;-1,8871896;9,212319
638;2026-05-10 20:04:32.780;1,592486735;-0,8989590249999999;0,09419829000000002;-2,1744619999999997;-1,38546853;8,895053
639;2026-05-10 20:04:32.790;2,4879313;-0,47545475;0,30182365;-2,3605053;-0,88374746;8,577787
640;2026-05-10 20:04:32.800;2,40905;0,394234425;-0,181721125;-0,5852087999999999;-1,05382978;7,07103565
641;2026-05-10 20:04:32.810;2,3301687;1,2639236;-0,6652659;1,1900877;-1,2239121;5,5642843
642;2026-05-10 20:04:32.820;1,8743483870497835;1,2351781713754821;-0,5212686179055875;0,6366448706816398;-0,9522434817907977;4,637320390009216
643;2026-05-10 20:04:32.830;1,4185280740995665;1,2064327427509642;-0,3772713358111752;0,08320204136327951;-0,6805748635815954;3,7103564800184317
644;2026-05-10 20:04:32.840;0,96271943;1,17768805;-0,23327773999999998;-0,47022662;-0,4089132;2,7834163
645;2026-05-10 20:04:32.850;0,9323031455834241;1,27739335500576;-0,146605944413184;-0,398566498511296;-0,5399988345824;2,58752304496576
646;2026-05-10 20:04:32.860;0,9018860825;1,3771012125;-0,05993193;-0,3269045425;-0,671087825;2,391624775
647;2026-05-10 20:04:32.870;0,8714690194165761;1,47680906999424;0,02674208441318399;-0,25524258648870396;-0,8021768154176;2,19572650503424
648;2026-05-10 20:04:32.880;0,841052735;1,5765143750000001;0,11341387999999998;-0,183582465;-0,93326245;1,9998332499999998
649;2026-05-10 20:04:32.890;0,810636450583424;1,67621968000576;0,20008567558681598;-0,11192234351129599;-1,0643480845824;1,8039399949657597
650;2026-05-10 20:04:32.900;0,7802193875;1,7759275375;0,28675968999999996;-0,04026038749999999;-1,1954370749999998;1,6080417249999999
651;2026-05-10 20:04:32.910;0,749802324416576;1,8756353949942401;0,37343370441318396;0,03140156851129601;-1,3265260654175999;1,4121434550342398
652;2026-05-10 20:04:32.920;0,71938604;1,9753407;0,4601055;0,10306169;-1,4576117;1,2162502
653;2026-05-10 20:04:32.930;0,322510445;1,7094399;0,68279508;-0,28441885;0,742498;-3,0657406
654;2026-05-10 20:04:32.940;0,8963078225;1,7831278499999998;0,358908159;0,426479925;0,35709437950000006;-2,8757092
655;2026-05-10 20:04:32.950;1,4701052;1,8568158;0,035021238;1,1373787;-0,028309241;-2,6856778
656;2026-05-10 20:04:32.960;1,531305;1,7394829;-0,39696985;1,1373787;-0,028309241;-2,6856778
657;2026-05-10 20:04:32.970;2,0554307;-0,06544737;-0,1808591;0,039200094;0,9719215;-3,4873598
658;2026-05-10 20:04:32.980;1,3833115;1,5787809;-0,4741007;-0,7023205;1,5489622;-3,556021
659;2026-05-10 20:04:32.990;1,420763239168167;1,5143080330104874;-0,39531540874824;-0,8295513380451757;1,6241930172561803;-3,5625893787655625
660;2026-05-10 20:04:33.000;1,4582140195840836;1,4498368165052438;-0,31653213437412003;-0,9567789190225879;1,6994219086280902;-3,5691575893827814
661;2026-05-10 20:04:33.010;1,4956648;1,3853656;-0,23774886;-1,0840065;1,7746508;-3,5757258
662;2026-05-10 20:04:33.020;1,5200094999999998;1,1789005000000001;-0,061043113000000024;-1,0840065;1,7746508;-3,5757258
663;2026-05-10 20:04:33.030;1,5443542;0,9724354;0,115662634;-1,0840065;1,7746508;-3,5757258
664;2026-05-10 20:04:33.040;1,5613401550513282;0,8632620316246682;0,09661689519238482;-1,0840065;1,7746508;-3,5757258
665;2026-05-10 20:04:33.050;1,5783261101026564;0,7540886632493365;0,07757115638476965;-1,0840065;1,7746508;-3,5757258
666;2026-05-10 20:04:33.060;1,5953125;0,6449125;0,05852493;-1,0840065;1,7746508;-3,5757258
667;2026-05-10 20:04:33.070;1,592886915162329;0,5328933709388008;-0,06935047142734997;-1,0840065;1,7746508;-3,5757258
668;2026-05-10 20:04:33.080;1,5904613924188353;0,4208771095305996;-0,19722259928632507;-1,0840065;1,7746508;-3,5757258
669;2026-05-10 20:04:33.090;1,5880358696753416;0,3088608481223984;-0,3250947271453002;-1,0840065;1,7746508;-3,5757258
670;2026-05-10 20:04:33.100;1,5856102848376707;0,1968417190611992;-0,4529701285726501;-1,0840065;1,7746508;-3,5757258
671;2026-05-10 20:04:33.110;1,5831847;0,08482259;-0,58084553;-1,0840065;1,7746508;-3,5757258
672;2026-05-10 20:04:33.120;1,5743100908771606;0,033083862811347994;-0,550369925074189;-0,9742944858654051;1,8752610297380603;-3,7779532991639018
673;2026-05-10 20:04:33.130;1,5654354817543212;-0,01865486437730402;-0,519894320148378;-0,8645824717308103;1,9758712594761203;-3,9801807983278037
674;2026-05-10 20:04:33.140;1,5565606454385803;-0,07039491609432602;-0,4894179350370945;-0,7548676489327026;2,0764840648690304;-4,182413474581951
675;2026-05-10 20:04:33.150;1,5476858091228394;-0,12213496781134803;-0,45894154992581104;-0,6451528261345949;2,17709687026194;-4,384646150836098
676;2026-05-10 20:04:33.160;1,5388112;-0,17387369500000005;-0,428465945;-0,535440812;2,2777071;-4,58687365
677;2026-05-10 20:04:33.170;1,5299365908771605;-0,22561242218865205;-0,397990340074189;-0,42572879786540513;2,3783173297380604;-4,789101149163902
678;2026-05-10 20:04:33.180;1,5210617545614196;-0,2773524739056741;-0,3675139549629055;-0,31601397506729745;2,47893013513097;-4,991333825418049
679;2026-05-10 20:04:33.190;1,5121869182456786;-0,3290925256226961;-0,33703756985162203;-0,2062991522691898;2,5795429405238797;-5,193566501672196
680;2026-05-10 20:04:33.200;1,5033123091228393;-0,38083125281134805;-0,306561964925811;-0,0965871381345949;2,68015317026194;-5,395794000836098
681;2026-05-10 20:04:33.210;1,4944377;-0,43256998;-0,27608636;0,013124876;2,7807634;-5,5980215
682;2026-05-10 20:04:33.220;1,4480103482694473;-0,2665247142096461;-0,22559612248882135;0,024361013658258525;2,793302684778305;-5,600980747474145
683;2026-05-10 20:04:33.230;1,4015829965388946;-0,10047944841929207;-0,17510588497764276;0,03559715131651705;2,80584196955661;-5,603939994948289
684;2026-05-10 20:04:33.240;1,3551568333333333;0,06556156666666668;-0,12461694000000001;0,04683300133333334;2,8183809333333336;-5,606899166666667
685;2026-05-10 20:04:33.250;1,0836257564119192;-0,09955627750827728;-0,09599525914960577;0,3973919179401304;2,799634442166434;-5,5485791064528796
686;2026-05-10 20:04:33.260;0,8120877282059596;-0,26467834875413865;-0,06737284557480289;0,7479598089700652;2,7808874710832168;-5,49025755322644
687;2026-05-10 20:04:33.270;0,5405497;-0,42980042;-0,038750432;1,0985277;2,7621405;-5,431936
688;2026-05-10 20:04:33.280;0,75508438;-0,59818965;-0,079418665;1,8815696;2,1675243;-5,131181
689;2026-05-10 20:04:33.290;0,616636974649472;-0,466852053642752;-0,154604051364736;1,9196260378713599;1,4494265167692801;-4,4534084256
690;2026-05-10 20:04:33.300;0,478186025;-0,335511095;-0,2297913625;1,95768345;0,7313103500000003;-3,7756184999999998
691;2026-05-10 20:04:33.310;0,33973507535052805;-0,20417013635724798;-0,304978673635264;1,9957408621286399;0,013194183230720337;-3,0978285744000003
692;2026-05-10 20:04:33.320;0,20128767;-0,07283254;-0,38016406;2,0337973;-0,7049036;-2,420056
693;2026-05-10 20:04:33.330;-0,9919463;-0,3651614;-0,27372387;2,0337973;-0,7049036;-2,420056
694;2026-05-10 20:04:33.340;-2,066785;-1,1750469;0,27479282;-1,6493361;-0,5324301;4,470364
695;2026-05-10 20:04:33.350;-0,0943863536204799;-1,080243106526976;0,280301280507392;-1,2327817681728;-0,71448773030784;6,4043272544128
696;2026-05-10 20:04:33.360;1,8779618;-0,98544174;0,2858096;-0,8162381;-0,8965407;8,338241
697;2026-05-10 20:04:33.370;2,0959650460303103;-0,9137883828996143;0,2626304022633717;-0,506435820693245;-0,9873835495955218;8,263006784013722
698;2026-05-10 20:04:33.380;2,313973873015155;-0,8421331914498071;0,23945061113168584;-0,19662561034662254;-1,0782287247977609;8,18777064200686
699;2026-05-10 20:04:33.390;2,5319827;-0,770478;0,21627082;0,1131846;-1,1690739;8,1125345
700;2026-05-10 20:04:33.400;2,749957;-0,03009421;-0,41842246;0,1131846;-1,1690739;8,1125345
701;2026-05-10 20:04:33.410;1,8661535;0,16525312;-0,22143118;0,3096214;-0,75227183;6,808861
702;2026-05-10 20:04:33.420;1,6004347;0,28093138;-0,085342914;0,3096214;-0,75227183;6,808861
703;2026-05-10 20:04:33.430;1,5504008127659212;0,39304081997661855;-0,2589317585450263;0,23526329097118281;-0,8019621913713125;6,072639435312791
704;2026-05-10 20:04:33.440;1,5003682063829606;0,5051473899883093;-0,43251615927251313;0,1609070854855914;-0,8516512806856562;5,336436717656396
705;2026-05-10 20:04:33.450;1,4503356;0,61725396;-0,60610056;0,08655088;-0,90134037;4,600234
706;2026-05-10 20:04:33.460;1,378608821272656;0,6489325303203399;-0,6530660241001638;0,051422919578574595;-1,2814239566717582;4,337972862066936
707;2026-05-10 20:04:33.470;1,3068820425453118;0,68061110064068;-0,7000314882003277;0,016294959157149198;-1,6615075433435165;4,07571172413387
708;2026-05-10 20:04:33.480;1,2351571;0,71228886;-0,74699575;-0,018832102;-2,0415814;3,8134573
709;2026-05-10 20:04:33.490;0,9889298;0,8068523;-0,65505743;-0,018832102;-2,0415814;3,8134573
710;2026-05-10 20:04:33.500;1,0544281255785575;0,9380790864542444;-0,4396448185025771;-0,5939230087129228;-1,9035246885978088;3,728109938378503
711;2026-05-10 20:04:33.510;1,119926451157115;1,0693058729084888;-0,2242322070051541;-1,1690139154258457;-1,7654679771956172;3,6427625767570055
712;2026-05-10 20:04:33.520;1,1854231;1,2005293;-0,00882511;-1,7440901;-1,6274148;3,5574174
713;2026-05-10 20:04:33.530;1,4134962408352392;1,406562116994914;0,06669565109584598;-1,64365971403386;-1,775579037964638;3,557242869645356
714;2026-05-10 20:04:33.540;1,6415752204176195;1,612600208497457;0,14221834554792298;-1,54322675701693;-1,923747068982319;3,557068334822678
715;2026-05-10 20:04:33.550;1,8696542;1,8186383;0,21774104;-1,4427938;-2,0719151;3,5568938
716;2026-05-10 20:04:33.560;1,9946983;2,1533406;0,19596234;-1,4427938;-2,0719151;3,5568938
717;2026-05-10 20:04:33.570;2,012172;2,381735;-0,05814713;-0,42605233;-2,1315358;2,350627
718;2026-05-10 20:04:33.580;1,976413028194013;2,3553781750913063;-0,048378897978820355;-0,5137093179967233;-1,8533046591246545;2,168040708616923
719;2026-05-10 20:04:33.590;1,9406540563880261;2,3290213501826122;-0,03861066595764071;-0,6013663059934464;-1,5750735182493087;1,9854544172338464
720;2026-05-10 20:04:33.600;1,904896;2,3026652;-0,028842684;-0,68902105;-1,2968495;1,8028728
721;2026-05-10 20:04:33.610;1,517249711936;2,1511106399232;0,1371970976635904;-1,00494783108544;-0,5194025014489599;0,7241422079283201
722;2026-05-10 20:04:33.620;1,1295935;1,9995522;0,30324113;-1,3208827;0,2580644;-0,354616
723;2026-05-10 20:04:33.630;0,40856063;1,8900496;0,5409138;-1,3208827;0,2580644;-0,354616
724;2026-05-10 20:04:33.640;0,4935200530051012;1,9176334771270631;0,5456435768275429;-1,0983744849321686;0,279746947629182;-0,40121224332308764
725;2026-05-10 20:04:33.650;0,5784794760102024;1,9452173542541262;0,5503733536550858;-0,875866269864337;0,301429495258364;-0,44780848664617523
726;2026-05-10 20:04:33.660;0,6634410740043725;1,9728019375374828;0,5551032515664653;-0,6533523585132873;0,3231125979678703;-0,4944059228483608
727;2026-05-10 20:04:33.670;0,7484026719985425;2,000386520820839;0,5598331494778449;-0,4308384471622376;0,3447957006773766;-0,5410033590505464
728;2026-05-10 20:04:33.680;0,8333620950036437;2,027970397947902;0,5645629263053878;-0,20833023209440607;0,36647824830655856;-0,587599602373634
729;2026-05-10 20:04:33.690;0,918321518008745;2,0555542750749654;0,5692927031329307;0,014177982973425476;0,38816079593574054;-0,6341958456967216
730;2026-05-10 20:04:33.700;1,003283116002915;2,0831388583583217;0,5740226010443102;0,23669189432447518;0,40984389864524684;-0,6807932818989072
731;2026-05-10 20:04:33.710;1,088244713997085;2,110723441641678;0,5787524989556898;0,4592058056755249;0,43152700135475314;-0,7273907181010928
732;2026-05-10 20:04:33.720;1,1732041370021862;2,1383073187687414;0,5834822757832328;0,6817140207433564;0,4532095489839351;-0,7739869614241804
733;2026-05-10 20:04:33.730;1,2581635600072874;2,1658911958958043;0,5882120526107756;0,904222235811188;0,4748920966131171;-0,820583204747268
734;2026-05-10 20:04:33.740;1,3431251580014574;2,193475779179161;0,5929419505221551;1,1267361471622377;0,4965751993226234;-0,8671806409494536
735;2026-05-10 20:04:33.750;1,4280867559956274;2,2210603624625174;0,5976718484335347;1,3492500585132874;0,5182583020321297;-0,9137780771516392
736;2026-05-10 20:04:33.760;1,5130461790007286;2,2486442395895803;0,6024016252610777;1,5717582735811189;0,5399408496613117;-0,9603743204747268
737;2026-05-10 20:04:33.770;1,59800560200583;2,2762281167166436;0,6071314020886205;1,7942664886489503;0,5616233972904936;-1,0069705637978144
738;2026-05-10 20:04:33.780;1,6829672;2,3038127;0,6118613;2,0167804;0,5833065;-1,053568
739;2026-05-10 20:04:33.790;2,67423;2,3467138;-0,46457568;0,32286847;-1,4975798;8,344594
740;2026-05-10 20:04:33.800;2,5874081500000004;2,2377043;-0,60447564;1,073473535;-0,3655679499999999;2,8028419
741;2026-05-10 20:04:33.810;2,5005863;2,1286948;-0,7443756;1,8240786;0,7664439;-2,7389102
742;2026-05-10 20:04:33.820;2,3088310564514396;1,6457536407458284;-0,6422254639959962;1,8440907249215361;0,9135766466200407;-3,322557796474889
743;2026-05-10 20:04:33.830;2,117075812902879;1,162812481491657;-0,5400753279919923;1,8641028498430725;1,0607093932400813;-3,906205392949778
744;2026-05-10 20:04:33.840;1,9253254782257196;0,6798836853729142;-0,4379278069979981;1,8841144624607682;1,2078383733100204;-4,489838048237444
745;2026-05-10 20:04:33.850;1,7335751435485605;0,19695488925417148;-0,33578028600400384;1,9041260750784639;1,3549673533799593;-5,0734707035251105
746;2026-05-10 20:04:33.860;1,5418199;-0,28598627;-0,23363015;1,9241382;1,5021001;-5,6571183
747;2026-05-10 20:04:33.870;1,4787089229197778;-0,36142956754913086;-0,2274085304857194;1,9241382;1,5021001;-5,6571183
748;2026-05-10 20:04:33.880;1,4155995614598889;-0,4368709337745655;-0,22118707024285972;1,9241382;1,5021001;-5,6571183
749;2026-05-10 20:04:33.890;1,3524902;-0,5123123;-0,21496561;1,9241382;1,5021001;-5,6571183
750;2026-05-10 20:04:33.900;-0,25395225000000005;-0,57271795;0,04714551499999999;1,9755207000000001;1,46404325;-5,514184449999999
751;2026-05-10 20:04:33.910;-1,8603947;-0,6331236;0,30925664;2,0269032;1,4259864;-5,3712506
752;2026-05-10 20:04:33.920;-1,21181232696064;-0,545767585671296;0,14516880535116802;2,07959837549312;1,01171161528512;-5,255209610343679
753;2026-05-10 20:04:33.930;-0,56322995392128;-0,45841157134259203;-0,018919029297663995;2,13229355098624;0,59743683057024;-5,13916862068736
754;2026-05-10 20:04:33.940;0,08536902303936009;-0,371053320671296;-0,18301106464883202;2,18499007549312;0,18315144028512007;-5,023124660343679
755;2026-05-10 20:04:33.950;0,733968;-0,28369507;-0,3471031;2,2376866;-0,23113395;-4,9070807
756;2026-05-10 20:04:33.960;-0,09941525;-0,6362963;-0,59135264;2,2376866;-0,23113395;-4,9070807
757;2026-05-10 20:04:33.970;-0,30660428226192105;-0,6138390249424003;-0,686768928207837;2,2376866;-0,23113395;-4,9070807
758;2026-05-10 20:04:33.980;-0,5137986186309605;-0,5913811749712001;-0,7821876591039184;2,2376866;-0,23113395;-4,9070807
759;2026-05-10 20:04:33.990;-0,720992955;-0,568923325;-0,87760639;2,2376866;-0,23113395;-4,9070807
760;2026-05-10 20:04:34.000;-0,5644571134562794;-0,5168774191307483;-0,736524453914598;1,3396700131729629;-0,5549595699860053;-3,419240856395846
761;2026-05-10 20:04:34.010;-0,4079212719125586;-0,4648315132614966;-0,5954425178291961;0,4416534263459256;-0,8787851899720105;-1,9314010127916923
762;2026-05-10 20:04:34.020;-0,25138142300000005;-0,412784275;-0,45435697;-0,45638615;-1,2026191;-0,44352308
763;2026-05-10 20:04:34.030;-0,21233395169876482;-0,36784421227456;-0,248614326527872;-1,21363311763712;-0,391624034396032;0,06883361808179199
764;2026-05-10 20:04:34.040;-0,17328748;-0,3229053;-0,04287695;-1,9708607;0,41935027;0,5811772
765;2026-05-10 20:04:34.050;-0,6553747;-0,37328848;-0,0707766;-1,9708607;0,41935027;0,5811772
766;2026-05-10 20:04:34.060;-1,2149145499999998;-0,55617471;-0,14294775;-1,9708607;0,41935027;0,5811772
767;2026-05-10 20:04:34.070;-1,7744544;-0,73906094;-0,2151189;-1,9708607;0,41935027;0,5811772
768;2026-05-10 20:04:34.080;-1,4732565;-1,1665819;0,068826094;1,6063312;1,949236;-5,5980387
769;2026-05-10 20:04:34.090;-0,1324955492797896;-0,937480496713998;0,11339636865757587;1,6063312;1,949236;-5,5980387
770;2026-05-10 20:04:34.100;1,2082997253601053;-0,708373228356999;0,15796778432878794;1,6063312;1,949236;-5,5980387
771;2026-05-10 20:04:34.110;2,549095;-0,47926596;0,2025392;1,6063312;1,949236;-5,5980387
772;2026-05-10 20:04:34.120;2,24395605388567;-0,2111866559726762;-0,017455699352829236;0,8577251548533541;1,0544191692013618;-1,9991946771954228
773;2026-05-10 20:04:34.130;1,9388171077713399;0,056892648054647624;-0,23745059870565846;0,1091191097067082;0,15960233840272384;1,5996493456091545
774;2026-05-10 20:04:34.140;1,63367035;0,324978815;-0,45745113;-0,6395061;-0,7352374;5,1985855
775;2026-05-10 20:04:34.150;1,6020113244890921;0,3663221533533716;-0,45970021591805293;-0,6992227429301135;-0,7521785864417985;5,0210053489441515
776;2026-05-10 20:04:34.160;1,5703531094388634;0,4076644333308285;-0,46194924426024336;-0,7589378571337357;-0,7691193391947753;4,843429743881981
777;2026-05-10 20:04:34.170;1,538694894388635;0,4490067133082855;-0,4641982726024338;-0,818652971337358;-0,786060091947752;4,665854138819811
778;2026-05-10 20:04:34.180;1,507035868877727;0,49035005166165707;-0,46644735852048674;-0,8783696142674716;-0,8030012783895504;4,488273987763963
779;2026-05-10 20:04:34.190;1,475376843366819;0,5316933900150287;-0,4686964444385397;-0,9380862571975851;-0,8199424648313489;4,310693836708114
780;2026-05-10 20:04:34.200;1,4437186283165904;0,5730356699924857;-0,4709454727807301;-0,9978013714012074;-0,8368832175843256;4,133118231645943
781;2026-05-10 20:04:34.210;1,4120604132663617;0,6143779499699427;-0,47319450112292055;-1,0575164856048296;-0,8538239703373024;3,955542626583773
782;2026-05-10 20:04:34.220;1,380401387755454;0,6557212883233142;-0,4754435870409735;-1,1172331285349433;-0,8707651567791008;3,7779624755279246
783;2026-05-10 20:04:34.230;1,348742362244546;0,6970646266766858;-0,47769267295902645;-1,1769497714650567;-0,8877063432208993;3,6003823244720756
784;2026-05-10 20:04:34.240;1,3170841471943173;0,7384069066541428;-0,4799417013012169;-1,236664885668679;-0,904647095973876;3,4228067194099054
785;2026-05-10 20:04:34.250;1,2854259321440886;0,7797491866315998;-0,4821907296434073;-1,2963799998723013;-0,9215878487268527;3,2452311143477353
786;2026-05-10 20:04:34.260;1,253766906633181;0,8210925249849713;-0,48443981556146026;-1,3560966428024148;-0,9385290351686512;3,0676509632918867
787;2026-05-10 20:04:34.270;1,222107881122273;0,8624358633383429;-0,4866889014795132;-1,4158132857325283;-0,9554702216104497;2,890070812236038
788;2026-05-10 20:04:34.280;1,1904496660720443;0,9037781433157999;-0,48893792982170364;-1,4755283999361506;-0,9724109743634264;2,7124952071738675
789;2026-05-10 20:04:34.290;1,1587914510218156;0,9451204232932569;-0,49118695816389407;-1,535243514139773;-0,9893517271164032;2,5349196021116973
790;2026-05-10 20:04:34.300;1,1271324255109079;0,9864637616466284;-0,493436044081947;-1,5949601570698864;-1,0062929135582015;2,3573394510558487
791;2026-05-10 20:04:34.310;1,0954734;1,0278071;-0,49568513;-1,6546768;-1,0232341;2,1797593
792;2026-05-10 20:04:34.320;1,1290212137216584;1,1154028691732016;-0,3477271829239762;-1,6174987005905093;-1,247696101233072;2,657960852627851
793;2026-05-10 20:04:34.330;1,1625690274433171;1,2029986383464035;-0,1997692358479524;-1,5803206011810185;-1,4721581024661439;3,1361624052557024
794;2026-05-10 20:04:34.340;1,1961177;1,29059665;-0,051807501;-1,54314155;-1,69662585;3,6143761999999997
795;2026-05-10 20:04:34.350;1,40742272966976;1,53040585701856;0,1176987689024832;-1,2472324699122561;-1,4761072148976;2,87443220383808
796;2026-05-10 20:04:34.360;1,6187223499999999;1,770208925;0,2872006995;-0,951330965;-1,255594225;2,1345071499999997
797;2026-05-10 20:04:34.370;1,8300219703302398;2,01001199298144;0,4567026300975168;-0,6554294600877439;-1,0350812351024001;1,39458209616192
798;2026-05-10 20:04:34.380;2,041327;2,2498212;0,6262089;-0,35952038;-0,8145626;0,6546381
799;2026-05-10 20:04:34.390;2,06484815106688;1,99197724963968;0,19208652830476794;0,47064738601139205;0,8633398768767998;-1,6926678451315196
800;2026-05-10 20:04:34.400;2,0883687;1,7341399;-0,24202473;1,3007939;2,5411994;-4,0399137
801;2026-05-10 20:04:34.410;1,8494822262288033;1,5404358035553372;-0,26230919628440647;1,2641667950663553;2,567494270737077;-4,051732938969444
802;2026-05-10 20:04:34.420;1,6105896368855985;1,3467267482223315;-0,2825941818577967;1,2275387524668222;2,5937898146314615;-4,063552480515278
803;2026-05-10 20:04:34.430;1,3716970475423937;1,1530176928893259;-0,30287916743118704;1,1909107098672893;2,620085358525846;-4,075372022061113
804;2026-05-10 20:04:34.440;1,1328105737711969;0,959313596444663;-0,3231636337155935;1,1542836049336447;2,646380229262923;-4,087191261030556
805;2026-05-10 20:04:34.450;0,8939241;0,7656095;-0,3434481;1,1176565;2,6726751;-4,0990105
806;2026-05-10 20:04:34.460;0,983048;0,33693567;-0,28639042;1,1176565;2,6726751;-4,0990105
807;2026-05-10 20:04:34.470;0,99628871947904;0,8048403741035519;-0,18624562566304;1,27230337945472;2,3921446592563202;-4,18444554355456
808;2026-05-10 20:04:34.480;1,0095291;1,2727331;-0,086103395;1,4269463;2,1116214;-4,2698784
809;2026-05-10 20:04:34.490;1,0264403585331199;0,9423751091364095;-0,14964019796851202;1,184344272845696;1,89536919306368;-4,622670284206079
810;2026-05-10 20:04:34.500;1,04335205;0,612008661;-0,21317862750000002;0,941736035;1,67911145;-4,9754712
811;2026-05-10 20:04:34.510;1,06026374146688;0,28164221286359037;-0,276717057031488;0,6991277971543041;1,4628537069363199;-5,32827211579392
812;2026-05-10 20:04:34.520;1,077175;-0,048715778;-0,34025386;0,45652577;1,2466015;-5,681064
813;2026-05-10 20:04:34.530;1,1093827;-0,1399151;-0,30001664;0,45652577;1,2466015;-5,681064
814;2026-05-10 20:04:34.540;1,17170034765568;0,023089148927679985;-0,2008335579728;0,688618273246016;1,2797326240729598;-5,4884950351488
815;2026-05-10 20:04:34.550;1,2340179953113601;0,18609339785535997;-0,10165047594560002;0,9207107764920319;1,31286374814592;-5,2959260702976
816;2026-05-10 20:04:34.560;1,2963340476556802;0,3490934739276799;-0,0024699329728000334;1,152797338246016;1,34599402407296;-5,1033620351488
817;2026-05-10 20:04:34.570;1,3586501000000002;0,5120935499999999;0,09671061;1,3848839;1,3791243;-4,910798
818;2026-05-10 20:04:34.580;1,3251306473043316;0,23197756970756386;0,07639853000580264;1,3848839;1,3791243;-4,910798
819;2026-05-10 20:04:34.590;1,291611194608663;-0,048138410584872164;0,05608645001160528;1,3848839;1,3791243;-4,910798
820;2026-05-10 20:04:34.600;1,2580926;-0,32824722;0,03577489;1,3848839;1,3791243;-4,910798
821;2026-05-10 20:04:34.610;1,11645433799296;-0,350389526574848;0,144770927332864;1,36239561285376;1,4710844978944;-4,9427370911744
822;2026-05-10 20:04:34.620;0,9748124499999999;-0,3725324;0,253769755;1,33990675;1,56304705;-4,974677
823;2026-05-10 20:04:34.630;0,83317056200704;-0,394675273425152;0,362768582667136;1,3174178871462399;1,6550096021056;-5,0066169088256
824;2026-05-10 20:04:34.640;0,6915323;-0,41681758;0,47176462;1,2949296;1,7469698;-5,038556
825;2026-05-10 20:04:34.650;0,29772266582783996;-0,629315039997696;0,41182858469107203;0,6093075760742399;1,18298261912832;-3,97365265593728
826;2026-05-10 20:04:34.660;-0,09609705000000006;-0,84181794;0,35189101500000003;-0,07633200000000014;0,618981;-2,9087220499999997
827;2026-05-10 20:04:34.670;-0,48991676582784005;-1,0543208400023039;0,29195344530892803;-0,7619715760742402;0,05497938087167995;-1,8437914440627199
828;2026-05-10 20:04:34.680;-0,8837264;-1,2668183;0,23201741;-1,4475936;-0,5090078;-0,7788881
829;2026-05-10 20:04:34.690;-0,013768135608320001;-0,675982740291968;-0,44926647445465606;-0,0558509145343998;-1,39079796294144;-1,11239008112
830;2026-05-10 20:04:34.700;0,8562124;-0,085132055;-1,1305678;1,3359274;-2,2726107;-1,4459006
831;2026-05-10 20:04:34.710;0,613020065;-0,71226842;-0,14517745999999998;-2,9870787;1,3573077;-0,66922903
832;2026-05-10 20:04:34.720;0,24665496102859152;-0,6971845897789984;-0,1678045946019741;-2,9724779316219094;1,3614889541250819;-0,4812466681757407
833;2026-05-10 20:04:34.730;-0,11971014294281687;-0,6821007595579969;-0,19043172920394824;-2,9578771632438188;1,3656702082501637;-0,2932643063514813
834;2026-05-10 20:04:34.740;-0,486084625980939;-0,667016543185999;-0,21305944306798275;-2,943276021081273;1,3698515694167213;-0,10527713211716046
835;2026-05-10 20:04:34.750;-0,8524591090190612;-0,651932326814001;-0,23568715693201725;-2,928674878918727;1,3740329305832788;0,08271004211716042
836;2026-05-10 20:04:34.760;-1,2188242129904696;-0,6368484965929995;-0,2583142915339914;-2,9140741105406365;1,3782141847083607;0,27069240394141975
837;2026-05-10 20:04:34.770;-1,585189316961878;-0,621764666371998;-0,2809414261359655;-2,899473342162546;1,3823954388334425;0,45867476576567906
838;2026-05-10 20:04:34.780;-1,9515638;-0,60668045;-0,30356914;-2,8848722;1,3865768;0,64666194
839;2026-05-10 20:04:34.790;-1,8868196236947874;-0,6391317389636123;-0,27304383975825985;-2,78734684135311;1,0413471448935812;1,0427882309479655
840;2026-05-10 20:04:34.800;-1,822077104819273;-0,6715821971848606;-0,24251932095420342;-2,689823979323445;0,6961263275532096;1,4389043811926838
841;2026-05-10 20:04:34.810;-1,7573345859437586;-0,7040326554061088;-0,21199480215014704;-2,59230111729378;0,35090551021283795;1,8350205314374022
842;2026-05-10 20:04:34.820;-1,6925904096385458;-0,7364839443697211;-0,18146950190840686;-2,49477575864689;0,005675855106419026;2,2311468223853677
843;2026-05-10 20:04:34.830;-1,6278462333333332;-0,7689352333333334;-0,15094420166666667;-2,3972504000000003;-0,33955379999999996;2,627273113333333
844;2026-05-10 20:04:34.840;-1,1992655966666665;-0,8883096166666666;-0,039345770833333335;-2,07306135;-1,16368085;3,9789375566666667
845;2026-05-10 20:04:34.850;-0,77068496;-1,007684;0,07225266;-1,7488723;-1,9878079;5,330602
846;2026-05-10 20:04:34.860;0,07676669999999992;-0,92617718;0,144575125;-1,7488723;-1,9878079;5,330602
847;2026-05-10 20:04:34.870;0,92421836;-0,84467036;0,21689759;-1,7488723;-1,9878079;5,330602
848;2026-05-10 20:04:34.880;1,164977822591546;-0,7690235526332228;0,18018648192655853;-1,5805544635967068;-1,9700301620463667;5,624334392141804
849;2026-05-10 20:04:34.890;1,4057372851830916;-0,6933767452664454;0,14347537385311707;-1,4122366271934135;-1,9522524240927337;5,918066784283607
850;2026-05-10 20:04:34.900;1,646502911295773;-0,6177280013166113;0,10676332596327927;-1,2439144817983534;-1,9344742310231835;6,211806696070902
851;2026-05-10 20:04:34.910;1,8872685374084541;-0,5420792573667773;0,07005127807344147;-1,075592336403293;-1,9166960379536333;6,5055466078581965
852;2026-05-10 20:04:34.920;2,128028;-0,46643245;0,03334017;-0,9072745;-1,8989183;6,799279
853;2026-05-10 20:04:34.930;1,5486205;-0,22384441;-0,021323768;-0,91207415;-1,1265053;6,0785108
854;2026-05-10 20:04:34.940;1,2268583;-0,22640312;-0,15730856;-0,91207415;-1,1265053;6,0785108
855;2026-05-10 20:04:34.950;0,71562856;0,16570608;-0,9519628;-0,91207415;-1,1265053;6,0785108
856;2026-05-10 20:04:34.960;2,2525096;1,3274351;-0,27071902;-0,91207415;-1,1265053;6,0785108
857;2026-05-10 20:04:34.970;2,31952354221056;1,4032690793126399;-0,22157873400371197;-1,41138903368768;-1,64764517932416;5,02718135718912
858;2026-05-10 20:04:34.980;2,3865392;1,479105;-0,17243719;-1,9107167;-2,1687984;3,975825
859;2026-05-10 20:04:34.990;-1,2374045;-1,1918038;-0,11582176;-1,9107167;-2,1687984;3,975825
860;2026-05-10 20:04:35.000;-0,021981255077781706;-0,023629835212096936;-0,035896785368513574;-1,9353837895048087;-2,1192955224299626;3,89987481478321
861;2026-05-10 20:04:35.010;1,1934419898444366;1,144544129575806;0,04402818926297285;-1,9600508790096172;-2,0697926448599246;3,8239246295664193
862;2026-05-10 20:04:35.020;2,40889635;2,312748;0,12395520999999998;-1,9847186;-2,0202885;3,7479725
863;2026-05-10 20:04:35.030;2,5940268;2,337552;0,22145753;-1,9847186;-2,0202885;3,7479725
864;2026-05-10 20:04:35.040;2,2706743771711926;2,2143662614381094;0,2215100554621324;-1,8140550676169411;-1,6972732317186858;2,9818645580457424
865;2026-05-10 20:04:35.050;1,9473219543423854;2,0911805228762184;0,22156258092426478;-1,6433915352338824;-1,374257963437372;2,2157566160914843
866;2026-05-10 20:04:35.060;1,6239612535855963;1,9679916307190546;0,22161510773106619;-1,4727236338084706;-1,051234425859343;1,449629061522871
867;2026-05-10 20:04:35.070;1,3006005528288072;1,8448027385618906;0,2216676345378676;-1,302055732383059;-0,7282108882813139;0,6835015069542578
868;2026-05-10 20:04:35.080;0,97724813;1,721617;0,22172016;-1,1313922;-0,40519562;-0,082606435
869;2026-05-10 20:04:35.090;0,748307325479808;1,70248599488;0,348732274224128;-1,09093601784576;0,09410174891187201;-0,41344681268896
870;2026-05-10 20:04:35.100;0,51936066;1,6833545;0,47574764;-1,0504788;0,5934119;-0,74429566
871;2026-05-10 20:04:35.110;0,6484990906010052;1,7460825705453678;0,5036396360173057;-0,6739524856998218;0,6079623816583751;-0,7114712798044152
872;2026-05-10 20:04:35.120;0,7776342153005026;1,8088090352726838;0,5315309180086528;-0,29743581034991096;0,6225124908291876;-0,6786477399022076
873;2026-05-10 20:04:35.130;0,90676934;1,8715355;0,5594222;0,079080865;0,6370626;-0,6458242
874;2026-05-10 20:04:35.140;1,1723809318278866;1,8861800499582722;0,4079757012077025;0,22813700431532974;1,010224821132234;-1,3068709290318616
875;2026-05-10 20:04:35.150;1,4379925236557731;1,9008245999165443;0,256529202415405;0,3771931436306595;1,3833870422644678;-1,9679176580637234
876;2026-05-10 20:04:35.160;1,7035973159139435;1,915468774979136;0,10508658060385126;0,5262454671576648;1,756539710566117;-2,628947464515931
877;2026-05-10 20:04:35.170;1,9692021081721136;1,9301129500417278;-0,04635604120770249;0,6752977906846702;2,129692378867766;-3,2899772709681385
878;2026-05-10 20:04:35.180;2,2348137;1,9447575;-0,19780254;0,82435393;2,5028546;-3,951024
879;2026-05-10 20:04:35.190;1,7594343652224;1,51990646197632;-0,207741662219136;0,845114880736768;1,82626903981568;-3,4642017687552
880;2026-05-10 20:04:35.200;1,2840672;1,0950663;-0,21768053;0,8658753;1,1497008;-2,977392
881;2026-05-10 20:04:35.210;1,1346992;0,90613276;-0,20855571;0,8658753;1,1497008;-2,977392
882;2026-05-10 20:04:35.220;1,174120713671133;0,8511837893297425;-0,21510725008691178;0,8906819140164761;1,222843058967145;-3,18319112735609
883;2026-05-10 20:04:35.230;1,213542227342266;0,796234818659485;-0,22165879017382356;0,9154885280329522;1,29598531793429;-3,38899025471218
884;2026-05-10 20:04:35.240;1,2529627318355665;0,7412872546648712;-0,2282101625434559;0,940294507008238;1,3691257044835725;-3,594784113678045
885;2026-05-10 20:04:35.250;1,292383236328867;0,6863396906702575;-0,23476153491308824;0,9651004859835238;1,4422660910328549;-3,80057797264391
886;2026-05-10 20:04:35.260;1,33180475;0,63139072;-0,24131307500000002;0,9899071;1,51540835;-4,0063771
887;2026-05-10 20:04:35.270;1,371226263671133;0,5764417493297425;-0,2478646150869118;1,0147137140164761;1,588550608967145;-4,21217622735609
888;2026-05-10 20:04:35.280;1,4106467681644335;0,5214941853351287;-0,25441598745654415;1,0395196929917618;1,6616909955164274;-4,417970086321954
889;2026-05-10 20:04:35.290;1,450067272657734;0,46654662134051494;-0,26096735982617647;1,0643256719670477;1,7348313820657097;-4,62376394528782
890;2026-05-10 20:04:35.300;1,489488786328867;0,41159765067025744;-0,26751889991308825;1,089132285983524;1,8079736410328549;-4,82956307264391
891;2026-05-10 20:04:35.310;1,5289103;0,35664868;-0,27407044;1,1139389;1,8811159;-5,0353622
892;2026-05-10 20:04:35.320;1,3274518;0,04476888;-0,29055893;1,1139389;1,8811159;-5,0353622
893;2026-05-10 20:04:35.330;1,24039671431936;-0,08491659500467202;-0,30078627408832;1,14083410573696;0,31771361180543994;-0,23066325093375953
894;2026-05-10 20:04:35.340;1,1533394;-0,21460539;-0,31101388;1,16773;-1,2457287;4,5741587
895;2026-05-10 20:04:35.350;1,15634813851136;-0,244364165907456;-0,317772401507968;1,16773;-1,2457287;4,5741587
896;2026-05-10 20:04:35.360;1,1593568;-0,27412218;-0,32453075;1,16773;-1,2457287;4,5741587
897;2026-05-10 20:04:35.370;1,1859625125900264;-0,3089371658166365;-0,3325353633861829;1,265839125582824;-0,2584767826483939;1,2349412567071711
898;2026-05-10 20:04:35.380;1,2125689062950131;-0,34375304290831826;-0,3405401816930914;1,363950762791412;0,7288004086758031;-2,104361671646415
899;2026-05-10 20:04:35.390;1,2391753;-0,37856892;-0,348545;1,4620624;1,7160776;-5,4436646
900;2026-05-10 20:04:35.400;1,4095778792127114;-0,41476847775981973;-0,4210258014892437;1,5137003926834889;1,524622433771664;-5,459634263723792
901;2026-05-10 20:04:35.410;1,5799804584254227;-0,45096803551963954;-0,4935066029784874;1,5653383853669776;1,3331672675433281;-5,475603927447584
902;2026-05-10 20:04:35.420;1,7503874;-0,48716852;-0,56598926;1,6169777;1,1417072;-5,491574
903;2026-05-10 20:04:35.430;1,7037283703627535;-0,5038935654371218;-0,5618203788520058;1,512814688974033;0,8838769230862638;-5,73751253063053
904;2026-05-10 20:04:35.440;1,6570705351813766;-0,520618182718561;-0,5576516044260029;1,4086543444870165;0,6260532465431319;-5,983444765315266
905;2026-05-10 20:04:35.450;1,6104127;-0,5373428;-0,55348283;1,304494;0,36822957;-6,229377
906;2026-05-10 20:04:35.460;1,4899919;-0,75927573;0,06952996;1,304494;0,36822957;-6,229377
907;2026-05-10 20:04:35.470;1,3844895327826465;-0,5912233519427923;-0,026567103368889042;1,2173773132275765;0,3586533632348298;-6,127162922235402
908;2026-05-10 20:04:35.480;1,2789898663913233;-0,42317527597139615;-0,12266170668444452;1,1302628566137882;0,3490774016174149;-6,024951461117701
909;2026-05-10 20:04:35.490;1,1734902;-0,2551272;-0,21875631;1,0431484;0,33950144;-5,92274
910;2026-05-10 20:04:35.500;0,8885310493195584;-0,33890544734784;-0,257062077807552;1,0431484;0,33950144;-5,92274
911;2026-05-10 20:04:35.510;0,6035718986391168;-0,42268369469568;-0,295367845615104;1,0431484;0,33950144;-5,92274
912;2026-05-10 20:04:35.520;0,31862004281955836;-0,5064597973478401;-0,333672632807552;1,0431484;0,33950144;-5,92274
913;2026-05-10 20:04:35.530;0,033668187;-0,5902359;-0,37197742;1,0431484;0,33950144;-5,92274
914;2026-05-10 20:04:35.540;0,30573953557494893;-0,5775988705984753;-0,34132058607803883;0,48473506192060944;0,5300724034216873;-4,284232541898389
915;2026-05-10 20:04:35.550;0,5778108841498978;-0,5649618411969506;-0,31066375215607767;-0,07367827615878109;0,7206433668433745;-2,645725083796778
916;2026-05-10 20:04:35.560;0,8498752677874744;-0,5523251352992377;-0,28000770303901945;-0,6320773190396953;0,9112094517108437;-1,007259570949195
917;2026-05-10 20:04:35.570;1,121939651425051;-0,5396884294015247;-0,24935165392196118;-1,1904763619206096;1,1017755365783128;0,631205941898388
918;2026-05-10 20:04:35.580;1,394011;-0,5270514;-0,21869482;-1,7488897;1,2923465;2,2697134
919;2026-05-10 20:04:35.590;1,414277301072;-0,278371844442432;-0,21155996620004033;-1,2143452329184001;0,7571373385770881;3,23838211546752
920;2026-05-10 20:04:35.600;1,4345430833333332;-0,029698655000000032;-0,20442529505;-0,6798144500000001;0,22194187833333337;4,207026033333333
921;2026-05-10 20:04:35.610;1,4548088655946665;0,21897453444243192;-0,19729062389995972;-0,14528366708160004;-0,3132535819104213;5,175669951199147
922;2026-05-10 20:04:35.620;1,4750751666666666;0,46765408999999997;-0,19015577010000004;0,38926079999999996;-0,8484627433333333;6,144338666666667
923;2026-05-10 20:04:35.630;1,6576222;-0,2877591;-0,82176226;-0,7481354;-0,13585643;5,948082
924;2026-05-10 20:04:35.640;1,797340849262718;-0,18361196248033915;-0,6581690368760476;-0,9521204111667486;-0,094234244216638;5,95574746150467
925;2026-05-10 20:04:35.650;1,9370594985254364;-0,0794648249606783;-0,4945758137520951;-1,1561054223334972;-0,05261205843327598;5,963412923009339
926;2026-05-10 20:04:35.660;2,0767817246313593;0,024684978759830414;-0,33097840258802375;-1,3600956555833743;-0,010988807108318985;5,971078580752335
927;2026-05-10 20:04:35.670;2,216503950737282;0,12883478248033914;-0,16738099142395244;-1,5640858888332514;0,03063444421663801;5,978744238495331
928;2026-05-10 20:04:35.680;2,3562226;0,23298192;-0,0037877683;-1,7680709;0,07225663;5,9864097
929;2026-05-10 20:04:35.690;2,0938066871733434;0,2635022374679487;-0,0756656066015145;-1,526715271513271;-0,17984661442973296;5,492629656372369
930;2026-05-10 20:04:35.700;1,8313840564133286;0,2940233362660256;-0,14754528499924274;-1,2853534642433644;-0,4319563127851336;4,998836971813816
931;2026-05-10 20:04:35.710;1,5689614256533138;0,3245444350641026;-0,21942496339697098;-1,0439916569734577;-0,6840660111405342;4,505044287255264
932;2026-05-10 20:04:35.720;1,306545512826657;0,3550647525320513;-0,2913028016984855;-0,802636028486729;-0,9361692555702672;4,011264243627632
933;2026-05-10 20:04:35.730;1,0441296;0,38558507;-0,36318064;-0,5612804;-1,1882725;3,5174842
934;2026-05-10 20:04:35.740;0,99428075;0,7139982316666668;-0,3820171253333333;-0,46199735999999997;-1,6045509500000001;3,6769201
935;2026-05-10 20:04:35.750;0,9444319;1,0424113933333334;-0,40085361066666664;-0,36271432;-2,0208294;3,836356
936;2026-05-10 20:04:35.760;0,9622873104071102;1,1344023507581877;-0,2908886165787344;-0,44846611123911123;-2,058429698827286;3,8176764173651985
937;2026-05-10 20:04:35.770;0,9801427208142206;1,2263933081830418;-0,18092362249080218;-0,5342179024782225;-2,096029997654572;3,7989968347303966
938;2026-05-10 20:04:35.780;0,9979985883256882;1,31838662060655;-0,0709558132629875;-0,619971888991289;-2,1336312590618287;3,780316773892159
939;2026-05-10 20:04:35.790;1,0158544558371558;1,4103799330300584;0,03901199596482717;-0,7057258755043555;-2,171232520469086;3,7616367130539206
940;2026-05-10 20:04:35.800;1,033709866244266;1,5023708904549125;0,1489769900527594;-0,7914776667434668;-2,2088328192963718;3,742957130419119
941;2026-05-10 20:04:35.810;1,0515652766513766;1,5943618478797668;0,25894198414069164;-0,877229457982578;-2,2464331181236576;3,7242775477843173
942;2026-05-10 20:04:35.820;1,069421144162844;1,686355160303275;0,3689097933685063;-0,9629834444956444;-2,2840343795309144;3,7055974869460795
943;2026-05-10 20:04:35.830;1,0872770116743118;1,7783484727267833;0,478877602596321;-1,048737431008711;-2,3216356409381715;3,6869174261078412
944;2026-05-10 20:04:35.840;1,105132422081422;1,8703394301516374;0,5888425966842532;-1,1344892222478222;-2,3592359397654574;3,66823784347304
945;2026-05-10 20:04:35.850;1,1229878324885323;1,9623303875764917;0,6988075907721855;-1,2202410134869335;-2,3968362385927433;3,6495582608382384
946;2026-05-10 20:04:35.860;1,1408437;2,0543237;0,8087754;-1,305995;-2,4344375;3,6308782
947;2026-05-10 20:04:35.870;1,1665213;1,1186881;-0,45219803;-1,305995;-2,4344375;3,6308782
948;2026-05-10 20:04:35.880;1,5742467;1,5922749;0,006603735000000081;-1,3200972499999999;-2,25504385;3,2380221
949;2026-05-10 20:04:35.890;1,9819721;2,0658617;0,4654055;-1,3341995;-2,0756502;2,845166
950;2026-05-10 20:04:35.900;1,980937;1,07144985;0,08944600500000002;-1,3341995;-2,0756502;2,845166
951;2026-05-10 20:04:35.910;1,647266229255042;1,2392886786476067;0,22198802121287373;-1,3029019395170829;-1,7210131325629119;2,231285513944284
952;2026-05-10 20:04:35.920;1,313604000372479;1,4071232106761968;0,3545266443935632;-1,2716051802414585;-1,3663851437185441;1,6174207430278578
953;2026-05-10 20:04:35.930;0,9799417714899161;1,5749577427047867;0,48706526757425267;-1,2403084209658344;-1,0117571548741764;1,0035559721114313
954;2026-05-10 20:04:35.940;0,6462710007449581;1,7427965713523934;0,6196072837871264;-1,209010860482917;-0,6571200874370883;0,38967548605571556
955;2026-05-10 20:04:35.950;0,31260023;1,9106354;0,7521493;-1,1777133;-0,30248302;-0,224205
956;2026-05-10 20:04:35.960;0,341782165;1,9143889;0,780378915;-1,0688571;0,31819969;-0,349572
957;2026-05-10 20:04:35.970;0,3709641;1,9181424;0,80860853;-0,9600009;0,9388824;-0,474939
958;2026-05-10 20:04:35.980;1,067949380864935;2,05934413823941;0,811340676647353;-0,9600009;0,9388824;-0,474939
959;2026-05-10 20:04:35.990;1,7649346617298698;2,20054587647882;0,8140728232947059;-0,9600009;0,9388824;-0,474939
960;2026-05-10 20:04:36.000;2,4619021;2,341744;0,8168049;-0,9600009;0,9388824;-0,474939
961;2026-05-10 20:04:36.010;2,49643420798336;2,2679694443264;0,47591206848409595;-0,9600009;0,9388824;-0,474939
962;2026-05-10 20:04:36.020;2,5309672;2,194193;0,13501051;-0,9600009;0,9388824;-0,474939
963;2026-05-10 20:04:36.030;2,33592010342912;2,04350267118848;-0,08858148694092799;0,6904907760230399;1,27478404948608;-1,95934305012864
964;2026-05-10 20:04:36.040;2,140878;1,8928162;-0,31216776;2,3409402;1,6106771;-3,4437091
965;2026-05-10 20:04:36.050;1,2815007;0,88519174;-0,3883146;2,3409402;1,6106771;-3,4437091
966;2026-05-10 20:04:36.060;1,295250207992671;0,9402755100541987;-0,4475805787955588;2,1625306997608233;1,7221624517093455;-3,5125331693744104
967;2026-05-10 20:04:36.070;1,3089997159853421;0,9953592801083976;-0,5068465575911176;1,9841211995216466;1,833647803418691;-3,5813572387488204
968;2026-05-10 20:04:36.080;1,3227488719951142;1,0504416400361325;-0,5661110191970392;1,8057162665072155;1,9451303011395635;-3,650179546249607
969;2026-05-10 20:04:36.090;1,336498028004886;1,1055239999638675;-0,6253754808029609;1,6273113334927845;2,0566127988604364;-3,719001853750393
970;2026-05-10 20:04:36.100;1,350247535997557;1,1606077700180664;-0,6846414595985196;1,4489018332536077;2,1680981505697816;-3,7878259231248035
971;2026-05-10 20:04:36.110;1,3639970439902283;1,215691540072265;-0,7439074383940785;1,270492333014431;2,2795835022791273;-3,856649992499214
972;2026-05-10 20:04:36.120;1,3777462;1,2707739;-0,8031719;1,0920874;2,391066;-3,9254723
973;2026-05-10 20:04:36.130;1,2003482;1,0207172;-0,6888418000000001;1,0920874;2,391066;-3,9254723
974;2026-05-10 20:04:36.140;1,4042968500000002;0,65405902;-0,40723294000000004;1,0920874;2,391066;-3,9254723
975;2026-05-10 20:04:36.150;1,6082455;0,28740084;-0,12562408;1,0920874;2,391066;-3,9254723
976;2026-05-10 20:04:36.160;1,2653479894295443;-0,05796699282343601;-0,15562382399890773;1,4955982899963307;1,6229299365116436;-4,213455009182759
977;2026-05-10 20:04:36.170;0,9224504788590885;-0,403334825646872;-0,18562356799781546;1,8991091799926612;0,8547938730232875;-4,501437718365518
978;2026-05-10 20:04:36.180;0,57954419;-0,7487115;-0,21562408;2,3026304;0,086638145;-4,7894278
979;2026-05-10 20:04:36.190;0,16726618790912004;-0,68954759271168;-0,406944718872832;1,350811606875392;-0,412680768700288;-3,1916369485388802
980;2026-05-10 20:04:36.200;-0,24500126;-0,6303852;-0,59826046;0,39901718;-0,9119869;-1,593887
981;2026-05-10 20:04:36.210;-0,18319546889940197;-0,5964264557419923;-0,5374625205788687;0,0485411929200459;-0,7151367197716474;-1,2080649828680265
982;2026-05-10 20:04:36.220;-0,121388095550299;-0,5624668421290039;-0,47666302471056565;-0,3019437664600229;-0,5182815001141763;-0,8222330885659868
983;2026-05-10 20:04:36.230;-0,05958072220119602;-0,5285072285160154;-0,41586352884226263;-0,6524287258400917;-0,3214262804567052;-0,43640119426394686
984;2026-05-10 20:04:36.240;0,0022250688994019966;-0,49454848425800774;-0,3550655894211313;-1,002904712920046;-0,12457610022835255;-0,05057917713197339
985;2026-05-10 20:04:36.250;0,06403086;-0,46058974;-0,29426765;-1,3533807;0,07227408;0,33524284
986;2026-05-10 20:04:36.260;-0,37410363804979196;-0,544429603136512;-0,298933107217088;-1,46264404855296;0,262312317458304;0,44929283982131196
987;2026-05-10 20:04:36.270;-0,812238136099584;-0,628269466273024;-0,303598564434176;-1,5719073971059199;0,45235055491660797;0,563342839642624
988;2026-05-10 20:04:36.280;-1,250361418049792;-0,712107183136512;-0,308263902217088;-1,68116794855296;0,642383927458304;0,6773899198213119
