id;timestamp;acc_x;acc_y;acc_z;gyro_x;gyro_y;gyro_z
0;2026-05-10 20:20:13.380;-0,13878461333333333;0,5689953733333334;0,7689658433333334;0,031503193;-0,23148300999999996;-0,060772363
1;2026-05-10 20:20:13.390;-0,14991351869816533;0,5835432374602774;0,7607184206843414;0,043410854666118395;-0,1644156956743648;-0,0481316545135024
2;2026-05-10 20:20:13.400;-0,16104213916666665;0,5980907291666667;0,7524712091666667;0,0553182115;-0,09735009824999999;-0,035491269625
3;2026-05-10 20:20:13.410;-0,172170759635168;0,612638220873056;0,744223997648992;0,0672255683338816;-0,030284500825635205;-0,022850884736497597
4;2026-05-10 20:20:13.420;-0,183299665;0,627186085;0,735976575;0,07913323;0,0367828135;-0,010210176250000001
5;2026-05-10 20:20:13.430;-0,14870006134098918;0,5241064370631929;0,7810540693127225;0,08773494180066901;-0,005981392999782406;-0,04676381334075452
6;2026-05-10 20:20:13.440;-0,11410134342049459;0,4210294279315965;0,8261304096563612;0,09633643340033451;-0,04874450474989121;-0,08331651467037726
7;2026-05-10 20:20:13.450;-0,0795026255;0,3179524188;0,87120675;0,104937925;-0,0915076165;-0,119869216
8;2026-05-10 20:20:13.460;-0,09164206070622538;0,382281393760272;0,8406878594905614;0,08055717034426792;-0,08118214246849928;-0,1622427506994414
9;2026-05-10 20:20:13.470;-0,10378149591245078;0,44661036872054394;0,8101689689811227;0,05617641568853584;-0,07085666843699856;-0,20461628539888282
10;2026-05-10 20:20:13.480;-0,1159206203531127;0,510937696880136;0,7796508597452807;0,03179628517213397;-0,060531458734249644;-0,2469887353497207
11;2026-05-10 20:20:13.490;-0,1280597447937746;0,575265025039728;0,7491327505094387;0,007416154655732091;-0,05020624903150072;-0,2893611853005586
12;2026-05-10 20:20:13.500;-0,14019918;0,639594;0,71861386;-0,0169646;-0,039880775;-0,33173472
13;2026-05-10 20:20:13.510;-0,15107320585241601;0,63710198476928;0,713895197935232;-0,01350589496247552;-0,0318085235098368;-0,2764623458159995
14;2026-05-10 20:20:13.520;-0,16194695333333334;0,6346100333333333;0,7091766566666667;-0,010047278466666667;-0,023736478666666668;-0,22119138658666665
15;2026-05-10 20:20:13.530;-0,17282070081425066;0,6321180818973866;0,7044581153981013;-0,006588661970857814;-0,015664433823496533;-0,16592042735733384
16;2026-05-10 20:20:13.540;-0,18369472666666667;0,6296260666666667;0,6997394533333333;-0,003129956933333335;-0,007592182333333333;-0,11064805317333332
17;2026-05-10 20:20:13.550;-0,19456875251908268;0,6271340514359467;0,6950207912685653;0,00032874810419114493;0,00048006915682986633;-0,05537567898933281
18;2026-05-10 20:20:13.560;-0,2054425;0,6246421;0,69030225;0,0037873646;0,008552114;-0,00010471976
19;2026-05-10 20:20:13.570;-0,1571214942667904;0,4679044334428122;0,762437074162432;-0,00259173189651968;0,028780219076940797;-0,026716286687583236
20;2026-05-10 20:20:13.580;-0,1087992515;0,31116275435;0,8345737449999999;-0,0089709917;0,049008842;-0,05332853488000001
21;2026-05-10 20:20:13.590;-0,0604770087332096;0,15442107525718787;0,906710415837568;-0,01535025150348032;0,0692374649230592;-0,07994078307241678
22;2026-05-10 20:20:13.600;-0,012156003;-0,0023165913;0,97884524;-0,021729348;0,08946557;-0,10655235
23;2026-05-10 20:20:13.610;-0,22386298;0,61928844;0,7273834;-0,021729348;0,08946557;-0,10655235
24;2026-05-10 20:20:13.620;-0,192459155;0,62594044;0,7012551;-0,021729348;0,08946557;-0,10655235
25;2026-05-10 20:20:13.630;-0,16105533;0,63259244;0,6751268;-0,021729348;0,08946557;-0,10655235
26;2026-05-10 20:20:13.640;0,39037152109730594;0,9326150097746336;0,8062761808442916;0,027418705264577136;0,4942126927803425;-0,8870278538571172
27;2026-05-10 20:20:13.650;0,9417983721946119;1,2326375795492672;0,9374255616885833;0,07656675852915427;0,898959815560685;-1,6675033577142346
28;2026-05-10 20:20:13.660;1,49323934;1,5326678299999998;1,0685783;0,12571607;1,3037173;-2,447998842
29;2026-05-10 20:20:13.670;0,6918117218577919;1,0620452211077118;0,82270700288768;0,08992327185804802;0,3911733145864959;-1,1871699255964414
30;2026-05-10 20:20:13.680;-0,10959537999999999;0,59143466;0,576842;0,054131390000000015;-0,52134731;0,073626714
31;2026-05-10 20:20:13.690;-0,092325131062016;0,583368683245824;0,53518293324288;-0,070566428847488;-0,661216214655104;0,05752189514432
32;2026-05-10 20:20:13.700;-0,07505444;0,5753025;0,4935228;-0,19526744;-0,8010887;0,041416664
33;2026-05-10 20:20:13.710;-0,05237859;0,5695398;0,44991854;-0,19526744;-0,8010887;0,041416664
34;2026-05-10 20:20:13.720;-0,08594525;0,51416713;0,5288242;0,029880038;0,118752204;0,005742133
35;2026-05-10 20:20:13.730;-0,012840339;-0,0015072976;0,9799113;0,029880038;0,118752204;0,005742133
36;2026-05-10 20:20:13.740;0,007307010047456237;0,00997557340371282;0,9672910426575961;0,0013840460590663392;0,04974894927219237;0,028547583376453946
37;2026-05-10 20:20:13.750;0,027454359094912475;0,02145844440742564;0,9546707853151922;-0,027111945881867324;-0,01925430545561525;0,05135303375290789
38;2026-05-10 20:20:13.760;0,04760119237683489;0,03294102145340342;0,9420508510472408;-0,055607208334744744;-0,08825579372271254;0,074157900317305
39;2026-05-10 20:20:13.770;0,06774802565875732;0,044423598499381205;0,9294309167792896;-0,08410247078762216;-0,15725728198980984;0,09696276688170209
40;2026-05-10 20:20:13.780;0,08789537470621354;0,055906469503094025;0,9168106594368857;-0,11259846272855582;-0,22626053671761745;0,11976821725815605
41;2026-05-10 20:20:13.790;0,10804272375366979;0,06738934050680685;0,9041904020944818;-0,1410944546694895;-0,2952637914454251;0,14257366763461
42;2026-05-10 20:20:13.800;0,1281895570355922;0,07887191755278464;0,8915704678265304;-0,16958971712236692;-0,36426527971252237;0,16537853419900708
43;2026-05-10 20:20:13.810;0,14833639031751464;0,09035449459876241;0,8789505335585791;-0,19808497957524432;-0,43326676797961966;0,1881834007634042
44;2026-05-10 20:20:13.820;0,16848373936497085;0,10183736560247524;0,8663302762161752;-0,22658097151617798;-0,5022700227074273;0,21098885113985813
45;2026-05-10 20:20:13.830;0,1886310884124271;0,11332023660618805;0,8537100188737713;-0,25507696345711167;-0,5712732774352349;0,2337943015163121
46;2026-05-10 20:20:13.840;0,20877792169434953;0,12480281365216583;0,8410900846058199;-0,2835722259099891;-0,6402747657023322;0,2565991680807092
47;2026-05-10 20:20:13.850;0,22892475497627193;0,13628539069814363;0,8284701503378686;-0,3120674883628665;-0,7092762539694295;0,27940403464510627
48;2026-05-10 20:20:13.860;0,24907210402372817;0,14776826170185645;0,8158498929954647;-0,3405634803038002;-0,7782795086972372;0,30220948502156025
49;2026-05-10 20:20:13.870;0,2692194530711844;0,15925113270556926;0,8032296356530608;-0,36905947224473384;-0,8472827634250447;0,3250149353980142
50;2026-05-10 20:20:13.880;0,28936628635310685;0,17073370975154706;0,7906097013851096;-0,39755473469761127;-0,916284251692142;0,3478198019624113
51;2026-05-10 20:20:13.890;0,30951311963502925;0,18221628679752483;0,7779897671171582;-0,4260499971504887;-0,9852857399592393;0,37062466852680837
52;2026-05-10 20:20:13.900;0,3296604686824855;0,19369915780123764;0,7653695097747543;-0,45454598909142235;-1,054288994687047;0,39343011890326235
53;2026-05-10 20:20:13.910;0,34980781772994174;0,20518202880495046;0,7527492524323504;-0,483041981032356;-1,1232922494148545;0,4162355692797163
54;2026-05-10 20:20:13.920;0,36995465101186414;0,21666460585092825;0,7401293181643991;-0,5115372434852334;-1,1922937376819518;0,4390404358441134
55;2026-05-10 20:20:13.930;0,39010148429378655;0,22814718289690603;0,7275093838964477;-0,5400325059381108;-1,261295225949049;0,46184530240851046
56;2026-05-10 20:20:13.940;0,4102488333412428;0,23963005390061887;0,7148891265540438;-0,5685284978790445;-1,3302984806768567;0,48465075278496444
57;2026-05-10 20:20:13.950;0,43039618238869903;0,2511129249043317;0,7022688692116399;-0,5970244898199781;-1,3993017354046644;0,5074562031614184
58;2026-05-10 20:20:13.960;0,45054301567062144;0,26259550195030945;0,6896489349436886;-0,6255197522728556;-1,4683032236717617;0,5302610697258154
59;2026-05-10 20:20:13.970;0,4706898489525439;0,2740780789962872;0,6770290006757372;-0,654015014725733;-1,537304711938859;0,5530659362902126
60;2026-05-10 20:20:13.980;0,4908371980000001;0,28556095000000004;0,6644087433333333;-0,6825110066666666;-1,6063079666666666;0,5758713866666666
61;2026-05-10 20:20:13.990;-4,130085;-1,2011716;-1,1256789;-1,7991726;-2,93519;-1,4070321
62;2026-05-10 20:20:14.000;-0,18315324;0,62401044;0,73081774;-1,7991726;-2,93519;-1,4070321
63;2026-05-10 20:20:14.010;1,2862402;0,29168454;0,71263444;0,0021991148;0,0010995574;0,00041887903
64;2026-05-10 20:20:14.020;-0,0123649165;-0,0014760582;0,97934306;-2,4688206;-2,2410202;-2,6462858
65;2026-05-10 20:20:14.030;0,5688287309334656;0,12220007893429248;0,931481917385216;-2,4688206;-2,2410202;-2,6462858
66;2026-05-10 20:20:14.040;1,1500075;0,24587305;0,883622;-2,4688206;-2,2410202;-2,6462858
67;2026-05-10 20:20:14.050;1,0639310001266347;0,14694244716125868;0,891189455635328;-1,8514749991323383;-1,680894492750825;-1,9844872016804889
68;2026-05-10 20:20:14.060;0,9778522966666667;0,04800931166666668;0,898757105;-1,2341135940149999;-1,1207544460999999;-1,3226716611
69;2026-05-10 20:20:14.070;0,8917735932066987;-0,050923823827925326;0,9063247543646719;-0,6167521888976615;-0,5606143994491748;-0,6608561205195111
70;2026-05-10 20:20:14.080;0,8056970933333334;-0,14985442666666668;0,9138922099999999;0,00059341197;-0,0004886922;0,0009424778
71;2026-05-10 20:20:14.090;0,7491395750000001;-0,09127838413;1,8470062500000002;0,00059341197;-0,0004886922;0,0009424778
72;2026-05-10 20:20:14.100;0,7161860383143968;-0,02793158497258519;1,8129609236217719;0,00059341197;-0,0004886922;0,0009424778
73;2026-05-10 20:20:14.110;0,6832325016287933;0,035415214184829624;1,7789155972435435;0,00059341197;-0,0004886922;0,0009424778
74;2026-05-10 20:20:14.120;0,6502798085429311;0,09876039168494322;1,7448711424145145;0,00059341197;-0,0004886922;0,0009424778
75;2026-05-10 20:20:14.130;0,6173271154570689;0,1621055691850568;1,7108266875854856;0,00059341197;-0,0004886922;0,0009424778
76;2026-05-10 20:20:14.140;0,5843735787714656;0,22545236834247162;1,6767813612072573;0,00059341197;-0,0004886922;0,0009424778
77;2026-05-10 20:20:14.150;0,5514200420858621;0,28879916749988643;1,6427360348290287;0,00059341197;-0,0004886922;0,0009424778
78;2026-05-10 20:20:14.160;0,5184673489999999;0,352144345;1,60869158;0,00059341197;-0,0004886922;0,0009424778
79;2026-05-10 20:20:14.170;1,0105542;0,30423594;2,0461223;0,00059341197;-0,0004886922;0,0009424778
80;2026-05-10 20:20:14.180;-0,01331674;-0,0023927374;0,98099107;0,00059341197;-0,0004886922;0,0009424778
81;2026-05-10 20:20:14.190;1,043703;0,33639094;1,9530096;0,00059341197;-0,0004886922;0,0009424778
82;2026-05-10 20:20:14.200;1,016322560474112;0,344186762712192;1,9364900614528;0,21033567424217833;-0,377632066653015;-0,631312373684311
83;2026-05-10 20:20:14.210;0,988942120948224;0,35198258542438404;1,9199705229055999;0,42007793651435665;-0,7547754411060301;-1,263567225168622
84;2026-05-10 20:20:14.220;0,961560980474112;0,359778607712192;1,9034505614528;0,6298255682571784;-1,131928470553015;-1,895838262584311
85;2026-05-10 20:20:14.230;0,93417984;0,36757463;1,8869306;0,8395732;-1,5090815;-2,5281093
86;2026-05-10 20:20:14.240;0,800252;0,3250618;1,5595189;0,8395732;-1,5090815;-2,5281093
87;2026-05-10 20:20:14.250;0,9961577;0,19827504;1,4863867;0,8395732;-1,5090815;-2,5281093
88;2026-05-10 20:20:14.260;1,019712792273929;0,15211475741449612;1,4527983546133474;1,0420512106230566;-1,3962271958939976;-2,6335109537489996
89;2026-05-10 20:20:14.270;1,043267884547858;0,10595447482899222;1,4192100092266946;1,2445292212461134;-1,283372891787995;-2,7389126074979986
90;2026-05-10 20:20:14.280;1,0668223738191431;0,05979537393159689;1,3856225236906778;1,4470020484984454;-1,170521476715198;-2,8443115629991995
91;2026-05-10 20:20:14.290;1,0903768630904285;0,013636273034201571;1,352035038154661;1,6494748757507771;-1,0576700616424008;-2,9497105185004004
92;2026-05-10 20:20:14.300;1,1139319553643574;-0,03252400955130233;1,3184466927680083;1,851952886373834;-0,9448157575363985;-3,0551121722494
93;2026-05-10 20:20:14.310;1,1374870476382863;-0,07868429213680624;1,2848583473813557;2,0544308969968905;-0,831961453430396;-3,160513825998399
94;2026-05-10 20:20:14.320;1,1610415369095717;-0,12484339303420156;1,2512708618453388;2,2569037242492223;-0,7191100383575989;-3,2659127814996
95;2026-05-10 20:20:14.330;1,1845960261808568;-0,17100249393159686;1,217683376309322;2,4593765515015544;-0,606258623284802;-3,371311737000801
96;2026-05-10 20:20:14.340;1,2081511184547857;-0,21716277651710078;1,1840950309226694;2,6618545621246112;-0,49340431917879946;-3,4767133907498
97;2026-05-10 20:20:14.350;1,231706210728715;-0,2633230591026047;1,1505066855360166;2,8643325727476676;-0,38055001507279695;-3,5821150444987993
98;2026-05-10 20:20:14.360;1,2552607;-0,30948216;1,1169192;3,0668054;-0,2676986;-3,687514
99;2026-05-10 20:20:14.370;1,2485072306678333;-0,377857399766249;1,084594887734356;3,0720793809005604;-0,1296846544739439;-3,772878480713448
100;2026-05-10 20:20:14.380;1,241753588444639;-0,4462343899610415;1,052269747955726;3,0773534968167597;0,008332824254342692;-3,858245146785575
101;2026-05-10 20:20:14.390;1,2349999462214445;-0,514611380155834;1,019944608177096;3,0826276127329595;0,14635030298262927;-3,9436118128577013
102;2026-05-10 20:20:14.400;1,2282464768892778;-0,582986619922083;0,987620295911452;3,08790159363352;0,2843642485086854;-4,02897629357115
103;2026-05-10 20:20:14.410;1,2214930075571113;-0,651361859688332;0,9552959836458081;3,0931755745340803;0,4223781940347415;-4,114340774284598
104;2026-05-10 20:20:14.420;1,2147393653339167;-0,7197388498831245;0,9229708438671781;3,09844969045028;0,560395672763028;-4,199707440356724
105;2026-05-10 20:20:14.430;1,2079857231107223;-0,788115840077917;0,890645704088548;3,10372380636648;0,6984131514913147;-4,2850741064288504
106;2026-05-10 20:20:14.440;1,2012322537785556;-0,856491079844166;0,8583213918229041;3,1089977872670405;0,8364270970173708;-4,370438587142298
107;2026-05-10 20:20:14.450;1,194478784446389;-0,924866319610415;0,8259970795572602;3,1142717681676007;0,9744410425434269;-4,455803067855746
108;2026-05-10 20:20:14.460;1,1877251422231945;-0,9932433098052075;0,7936719397786302;3,1195458840838004;1,1124585212717135;-4,541169733927873
109;2026-05-10 20:20:14.470;1,1809715;-1,0616203;0,7613468000000001;3,12482;1,250476;-4,6265364
110;2026-05-10 20:20:14.480;-0,40188330000000005;-1,0537721500000001;-0,4178999499999998;1,615947975;0,6239377296999999;-2,40646878
111;2026-05-10 20:20:14.490;-1,9847381;-1,045924;-1,5971467;0,10707595;-0,0026005406;-0,18640116
112;2026-05-10 20:20:14.500;-1,7647337681055968;-1,0517620435697512;-1,3924911091919678;-0,1158359969864;-0,17328065770253503;0,8149790275023361
113;2026-05-10 20:20:14.510;-1,5447294362111936;-1,0576000871395026;-1,187835518383936;-0,3387479439728;-0,34396077480507004;1,8163592150046721
114;2026-05-10 20:20:14.520;-1,3247307363555967;-1,0634379812572514;-0,983185166691968;-0,5616541844864;-0,514636522552535;2,8177137675023363
115;2026-05-10 20:20:14.530;-1,1047320365;-1,069275875375;-0,778534815;-0,784560425;-0,6853122703;3,81906832
116;2026-05-10 20:20:14.540;-0,8847277046055967;-1,0751139189447514;-0,573879224191968;-1,0074723719864;-0,8559923874025349;4,820448507502336
117;2026-05-10 20:20:14.550;-0,6647233727111935;-1,0809519625145025;-0,36922363338393605;-1,2303843189727999;-1,02667250450507;5,8218286950046725
118;2026-05-10 20:20:14.560;-0,4447246728555967;-1,0867898566322514;-0,1645732816919681;-1,4532905594864;-1,197348252252535;6,823183247502336
119;2026-05-10 20:20:14.570;-0,224725973;-1,0926277507500002;0,04007706999999999;-1,6761968;-1,368024;7,8245378
120;2026-05-10 20:20:14.580;-0,1718297891875136;-0,8198809989487633;0,27471333080569604;-1,97842184343104;-1,39556562752832;8,22871327337984
121;2026-05-10 20:20:14.590;-0,1189336053750272;-0,5471342471475266;0,509349591611392;-2,28064688686208;-1,42310725505664;8,63288874675968
122;2026-05-10 20:20:14.600;-0,0660387756875136;-0,2743944775737633;0,7439798458056961;-2,58286419343104;-1,45064817752832;9,03705387337984
123;2026-05-10 20:20:14.610;-0,013143946;-0,001654708;0,9786101;-2,8850815;-1,4781891;9,441219
124;2026-05-10 20:20:14.620;0,2395998763920176;-0,22665934244370659;0,800503354012832;-2,1641858700790473;-1,1091607002469441;7,081119660565129
125;2026-05-10 20:20:14.630;0,49234369878403517;-0,45166397688741317;0,622396608025664;-1,4432902401580943;-0,740132300493888;4,721020321130259
126;2026-05-10 20:20:14.640;0,7450810510170176;-0,6766628512862065;0,444294421512832;-0,7224130649290472;-0,3711133477469441;2,360981399465129
127;2026-05-10 20:20:14.650;0,9978184032499999;-0,901661725685;0,266192235;-0,0015358897;-0,002094395;0,0009424778
128;2026-05-10 20:20:14.660;0,019236593;0,5129127;0,73450106;-0,0015358897;-0,002094395;0,0009424778
129;2026-05-10 20:20:14.670;0,057126965;-0,04421634;0,9955183;-0,0015358897;-0,002094395;0,0009424778
130;2026-05-10 20:20:14.680;1,0747265824999999;-0,453215305;0,65692109;0,0003228858999999999;0,0021642083499999994;0,00041887901999999996
131;2026-05-10 20:20:14.690;2,0923262;-0,86221427;0,31832388;0,0021816615;0,0064228117;-0,00010471976
132;2026-05-10 20:20:14.700;1,8508289897002197;-0,6966180645065605;0,34366069344564876;0,0021816615;0,0064228117;-0,00010471976
133;2026-05-10 20:20:14.710;1,6093317794004391;-0,5310218590131209;0,36899750689129757;0,0021816615;0,0064228117;-0,00010471976
134;2026-05-10 20:20:14.720;1,3678407513501096;-0,36542989272828025;0,3943336717228244;0,0021816615;0,0064228117;-0,00010471976
135;2026-05-10 20:20:14.730;1,1263497232997803;-0,19983792644343953;0,4196698365543512;0,0021816615;0,0064228117;-0,00010471976
136;2026-05-10 20:20:14.740;0,8848525129999999;-0,03424172095;0,44500665;0,0021816615;0,0064228117;-0,00010471976
137;2026-05-10 20:20:14.750;1,2399620024577127;-0,0014654092581071257;0,3832618862361866;0,0014777000425449068;0,0034091584009753647;-0,0002792556520410967
138;2026-05-10 20:20:14.760;1,5950624012288563;0,03131006337094644;0,3215187031180933;0,0007737566062724534;0,0003955822504876827;-0,0004537870760205483
139;2026-05-10 20:20:14.770;1,9501628;0,064085536;0,25977552;6,981317e-05;-0,0026179939;-0,0006283185
140;2026-05-10 20:20:14.780;1,2958371548259635;0,04247489325820903;0,49908512208246575;6,981317e-05;-0,0026179939;-0,0006283185
141;2026-05-10 20:20:14.790;0,6415115096519268;0,020864250516418065;0,7383947241649316;6,981317e-05;-0,0026179939;-0,0006283185
142;2026-05-10 20:20:14.800;-0,012797385;-0,000745839;0,9776982;6,981317e-05;-0,0026179939;-0,0006283185
143;2026-05-10 20:20:14.810;0,08140945477153523;0,039546711038807573;0,9562904247954422;-0,10075662038572564;-0,042079403102663566;0,14679527467569903
144;2026-05-10 20:20:14.820;0,17561870626903872;0,07984029258009936;0,9348821015448242;-0,20158563513118954;-0,0815418225303336;0,29422264194369174
145;2026-05-10 20:20:14.830;0,26982795776654217;0,12013387412139116;0,9134737782942063;-0,30241464987665345;-0,12100424195800363;0,44165000921168446
146;2026-05-10 20:20:14.840;0,36403479753807744;0,16042642416019873;0,8920660030896485;-0,4032410834323791;-0,1604656511606672;0,5890736023873835
147;2026-05-10 20:20:14.850;0,45824163730961265;0,2007189741990063;0,8706582278850907;-0,5040675169881047;-0,19992706036333077;0,7364971955630825
148;2026-05-10 20:20:14.860;0,5524508888071161;0,2410125557402981;0,8492499046344728;-0,6048965317335686;-0,23938947979100078;0,8839245628310752
149;2026-05-10 20:20:14.870;0,6466601403046196;0,2813061372815899;0,8278415813838548;-0,7057255464790325;-0,2788518992186708;1,031351930099068
150;2026-05-10 20:20:14.880;0,7408669800761548;0,3215986873203975;0,806433806179297;-0,8065519800347581;-0,3183133084213344;1,178775523274767
151;2026-05-10 20:20:14.890;0,83507381984769;0,36189123735920503;0,7850260309747393;-0,9073784135904838;-0,35777471762399793;1,326199116450466
152;2026-05-10 20:20:14.900;0,9292830713451936;0,40218481890049684;0,7636177077241213;-1,0082074283359477;-0,39723713705166797;1,4736264837184587
153;2026-05-10 20:20:14.910;1,023492322842697;0,44247840044178866;0,7422093844735034;-1,1090364430814115;-0,436699556479338;1,6210538509864514
154;2026-05-10 20:20:14.920;1,1176991626142323;0,4827709504805962;0,7208016092689455;-1,2098628766371373;-0,47616096568200156;1,7684774441621505
155;2026-05-10 20:20:14.930;1,2119060023857675;0,5230635005194038;0,6993938340643878;-1,310689310192863;-0,5156223748846651;1,9159010373378496
156;2026-05-10 20:20:14.940;1,306115253883271;0,5633570820606956;0,6779855108137698;-1,4115183249383267;-0,5550847943123352;2,063328404605842
157;2026-05-10 20:20:14.950;1,4003245053807745;0,6036506636019874;0,6565771875631519;-1,5123473396837905;-0,5945472137400052;2,210755771873835
158;2026-05-10 20:20:14.960;1,4945313451523097;0,643943213640795;0,6351694123585941;-1,6131737732395164;-0,6340086229426688;2,358179365049534
159;2026-05-10 20:20:14.970;1,5887381849238449;0,6842357636796025;0,6137616371540363;-1,714000206795242;-0,6734700321453323;2,505602958225233
160;2026-05-10 20:20:14.980;1,6829474364213484;0,7245293452208943;0,5923533139034184;-1,8148292215407058;-0,7129324515730023;2,6530303254932255
161;2026-05-10 20:20:14.990;1,7771566879188518;0,7648229267621861;0,5709449906528004;-1,9156582362861698;-0,7523948710006724;2,8004576927612184
162;2026-05-10 20:20:15.000;1,871363527690387;0,8051154768009937;0,5495372154482426;-2,0164846698418954;-0,791856280203336;2,9478812859369175
163;2026-05-10 20:20:15.010;1,9655703674619223;0,8454080268398012;0,5281294402436849;-2,117311103397621;-0,8313176894059995;3,0953048791126165
164;2026-05-10 20:20:15.020;2,0597796189594257;0,885701608381093;0,5067211169930669;-2,218140118143085;-0,8707801088336695;3,242732246380609
165;2026-05-10 20:20:15.030;2,153988870456929;0,9259951899223848;0,48531279374244896;-2,3189691328885487;-0,9102425282613396;3,390159613648602
166;2026-05-10 20:20:15.040;2,2481957102284644;0,9662877399611924;0,4639050185378912;-2,4197955664442743;-0,9497039374640032;3,537583206824301
167;2026-05-10 20:20:15.050;2,34240255;1,00658029;0,4424972433333334;-2,520622;-0,9891653466666668;3,6850068
168;2026-05-10 20:20:15.060;1,5598882490634358;0,8326761760372223;0,5479406519944591;-1,388300870983377;-0,19132782298471987;0,6924901308512814
169;2026-05-10 20:20:15.070;0,7773739481268713;0,6587720620744445;0,6533840606555849;-0,25597974196675416;0,606509700697227;-2,300026538297437
170;2026-05-10 20:20:15.080;-0,0051203207;0,4848724;0,75882477;0,8763124;1,4043268;-5,2924666
171;2026-05-10 20:20:15.090;0,5040792916365339;0,336576338213888;0,67317275385984;1,06581344935552;1,47578838528;-5,20862634816896
172;2026-05-10 20:20:15.100;1,0132919396500002;0,18827647999999997;0,587518545;1,25531935;1,5472518;-5,124783949999999
173;2026-05-10 20:20:15.110;1,5225045876634664;0,039976621786111964;0,50186433614016;1,4448252506444799;1,61871521472;-5,04094155183104
174;2026-05-10 20:20:15.120;2,0317042;-0,10831944;0,41621232;1,6343263;1,6901768;-4,9571013
175;2026-05-10 20:20:15.130;1,8552304374129887;-0,11702670806072295;0,3938234232198405;1,2714552764114073;1,051397215311124;-3,358738695737618
176;2026-05-10 20:20:15.140;1,6787521570398276;-0,12573419903036148;0,3714339532765869;0,9085749632057036;0,41260127765556187;-1,7603351728688086
177;2026-05-10 20:20:15.150;1,5022738766666663;-0,13444169;0,3490444833333333;0,54569465;-0,22619466;-0,16193165
178;2026-05-10 20:20:15.160;0,9847436762586832;-0,008667921066566255;0,5227080636073683;0,54569465;-0,22619466;-0,16193165
179;2026-05-10 20:20:15.170;0,4672134758507;0,1171058478668675;0,6963716438814033;0,54569465;-0,22619466;-0,16193165
180;2026-05-10 20:20:15.180;-0,0503299735;0,24288283665;0,8700396699999999;0,54569465;-0,22619466;-0,16193165
181;2026-05-10 20:20:15.190;0,6959448539273638;-0,16999325522844172;0,5698708205172075;0,36399695414901606;-0,1500737381195619;-0,10816295519268776
182;2026-05-10 20:20:15.200;1,4422005769636819;-0,5828587776142209;0,26970965525860374;0,18230390969950805;-0,07395476490978097;-0,05439563684634388
183;2026-05-10 20:20:15.210;2,1884563;-0,9957243;-0,03045151;0,00061086525;0,0021642083;-0,0006283185
184;2026-05-10 20:20:15.220;2,0934903;-1,0844371499999998;-0,018674283700000002;0,00061086525;0,0021642083;-0,0006283185
185;2026-05-10 20:20:15.230;1,9985243;-1,17315;-0,0068970574;0,00061086525;0,0021642083;-0,0006283185
186;2026-05-10 20:20:15.240;1,7658371;-1,2557828;-0,010503247;0,00061086525;0,0021642083;-0,0006283185
187;2026-05-10 20:20:15.250;-0,013669157250000001;-0,00125396612;0,98023153;0,00034033921;4,363325000000004e-05;-0,00036651912999999996
188;2026-05-10 20:20:15.260;-0,013652236022274038;-0,0007347705829214595;0,9774599963498822;0,6736563050293652;0,8542587113753648;-2,633887251842605
189;2026-05-10 20:20:15.270;-0,013635314794548077;-0,00021557504584291897;0,9746884626997645;1,3469722708487306;1,7084737895007298;-5,26740798455521
190;2026-05-10 20:20:15.280;-0,013618394;0,0003036072;0,971917;2,020271;2,562667;-7,9008613
191;2026-05-10 20:20:15.290;-0,07620592914429568;-0,0464321017077687;0,9212503625412608;1,974092358594176;2,5080908135841278;-7,787916815707904
192;2026-05-10 20:20:15.300;-0,13879506654999998;-0,093169007065;0,8705824280000001;1,9279125350000001;2,45351323;-7,67496944
193;2026-05-10 20:20:15.310;-0,2013842039557043;-0,1399059124222313;0,8199144934587392;1,8817327114058242;2,3989356464158718;-7,562022064292096
194;2026-05-10 20:20:15.320;-0,2639717391;-0,18664162133;0,769247856;1,8355540700000001;2,3443594599999997;-7,44907758
195;2026-05-10 20:20:15.330;-0,32655927424429565;-0,2333773302377687;0,7185812185412608;1,789375428594176;2,2897832735841277;-7,336133095707904
196;2026-05-10 20:20:15.340;-0,38914841164999997;-0,280114235595;0,667913284;1,7431956050000001;2,23520569;-7,22318572
197;2026-05-10 20:20:15.350;-0,4517375490557043;-0,3268511409522313;0,6172453494587392;1,6970157814058242;2,1806281064158717;-7,110238344292096
198;2026-05-10 20:20:15.360;-0,5143250842;-0,37358684986;0,566578712;1,6508371400000001;2,1260519199999997;-6,99729386
199;2026-05-10 20:20:15.370;-0,5769126193442957;-0,4203225587677687;0,5159120745412608;1,604658498594176;2,0714757335841276;-6,884349375707903
200;2026-05-10 20:20:15.380;-0,63950175675;-0,467059464125;0,46524414;1,5584786750000001;2,01689815;-6,771401999999999
201;2026-05-10 20:20:15.390;-0,7020908941557044;-0,5137963694822313;0,4145762054587392;1,512298851405824;1,9623205664158718;-6,658454624292095
202;2026-05-10 20:20:15.400;-0,7646784293;-0,56053207839;0,363909568;1,4661202100000001;1,9077443799999998;-6,545510139999999
203;2026-05-10 20:20:15.410;-0,8272659644442957;-0,6072677872977686;0,3132429305412608;1,419941568594176;1,8531681935841278;-6,432565655707903
204;2026-05-10 20:20:15.420;-0,8898551018499999;-0,6540046926549999;0,262574996;1,3737617450000001;1,7985906099999998;-6,319618279999999
205;2026-05-10 20:20:15.430;-0,9524442392557043;-0,7007415980122312;0,2119070614587392;1,327581921405824;1,7440130264158717;-6,206670904292095
206;2026-05-10 20:20:15.440;-1,0150317744;-0,74747730692;0,161240424;1,28140328;1,6894368399999997;-6,093726419999999
207;2026-05-10 20:20:15.450;-1,0776193095442956;-0,7942130158277687;0,11057378654126078;1,235224638594176;1,634860653584128;-5,9807819357079035
208;2026-05-10 20:20:15.460;-1,14020844695;-0,840949921185;0,059905851999999975;1,189044815;1,58028307;-5,8678345599999995
209;2026-05-10 20:20:15.470;-1,2027975843557044;-0,8876868265422313;0,009237917458739172;1,142864991405824;1,525705486415872;-5,7548871842920954
210;2026-05-10 20:20:15.480;-1,2653851195;-0,93442253545;-0,04142872000000003;1,09668635;1,4711292999999999;-5,6419426999999995
211;2026-05-10 20:20:15.490;-3,2713158;-1,9328465;-1,0748622;0,7416253;1,3399067;-4,871406
212;2026-05-10 20:20:15.500;-0,01143457;-0,0027607756;0,987607;0,7416253;1,3399067;-4,871406
213;2026-05-10 20:20:15.510;-0,6140799870100813;-0,38880821355516526;0,5703337671767881;0,6533665842423187;1,2822055291475734;-4,500582562816607
214;2026-05-10 20:20:15.520;-1,2167099764949594;-0,7748457688224173;0,15307121641160604;0,5651101278788406;1,2245058354262133;-4,129768618591696
215;2026-05-10 20:20:15.530;-1,8193399659798377;-1,1608833240896692;-0,264191334353576;0,4768536715153625;1,1668061417048534;-3,758954674366786
216;2026-05-10 20:20:15.540;-2,421985382989919;-1,5469307620448345;-0,6814645671767879;0,38859495575768127;1,1091049708524268;-3,388131237183393
217;2026-05-10 20:20:15.550;-3,0246308;-1,9329782;-1,0987378;0,30033624;1,0514038;-3,0173078
218;2026-05-10 20:20:15.560;-2,659878622910103;-1,7913671957652448;-0,9360801541356139;-0,050090865580507155;0,7778454412734497;-1,9586856904291596
219;2026-05-10 20:20:15.570;-2,295126445820206;-1,6497561915304897;-0,7734225082712276;-0,4005179711610143;0,5042870825468994;-0,9000635808583191
220;2026-05-10 20:20:15.580;-1,9303649309550515;-1,5081415620076224;-0,610760698317807;-0,7509540477902538;0,2307217206367248;0,15858562978542035
221;2026-05-10 20:20:15.590;-1,5656034160898973;-1,366526932484755;-0,44809888836438627;-1,101390124419493;-0,04284364127344974;1,2172348404291597
222;2026-05-10 20:20:15.600;-1,200851239;-1,22491592825;-0,2854412425000001;-1,4518172300000003;-0,3164020000000001;2,27585695
223;2026-05-10 20:20:15.610;-0,8360990619101027;-1,0833049240152448;-0,12278359663561383;-1,8022443355805073;-0,5899603587265505;3,3344790595708407
224;2026-05-10 20:20:15.620;-0,4713375470449485;-0,9416902944923775;0,039878213317806846;-2,152680412209747;-0,8635257206367251;4,39312827021458
225;2026-05-10 20:20:15.630;-0,10657603217979425;-0,8000756649695102;0,20254002327122753;-2,503116488838986;-1,1370910825468996;5,451777480858319
226;2026-05-10 20:20:15.640;0,258176144910103;-0,6584646607347551;0,36519766913561374;-2,8535435944194933;-1,41064944127345;6,51039959042916
227;2026-05-10 20:20:15.650;0,6229283219999999;-0,5168536565;0,527855315;-3,2039707;-1,6842078;7,5690217
228;2026-05-10 20:20:15.660;0,6970060109999999;-0,31017892825000004;0,57173681;-3,2039707;-1,6842078;7,5690217
229;2026-05-10 20:20:15.670;0,7710837;-0,10350420000000005;0,615618305;-3,2039707;-1,6842078;7,5690217
230;2026-05-10 20:20:15.680;1,183416181384454;-0,2929526716856819;0,4880495336007834;-3,2039707;-1,6842078;7,5690217
231;2026-05-10 20:20:15.690;1,595748662768908;-0,48240114337136375;0,3604807622015667;-3,2039707;-1,6842078;7,5690217
232;2026-05-10 20:20:15.700;2,0080917;-0,671854465;0,23290872499999998;-3,2039707;-1,6842078;7,5690217
233;2026-05-10 20:20:15.710;-0,012176503;-0,0019856498;0,9800431;-3,2039707;-1,6842078;7,5690217
234;2026-05-10 20:20:15.720;0,6888450158731344;-0,22416112727832438;0,7247155188232483;-1,6403610429731967;-0,5280068330412077;2,7948248736677277
235;2026-05-10 20:20:15.730;1,3898665347462689;-0,44633660475664877;0,4693879376464966;-0,07675138594639351;0,6281941339175848;-1,9793719526645455
236;2026-05-10 20:20:15.740;2,090906;-0,66851777;0,21405382;1,4868983;1,7844247;-6,753691
237;2026-05-10 20:20:15.750;-0,012173576;-0,001909504;0,9785465;1,4868983;1,7844247;-6,753691
238;2026-05-10 20:20:15.760;1,473729512;-0,106583222;0,55261489;1,4868983;1,7844247;-6,753691
239;2026-05-10 20:20:15.770;2,9596326;-0,21125694;0,12668328;1,4868983;1,7844247;-6,753691
240;2026-05-10 20:20:15.780;3,2747938226746767;0,12086355739196852;0,3829283232630474;0,5132638917593951;0,9027058994292079;-2,6568912077559137
241;2026-05-10 20:20:15.790;3,589955045349353;0,45298405478393705;0,6391733665260948;-0,4603705164812097;0,020987098858415733;1,439908584488173
242;2026-05-10 20:20:15.800;3,9051082;0,78509605;0,89541185;-1,43398;-0,86070913;5,5366035
243;2026-05-10 20:20:15.810;3,8735306613405256;0,941355603423543;0,7994526268652069;-1,43398;-0,86070913;5,5366035
244;2026-05-10 20:20:15.820;3,8419523142857144;1,0976191571428573;0,7034909471428572;-1,43398;-0,86070913;5,5366035
245;2026-05-10 20:20:15.830;3,8103739672309027;1,2538827108621715;0,6075292674205075;-1,43398;-0,86070913;5,5366035
246;2026-05-10 20:20:15.840;3,7787964285714284;1,4101422642857144;0,5115700442857143;-1,43398;-0,86070913;5,5366035
247;2026-05-10 20:20:15.850;3,747218889911954;1,5664018177092573;0,4156108211509212;-1,43398;-0,86070913;5,5366035
248;2026-05-10 20:20:15.860;3,715640542857143;1,7226653714285716;0,3196491414285715;-1,43398;-0,86070913;5,5366035
249;2026-05-10 20:20:15.870;3,684062195802331;1,878928925147886;0,22368746170622178;-1,43398;-0,86070913;5,5366035
250;2026-05-10 20:20:15.880;3,652484657142857;2,035188478571429;0,12772823857142862;-1,43398;-0,86070913;5,5366035
251;2026-05-10 20:20:15.890;3,6209071184833825;2,191448031994972;0,03176901543663549;-1,43398;-0,86070913;5,5366035
252;2026-05-10 20:20:15.900;3,5893287714285713;2,347711585714286;-0,06419266428571421;-1,43398;-0,86070913;5,5366035
253;2026-05-10 20:20:15.910;3,5577504243737597;2,5039751394336003;-0,16015434400806391;-1,43398;-0,86070913;5,5366035
254;2026-05-10 20:20:15.920;3,5261728857142853;2,660234692857143;-0,25611356714285705;-1,43398;-0,86070913;5,5366035
255;2026-05-10 20:20:15.930;3,494595347054811;2,816494246280686;-0,3520727902776502;-1,43398;-0,86070913;5,5366035
256;2026-05-10 20:20:15.940;3,463017;2,9727578;-0,44803447;-1,43398;-0,86070913;5,5366035
257;2026-05-10 20:20:15.950;2,62201135518738;2,1052922896114543;0,018609168949499547;-1,5157791460208898;-0,4115991552878732;2,6982947434839186
258;2026-05-10 20:20:15.960;1,78102723984369;1,2378489860557271;0,48524086197474986;-1,5975761980104448;0,0374993223560634;-0,1399413532580407
259;2026-05-10 20:20:15.970;0,9400431245;0,3704056825;0,951872555;-1,67937325;0,4865978;-2,97817745
260;2026-05-10 20:20:15.980;1,39076706225;0,44957934125000004;0,9695259475;-1,624011375;0,58801015;-3,390860525
261;2026-05-10 20:20:15.990;1,841491;0,528753;0,98717934;-1,5686495;0,6894225;-3,8035436
262;2026-05-10 20:20:16.000;1,9054203271664039;0,41921614464831025;0,8694249633788405;-1,260288121779569;0,8814365361618948;-3,939134226643797
263;2026-05-10 20:20:16.010;1,969349654332808;0,3096792892966205;0,751670586757681;-0,9519267435591379;1,0734505723237895;-4,074724853287594
264;2026-05-10 20:20:16.020;2,0332806181109357;0,20013962976554017;0,6339131955858937;-0,6435574711863793;1,26546952410793;-4,210318951095865
265;2026-05-10 20:20:16.030;2,097211581889064;0,09059997023445988;0,5161558044141064;-0,3351881988136206;1,4574884758920703;-4,345913048904135
266;2026-05-10 20:20:16.040;2,161140909055468;-0,01893688511722991;0,39840142779294685;-0,026826820593189544;1,649502512053965;-4,481503675547932
267;2026-05-10 20:20:16.050;2,225070236221872;-0,1284737404689197;0,2806470511717873;0,2815345576272415;1,8415165482158597;-4,61709430219173
268;2026-05-10 20:20:16.060;2,2890012;-0,2380134;0,16288966;0,58990383;2,0335355;-4,7526884
269;2026-05-10 20:20:16.070;1,5732357910933805;-0,19404850634208573;0,44519775799653544;0,9369859434589161;2,2926049880626693;-5,099770523459087
270;2026-05-10 20:20:16.080;0,8574887055466902;-0,15008473817104287;0,7274986289982677;1,284059171729458;2,5516678440313347;-5,446843761729544
271;2026-05-10 20:20:16.090;0,14174162;-0,10612097;1,0097995;1,6311324;2,8107307;-5,793917
272;2026-05-10 20:20:16.100;0,09029716601294503;-0,0705241039606312;0,9995997996303375;1,6311324;2,8107307;-5,793917
273;2026-05-10 20:20:16.110;0,03885271202589004;-0,03492723792126241;0,9894000992606751;1,6311324;2,8107307;-5,793917
274;2026-05-10 20:20:16.120;-0,012590425;0,00066871685;0,97920066;1,6311324;2,8107307;-5,793917
275;2026-05-10 20:20:16.130;-0,114858979070752;-0,15471333384054303;0,767938006696576;1,67418476142272;2,6857012628972803;-5,915951062944
276;2026-05-10 20:20:16.140;-0,21713015125;-0,31009936236249996;0,556669945;1,717238225;2,560668625;-6,037988250000001
277;2026-05-10 20:20:16.150;-0,319401323429248;-0,4654853908844569;0,34540188330342403;1,76029168857728;2,43563598710272;-6,160025437056
278;2026-05-10 20:20:16.160;-0,42166987749999996;-0,620867441575;0,13413923000000003;1,80334405;2,31060655;-6,2820595
279;2026-05-10 20:20:16.170;-0,5239384315707519;-0,776249492265543;-0,07712342330342395;1,84639641142272;2,18557711289728;-6,404093562944
280;2026-05-10 20:20:16.180;-0,62620960375;-0,9316355207874999;-0,28839148499999995;1,889449875;2,060544475;-6,52613075
281;2026-05-10 20:20:16.190;-0,728480775929248;-1,0870215493094568;-0,4996595466965759;1,9325033385772798;1,93551183710272;-6,648167937056
282;2026-05-10 20:20:16.200;-0,83074933;-1,2424036;-0,7109222;1,9755557;1,8104824;-6,770202
283;2026-05-10 20:20:16.210;-0,659852055210494;-0,8853686960842141;-0,4365023500952322;1,5484221419036208;1,697525836690014;-6,035600422416442
284;2026-05-10 20:20:16.220;-0,488950405394753;-0,5283246519578931;-0,16207547495238378;1,1212776490481895;1,584566381654993;-5,30098003879178
285;2026-05-10 20:20:16.230;-0,318048755579012;-0,1712806078315722;0,1123514001904646;0,6941331561927583;1,471606926619972;-4,566359655167117
286;2026-05-10 20:20:16.240;-0,14715148078950602;0,18575429608421382;0,3867712500952324;0,2669995980963792;1,358650363309986;-3,831758077583559
287;2026-05-10 20:20:16.250;0,023745794;0,5427892;0,6611911;-0,16013396;1,2456938;-3,0971565
288;2026-05-10 20:20:16.260;-1,665979603;-0,50459855;-0,13325764999999995;-0,21308724499999998;0,6183614035;-1,415278735
289;2026-05-10 20:20:16.270;-3,355705;-1,5519863;-0,9277064;-0,26604053;-0,008970993;0,26659903
290;2026-05-10 20:20:16.280;-3,283214095982779;-1,540060068558616;-0,9233734947073893;-0,30161546453639204;-0,05034480461250849;0,3943555288512896
291;2026-05-10 20:20:16.290;-3,2107231919655588;-1,5281338371172322;-0,9190405894147784;-0,3371903990727841;-0,09171861622501698;0,5221120277025791
292;2026-05-10 20:20:16.300;-3,138230432157441;-1,5162073003604155;-0,9147075731983724;-0,3727662443391576;-0,1330934870206603;0,6498717971621031
293;2026-05-10 20:20:16.310;-3,0657376723493233;-1,5042807636035986;-0,9103745569819662;-0,40834208960553114;-0,1744683578163036;0,777631566621627
294;2026-05-10 20:20:16.320;-2,993246768332103;-1,4923545321622147;-0,9060416516893554;-0,4439170241419232;-0,2158421694288121;0,9053880654729166
295;2026-05-10 20:20:16.330;-2,920755864314882;-1,4804283007208308;-0,9017087463967446;-0,47949195867831523;-0,2572159810413206;1,033144564324206
296;2026-05-10 20:20:16.340;-2,8482631045067643;-1,468501763964014;-0,8973757301803384;-0,5150678039446888;-0,2985908518369639;1,1609043337837301
297;2026-05-10 20:20:16.350;-2,775770344698647;-1,4565752272071972;-0,8930427139639323;-0,5506436492110622;-0,3399657226326072;1,288664103243254
298;2026-05-10 20:20:16.360;-2,7032794406814262;-1,4446489957658133;-0,8887098086713215;-0,5862185837474543;-0,3813395342451157;1,4164206020945436
299;2026-05-10 20:20:16.370;-2,630788536664206;-1,4327227643244294;-0,8843769033787108;-0,6217935182838463;-0,42271334585762416;1,5441771009458332
300;2026-05-10 20:20:16.380;-2,558295776856088;-1,4207962275676127;-0,8800438871623046;-0,6573693635502199;-0,4640882166532675;1,6719368704053572
301;2026-05-10 20:20:16.390;-2,4858030170479704;-1,4088696908107958;-0,8757108709458985;-0,6929452088165934;-0,5054630874489108;1,799696639864881
302;2026-05-10 20:20:16.400;-2,41331211303075;-1,3969434593694119;-0,8713779656532877;-0,7285201433529854;-0,5468368990614193;1,9274531387161706
303;2026-05-10 20:20:16.410;-2,340821209013529;-1,385017227928028;-0,8670450603606769;-0,7640950778893775;-0,5882107106739277;2,0552096375674602
304;2026-05-10 20:20:16.420;-2,2683284492054114;-1,3730906911712113;-0,8627120441442708;-0,7996709231557511;-0,6295855814695711;2,182969407026984
305;2026-05-10 20:20:16.430;-2,195835689397294;-1,3611641544143944;-0,8583790279278647;-0,8352467684221245;-0,6709604522652144;2,310729176486508
306;2026-05-10 20:20:16.440;-2,1233447853800733;-1,3492379229730105;-0,8540461226352538;-0,8708217029585166;-0,7123342638777229;2,4384856753377977
307;2026-05-10 20:20:16.450;-2,0508538813628525;-1,3373116915316265;-0,849713217342643;-0,9063966374949086;-0,7537080754902313;2,566242174189087
308;2026-05-10 20:20:16.460;-1,9783611215547352;-1,32538515477481;-0,8453802011262369;-0,9419724827612822;-0,7950829462858747;2,6940019436486113
309;2026-05-10 20:20:16.470;-1,9058683617466174;-1,313458618017993;-0,8410471849098308;-0,9775483280276557;-0,836457817081518;2,821761713108135
310;2026-05-10 20:20:16.480;-1,8333774577293969;-1,301532386576609;-0,83671427961722;-1,0131232625640478;-0,8778316286940264;2,9495182119594245
311;2026-05-10 20:20:16.490;-1,7608865537121763;-1,2896061551352251;-0,8323813743246092;-1,0486981971004399;-0,919205440306535;3,0772747108107144
312;2026-05-10 20:20:16.500;-1,6883937939040585;-1,2776796183784085;-0,8280483581082031;-1,0842740423668134;-0,9605803111021782;3,205034480270238
313;2026-05-10 20:20:16.510;-1,615901034095941;-1,2657530816215916;-0,823715341891797;-1,1198498876331868;-1,0019551818978216;3,332794249729762
314;2026-05-10 20:20:16.520;-1,5434101300787204;-1,2538268501802077;-0,8193824365991862;-1,1554248221695789;-1,04332899351033;3,460550748581052
315;2026-05-10 20:20:16.530;-1,4709192260614998;-1,2419006187388237;-0,8150495313065753;-1,190999756705971;-1,0847028051228385;3,588307247432341
316;2026-05-10 20:20:16.540;-1,398426466253382;-1,229974081982007;-0,8107165150901693;-1,2265756019723444;-1,1260776759184818;3,716067016891865
317;2026-05-10 20:20:16.550;-1,3259337064452645;-1,2180475452251902;-0,8063834988737631;-1,262151447238718;-1,1674525467141252;3,8438267863513893
318;2026-05-10 20:20:16.560;-1,253442802428044;-1,2061213137838063;-0,8020505935811523;-1,2977263817751101;-1,2088263583266337;3,9715832852026787
319;2026-05-10 20:20:16.570;-1,1809518984108232;-1,1941950823424223;-0,7977176882885415;-1,3333013163115022;-1,250200169939142;4,099339784053968
320;2026-05-10 20:20:16.580;-1,1084591386027056;-1,1822685455856055;-0,7933846720721354;-1,3688771615778756;-1,2915750407347855;4,227099553513492
321;2026-05-10 20:20:16.590;-1,035966378794588;-1,1703420088287888;-0,7890516558557292;-1,4044530068442491;-1,3329499115304289;4,354859322973017
322;2026-05-10 20:20:16.600;-0,9634754747773674;-1,1584157773874049;-0,7847187505631185;-1,4400279413806412;-1,3743237231429373;4,4826158218243055
323;2026-05-10 20:20:16.610;-0,8909845707601467;-1,146489545946021;-0,7803858452705077;-1,4756028759170332;-1,4156975347554457;4,610372320675595
324;2026-05-10 20:20:16.620;-0,8184918109520292;-1,134563009189204;-0,7760528290541016;-1,5111787211834067;-1,457072405551089;4,738132090135119
325;2026-05-10 20:20:16.630;-0,7459990511439115;-1,1226364724323874;-0,7717198128376954;-1,5467545664497802;-1,4984472763467325;4,865891859594643
326;2026-05-10 20:20:16.640;-0,6735081471266909;-1,1107102409910035;-0,7673869075450847;-1,5823295009861722;-1,5398210879592409;4,993648358445933
327;2026-05-10 20:20:16.650;-0,6010172431094702;-1,0987840095496195;-0,7630540022524738;-1,6179044355225642;-1,5811948995717493;5,121404857297223
328;2026-05-10 20:20:16.660;-0,5285244833013526;-1,0868574727928026;-0,7587209860360677;-1,653480280788938;-1,6225697703673927;5,249164626756746
329;2026-05-10 20:20:16.670;-0,45603172349323506;-1,074930936035986;-0,7543879698196616;-1,6890561260553114;-1,663944641163036;5,37692439621627
330;2026-05-10 20:20:16.680;-0,3835408194760144;-1,063004704594602;-0,7500550645270507;-1,7246310605917035;-1,7053184527755445;5,50468089506756
331;2026-05-10 20:20:16.690;-0,3110499154587938;-1,0510784731532181;-0,74572215923444;-1,7602059951280955;-1,746692264388053;5,632437393918849
332;2026-05-10 20:20:16.700;-0,23855715565067617;-1,0391519363964012;-0,7413891430180338;-1,795781840394469;-1,7880671351836963;5,760197163378373
333;2026-05-10 20:20:16.710;-0,16606439584255855;-1,0272253996395846;-0,7370561268016277;-1,8313576856608424;-1,8294420059793395;5,887956932837898
334;2026-05-10 20:20:16.720;-0,09357349182533792;-1,0152991681982007;-0,7327232215090169;-1,8669326201972345;-1,8708158175918481;6,0157134316891865
335;2026-05-10 20:20:16.730;-0,021082587808117274;-1,0033729367568167;-0,7283903162164062;-1,9025075547336265;-1,9121896292043565;6,143469930540476
336;2026-05-10 20:20:16.740;0,051410172;-0,9914464;-0,7240573;-1,9380834;-1,9535645;6,2712297
337;2026-05-10 20:20:16.750;0,12850428372266548;-0,6214053847141747;-0,21602882975842028;-1,648854130550317;-2,6455993105762583;6,203265440091478
338;2026-05-10 20:20:16.760;0,20559642186133273;-0,25137384235708726;0,29198663512078993;-1,3596322652751587;-3,3376164052881294;6,1353029200457385
339;2026-05-10 20:20:16.770;0,28268856;0,1186577;0,8000021;-1,0704104;-4,0296335;6,0673404
340;2026-05-10 20:20:16.780;0,667621388923266;0,29527468057292694;0,5990746727101574;-0,9874390325543634;-3,90461172835012;6,209701004736357
341;2026-05-10 20:20:16.790;1,052554217846532;0,47189166114585385;0,39814724542031465;-0,9044676651087267;-3,779589956700239;6,352061609472714
342;2026-05-10 20:20:16.800;1,4374771926155105;0,6485041203819513;0,1972249618067715;-0,8214984217029089;-3,6545713855667463;6,494418569824238
343;2026-05-10 20:20:16.810;1,8224001673844892;0,8251165796180486;-0,003697321806771643;-0,7385291782970911;-3,5295528144332535;6,636775530175762
344;2026-05-10 20:20:16.820;2,207332996307755;1,0017335601909756;-0,20462474909661435;-0,6555578108514545;-3,4045310427833733;6,779136134912119
345;2026-05-10 20:20:16.830;2,592265825231021;1,1783505407639026;-0,4055521763864571;-0,5725864434058178;-3,279509271133493;6,921496739648476
346;2026-05-10 20:20:16.840;2,9771888;1,354963;-0,60647446;-0,4896172;-3,1544907;7,0638537
347;2026-05-10 20:20:16.850;2,86740455525632;1,61687839744;-0,584726793373696;-0,4896172;-3,1544907;7,0638537
348;2026-05-10 20:20:16.860;2,7576175;1,8788005;-0,56297857;-0,4896172;-3,1544907;7,0638537
349;2026-05-10 20:20:16.870;2,758529201669632;1,9552100480296961;-0,5106394328676198;-0,44070023243182954;-2,83924528909039;6,357396455613016
350;2026-05-10 20:20:16.880;2,7594408799999997;2,03161764;-0,4583016356;-0,39178451712199996;-2,52400794836;5,6509572963000005
351;2026-05-10 20:20:16.890;2,760352558330368;2,108025231970304;-0,40596383833238014;-0,3428688018121704;-2,2087706076296105;4,944518136986984
352;2026-05-10 20:20:16.900;2,76126426;2,18443478;-0,3536247012;-0,293951834244;-1,8935251967200002;4,2380608926
353;2026-05-10 20:20:16.910;2,762175961669632;2,260844328029696;-0,3012855640676198;-0,24503486667582958;-1,5782797858103896;3,5316036482130166
354;2026-05-10 20:20:16.920;2,7630876399999997;2,33725192;-0,2489477668;-0,196119151366;-1,26304244508;2,8251644889000005
355;2026-05-10 20:20:16.930;2,763999318330368;2,413659511970304;-0,19660996953238014;-0,14720343605617042;-0,9478051043496105;2,1187253295869843
356;2026-05-10 20:20:16.940;2,76491102;2,49006906;-0,1442708324;-0,098286468488;-0,63255969344;1,4122680852000007
357;2026-05-10 20:20:16.950;2,7658227216696316;2,566478608029696;-0,09193169526761984;-0,049369500919829584;-0,31731428253038946;0,705810840813017
358;2026-05-10 20:20:16.960;2,7667344;2,6428862;-0,039593898;-0,00045378561;-0,0020769418;-0,0006283185
359;2026-05-10 20:20:16.970;2,3695129260713688;2,26532079276037;0,10587478797369787;-0,00045378561;-0,0020769418;-0,0006283185
360;2026-05-10 20:20:16.980;1,972281283142842;1,8877457197225924;0,2513471979934245;-0,00045378561;-0,0020769418;-0,0006283185
361;2026-05-10 20:20:16.990;1,5750496402143153;1,5101706466848148;0,396819608013151;-0,00045378561;-0,0020769418;-0,0006283185
362;2026-05-10 20:20:17.000;1,1778281662856844;1,1326052394451849;0,5422882939868489;-0,00045378561;-0,0020769418;-0,0006283185
363;2026-05-10 20:20:17.010;0,7806066923570534;0,7550398322055549;0,6877569799605467;-0,00045378561;-0,0020769418;-0,0006283185
364;2026-05-10 20:20:17.020;0,3833750494285267;0,3774647591677774;0,8332293899802734;-0,00045378561;-0,0020769418;-0,0006283185
365;2026-05-10 20:20:17.030;-0,0138565935;-0,00011031387;0,9787018;-0,00045378561;-0,0020769418;-0,0006283185
366;2026-05-10 20:20:17.040;1,8819295829999998;1,8304003646666667;0,5795347839999999;0,019419696926666667;0,1858310188;-0,014113895666666666
367;2026-05-10 20:20:17.050;-0,011544884;-0,002182848;0,9792269;-1,1502593;0,4935093;0,5295504
368;2026-05-10 20:20:17.060;1,704441558;1,028946926;0,71139609;-0,5751034700600001;0,2473044287;0,264984639515
369;2026-05-10 20:20:17.070;3,420428;2,0600767;0,44356528;5,235988e-05;0,0010995574;0,00041887903
370;2026-05-10 20:20:17.080;1,9520752;-0,1340626;0,09724607;5,235988e-05;0,0010995574;0,00041887903
371;2026-05-10 20:20:17.090;2,5986269;1,397706;0,6348808;-0,56309557;0,46743408;-3,5294049
372;2026-05-10 20:20:17.100;1,7341238381349644;0,9327017422477907;0,7673473637002082;-0,56309557;0,46743408;-3,5294049
373;2026-05-10 20:20:17.110;0,8696207762699288;0,46769748449558135;0,8998139274004164;-0,56309557;0,46743408;-3,5294049
374;2026-05-10 20:20:17.120;0,0051398454;0,0027051307;1,0322771;-0,56309557;0,46743408;-3,5294049
375;2026-05-10 20:20:17.130;-0,01367404;-0,0011695224;0,9813474;-0,56309557;0,46743408;-3,5294049
376;2026-05-10 20:20:17.140;0,11130077310475477;-0,17428504590022528;0,7892839294126958;-0,5281421434012441;0,43282972137991943;-2,9145666851143885
377;2026-05-10 20:20:17.150;0,23627558620950956;-0,34740056940045055;0,5972204588253917;-0,4931887168024883;0,3982253627598389;-2,2997284702287772
378;2026-05-10 20:20:17.160;0,36124720000000005;-0,5205116611999999;0,40516190499999993;-0,458236185;0,36362188999999995;-1,6849059949999998
379;2026-05-10 20:20:17.170;0,4862188137904906;-0,6936227529995495;0,2131033511746082;-0,4232836531975117;0,32901841724016107;-1,070083519771222
380;2026-05-10 20:20:17.180;0,6111936268952454;-0,8667382764997746;0,021039880587304046;-0,3883302265987558;0,2944140586200805;-0,4552453048856108
381;2026-05-10 20:20:17.190;0,73616844;-1,0398538;-0,17102359;-0,3533768;0,2598097;0,15959291
382;2026-05-10 20:20:17.200;2,4253972;0,13645436;0,09992582;-0,3533768;0,2598097;0,15959291
383;2026-05-10 20:20:17.210;2,1571519096669327;0,08825159483263342;0,1815047342212255;-0,3638137669740902;0,30180887062298783;0,15655781398278104
384;2026-05-10 20:20:17.220;1,8888997521665334;0,04004759565868328;0,26308573688938724;-0,3742510011379549;0,3438091164385061;0,15352264026610948
385;2026-05-10 20:20:17.230;1,620647594666134;-0,008156403515266867;0,34466673955754895;-0,38468823530181967;0,38580936225402435;0,15048746654943793
386;2026-05-10 20:20:17.240;1,3524023043330669;-0,056359168682633444;0,4262456537787745;-0,3951252022759098;0,42780853287701215;0,14745237053221896
387;2026-05-10 20:20:17.250;1,0841570139999999;-0,10456193385;0,507824568;-0,40556216925;0,4698077035;0,144417274515
388;2026-05-10 20:20:17.260;2,2328090666666665;-0,6927747499999999;0,04328501676666666;0,38229692;1,7833425;-5,090183
389;2026-05-10 20:20:17.270;1,8613402517257478;-0,7411341174194055;-0,009669347051063931;0,3697528050712961;1,844484751555203;-5,1274462879588345
390;2026-05-10 20:20:17.280;1,4898809462647702;-0,7894922468548513;-0,06262235525443266;0,357209011267824;1,9056254378888007;-5,164708621989709
391;2026-05-10 20:20:17.290;1,1184216408037926;-0,8378503762902971;-0,11557536345780138;0,3446652174643519;1,9667661242223986;-5,201970956020582
392;2026-05-10 20:20:17.300;0,7469528258628738;-0,8862097437097027;-0,16852972727553198;0,3321211025356481;2,0279083757776015;-5,239234243979418
393;2026-05-10 20:20:17.310;0,3754840109219551;-0,9345691111291083;-0,22148409109326256;0,3195769876069442;2,089050627332804;-5,2764975319382525
394;2026-05-10 20:20:17.320;0,004024705460977531;-0,9829272405645542;-0,2744370992966313;0,3070331938034721;2,150191313666402;-5,313759865969127
395;2026-05-10 20:20:17.330;-0,36743459999999994;-1,03128537;-0,32739010749999997;0,2944894;2,211332;-5,3510222
396;2026-05-10 20:20:17.340;0,16963892445312;-0,9224903249412479;-0,23316937961512;0,283170795123712;2,23741630887488;-5,41157725009472
397;2026-05-10 20:20:17.350;0,70671244890624;-0,813695279882496;-0,13894865173024;0,271852190247424;2,26350061774976;-5,47213230018944
398;2026-05-10 20:20:17.360;1,24377222445312;-0,7049030199412479;-0,04473033586512001;0,260533875123712;2,28958425887488;-5,53268580009472
399;2026-05-10 20:20:17.370;1,780832;-0,59611076;0,04948798;0,24921556;2,3156679;-5,5932393
400;2026-05-10 20:20:17.380;0,6780842499999999;-0,95579258;-0,25838632999999994;0,24921556;2,3156679;-5,5932393
401;2026-05-10 20:20:17.390;-0,4246635;-1,3154744;-0,56626064;0,24921556;2,3156679;-5,5932393
402;2026-05-10 20:20:17.400;-0,4088413435241802;-1,265023520273409;-0,5067770412921317;0,22671584661540098;2,1959994739465785;-5,490214401909761
403;2026-05-10 20:20:17.410;-0,3930191870483604;-1,2145726405468182;-0,44729344258426346;0,20421613323080196;2,076331047893157;-5,387189503819523
404;2026-05-10 20:20:17.420;-0,3771966255201502;-1,1641204692611742;-0,38780832107677643;0,18171584384616749;1,9566595582888153;-5,284161968258134
405;2026-05-10 20:20:17.430;-0,36137406399193994;-1,1136682979755304;-0,3283231995692894;0,15921555446153302;1,8369880686844735;-5,181134432696746
406;2026-05-10 20:20:17.440;-0,34555190751612014;-1,0632174182489393;-0,2688396008614211;0,136715841076934;1,7173196426310522;-5,078109534606508
407;2026-05-10 20:20:17.450;-0,3297297510403004;-1,0127665385223485;-0,20935600215355285;0,11421612769233495;1,5976512165776309;-4,97508463651627
408;2026-05-10 20:20:17.460;-0,3139071895120901;-0,9623143672367046;-0,14987088064606582;0,09171583830770048;1,477979726973289;-4,872057100954881
409;2026-05-10 20:20:17.470;-0,29808462798387986;-0,9118621959510607;-0,09038575913857881;0,06921554892306601;1,3583082373689475;-4,769029565393492
410;2026-05-10 20:20:17.480;-0,2822624715080601;-0,8614113162244698;-0,03090216043071054;0,046715835538466984;1,238639811315526;-4,666004667303254
411;2026-05-10 20:20:17.490;-0,2664403150322403;-0,8109604364978789;0,028581438277157725;0,024216122153867956;1,1189713852621046;-4,562979769213015
412;2026-05-10 20:20:17.500;-0,25061775350403004;-0,7605082652122349;0,08806655978464475;0,0017158327692334827;0,9992998956577629;-4,459952233651627
413;2026-05-10 20:20:17.510;-0,2347951919758198;-0,710056093926591;0,14755168129213178;-0,02078445661540099;0,8796284060534212;-4,356924698090238
414;2026-05-10 20:20:17.520;-0,21897303550000002;-0,6596052142000001;0,20703528000000004;-0,04328417000000002;0,7599599799999998;-4,2538998
415;2026-05-10 20:20:17.530;-0,20315087902418022;-0,6091543344734092;0,26651887870786833;-0,06578388338459905;0,6402915539465784;-4,150874901909762
416;2026-05-10 20:20:17.540;-0,18732831749596998;-0,5587021631877652;0,32600400021535536;-0,08828417276923352;0,5206200643422367;-4,047847366348373
417;2026-05-10 20:20:17.550;-0,17150575596775972;-0,5082499919021214;0,3854891217228424;-0,11078446215386799;0,4009485747378949;-3,944819830786984
418;2026-05-10 20:20:17.560;-0,15568359949193994;-0,4577991121755304;0,4449727204307106;-0,13328417553846703;0,2812801486844736;-3,841794932696746
419;2026-05-10 20:20:17.570;-0,13986144301612013;-0,4073482324489395;0,5044563191385789;-0,15578388892306605;0,16161172263105225;-3,738770034606508
420;2026-05-10 20:20:17.580;-0,1240388814879099;-0,35689606116329553;0,5639414406460659;-0,17828417830770052;0,041940233026710495;-3,635742499045119
421;2026-05-10 20:20:17.590;-0,10821631995969966;-0,30644388987765164;0,623426562153553;-0,200784467692335;-0,07773125657763127;-3,5327149634837305
422;2026-05-10 20:20:17.600;-0,09239416348387987;-0,25599301015106074;0,6829101608614212;-0,223284181076934;-0,19739968263105262;-3,4296900653934923
423;2026-05-10 20:20:17.610;-0,07657200700806006;-0,20554213042446978;0,7423937595692894;-0,24578389446153304;-0,31706810868447394;-3,326665167303254
424;2026-05-10 20:20:17.620;-0,060749445479849826;-0,15508995913882587;0,8018788810767765;-0,26828418384616753;-0,4367395982888157;-3,223637631741865
425;2026-05-10 20:20:17.630;-0,04492688395163958;-0,10463778785318198;0,8613640025842635;-0,290784473230802;-0,5564110878931575;-3,1206100961804766
426;2026-05-10 20:20:17.640;-0,029104727475819787;-0,05418690812659104;0,9208476012921318;-0,31328418661540103;-0,6760795139465788;-3,0175851980902384
427;2026-05-10 20:20:17.650;-0,013282571;-0,0037360284;0,9803312;-0,3357839;-0,79574794;-2,9145603
428;2026-05-10 20:20:17.660;0,4751823541806755;-0,28555556709594837;0,6398680767518689;-0,5446375955287232;-1,5726005890577532;0,19600947652233988
429;2026-05-10 20:20:17.670;0,963647279361351;-0,5673751057918968;0,29940495350373764;-0,7534912910574463;-2,3494532381155064;3,30657925304468
430;2026-05-10 20:20:17.680;1,4520997;-0,84918743;-0,041049454;-0,96233964;-3,126286;6,4170694
431;2026-05-10 20:20:17.690;1,7929647368716801;-0,710334064845824;0,025562924350643196;-0,7439537493751809;-3,1901599324032;6,68123476864
432;2026-05-10 20:20:17.700;2,1338385;-0,571477145;0,09217700799999999;-0,525562268;-3,2540354999999996;6,9454069
433;2026-05-10 20:20:17.710;2,4747122631283203;-0,43262022515417603;0,15879109164935679;-0,3071707866248193;-3,3179110675967998;7,209579031360001
434;2026-05-10 20:20:17.720;2,8155773;-0,29376686;0,22540347;-0,088784896;-3,381785;7,4737444
435;2026-05-10 20:20:17.730;3,1534863;-0,42375758;-0,24954462;-0,088784896;-3,381785;7,4737444
436;2026-05-10 20:20:17.740;-0,010796117;-0,0014721534;0,98007727;-0,088784896;-3,381785;7,4737444
437;2026-05-10 20:20:17.750;3,1912868;0,09953728;-0,039107732;-0,597688;-1,2290783;6,940878
438;2026-05-10 20:20:17.760;0,006459707;-0,08458829;1,2421372;-0,597688;-1,2290783;6,940878
439;2026-05-10 20:20:17.770;0,664966282406355;0,03615750354724749;0,9851213814756696;-0,413407553055931;-1,122935446916728;5,384803694404849
440;2026-05-10 20:20:17.780;1,3234897157968226;0,1569063882263763;0,7280989832621652;-0,22912238847203448;-1,016789876541636;3,8286895527975746
441;2026-05-10 20:20:17.790;1,98201314918729;0,27765527290550507;0,47107658504866057;-0,044837223888137955;-0,9106443061665438;2,2725754111903003
442;2026-05-10 20:20:17.800;2,640519724593645;0,39840106645275253;0,2140607665243303;0,13944322305593101;-0,8045014530832719;0,71650110559515
443;2026-05-10 20:20:17.810;3,2990263;0,51914686;-0,042955052;0,32372367;-0,6983586;-0,8395732
444;2026-05-10 20:20:17.820;3,25916146473664;0,575985122520448;0,014145801881574393;-0,10399219719302394;-0,6664143036182401;0,8467200092768
445;2026-05-10 20:20:17.830;3,21929662947328;0,632823385040896;0,07124665576314879;-0,5317080643860479;-0,6344700072364801;2,5330132185536
446;2026-05-10 20:20:17.840;3,1794328147366397;0,689660192520448;0,1283460478815744;-0,9594129821930238;-0,60252652861824;4,2192632592768
447;2026-05-10 20:20:17.850;3,139569;0,746497;0,18544544;-1,3871179;-0,57058305;5,9055133
448;2026-05-10 20:20:17.860;1,564178017;0,3723181538;0,582577355;-1,3440082500000001;-0,848727425;5,4972198
449;2026-05-10 20:20:17.870;-0,011212966;-0,0018606924;0,97970927;-1,3008986;-1,1268718;5,0889263
450;2026-05-10 20:20:17.880;-0,011238494023237119;-0,0018749451675622402;0,9795972529338368;-1,2358501393079546;-1,0702872061920716;4,834504185596249
451;2026-05-10 20:20:17.890;-0,01126402204647424;-0,00188919793512448;0,9794852358676736;-1,170801678615909;-1,0137026123841433;4,580082071192499
452;2026-05-10 20:20:17.900;-0,01128955072323712;-0,00190345106756224;0,9793732159338367;-1,1057515526619546;-0,9571165699920716;4,325653443499249
453;2026-05-10 20:20:17.910;-0,011315079399999999;-0,0019177042000000002;0,979261196;-1,040701426708;-0,9005305276;4,071224815806
454;2026-05-10 20:20:17.920;-0,01134060742323712;-0,00193195696756224;0,9791491789338368;-0,9756529660159545;-0,8439459337920716;3,816802701402249
455;2026-05-10 20:20:17.930;-0,011366135446474239;-0,0019462097351244801;0,9790371618676735;-0,9106045053239091;-0,7873613399841433;3,562380586998499
456;2026-05-10 20:20:17.940;-0,01139166412323712;-0,00196046286756224;0,9789251419338367;-0,8455543793699546;-0,7307752975920716;3,307951959305249
457;2026-05-10 20:20:17.950;-0,0114171928;-0,001974716;0,9788131219999999;-0,780504253416;-0,6741892552;3,053523331612
458;2026-05-10 20:20:17.960;-0,011442720823237119;-0,00198896876756224;0,9787011049338368;-0,7154557927239545;-0,6176046613920716;2,7991012172082494
459;2026-05-10 20:20:17.970;-0,01146824884647424;-0,0020032215351244802;0,9785890878676736;-0,650407332031909;-0,5610200675841432;2,5446791028044986
460;2026-05-10 20:20:17.980;-0,011493777523237119;-0,0020174746675622403;0,9784770679338368;-0,5853572060779546;-0,5044340251920716;2,2902504751112494
461;2026-05-10 20:20:17.990;-0,0115193062;-0,0020317278;0,978365048;-0,5203070801240001;-0,4478479827999999;2,0358218474179997
462;2026-05-10 20:20:18.000;-0,01154483422323712;-0,00204598056756224;0,9782530309338368;-0,45525861943195456;-0,3912633889920716;1,7813997330142493
463;2026-05-10 20:20:18.010;-0,01157036224647424;-0,00206023333512448;0,9781410138676736;-0,3902101587399091;-0,33467879518414323;1,5269776186104986
464;2026-05-10 20:20:18.020;-0,01159589092323712;-0,00207448646756224;0,9780289939338368;-0,32516003278595457;-0,2780927527920716;1,2725489909172494
465;2026-05-10 20:20:18.030;-0,0116214196;-0,0020887396000000003;0,977916974;-0,260109906832;-0,22150671039999986;1,018120363224
466;2026-05-10 20:20:18.040;-0,01164694762323712;-0,0021029923675622403;0,9778049569338367;-0,19506144613995455;-0,16492211659207154;0,7636982488202493
467;2026-05-10 20:20:18.050;-0,01167247564647424;-0,00211724513512448;0,9776929398676736;-0,1300129854479091;-0,10833752278414321;0,5092761344164988
468;2026-05-10 20:20:18.060;-0,011698004323237119;-0,00213149826756224;0,9775809199338368;-0,06496285949395456;-0,051751480392071524;0,25484750672324935
469;2026-05-10 20:20:18.070;-0,011723533;-0,0021457514;0,9774689;8,726646e-05;0,004834562;0,00041887903
470;2026-05-10 20:20:18.080;0,34026511619009586;-0,055604837025289455;0,8667613186601437;0,062261074833386235;0,40661281133806426;-0,6844232635693616
471;2026-05-10 20:20:18.090;0,6922537653801918;-0,1090639226505789;0,7560537373202876;0,12443488320677247;0,8083910606761285;-1,3692654061687233
472;2026-05-10 20:20:18.100;1,044251425595048;-0,16252437684597806;0,6453433218300719;0,18661028325002643;1,2101795956690322;-2,0541250809513474
473;2026-05-10 20:20:18.110;1,3962490858099044;-0,21598483104137722;0,5346329063398563;0,2487856832932804;1,6119681306619358;-2,7389847557339713
474;2026-05-10 20:20:18.120;1,748237735;-0,26944391666666667;0,42392532499999996;0,31095949166666664;2,01374638;-3,423826898333333
475;2026-05-10 20:20:18.130;1,7211701727192321;-0,3640635013538133;0,298338531281536;0,3253335472597333;1,4363413958784002;-2,5746921903133866
476;2026-05-10 20:20:18.140;1,6941019175;-0,4586855083333333;0,1727485225;0,3397079708333333;0,85892163;-1,7255357441666666
477;2026-05-10 20:20:18.150;1,667033662280768;-0,5533075153128533;0,04715851371846404;0,35408239440693334;0,2815018641215999;-0,8763792980199467
478;2026-05-10 20:20:18.160;1,6399661;-0,6479271;-0,07842828;0,36845645;-0,29590312;-0,02724459
479;2026-05-10 20:20:18.170;2,38485541529472;0,17310074070912004;-0,09187810284006401;0,273974264387456;-0,005536416741376012;-0,286483776695936
480;2026-05-10 20:20:18.180;3,1297638;0,9941496;-0,10532827;0,17948966;0,28483772;-0,5457296
481;2026-05-10 20:20:18.190;2,149994031940826;0,41958301153347005;-0,133709882446656;0,17948966;0,28483772;-0,5457296
482;2026-05-10 20:20:18.200;1,170249345666667;-0,1549688682166667;-0,16209076833333333;0,17948966;0,28483772;-0,5457296
483;2026-05-10 20:20:18.210;0,19050465939250794;-0,7295207479668034;-0,19047165422001064;0,17948966;0,28483772;-0,5457296
484;2026-05-10 20:20:18.220;-0,7892651086666668;-1,3040873364333334;-0,21885326666666663;0,17948966;0,28483772;-0,5457296
485;2026-05-10 20:20:18.230;-0,5449714875533436;-1,1868052093662074;-0,3373778672384024;0,17948966;0,28483772;-0,5457296
486;2026-05-10 20:20:18.240;-0,3006841202766718;-1,0695260846831036;-0,4558994336192012;0,17948966;0,28483772;-0,5457296
487;2026-05-10 20:20:18.250;-0,056396753;-0,95224696;-0,574421;0,17948966;0,28483772;-0,5457296
488;2026-05-10 20:20:18.260;-0,1130829515;-0,960431155;-0,6125563749999999;0,17948966;0,28483772;-0,5457296
489;2026-05-10 20:20:18.270;-0,16976915;-0,96861535;-0,65069175;0,17948966;0,28483772;-0,5457296
490;2026-05-10 20:20:18.280;-0,29584919910314283;-0,9772017017288607;-0,6826873786338075;0,14940916707349194;0,23736808062810766;-0,4548801616751304
491;2026-05-10 20:20:18.290;-0,4219292482062857;-0,9857880534577215;-0,714683007267615;0,11932867414698388;0,18989844125621533;-0,3640307233502607
492;2026-05-10 20:20:18.300;-0,548012525;-0,994374625;-0,746679455;0,08924741115;0,142427586646;-0,27317895925
493;2026-05-10 20:20:18.310;-0,6740958017937143;-1,0029611965422787;-0,778675902732385;0,05916614815301612;0,09495673203578468;-0,18232719514973933
494;2026-05-10 20:20:18.320;-0,8001758508968572;-1,0115475482711394;-0,8106715313661925;0,029085655226508068;0,04748709266389233;-0,09147775682486967
495;2026-05-10 20:20:18.330;-0,9262559;-1,0201339;-0,84266716;-0,0009948377;1,7453292e-05;-0,0006283185
496;2026-05-10 20:20:18.340;-0,6219148676564324;-0,6808120347238121;-0,2351380891516196;-0,172213086177019;1,0780001675294186;-1,4081029892967925
497;2026-05-10 20:20:18.350;-0,3175738353128648;-0,34149016944762434;0,37239098169676077;-0,34343133465403797;2,155982881766837;-2,815577660093585
498;2026-05-10 20:20:18.360;-0,013240594;-0,0021769907;0,9799045;-0,5146452;3,233938;-4,2230163
499;2026-05-10 20:20:18.370;-0,40442128832302077;-0,25636908932449026;0,506479769914112;-0,5286207461107201;3,1717875955353603;-4,120414038325761
500;2026-05-10 20:20:18.380;-0,795611997;-0,51056769535;0,033042919999999996;-0,54259665;3,1096356;-4,017809150000001
501;2026-05-10 20:20:18.390;-1,186802705676979;-0,7647663013755098;-0,44039392991411197;-0,5565725538892801;3,04748360446464;-3,91520426167424
502;2026-05-10 20:20:18.400;-1,5779834;-1,0189584;-0,91381866;-0,5705481;2,9853332;-3,812602
503;2026-05-10 20:20:18.410;-2,19848710745088;-1,07584062189824;-0,9909524926743041;-0,5705481;2,9853332;-3,812602
504;2026-05-10 20:20:18.420;-2,8190067;-1,1327243;-1,0680883;-0,5705481;2,9853332;-3,812602
505;2026-05-10 20:20:18.430;-2,85939326694144;-1,11805046217728;-1,04447644777216;-0,5705481;2,9853332;-3,812602
506;2026-05-10 20:20:18.440;-2,8997788;-1,103377;-1,0208652;-0,5705481;2,9853332;-3,812602
507;2026-05-10 20:20:18.450;-2,6817173575072144;-1,0848160903761344;-0,9052740394228576;-0,6266647432208641;2,6511309000693055;-3,4363228809170288
508;2026-05-10 20:20:18.460;-2,4636503325700456;-1,0662547055869;-0,789679919674127;-0,6827828230461831;2,3169200444502196;-3,060034128965308
509;2026-05-10 20:20:18.470;-2,245583307632877;-1,047693320797666;-0,6740857999253964;-0,7389009028715022;1,9827091888311341;-2,6837453770135875
510;2026-05-10 20:20:18.480;-2,0275218651400913;-1,0291324111738003;-0,558494639348254;-0,7950175460923663;1,6485068889004397;-2,3074662579306158
511;2026-05-10 20:20:18.490;-1,8094604226473057;-1,0105715015499344;-0,4429034787711116;-0,8511341893132304;1,3143045889697451;-1,9311871388476445
512;2026-05-10 20:20:18.500;-1,5913933977101369;-0,9920101167607003;-0,327309359022381;-0,9072522691385494;0,9800937333506595;-1,5548983868959239
513;2026-05-10 20:20:18.510;-1,373326372772968;-0,9734487319714661;-0,21171523927365038;-0,9633703489638685;0,6458828777315739;-1,178609634944203
514;2026-05-10 20:20:18.520;-1,1552649302801825;-0,9548878223476003;-0,09612407869650796;-1,0194869921847325;0,31168057780087943;-0,8023305158612317
515;2026-05-10 20:20:18.530;-0,9372034877873969;-0,9363269127237346;0,019467081880634455;-1,0756036354055967;-0,02252172212981514;-0,42605139677826026
516;2026-05-10 20:20:18.540;-0,7191364628502281;-0,9177655279345004;0,13506120162936505;-1,1317217152309156;-0,3567325777489007;-0,0497626448265396
517;2026-05-10 20:20:18.550;-0,5010694379130595;-0,8992041431452662;0,25065532137809565;-1,1878397950562347;-0,6909434333679862;0,32652610712518104
518;2026-05-10 20:20:18.560;-0,28300799542027383;-0,8806432335214004;0,36624648195523807;-1,243956438277099;-1,0251457332986809;0,7028052262081524
519;2026-05-10 20:20:18.570;-0,0649465529274882;-0,8620823238975347;0,4818376425323805;-1,3000730814979629;-1,3593480332293755;1,0790843452911238
520;2026-05-10 20:20:18.580;0,15312047200968054;-0,8435209391083005;0,5974317622811111;-1,356191161323282;-1,693558888848461;1,4553730972428445
521;2026-05-10 20:20:18.590;0,37118749694684927;-0,8249595543190663;0,7130258820298416;-1,4123092411486011;-2,0277697444675464;1,8316618491945653
522;2026-05-10 20:20:18.600;0,5892489394396349;-0,8063986446952006;0,8286170426069841;-1,468425884369465;-2,3619720443982413;2,2079409682775366
523;2026-05-10 20:20:18.610;0,8073103819324206;-0,7878377350713348;0,9442082031841266;-1,5245425275903293;-2,6961743443289357;2,584220087360508
524;2026-05-10 20:20:18.620;1,0253774068695893;-0,7692763502821006;1,059802322932857;-1,5806606074156482;-3,030385199948021;2,960508839312229
525;2026-05-10 20:20:18.630;1,243444431806758;-0,7507149654928664;1,1753964426815877;-1,6367786872409673;-3,3645960555671066;3,3367975912639496
526;2026-05-10 20:20:18.640;1,4615058742995437;-0,7321540558690007;1,2909876032587302;-1,6928953304618313;-3,6987983554978014;3,713076710346921
527;2026-05-10 20:20:18.650;1,6795673167923293;-0,7135931462451349;1,4065787638358724;-1,7490119736826955;-4,033000655428496;4,089355829429892
528;2026-05-10 20:20:18.660;1,897634341729498;-0,6950317614559007;1,5221728835846031;-1,8051300535080146;-4,367211511047581;4,465644581381613
529;2026-05-10 20:20:18.670;2,1157013666666664;-0,6764703766666665;1,6377670033333336;-1,8612481333333335;-4,701422366666667;4,841933333333333
530;2026-05-10 20:20:18.680;1,2952914144999998;-0,1620847615;0,9956227499999999;0,13105677;-2,9319787;5,278975
531;2026-05-10 20:20:18.690;1,4067785735947962;-0,1505259182734495;1,5865592145552445;-0,8523089036776803;-1,3217304819213571;4,739555339546711
532;2026-05-10 20:20:18.700;1,5182685867973982;-0,13896677913672476;2,1775108072776224;-1,83569975183884;0,2885589590393216;4,200121869773356
533;2026-05-10 20:20:18.710;1,6297586;-0,12740764;2,7684624;-2,8190906;1,8988484;3,6606884
534;2026-05-10 20:20:18.720;1,55130132926592;-0,136602869799552;2,7459252134796803;-2,091018398193472;1,4453129478280962;2,713300921714944
535;2026-05-10 20:20:18.730;1,47284405853184;-0,145798099599104;2,72338802695936;-1,3629461963869438;0,991777495656192;1,7659134434298882
536;2026-05-10 20:20:18.740;1,39438477926592;-0,154993564799552;2,7008502634796803;-0,6348553556934717;0,538230432828096;0,8185017117149441
537;2026-05-10 20:20:18.750;1,3159255;-0,16418903;2,6783125;0,093235485;0,08468337;-0,12891002
538;2026-05-10 20:20:18.760;2,2397847;-1,3958424;0,17970619;0,093235485;0,08468337;-0,12891002
539;2026-05-10 20:20:18.770;1,5437628091942401;-0,781807144751872;1,027355944944256;0,198905089911744;0,989625001598848;1,306744613385472
540;2026-05-10 20:20:18.780;0,8477231;-0,16775617;1,8750274;0,3045774;1,8945898;2,742436
541;2026-05-10 20:20:18.790;0,94784707;-0,18420367;1,7759676;1,3953209;2,6520977;3,1869364
542;2026-05-10 20:20:18.800;2,151814785;-0,579926385;1,26832845;0,698227682;1,3268691547499998;1,593677639515
543;2026-05-10 20:20:18.810;3,3557825;-0,9756491;0,7606893;0,001134464;0,0016406095;0,00041887903
544;2026-05-10 20:20:18.820;0,9110257;-0,27726465;1,8121866;0,010192723;0,009616764;-0,03415609
545;2026-05-10 20:20:18.830;0,44907358808865283;-0,13904203629319067;1,396529809661184;0,010192723;0,009616764;-0,03415609
546;2026-05-10 20:20:18.840;-0,012866698;-0,00082296104;0,98088366;0,010192723;0,009616764;-0,03415609
547;2026-05-10 20:20:18.850;0,79824;-0,346163;1,8508561;-0,0004712389;-0,001553343;-0,00010471976
548;2026-05-10 20:20:18.860;0,84565358188608;-0,3275743870688;1,8430439500057598;-0,000340337529483904;-0,0011606389004518655;-0,00023562112051596799
549;2026-05-10 20:20:18.870;0,89306716377216;-0,3089857741376;1,83523180001152;-0,00020943615896780798;-0,0007679348009037311;-0,000366522481031936
550;2026-05-10 20:20:18.880;0,94047953188608;-0,2903976370688;1,82741985000576;-7,853813948390399e-05;-0,00037524075445186545;-0,000497420490515968
551;2026-05-10 20:20:18.890;0,9878919;-0,2718095;1,8196079;5,235988e-05;1,7453292e-05;-0,0006283185
