id,timestamp,acc_x,acc_y,acc_z,gyro_x,gyro_y,gyro_z
0,0.0,-0.1313028,0.2037878,1.104359,-0.05681047,-1.5180001,0.27550024
1,0.01,0.00024405724,0.136428,1.1343781,0.18325958,-1.6890424,-0.21380283
2,0.02,-0.026358181379999998,0.109337647,1.12900885,0.17745636,-0.79534655,-0.784351015
3,0.03,-0.05296042,0.082247294,1.1236396,0.17165314,0.0983493,-1.3548992
4,0.04,-0.27846932,0.059549972,1.0636015,-0.027488936,0.6065892,-1.5845845
5,0.05,-0.30885446,0.075901806,1.0490801,-0.17348573799999997,0.5922338650000001,-1.6242907
6,0.06,-0.3392396,0.09225364,1.0345587,-0.31948254,0.57787853,-1.6639969
7,0.07,-0.4724948,0.122272685,0.91472656,-0.57848936,-0.20341812,-1.5552629
8,0.08,-0.43002886500000004,0.04917753750000001,0.96366003,-0.67134088,-0.88636546,-1.5030339499999998
9,0.09,-0.38756293,-0.02391761,1.0125935,-0.7641924,-1.5693128,-1.450805
10,0.1,-0.34192422,0.014887493,1.0130817,-0.79168135,-3.6438112,-1.1808025
11,0.11,-0.27554062,0.050763905,0.92814976,-0.80573124,-4.106236,-1.0726794
12,0.12,-0.250402725,0.0741934025,0.9637820800000001,-0.77549342,-4.1376954999999995,-1.02839165
13,0.13,-0.22526483,0.0976229,0.9994144,-0.7452556,-4.169155,-0.9841039
14,0.14,-0.01696197499999999,0.02574804,1.0185729000000001,-0.30176743,-2.129476095,-0.7828238000000001
15,0.15,0.19134088,-0.04612682,1.0377314,0.14172074,-0.08979719,-0.5815437
16,0.16,0.3065359,-0.36681804,0.76072645,-0.16676621,0.48808134,-0.5766568
17,0.17,0.26114125499999996,-0.39695912,0.656513975,-0.485637855,0.629496635,-0.6386596149999999
18,0.18,0.21574661,-0.4271002,0.5523015,-0.8045095,0.77091193,-0.70066243
19,0.19,0.1038463605,-0.41855819,0.49311764999999996,-1.40193575,1.223868465,-0.825584365
20,0.2,-0.008053889,-0.41001618,0.4339338,-1.999362,1.676825,-0.9505063
21,0.21,-0.42417148,-0.21794313,0.93888825,-2.9132164,2.7293458,-1.3652838
22,0.22,-0.55169139,-0.162298075,1.086908975,-2.6740626499999998,1.7082846,-1.3439035000000001
23,0.23,-0.6792113,-0.10665302,1.2349297,-2.4349089,0.6872234,-1.3225232
24,0.24,-0.9830626,0.09152147,1.7586764,-1.9865338,-0.15454891,-1.1404854
25,0.25,-0.817835825,0.084809895,2.0128622,-0.9929614673749999,-0.7666359050000001,-0.8463537999999999
26,0.26,-0.65260905,0.07809832,2.267048,0.00061086525,-1.3787229,-0.5522222
27,0.27,-0.55669457,0.39756927,2.3370922,3.2015448,-3.1477885,-0.48380527
28,0.28,-0.5433934650000001,0.49531418499999996,2.4449655,3.26812915,-2.70216235,-0.651487785
29,0.29,-0.53009236,0.5930591,2.5528388,3.3347135,-2.2565362,-0.8191703
30,0.3,-0.535827695,0.69519705,2.3812666,3.0509665,-1.5525140250000002,-1.12185405
31,0.31,-0.54156303,0.797335,2.2096944,2.7672195,-0.84849185,-1.4245378
32,0.32,-0.593303165,0.8842194,2.2286087,2.5372287499999997,-0.01588252500000009,-1.3619240499999998
33,0.33,-0.6450433,0.9711038,2.247523,2.307238,0.8167268,-1.2993103
34,0.34,-0.87079626,1.257383,3.2161865,2.003638,2.892447,-0.36285394
35,0.35,-0.69495298,1.08849535,3.5366336,2.5619688,2.9098567,-0.36529740499999996
36,0.36,-0.5191097,0.9196077,3.8570807,3.1202996,2.9272664,-0.36774087
37,0.37,-0.26651052,0.5435155,4.0908875,3.1202996,2.9272664,-0.36774087
38,0.38,-0.11909993999999999,0.388905225,4.00388105,4.2430699999999995,2.14596965,-0.451734835
39,0.39,0.02831064,0.23429495,3.9168746,5.3658404,1.3646729,-0.5357288
40,0.4,0.0582076525,0.137648284,3.824499,5.3459872,0.80573123,-0.49785516500000004
41,0.41,0.088104665,0.041001618,3.7321234,5.326134,0.24678956,-0.45998153
42,0.42,-0.025503987500000005,-0.15607461100000003,3.6291313499999998,5.326134,0.24678956,-0.45998153
43,0.43,-0.13911264,-0.35315084,3.5261393,5.326134,0.24678956,-0.45998153
44,0.44,0.3184947,-0.8161274,3.1168551,5.9547143,3.4532213,-0.2003638
45,0.45,0.34582911000000005,-0.84187545,2.9134333999999997,6.172182299999999,3.9354994,-0.167682505
46,0.46,0.37316352,-0.8676235,2.7100117,6.3896503,4.4177775,-0.13500121
47,0.47,0.23819989,-0.8573731,1.9426957,6.3487225,4.713436,-0.077579886
48,0.48,0.1472885575,-0.825035535,1.6887541000000001,6.26075795,4.65601485,-0.0653625805
49,0.49,0.056377225,-0.79269797,1.4348125,6.1727934,4.5985937,-0.053145275
50,0.5,0.037218731000000005,-0.704105185,1.2413971,5.893322449999999,3.91534085,-0.0360410485
51,0.51,0.018060237,-0.6155124,1.0479817,5.6138515,3.232088,-0.018936822
52,0.52,0.15839315850000002,-0.6157564499999999,1.07470605,5.4510559999999995,2.56868835,-0.08796459100000001
53,0.53,0.29872608,-0.6160005,1.1014304,5.2882605,1.9052887,-0.15699236
54,0.54,0.4702983,-0.70190865,1.2271198,5.258328,0.9053023,-0.6102544
55,0.55,0.569385535,-0.884829575,1.26385045,5.414404149999999,1.0687087,-0.8423832
56,0.56,0.66847277,-1.0677505,1.3005811,5.5704803,1.2321151,-1.074512
57,0.57,0.66871682,-1.0754383,1.223459,5.69723485,1.2880093,-1.13407135
58,0.58,0.66896087,-1.0831261,1.1463369,5.8239894,1.3439035,-1.1936307
59,0.59,0.63308454,-1.1121689,1.0431006,6.9620314,1.2131784,-1.4581354
60,0.6,0.562674005,-1.1118028,0.9111877,7.13185195,0.95814215,-1.4633277
61,0.61,0.49226347,-1.1114367,0.7792748,7.3016725,0.7031059,-1.46852
62,0.62,0.49226347,-1.1114367,0.7792748,7.298618,0.21746802,-1.4471397
63,0.63,0.6099804133333333,-0.99973985,0.5662128200000001,7.063027666666667,-0.10629055333333329,-1.5408057
64,0.64,0.7276973566666667,-0.888043,0.35315084,6.827437333333333,-0.4300491266666666,-1.6344717
65,0.65,0.8454143,-0.77634615,0.14008886,6.591847,-0.7538077,-1.7281377
66,0.66,0.7912336,-0.7573096,-0.010006348,6.2992425,-0.5681047,-2.0616703
67,0.67,0.7508421249999999,-0.73863923,-0.095914504,5.8936279,-0.28466321525,-2.24981675
68,0.68,0.71045065,-0.71996886,-0.18182266,5.4880133,-0.0012217305,-2.4379632
69,0.69,0.20744865,-0.46224442,-0.5920829,4.0317106,1.0659598,-2.1386392
70,0.7,0.13081468000000002,-0.49641244,-0.62393235,3.3487632,1.0659598,-2.012801
71,0.71,0.05418071,-0.53058046,-0.6557818,2.6658158,1.0659598,-1.8869628
72,0.72,-0.08664032000000002,-0.44320796500000004,-0.57268032,2.7186557000000002,0.62308252,-1.82893055
73,0.73,-0.22746135,-0.35583547,-0.48957884,2.7714956,0.18020524,-1.7708983
74,0.74,-0.183287,-0.2403964,-0.54034275,3.0848694,-0.5626069,-1.7537941
75,0.75,-0.08859278435000001,-0.07053255,-0.782325525,3.2754594,-1.48012655,-1.9758436
76,0.76,0.0061014313,0.0993313,-1.0243083,3.4660494,-2.3976462,-2.1978931
77,0.77,-0.02037878035,0.21891935,-1.342803,3.2149838,-2.41872095,-2.3218988
78,0.78,-0.046858992,0.3385074,-1.6612977,2.9639182,-2.4397957,-2.4459045
79,0.79,-0.28749946,0.4131889,-2.1084106,-0.8081747,-0.31398472,-1.9975294
80,0.8,-0.20732664499999998,0.32227758,-1.9974866,-1.2843442,0.022296590000000005,-1.97004045
81,0.81,-0.12715383,0.23136626,-1.8865626,-1.7605137,0.3585779,-1.9425515
82,0.82,-0.251989105,0.06455313699999998,-1.6592232500000001,-2.3451117,1.10627695,-2.45812175
83,0.83,-0.37682438,-0.102259986,-1.4318839,-2.9297097,1.853976,-2.973692
84,0.84,-0.8578612,-0.2848148,-1.0477377,-2.2693644,2.3322835,-3.490484
85,0.85,-1.5148633500000002,-0.4446723,-0.81576132,-1.3695598900000001,2.2785273999999998,-3.3105842
86,0.86,-2.1718655,-0.6045298,-0.58378494,-0.46975538,2.2247713,-3.1306844
87,0.87,-2.30670705,-0.624420465,-0.691048085,0.19517142999999998,1.53082835,-2.6481008499999996
88,0.88,-2.4415486,-0.64431113,-0.79831123,0.86009824,0.8368854,-2.1655173
89,0.89,-2.4415486,-0.64431113,-0.79831123,0.86009824,0.8368854,-2.1655173
90,0.9,-2.3563726999999997,-0.64394504,-1.303265665,0.80603667,0.470366247,-1.102306338
91,0.91,-2.2711968,-0.64357895,-1.8082201,0.7519751,0.103847094,-0.039095376
92,0.92,-1.8394594999999998,-0.502147775,-1.6744767999999999,0.43188172,0.169820537,0.631023762
93,0.93,-1.4077222,-0.3607166,-1.5407335,0.11178834,0.23579398,1.3011429
94,0.94,-0.920950025,-0.263825875,-1.3750186,-0.35888333000000006,-0.02412918,1.82495985
95,0.95,-0.43417785,-0.16693515,-1.2093037,-0.829555,-0.28405234,2.3487768
96,0.96,0.08127106,-0.05759751,-0.91106576,-1.1239921,-0.32742378,2.339003
97,0.97,0.5404647650000001,0.05466882,-0.5025139,-1.2293663000000001,-0.225103847,2.10504165
98,0.98,0.99965847,0.16693515,-0.09396204,-1.3347405,-0.122783914,1.8710803
99,0.99,0.9349833,0.16571487,0.43466598,-1.346347,0.10629055,0.68477994
100,1.0,0.8249135,0.1105579335,0.508493305,-1.19973935,0.0714712315,0.40225476299999996
101,1.01,0.7148437,0.055400997,0.58232063,-1.0531317,0.036651913,0.119729586
102,1.02,0.67286585,0.017938208500000004,0.581588445,-0.85979283,-0.0222965835,-0.057115901999999996
103,1.03,0.630888,-0.01952458,0.58085626,-0.66645396,-0.08124508,-0.23396139
104,1.04,0.630888,-0.01952458,0.58085626,-0.56535578,-0.12492194,-0.33628132499999996
105,1.05,0.630888,-0.01952458,0.58085626,-0.4642576,-0.1685988,-0.43860126
106,1.06,0.3487578,-0.15961345,0.40123013,-0.28893927,-0.29260445,-0.657291
107,1.07,0.1659589245,-0.176209335,0.227339335,0.12644909,-0.630412925,-0.8787296499999999
108,1.08,-0.016839951,-0.19280522,0.05344854,0.54183745,-0.9682214,-1.1001683
109,1.09,-0.14423785,-0.20281157,-0.12593354,0.7031059,-1.0995574,-1.0769554
110,1.1,-0.24283697,-0.21306199,-0.33118567,0.8219192,-1.0622946500000001,-0.850019
111,1.11,-0.36999078500000004,-0.221726015,-0.5702397349999999,0.83092945,-1.0265590500000001,-0.67302079
112,1.12,-0.4971446,-0.23039004,-0.8092938,0.8399397,-0.99082345,-0.49602258
113,1.13,-0.7387613,-0.35485923,-1.2183337,0.18997909,-0.9804387,0.14355333
114,1.14,-0.7458389649999999,-0.352174615,-1.2298044,0.08979719,-1.05740775,0.234266825
115,1.15,-0.75291663,-0.34949,-1.2412751,-0.01038471,-1.1343768,0.32498032
116,1.16,-0.76243484,-0.35363895,-1.1944162,-0.07513642,-1.3115277,0.44959682
117,1.17,-0.86615917,-0.37450585000000003,-1.26458265,-0.06444628,-1.3576480000000002,0.58276543
118,1.18,-0.9698835,-0.39537275,-1.3347491,-0.05375614,-1.4037683,0.71593404
119,1.19,-0.9859912500000001,-0.461512275,-1.3701374,-0.10659598,-1.153619,0.9914342700000001
120,1.2,-1.002099,-0.5276518,-1.4055257,-0.15943582,-0.9034697,1.2669345
121,1.21,-1.07434,-0.56987363,-1.3669646,-0.17837265,-0.81000733,1.3548992
122,1.22,-1.1864843,-0.605506015,-1.29557785,0.114231795,-0.637132465,1.5283848999999998
123,1.23,-1.2986286,-0.6411384,-1.2241911,0.40683624,-0.4642576,1.7018706
124,1.24,-1.2986286,-0.6411384,-1.2241911,0.67347892,-0.672257215,2.0256290999999997
125,1.25,-1.2986286,-0.6411384,-1.2241911,0.9401216,-0.88025683,2.3493876
126,1.26,-1.2412751,-0.8947139,-1.4047935,1.0409144,-1.1459832,2.883895
127,1.27,-1.2412751,-0.8947139,-1.4047935,0.84391035,-1.3558154,3.7705658
128,1.28,-1.2412751,-0.8947139,-1.4047935,0.6469063,-1.5656476,4.6572366
129,1.29,-0.19256116,-1.0853225,-1.1873385,0.03726278,-1.7263051,6.3481116
130,1.3,-0.10225998000000001,-1.0828819333333333,-1.1764372666666667,-0.09875654666666667,-1.8352427333333334,6.6620964
131,1.31,-0.01195880000000002,-1.0804413666666668,-1.1655360333333333,-0.23477587333333333,-1.9441803666666666,6.9760812
132,1.32,0.07834238,-1.0780008,-1.1546348,-0.3707952,-2.053118,7.290066
133,1.33,1.125348,-0.99184865,-1.2332213,-0.6743952,-2.207667,7.6309285
134,1.34,1.3291358,-0.97378844,-1.2570169,-2.09954385,-2.6429085,8.16360325
135,1.35,1.5329236,-0.95572823,-1.2808125,-3.5246925,-3.07815,8.696278
136,1.36,1.8836339,-0.9440134,-1.2527459,-4.665178,-3.536299,8.796459
137,1.37,2.2660716,-1.0825159,-0.952677475,-5.4428095,-3.7937785,8.8236425
138,1.38,2.6485093,-1.2210184,-0.65260905,-6.220441,-4.051258,8.850826
139,1.39,3.8268178,-1.6769173,0.4807928,-9.282708,-4.502688,7.7866993
140,1.4,3.9233424,-1.7517208499999999,1.3972278,-9.631207,-4.3554692500000005,6.8368039
141,1.41,4.019867,-1.8265244,2.3136628,-9.979706,-4.2082505,5.8869085
142,1.42,3.6979553999999997,-1.74098235,2.5336803999999997,-9.5905845,-2.87137195,4.8991394
143,1.43,3.3760438,-1.6554403,2.753698,-9.201463,-1.5344934,3.9113703
144,1.44,2.6014063,-1.257383,2.669742,-8.370687,-0.6792821,2.7079656
145,1.45,2.5230639,-1.20247005,2.63166925,-7.816326500000001,-0.98196585,1.9226983500000001
146,1.46,2.4447215,-1.1475571,2.5935965,-7.261966,-1.2846496,1.1374311
147,1.47,1.9616101499999998,-0.9326647299999999,2.26277685,-6.64926825,-2.3677137000000004,0.49938235
148,1.48,1.4784988,-0.71777236,1.9319572,-6.0365705,-3.4507778,-0.1386664
149,1.49,1.4784988,-0.71777236,1.9319572,-6.0365705,-3.4507778,-0.1386664
150,1.5,1.4784988,-0.71777236,1.9319572,-6.0365705,-3.4507778,-0.1386664
151,1.51,1.2900866,-0.68116378,1.96453885,-6.377433249999999,-3.2183435,-0.20005836
152,1.52,1.1016744,-0.6445552,1.9971205,-6.718296,-2.9859092,-0.26145032
153,1.53,0.8917852,-0.6028214,2.0998685,-6.813591,-2.057394,-0.4990769
154,1.54,0.45406851699999995,-0.49092115,2.19492875,-6.6996645,-1.21837066,-0.83444195
155,1.55,0.016351834,-0.3790209,2.289989,-6.585738,-0.37934732,-1.169807
156,1.56,-0.950359,0.10030753,2.643872,-6.390261,-0.2919936,-1.033584
157,1.57,-0.950359,0.10030753,2.643872,-6.390261,-0.2919936,-1.033584
158,1.58,-0.950359,0.10030753,2.643872,-6.390261,-0.2919936,-1.033584
159,1.59,-0.9032559499999999,0.34143608999999997,3.5485925,-5.2305335,-1.6936239,-0.46761735000000004
160,1.6,-0.8561529,0.58256465,4.453313,-4.070806,-3.0952542,0.0983493
161,1.61,-0.5215503735,0.553887925,4.871565875,-3.5979963,-3.8643336,0.214871855
162,1.62,-0.186947847,0.5252112,5.28981875,-3.1251866,-4.633413,0.33139441000000003
163,1.63,0.020744866,0.48494175,5.5606003,-2.7000244,-5.145929,0.36896262
164,1.64,0.611241383,0.14802072500000002,6.69034115,-2.33778135,-3.4746015999999997,0.48685961
165,1.65,1.2017379,-0.1889003,7.820082,-1.9755383,-1.8032742,0.6047566
166,1.66,1.240543,-0.34387666,7.98897,-0.46731192,1.7275269,0.906524
167,1.67,1.19173155,-0.39976577999999996,7.556744500000001,0.7663304400000002,2.92848795,1.03175135
168,1.68,1.1429201,-0.4556549,7.124519,1.9999728,4.129449,1.1569787
169,1.69,1.15292645,-0.39281014,6.451775400000001,3.3060026000000002,4.4101415,1.1866056999999999
170,1.7,1.1629328,-0.32996538,5.7790318,4.6120324,4.690834,1.2162327
171,1.71,1.1694003,-0.27566265,5.0307522,4.9141054,4.8496592,1.1215486000000001
172,1.72,1.1758678,-0.22135992,4.2824726,5.2161784,5.0084844,1.0268645
173,1.73,1.1912434,-0.33240595,3.6515844,5.442809,6.62911,1.106277
174,1.74,1.1912434,-0.33240595,3.6515844,5.442809,6.62911,1.106277
175,1.75,1.1912434,-0.33240595,3.6515844,5.442809,6.62911,1.106277
176,1.76,1.2817887,-0.45321432,3.5305321,5.442809,6.62911,1.106277
177,1.77,1.5879585,-0.8606679099999999,3.3808030000000002,6.287025,6.809620499999999,1.0671816
178,1.78,1.8941283,-1.2681215,3.2310739,7.131241,6.990131,1.0280862
179,1.79,2.0124962,-1.5673357,3.0538883,8.70483,6.413474,0.68294734
180,1.8,2.1054006333333333,-1.8818442,2.6385029,9.672236999999999,5.816862333333333,0.21298834
181,1.81,2.198305066666667,-2.1963527,2.2231175,10.639644,5.220250666666667,-0.25697066
182,1.82,2.2912095,-2.5108612,1.8077321,11.607051,4.623639,-0.72692966
183,1.83,1.9800364,-2.6031146,0.8473667,11.836736,3.2339206,-1.563815
184,1.84,1.9196322499999998,-2.5508864,0.77109885,11.698069499999999,2.8518244,-1.80938285
185,1.85,1.8592281,-2.4986582,0.694831,11.559403,2.4697282,-2.0549507
186,1.86,1.7445213,-2.3378243,0.626495,10.701138,1.4129313,-2.9064968
187,1.87,1.68167655,-2.2481333,0.6035536,10.5062715,1.23639125,-3.0454687
188,1.88,1.6188318,-2.1584423,0.5806122,10.311405,1.0598512,-3.1844406
189,1.89,1.4509203,-1.8746037,0.5613316,9.784228,0.6462954,-3.531412
190,1.9,1.4057697,-1.6529997333333333,0.5181334900000001,8.8730209,0.45570545333333334,-3.857614
191,1.91,1.3606190999999999,-1.4313957666666668,0.47493538,7.961813800000001,0.26511550666666667,-4.183816
192,1.92,1.3154685,-1.2097918,0.43173727,7.0506067,0.07452556,-4.510018
193,1.93,1.2725145,-0.856885,0.31751847,5.0231447,1.3017539,-4.845994
194,1.94,1.150852,-0.8334555,0.270537455,4.67556235,1.65911,-4.74153615
195,1.95,1.0291895,-0.810026,0.22355644,4.32798,2.0164661,-4.6370783
196,1.96,0.63186425,-0.7558453,0.14277348,3.8967094,2.5277603,-4.3047676
197,1.97,0.09127743500000007,-0.722897585,0.096646665,3.7623190500000003,2.6141977499999998,-3.05188285
198,1.98,-0.44930938,-0.68994987,0.05051985,3.6279287,2.7006352,-1.7989981
199,1.99,0.33533466,-0.8027043,-1.1780643,3.980398,0.48624873,-0.5204572
200,2.0,0.50544256,-0.789769275,-1.36061915,3.8789944,-0.27214043499999996,-0.55649825
201,2.01,0.67555046,-0.77683425,-1.543174,3.7775908,-1.0305296,-0.5925393
202,2.02,0.7233856599999999,-0.7529166249999999,-1.8626449,2.66306715,-1.70614665,-1.4004086500000001
203,2.03,0.77122086,-0.728999,-2.1821158,1.5485435,-2.3817637,-2.208278
204,2.04,0.5227706,-1.6246891,-2.2314155,-0.5662721,-0.41599923,-2.0842721
205,2.05,0.5227706,-1.6246891,-2.2314155,-0.5662721,-0.41599923,-2.0842721
206,2.06,0.5227706,-1.6246891,-2.2314155,-0.5662721,-0.41599923,-2.0842721
207,2.07,-0.29116032,-1.7408603,-2.195539,-2.5827382,3.1850514,-1.690875
208,2.08,-0.49128726,-1.72731515,-2.1251284999999998,-2.6053402500000002,3.3127221999999996,-1.73241385
209,2.09,-0.6914142,-1.71377,-2.054718,-2.6279423,3.440393,-1.7739527
210,2.1,-1.1049285333333334,-1.7110853666666668,-1.9663692666666666,-2.1140010333333334,3.1740557666666667,-1.6642005666666666
211,2.11,-1.5184428666666667,-1.7084007333333333,-1.8780205333333333,-1.6000597666666667,2.907718533333333,-1.5544484333333333
212,2.12,-1.9319572,-1.7057161,-1.7896718,-1.0861185,2.6413813,-1.4446963
213,2.13,-2.1257386,-1.722556,-1.7979698,0.21868975,0.83260936,0.06169739
214,2.14,-2.03836605,-1.701079,-1.7652660500000001,0.576656795,0.31184672,0.910494645
215,2.15,-1.9509935,-1.679602,-1.7325623,0.93462384,-0.20891592,1.7592919
216,2.16,-1.4289552,-1.5563531,-1.7537954,1.0867293,-0.2846632,2.574797
217,2.17,-1.1731832,-1.5022943500000001,-1.7370775,0.90224797,-0.222965815,3.45932975
218,2.18,-0.9174112,-1.4482356,-1.7203596,0.71776664,-0.16126843,4.3438625
219,2.19,-0.6487042,-1.4021089,-1.6905845,0.38362336,-0.26450464,4.800179
220,2.2,-0.467857765,-1.3553312666666666,-1.6467355666666665,0.23986641100000003,-0.32477668,4.907895
221,2.21,-0.28701133,-1.3085536333333334,-1.6028866333333334,0.09610946200000003,-0.38504872,5.015611
222,2.22,-0.106164895,-1.261776,-1.5590377,-0.047647487,-0.44532076,5.123327
223,2.23,0.9947773,-1.1402354,-0.40830776,-2.1905627,-1.8112154,6.018855
224,2.24,0.9947773,-1.1402354,-0.40830776,-2.1905627,-1.8112154,6.018855
225,2.25,0.9947773,-1.1402354,-0.40830776,-2.1905627,-1.8112154,6.018855
226,2.26,1.4301754,-1.108508,0.024405725,-3.6816847,-2.4782803,6.66454
227,2.27,1.6903405,-1.032240125,0.22355643249999999,-3.9400808499999997,-2.3732115,6.577797
228,2.28,1.9505056,-0.95597225,0.42270714,-4.198477,-2.2681427,6.491054
229,2.29,2.1977355,-0.8847075,0.5806122,-4.522846,-2.1612413,6.287025
230,2.3,2.1766652,-0.8531427666666667,0.6487855233333334,-4.94923,-1.8606955666666667,5.817066
231,2.31,2.1555949,-0.8215780333333333,0.7169588466666666,-5.375614000000001,-1.5601498333333335,5.347107
232,2.32,2.1345246,-0.7900133,0.78513217,-5.801998,-1.2596041,4.877148
233,2.33,2.0303123,-0.77048874,0.84150934,-5.801998,-1.2596041,4.877148
234,2.34,1.92085265,-0.80355847,0.88934457,-6.349944300000001,-1.12796265,4.17068235
235,2.35,1.811393,-0.8366282,0.9371798,-6.8978906,-0.9963212,3.4642167
236,2.36,1.7279254,-0.9088692,1.104115,-6.8978906,-0.9963212,3.4642167
237,2.37,1.6464102999999999,-0.9575586500000001,1.151096,-7.2885387999999995,-1.21470555,2.85976565
238,2.38,1.5648952,-1.0062481,1.198077,-7.679187,-1.4330899,2.2553146
239,2.39,1.2949678,-1.0804414,1.5751455,-7.905818,-1.4831808,2.0066924
240,2.4,1.2638098333333334,-1.0802787,1.6584503666666668,-7.983601666666667,-1.4577281,1.9073249666666665
241,2.41,1.2326518666666666,-1.0801159999999999,1.7417552333333333,-8.061385333333334,-1.4322754,1.8079575333333333
242,2.42,1.2014939,-1.0799533,1.8250601,-8.139169,-1.4068227,1.7085901
243,2.43,0.8495633,-0.73729694,2.1906579,-6.932099,-0.5516113,1.3139712
244,2.44,0.8495633,-0.73729694,2.1906579,-6.932099,-0.5516113,1.3139712
245,2.45,0.8495633,-0.73729694,2.1906579,-6.932099,-0.5516113,1.3139712
246,2.46,0.74510676,-0.4876264,2.2109146,-5.9797597,-0.8136725,1.097114
247,2.47,0.72021293,-0.38805105,2.2218971,-5.7806177000000005,-1.1249083500000001,1.12582465
248,2.48,0.6953191,-0.2884757,2.2328796,-5.5814757,-1.4361442,1.1545353
249,2.49,0.8005078,0.613804,2.254845,-6.1532454,-2.5247061,1.069625
250,2.5,0.7494998333333334,0.7621094666666667,2.5246909333333334,-6.739268933333333,-2.5424211666666667,0.8961393000000001
251,2.51,0.6984918666666666,0.9104149333333333,2.794536866666667,-7.325292466666667,-2.560136233333333,0.7226536000000001
252,2.52,0.6474839,1.0587204,3.0643828,-7.911316,-2.5778513,0.5491679
253,2.53,0.4271002,0.6325964,5.0502768,-10.263147,-1.3469579,0.6542367
254,2.54,0.4271002,0.6325964,5.0502768,-10.263147,-1.3469579,0.6542367
255,2.55,0.4271002,0.6325964,5.0502768,-10.263147,-1.3469579,0.6542367
256,2.56,0.5264315,0.5432714,7.98897,-9.019425,0.05375614,1.1972959
257,2.57,0.23563728,0.69312255,7.98897,-5.7219745,-0.155465205,1.036638315
258,2.58,-0.05515694,0.8429737,7.98897,-2.424524,-0.36468655,0.87598073
259,2.59,0.21757704500000002,0.93010215,7.98897,0.0534507500000001,-0.605062025,0.985325615
260,2.6,0.49031103,1.0172306,7.98897,2.5314255,-0.8454375,1.0946705
261,2.61,0.900327215,0.9147265499999999,7.40128025,4.89913925,0.8451320000000001,0.5409211650000001
262,2.62,1.3103434,0.8122225,6.8135905,7.266853,2.5357015,-0.01282817
263,2.63,0.99404514,0.17059602,3.393616,8.100073,4.723821,-0.9120218
264,2.64,0.99404514,0.17059602,3.393616,8.100073,4.723821,-0.9120218
265,2.65,0.99404514,0.17059602,3.393616,8.100073,4.723821,-0.9120218
266,2.66,0.99404514,0.17059602,3.393616,8.100073,4.723821,-0.9120218
267,2.67,0.78757274,-0.8000197,2.2140872,6.8649035,5.8007765,-1.3952162
268,2.68,0.78757274,-0.8000197,2.2140872,6.927517249999999,5.65416875,-1.3790282999999999
269,2.69,0.78757274,-0.8000197,2.2140872,6.990131,5.507561,-1.3628404
270,2.7,0.9384000933333333,-1.1390966,2.1078409666666666,7.2735725,5.1742322,-1.3748540666666667
271,2.71,1.0892274466666667,-1.4781735,2.0015947333333335,7.557014,4.8409034,-1.3868677333333335
272,2.72,1.2400548,-1.8172504,1.8953485,7.8404555,4.5075746,-1.3988814
273,2.73,1.2363939,-1.892664,1.7542835,9.017592,3.3554828,-1.8185458
274,2.74,1.24871885,-1.922683,1.6638603,9.125104499999999,3.218649,-1.9168951500000002
275,2.75,1.2610438,-1.952702,1.5734371,9.232617,3.0818152,-2.0152445
276,2.76,1.1712307,-1.8750918,1.2156491,9.2851515,2.8985555,-2.456289
277,2.77,1.1035048,-1.7192612999999999,1.014667975,8.69169625,2.5109615,-2.8787024
278,2.78,1.0357789,-1.5634308,0.81368685,8.098241,2.1233675,-3.3011158
279,2.79,1.11485345,-1.40857645,1.114121325,7.367035,1.68690435,-3.5256087999999997
280,2.8,1.193928,-1.2537221,1.4145558,6.635829,1.2504412,-3.7501018
281,2.81,1.2632403,-1.25604065,1.5840536,6.077192800000001,1.4975361999999999,-3.8267654
282,2.82,1.3325526,-1.2583592,1.7535514,5.5185566,1.7446312,-3.903429
283,2.83,1.5368285,-1.1531705,1.4841121,5.191744,3.4733799,-3.6322048
284,2.84,1.5032706,-1.1326697000000001,1.3254749000000001,5.0958380000000005,4.02438045,-3.5756997
285,2.85,1.4697127,-1.1121689,1.1668377,4.999932,4.575381,-3.5191946
286,2.86,1.458242,-1.0736078,0.7990434,4.4635925,5.2687125,-3.3060026
287,2.87,1.23517375,-0.985625175,0.492385485,4.3838744,4.7986519,-3.3255502999999997
288,2.88,1.0121055,-0.89764255,0.18572757,4.3041563,4.3285913,-3.345098
289,2.89,1.0982576000000002,-0.8917851750000001,-0.17547716500000005,4.4284675,2.7204884500000004,-3.28828765
290,2.9,1.1844097,-0.8859278,-0.5366819,4.5527787,1.1123856,-3.2314773
291,2.91,0.94950465,-0.9165570000000001,-1.62285875,4.5527787,1.1123856,-3.2314773
292,2.92,0.7145996,-0.9471862,-2.7090356,4.5527787,1.1123856,-3.2314773
293,2.93,0.09493827,-0.90447617,-3.4787917,0.312763,1.7085901,-2.6224444
294,2.94,0.43576422,-1.103626835,-3.2979455,-0.24159720000000007,1.6264287,-2.3930645
295,2.95,0.77659017,-1.3027775,-3.1170993,-0.7959574,1.5442673,-2.1636846
296,2.96,0.7236297,-1.2176017,-2.6978087,-1.2974777,1.7550159,-2.162463
297,2.97,0.48555187,-1.31632285,-2.49694965,-1.0002917999999998,1.8112155,-2.0812179
298,2.98,0.24747404,-1.415044,-2.2960906,-0.7031059,1.8674151,-1.9999728
299,2.99,-0.26077518000000005,-1.4567778,-2.2890129,-0.15118915,1.71592055,-1.64628185
300,3.0,-0.7690244,-1.4985116,-2.2819352,0.4007276,1.564426,-1.2925909
301,3.01,-0.98635735,-1.521819,-2.4912144,0.99112885,1.4391986,-0.80145522
302,3.02,-1.2036903,-1.5451264,-2.7004936,1.5815301,1.3139712,-0.31031954
303,3.03,-1.3401184,-1.5873483,-3.1871436,1.7110336,0.08979719,1.8967366
304,3.04,-1.308757,-1.5658713,-3.1251531000000004,1.36161865,-0.04703662,2.5802948
305,3.05,-1.2773956,-1.5443943,-3.0631626,1.0122037,-0.18387043,3.263853
306,3.06,-0.5691415,-1.4936304,-2.6741354,0.12705997,-0.8753699,4.6944995
307,3.07,-0.267852828,-1.43383635,-2.4902382000000003,-0.5885686649999999,-1.73638445,5.26596375
308,3.08,0.033435844,-1.3740423,-2.306341,-1.3041973,-2.597399,5.837428
309,3.09,0.033435844,-1.3740423,-2.306341,-1.6200146,-2.9031371,5.9406645000000005
310,3.1,0.033435844,-1.3740423,-2.306341,-1.9358319,-3.2088752,6.043901
311,3.11,0.683360272,-1.36550035,-1.7352470500000001,-2.19361705,-3.4269541,6.09399175
312,3.12,1.3332847,-1.3569584,-1.1641531,-2.4514022,-3.645033,6.1440825
313,3.13,1.8746037,-1.4289552,-0.33362624,-4.233907,-4.5570545,6.4531803
314,3.14,2.1630795,-1.43993775,0.11800167999999994,-4.6410488,-4.41869355,6.39759165
315,3.15,2.4515553,-1.4509203,0.5696296,-5.0481906,-4.2803326,6.342003
316,3.16,2.481086075,-1.358605675,0.865182975,-5.073236,-3.7954584000000002,5.913786475
317,3.17,2.51061685,-1.26629105,1.16073635,-5.0982814,-3.3105842,5.48556995
318,3.18,2.452043,-1.1949043,1.3093672,-5.0335298,-2.706744,4.9706106
319,3.19,2.2279985,-1.0523748,1.3188853,-5.067738,-2.3310618,4.665178
320,3.2,2.1572220499999997,-1.003563385,1.26446055,-5.114163850000001,-2.2275201,4.5546112999999995
321,3.21,2.0864456,-0.95475197,1.2100358,-5.1605897,-2.1239784,4.4440446
322,3.22,1.97271485,-0.96951741,1.17171885,-5.25893905,-2.01616075,4.2925501
323,3.23,1.8589841,-0.98428285,1.1334019,-5.3572884,-1.9083431,4.1410556
324,3.24,1.8589841,-0.98428285,1.1334019,-5.3572884,-1.9083431,4.1410556
325,3.25,1.8589841,-0.98428285,1.1334019,-5.3572884,-1.9083431,4.1410556
326,3.26,1.7032754,-1.056768,1.1465809,-7.2326446,-1.7006488,1.9688187
327,3.27,1.4730074000000002,-1.1689121999999998,1.3825842499999998,-7.5976365,-1.77303635,1.5986344
328,3.28,1.2427394,-1.2810564,1.6185876,-7.9626284,-1.8454239,1.2284501
329,3.29,1.2097918,-1.3039979,1.7818619,-7.934529,-1.7373008,0.9963212
330,3.3,1.1463369333333333,-1.2950491333333334,1.8973823333333333,-7.889732166666667,-1.6990199000000001,0.9366600333333334
331,3.31,1.0828820666666668,-1.2861003666666666,2.0129027666666666,-7.844935333333334,-1.660739,0.8769988666666666
332,3.32,1.0194272,-1.2771516,2.1284232,-7.8001385,-1.6224581,0.8173377
333,3.33,0.5259434,-0.9930689,2.2841318,-6.56558,-0.7415904,0.5039638
334,3.34,0.4953142,-0.799775585,2.2548449,-6.519765,-0.777326025,0.48960848
335,3.35,0.464685,-0.60648227,2.225558,-6.47395,-0.81306165,0.47525316
336,3.36,0.464685,-0.60648227,2.225558,-6.476087850000001,-0.988074525,0.41447206999999997
337,3.37,0.464685,-0.60648227,2.225558,-6.4782257,-1.1630874,0.35369098
338,3.38,0.26455808,-0.32239962,2.426417,-6.7799935,-2.1520782,0.10323623
339,3.39,-0.06333285999999999,-0.105676787,2.60579915,-7.2515814,-2.0167716,0.003054330000000008
340,3.4,-0.3912238,0.111046046,2.7851813,-7.7231693,-1.881465,-0.09712757
341,3.41,-0.39158987,0.06430908399999999,2.91843655,-8.67275965,-1.9938642,-0.29413161499999996
342,3.42,-0.39195594,0.017572122,3.0516918,-9.62235,-2.1062634,-0.49113566
343,3.43,-1.0726316,-1.121199,6.5509844,-10.52643,-3.3328807,-0.2761111
344,3.44,-1.1113146999999999,-1.1757458,7.2699772,-10.52643,-3.3328807,-0.2761111
345,3.45,-1.1499978,-1.2302926,7.98897,-10.52643,-3.3328807,-0.2761111
346,3.46,-0.53570568,-0.78671855,7.98897,-6.733262249999999,-4.51979185,0.47342055
347,3.47,0.07858644,-0.3431445,7.98897,-2.9400945,-5.706703,1.2229522
348,3.48,0.90520835,0.10030753,7.98897,4.0329323,0.41233405,2.1563544
349,3.49,1.114731475,0.21123155,7.96236765,4.3563855,1.4492778249999998,2.09312985
350,3.5,1.3242546,0.32215557,7.9357653,4.6798387,2.4862216,2.0299053
351,3.51,1.3263291,0.316420215,6.528897649999999,5.62362555,3.9935316,1.5766432
352,3.52,1.3284036,0.31068486,5.12203,6.5674124,5.5008416,1.1233811
353,3.53,0.7604824,-0.07614586,3.4014258,8.241183,5.0207014,0.05009095
354,3.54,0.6560258999999999,-0.28127599,2.8389959,8.279973,4.87073395,0.007024950000000002
355,3.55,0.5515694,-0.48640612,2.276566,8.318763,4.7207665,-0.03604105
356,3.56,0.554376035,-0.56218591,2.17662465,8.318763,4.7207665,-0.03604105
357,3.57,0.55718267,-0.6379657,2.0766833,8.318763,4.7207665,-0.03604105
358,3.58,1.1875826,-1.2964321,1.9339097,8.200866,3.758043,-0.27000242
359,3.59,1.2839852,-1.3663545,1.88705065,8.291579500000001,3.7311649,-0.34086279500000005
360,3.6,1.3803878,-1.4362769,1.8401916,8.382293,3.7042868,-0.41172317
361,3.61,1.48765095,-1.50266045,1.7742962,8.5322605,3.7751472,-0.7165449349999999
362,3.62,1.5949141,-1.569044,1.7084008,8.682228,3.8460076,-1.0213667
363,3.63,1.6044323,-1.7984579,1.1058234,8.772635,4.0695844,-2.1728477
364,3.64,1.4903355500000002,-1.76782865,1.0809296000000002,8.504465499999998,3.7116172,-2.54486465
365,3.65,1.3762388,-1.7371994,1.0560358,8.236296,3.35365,-2.9168816
366,3.66,1.2679587333333333,-1.6610535666666666,1.0525376,8.115955566666667,3.1314987666666667,-2.9624929
367,3.67,1.1596786666666667,-1.5849077333333335,1.0490394,7.995615133333334,2.9093475333333334,-3.0081042
368,3.68,1.0513986,-1.5087619,1.0455412,7.8752747,2.6871963,-3.0537155
369,3.69,1.32059375,-1.43286015,1.3735542,7.1410146,2.32250975,-3.0020972500000003
370,3.7,1.5897889,-1.3569584,1.7015672,6.4067545,1.9578232,-2.950479
371,3.71,1.6102897,-1.3409726,1.7702692999999998,6.503576750000001,2.94925745,-3.4125986
372,3.72,1.6307905,-1.3249868,1.8389714,6.600399,3.9406917,-3.8747182
373,3.73,1.46056055,-1.3506128,1.6594673,6.639189,4.09371335,-3.8777726
374,3.74,1.2903306,-1.3762388,1.4799632,6.677979,4.246735,-3.880827
375,3.75,0.4549227,-1.2527459,0.4554108,6.7983193,4.0518694,-3.345098
376,3.76,0.4549227,-1.2527459,0.4554108,6.7983193,4.0518694,-3.345098
377,3.77,0.4549227,-1.2527459,0.4554108,6.7983193,4.0518694,-3.345098
378,3.78,0.5920829,-0.9056965,-0.81441903,5.7494636,1.0189233,-2.6829202
379,3.79,0.5252112,-0.88226695,-0.946698065,5.56864765,0.934013,-2.6609290999999997
380,3.8,0.4583395,-0.8588374,-1.0789771,5.3878317,0.8491027,-2.638938
381,3.81,0.33362625,-0.865793065,-1.4315178,4.32614785,0.70738195,-2.2672264
382,3.82,0.208913,-0.87274873,-1.7840585,3.264464,0.5656612,-1.8955148
383,3.83,0.28457074,-0.9097234,-2.18492255,2.8380799999999997,0.441350135,-2.0097465999999997
384,3.84,0.36022848,-0.94669807,-2.5857866,2.411696,0.31703907,-2.1239784
385,3.85,0.15741692,-1.0308977,-2.5201352,1.0885619,-0.092240654,-2.3823745
386,3.86,0.0856640915,-1.3253528499999998,-2.46632055,0.68691798,0.10995574799999999,-2.1190915500000003
387,3.87,0.013911263,-1.619808,-2.4125059,0.28527406,0.31215215,-1.8558086
388,3.88,-0.51666915,-1.8416561,-2.3888323,0.5662721,1.8747455,-1.2412782
389,3.89,-0.928393775,-1.87326145,-2.4931668,0.723875325,1.87902155,-1.0054842
390,3.9,-1.3401184,-1.9048668,-2.5975013,0.88147855,1.8832976,-0.7696902
391,3.91,-1.4030851,-1.9109682000000001,-2.6727929,1.144761425,1.36039695,-0.14966197999999997
392,3.92,-1.4660518,-1.9170696,-2.7480845,1.4080443,0.8374963,0.47036624
393,3.93,-1.4660518,-1.9170696,-2.7480845,1.4080443,0.8374963,0.47036624
394,3.94,-1.4660518,-1.9170696,-2.7480845,1.4080443,0.8374963,0.47036624
395,3.95,-0.5879339,-1.6471423,-2.3683317,0.6206391,-1.1258247,2.9064968
396,3.96,-0.33045351,-1.56428495,-2.0875438,0.08368854999999997,-1.27579205,3.45383205
397,3.97,-0.07297312,-1.4814276,-1.8067559,-0.453262,-1.4257594,4.0011673
398,3.98,0.47737598,-1.1590278,-0.9374239,-1.8069394,-1.7464638,4.9718323
399,3.99,0.56401631,-1.11314505,-0.81405295,-2.2149974500000003,-1.84420225,5.1269919999999995
400,4.0,0.65065664,-1.0672623,-0.690682,-2.6230555,-1.9419407,5.2821517
401,4.01,0.88287712,-0.9908724150000001,-0.28871972,-2.9779681,-2.01524445,5.2885658499999995
402,4.02,1.1150976,-0.91448253,0.11324256,-3.3328807,-2.0885482,5.29498
403,4.03,1.15024185,-0.913994415,0.207082565,-3.8179076500000004,-2.13802825,5.18013735
404,4.04,1.1853861,-0.9135063,0.30092257,-4.3029346,-2.1875083,5.0652947
405,4.05,1.3711137,-0.8925173,0.74461865,-4.783075,-2.2412646,4.8038445
406,4.06,1.4028410999999998,-0.89215125,0.79562661,-4.86340365,-2.2504276,4.74489595
407,4.07,1.4345685,-0.8917852,0.84663457,-4.9437323,-2.2595906,4.6859474
408,4.08,1.4870408,-0.9340071,0.9896521,-5.526498,-2.2779164,4.1758747
409,4.09,1.4467713999999998,-0.9476743,1.02479635,-5.602856,-2.2241603000000003,4.12792185
410,4.1,1.406502,-0.9613415,1.0599406,-5.679214,-2.1704042,4.079969
411,4.11,1.41333555,-0.9685412,1.0668963,-5.7812285,-2.1022928,4.02774
412,4.12,1.4201691,-0.9757409,1.073852,-5.883243,-2.0341814,3.975511
413,4.13,1.4655638,-1.0245523,1.0682385,-6.554584,-1.7562376,3.4691038
414,4.14,1.4179726499999998,-1.0601847000000002,1.1150975,-6.68592,-1.6914858499999998,3.35426115
415,4.15,1.3703815,-1.0958171,1.1619565,-6.817256,-1.6267341,3.2394185
416,4.16,1.2651927,-1.125348,1.3496367,-7.5038686,-1.3701707,2.5961773
417,4.17,1.2614098500000002,-1.0841023,1.44640535,-7.5557921,-1.37322505,2.4877487
418,4.18,1.257627,-1.0428566,1.543174,-7.6077156,-1.3762794,2.3793201
419,4.19,1.1944975500000001,-0.9754154633333334,1.6774868166666668,-7.621969233333333,-1.2694798333333335,2.1176661333333335
420,4.2,1.1313681000000002,-0.9079743266666668,1.8117996333333333,-7.6362228666666665,-1.1626802666666667,1.8560121666666667
421,4.21,1.1153417,-0.88983274,1.8453168,-7.6193223,-1.0506883,1.7635679
422,4.22,0.8759214,-0.53033644,2.1625912,-7.347487,-0.79901177,1.5125023
423,4.23,0.85981365,-0.43698452,2.20542325,-7.1779720000000005,-0.784350985,1.4425583
424,4.24,0.8437059,-0.3436326,2.2482553,-7.008457,-0.7696902,1.3726143
425,4.25,0.85066155,0.040513489999999985,2.4815741,-6.998988499999999,-0.835358225,1.11605085
426,4.26,0.8576172,0.42465958,2.7148929,-6.98952,-0.90102625,0.8594874
427,4.27,0.81405297,0.520452065,2.81776295,-7.05915875,-0.893390425,0.31948252
428,4.28,0.77048874,0.61624455,2.920633,-7.1287975,-0.8857546,-0.22052236
429,4.29,0.6633476,0.7248500250000001,3.0826871000000002,-7.411933400000001,-1.3209961,-0.9544769300000001
430,4.3,0.55620646,0.8334555,3.2447412,-7.6950693,-1.7562376,-1.6884315
431,4.31,0.170229925,0.9567044,4.17825995,-8.03807015,-2.44804245,-1.92819605
432,4.32,-0.21574661,1.0799533,5.1117787,-8.381071,-3.1398473,-2.1679606
433,4.33,-0.43283553500000005,0.92375665,6.19063385,-8.0615885,-2.3619104,-1.8435912499999998
434,4.34,-0.64992446,0.76756,7.269489,-7.742106,-1.5839735,-1.5192219
435,4.35,-1.9529461,0.82149667,7.98897,-5.176472,0.9963212,-1.3756685
436,4.36,-1.9529461,0.82149667,7.98897,-5.176472,0.9963212,-1.3756685
437,4.37,-1.9529461,0.82149667,7.98897,-5.176472,0.9963212,-1.3756685
438,4.38,-1.9671015,0.84565836,7.98897,2.95109,0.7134906,0.040927973
439,4.39,-1.1307172699999999,0.37511599,7.1941975,4.5512515,2.31976075,-0.1295034285
440,4.4,-0.29433304,-0.09542638,6.399425,6.151413,3.9260309,-0.29993483
441,4.41,-0.28640118000000003,-0.37328556,5.6383325,6.305351,4.47978035,-0.1737911585
442,4.42,-0.27846932,-0.65114474,4.87724,6.459289,5.0335298,-0.047647487
443,4.43,-0.1287401985,-0.90703877,4.0592821,6.90644235,5.4626624,0.36804630650000003
444,4.44,0.020988923,-1.1629328,3.2413242,7.3535957,5.891795,0.7837401
445,4.45,0.18938842,-1.2725145,2.852297,7.801971,5.367673,1.0690142
446,4.46,0.49897501,-1.40955265,2.5078101999999998,7.9171195,5.158757,1.09192165
447,4.47,0.8085616,-1.5465908,2.1633234,8.032268,4.949841,1.1148291
448,4.48,1.244936,-1.6466542,1.9390348,8.659626,4.162436,0.9993755
449,4.49,1.48252575,-1.6831407999999999,1.8267685,8.746673999999999,4.090048299999999,0.8729264
450,4.5,1.7201155,-1.7196274,1.7145022,8.833722,4.0176606,0.7464773
451,4.51,1.78576695,-1.7199935000000002,1.564407,8.8719015,3.7107008500000003,-0.08399397500000005
452,4.52,1.8514184,-1.7203596,1.4143118,8.910081,3.4037411,-0.91446525
453,4.53,1.80114255,-1.6739887,1.31485845,8.83525,3.31547105,-1.107498675
454,4.54,1.7508667,-1.6276178,1.2154051,8.760419,3.227201,-1.3005321
455,4.55,1.700591,-1.5585496,1.1309613,8.516072,3.0586023,-1.6041322
456,4.56,1.6836289999999998,-1.4989995500000002,1.091302,8.403061999999998,3.00942765,-1.6933185
457,4.57,1.666667,-1.4394495,1.0516427,8.290052,2.960253,-1.7825048
458,4.58,2.1940746,-0.9022797,0.77756643,6.5625253,2.208278,-2.4623978
459,4.59,2.2519163,-0.84333985,0.6867771149999999,5.760153799999999,2.62091735,-2.8710667
460,4.6,2.309758,-0.7844,0.5959878,4.9577823,3.0335567,-3.2797356
461,4.61,2.1943188,-0.614658185,0.40574518,3.61235165,4.22046785,-3.6569447999999998
462,4.62,2.0788796,-0.44491637,0.21550256,2.266921,5.407379,-4.034154
463,4.63,1.9424516,-0.436130315,0.311417045,2.0210477,5.87744,-4.1199805000000005
464,4.64,1.8060236,-0.42734426,0.40733153,1.7751744,6.347501,-4.205807
465,4.65,1.1924638,-0.39781332,0.5110559,2.9547553,5.4116554,-4.1770964
466,4.66,1.159394,-0.409528045,0.375116005,3.49689815,4.7177124,-4.1077632
467,4.67,1.1263242,-0.42124277,0.23917611,4.039041,4.0237694,-4.03843
468,4.68,1.5138872,-0.6816519,-1.0653099,5.571702,0.35185838,-4.3090434
469,4.69,1.1109486425,-0.8052668875,-1.96716245,5.18670415,0.3443752825,-4.552473175
470,4.7,0.708010085,-0.928881875,-2.869015,4.801706299999999,0.33689218499999996,-4.79590295
471,4.71,0.3723093365,-0.9679310375000001,-3.1233835,4.629900449999999,0.36972619249999994,-4.828889725
472,4.72,0.036608588,-1.0069802,-3.377752,4.4580946,0.4025602,-4.8618765
473,4.73,0.10372432,-1.2913069,-3.3326018,0.7110472,0.2919936,-3.2192597
474,4.74,0.17946341999999998,-1.4552319666666667,-2.991816533333333,0.0767654333333333,0.6283767,-2.958623933333333
475,4.75,0.25520252,-1.6191570333333332,-2.6510312666666667,-0.5575163333333334,0.9647598,-2.6979881666666667
476,4.76,0.33094162,-1.7830821,-2.310246,-1.1917981,1.3011429,-2.4373524
477,4.77,-0.15046131499999998,-1.8494657,-2.2571635,-0.98471478,1.0225884,-2.1120666
478,4.78,-0.63186425,-1.9158493,-2.204081,-0.77763146,0.7440339,-1.7867808
479,4.79,-0.932298675,-1.94074315,-2.2256801,-0.32681290700000004,0.52564956,-0.9343183725
480,4.8,-1.2327331,-1.965637,-2.2472792,0.124005646,0.30726522,-0.081855945
481,4.81,-1.18416575,-1.8634990500000002,-2.2394692999999997,0.207083313,-0.303600015,1.2098186275
482,4.82,-1.1355984,-1.7613611,-2.2316594,0.29016098,-0.91446525,2.5014932
483,4.83,-1.0277251,-1.75025655,-2.16857065,0.052228969999999986,-1.014036275,3.3735033000000003
484,4.84,-0.9198518,-1.739152,-2.1054819,-0.18570304,-1.1136073,4.2455134
485,4.85,-0.11251039,-1.5544006,-1.624445,-0.49174652,-1.1239921,5.0158143
486,4.86,0.02147703499999999,-1.52242905,-1.5426859,-0.77671516,-1.3484850499999999,5.54054765
487,4.87,0.15546446,-1.4904575,-1.4609268,-1.0616838,-1.572978,6.065281
488,4.88,0.6770148,-1.3774592,-1.1600041,-1.5711454,-2.3286183,6.645603
489,4.89,0.8459024,-1.32071585,-1.0031973,-2.06533545,-2.97369205,6.9021665
490,4.9,1.01479,-1.2639725,-0.8463905,-2.5595255,-3.6187658,7.15873
491,4.91,1.3775811,-1.2424954499999998,-0.5319227550000001,-3.0937270999999997,-3.9990293999999995,7.4259835
492,4.92,1.7403722,-1.2210184,-0.21745501,-3.6279287,-4.379293,7.693237
493,4.93,2.1108510999999996,-1.1545128,0.028310635,-3.80630135,-4.4205263,7.6336775
494,4.94,2.48133,-1.0880072,0.27407628,-3.984674,-4.4617596,7.574118
495,4.95,3.036072,-0.7922098,0.6472398,-4.863709,-4.0665298,6.1123176
496,4.96,3.0336314499999997,-0.71081675,0.666276275,-5.1175235,-3.9312232,5.7836721
497,4.97,3.0311909,-0.6294237,0.68531275,-5.371338,-3.7959166,5.4550266
498,4.98,2.8826821000000002,-0.5746328,0.79147765,-5.964487999999999,-3.5860844,4.9834388
499,4.99,2.7341733,-0.5198419,0.89764255,-6.557638,-3.3762522,4.511851
500,5.0,2.6533904,-0.5937913,1.078489,-7.585725,-2.8515189,3.6425896
501,5.01,2.5375852,-0.64553145,1.4050375499999999,-7.839845,-2.70460585,2.72629165
502,5.02,2.42178,-0.6972716,1.7315861,-8.093965,-2.5576928,1.8099937
503,5.03,2.37553125,-0.68628902,1.7712454,-7.96201775,-2.7546969,1.2812898499999998
504,5.04,2.3292825,-0.67530644,1.8109047,-7.8300705,-2.951701,0.752586
505,5.05,2.1674724,-0.6487042,1.8511744,-7.6645265,-3.2357533,0.2669481
506,5.06,1.9801583999999999,-0.69556318,1.75611405,-7.62909625,-3.3457089499999997,-0.08765916499999998
507,5.07,1.7928444,-0.74242216,1.6610537,-7.593666,-3.4556646,-0.44226643
508,5.08,1.3218141,-0.9654905,1.5482991,-8.406728,-2.0555615,-1.1533136
509,5.09,1.1048471850000001,-0.9981941,1.5833213499999998,-8.554862499999999,-1.7880025499999999,-1.21104035
510,5.1,0.88788027,-1.0308977,1.6183436,-8.702997,-1.5204436,-1.2687671
511,5.11,0.632962465,-1.0790991,2.0428813,-8.84166325,-1.3903292999999999,-2.2064452
512,5.12,0.37804466,-1.1273005,2.467419,-8.9803295,-1.260215,-3.1441233
513,5.13,0.15290185499999998,-1.08849535,2.73588185,-8.66573425,-1.8029687,-3.3267721
514,5.14,-0.07224095,-1.0496902,3.0043447,-8.351139,-2.3457224,-3.5094209
515,5.15,-0.7446186749999999,-0.6829942,3.44962715,-7.0784009999999995,-3.7476582,-3.2922583
516,5.16,-1.4169964,-0.3162982,3.8949096,-5.805663,-5.149594,-3.0750957
517,5.17,-1.8860743,-0.10836142,3.973252,-5.0842314,-5.3554554,-2.5357015
518,5.18,-2.0564263,-0.12080833999999999,4.08393175,-4.8154506999999995,-5.2824572,-2.2522601
519,5.19,-2.2267783,-0.13325526,4.1946115,-4.54667,-5.209459,-1.9688187
520,5.2,-1.4782547,-0.4803047,4.997072,-4.741536,-6.083607,1.1539245
521,5.21,-1.4782547,-0.4803047,4.997072,-4.741536,-6.083607,1.1539245
522,5.22,-0.3819496,-0.8328454000000001,6.2158938500000005,-4.82461375,-5.4260105,1.44836155
523,5.23,0.7143555,-1.1853861,7.4347157,-4.9076915,-4.768414,1.7427986
524,5.24,0.921072,-1.3667207,7.98897,-2.8399124,-1.4624114,1.8692477
525,5.25,1.11265695,-1.249085,7.98897,-1.10963665,0.09437865000000012,2.06411365
526,5.26,1.3042419,-1.1314493,7.98897,0.6206391,1.6511687,2.2589796
527,5.27,1.3435351500000001,-0.85981365,6.59881985,2.58579255,3.9492437,1.8768834
528,5.28,1.3828284,-0.588178,5.2086697,4.550946,6.2473187,1.4947872
529,5.29,1.0721435,-0.49262956999999996,4.46710185,4.63005315,6.6288042,1.4077389
530,5.3,0.7614586,-0.39708114,3.725534,4.7091603,7.0102897,1.3206906
531,5.31,0.54986098,-0.441011445,3.1241769,4.7216830000000005,7.07565215,1.5036447499999999
532,5.32,0.33826336,-0.48494175,2.5228198,4.7342057,7.1410146,1.6865989
533,5.33,0.49238553,-0.559867325,2.3785819000000004,4.707022200000001,6.9992938,1.7302757999999998
534,5.34,0.6465077,-0.6347929,2.234344,4.6798387,6.857573,1.7739527
535,5.35,0.9386441,-0.7597502,2.33636,5.009706,6.0665026,1.8362609
536,5.36,1.01686445,-0.80014167,2.3783378500000003,5.1773885,5.9971695,1.8368718
537,5.37,1.0950848,-0.84053314,2.4203157,5.345071,5.9278364,1.8374827
538,5.38,1.45921825,-1.06958087,2.33318735,5.9391373000000005,5.90004205,1.7159205
539,5.39,1.8233517,-1.2986286,2.246059,6.5332036,5.8722477,1.5943583
540,5.4,2.2345881,-1.5275543,1.9610001,7.9577417,5.4409766,0.66767573
541,5.41,2.3187879000000002,-1.5856398999999999,1.79638345,8.23965585,5.1529536,0.23609943
542,5.42,2.4029877,-1.6437255,1.6317668,8.52157,4.8649306,-0.19547687
543,5.43,2.37589735,-1.637136,1.5806368000000002,8.7017755,4.6508223,-0.635299835
544,5.44,2.348807,-1.6305465,1.5295068,8.881981,4.436714,-1.0751228
545,5.45,2.2685120999999997,-1.5893008499999999,1.2881341499999999,8.916189249999999,4.4138065,-1.3744467999999999
546,5.46,2.1882172,-1.5480552,1.0467615,8.9503975,4.390899,-1.6737708
547,5.47,2.1359892,-1.4516525,0.87250465,8.784243,4.38418,-1.9352211
548,5.48,2.0755849,-1.35341945,0.72326365,8.183151200000001,4.3414195,-2.23637765
549,5.49,2.0151806,-1.2551864,0.57402265,7.5820594,4.298659,-2.5375342
550,5.5,1.7411044,-1.0123495,0.21184167,6.101322,4.4538183,-2.7605
551,5.51,1.6338412500000001,-0.95194528,0.206106335,5.1801373,4.859738350000001,-2.6584855000000003
552,5.52,1.5265781,-0.89154106,0.200371,4.2589526,5.2656584,-2.556471
553,5.53,1.45384905,-0.910577565,0.24661984999999997,4.1062362,5.39058045,-2.53722875
554,5.54,1.38112,-0.92961407,0.2928687,3.9535198,5.5155025,-2.5179865
555,5.55,1.18184725,-1.013691785,0.307024015,4.88814375,5.10652805,-2.6981917500000003
556,5.56,0.9825745,-1.0977695,0.32117933,5.8227677,4.6975536,-2.878397
557,5.57,0.9825745,-1.0977695,0.32117933,5.8227677,4.6975536,-2.878397
558,5.58,0.73473436,-1.2239471000000002,-1.333040735,6.3777387,1.71500415,-2.9517008000000002
559,5.59,0.48689422,-1.3501247,-2.9872608,6.9327097,-1.2675453,-3.0250046
560,5.6,0.48689422,-1.3501247,-2.9872608,6.9327097,-1.2675453,-3.0250046
561,5.61,0.69836981,-1.4354227000000002,-3.3959346999999998,2.08366135,-0.032681249999999995,-2.60442385
562,5.62,0.9098454,-1.5207207,-3.8046086,-2.765387,1.2021828,-2.1838431
563,5.63,0.8798264,-1.6364039,-3.43791245,-3.8310413,1.9349157000000001,-2.2244656999999997
564,5.64,0.8498074,-1.7520871,-3.0712163,-4.8966956,2.6676486,-2.2650883
565,5.65,0.70691185,-1.78820755,-2.6493634000000004,-4.44373915,2.708882,-2.3029619500000003
566,5.66,0.5640163,-1.824328,-2.2275105,-3.9907827,2.7501154,-2.3408356
567,5.67,-0.40659937,-1.6549523,-1.2485968,-3.1312952,1.9657644,-2.2192733
568,5.68,-0.874701135,-1.62725175,-1.61736725,-1.1997392999999998,1.0064005125,-1.5827517999999998
569,5.69,-1.3428029,-1.5995512,-1.9861377,0.7318166,0.047036625,-0.9462303
570,5.7,-1.518036,-1.632987,-2.8945189,1.5796975,-1.3249667,0.5149594
571,5.71,-1.3086077999999999,-1.6007172222222221,-2.7319768222222223,0.9975429266666667,-1.7644502777777777,1.6485896
572,5.72,-1.0991796,-1.5684474444444443,-2.569434744444444,0.41538835333333335,-2.2039338555555554,2.7822198
573,5.73,-0.8897514000000001,-1.5361776666666664,-2.4068926666666663,-0.16676622,-2.643417433333333,3.9158500000000003
574,5.74,-0.5509185700000001,-1.4649942833333331,-2.067897133333333,-0.53267449,-3.0257173166666664,4.7938668
575,5.75,-0.21208574,-1.3938109,-1.7289016,-0.89858276,-3.4080172,5.6718836
576,5.76,0.13508569499999998,-1.2996048500000001,-1.4501882,-1.0082330800000001,-3.8307359500000002,6.0814688
577,5.77,0.48225713,-1.2053988,-1.1714748,-1.1178834,-4.2534547,6.491054
578,5.78,0.48225713,-1.2053988,-1.1714748,-1.2932017,-4.6218066,6.853908
579,5.79,1.1351102149999999,-1.0327283,-0.807097325,-1.743104,-4.7891836,7.023423149999999
580,5.8,1.7879633,-0.8600578,-0.44271985,-2.1930063,-4.9565606,7.1929383
581,5.81,2.0289292666666667,-0.7929420333333334,-0.23201709333333334,-2.6867890666666665,-4.7751336,7.047348866666667
582,5.82,2.269895233333333,-0.7258262666666666,-0.021314336666666656,-3.1805718333333335,-4.5937066,6.901759433333333
583,5.83,2.5108612,-0.6587105,0.18938842,-3.6743546,-4.4122796,6.75617
584,5.84,2.5884712,-0.6740861,0.35827604,-4.9480085,-3.616933,6.0897155
585,5.85,2.5338024,-0.68921765,0.68799737,-5.4134879,-3.3243286000000003,5.6981509
586,5.86,2.4791336,-0.7043492,1.0177187,-5.8789673,-3.0317242,5.3065863
587,5.87,2.3517356,-0.7582859,1.2010058,-6.2485404,-2.7953193,4.846605
588,5.88,2.2183583000000002,-0.81429703,1.35524995,-6.409503450000001,-2.6679539500000002,4.4944410999999995
589,5.89,2.084981,-0.87030816,1.5094941,-6.5704665,-2.5405886,4.1422772
590,5.9,1.940255,-0.89813066,1.6202961,-6.504493,-2.698192,2.850908
591,5.91,1.8956739666666667,-0.8992696066666667,1.6309532666666666,-6.361754333333334,-2.8627182666666666,2.508212633333333
592,5.92,1.8510929333333335,-0.9004085533333333,1.6416104333333335,-6.2190156666666665,-3.0272445333333335,2.165517266666667
593,5.93,1.8065119,-0.9015475,1.6522676,-6.076277,-3.1917708,1.8228219
594,5.94,1.2722704,-0.7963588,1.6425053,-5.955325,-3.3964107,1.6841555
595,5.95,1.2772735499999999,-0.77219715,1.6597113000000001,-5.8368172000000005,-3.5833355,1.6123788499999998
596,5.96,1.2822767,-0.7480355,1.6769173,-5.7183094,-3.7702603,1.5406022
597,5.97,1.2283401,-0.6965394,1.5680678,-5.847813,-3.3670893,1.4343116
598,5.98,1.19173155,-0.683116225,1.5717286499999998,-5.9415807,-3.08639665,1.38819125
599,5.99,1.155123,-0.66969305,1.5753895,-6.0353484,-2.805704,1.3420709
600,6.0,0.912286,-0.53106856,1.7486702,-6.459289,-1.65911,0.98471475
601,6.01,0.78887438,-0.4130262066666667,1.9226017,-6.430171133333333,-1.6454673666666668,0.9425650666666666
602,6.02,0.66546276,-0.2949838533333333,2.0965331999999997,-6.401053266666667,-1.6318247333333333,0.9004153833333334
603,6.03,0.54205114,-0.1769415,2.2704647,-6.3719354,-1.6181821,0.8582657
604,6.04,0.54205114,-0.1769415,2.2704647,-5.9999185,-2.0231857,0.62125
605,6.05,0.03673062000000005,0.16351835,2.3358719499999996,-6.0997949,-2.30112935,0.11911875000000005
606,6.06,-0.4685899,0.5039782,2.4012792,-6.1996713,-2.579073,-0.3830125
607,6.07,-0.9930689,0.5025139,2.5430765,-9.261939,-4.6572366,0.37384954
608,6.08,-0.9930689,0.5025139,2.5430765,-9.261939,-4.6572366,0.37384954
609,6.09,-0.9930689,0.5025139,2.5430765,-9.261939,-4.6572366,0.37384954
610,6.1,-0.07638990000000001,-0.4281984500000001,5.26602325,-8.47239565,-4.59431745,1.07145762
611,6.11,0.8402891,-1.3589108,7.98897,-7.6828523,-4.5313983,1.7690657
612,6.12,1.1624447,-0.8053889,7.98897,-1.6786577,-3.3609805,1.5167783
613,6.13,1.46983475,-0.55706066,7.98897,1.3723088999999997,-2.26631005,1.4227051
614,6.14,1.7772248,-0.30873242,7.98897,4.4232755,-1.1716396,1.3286319
615,6.15,1.9564848,-0.220139635,7.5102518499999995,5.18838405,0.5054909500000002,1.03602745
616,6.16,2.1357448,-0.13154685,7.0315337,5.9534926,2.1826215,0.743423
617,6.17,2.1357448,-0.13154685,7.0315337,6.0280185,4.0457606,0.12705997
618,6.18,1.79235635,-0.15107143499999998,5.477499,6.15294025,5.32002545,-0.45204031499999997
619,6.19,1.4489679,-0.17059602,3.9234643,6.277862,6.5942903,-1.0311406
620,6.2,0.5801241,-0.4429639,2.8413146,6.95409,7.4556103,-0.87964594
621,6.21,0.50658151,-0.4564684,2.5556862666666667,6.905628,7.035945866666666,-0.7448483466666667
622,6.22,0.43303892,-0.4699729,2.2700579333333333,6.857165999999999,6.6162814333333335,-0.6100507533333333
623,6.23,0.35949633,-0.4834774,1.9844296,6.808704,6.196617,-0.47525316
624,6.24,0.39146784,-0.49006698,1.9646608,6.687142,5.0261993,-0.26633725
625,6.25,0.6958072,-0.6545615,1.9148731,6.7476177,4.9107456,-0.1826487
626,6.26,0.95719254,-0.7670719,1.9065753,6.885062,4.82889,-0.12156218
627,6.27,1.1198566699999999,-0.8304047999999999,1.8854643000000002,7.00876225,4.8130075,-0.160352125
628,6.28,1.2825208,-0.8937377,1.8643533,7.1324625,4.797125,-0.19914207
629,6.29,1.58795845,-1.15256045,1.6608095999999999,7.68285225,4.5958448,-1.041525235
630,6.3,1.8933961,-1.4113832,1.4572659,8.233242,4.3945646,-1.8839084
631,6.31,1.7740521333333332,-1.4680044333333333,1.3228716666666667,8.150164333333334,4.2457171,-2.288504833333333
632,6.32,1.6547081666666668,-1.5246256666666667,1.1884774333333332,8.067086666666667,4.0968696,-2.6931012666666665
633,6.33,1.5353642,-1.5812469,1.0540832,7.984009,3.9480221,-3.0976977
634,6.34,1.3689171,-1.4658079,1.0640897,7.2283683,3.9749002,-3.0842586
635,6.35,1.351345,-1.42395205,1.07641455,7.071070649999999,3.93488845,-3.0259210000000003
636,6.36,1.3337729,-1.3820962,1.0887394,6.913773,3.8948767,-2.9675834
637,6.37,1.615659,-1.2012497,1.1905112,6.1953955,3.6920695,-2.8674014
638,6.38,1.6564165499999999,-1.18807065,1.2505492999999999,6.05062025,3.6905423500000003,-2.9248227
639,6.39,1.6971741,-1.1748916,1.3105874,5.905845,3.6890152,-2.982244
640,6.4,1.5564751000000001,-1.18611825,1.2576269999999998,5.882326750000001,3.8460076,-3.1963523499999997
641,6.41,1.4157761,-1.1973449,1.2046666,5.8588085,4.003,-3.4104607
642,6.42,1.25286785,-1.16879015,0.999536475,5.96662625,3.95260355,-3.43825505
643,6.43,1.0899596,-1.1402354,0.79440635,6.074444,3.9022071,-3.4660494
644,6.44,0.63308454,-1.0997219,-0.0388051,6.1996713,2.6529877,-3.2785137
645,6.45,0.55364387,-1.1324256,-0.16217603,6.1975334,2.3750441,-3.2687398500000002
646,6.46,0.4742032,-1.1651293,-0.28554696,6.1953955,2.0971005,-3.258966
647,6.47,0.14497001,-1.4584862,-0.86201024,6.2179976,1.5088371,-3.2577443
648,6.48,0.14497001,-1.4584862,-0.86201024,6.2179976,1.5088371,-3.2577443
649,6.49,0.14497001,-1.4584862,-0.86201024,6.2179976,1.5088371,-3.2577443
650,6.5,-0.144115815,-1.6115100500000001,-1.69363522,5.415320400000001,0.557414515,-2.76966295
651,6.51,-0.43320164,-1.7645339,-2.5252602,4.6126432,-0.39400807,-2.2815816
652,6.52,-0.042099895,-1.85788585,-2.8964712500000003,3.29378525,-0.930042335,-1.62245805
653,6.53,0.34900185,-1.9512378,-3.2676823,1.9749273,-1.4660766,-0.9633345
654,6.54,0.37999713,-2.2026167,-2.536731,-1.5552629,1.7568485,-0.72509706
655,6.55,0.12349296500000001,-2.19932185,-2.34758665,-1.7266105999999999,2.1636847,-0.64873888
656,6.56,-0.1330112,-2.196027,-2.1584423,-1.8979583,2.5705209,-0.5723807
657,6.57,-0.63918597,-2.1984677,-1.8296971,-1.672549,2.7580566,-0.16737708
658,6.58,-0.986357385,-2.20200645,-1.78857355,-0.628274885,2.0134118500000002,0.66584311
659,6.59,-1.3335288,-2.2055452,-1.74745,0.41599923,1.2687671,1.4990633
660,6.6,-1.2885002,-2.148924,-2.0386102999999998,0.608421765,0.3484986,2.1200077999999998
661,6.61,-1.2434716,-2.0923028,-2.3297706,0.8008443,-0.5717699,2.7409523
662,6.62,-0.9183874,-2.0067608,-2.34661055,-0.02932155000000003,-0.8026769500000001,3.85914115
663,6.63,-0.5933032,-1.9212188,-2.3634505,-0.8594874,-1.033584,4.97733
664,6.64,0.06272271,-1.5773419,-1.5670916,-1.4086553,-0.87109387,5.5093937
665,6.65,0.240274355,-1.52059865,-1.4055257,-1.95446345,-1.0207558350000001,6.13583585
666,6.66,0.417826,-1.4638554,-1.2439598,-2.5002716,-1.1704178,6.762278
667,6.67,1.2317569,-1.2129645,-0.754625,-3.2351422,-2.7177396,7.600996
668,6.68,1.59198545,-1.0883733,-0.53350914,-3.3658675000000002,-2.9462031,7.6275687
669,6.69,1.952214,-0.9637821,-0.31239328,-3.4965928,-3.1746666,7.6541414
670,6.7,2.2073759,-0.841631425,-0.11190025,-3.7589594,-3.320358,7.5444910499999995
671,6.71,2.4625378,-0.71948075,0.08859278,-4.021326,-3.4660494,7.4348407
672,6.72,2.8620594,-0.48640612,0.6587105,-5.2174,-2.8044822,6.4849453
673,6.73,2.8355791999999997,-0.47298296,0.72973115,-5.462357,-2.5173756,6.2057800499999995
674,6.74,2.809099,-0.4595598,0.8007518,-5.707314,-2.230269,5.9266148
675,6.75,2.5150099,-0.5620638,1.1451166,-7.125743,-0.95233893,4.4525967
676,6.76,2.5150099,-0.5620638,1.1451166,-7.125743,-0.95233893,4.4525967
677,6.77,2.2642411,-0.66493395,1.3702594000000001,-7.289455,-0.81825399,4.22566035
678,6.78,2.0134723,-0.7678041,1.5954022,-7.453167,-0.68416905,3.998724
679,6.79,1.9117005,-0.8217408,1.6830187,-7.7549343,-0.65057147,2.8270843
680,6.8,1.68851015,-0.8875142300000001,1.67496485,-7.71217365,-0.7782423350000001,2.44559895
681,6.81,1.4653198,-0.95328766,1.666911,-7.669413,-0.9059132,2.0641136
682,6.82,1.4043054000000001,-0.9690293050000001,1.6405528,-7.6477275,-0.9828821999999999,1.89582025
683,6.83,1.343291,-0.98477095,1.6141946,-7.626042,-1.0598512,1.7275269
684,6.84,1.0970373,-1.0289453,1.5448823,-7.6394806,-1.6041322,1.1270463
685,6.85,1.00246512,-1.04785975,1.6098016,-7.62634705,-1.7727309500000001,1.0274752999999999
686,6.86,0.90789294,-1.0667742,1.6747209,-7.6132135,-1.9413297,0.9279043
687,6.87,0.7653635,-0.97793734,1.8838779,-7.343822,-1.6291776,0.8472701
688,6.88,0.621491785,-0.819544195,2.02213645,-7.1520102,-1.4205671,0.8359691
689,6.89,0.47762007,-0.66115105,2.160395,-6.9601984,-1.2119566,0.8246681
690,6.9,0.47762007,-0.66115105,2.160395,-6.9601984,-1.2119566,0.8246681
691,6.91,0.47762007,-0.66115105,2.160395,-6.9601984,-1.2119566,0.8246681
692,6.92,0.215014455,-0.27126962,2.41311615,-6.412557850000001,-1.5668693,0.801455225
693,6.93,-0.04759116,0.11861181,2.6658373,-5.8649173,-1.921782,0.77824235
694,6.94,-0.22013964,0.5554743,2.8842685,-5.3456817,-2.69697,0.82344633
695,6.95,-0.307512145,0.6599307999999999,2.93637475,-5.36248035,-2.6151141,0.814283365
696,6.96,-0.39488465,0.7643873,2.988481,-5.379279,-2.5332582,0.8051204
697,6.97,-0.42905265,0.79440635,3.5290678,-6.3743787,-2.8075366,1.146594
698,6.98,-0.452970265,0.7765901749999999,3.86367025,-6.99715585,-2.9956830500000002,1.51005885
699,6.99,-0.47688788,0.758774,4.1982727,-7.619933,-3.1838295,1.8735237
700,7.0,0.09884315999999999,0.55852502,5.16437335,-7.6110755,-3.5442400999999997,1.82648705
701,7.01,0.6745742,0.35827604,6.130474,-7.602218,-3.9046507,1.7794504
702,7.02,0.8470006999999999,0.05112999500000004,7.059722000000001,-5.2268684499999996,-3.64717105,1.108720385
703,7.03,1.0194272,-0.25601605,7.98897,-2.8515189,-3.3896914,0.43799037
704,7.04,0.8090498,-0.15912533,7.98897,-2.8515189,-3.3896914,0.43799037
705,7.05,0.8020941699999999,0.054058684999999995,7.98897,0.46731195000000003,-0.6588182499999999,0.617584765
706,7.06,0.79513854,0.2672427,7.98897,3.7861428,2.0720549,0.79717916
707,7.07,0.94230507,0.2497926,6.949042,5.4925949,3.6099081,0.509767055
708,7.08,1.0894716,0.2323425,5.909114,7.199047,5.1477613,0.22235495
709,7.09,1.0894716,0.2323425,5.909114,7.85084,5.5387154,-0.069027774
710,7.1,0.85493255,0.10103970000000001,4.1448242,7.9421645,5.3255234,-0.299629417
711,7.11,0.6203935,-0.0302631,2.3805344,8.033489,5.1123314,-0.53023106
712,7.12,0.96353805,-0.24088451,1.8240839,7.6229873,4.5949283,-0.7360926
713,7.13,1.0706791333333334,-0.3367990066666667,1.8655736333333333,7.547647333333334,4.324925933333334,-0.9847147666666667
714,7.14,1.1778202166666667,-0.43271350333333336,1.9070633666666668,7.472307366666667,4.054923566666667,-1.2333369333333333
715,7.15,1.2849613,-0.528628,1.9485531,7.3969674,3.7849212,-1.4819591
716,7.16,1.4672721499999999,-0.72057903,1.8871726500000001,7.364897,3.5561521000000003,-1.7647897000000001
717,7.17,1.649583,-0.91253006,1.8257922,7.3328266,3.327383,-2.0476203
718,7.18,1.9827211,-1.3198615,1.713282,7.292509,3.3377676,-2.4459045
719,7.19,1.95404435,-1.4691025500000001,1.5445163499999999,7.055799,3.8224893,-2.90680225
720,7.2,1.9253676,-1.6183436,1.3757507,6.819089,4.307211,-3.3677
721,7.21,1.9253676,-1.6183436,1.3757507,6.819089,4.307211,-3.3677
722,7.22,1.59894105,-1.6511692500000001,1.28679185,6.1425555,5.335908,-3.0091222
723,7.23,1.2725145,-1.6839949,1.197833,5.466022,6.364605,-2.6505444
724,7.24,1.1334019,-1.6715481,1.2456682,5.2784867,6.368881,-1.9523253
725,7.25,1.02162365,-1.6288380500000001,1.3203497,5.29803435,6.1990605,-1.77181465
726,7.26,0.9098454,-1.586128,1.3950312,5.317582,6.02924,-1.591304
727,7.27,0.9620737,-1.5768539,1.4589742,5.317582,6.02924,-1.591304
728,7.28,1.1790406,-1.5551329,1.4440868,5.975484,3.426954,-1.1178834
729,7.29,1.1955144500000001,-1.5464688,1.44079195,6.0759712,3.1703906,-1.20370995
730,7.3,1.2119883,-1.5378047,1.4374971,6.1764584,2.9138272,-1.2895365
731,7.31,1.168058,-1.5297508,1.3713577,6.7073,2.389705,-1.7244726
732,7.32,0.81588338,-1.5112024499999999,1.046761525,6.8890325,2.305711,-1.8115209
733,7.33,0.46370876,-1.4926541,0.72216535,7.070765,2.221717,-1.8985692
734,7.34,0.08664031499999997,-1.42407405,0.25003663000000004,7.2405855,1.26204765,-1.36070235
735,7.35,-0.29042813,-1.355494,-0.22209209,7.410406,0.3023783,-0.8228355
736,7.36,-0.46224442,-1.4050376,-0.7089863,7.0194526,-0.67256266,-0.16249016
737,7.37,-0.10189389999999998,-1.47947505,-1.1412117,6.7118818000000005,-1.42942468,0.10476339000000001
738,7.38,0.25845662,-1.5539125,-1.5734371,6.404311,-2.1862867,0.37201694
739,7.39,0.4829893,-1.5956463,-1.9492851,5.620571,-2.4251351,-0.31581733
740,7.4,0.22258021300000003,-1.6724022,-2.41494635,4.6804494000000005,-2.01707705,-0.810923615
741,7.41,-0.037828874,-1.7491581,-2.8806076,3.7403278,-1.609019,-1.3060299
742,7.42,-0.438936952,-1.8188365499999999,-2.72563125,2.3805418,-0.35369095000000006,-0.98929628
743,7.43,-0.84004503,-1.888515,-2.5706549,1.0207558,0.9016371,-0.67256266
744,7.44,-1.1077759,-1.7840585,-2.3851714,0.48563787,2.0402899,0.19120082
745,7.45,-1.3553719499999999,-1.7284134500000001,-2.3474646999999997,0.48014008500000005,2.06961145,0.35216380999999997
746,7.46,-1.602968,-1.6727684,-2.309758,0.4746423,2.098933,0.5131268
747,7.47,-1.63994265,-1.65824695,-2.3849275,0.5879578,1.6737708000000002,1.22967175
748,7.48,-1.6769173,-1.6437255,-2.460097,0.7012733,1.2486086,1.9462167
749,7.49,-1.4650756,-1.6317668,-2.5899355,0.59803706,0.72692966,2.3420575
750,7.5,-1.2462783000000002,-1.6327430500000002,-2.52001305,0.016493349999999962,0.15027285999999995,3.13312795
751,7.51,-1.027481,-1.6337193,-2.4500906,-0.56505036,-0.42638394,3.9241984
752,7.52,-0.7648754,-1.57648785,-2.221287,-1.0845912800000002,-0.34147367,4.3725735
753,7.53,-0.5022698,-1.5192564,-1.9924834,-1.6041322,-0.2565634,4.8209486
754,7.54,0.025626011,-1.4001565,-1.5680678,-3.2522466,-0.63346726,5.9168406
755,7.55,0.025626011,-1.4001565,-1.5680678,-3.2522466,-0.63346726,5.9168406
756,7.56,0.025626011,-1.4001565,-1.5680678,-3.2522466,-0.63346726,5.9168406
757,7.57,0.6757945055,-1.3420708000000001,-1.0394398,-3.9077049500000003,-1.11024758,5.9702912999999995
758,7.58,1.325963,-1.2839851,-0.5108118,-4.5631633,-1.5870279,6.023742
759,7.59,1.5363404,-1.2773956,-0.20061506,-4.982217,-1.8967366,5.9217277
760,7.6,1.7833263499999998,-1.2172355000000001,0.21599067,-5.323690750000001,-2.0775526500000003,5.86888785
761,7.61,2.0303123,-1.1570754,0.6325964,-5.6651645,-2.2583687,5.816048
762,7.62,2.0303123,-1.1570754,0.6325964,-5.6651645,-2.2583687,5.816048
763,7.63,2.0303123,-1.1570754,0.6325964,-5.6651645,-2.2583687,5.816048
764,7.64,2.17442815,-1.13620855,1.06091685,-6.4504316,-1.229671685,4.8860057
765,7.65,2.318544,-1.1153417,1.4892373,-7.2356987,-0.20097467,3.9559634
766,7.66,2.114512,-1.121443,1.5890567,-7.524638,0.86376345,2.9358184
767,7.67,1.92670995,-1.112657,1.61675725,-7.5664822,1.074511925,2.5821274499999998
768,7.68,1.7389079,-1.103871,1.6444578,-7.6083264,1.2852604,2.2284365
769,7.69,1.4870408,-1.0828819,1.534632,-7.6547523,1.2724323,1.8344283
770,7.7,1.3908822,-1.0915460000000001,1.5018063000000001,-7.78395035,0.9184359,1.27395945
771,7.71,1.2947236,-1.1002101,1.4689806,-7.9131484,0.5644395,0.7134906
772,7.72,1.047981785,-1.1501198000000001,1.54854325,-7.8963497,0.31245758,0.304821753
773,7.73,0.80123997,-1.2000295,1.6281059,-7.879551,0.06047566,-0.103847094
774,7.74,0.728632935,-1.2174795999999999,1.61590305,-7.879551,0.06047566,-0.103847094
775,7.75,0.6560259,-1.2349297,1.6037002,-7.879551,0.06047566,-0.103847094
776,7.76,0.3231318,-1.364036,1.6742326,-7.879551,0.06047566,-0.103847094
777,7.77,-0.16254212,-1.3864892,1.8511744,-7.6510873,1.2455542,-0.13683382
778,7.78,-0.16254212,-1.3864892,1.8511744,-7.6510873,1.2455542,-0.13683382
779,7.79,-0.54107493,-1.257627,1.9619763,-7.389026,1.0965031,0.39522982
780,7.8,-0.70678979,-1.11204685,2.1650319,-7.2870115,0.8671232,0.59040126
781,7.81,-0.87250465,-0.9664667,2.3680875,-7.184997,0.6377433,0.7855727
782,7.82,-0.69861385,-0.53997666,2.7056186,-6.0051106999999995,-0.7428121,1.3090842
783,7.83,-0.52472305,-0.11348662,3.0431497,-4.8252244,-2.1233675,1.8325957
784,7.84,-0.48970084999999997,0.27065949,3.04241765,-4.56255245,-2.3722951,1.79166775
785,7.85,-0.45467865,0.6548056,3.0416856,-4.2998805,-2.6212227,1.7507398
786,7.86,-0.43759465,0.90374404,2.9308834,-4.0927973,-3.4092388,1.2669345
787,7.87,-0.4139211,0.8596916699999999,3.02496755,-4.7812424,-3.5860844,1.2110403
788,7.88,-0.39024755,0.8156393,3.1190517,-5.4696875,-3.76293,1.1551461
789,7.89,-0.052472305,-0.013911263,5.734369,-7.9797325,-2.9914072,1.7922786
790,7.9,0.0253819525,-0.1674232715,6.519379,-7.60649395,-2.57815685,1.8759671999999998
791,7.91,0.10323621,-0.32093528,7.304389,-7.2332554,-2.1649065,1.9596558
792,7.92,0.326792655,-0.33326018,7.646679499999999,-4.8792862,-1.6487253499999999,1.9669861499999999
793,7.93,0.5503491,-0.34558508,7.98897,-2.525317,-1.1325442,1.9743165
794,7.94,0.90044925,-0.24161668,7.98897,1.0219774999999998,-0.71776668,1.8438967499999999
795,7.95,1.2505494,-0.13764828,7.98897,4.569272,-0.30298916,1.713477
796,7.96,1.8985213,0.036608588,6.0797105,5.713423,0.9639453,1.2534955
797,7.97,1.79992215,0.08212525899999999,5.1180027500000005,6.021299,2.27669475,0.7715228150000001
798,7.98,1.701323,0.12764193,4.156295,6.329175,3.5894442,0.28955013
799,7.99,0.95475197,0.0102504045,2.5181828,6.0463443,6.0634484,-0.50701815
800,8.0,0.8895886550000001,-0.041611760750000004,2.3877341999999997,5.97029165,6.1288112,-0.523816945
801,8.01,0.82442534,-0.093473926,2.2572856,5.894239,6.194174,-0.54061574
802,8.02,0.81856799,-0.19158493799999998,2.14721575,5.939137499999999,5.926004000000001,-0.60078597
803,8.03,0.81271064,-0.28969595,2.0371459,5.984036,5.657834,-0.6609562
804,8.04,0.75816384,-0.484087575,1.9430618000000002,6.267172,5.28673335,-0.691804885
805,8.05,0.70361704,-0.6784792,1.8489777,6.550308,4.9156327,-0.72265357
806,8.06,0.7573096,-0.8232051,1.7777131,7.040833,4.373795,-0.6951646
807,8.07,0.88238895,-1.03785345,1.70547205,7.040833,4.373795,-0.6951646
808,8.08,1.0074683,-1.2525018,1.633231,7.040833,4.373795,-0.6951646
809,8.09,1.1011863,-1.4521407,1.4052817,8.185595,2.9614747,-1.5888605
810,8.1,1.1011863,-1.4521407,1.4052817,8.185595,2.9614747,-1.5888605
811,8.11,1.1011863,-1.4521407,1.4052817,8.185595,2.9614747,-1.5888605
812,8.12,1.00637008,-1.4883832,1.24237345,8.223163,2.6316074499999997,-1.89734745
813,8.13,0.91155386,-1.5246257,1.0794652,8.260731,2.3017402,-2.2058344
814,8.14,0.89898491,-1.50790775,1.0477378000000002,7.577477999999999,2.0567832499999996,-2.2656992000000002
815,8.15,0.88641596,-1.4911898,1.0160104,6.894225,1.8118263,-2.325564
816,8.16,1.018939,-1.4096746,1.6415291,6.5649686,2.207667,-2.2730296
817,8.17,1.0954510000000002,-1.42382995,1.82640245,6.74181415,2.4755314,-2.23179615
818,8.18,1.171963,-1.4379853,2.0112758,6.9186597,2.7433958,-2.1905627
819,8.19,1.2080834,-1.5492754,1.9534342,7.415293,2.5503623,-2.3463335
820,8.2,1.14511665,-1.5601359499999998,1.8620348,8.004778,2.15910315,-2.5689937499999997
821,8.21,1.0821499,-1.5709965,1.7706354,8.594263,1.767844,-2.791654
822,8.22,0.8415094200000001,-1.5609901499999999,1.52743235,9.17916675,0.7706065,-2.9236009999999997
823,8.23,0.60086894,-1.5509838,1.2842293,9.7640705,-0.226631,-3.055548
824,8.24,0.18975451,-1.5279204,0.8656711,9.87830225,-1.08764555,-2.8298332999999998
825,8.25,-0.22135992,-1.504857,0.4471129,9.992534,-1.9486601,-2.6041186
826,8.26,-0.5195979,-1.5780742,0.08419975,9.71459,-3.1673362,-1.4672983
827,8.27,-0.5452239,-1.65983335,-0.10897155500000001,9.584170499999999,-3.69268045,-0.84879725
828,8.28,-0.5708499,-1.7415925,-0.30214286,9.453751,-4.2180247,-0.2302962
829,8.29,-0.47794544,-1.7974002666666666,-0.48632474000000003,9.001914333333334,-4.396397266666667,-0.07106399333333333
830,8.3,-0.38504098,-1.8532080333333334,-0.67050662,8.550077666666667,-4.574769833333333,0.08816821333333336
831,8.31,-0.29213652,-1.9090158,-0.8546885,8.098241,-4.7531424,0.24740042
832,8.32,0.14204131,-2.4493585,-1.7149903,6.894836,-3.5662313,-0.44104472
833,8.33,-0.74169,-2.0261633,-2.7175775,6.894836,-3.5662313,-0.44104472
834,8.34,-0.9517012499999999,-2.13025365,-2.8104412500000002,2.8438831,-0.10903945000000004,-1.26479646
835,8.35,-1.1617125,-2.234344,-2.903305,-1.2070698,3.3481524,-2.0885482
836,8.36,-2.4452095,-2.5103729,-2.1252506,-2.705522,5.3890533,-2.2382102
837,8.37,-2.8856108,-2.5569877500000002,-1.66251805,-2.73606535,5.92875265,-1.4056009
838,8.38,-3.3260121,-2.6036026,-1.1997855,-2.7666087,6.468452,-0.5729916
839,8.39,-2.5647976,-2.0090792,-0.79660285,-1.2712106,3.4263432,1.7427986
840,8.4,-2.29218565,-1.9210965999999998,-0.866647275,-0.8637634750000001,2.72842965,2.24981665
841,8.41,-2.0195737,-1.833114,-0.9366917,-0.45631635,2.0305161,2.7568347
842,8.42,-1.54903135,-1.68728975,-1.1617125,-0.24404067,1.65788825,3.4822372
843,8.43,-1.078489,-1.5414655,-1.3867333,-0.03176499,1.2852604,4.2076397
844,8.44,-1.078489,-1.5414655,-1.3867333,-0.312457565,1.4553864,4.37379505
845,8.45,-1.078489,-1.5414655,-1.3867333,-0.59315014,1.6255124,4.5399504
846,8.46,-0.3607166,-1.2859375,-1.4506763,-0.59315014,1.6255124,4.5399504
847,8.47,-0.0630888,-1.25591855,-1.0853225800000001,-0.98349302,1.8347337000000001,4.7207665500000004
848,8.48,0.234539,-1.2258996,-0.71996886,-1.3738359,2.043955,4.9015827
849,8.49,0.47859627,-1.2154051,-0.5188657,-3.9241984,0.9266826,6.076277
850,8.5,0.756577485,-1.21869985,-0.31666427249999995,-4.22535505,-0.09560040000000003,6.1932575
851,8.51,1.0345587,-1.2219946,-0.114462845,-4.5265117,-1.1178834,6.310238
852,8.52,1.3281596,-1.1262021500000001,0.08664032749999999,-4.581795,-1.2562444,6.1926463
853,8.53,1.6217605,-1.0304097,0.2877435,-4.6370783,-1.3946054,6.0750546
854,8.54,1.704984,-1.00783438,0.35534735,-5.0396383,-0.9923506,5.8346792999999995
855,8.55,1.7882075,-0.98525906,0.4229512,-5.4421983,-0.5900958,5.594304
856,8.56,1.9685657,-0.9386441,0.7224094,-5.7903914,-0.1301143,5.407379
857,8.57,1.98455145,-0.90325585,0.9087471,-6.0057215500000005,0.27183504999999997,4.8414125
858,8.58,2.0005372,-0.8678676,1.0950848,-6.2210517,0.6737844,4.275446
859,8.59,1.6700838,-0.737541,1.4809394,-5.7922244,0.089186326,3.254079
860,8.6,1.5923515,-0.6983698199999999,1.4720313,-5.643784050000001,-0.14049900199999998,3.095865
861,8.61,1.5146192,-0.65919864,1.4631232,-5.4953437,-0.37018433,2.937651
862,8.62,1.24237335,-0.587689845,1.24725455,-5.04666335,-1.665524065,2.4620924
863,8.63,0.9701275,-0.51618105,1.0313859,-4.597983,-2.9608638,1.9865338
864,8.64,0.9701275,-0.51618105,1.0313859,-4.6636508,-3.0735684,2.0021108
865,8.65,0.9701275,-0.51618105,1.0313859,-4.7293186,-3.186273,2.0176878
866,8.66,0.91570276,-0.50641876,0.87274873,-4.7293186,-3.186273,2.0176878
867,8.67,0.9552400299999999,-0.53948853,0.84761083,-5.734802950000001,-2.3893993499999997,2.2605067500000002
868,8.68,0.9947773,-0.5725583,0.82247293,-6.7402873,-1.5925257,2.5033257
869,8.69,0.96256185,-0.57988006,1.104115,-6.7402873,-1.5925257,2.5033257
870,8.7,0.96256185,-0.57988006,1.104115,-6.98127365,-0.024740050000000124,2.53478525
871,8.71,0.96256185,-0.57988006,1.104115,-7.22226,1.5430456,2.5662448
872,8.72,0.841265355,-0.10457855500000002,1.4010107,-6.706995,2.24340265,2.77821505
873,8.73,0.71996886,0.37072295,1.6979064,-6.19173,2.9437597,2.9901853
874,8.74,0.77756638,0.493849825,1.5954022499999998,-6.3725462,2.7803532000000004,2.81333985
875,8.75,0.8351639,0.6169767,1.4928981,-6.5533624,2.6169467,2.6364944
876,8.76,0.58305275,1.0384636,1.4816716,-7.015787,2.134974,2.1948388
877,8.77,0.386464645,0.97818145,1.66312815,-8.403673,0.39095370000000007,1.163392845
878,8.78,0.18987654,0.9178993,1.8445847,-9.791559,-1.3530666,0.13194689
879,8.79,0.03239860000000003,0.5060526999999999,2.9457709249999997,-10.201907875,-2.0726658000000002,0.77228642
880,8.8,-0.12507933999999998,0.09420609999999996,4.04695715,-10.61225675,-2.792265,1.41262595
881,8.81,-0.44003522,-0.7294871,6.2493296,-10.73107,-3.295618,2.607173
882,8.82,1.329868,-0.4080637,7.98897,-6.532593,-1.0329732,5.3194146
883,8.83,2.3525897999999996,-0.357665875,7.98897,-5.50389585,-1.0580186500000002,5.064989300000001
884,8.84,3.3753116,-0.30726805,7.98897,-4.4751987,-1.0830641,4.810564
885,8.85,3.5119838,-0.02696831500000002,7.98897,-0.9144652999999998,-1.48745685,2.9605585000000003
886,8.86,3.648656,0.25333142,7.98897,2.6462681,-1.8918496,1.110553
887,8.87,3.3081961,0.316054135,6.7736867499999995,5.0619347999999995,-0.15546514999999994,-0.2116648000000001
888,8.88,2.9677362,0.37877685,5.5584035,7.4776015,1.5809193,-1.5338826
889,8.89,2.5383174,0.34704941499999997,4.35617775,7.69232055,2.6496280499999996,-2.1151209
890,8.9,2.1088986,0.31532198,3.153952,7.9070396,3.7183368,-2.6963592
891,8.91,0.9454777,-0.013179091,1.3689171,7.286401,4.517959,-2.9132164
892,8.92,0.8319911,-0.0702884855,1.2440818,7.02586685,4.637078000000001,-2.8576277
893,8.93,0.7185045,-0.12739788,1.1192465,6.7653327,4.756197,-2.802039
894,8.94,0.6314981,-0.210011265,1.07385185,6.24090485,4.96664,-2.5237898000000003
895,8.95,0.5444917,-0.29262465,1.0284572,5.716477,5.177083,-2.2455406
896,8.96,0.7167961,-0.61966133,1.1524384,5.712812,4.987715,-2.0176878
897,8.97,0.72338565,-0.651388795,1.1639091000000001,5.9030965,4.701829999999999,-2.0158553
898,8.98,0.7299752,-0.68311626,1.1753798,6.093381,4.415945,-2.0140228
899,8.99,0.7436424,-0.705203445,1.1730612,6.21983,4.2097777999999995,-2.03295955
900,9.0,0.7573096,-0.72729063,1.1707426,6.346279,4.0036106,-2.0518963
901,9.01,0.7482795,-0.8925173,1.0931324,6.695694,3.1337388,-2.293799
902,9.02,0.673109885,-0.87885012,1.0184509,6.723183,2.5143214,-2.4281892999999997
903,9.03,0.59794027,-0.86518294,0.9437694,6.750672,1.894904,-2.5625796
904,9.04,0.5344853700000001,-0.76389917,0.959633085,6.448599,1.7895297499999998,-2.5439483
905,9.05,0.47103047,-0.6626154,0.97549677,6.146526,1.6841555,-2.525317
906,9.06,0.5723142,-0.70996255,1.0657979,4.7781878,2.5485299,-2.705522
907,9.07,0.6323523200000001,-0.8039245749999999,1.2240691,4.3960917,2.62305535,-2.7116308
908,9.08,0.69239044,-0.8978866,1.3823403,4.0139956,2.6975808,-2.7177396
909,9.09,0.70898634,-1.001733,1.82737865,3.5924985000000005,2.6505443,-2.5937339
910,9.1,0.72558224,-1.1055794,2.272417,3.1710014,2.6035078,-2.4697282
911,9.11,0.72558224,-1.1055794,2.272417,3.1710014,2.6035078,-2.4697282
912,9.12,1.19136547,-1.3490264500000002,2.37528715,5.3893585,2.5393669,-2.9327640500000003
913,9.13,1.6571487,-1.5924735,2.4781573,7.6077156,2.475226,-3.3957999
914,9.14,1.6234688,-1.6644703500000002,2.18748505,8.0212713,2.4810292,-3.5937202
915,9.15,1.5897889,-1.7364672,1.8968128,8.434827,2.4868324,-3.7916405
916,9.16,1.115097575,-1.7149902,0.47395915,9.00873525,2.0097465999999997,-4.05034195
917,9.17,0.64040625,-1.6935132,-0.9488945,9.5826435,1.5326608,-4.3090434
918,9.18,0.2626056,-1.1919756,-3.155172,5.9333344,-0.41783184,-3.7281106
919,9.19,0.2626056,-1.1919756,-3.155172,4.6563205,-0.06139197000000002,-3.5647041
920,9.2,0.2626056,-1.1919756,-3.155172,3.3793066,0.2950479,-3.4012976
921,9.21,-0.25748038,-0.7385172,-3.6635432,0.7690793,1.9071213,-3.1337388
922,9.22,-0.6119735399999999,-0.7980672,-2.511227,-0.15241085,2.95170085,-2.1352795
923,9.23,-0.9664667,-0.8576172,-1.3589108,-1.073901,3.9962804,-1.1368202
924,9.24,-0.73058537,-1.0049057499999998,-1.4251722500000001,-0.6230825,3.64991985,-0.97524635
925,9.25,-0.49470404,-1.1521943,-1.4914337,-0.172264,3.3035593,-0.8136725
926,9.26,-0.7946504,-0.94865054,-2.140138,2.723848,0.9645562,-0.52595496
927,9.27,-0.9637820500000001,-1.04432097,-2.4118956999999996,3.00454065,0.6160576,-0.41783181999999996
928,9.28,-1.1329137,-1.1399914,-2.6836534,3.2852333,0.267559,-0.30970868
929,9.29,-1.30070305,-1.1689121999999998,-2.81398,3.4193182,0.1072068625,-0.15485434
930,9.3,-1.4684924,-1.197833,-2.9443066,3.5534031,-0.053145275,0.0
931,9.31,-1.3076587,-1.2654368,-2.9423542,3.1355712,-0.56016344,2.1679606
932,9.32,-1.07885505,-1.27617535,-2.7915267999999998,3.1355712,-0.56016344,2.1679606
933,9.33,-0.8252185750000001,-1.2843512750000001,-2.6061653,2.66306695,-0.45845437,2.82983315
934,9.34,-0.5715821,-1.2925272,-2.4208038,2.1905627,-0.3567453,3.4917057
935,9.35,0.0051252022,-1.1316935,-1.8155419,1.2993103,-0.16310102,4.189314
936,9.36,0.12650300146666665,-1.0975255,-1.7234509666666666,0.78231471,-0.5387831466666666,4.387234333333334
937,9.37,0.24788080073333332,-1.0633575,-1.6313600333333333,0.26531912,-0.9144652733333333,4.585154666666667
938,9.38,0.3692586,-1.0291895,-1.5392691,-0.25167647,-1.2901474,4.783075
939,9.39,0.446624735,-0.9964858,-1.4340804500000002,-0.48166723499999997,-1.5256359499999999,4.81239635
940,9.4,0.52399087,-0.9637821,-1.3288918,-0.711658,-1.7611245,4.8417177
941,9.41,0.8639627,-0.8502955,-0.8161274,-1.8784106,-2.4966063,4.8563786
942,9.42,0.9405966,-0.8510276,-0.6028214,-2.4721715,-2.8637362,4.837442
943,9.43,1.04566325,-0.852614,-0.27956757499999996,-3.1279354,-3.0250046,4.923268500000001
944,9.44,1.1507299,-0.8542004,0.04368625,-3.7836993,-3.186273,5.009095
945,9.45,1.1507299,-0.8542004,0.04368625,-3.7836993,-3.186273,5.009095
946,9.46,1.3137602,-0.8766537,0.1666911,-4.134336,-3.0268373,5.109277
947,9.47,1.4100407499999998,-0.87762992,0.250768815,-4.4412958499999995,-2.8588494,5.0814825
948,9.48,1.5063213,-0.87860614,0.33484653,-4.7482557,-2.6908615,5.053688
949,9.49,1.4616588,-0.8539563,1.0047837,-5.5820866,-0.0421497,3.8496728
950,9.5,1.4616588,-0.8539563,1.0047837,-5.62087655,0.06078109499999999,3.7641517
951,9.51,1.4616588,-0.8539563,1.0047837,-5.6596665,0.16371189,3.6786306
952,9.52,1.3408505,-0.844194,0.9906283,-5.6596665,0.16371189,3.6786306
953,9.53,1.35232125,-0.8504175,0.9691513,-5.99839135,-0.21502455499999998,3.25285745
954,9.54,1.363792,-0.856641,0.9476743,-6.3371162,-0.593761,2.8270843
955,9.55,1.3667207,-0.8776299,1.0099089,-6.3371162,-0.593761,2.8270843
956,9.56,1.3395082999999999,-0.93852215,1.09825765,-6.560387349999999,-0.87628615,2.54944615
957,9.57,1.3122959,-0.9994144,1.1866064,-6.7836585,-1.1588113,2.271808
958,9.58,1.2315128,-1.0001466,1.3364575,-6.999294,-1.215011,2.0494528
959,9.59,1.25299,-0.99355704,1.4924101,-7.797084,-0.7122689,1.4056009
960,9.6,1.2638505,-1.00759032,1.5575733999999999,-7.8615303999999995,-0.6316347,1.30938965
961,9.61,1.274711,-1.0216236,1.6227367,-7.9259768,-0.5510005,1.2131784
962,9.62,1.3103434,-1.0343146,1.7730759,-8.054258,-0.3182608,0.9071349
963,9.63,1.29704225,-1.06628615,2.0256751,-7.907650500000001,-0.12003502500000002,0.34269540499999995
964,9.64,1.2837411,-1.0982577,2.2782743,-7.761043,0.07819075,-0.22174409
965,9.65,0.9236346500000001,-1.074096,2.3697958999999997,-7.295869,-0.17745636,-0.764192395
966,9.66,0.5635282,-1.0499343,2.4613175,-6.830695,-0.43310347,-1.3066407
967,9.67,0.08956901,-0.8891005,2.4059165,-6.830695,-0.43310347,-1.3066407
968,9.68,-0.7324158,-0.10933765,2.2116468,-7.2216487,-1.6982054,-0.27183503
969,9.69,-0.80331445,-0.0043930350000000035,2.3436817000000003,-7.820907849999999,-1.99905655,-0.11239920249999999
970,9.7,-0.8742131,0.10055158,2.4757166,-8.420167,-2.2999077,0.047036625
971,9.71,-1.0553036,0.118855886,2.9191687,-8.420167,-2.2999077,0.047036625
972,9.72,-0.62710513,-0.322033527,4.280764,-9.6901555,-3.8460076,0.9593638625
973,9.73,-0.19890666,-0.76292294,5.6423593,-10.960144,-5.3921075,1.8716911
974,9.74,0.2865232,-1.0494461,7.2470355,-10.574078,-5.3688946,2.5302038
975,9.75,0.29762781,-0.89507995,7.6180027500000005,-8.5371475,-4.706716800000001,2.572659
976,9.76,0.30873242,-0.7407138,7.98897,-6.500217,-4.044539,2.6151142
977,9.77,0.60086894,-0.3790209,7.98897,-2.5870142,-3.3896914,2.9236012
978,9.78,1.22834007,-0.11299851,7.98897,2.1636849000000002,-2.054645325,2.5827383
979,9.79,1.8558112,0.15302388,7.98897,6.914384,-0.71959925,2.2418754
980,9.8,2.3265977,0.2979939,4.9221463,9.035308,2.4452937,0.2510656
981,9.81,2.2026167,0.22929178499999997,4.441963899999999,9.151067000000001,2.91230015,-0.09010263499999999
982,9.82,2.0786357,0.16058967,3.9617815,9.266826,3.3793066,-0.43127087
983,9.83,1.0611609,-0.3226437,1.5326794,8.734762,5.332854,-1.8228219
984,9.84,1.0611609,-0.3226437,1.5326794,8.4195555,5.40127075,-1.82129475
985,9.85,1.0611609,-0.3226437,1.5326794,8.104349,5.4696875,-1.8197676
986,9.86,0.967687,-0.40830778999999995,1.3473179499999999,7.169114499999999,5.51672415,-1.7192802500000002
987,9.87,0.8742131,-0.49397188,1.1619565,6.23388,5.5637608,-1.6187929
988,9.88,1.0611609,-0.8495633,1.8165181,5.429981,5.6224036,-1.4495832
989,9.89,1.0611609,-0.8495633,1.8165181,5.65722285,5.7036488,-1.3530665
990,9.9,1.0611609,-0.8495633,1.8165181,5.8844647,5.784894,-1.2565498
991,9.91,1.3467078,-1.3806318,2.0827847,6.1208696,5.750685,-1.2223413
992,9.92,1.4307856,-1.7115733999999998,2.18443445,7.11108205,5.470298,-1.2128729
993,9.93,1.5148634,-2.042515,2.2860842,8.1012945,5.189911,-1.2034045
994,9.94,1.4865527,-2.1948068,2.2048132,8.743314,4.710993,-1.2339478
995,9.95,1.4632452,-2.2589939,2.12830125,9.145569,4.29896425,-1.26907255
996,9.96,1.4399377,-2.323181,2.0517893,9.547824,3.8869355,-1.3041973
997,9.97,1.4865527,-2.477669,1.2722704,11.531914,1.0512991,-2.3994787
998,9.98,1.4767904,-2.4496025,1.15256035,11.623849,0.77091195,-2.64596285
999,9.99,1.4670281,-2.421536,1.0328503,11.715784,0.4905248,-2.892447
