id,timestamp,acc_x,acc_y,acc_z,gyro_x,gyro_y,gyro_z
0,0.0,-0.1513155,0.37413976,0.7653635,2.2498167,-0.15760323,-1.133155
1,0.01,-0.218675285,0.31617617,0.7016645749999999,2.3090706,-0.9495900349999999,-1.43950395
2,0.02,-0.045394648,0.24869433,0.6745742,2.0152445,-2.417194,-1.8881844
3,0.03,0.018792408,0.18231077,0.6455314,1.9474384,-2.9303205,-2.0683897
4,0.04,0.018792408,0.18231077,0.6455314,1.9474384,-2.9303205,-2.0683897
5,0.05,0.033923957,0.14887492,0.51740134,1.9382755,-3.3707545,-2.2504275
6,0.06,0.005857374499999998,0.125323395,0.44186564000000006,1.89887465,-3.81424275,-2.3509148499999997
7,0.07,-0.05759751,0.07736614,0.2323425,1.8594738,-4.257731,-2.4514022
8,0.08,-0.07468152,0.11617125,0.0024405725,0.6414085,-5.3511796,-2.8399124
9,0.09,-0.053936653,0.28164205,0.26455808,-0.6976081,-3.5576792,-3.2754595
10,0.1,-0.09396204,0.31727442,0.40635532,-1.0158689,-2.5375342,-3.1764994
11,0.11,-0.09396204,0.31727442,0.40635532,-1.0158689,-2.5375342,-3.1764994
12,0.12,-0.1061649,0.33911754,0.41050428,-1.1395691000000001,-1.4358387400000001,-3.0005702000000003
13,0.13,-0.11836776,0.36096066,0.41465324,-1.2632693,-0.33414328,-2.824641
14,0.14,-0.14057697,0.31190515,0.13203497,-1.4129313,0.2302962,-2.6273315
15,0.15,-0.1398448,0.27358818,0.05906185,-2.4404066,-0.13133603,-2.489276
16,0.16,-0.20525214,0.25040275,0.13057062,-2.4404066,-0.13133603,-2.489276
17,0.17,-1.0096649,0.5186216,1.2532339,-3.7110064,-0.68661255,-2.5271494
18,0.18,-0.88934463,0.8341876,1.7206036,-2.9181032,-3.7763689,-0.75869465
19,0.19,-0.9830626149999999,0.884463415,1.93110295,-2.4370469,-3.50514475,-0.429743708
20,0.2,-1.0767806,0.93473923,2.1416023,-1.9559906,-3.2339206,-0.100792766
21,0.21,-0.96951743,0.83967894,2.19871175,-0.4838053200000001,-1.6685784149999998,0.562912367
22,0.22,-0.86225426,0.74461865,2.2558212,0.98837996,-0.10323623,1.2266175
23,0.23,-0.71264714,0.6977597,2.1657639,0.98837996,-0.10323623,1.2266175
24,0.24,-0.5379022,0.73461235,1.9202425,1.5803084,-0.31398472,0.86498517
25,0.25,-0.5043443000000001,0.8779958999999999,1.6604434499999998,1.5784758,-0.83199847,0.5143485
26,0.26,-0.5092864500000001,0.9134452,1.6424442249999998,1.5784758,-0.83199847,0.5143485
27,0.27,-0.5142286,0.9488945,1.624445,1.5784758,-0.83199847,0.5143485
28,0.28,-0.49226347,0.9898962,1.380876,2.7116308,-0.53878313,-0.6976081
29,0.29,-0.5232587,0.99355704,1.2739788,2.8991663,-0.052534413,-0.9584476
30,0.3,-0.4097721,0.93937635,1.0233321,3.0665436,0.5564982,-1.2089024
31,0.31,-0.31556603,0.86884385,0.93107843,3.1587842,0.6908886,-1.2198979
32,0.32,-0.26199545,0.7418120349999999,0.8153952250000001,3.3160819999999998,0.7834346999999999,-1.1588113500000001
33,0.33,-0.2762728,0.5869577,0.71948075,3.413515,0.95478237,-1.0952814
34,0.34,-0.1969542,0.35193056,0.58134437,3.4306192,1.3170254,-1.0262536
35,0.35,-0.040513504,0.25357547,0.5215503,3.4306192,1.3170254,-1.0262536
36,0.36,-0.040513504,0.25357547,0.5215503,3.4306192,1.3170254,-1.0262536
37,0.37,0.06613952,0.19109683,0.45345837,3.340822,1.3854424,-1.0580186
38,0.38,0.06613952,0.19109683,0.45345837,3.340822,1.3854424,-1.0580186
39,0.39,0.06613952,0.19109683,0.45345837,3.2125404,1.5271631,-1.0775663
40,0.4,0.06613952,0.19109683,0.45345837,3.31822,1.4245378,-0.97433007
41,0.41,0.05296042,-0.14716652,0.2936009,3.5014796,1.0323622,-0.8020661
42,0.42,0.05296042,-0.14716652,0.2936009,3.5014796,1.0323622,-0.8020661
43,0.43,-0.1010397,-0.27920148,0.16473864,4.0494256,0.76174897,-0.5448918
44,0.44,-0.17547716,-0.32410803,0.11519502,4.0494256,0.76174897,-0.5448918
45,0.45,-0.17547716,-0.32410803,0.11519502,4.2400155,0.6414085,-0.43554693
46,0.46,-0.266022395,-0.34204624,-0.0378288755,4.404949,0.4343252,-0.27916542
47,0.47,-0.29091623,-0.3328941,-0.108117364,4.5857654,-0.047036625,0.059864793
48,0.48,-0.2545517,-0.30116665,-0.16693515,4.605924,-0.2864958,0.23335053
49,0.49,-0.1867038,-0.41855815,-0.24356914,3.92542,0.17959438,0.89980453
50,0.5,-0.210804455,-0.4263069775,-0.26449704749999997,3.54393475,0.07605271999999999,1.213025665
51,0.51,-0.23490511,-0.43405580499999996,-0.285424955,3.1624495,-0.027488940000000003,1.5262468
52,0.52,-0.232647575,-0.4282594325,-0.3124543025,3.04882855,-0.08674287,1.6189456
53,0.53,-0.23039004,-0.42246306,-0.33948365,2.9352076,-0.1459968,1.7116444
54,0.54,-0.177307585,-0.353760985,-0.34741548,1.7275269500000001,-0.539088575,2.5579982
55,0.55,0.035144243,-0.38853914,-0.019280521,0.20158553,-1.10139,3.902818
56,0.56,0.1810904715,-0.42075469,0.0660174895,0.1029307935,-1.2406673000000001,4.32767475
57,0.57,0.3270367,-0.45297024,0.1513155,0.004276057,-1.3799446,4.7525315
58,0.58,0.3270367,-0.45297024,0.1513155,0.004276057,-1.3799446,4.7525315
59,0.59,0.42685616,-0.47859627,0.15912533,0.004276057,-1.3799446,4.7525315
60,0.6,0.5747548,-0.46614933,0.17742962,-0.22052236,-1.7006488,5.7170877
61,0.61,0.6936107,-0.43637437,0.18060236,-0.7128797,-2.1105394,6.4983845
62,0.62,1.0809295,-0.35510328,0.22013964,-0.7128797,-2.1105394,6.4983845
63,0.63,1.0809295,-0.35510328,0.22013964,-0.7128797,-2.1105394,6.4983845
64,0.64,1.2385906,-0.28164205,0.24356914,-1.1472049,-2.1868975,6.9730268
65,0.65,1.398204,-0.19573392,0.26211748,-1.3322971,-2.262034,7.071987
66,0.66,1.9968764,0.14863087,0.38658667,-1.8704693,-2.6456573,6.8673472
67,0.67,1.9968764,0.14863087,0.38658667,-2.090381,-2.7281241,6.582073
68,0.68,2.2070098,0.36022848,0.5657247,-2.2186625,-2.6920831,6.3487225
69,0.69,2.294138,0.51691324,0.69434285,-2.28036,-2.4825563,5.6187387
70,0.7,2.2948703,0.73363612,0.77488175,-2.0775527499999997,-2.41963715,5.26749115
71,0.71,2.2956026,0.950359,0.85542065,-1.8747455,-2.356718,4.9162436
72,0.72,2.2956026,0.950359,0.85542065,-1.8747455,-2.356718,4.9162436
73,0.73,2.2956026,0.950359,0.85542065,-1.64903075,-2.27364035,4.5362854
74,0.74,2.2956026,0.950359,0.85542065,-1.423316,-2.1905627,4.1563272
75,0.75,1.8276227,1.6121200999999998,0.29909216,-1.75776475,-1.586417,2.640465
76,0.76,1.6813104,1.6283499,0.32459614,-1.8161024,-1.4966198,2.4092526
77,0.77,1.3974718,1.679358,0.45321432,-1.8038851,-1.4337007,2.1551325
78,0.78,0.98452693,1.8648415,0.5696296,-1.3439035,-1.4056009,1.749518
79,0.79,0.894225745,1.99821865,0.41623962999999997,-1.24036185,-1.3753631,1.5894713
80,0.8,0.80392456,2.1315958,0.26284966,-1.1368202,-1.3451253,1.4294246
81,0.81,0.77292925,2.28462,0.10201593,-1.3072516,-1.2699889,1.1410962
82,0.82,0.77292925,2.28462,0.10201593,-1.3072516,-1.2699889,1.1410962
83,0.83,0.71020655,2.6031146,0.19524580000000002,-1.3072516,-1.2699889,1.1410962
84,0.84,0.7945283249999999,2.79640795,0.48335537,-1.5986343,-0.62338801,0.16187925000000003
85,0.85,0.8788501,2.9897013,0.77146494,-1.890017,0.02321288,-0.8173377
86,0.86,0.8788501,2.9897013,0.77146494,-1.4825699,0.040317107,-1.536937
87,0.87,1.292039,3.176649,0.7997756,-1.4825699,0.040317107,-1.536937
88,0.88,1.292039,3.176649,0.7997756,-1.4825699,0.040317107,-1.536937
89,0.89,1.4531169,3.193001,0.8742131,-1.3640621,-0.20708331,-2.276084
90,0.9,1.4531169,3.193001,0.8742131,-1.3640621,-0.20708331,-2.276084
91,0.91,2.3795580999999997,2.93576455,1.33316275,-1.03358395,-0.22418754800000001,-3.1661146000000002
92,0.92,2.5272126,2.8666964,1.3784354,-0.9224065,-0.108123146,-3.3603697
93,0.93,2.5272126,2.8666964,1.3784354,-0.9224065,-0.108123146,-3.3603697
94,0.94,2.5272126,2.8666964,1.3784354,-0.4728097,0.7892379,-4.315763
95,0.95,2.1115835,1.4806952,0.9098454,0.115453534,2.519819,-5.5814757
96,0.96,2.1115835,1.4806952,0.9098454,0.115453534,2.519819,-5.5814757
97,0.97,1.9204865,1.2773956,0.8529801,0.3390302,2.8252518,-5.730527
98,0.98,1.7825942,1.0523748,0.80392456,0.3390302,2.8252518,-5.730527
99,0.99,1.7825942,1.0523748,0.80392456,0.8875872,2.8325822,-5.857587
100,1.0,1.5914973,0.58183247,0.50568664,1.5180001,2.3096814,-6.038403
101,1.01,1.5031485999999998,0.25772444699999997,0.28981797,1.7537941,2.1453587,-6.1950898
102,1.02,1.4421343,0.108117364,0.19353738,1.9895881,1.981036,-6.3517766
103,1.03,1.4421343,0.108117364,0.19353738,1.9895881,1.981036,-6.3517766
104,1.04,1.4421343,0.108117364,0.19353738,1.9895881,1.981036,-6.3517766
105,1.05,1.4421343,0.108117364,0.19353738,2.117259,2.1038198,-6.392094
106,1.06,1.1048472,-0.2801777,-0.07150877,2.1374176,2.079996,-6.346279
107,1.07,0.959145,-0.39708114,-0.09200958,2.1911736,1.8429805,-6.1843996
108,1.08,0.8983747,-0.42514774,-0.071264714,2.2492058,1.6878207,-6.148359
109,1.09,0.8049008,-0.44613665,-0.04075756,2.3744333,1.4501941,-6.1178155
110,1.1,0.50885934,-0.55059314,-0.071264714,2.791654,0.89980453,-5.8789673
111,1.11,0.50885934,-0.55059314,-0.071264714,2.92299,0.8136725,-5.765346
112,1.12,0.39073566,-0.5972081,-0.088104665,2.92299,0.8136725,-5.765346
113,1.13,0.2506468,-0.6186851,-0.10055158,3.0482175,0.72326446,-5.6132407
114,1.14,0.059794027,-0.60892284,-0.1300825,3.1410692,0.6041457,-5.362786
115,1.15,-0.2689511,-0.55108124,-0.19671014,3.164282,0.26389378,-4.6053133
116,1.16,-0.2689511,-0.55108124,-0.19671014,3.0744848,-0.0036651916,-4.033543
117,1.17,-0.35534734,-0.48225713,-0.26699865,2.9083295,-0.2602286,-3.4367278
118,1.18,-0.25430766,-0.4588276,-0.35168648,2.3695462,-0.5174029,-2.402533
119,1.19,-0.25430766,-0.4588276,-0.35168648,2.3695462,-0.5174029,-2.402533
120,1.2,-0.25430766,-0.4588276,-0.35168648,2.3695462,-0.5174029,-2.402533
121,1.21,-0.16107778749999999,-0.491165185,-0.38048524,1.26052039,-0.39645157,-1.0549642750000001
122,1.22,-0.067847915,-0.52350277,-0.409284,0.15149458,-0.27550024,0.29260445
123,1.23,-0.006345487499999997,-0.575120885,-0.2779812,-0.63652161,0.19120083000000004,1.2440270249999998
124,1.24,0.05515694,-0.626739,-0.1466784,-1.4245378,0.6579019,2.1954496
125,1.25,0.11983210150000001,-0.6432128500000001,0.102137958,-1.6691893,0.9166033499999999,2.8053986
126,1.26,0.24576566,-0.716064,0.28579104,-1.8576412,1.2754866,4.203364
127,1.27,0.26968327,-0.7563334,0.30970863,-1.7171422,1.215011,4.583322
128,1.28,0.26968327,-0.7563334,0.30970863,-1.5326608,1.029308,4.9577823
129,1.29,0.26968327,-0.7563334,0.30970863,-1.5326608,1.029308,4.9577823
130,1.3,0.383658,-0.7817154,0.28798756,-1.3848315,0.79473567,5.254663
131,1.31,0.48396555,-0.7856203,0.26529023,-0.9822713,-0.015271631,6.019466
132,1.32,0.6313761,-0.7643873,0.24796216,-0.7837401,-0.39522982,6.3169575
133,1.33,0.7582859,-0.71899265,0.23697957,-0.63529986,-0.6597345,6.5026608
134,1.34,0.8912971,-0.643823,0.22477673,-0.453262,-0.9798279,6.736011
135,1.35,1.3523211,-0.25943285,0.16693515,-0.19425514,-1.5289958,7.390248
136,1.36,1.6593453,-0.058573738,0.12935033,-0.25228736,-1.536326,7.5466294
137,1.37,1.9673455,0.12739788,0.09298581,-0.38973203,-1.4398094,7.487986
138,1.38,1.9673455,0.12739788,0.09298581,-0.38973203,-1.4398094,7.487986
139,1.39,2.268512,0.35119838,0.06369894,-0.59131753,-1.2913691,7.1874404
140,1.4,2.6272762,0.84565836,0.09664667,-1.0348058,-0.98899084,6.2161646
141,1.41,2.6077516,0.95719253,0.11922196500000001,-1.2226468499999998,-0.85643309,5.5973583
142,1.42,2.588227,1.0687267,0.14179726,-1.4104879,-0.72387534,4.978552
143,1.43,1.89839935,1.68118835,0.147898695,-1.676825,-0.7654142,4.2601743
144,1.44,1.8104167,1.7140139,0.10128376,-1.676825,-0.7654142,4.2601743
145,1.45,1.6173674,1.7450093,-0.026846299,-2.252871,-1.0824533,3.726278
146,1.46,1.4096746,1.7642899,-0.122760795,-3.3884695,-1.6475036,3.408628
147,1.47,1.0440769,1.9536783,0.38463423,-3.4758232,-1.785559,3.3389895
148,1.48,1.0440769,1.9536783,0.38463423,-3.4758232,-1.785559,3.3389895
149,1.49,1.0584763,2.0857131,0.63113207,-3.3518176,-1.9291124,3.163671
150,1.5,1.0499343,2.1928544,0.7641432,-3.0586023,-1.9504927,2.8961122
151,1.51,0.9409627,2.66278655,0.8329674,-2.393981,-1.4902057499999999,2.2540927
152,1.52,0.9117979,2.9582179,0.8027043,-2.166739,-1.0354166,1.7763962
153,1.53,0.9117979,2.9582179,0.8027043,-2.166739,-1.0354166,1.7763962
154,1.54,0.92156017,3.1573687,0.8671354,-2.0830505,-0.7831292,1.4251486
155,1.55,0.92156017,3.1573687,0.8671354,-1.7611245,-0.45020768,0.6933321
156,1.56,1.0523748,3.5693374,1.2200422,-1.4391985,-0.25961772,0.21319197
157,1.57,1.1177822,3.671353,1.3018013,-1.0268645,-0.09040806,-0.25900686
158,1.58,1.1177822,3.671353,1.3018013,-1.0268645,-0.09040806,-0.25900686
159,1.59,1.6786258,3.6640313,1.142432,0.009162978,0.115453534,-1.6358972
160,1.6,1.8401916,3.5420027,1.00576,0.1441642,0.312763,-2.1991148
161,1.61,1.9414753,3.3616445,0.9366917,0.18570304,0.5534439,-2.6401596
162,1.62,1.7203596,2.425685,0.73607665,0.30543262,1.8509218,-4.3579125
163,1.63,1.7203596,2.425685,0.73607665,0.30543262,1.8509218,-4.3579125
164,1.64,1.7203596,2.425685,0.73607665,0.3652974,2.111761,-4.6254716
165,1.65,1.3906382,1.897057,0.61966133,0.3652974,2.111761,-4.6254716
166,1.66,1.2861817,1.6940014,0.5693855,0.5925393,2.5124888,-5.0115385
167,1.67,1.2544543,1.3703815,0.43124917,0.7984009,2.5760188,-5.0866747
168,1.68,1.3755066999999999,1.1506079,0.295065215,0.8912524,2.5002716,-5.188689
169,1.69,1.4650756,0.9005712,0.17547716,0.9596693,2.230269,-5.6187387
170,1.7,1.4396937,0.54717636,0.10689708,0.9737192,2.0024164,-6.115372
171,1.71,1.4396937,0.54717636,0.10689708,0.9737192,2.0024164,-6.115372
172,1.72,1.3367015,0.28627914,0.05906185,1.0085385,1.8661933,-6.488
173,1.73,1.3137601,0.2097672,0.048201305,1.0158689,1.87963235,-6.533814700000001
174,1.74,1.2908187,0.13325526,0.03734076,1.0231993,1.8930714,-6.5796294
175,1.75,1.2586032,-0.14545812,0.044418417,1.0567969,1.9688187,-6.6767573
176,1.76,1.2417633000000001,-0.24954853500000002,0.0689461715,1.2360858499999998,2.0051651,-6.8279464
177,1.77,1.1997855,-0.422219,0.11177822,1.6523905,1.9321668,-7.1116934
178,1.78,1.1997855,-0.422219,0.11177822,1.6523905,1.9321668,-7.1116934
179,1.79,1.1121689,-0.47493544,0.10421244,1.6523905,1.9321668,-7.1116934
180,1.8,0.8773858,-0.4971446,0.061014313,2.3530529,1.3695599,-7.38475
181,1.81,0.6992240000000001,-0.5043443,0.0460047915,2.54578095,1.12093775,-7.3389352
182,1.82,0.5210622,-0.511544,0.03099527,2.738509,0.8723156,-7.2931204
183,1.83,0.08029483,-0.4756676,0.00097622897,2.9223793,0.4392121,-6.8349714
184,1.84,-0.13398743500000002,-0.39036958,-0.033557870515,2.8832839999999997,0.18692476,-6.23113105
185,1.85,-0.45467865,-0.19451363,-0.10323621,2.7073548,-0.20280726,-5.01276
186,1.86,-0.45467865,-0.19451363,-0.10323621,2.7073548,-0.20280726,-5.01276
187,1.87,-0.36242503,-0.048567392,-0.28115395,1.5741998,-0.19975294,-2.525317
188,1.88,-0.36242503,-0.048567392,-0.28115395,1.5741998,-0.19975294,-2.525317
189,1.89,-0.2936009,-0.090789296,-0.34631723,1.1307116,-0.03359759,-1.9755383
190,1.9,-0.2936009,-0.090789296,-0.34631723,0.47647488,0.25411993,-1.3048081
191,1.91,-0.2936009,-0.090789296,-0.34631723,-0.71837753,0.80756384,-0.10323623
192,1.92,-0.2884757,-0.4144092,-0.073949344,-1.024421,0.91629785,0.39095375
193,1.93,-0.24491145,-0.488846675,0.12288283,-1.3460415499999998,0.8759807749999999,1.4052955
194,1.94,-0.21940747,-0.5037342,0.16986385,-1.319469,0.43554693,2.6456573
195,1.95,-0.07150877,-0.5767073,0.3014107,-1.2119566,0.22235495,3.1215215
196,1.96,-0.07150877,-0.5767073,0.3014107,-1.2119566,0.22235495,3.1215215
197,1.97,0.046858992,-0.562796,0.33484653,-0.9053023,0.00061086525,3.9522982
198,1.98,0.046858992,-0.562796,0.33484653,-0.9053023,0.00061086525,3.9522982
199,1.99,0.046858992,-0.562796,0.33484653,-0.75319684,-0.0421497,4.2137485
200,2.0,0.16888762,-0.5374141,0.32069123,-0.2919936,-0.226631,4.8435507
201,2.01,0.17035197,-0.5320448,0.28237423,-0.070249505,-0.35918877,5.1783047
202,2.02,0.21989558,-0.44918735,0.15168157999999998,0.150578285,-0.5720753,5.88568675
203,2.03,0.39927766,-0.3585201,-0.0053692595,0.23335053,-0.6786713,6.301686
204,2.04,0.39927766,-0.3585201,-0.0053692595,0.07941248,-0.71837753,6.859406
205,2.05,0.70264083,-0.255772,-0.1181237,0.07941248,-0.71837753,6.859406
206,2.06,0.70264083,-0.255772,-0.1181237,-0.08735373,-0.70188415,7.0683217
207,2.07,0.9554841,-0.07224095,-0.054424766,-0.36651915,-0.6945538,7.3548174
208,2.08,1.1478013,-0.00976229,0.0026846298,-0.42455134,-0.69027776,7.369478
209,2.09,1.1478013,-0.00976229,0.0026846298,-0.42455134,-0.69027776,7.369478
210,2.1,1.4670281,0.14228538,0.06369894,-0.32436943,-0.72082096,6.926601
211,2.11,1.4954608,0.44455027,0.012813004499999999,-0.208610485,-0.67561695,6.342614
212,2.12,1.4741058,0.60843474,-0.030507157,-0.15882497,-0.625526,6.012747
213,2.13,1.3791674,0.878362,-0.21965154,-0.37690386,-0.4905248,5.5637608
214,2.14,1.2168695,1.1648853,-0.33997175,-1.0091494,-0.38545597,5.2509975
215,2.15,1.2168695,1.1648853,-0.33997175,-1.0091494,-0.38545597,5.2509975
216,2.16,1.2168695,1.1648853,-0.33997175,-1.0091494,-0.38545597,5.2509975
217,2.17,1.0628693,1.5414655,-0.24918245,-1.6334536,-0.3915646,5.024367
218,2.18,1.0243083,1.7962613,-0.12813005,-1.8723019,-0.5039638,4.87837
219,2.19,1.0067362,2.037878,-0.022209208,-1.9853121,-0.743423,4.6987753
220,2.2,0.9652464,2.7173333,0.09493827,-2.0830505,-1.4147639,4.4006734
221,2.21,0.9652464,2.7173333,0.09493827,-2.0830505,-1.4147639,4.4006734
222,2.22,1.27751765,3.13357305,0.156562725,-2.5870143,-1.73455195,4.083634249999999
223,2.23,1.5897889,3.5498128,0.21818718,-3.0909781,-2.05434,3.7665951
224,2.24,1.7496464,3.6903896,0.8188121,-3.9950588,-1.0494665,1.8808541
225,2.25,1.632743,3.6996639,1.2224828,-3.8643336,-0.4972443,1.0134255
226,2.26,1.632743,3.6996639,1.2224828,-3.8643336,-0.4972443,1.0134255
227,2.27,1.2644606,3.6479237,1.8958366,-1.9065105,0.65240407,-0.74036866
228,2.28,1.2644606,3.6479237,1.8958366,-1.9065105,0.65240407,-0.74036866
229,2.29,1.2510375,3.4290044,2.1091428,-1.9065105,0.65240407,-0.74036866
230,2.3,1.330112,3.2466936,1.9751552,-0.029932396,1.087951,-1.6029104
231,2.31,1.3594599,3.046139525,1.65763675,0.676685977,1.36665825,-2.25226015
232,2.32,1.3888078,2.8455854499999997,1.3401183,1.38330435,1.6453655,-2.9016099
233,2.33,1.4475036,2.4444773,0.7050814,1.8008307,1.9914207,-4.067752
234,2.34,1.1578076,1.9509935,0.09030118,1.5741998,1.8643607,-4.362189
235,2.35,1.1578076,1.9509935,0.09030118,1.3261884,1.7421877,-4.506353
236,2.36,1.1578076,1.9509935,0.09030118,1.3261884,1.7421877,-4.506353
237,2.37,1.2183337,1.58564,-0.065407336,0.49418998,1.781894,-4.814229
238,2.38,1.2566508,1.3716017,-0.0319715,0.1600467,1.9969184,-5.036584
239,2.39,1.2251674,1.2141849,0.020988923,-0.00061086525,2.1270328,-5.197852
240,2.4,1.1762339499999999,0.9479184,0.0899351015,-0.09896017,2.2687535,-5.4983983
241,2.41,1.1273005,0.6816519,0.15888128,-0.09896017,2.2687535,-5.4983983
242,2.42,1.0452971,0.22697324,0.20403185,0.7348709,1.7782288,-5.9944205
243,2.43,0.98403883,0.12886222,0.1513155,0.7348709,1.7782288,-5.9944205
244,2.44,0.9261973,0.071264714,0.04881145,1.1478158,1.5589281,-6.113539
245,2.45,0.9261973,0.071264714,0.04881145,1.1478158,1.5589281,-6.113539
246,2.46,0.91375035,0.0039049159,-0.07443746,1.2070698,1.5656476,-6.1324763
247,2.47,0.91497064,-0.035632357,-0.16547081,1.1435398,1.5803084,-6.1440825
248,2.48,0.86274236,-0.11543907,-0.27846932,0.8552113,1.6114625,-6.1666846
249,2.49,0.7912336,-0.16937573,-0.26358184,0.65240407,1.6578883,-6.1850104
250,2.5,0.686289,-0.21769907,-0.20061506,0.5091562000000001,1.7421877000000001,-6.1306436
251,2.51,0.686289,-0.21769907,-0.20061506,0.5045747,1.745242,-6.1001005
252,2.52,0.010982576,-0.375116,0.18963248,1.1557571,1.2932017,-5.6657753
253,2.53,0.010982576,-0.375116,0.18963248,1.1557571,1.2932017,-5.6657753
254,2.54,-0.27432033,-0.34290043,0.20500809,1.9645426,0.021380283,-3.9101484
255,2.55,-0.27432033,-0.34290043,0.20500809,1.9645426,0.021380283,-3.9101484
256,2.56,-0.6067263,-0.18548352,0.19719826,1.9645426,0.021380283,-3.9101484
257,2.57,-0.5091034,-0.119343996,0.06760386,2.121535,-0.61208695,-2.1948388
258,2.58,-0.4053791,-0.118855886,-0.040269446,2.0060816,-0.6383542,-1.591304
259,2.59,-0.15326795399999998,-0.20891300499999998,-0.270293395,1.08703473,-0.16676622,-0.16432275000000002
260,2.6,-0.017084008,-0.26065314,-0.3607166,0.49296826,0.15943582,0.5009095
261,2.61,0.15058333,-0.33875147,-0.36559775,-0.013439035,0.4129449,0.8472701
262,2.62,0.23112221,-0.40952805,-0.31361356,-0.63163465,0.6621779,1.1600331
263,2.63,0.06613952,-0.50641876,-0.062478654,-1.097114,0.81000733,1.4269812
264,2.64,-0.2042759,-0.52203846,0.2801777,-1.3909402,0.8399397,1.7568485
265,2.65,-0.2042759,-0.52203846,0.2801777,-1.3646729,0.5693264,2.5625796
266,2.66,-0.2042759,-0.52203846,0.2801777,-1.0842859,0.22968534,3.1202996
267,2.67,-0.18987654,-0.6274712,0.37975308,-0.79412484,-0.026267206,3.5369098
268,2.68,-0.058207654,-0.6672525149999999,0.284814805,0.0818559465,-0.49907692,4.658764
269,2.69,0.057841565,-0.69263446,0.18572757,0.37507126,-0.55833083,5.0384164
270,2.7,0.111046046,-0.70142055,0.13057062,0.5375614,-0.5839872,5.2687125
271,2.71,0.111046046,-0.70142055,0.13057062,0.7788532,-0.7476991,5.8319306
272,2.72,0.28164205,-0.6557818,0.013667206,0.7788532,-0.7476991,5.8319306
273,2.73,0.28164205,-0.6557818,0.013667206,0.86070913,-0.86559606,6.0671134
274,2.74,0.28164205,-0.6557818,0.013667206,0.86070913,-0.86559606,6.0671134
275,2.75,0.663591625,-0.467979755,-0.0723019595,0.8662069275,-1.12796268,6.6761461
276,2.76,1.0455412,-0.28017771,-0.158271125,0.871704725,-1.3903292999999999,7.285178800000001
277,2.77,1.4331042,-0.07028849,-0.20769271,0.50579643,-1.0433578,7.560679
278,2.78,1.692781,0.1044565,-0.20793676,0.50579643,-1.0433578,7.560679
279,2.79,1.9771078,0.5086153,-0.16986385,-0.5907067,0.15332718,7.0823717
280,2.8,2.0644803,0.75218445,-0.19622204,-1.128879,0.5876524,6.7580023
281,2.81,2.0644803,0.75218445,-0.19622204,-1.128879,0.5876524,6.7580023
282,2.82,2.05862295,0.904354125,-0.24820623,-1.76967665,0.6768387,6.34383565
283,2.83,2.0527656,1.0565238,-0.30019042,-2.4104743,0.766025,5.929669
284,2.84,1.9551427,1.1268123,-0.2169669,-3.2333097,0.7122689,5.4867916
285,2.85,1.6857034,1.4030851,0.48542988,-4.2717805,0.4801401,4.92113
286,2.86,1.6420171,1.8736275,1.1409676,-4.2717805,0.4801401,4.92113
287,2.87,1.6420171,1.8736275,1.1409676,-3.69756725,0.49205195,4.2076396
288,2.88,1.6420171,1.8736275,1.1409676,-3.123354,0.5039638,3.4941492
289,2.89,1.3415827,2.5852983,1.07434,-2.5857925,0.24923302,2.2547035
290,2.9,1.176356,2.740763,1.0535952,-2.5857925,0.24923302,2.2547035
291,2.91,1.176356,2.740763,1.0535952,-2.3854287,0.00061086525,1.6029104
292,2.92,0.84150934,3.0175238,1.1905112,-2.1288655,-0.29749137,0.85154617
293,2.93,0.84150934,3.0175238,1.1905112,-2.1288655,-0.29749137,0.85154617
294,2.94,0.8341876,3.179334,1.3183973,-1.7611245,-0.24373524,0.2938262
295,2.95,1.0345587,3.1190517,1.279104,-1.387275,0.73853606,-0.91446525
296,2.96,0.95426387,3.1044083,1.3315763,-1.387275,0.73853606,-0.91446525
297,2.97,0.95426387,3.1044083,1.3315763,-1.0451905,1.0543534,-1.5583172
298,2.98,0.9174112,3.069508,1.3994243,-0.73364913,1.0671816,-1.781894
299,2.99,0.98794377,2.9897013,1.4775226,-0.73364913,1.0671816,-1.781894
300,3.0,1.3623276,2.7251432,1.4267586,0.10323623,0.9798279,-2.2015584
301,3.01,1.3623276,2.7251432,1.4267586,0.3921755,0.95356065,-2.3805418
302,3.02,1.5221851,2.5623572,1.2678773,0.6743952,1.0122037,-2.6499333
303,3.03,1.658369,2.181872,0.9188756,0.86773407,1.3197744,-3.1752775
304,3.04,1.5302389,1.8011425,0.65090066,0.7654142,1.8484782,-4.0139956
305,3.05,1.5302389,1.8011425,0.65090066,0.7654142,1.8484782,-4.0139956
306,3.06,1.1958805,1.4404259,0.55864704,0.50518554,2.2186625,-4.3627996
307,3.07,1.1958805,1.4404259,0.55864704,0.50518554,2.2186625,-4.3627996
308,3.08,1.108264,1.1258361,0.5801241,0.50518554,2.370768,-4.382347
309,3.09,1.0877631,0.976229,0.5252112,0.6065892,2.3695462,-4.4403796
310,3.1,1.1290088,0.7963588,0.43954712,0.75686204,2.3365595,-4.6114216
311,3.11,1.1802609,0.6272271,0.37828872,0.75686204,2.3365595,-4.6114216
312,3.12,1.2080834,0.33118567,0.29140437,0.9627236,2.2266037,-4.999321
313,3.13,1.159272,0.20915705,0.2865232,1.1246029,2.243097,-5.189911
314,3.14,0.8917852,-0.1261776,0.2443013,1.6560557,2.048842,-5.5637608
315,3.15,0.7895252,-0.20305562,0.16913168,1.6560557,2.048842,-5.5637608
316,3.16,0.7294871,-0.2518671,0.13520771,1.9199494,2.0720549,-5.488624
317,3.17,0.7294871,-0.2518671,0.13520771,1.9199494,2.0720549,-5.488624
318,3.18,0.7294871,-0.2518671,0.13520771,2.0775528,2.117259,-5.403714
319,3.19,0.66066295,-0.34680536,0.108117364,2.2602015,2.1319196,-5.3383512
320,3.2,0.54864067,-0.409284,0.056377225,2.2602015,2.1319196,-5.3383512
321,3.21,0.48665017,-0.42856455,0.041733786,2.6603181,2.1050417,-5.1880784
322,3.22,0.34802565,-0.4702983,0.02831064,2.9297097,1.8655825,-5.145318
323,3.23,0.27773715,-0.48250117000000003,0.037584816,2.9938506,1.80602315,-5.1385985
324,3.24,0.20744865,-0.49470404,0.046858992,3.0579915,1.7464638,-5.131879
325,3.25,-0.15839316,-0.50715095,0.10177187,3.4923167,1.1588113,-4.900361
326,3.26,-0.38219366,-0.515937,-0.0015863699999999897,3.67832515,0.72998394,-4.59279035
327,3.27,-0.60599416,-0.52472305,-0.10494461,3.8643336,0.30115658,-4.2852197
328,3.28,-0.60599416,-0.52472305,-0.10494461,3.8643336,0.30115658,-4.2852197
329,3.29,-0.60599416,-0.52472305,-0.10494461,3.785532,-0.6206391,-3.0879238
330,3.3,-0.60599416,-0.52472305,-0.10494461,3.785532,-0.6206391,-3.0879238
331,3.31,-0.6855568,-0.52252656,-0.37023485,3.785532,-0.6206391,-3.0879238
332,3.32,-0.66908295,-0.49177537000000004,-0.398057375,0.25809055000000003,-0.516486585,1.62032
333,3.33,-0.6484601,-0.48006064,-0.35144243,-0.19975294,-0.37873647,2.094046
334,3.34,-0.53717,-0.45858356,-0.20256752,-0.19975294,-0.37873647,2.094046
335,3.35,-0.32972133,-0.45223808,-0.07272906,-1.382999,0.1020145,3.8429532
336,3.36,-0.13789235,-0.4893348,0.012446919,-1.382999,0.1020145,3.8429532
337,3.37,0.21843125,-0.57402265,0.10836142,-1.8246545,0.15821409,5.058575
338,3.38,0.21843125,-0.57402265,0.10836142,-1.8283197,0.07880162,5.176472
339,3.39,0.3756041,-0.5879339,0.14765464,-1.8093829,-0.032375857,5.2167892
340,3.4,0.41575152,-0.5504711,0.21672284,-1.70156515,-0.25137104849999997,5.2790976
341,3.41,0.5130083,-0.44882128,0.3162982,-1.3768903,-0.6872234,5.4330354
342,3.42,0.554376,-0.40818575,0.31092893,-1.1221594799999999,-0.82161375,5.5145859999999995
343,3.43,0.5957437,-0.36755022,0.30555966,-0.86742866,-0.9560041,5.5961366
344,3.44,0.70020026,-0.29213652,0.2626056,-0.6041457,-1.028697,5.679825
345,3.45,0.70020026,-0.29213652,0.2626056,-0.6041457,-1.028697,5.679825
346,3.46,1.0799533,-0.040269446,0.087616555,-0.6041457,-1.028697,5.679825
347,3.47,1.0799533,-0.040269446,0.087616555,-0.24801129,-1.4269812,5.3346863
348,3.48,1.2600676499999999,0.236369445,0.11836776299999999,-0.231823365,-1.9156734499999999,4.834082
349,3.49,1.2603117,0.28579104,0.1432616,-0.20830505,-2.0146337,4.736649
350,3.5,1.1055794,0.68409246,0.21891935,-0.06780604,-2.0690005,4.727486
351,3.51,1.1597601,1.1778203,0.082491346,-0.16737708,-1.6811012,5.276654
352,3.52,1.2258996,1.4248062,-0.11617125,-0.5839872,-1.4349225,5.5491
353,3.53,1.2258996,1.4248062,-0.11617125,-0.5839872,-1.4349225,5.5491
354,3.54,1.2258996,1.4248062,-0.11617125,-1.1795808,-1.3066407,5.672495
355,3.55,1.2258996,1.4248062,-0.11617125,-1.1795808,-1.3066407,5.672495
356,3.56,1.2258996,1.4248062,-0.11617125,-1.1795808,-1.3066407,5.672495
357,3.57,1.75635795,1.82371785,0.51435064,-5.5713965000000005,-1.0091494,3.7235291999999998
358,3.58,1.6427493,1.9029144,0.89007676,-5.4055467,-1.1307116,2.6951375
359,3.59,0.77366143,2.3624742,2.2216532,-5.4055467,-1.1307116,2.6951375
360,3.6,0.77366143,2.3624742,2.2216532,-5.4055467,-1.1307116,2.6951375
361,3.61,0.7231415649999999,2.45045685,2.1553915999999997,-3.2788193000000003,-1.28220615,2.2797491
362,3.62,0.6726217,2.5384395,2.08913,-1.1520919,-1.4337007,1.8643607
363,3.63,0.7856203,2.7131844,1.85874,-0.3848451,-1.328021,1.6120734
364,3.64,0.9193637,2.8530293,1.6986383,-0.3848451,-1.328021,1.6120734
365,3.65,0.90044925,3.0658470500000004,1.56635935,0.75808377,0.208915917,0.187230198
366,3.66,0.84565836,3.388491,1.3757507,0.9859365,0.7458665,-0.24617869
367,3.67,1.0670183,3.486846,1.2429836,1.3048081,1.1716396,-0.68966687
368,3.68,1.0670183,3.486846,1.2429836,1.3048081,1.1716396,-0.68966687
369,3.69,1.3310882,3.4121644,1.155367,1.4605788,1.2534955,-0.9718866
370,3.7,1.5617223,3.2903795,1.0753163,1.4605788,1.2534955,-0.9718866
371,3.71,1.7259729,3.090985,0.9584128,1.4605788,1.2534955,-0.9718866
372,3.72,1.3881977,2.1513648,0.49446,1.822211,1.7599027,-3.6511416
373,3.73,1.2557966500000002,2.03946445,0.46224445000000003,1.79808185,1.7886134500000002,-3.8325686
374,3.74,1.1233956,1.9275641,0.4300289,1.7739527,1.8173242,-4.0139956
375,3.75,0.8947139,1.7408603,0.37023485,1.7104226,1.7825048,-4.134336
376,3.76,0.8512717,1.6716701,0.33984970999999997,1.4462234,1.63406455,-4.199393000000001
377,3.77,0.8078295,1.6024799,0.30946457,1.1820242,1.4856243,-4.26445
378,3.78,0.8937377,1.1880707,0.10494461,1.1820242,1.4856243,-4.26445
379,3.79,0.8937377,1.1880707,0.10494461,1.1820242,1.4856243,-4.26445
380,3.8,0.9342511,1.0518868,0.07516963,1.029308,1.5424347,-4.35608
381,3.81,0.9342511,1.0518868,0.07516963,0.64568454,1.8023579,-4.8175886
382,3.82,0.9342511,1.0518868,0.07516963,0.59131753,1.8393153,-4.9596148
383,3.83,0.9342511,1.0518868,0.07516963,0.59131753,1.8393153,-4.9596148
384,3.84,0.9271735,0.2767609,0.1969542,0.76052725,1.8423696,-5.2827625
385,3.85,0.9271735,0.2767609,0.1969542,1.0824533,1.7641789,-5.442809
386,3.86,0.7878168,-0.030507157,0.2272173,1.0824533,1.7641789,-5.442809
387,3.87,0.77048874,-0.09786696,0.22184804,1.9089539,1.4770721,-5.5729237
388,3.88,0.72875494,-0.23990828,0.19304928,1.9089539,1.4770721,-5.5729237
389,3.89,0.72875494,-0.23990828,0.19304928,1.9089539,1.4770721,-5.5729237
390,3.9,0.57280236,-0.37975308,0.16498269,2.3188446,1.4037683,-5.6309557
391,3.91,0.44369608,-0.43198135,0.15936938,2.3188446,1.4037683,-5.6309557
392,3.92,0.08273541270000001,-0.477253945,0.17193834,3.0601295,0.868039515,-5.38172285
393,3.93,-0.050397823650000007,-0.4823181325,0.17053501,3.24598525,0.6643159574999999,-5.2491649250000005
394,3.94,-0.18353106,-0.48738232,0.16913168,3.431841,0.4605924,-5.116607
395,3.95,-0.18353106,-0.48738232,0.16913168,3.8050797,-0.10873401,-4.473977
396,3.96,-0.18353106,-0.48738232,0.16913168,3.8050797,-0.10873401,-4.473977
397,3.97,-0.83174706,-0.30629185,0.102504045,3.8050797,-0.10873401,-4.473977
398,3.98,-0.83174706,-0.30629185,0.102504045,4.029878,-1.0152581,-2.7220156
399,3.99,-0.81441903,-0.12007617,-0.0353883,3.9327505,-1.210735,-1.9089539
400,4.0,-0.5518134,-0.065163285,-0.2882316,3.376863,-1.2113458,-0.65179324
401,4.01,-0.4053791,-0.10518867,-0.41538543,2.823419,-1.0861185,-0.1459968
402,4.02,-0.28335047,-0.15912533,-0.54790854,1.378112,-0.6976081,0.7415904
403,4.03,-0.28335047,-0.15912533,-0.54790854,1.378112,-0.6976081,0.7415904
404,4.04,-0.28432667,-0.20354374,-0.4195344,0.7733554,-0.5479461,1.119716
405,4.05,-0.28432667,-0.20354374,-0.4195344,-0.7819075,-0.1777618,2.2479842
406,4.06,-0.28432667,-0.20354374,-0.4195344,-1.4184291,-0.016493361,2.85946
407,4.07,-0.21037734,-0.2801777,-0.16766733,-1.8154916,0.108123146,3.3115005
408,4.08,-0.11836776,-0.3436326,-0.046858992,-2.2284365,0.2687807,3.8563924
409,4.09,-0.022697324,-0.40196228,0.04075756,-2.5045476,0.43066,4.3066
410,4.1,0.18353106,-0.5022698,0.20622836,-2.6762006,0.66950834,4.8380527
411,4.11,0.18353106,-0.5022698,0.20622836,-2.6762006,0.66950834,4.8380527
412,4.12,0.40196228,-0.49128726,0.49201941,-1.6798794,0.10567969,5.244889
413,4.13,0.40196228,-0.49128726,0.49201941,-1.6798794,0.10567969,5.244889
414,4.14,0.4253918,-0.44442827,0.50666285,-1.1539245,-0.30665436,5.349347
415,4.15,0.4407674,-0.38927132,0.49519217,-0.5821546,-0.77396625,5.525276
416,4.16,0.46834585,-0.2975058,0.43466598,-0.035430185,-1.1905763,5.7818394
417,4.17,0.7082541,-0.082491346,0.23112221,0.6621779,-1.491733,6.300464
418,4.18,0.89080894,0.015375607,0.11568313,0.8265007,-1.3020592999999998,6.53686905
419,4.19,1.1153417,0.14082102,-0.025381953,0.816116,-1.1930199,6.5674124
420,4.2,1.5673357,0.60306543,-0.46639338,0.2846632,-0.6114761,6.315125
421,4.21,1.6503152,0.70239675,-0.47981656,0.2846632,-0.6114761,6.315125
422,4.22,1.6747209,0.74779141,-0.42575787,-0.5354234,-0.15088371,5.791918750000001
423,4.23,1.6991266,0.79318607,-0.37169918,-1.35551,0.30970868,5.2687125
424,4.24,1.4599504,1.1607363,0.30019042,-1.9248364,0.29016098,4.1037927
425,4.25,1.3564702,1.26043365,0.39146784,-1.8206839000000001,0.19883663000000001,3.9971967
426,4.26,1.25299,1.360131,0.48274526,-1.7165314,0.10751228,3.8906007
427,4.27,1.1150976,1.5055892,0.5440036,-1.4367551,-0.06963864,3.8545597
428,4.28,1.036023,1.5875924,0.4634647,-1.2260065,-0.1423316,3.866166
429,4.29,1.0101529,1.6171232,0.31556603,-1.1753048,-0.1386664,3.8453968
430,4.3,0.9789136,1.7938206,0.09664667,-1.6096299,-0.002443461,3.663359
431,4.31,0.9884319,1.9529461,0.21818718,-1.858252,0.081855945,3.5271358
432,4.32,1.001855,2.2343442,0.51117791,-1.53082825,0.1597412625,3.3017265499999997
433,4.33,1.0369992,2.7510133,0.83101493,-0.65240407,0.17531833,2.8955014
434,4.34,1.0369992,2.7510133,0.83101493,-0.65240407,0.17531833,2.8955014
435,4.35,1.0418804,2.9648075,0.73485637,-0.27977628,0.064751714,2.7458394
436,4.36,1.1114367,3.1939774,0.53765815,0.031154128,-0.07269296,2.5460863
437,4.37,1.1114367,3.1939774,0.53765815,0.031154128,-0.07269296,2.5460863
438,4.38,1.5702643,3.7274864,0.1513155,-0.32925636,0.004276057,1.5528195
439,4.39,1.5702643,3.7274864,0.1513155,-0.64568454,0.20463985,1.0201449
440,4.4,1.6627622,3.5195496,0.34045988,-0.90469146,0.45875978,0.40500367
441,4.41,1.620052,3.2806172,0.42417148,-0.99204516,0.956615,-0.8313876
442,4.42,1.2115002,2.6843855,0.58085626,-0.46792278,1.3286319,-2.243097
443,4.43,0.9515792,2.4315424,0.584029,-0.46792278,1.3286319,-2.243097
444,4.44,0.74681517,2.23434415,0.53729204,0.31215216,1.1450669,-2.71437965
445,4.45,0.54205114,2.0371459,0.49055508,1.0922271,0.9615019,-3.1856623
446,4.46,0.5452848975,1.9327504,0.40720952499999996,1.134224075,0.92546085,-3.2006284750000003
447,4.47,0.5485186550000001,1.8283549,0.32386397,1.17622105,0.8894198,-3.21559465
448,4.48,0.78659654,1.5539125,0.06833603,1.3695599,0.6560693,-3.3896914
449,4.49,0.84858704,1.3276714,-0.01854835,1.16492,0.59986967,-4.0579777
450,4.5,0.84858704,1.3276714,-0.01854835,1.16492,0.59986967,-4.0579777
451,4.51,0.85493255,1.2283401,-0.03441207,1.16492,0.59986967,-4.0579777
452,4.52,0.865427,1.1204668,-0.0302631,0.82772243,0.7489208,-4.456873
453,4.53,0.89813066,0.85859346,0.049787678,0.61391956,0.7996226,-4.7928486
454,4.54,0.90447617,0.73436826,0.10494461,0.57543504,0.76052725,-4.977941
455,4.55,0.9017916,0.61844105,0.14497001,0.6041457,0.7318166,-5.155092
456,4.56,0.8788501,0.3773125,0.19426957,0.6737844,0.72204274,-5.3114734
457,4.57,0.861278,0.277005,0.19768637,0.95356065,0.77396625,-5.569258
458,4.58,0.86249834,0.19988288,0.19134088,0.95356065,0.77396625,-5.569258
459,4.59,0.8710403,0.10689708,0.17498904,1.2260065,0.86070913,-5.776342
460,4.6,0.8710403,0.10689708,0.17498904,1.3371841,0.84116143,-5.843537
461,4.61,0.80465674,-0.13032657,0.14863087,1.3371841,0.84116143,-5.843537
462,4.62,0.72704655,-0.19158493,0.13716017,1.4391985,0.81306165,-5.894239
463,4.63,0.6289356,-0.23771177,0.136428,1.5216653,0.7770206,-5.915619
464,4.64,0.6289356,-0.23771177,0.136428,1.5216653,0.7770206,-5.915619
465,4.65,0.49690056,-0.2723679,0.14423785,1.6420058,0.6994407,-5.8997364
466,4.66,-0.08151512,-0.23551524,0.23649146,2.2479840500000003,0.47311513000000005,-5.1844134
467,4.67,-0.08151512,-0.23551524,0.23649146,2.5589144,0.2724459,-4.5246787
468,4.68,-0.08151512,-0.23551524,0.23649146,2.5589144,0.2724459,-4.5246787
469,4.69,-0.7326599,-0.037828874,0.009518232,2.6132815,-0.5821546,-2.810591
470,4.7,-0.737541,0.025626011,-0.08005078,2.375655,-0.9095783,-2.021964
471,4.71,-0.737541,0.025626011,-0.08005078,2.375655,-0.9095783,-2.021964
472,4.72,-0.5418071,0.05222825,-0.20549619,1.65911,-1.0910053,-0.72082096
473,4.73,-0.42197496,0.01586372,-0.2277054,1.65911,-1.0910053,-0.72082096
474,4.74,-0.34656128,-0.030507157,-0.24820623,0.6102544,-0.7305948,0.4092797
475,4.75,-0.3321619,-0.0605262,-0.25333142,0.19303341,-0.5112942,0.806953
476,4.76,-0.31068486,-0.10665302,-0.16425052,-0.37201694,-0.226631,1.3701707
477,4.77,-0.16595893,-0.18523945,0.0065895454,-0.37201694,-0.226631,1.3701707
478,4.78,-0.16595893,-0.18523945,0.0065895454,-1.8344283,0.32253686,3.4697146
479,4.79,0.23014598,-0.2945771,0.153512,-2.098933,0.33414328,4.0182714
480,4.8,0.27480846,-0.31275936,0.17254846499999998,-2.11573185,0.330172655,4.0640864
481,4.81,0.31947094,-0.33094162,0.19158493,-2.1325307,0.32620203,4.1099014
482,4.82,0.3922,-0.36779428,0.25089085,-2.1325307,0.32620203,4.1099014
483,4.83,0.39415245,-0.387684925,0.34351057,-1.9566014,0.15821409,4.261396
484,4.84,0.34509695,-0.36730617,0.48128092,-1.097114,-0.3494149,4.6602907
485,4.85,0.37828872,-0.3607166,0.48909074,-0.6750061,-0.55771995,4.891809
486,4.86,0.37828872,-0.3607166,0.48909074,-0.6750061,-0.55771995,4.891809
487,4.87,0.46736962,-0.35144243,0.45931572,0.40133846,-0.9266826,5.3517904
488,4.88,0.6411384,-0.26480213,0.3487578,0.40133846,-0.9266826,5.3517904
489,4.89,0.6411384,-0.26480213,0.3487578,0.40133846,-0.9266826,5.3517904
490,4.9,0.89007676,-0.052472305,0.255772,0.8570439,-1.0464121,5.4837375
491,4.91,1.07678055,0.15192564,0.23758972499999997,1.0586295,-1.033584,5.4648004
492,4.92,1.1290088,0.21940747,0.23868799,1.0586295,-1.033584,5.4648004
493,4.93,1.4050376,0.76926845,0.27139166,1.7012597,-0.61086524,4.9333477
494,4.94,1.4050376,0.76926845,0.27139166,1.8154916,-0.3921755,4.759862
495,4.95,1.4262705,1.3718457,0.022453265,1.8099937,-0.0421497,4.6431866
496,4.96,1.4262705,1.3718457,0.022453265,1.8099937,-0.0421497,4.6431866
497,4.97,1.4560456,1.4733735,-0.2042759,1.3726143,0.8723156,4.3371434
498,4.98,1.4377413,1.53512,-0.41050428,0.8472701,1.4483615,3.9810088
499,4.99,1.4377413,1.53512,-0.41050428,0.8472701,1.4483615,3.9810088
500,5.0,1.4377413,1.53512,-0.41050428,-0.21746805000000002,1.86680415,3.4657439
501,5.01,0.6740861,2.0608194,-0.4080637,-1.2822062,2.2852468,2.950479
502,5.02,0.49397188,2.2114027,-0.3619369,-1.2822062,2.2852468,2.950479
503,5.03,0.49397188,2.2114027,-0.3619369,-1.6621643,1.6920967,2.987742
504,5.04,0.40830776,2.5423443,-0.40196228,-1.8203784,1.3005321,3.091589
505,5.05,0.6960513,2.8972034,-0.42465958,-2.1526892,0.68966687,3.0934217
506,5.06,0.6960513,2.8972034,-0.42465958,-2.2785273,0.539394,2.9706378
507,5.07,0.6960513,2.8972034,-0.42465958,-2.4514022,0.4251622,2.7097983
508,5.08,1.6232247,3.5288239,0.03294773,-2.4831672,0.43371433,1.7250835
509,5.09,1.6232247,3.5288239,0.03294773,-2.4831672,0.43371433,1.7250835
510,5.1,1.9273201,3.4243672,0.47762007,-2.0891593,0.37568212,0.4550946
511,5.11,1.854103,3.2335143,0.5735345,-2.0891593,0.37568212,0.4550946
512,5.12,1.854103,3.2335143,0.5735345,-2.0891593,0.37568212,0.4550946
513,5.13,1.4650756,2.6511939,0.63406074,-0.27916542,0.3915646,-2.4178047
514,5.14,1.4650756,2.6511939,0.63406074,0.28710666,0.46486846,-2.9993484
515,5.15,0.96768695,2.0737545,0.5464442,0.6927212,0.4972443,-3.335935
516,5.16,0.74632704,1.8709428,0.45907167,0.6927212,0.4972443,-3.335935
517,5.17,0.5935472,1.6229807,0.19085276,1.7537941,0.23457226,-3.794695
518,5.18,0.6480940150000001,1.54256385,0.04551667300000001,1.7281378,0.085826565,-3.87135855
519,5.19,0.7734174,1.3852689,-0.19671014,1.387275,0.07269296,-4.039041
520,5.2,0.87274873,1.1748916,-0.27773714,0.72021013,0.34697145,-4.344474
521,5.21,0.87274873,1.1748916,-0.27773714,0.72021013,0.34697145,-4.344474
522,5.22,0.9176552,0.98062205,-0.21135357,0.3304781,0.50885075,-4.533231
523,5.23,0.91301812,0.9159469,-0.174989045,0.022907449999999996,0.638048725,-4.7241265
524,5.24,0.90838104,0.85127175,-0.13862452,-0.2846632,0.7672467,-4.915022
525,5.25,0.861278,0.5005614,0.15839316,-0.48624873,0.9602802,-5.349958
526,5.26,0.8494005666666666,0.39374568000000004,0.20028964666666668,-0.3433062646666667,0.9661852333333334,-5.4271305666666665
527,5.27,0.8375231333333334,0.28692996000000004,0.24218613333333333,-0.20036379933333331,0.9720902666666666,-5.504303133333334
528,5.28,0.8256457,0.18011424,0.28408262,-0.057421334,0.9779953,-5.5814757
529,5.29,0.8007518,-0.0134231495,0.35485923,0.44348818,0.98715824,-5.7354136
530,5.3,0.7690244,-0.08688438,0.37926495,0.66828656,0.9755518,-5.7965
531,5.31,0.7690244,-0.08688438,0.37926495,0.66828656,0.9755518,-5.7965
532,5.32,0.53814626,-0.29921418,0.40659937,1.3671165,0.89369583,-5.949217
533,5.33,0.53814626,-0.29921418,0.40659937,1.7513506,0.82527894,-5.987701
534,5.34,0.53814626,-0.29921418,0.40659937,2.0506747,0.7476991,-5.9681535
535,5.35,0.53814626,-0.29921418,0.40659937,2.0506747,0.7476991,-5.9681535
536,5.36,0.53814626,-0.29921418,0.40659937,2.85213,0.3555236,-5.6016345
537,5.37,-0.369746715,-0.31727443,0.30970864,3.503923,-0.1386664,-4.990769
538,5.38,-0.49446,-0.30946457,0.16864355,3.503923,-0.1386664,-4.990769
539,5.39,-0.49446,-0.30946457,0.16864355,3.975511,-1.0641272,-3.7458258
540,5.4,-0.49446,-0.30946457,0.16864355,3.975511,-1.0641272,-3.7458258
541,5.41,-0.72558224,-0.14863087,-0.20818083,3.4281757,-1.8228219,-2.4239132
542,5.42,-0.69409883,-0.119588055,-0.3243521,2.8344147,-2.0231857,-1.645671
543,5.43,-0.63284045,-0.11861181,-0.39464056,2.2840252,-2.0427334,-1.0684034
544,5.44,-0.5645044,-0.12129646,-0.43417785,1.4526376,-1.8570304,-0.31398472
545,5.45,-0.45638704,-0.122516744,-0.3990336,-0.29810223,-0.88697636,1.1911873
546,5.46,-0.40098605,-0.136428,-0.33484653,-0.9071349,-0.4251622,1.7342464
547,5.47,-0.24869433,-0.20549619,-0.114218794,-2.1533,0.5742133,2.9804115
548,5.48,-0.24869433,-0.20549619,-0.114218794,-2.5240953,0.8405506,3.4691038
549,5.49,0.008542004,-0.32337585,0.15253578,-2.8154778,0.91813046,4.1013494
550,5.5,0.008542004,-0.32337585,0.15253578,-2.8154778,0.91813046,4.1013494
551,5.51,0.008542004,-0.32337585,0.15253578,-2.8154778,0.91813046,4.1013494
552,5.52,0.14509202699999998,-0.36157080500000005,0.26480212000000003,-2.5940392,0.52076262,4.4614544
553,5.53,0.28164205,-0.39976576,0.37706846,-2.3726006,0.12339478,4.8215594
554,5.54,0.328012925,-0.38121742000000003,0.42807643,-1.99875105,-0.11209376000000001,5.014898199999999
555,5.55,0.5276518,-0.27187976,0.51447266,-0.7959574,-0.66156703,5.537493
556,5.56,0.5276518,-0.27187976,0.51447266,-0.7959574,-0.66156703,5.537493
557,5.57,0.6557818,-0.21135357,0.4949481,-0.30604348,-0.79901177,5.6694403
558,5.58,0.78928113,-0.1552204,0.45052966,0.044593163,-0.86559606,5.71892
559,5.59,0.92937,-0.07687803,0.3734076,0.4447099,-0.88697636,5.693264
560,5.6,1.1270564,0.14252943,0.18865626,0.75625116,-0.87598073,5.5918603
561,5.61,1.1270564,0.14252943,0.18865626,0.75625116,-0.87598073,5.5918603
562,5.62,1.2412751,0.39659303,-0.0061014313,0.77640975,-0.59620446,4.9754972
563,5.63,1.2412751,0.39659303,-0.0061014313,0.77640975,-0.59620446,4.9754972
564,5.64,1.2556745,0.7138674,-0.082247294,0.06169739,-0.116675265,4.5301766
565,5.65,1.2163813,0.8749452,-0.06418706,-0.20280726,0.019547688,4.3811255
566,5.66,1.2163813,0.8749452,-0.06418706,-0.20280726,0.019547688,4.3811255
567,5.67,1.082638,1.0516427,-0.033923957,-0.6597345,0.21074851,4.1648793
568,5.68,1.082638,1.0516427,-0.033923957,-0.6597345,0.21074851,4.1648793
569,5.69,0.96329397,1.2324891,0.011958805,-1.1447614,0.3042109,4.0500364
570,5.7,0.93522733,1.3286476,0.067359805,-1.3115277,0.28771752,4.003
571,5.71,0.9109437,1.59003295,0.26150735,-1.3738359,0.23518312,3.9565742
572,5.72,0.94279313,1.9827211,0.48957884,-1.006095,-0.28710666,3.7201693
573,5.73,0.964514215,2.10450565,0.51569297,-0.89705557,-0.349414915,3.70337055
574,5.74,0.9862353,2.2262902,0.5418071,-0.78801614,-0.41172317,3.6865718
575,5.75,1.4248062,2.95895,0.26162934,-0.37873647,-0.57787853,3.5576792
576,5.76,1.58185705,3.1211260000000003,0.172182372,-0.553443935,-0.341168245,3.0631838
577,5.77,1.7389079,3.283302,0.082735404,-0.7281514,-0.10445796,2.5686884
578,5.78,1.7592867,3.32650025,0.09030118200000001,-0.856738515,0.08063421999999999,2.2345451
579,5.79,1.7796655,3.3696985,0.09786696,-0.98532563,0.2657264,1.9004018
580,5.8,1.7123058,3.426564,0.20842488,-1.1398746,0.5852089,1.1930199
581,5.81,1.4096746,3.4553623,0.5418071,-0.9401216,0.7079928,0.13622294
582,5.82,1.3238885,3.363963,0.5720702,-0.614225,0.5259549649999999,-0.27702741
583,5.83,1.2381024,3.2725637,0.6023333,-0.2883284,0.34391713,-0.69027776
584,5.84,1.2368821,3.068776,0.5293602,-0.2883284,0.34391713,-0.69027776
585,5.85,1.1089962,2.6492414,0.41636166,0.75747293,0.16371189,-2.2198844
586,5.86,1.1089962,2.6492414,0.41636166,0.75747293,0.16371189,-2.2198844
587,5.87,0.8500514,2.2565534,0.2889638,1.219287,0.22113322,-2.9217684
588,5.88,0.7031289350000001,1.8713089,0.0857861165,1.4740178,0.260839455,-3.38633145
589,5.89,0.70361704,1.6715481,-0.041977845,1.5399913,0.27183503,-3.5698965
590,5.9,0.72607034,1.560502,-0.09225364,1.3878858,0.27488935,-3.9565742
591,5.91,0.72607034,1.560502,-0.09225364,1.3878858,0.27488935,-3.9565742
592,5.92,0.7917217,1.1653733,-0.11202228,0.8888089,0.45998153,-4.519792
593,5.93,0.7917217,1.1653733,-0.11202228,0.8888089,0.45998153,-4.519792
594,5.94,0.8102701,1.0504224,-0.08786061,0.7141015,0.548557,-4.6975536
595,5.95,0.85322416,0.9257092,-0.045882765,0.5693264,0.63407815,-4.863709
596,5.96,0.89776455,0.67884525,0.0457607348,0.463341295,0.7528914250000001,-5.1725016
597,5.97,0.92229235,0.43539813,0.15936938,0.49418998,0.8210029,-5.4898458
598,5.98,0.9354714,0.3265486,0.19744232,0.5882632,0.8026769,-5.593082
599,5.99,0.9354714,0.3265486,0.19744232,0.5882632,0.8026769,-5.593082
600,6.0,0.9449896,0.082735404,0.2489384,0.7415904,0.77640975,-5.7409115
601,6.01,0.9449896,0.082735404,0.2489384,1.1673635,0.7134906,-6.0628376
602,6.02,0.85322416,-0.117635585,0.27944556,1.3561208,0.67011917,-6.183178
603,6.03,0.75340474,-0.17035197,0.28969595,1.627345,0.5876524,-6.2913013
604,6.04,0.5920829,-0.18963248,0.29530928,1.627345,0.5876524,-6.2913013
605,6.05,0.19744231,-0.123126878,0.29030610999999995,2.3558018,0.21594086699999998,-6.0176337
606,6.06,0.1330112,-0.099575356,0.2894519,2.6120598,0.049480084,-5.8001657
607,6.07,-0.22404456,-0.005857374,0.18475133,2.8680124,-0.17898351,-5.4641895
608,6.08,-0.22404456,-0.005857374,0.18475133,3.2791247,-0.6921103,-4.7849073
609,6.09,-0.32850105,0.037584815,0.127886,3.4251215,-1.0769554,-4.2534547
610,6.1,-0.40123013,0.12129646,0.022941383,3.4147367,-1.5357152,-3.5906658
611,6.11,-0.40123013,0.12129646,0.022941383,2.8728993,-2.1233675,-2.2919664
612,6.12,-0.40123013,0.12129646,0.022941383,2.8728993,-2.1233675,-2.2919664
613,6.13,-0.042954076,0.24698594,-0.50812715,1.3579534,-1.9969184,-1.0445796
614,6.14,0.060282138,0.18279888500000002,-0.5642603500000001,0.08155051000000002,-1.4285084000000001,-0.41538838
615,6.15,0.08419975,0.0776102,-0.4927516,-1.5088371,-0.47403142,0.27855456
616,6.16,0.08419975,0.0776102,-0.4927516,-1.5088371,-0.47403142,0.27855456
617,6.17,0.08419975,0.0776102,-0.4927516,-1.5088371,-0.47403142,0.27855456
618,6.18,0.033191785,-0.10860548,-0.14643435,-2.951701,0.6243043,1.0714576
619,6.19,-0.044174362,-0.2604091,0.2562601,-3.6425896,1.3677273,1.9474384
620,6.2,-0.044174362,-0.2604091,0.2562601,-3.3615913,1.4398094,2.6236663
621,6.21,-0.05662128,-0.35510328,0.6987359,-2.8814514,1.2473868,2.9523118
622,6.22,-0.05662128,-0.35510328,0.6987359,-2.257758,0.90041536,3.2345314
623,6.23,0.1195880535,-0.382681775,0.70276285,-1.260215,0.30512719,3.54973795
624,6.24,0.18377511,-0.38878322,0.6372335,-0.9822713,0.14538592,3.6248744
625,6.25,0.18377511,-0.38878322,0.6372335,0.33292156,-0.50762904,3.9370265
626,6.26,0.2550398,-0.37682438,0.41221267,0.33292156,-0.50762904,3.9370265
627,6.27,0.2809099,-0.37169918,0.2865232,1.3994923,-0.77763146,4.359134
628,6.28,0.3526627,-0.34509695,0.09200958,1.600467,-0.75686204,4.502688
629,6.29,0.3863426,-0.31947094,0.0053692595,1.600467,-0.75686204,4.502688
630,6.3,0.42148685,-0.27846932,-0.087616555,1.7373008,-0.65057147,4.73726
631,6.31,0.45687518,-0.2323425,-0.16058967,1.7006488,-0.56505036,4.8759265
632,6.32,0.6383317500000001,-0.0913994385,-0.29884807999999996,1.4150692999999999,-0.427911115,5.0695707
633,6.33,0.82003236,0.10884953,-0.40684342,0.99387777,-0.35308012,5.145929
634,6.34,0.82003236,0.10884953,-0.40684342,0.99387777,-0.35308012,5.145929
635,6.35,0.8978866,0.29311275,-0.44735694,0.45142943,-0.22785273,5.1935763
636,6.36,0.8978866,0.29311275,-0.44735694,0.45142943,-0.22785273,5.1935763
637,6.37,0.8978866,0.29311275,-0.44735694,0.12461651,-0.07574729,5.131268
638,6.38,1.2429836,0.844194,-0.47786412,-0.5290093,0.24678956,4.696332
639,6.39,1.1997855,0.99233675,-0.44345203,-0.75319684,0.3042109,4.501466
640,6.4,0.98794377,1.3694052,-0.28164205,-1.001819,0.3023783,4.3237042
641,6.41,0.9959976,1.5568411,-0.16937573,-1.2687671,0.028099801,4.290107
642,6.42,1.0323621,1.6957097,-0.0959145,-1.2754866,-0.09590584,4.260785
643,6.43,1.0384636,1.8582519,-0.07297312,-1.2449434,-0.22052236,4.203364
644,6.44,1.1399914,2.5374632,-0.063943,-1.346347,-0.13500121,4.067752
645,6.45,1.2525018,2.7517455,-0.05686534,-1.346347,-0.13500121,4.067752
646,6.46,1.2525018,2.7517455,-0.05686534,-1.4117095,0.0018325958,3.966348
647,6.47,1.411139,2.9699326,-0.08346757,-1.4117095,0.0018325958,3.966348
648,6.48,1.534876,3.134427,-0.11177822,-1.5693128,0.20219639,3.5326338
649,6.49,1.6539761,3.2679265,-0.09298581,-1.6664404,0.3023783,1.8435913
650,6.5,1.5812469,3.453166,0.22868164,-1.5387696,0.26206118,1.3530666
651,6.51,1.5812469,3.453166,0.22868164,-1.5387696,0.26206118,1.3530666
652,6.52,1.1917315,3.2549915,0.39415246,-0.4654793,0.062308256,-0.12522738
653,6.53,1.1917315,3.2549915,0.39415246,-0.4654793,0.062308256,-0.12522738
654,6.54,1.1542686999999998,3.074267,0.28664524,-0.23579397615,0.100792768,-0.5201517600000001
655,6.55,1.1168059,2.8935425,0.17913802,-0.0061086523,0.13927728,-0.91507614
656,6.56,0.93888825,2.4610732,0.055645052,0.10262536,0.25350907,-1.4043792
657,6.57,0.93888825,2.4610732,0.055645052,0.10262536,0.25350907,-1.4043792
658,6.58,0.56596875,1.9788162,0.088348724,0.1881465,0.73731434,-2.7324002
659,6.59,0.58891016,1.7379317,0.11568313,0.24678956,0.77213365,-2.8955014
660,6.6,0.6543175,1.6049205,0.10518867,0.37812558,0.79351395,-3.2803464
661,6.61,0.6543175,1.6049205,0.10518867,0.37812558,0.79351395,-3.2803464
662,6.62,0.6879974,1.5041249,0.09640261,0.44532076,0.8313876,-3.5570683
663,6.63,0.70190865,1.4301754,0.08053889,0.4868596,0.87781334,-3.8038578
664,6.64,0.81417495,1.2583592,0.02318544,0.49296826,0.9089675,-3.9724567
665,6.65,0.87640953,1.1670818,0.012446919,0.4343252,0.9981538,-4.4849725
666,6.66,0.93266482,1.01540018,-0.014277349,0.4343252,0.9981538,-4.4849725
667,6.67,0.98062205,0.8332114,-0.04759116,0.23151793,1.1184943,-5.2057934
668,6.68,1.0672623,0.5764632,-0.024405725,0.065973446,1.1936307,-5.5955257
669,6.69,1.1036268,0.4288086,0.036852647,0.03970624,1.2296717,-5.834985
670,6.7,1.1089962,0.3099527,0.09884319,0.103847094,1.210735,-6.0585613
671,6.71,1.1089962,0.3099527,0.09884319,0.103847094,1.210735,-6.0585613
672,6.72,1.1072878,0.17376876,0.16425052,0.258396,1.1575897,-6.26931
673,6.73,0.9894081,-0.058817793,0.25552794,0.7458665,1.0054842,-6.5985665
674,6.74,0.70361704,-0.18865626,0.26870704,1.4355333,0.69027776,-6.773274
675,6.75,0.61478022,-0.200859125,0.26150735,1.5653422,0.6081163599999999,-6.76044585
676,6.76,0.5259434,-0.21306199,0.25430766,1.6951511,0.52595496,-6.7476177
677,6.77,0.10884953,-0.18523945,0.20305562,2.3005185,0.004886922,-6.3395596
678,6.78,-0.07638990500000001,-0.15314592500000002,0.15741692,2.5066854999999997,-0.30329458899999995,-6.0069435
679,6.79,-0.26162934,-0.1210524,0.11177822,2.7128525,-0.6114761,-5.6743274
680,6.8,-0.51117792,0.033557870000000004,-0.08639627350000001,2.6645942500000004,-1.3845261,-4.4193046
681,6.81,-0.58378494,0.11495096,-0.19378147,2.52043,-1.7232509,-3.7000108
682,6.82,-0.58378494,0.11495096,-0.19378147,2.275473,-1.817935,-3.095865
683,6.83,-0.30433938,0.17987019,-0.32532832,1.8723019,-1.817935,-2.3597724
684,6.84,-0.188412195,0.16315227,-0.38365801,1.18202421,-1.5830573000000001,-1.7033977
685,6.85,-0.07248501,0.14643435,-0.4419877,0.49174652,-1.3481796,-1.047023
686,6.86,-0.119343996,0.16717921,-0.41050428,-0.055588737,-1.1398746,-0.5491679
687,6.87,-0.119343996,0.16717921,-0.41050428,-0.055588737,-1.1398746,-0.5491679
688,6.88,-0.0012202862,0.094206095,-0.0353883,-1.2174544,-0.7464773,0.9431759
689,6.89,0.09225364,0.021477038,0.05735345,-1.6536123,-0.5045747,1.7959439
690,6.9,0.09225364,0.021477038,0.05735345,-1.6536123,-0.5045747,1.7959439
691,6.91,0.09225364,0.021477038,0.05735345,-1.7183639,-0.4251622,2.0207422
692,6.92,0.19426957,-0.09737884,0.25430766,-1.7116444,-0.32253686,2.28036
693,6.93,0.19426957,-0.09737884,0.25430766,-1.4251486,-0.13133603,2.765387
694,6.94,0.19426957,-0.09737884,0.25430766,-1.4251486,-0.13133603,2.765387
695,6.95,0.12605556499999998,-0.24454536,0.477620035,-0.7742717,0.075747289,3.31547105
696,6.96,0.11568313,-0.25552794,0.4876264,-0.602924,0.106901415,3.4367278
697,6.97,0.1044565,-0.2928687,0.47932845,0.07880162,0.12644911,3.8417315
698,6.98,0.1044565,-0.2928687,0.47932845,0.07880162,0.12644911,3.8417315
699,6.99,0.17669745,-0.32606047,0.23990828,1.4801265,-0.08002335,4.6401324
700,7.0,0.17669745,-0.32606047,0.23990828,1.7366899,-0.12644911,4.8673744
701,7.01,0.24186075,-0.29067218,0.1432616,1.7366899,-0.12644911,4.8673744
702,7.02,0.24186075,-0.29067218,0.1432616,1.7366899,-0.12644911,4.8673744
703,7.03,0.3904916,-0.21379416,-0.04881145,1.9834795,-0.021991149,5.275432
704,7.04,0.5599893300000001,-0.0810270075,-0.25674822,1.7846427999999999,0.234266825,5.5594847000000005
705,7.05,0.81197846,0.07175283,-0.44003522,1.2974777,0.5027421,5.7378573
706,7.06,0.81197846,0.07175283,-0.44003522,1.2974777,0.5027421,5.7378573
707,7.07,0.91375035,0.16864355,-0.47273886,1.0415252,0.5510005,5.706703
708,7.08,1.1146095,0.4458926,-0.4275883,0.37812558,0.5479461,5.531385
709,7.09,1.2520137,0.5649925,-0.33435842,0.37812558,0.5479461,5.531385
710,7.1,1.2942356,0.7243619,-0.22282428,0.089186326,0.43249258,5.0805664
711,7.11,1.2654368,0.8937377,-0.14960709,0.055588737,0.42638394,4.808731
712,7.12,1.2654368,0.8937377,-0.14960709,0.055588737,0.42638394,4.808731
713,7.13,1.2302926,1.4599504,-0.18548352,-0.039095376,0.41355577,4.3750167
714,7.14,1.2476206,1.5983309,-0.26943922,-0.20708331,0.35246924,4.1819835
715,7.15,1.2476206,1.5983309,-0.26943922,-0.20708331,0.35246924,4.1819835
716,7.16,1.2673893,1.8650855,-0.32020313,-0.66645396,0.1966986,3.7415497
717,7.17,1.2673893,1.8650855,-0.32020313,-0.66645396,0.1966986,3.7415497
718,7.18,1.0948408,2.3305027,-0.06369894,-1.1588113,0.11911872,3.1294627
719,7.19,1.0948408,2.3305027,-0.06369894,-1.1588113,0.11911872,3.1294627
720,7.2,1.1653733,2.6826773,0.07858644,-1.0555751,0.096516706,2.9248228
721,7.21,1.4030851,3.000928,0.037828874,-0.7715228,-0.012217305,2.3005185
722,7.22,1.3833165,3.19153655,-0.09359596,-0.755334875,-0.0134390355,1.94988185
723,7.23,1.3698933,3.3196669,-0.18865626,-0.8668178,0.012217305,1.2357804
724,7.24,1.3991801499999998,3.2829361,-0.21452633,-0.8668178,0.012217305,1.2357804
725,7.25,1.428467,3.2462053,-0.2403964,-0.8668178,0.012217305,1.2357804
726,7.26,1.39222455,3.1912925000000003,-0.2195295,-1.1227703500000001,0.1545489025,0.5430592049999999
727,7.27,1.3559821,3.1363797,-0.1986626,-1.3787229,0.2968805,-0.14966199
728,7.28,1.176722,2.8788992,-0.020378780000000013,-1.3588698,0.40683625,-0.834136495
729,7.29,0.9974619,2.6214187,0.15790504,-1.3390167,0.516792,-1.518611
730,7.3,0.694830975,2.24337425,0.28066583,-0.53908857,0.5219843399999999,-2.2858577
731,7.31,0.65212095,2.1906579,0.27554062,-0.3622431,0.49602258,-2.3805418
732,7.32,0.6535853,2.1001127,0.21208574,-0.13439035,0.45570546,-2.4856107
733,7.33,0.9030118,1.8267684,-0.063943,-0.13439035,0.45570546,-2.4856107
734,7.34,0.9623177,1.7323183,-0.10836142,-0.13439035,0.45570546,-2.4856107
735,7.35,0.9623177,1.7323183,-0.10836142,0.029932396,0.66645396,-3.6645806
736,7.36,0.9896521,1.6288381,-0.12471326,0.029932396,0.66645396,-3.6645806
737,7.37,0.94572186,1.411139,-0.111290105,0.029932396,0.66645396,-3.6645806
738,7.38,0.91204196,1.2900866,-0.102992155,-0.12950343,0.83199847,-4.382958
739,7.39,0.89678838,1.14999775,-0.1066530175,-0.147218525,0.846659235,-4.56041435
740,7.4,0.8664033,0.7082541,-0.11031388,-0.20463985,0.8906415,-5.0231447
741,7.41,0.8664033,0.7082541,-0.11031388,-0.20463985,0.8906415,-5.0231447
742,7.42,0.8422416,0.59013045,-0.09664667,-0.20158553,0.93951076,-5.159368
743,7.43,0.8158834,0.4724948,-0.073217176,-0.18692477,0.9896017,-5.263826
744,7.44,0.79782313,0.38561043,-0.05296042,-0.15821409,1.0280862,-5.332854
745,7.45,0.79831123,0.19256116,-0.014887493,-0.15821409,1.0280862,-5.332854
746,7.46,0.79831123,0.19256116,-0.014887493,-0.15821409,1.0280862,-5.332854
747,7.47,0.77781045,0.00976229,0.01415532,0.1020145,1.2620476,-5.562539
748,7.48,0.7337581,-0.11531705,0.042465961499999996,0.25870144,1.32374495,-5.649893
749,7.49,0.54717636,-0.29384494,0.13886857,0.6597345,1.2260065,-5.78917
750,7.5,0.3973252,-0.3372871,0.19353738,0.9309586,1.0861185,-5.8246
751,7.51,0.3973252,-0.3372871,0.19353738,0.9309586,1.0861185,-5.8246
752,7.52,0.3973252,-0.3372871,0.19353738,1.2577715,0.8979719,-5.80322
753,7.53,-0.17498904,-0.3053156,0.29604146,1.9260582,0.48075095,-5.5216107
754,7.54,-0.39268813,-0.24064046,0.2975058,1.9260582,0.48075095,-5.5216107
755,7.55,-0.55645055,-0.18206671,0.2626056,2.688418,-0.14538592,-4.673119
756,7.56,-0.70093244,-0.11568313,0.1889003,2.9535334,-0.52534413,-4.079358
757,7.57,-0.78513217,0.22160399,-0.13471961,2.820365,-1.219287,-1.8564194
758,7.58,-0.78513217,0.22160399,-0.13471961,2.820365,-1.219287,-1.8564194
759,7.59,-0.5605995,0.28627914,-0.22819352,2.4917192,-1.241889,-1.0329732
760,7.6,0.06613952,0.24405725,-0.49446,2.185065,-1.205848,-0.5412266
761,7.61,0.06613952,0.24405725,-0.49446,0.6059783,-0.8717047,0.4728097
762,7.62,0.08908089,0.22331238,-0.55401,0.6059783,-0.8717047,0.4728097
763,7.63,0.0656514,0.20696054,-0.5547421,-0.1600467,-0.7367035,0.8564331
764,7.64,0.05344854,0.17840585,-0.47981656,-0.9297369,-0.50946164,1.328021
765,7.65,0.11592719,0.059794027,-0.20232345,-2.0244074,-0.07696902,2.180789
766,7.66,0.15717287,-0.022941383,-0.050031736,-2.443461,0.17531833,2.6193902
767,7.67,0.15717287,-0.022941383,-0.050031736,-2.443461,0.17531833,2.6193902
768,7.68,0.20598431,-0.09811102,0.08078295,-2.701246,0.42394048,2.9932396
769,7.69,0.20598431,-0.09811102,0.08078295,-2.728735,0.72143185,3.4251215
770,7.7,0.3128814,-0.3121492,0.60721445,-2.0402899,0.6041457,3.6725218
771,7.71,0.29872608,-0.3226437,0.6882414,-1.4477507,0.36651915,3.7836993
772,7.72,0.2809099,-0.3338703,0.71728426,-0.9297369,0.14538592,3.8863246
773,7.73,0.21647878,-0.35998443,0.63406074,0.5363397,-0.50579643,4.269948
774,7.74,0.21647878,-0.35998443,0.63406074,0.5363397,-0.50579643,4.269948
775,7.75,0.2037878,-0.38780698,0.3585201,0.5363397,-0.50579643,4.269948
776,7.76,0.2037878,-0.38780698,0.3585201,1.2608259,-0.755640315,4.82919525
777,7.77,0.2037878,-0.38780698,0.3585201,1.9853121,-1.0054842,5.3884425
778,7.78,0.44650275000000006,-0.29579739,0.07565775000000002,1.8564195,-0.8161159499999999,5.7549615
779,7.79,0.6892177,-0.2037878,-0.2072046,1.7275269,-0.6267477,6.1214805
780,7.8,1.034558575,0.007199685000000004,-0.195855945,1.4443909000000001,-0.45020769,6.391483
781,7.81,1.4230978,0.31483385,-0.136428,1.3805555,-0.50335294,6.384153
782,7.82,1.5863721,0.51447266,-0.11006982,1.527774,-0.6921103,6.200282
783,7.83,1.5863721,0.51447266,-0.11006982,1.527774,-0.6921103,6.200282
784,7.84,1.5863721,0.51447266,-0.11006982,1.527774,-0.6921103,6.200282
785,7.85,1.5863721,0.51447266,-0.11006982,1.527774,-0.6921103,6.200282
786,7.86,1.7420805499999998,0.98318458,-0.31556601,1.7232509,-0.61086525,5.51702925
787,7.87,1.897789,1.4518965,-0.5210622,1.9187278,-0.5296202,4.8337765
788,7.88,1.5941819,1.7969936,-0.8463905,0.8521569999999999,0.13897183400000002,4.0894374
789,7.89,1.1829455,2.3056087,-0.84053314,-0.59131753,0.61086524,3.885103
790,7.9,1.1673259,2.4371557,-0.7695125,-1.1710287,0.7189884,3.8221838
791,7.91,1.1673259,2.4371557,-0.7695125,-1.1710287,0.7189884,3.8221838
792,7.92,1.1673259,2.4371557,-0.7695125,-1.613906,0.7629707,3.6651914
793,7.93,1.3235224,2.8015332,-0.34851375,-1.9639318,0.66156703,3.073874
794,7.94,1.3235224,2.8015332,-0.34851375,-1.9639318,0.66156703,3.073874
795,7.95,1.2561626,3.0751212,-0.07809832,-1.6713274,0.32559118,2.1142046
796,7.96,1.1909994,3.1737204,-0.041245673,-1.4001031,0.17348573,1.6536123
797,7.97,1.0963051,3.2027633,-0.136428,-0.8008443,0.08857546,0.29443705
798,7.98,1.0963051,3.2027633,-0.136428,-0.8008443,0.08857546,0.29443705
799,7.99,1.03529082,3.1601752999999997,-0.16571487499999998,-0.713796,0.10720684999999999,-0.14019357500000001
800,8.0,0.97427654,3.1175873,-0.19500175,-0.6267477,0.12583824,-0.5748242
801,8.01,0.9620737,2.8796315,-0.22672918,-0.6450737,0.21991149,-1.4019357
802,8.02,0.9876996,2.7078152,-0.21184167,-0.70432764,0.3036,-1.8197676
803,8.03,1.0001466,2.541368,-0.17742962,-0.74036866,0.38912117,-2.1343632
804,8.04,0.934861265,2.2012743,-0.056865339485000006,-0.7672467,0.50335294,-2.542421
805,8.05,0.8588374,1.9239032,0.021477038,-0.657291,0.63346726,-3.345098
806,8.06,0.8664033,1.7598969,0.025626011,-0.657291,0.63346726,-3.345098
807,8.07,0.8664033,1.7598969,0.025626011,-0.60231316,0.643852,-3.5411859
808,8.08,0.8664033,1.7598969,0.025626011,-0.5564982,0.6750061,-3.7476583
809,8.09,0.9022797,1.3652563,0.071264714,-0.49663344,0.698219,-3.9461894
810,8.1,0.9349833,1.2227268,0.10470056,-0.35002577,0.7110472,-4.283387
811,8.11,0.95670444,1.0858107,0.12544543,-0.22479841,0.7189884,-4.500244
812,8.12,0.95670444,1.0858107,0.12544543,-0.08552113,0.72143185,-4.704884
813,8.13,0.87677565,0.72070105,0.072240945,0.0983493,0.74464476,-4.9254065
814,8.14,0.8705522,0.6574902,0.056133166,0.15332718,0.7538077,-5.028032
815,8.15,0.81783587,0.44027928,-0.017084008,0.1142318,0.86559606,-5.145929
816,8.16,0.81783587,0.44027928,-0.017084008,0.1142318,0.86559606,-5.145929
817,8.17,0.8002637,0.33875147,-0.021477038,0.0720821,0.98471475,-5.183192
818,8.18,0.68433654,0.13154685,0.08102701,0.03481932,1.1081096,-5.2363367
819,8.19,0.68433654,0.13154685,0.08102701,0.050701816,1.1722504,-5.208237
820,8.2,0.68433654,0.13154685,0.08102701,0.050701816,1.1722504,-5.208237
821,8.21,0.635281,-0.038561042,0.1718163,0.17287487,1.3854424,-5.108666
822,8.22,0.6042857500000001,-0.10811736,0.241372625,0.407752535,1.4911221000000001,-5.0817878499999996
823,8.23,0.49006698,-0.16107778,0.30067852,0.9266826,1.6065756,-5.0604076
824,8.24,0.22672918,-0.19304928,0.3214234,1.5534303,1.4013249,-4.9431214
825,8.25,0.22672918,-0.19304928,0.3214234,1.7647897000000001,1.28770395,-4.8630982
826,8.26,0.22672918,-0.19304928,0.3214234,1.9761491,1.174083,-4.783075
827,8.27,-0.044662476,-0.26797485,0.29726174,2.7635543,0.5699373,-4.3725734
828,8.28,-0.044662476,-0.26797485,0.29726174,3.02775355,0.13836099999999996,-3.8930442000000003
829,8.29,-0.044662476,-0.26797485,0.29726174,3.2919528,-0.2932153,-3.413515
830,8.3,-0.336799,-0.030507157,-0.30580372,2.8722885,-0.64873886,-2.076331
831,8.31,-0.336799,-0.030507157,-0.30580372,2.8722885,-0.64873886,-2.076331
832,8.32,0.09493827,-0.020744866,-0.50641876,0.6786713,0.5155703,-0.007330383
833,8.33,0.14350566,-0.037584815,-0.42954078,0.15210545,0.9437868,0.36651915
834,8.34,0.14350566,-0.037584815,-0.42954078,0.15210545,0.9437868,0.36651915
835,8.35,0.14350566,-0.037584815,-0.42954078,0.15210545,0.9437868,0.36651915
836,8.36,0.088836834,-0.056377225,-0.17108414,-0.752586,1.4984524,1.3775011
837,8.37,0.1044565,-0.071264714,-0.034168016,-0.915687,1.4416419,1.8875736
838,8.38,0.1969542,-0.10348027,0.11251039,-0.76266525,0.92149023,2.7699685
839,8.39,0.1969542,-0.10348027,0.11251039,-0.5381723,0.61575216,3.2168164
840,8.4,0.24478942,-0.16644704,0.12422514,-0.5381723,0.61575216,3.2168164
841,8.41,0.25211114,-0.19256116,0.102992155,-0.43860126,0.5149594,3.4214563
842,8.42,0.25211114,-0.19256116,0.102992155,-0.43860126,0.5149594,3.4214563
843,8.43,0.25748038,-0.21501444,-0.027334413,-0.18753563,0.38973203,4.2742243
844,8.44,0.25748038,-0.21501444,-0.027334413,-0.15454891,0.36957347,4.652961
845,8.45,0.25748038,-0.21501444,-0.027334413,-0.15454891,0.36957347,4.652961
846,8.46,0.48518583,-0.18475133,-0.21281794,-0.36835176,0.35430184,5.5881953
847,8.47,0.6360132,-0.16888762,-0.2238005,-0.51068336,0.34330627,5.816659
848,8.48,0.9086252,-0.011958805,-0.1718163,-0.7415904,0.086132,5.98709
849,8.49,0.9513352,0.099575356,-0.18377511,-0.7415904,0.086132,5.98709
850,8.5,0.9513352,0.099575356,-0.18377511,-0.7415904,0.086132,5.98709
851,8.51,0.9938011,0.23136626,-0.21525851,-0.75441855,-0.028099801,6.032905
852,8.52,1.0760484,0.40440285,-0.25796852,-0.8032878,-0.029321533,6.225939
853,8.53,1.5485432,0.70337296,-0.24820623,-0.8588765,0.02687807,6.150802
854,8.54,1.7850347,0.8429737,-0.16864355,-0.8588765,0.02687807,6.150802
855,8.55,1.9156054,1.0499343,-0.06980037,-0.52778757,-0.19486602,5.113553
856,8.56,1.79504105,1.4124813,-0.057109395,-0.157297808,-0.29168814,4.43213285
857,8.57,1.5107143,1.8724071,-0.31507793,0.13072516,-0.3915646,3.5949419
858,8.58,1.4157761,1.9749112,-0.45687518,-0.008552114,-0.43249258,3.4006867
859,8.59,1.3159567,2.0271397,-0.61209553,-0.39095375,-0.44776422,3.1227431
860,8.6,1.3159567,2.0271397,-0.61209553,-0.39095375,-0.44776422,3.1227431
861,8.61,1.04066,2.0527656,-0.6560259,-0.9224065,-0.37568212,2.8350255
862,8.62,1.04066,2.0527656,-0.6560259,-0.9224065,-0.37568212,2.8350255
863,8.63,0.77170897,2.1511204,-0.366574,-2.3634377,0.089186326,2.3432791
864,8.64,0.7385172,2.212379,-0.1901206,-2.4697282,0.047647487,1.8387043
865,8.65,0.7385172,2.212379,-0.1901206,-2.4697282,0.047647487,1.8387043
866,8.66,0.77097684,2.5357547,0.3065359,-2.1416936,-0.07696902,1.5497651
867,8.67,0.77097684,2.5357547,0.3065359,-1.6658295,-0.22235495,1.1960741
868,8.68,0.89764255,2.7573588,0.4915313,-1.102001,-0.3549127,0.8026769
869,8.69,0.9767171,2.9526045,0.39537275,-0.18753563,-0.44715336,0.11301007
870,8.7,1.0413923,3.0092258,0.21330604,0.112399206,-0.453262,-0.26816985
871,8.71,1.0413923,3.0092258,0.21330604,0.112399206,-0.453262,-0.26816985
872,8.72,1.19893125,2.9550451,-0.0059793949999999985,-0.070249515,-0.32070425,-1.159727675
873,8.73,1.3918585,2.7785916,-0.21989559,-0.56321776,-0.10567969,-2.0769417
874,8.74,1.3698933,2.5975013,-0.16425052,-0.84971356,0.07880162,-2.5039365
875,8.75,1.3698933,2.5975013,-0.16425052,-1.0665708,0.26939157,-2.8918362
876,8.76,1.2859376500000002,2.4179971499999997,-0.080538888,-1.1221595,0.35033122,-3.0521883
877,8.77,1.201982,2.238493,0.003172744,-1.1777482,0.43127087,-3.2125404
878,8.78,1.0462735,1.8538588,0.06980037,-1.2614367,0.7012733,-3.7317758
879,8.79,1.0512766500000001,1.8043152,0.0555230215,-1.2773192,0.745866465,-3.8029416
880,8.8,1.0562798,1.7547716,0.041245673,-1.2932017,0.79045963,-3.8741074
881,8.81,1.0884954,1.6817985,0.013179091,-1.3414601,0.86132,-3.9742892
882,8.82,1.2537221,1.4421343,0.0065895454,-1.5161675,1.1001683,-4.361578
883,8.83,1.2954559,1.1717188,0.046858992,-1.5741998,1.251052,-4.6401324
884,8.84,1.2158931,0.87982637,0.09054524,-1.6261233,1.7140878,-5.31636
885,8.85,1.2158931,0.87982637,0.09054524,-1.6261233,1.7140878,-5.31636
886,8.86,1.1741594,0.7224094,0.12471326,-1.5937474,1.8845193,-5.474574
887,8.87,1.1446284,0.57988006,0.16400647,-1.5338826,2.0201313,-5.577811
888,8.88,1.1092402,0.4327135,0.20451997,-1.2953397500000001,2.27791655,-5.7549615
889,8.89,1.0245523,0.020744866,0.29262465,-1.1936307,2.35794,-5.8050523
890,8.9,1.0245523,0.020744866,0.29262465,-1.1936307,2.35794,-5.8050523
891,8.91,0.99038434,-0.11251039,0.30873242,-0.28771752,2.4526238,-5.9913664
892,8.92,0.95060295,-0.21403822,0.31312546,0.13561209,2.339614,-6.042068
893,8.93,0.75999427,-0.45126185,0.24698594,0.89919364,2.07572,-6.1001005
894,8.94,0.75999427,-0.45126185,0.24698594,0.89919364,2.07572,-6.1001005
895,8.95,0.68433654,-0.524479,0.19768637,1.6548339,1.8796324,-6.088494
896,8.96,0.482501175,-0.6366233,0.168643555,2.12214585,1.7660114500000001,-6.087883
897,8.97,0.19829651250000002,-0.6541344,0.1824327975,2.562885125,1.532660875,-5.9394428999999995
898,8.98,-0.08590815,-0.6716455,0.19622204,3.0036244,1.2993103,-5.7910028
899,8.99,-0.30019042,-0.6377216,0.20403185,3.300505,1.0647382,-5.525887
900,9.0,-0.45199401000000006,-0.6066043,0.17169426999999998,3.63861885,0.611781585,-4.9675562499999995
901,9.01,-0.6037976,-0.575487,0.13935669,3.9767327,0.15882497,-4.4092255
902,9.02,-0.64016217,-0.4888467,-0.13325526,4.0989056,-0.3659083,-3.6749654
903,9.03,-0.46785772,-0.3572998,-0.4502856,3.0561588,-0.9755518,-1.4477507
904,9.04,-0.23746772,-0.2630937,-0.59794027,2.225382,-0.7635816,-0.6469063
905,9.05,-0.23746772,-0.2630937,-0.59794027,2.225382,-0.7635816,-0.6469063
906,9.06,-0.13789235,-0.23600335,-0.5515694,0.5919284,0.06169739,0.5992588
907,9.07,-0.06858008,-0.2203837,-0.44516042,-0.24373524,0.6224717,1.2009611
908,9.08,-0.019768637,-0.22062775,-0.2801777,-0.24373524,0.6224717,1.2009611
909,9.09,-0.0012202862,-0.24796216,0.060038086,-0.24373524,0.6224717,1.2009611
910,9.1,-0.0012202862,-0.24796216,0.060038086,-1.3347405,1.3946054,2.7440066
911,9.11,0.00719968875,-0.32886715499999997,0.338995515,-1.110553,1.1869112,3.051272
912,9.12,-0.025381953,-0.36315718,0.3863426,-0.86193085,0.9639453,3.2742376
913,9.13,-0.025381953,-0.36315718,0.3863426,-0.86193085,0.9639453,3.2742376
914,9.14,0.016595893,-0.35534734,0.23844394,0.33475417,-0.06719518,4.3548584
915,9.15,0.016595893,-0.35534734,0.23844394,0.81122905,-0.28160888,5.100114
916,9.16,0.016595893,-0.35534734,0.23844394,0.81122905,-0.28160888,5.100114
917,9.17,0.016595893,-0.35534734,0.23844394,0.81122905,-0.28160888,5.100114
918,9.18,0.016595893,-0.35534734,0.23844394,0.81122905,-0.28160888,5.100114
919,9.19,0.20940112,-0.3436326,0.050031736,0.81122905,-0.28160888,5.100114
920,9.2,0.48774841,-0.25772445,-0.11690341700000001,0.596204475,0.18784105499999998,6.33864305
921,9.21,0.7660957,-0.1718163,-0.28383857,0.4886922,0.23823744,6.3890395
922,9.22,1.1026506,0.3077562,-0.31727442,-0.3231477,0.3213151,6.6523223
923,9.23,1.1026506,0.3077562,-0.31727442,-0.3231477,0.3213151,6.6523223
924,9.24,1.1026506,0.3077562,-0.31727442,-0.7837401,0.24740042,6.7696085
925,9.25,1.649583,0.91057765,-0.35290676,-0.7837401,0.24740042,6.7696085
926,9.26,1.649583,0.91057765,-0.35290676,-1.3787229,0.019547688,6.541145
927,9.27,1.9043787,1.3169329,-0.041001618,-1.4544702,-0.18936823,5.84598
928,9.28,1.905599,1.4105289,0.015375606000000007,-1.3716979,-0.246178695,5.6025504999999995
929,9.29,1.9068193,1.5041249,0.07175283,-1.2889256,-0.30298916,5.359121
930,9.3,1.9068193,1.5041249,0.07175283,-1.0910053,-0.3585779,4.510629
931,9.31,1.7585545,1.8682582500000002,-0.12556745999999996,-1.0910053,-0.3585779,4.510629
932,9.32,1.6102897,2.2323916,-0.32288775,-1.0910053,-0.3585779,4.510629
933,9.33,1.6102897,2.2323916,-0.32288775,-1.4373659,-0.29626966,4.1990876
934,9.34,1.2676333,2.251184,-0.2865232,-2.47095,-0.06536258,3.3664784
935,9.35,1.0853225,2.2636309,-0.049543623,-3.4654386,0.24312437,2.5460863
936,9.36,0.96890725,2.28266745,0.20110316350000002,-3.4895678,0.228769035,2.2638666
937,9.37,0.7641432,2.4086008,0.8422416,-2.5815165,0.032375857,1.2076806
938,9.38,0.7641432,2.4086008,0.8422416,-2.5815165,0.032375857,1.2076806
939,9.39,0.7641432,2.4086008,0.8422416,-2.5815165,0.032375857,1.2076806
940,9.4,0.58891016,2.782985,0.626739,-1.2797627,-0.28527406,0.52778757
941,9.41,0.58891016,2.782985,0.626739,-0.0842994,-0.6267477,-0.070249505
942,9.42,0.58891016,2.782985,0.626739,-0.0842994,-0.6267477,-0.070249505
943,9.43,0.665056,2.923806,0.24649782,0.19364429,-0.6072,-0.47158796
944,9.44,0.7995315,2.9299073,0.117635585,0.086132,-0.5143485,-0.68661255
945,9.45,0.9715919,2.8835363,0.07492557,-0.311846705,-0.27030787500000003,-1.31305485
946,9.46,1.1795286,2.3985946,0.23502712,-0.61819565,0.070249505,-2.134974
947,9.47,1.1795286,2.3985946,0.23502712,-0.61819565,0.070249505,-2.134974
948,9.48,1.07434,2.1972475,0.3414361,-0.62980205,0.31398472,-2.5650232
949,9.49,0.6450433,1.6732564,0.54864067,-0.14782938,0.7263188,-3.1978796
950,9.5,0.60867876,1.5565971,0.5547421,0.12217305,0.77396625,-3.2748485
951,9.51,0.60867876,1.5565971,0.5547421,0.12217305,0.77396625,-3.2748485
952,9.52,0.60867876,1.5565971,0.5547421,0.12217305,0.77396625,-3.2748485
953,9.53,0.64187056,1.3716017,0.46102414,0.5363397,0.84604836,-3.4055738
954,9.54,0.7283888700000001,1.21979815,0.270171365,0.6579018750000001,0.9709703,-3.64472745
955,9.55,0.72826684,1.1643971,0.1598575,0.4746423,1.2052372,-3.8912115
956,9.56,0.72826684,1.1643971,0.1598575,0.4746423,1.2052372,-3.8912115
957,9.57,0.6716455,1.0272369,0.031239327,-0.376293,1.9865338,-4.1007385
958,9.58,0.6792113,0.96304995,0.029042812,-0.376293,1.9865338,-4.1007385
959,9.59,0.6792113,0.96304995,0.029042812,-0.7281514,2.3463335,-4.056756
960,9.6,0.76597368,0.867135405,0.119832101,-0.88789265,2.6395487500000003,-4.071111500000001
961,9.61,0.85273606,0.77122086,0.21062139,-1.0476339,2.932764,-4.085467
962,9.62,1.0002686299999999,0.442841885,0.513008335,-0.46883907615000003,2.83807995,-4.447099
963,9.63,1.0267489,0.2511349,0.63064396,0.70188415,2.3677137,-4.9846606
964,9.64,1.0267489,0.2511349,0.63064396,1.2846496,2.1245892,-5.194187
965,9.65,0.99136055,0.13593988,0.622346,2.692694,1.4874569,-5.6083536
966,9.66,0.99136055,0.13593988,0.622346,2.692694,1.4874569,-5.6083536
967,9.67,0.690682,-0.23112221,0.23502712,3.1978796,1.151481,-5.7323594
968,9.68,0.690682,-0.23112221,0.23502712,3.4648278,0.8894198,-5.7769527
969,9.69,0.38316986,-0.32044718,-0.08371163,3.6529741,0.5858198,-5.7732873
970,9.7,0.044662476,-0.35607952,-0.28505886,3.599829,0.1563815,-5.6046886
971,9.71,-0.24698592,-0.30604779000000004,-0.32728076,3.39579985,-0.0430659975,-5.28459525
972,9.72,-0.3526627,-0.277005,-0.33362624,3.059824,-0.30726522,-4.6718974
973,9.73,-0.5210622,-0.2169669,-0.34680536,3.059824,-0.30726522,-4.6718974
974,9.74,-0.5210622,-0.2169669,-0.34680536,2.47095,-0.6560693,-3.602883
975,9.75,-0.7455949,-0.008053889,-0.44808912,1.4758505,-0.8491027,-2.081218
976,9.76,-0.7455949,-0.008053889,-0.44808912,1.4758505,-0.8491027,-2.081218
977,9.77,-0.6213697,-0.0024405725,-0.45858356,0.874759,-0.75991637,-1.3170254
978,9.78,-0.6213697,-0.0024405725,-0.45858356,-0.1863139,-0.43982297,-0.14110987
979,9.79,-0.42209699,-0.08505395125000001,-0.37194323,-0.72082095,-0.283746905,0.478612915
980,9.8,-0.22282428,-0.16766733,-0.2853029,-1.255328,-0.12767084,1.0983357
981,9.81,-0.12385905950000001,-0.19732028499999998,-0.1603456,-1.5283848,-0.09407325,1.5735888500000001
982,9.82,-0.024893839,-0.22697324,-0.0353883,-1.8014416,-0.06047566,2.048842
983,9.83,0.15497635,-0.27529657,0.20940112,-1.8613064,-0.07941248,2.7550023
984,9.84,0.23551524,-0.30409533,0.3109289,-1.6933185,-0.118507855,3.0335567
985,9.85,0.23551524,-0.30409533,0.3109289,-1.6933185,-0.118507855,3.0335567
986,9.86,0.23832190000000003,-0.39659302,0.412944855,-0.49724430000000003,-0.52351153,3.5931094999999997
987,9.87,0.18401916,-0.4183141,0.3790209,0.15393804,-0.7648033,3.9156463
988,9.88,0.18401916,-0.4183141,0.3790209,0.15393804,-0.7648033,3.9156463
989,9.89,0.17084008,-0.42661208,0.3397277,0.15393804,-0.7648033,3.9156463
990,9.9,0.272856,-0.39854547,0.111046046,1.3884968,-0.9822713,5.1117206
991,9.91,0.322155565,-0.371089035,0.04344218949999999,1.4382822499999999,-0.93889987,5.2882605
992,9.92,0.37145513,-0.3436326,-0.024161667,1.4880677,-0.89552844,5.4648004
993,9.93,0.4795725,-0.29018408,-0.15424417,1.455081,-0.788627,5.719531
994,9.94,0.84053314,-0.16425052,-0.4127008,0.99265605,-0.36774087,6.1996713
995,9.95,1.2215066,0.061746486,-0.47103047,0.32253686,-0.03726278,6.1892867
996,9.96,1.3201057,0.21891935,-0.400742,0.32253686,-0.03726278,6.1892867
997,9.97,1.2390786,0.5645044,-0.34387666,-0.51007247,0.10445796,5.748242
998,9.98,1.2390786,0.5645044,-0.34387666,-0.51007247,0.10445796,5.748242
999,9.99,1.2390786,0.5645044,-0.34387666,-0.51007247,0.10445796,5.748242
