id,timestamp,acc_x,acc_y,acc_z,gyro_x,gyro_y,gyro_z
0,0.0,-0.26358184,-0.042954076,0.9313224,-0.6084218,-2.4550674,-0.5186246
1,0.01,-0.26358184,-0.042954076,0.9313224,-0.8332202,-2.9492574,0.03970624
2,0.02,-0.08127106,0.010494461,1.0994779,-1.1545353,-2.5937338,0.22785273
3,0.03,0.029164839999999997,-0.008175919,1.07690265,-1.2275337,-2.3942863,0.20463985
4,0.04,0.13960074,-0.026846299,1.0543274,-1.3005321,-2.1948388,0.18142697
5,0.05,0.22184804,-0.00976229,1.0431006,-1.4636332,-1.8515326,-0.20525073
6,0.06,0.21623473,0.04490653,1.0164984,-1.4239268,-2.2675319,-0.37384954
7,0.07,0.149363038,0.124225135,1.01186135,-1.3710870000000002,-2.46636845,-0.42058072999999996
8,0.08,0.082491346,0.20354374,1.0072243,-1.3182472,-2.665205,-0.46731192
9,0.09,-0.057109397,0.32337585,1.078489,-0.02321288,-1.5613716,-0.71959925
10,0.1,-0.0711426885,0.28029974,1.09642715,0.28924471,-1.27182145,-0.8237517750000001
11,0.11,-0.08517598,0.23722363,1.1143653,0.6017023,-0.9822713,-0.9279043
12,0.12,-0.16180995,0.04490653,0.81344277,0.9645562,-2.9999592,-1.6658295
13,0.13,-0.17620933,0.14301755,0.7482795,0.548557,-4.333478,-1.750129
14,0.14,-0.15192562999999998,0.18780205,0.77842055,0.41538836999999995,-4.74184135,-1.7571539500000002
15,0.15,-0.12764193,0.23258655,0.8085616,0.28221974,-5.1502047,-1.7641789
16,0.16,-0.21257387,0.59013045,1.0902036,0.3359759,-5.9131756,-1.6157386
17,0.17,-0.08151512,0.690438,0.699224,0.3359759,-5.9131756,-1.6157386
18,0.18,-0.07004442899999999,0.63955205,0.78000695,-0.025656334999999975,-3.8435641499999997,-1.7797559
19,0.19,-0.058573738,0.5886661,0.8607899,-0.38728857,-1.7739527,-1.9437732
20,0.2,0.0074437485,0.61624455,0.88397535,-0.995710385,0.06322454999999993,-2.0326541000000002
21,0.21,0.073461235,0.643823,0.9071608,-1.6041322,1.9004018,-2.121535
22,0.22,0.024893839,0.8117344,1.8826576,-1.7238617,2.130698,-2.198504
23,0.23,0.024893839,0.8117344,1.8826576,-1.7238617,2.130698,-2.198504
24,0.24,0.0253819535,0.8095379,2.3710161999999997,-1.71500415,2.05311815,-2.2898283
25,0.25,0.025870068,0.8073414,2.8593748,-1.7061466,1.9755383,-2.3811526
26,0.26,0.17450093,0.47127452,3.1729882,0.2938262,2.9565878,-2.837469
27,0.27,-0.00024405724,0.65212095,3.6964908,1.0494665,3.0329459,-2.8166997
28,0.28,-0.07724411362,0.6966614250000001,3.9117493999999997,1.93919175,2.74553385,-2.688418
29,0.29,-0.15424417,0.7412019,4.127008,2.828917,2.4581218,-2.5601363
30,0.3,-0.16571487000000001,0.7530386499999999,4.2249967999999996,3.12488115,2.48072375,-2.42574595
31,0.31,-0.17718557,0.7648754,4.3229856,3.4208453,2.5033257,-2.2913556
32,0.32,0.108605465,0.70495935,4.47247095,4.05675615,2.7418686,-1.95049275
33,0.33,0.6777469825000001,0.57493786,4.608105775,4.807509575,3.0645582,-1.766316875
34,0.34,1.2468885,0.44491637,4.7437406,5.558263,3.3872478,-1.582141
35,0.35,1.38478085,0.399155635,4.6612493,6.067724500000001,3.7510179,-1.6627752
36,0.36,1.5226732,0.3533949,4.578758,6.577186,4.114788,-1.7434094
37,0.37,1.5629426,0.3773125,4.1504374,7.5698423,4.477031,-2.1038198
38,0.38,1.6145607,0.28969595,4.01376535,7.74454965,4.291939,-2.13222515
39,0.39,1.6661788,0.2020794,3.8770933,7.919257,4.106847,-2.1606305
40,0.4,1.7843025,-0.10555475,3.49550985,8.364883500000001,3.719253,-2.18414875
41,0.41,1.9024262,-0.4131889,3.1139264,8.81051,3.331659,-2.207667
42,0.42,1.9024262,-0.4131889,3.1139264,9.9192295,2.8851166,-2.4281893
43,0.43,1.9024262,-0.4131889,3.1139264,9.9192295,2.8851166,-2.4281893
44,0.44,2.00126945,-0.78281365,2.20786385,10.551780749999999,2.2656992,-3.1771101
45,0.45,2.1001127,-1.1524384,1.3018013,11.184332,1.6462818,-3.9260309
46,0.46,2.1001127,-1.1524384,1.3018013,10.873402,1.1710287,-5.105612
47,0.47,1.2256554,-1.1124129,-0.13862452,9.31264,0.8020661,-5.871637
48,0.48,1.104725075,-1.0892275,-0.16559284000000002,8.52156985,0.736398075,-5.90798335
49,0.49,0.98379475,-1.0660421,-0.19256116,7.7304997,0.67073005,-5.9443297
50,0.5,0.864694825,-0.944013435,-0.23075613,6.592457850000001,0.7244862,-5.69265315
51,0.51,0.7455949,-0.82198477,-0.2689511,5.454416,0.77824235,-5.4409766
52,0.52,0.7455949,-0.82198477,-0.2689511,5.454416,0.77824235,-5.4409766
53,0.53,0.6980037,-0.65212095,-0.22599702,3.4336736,0.009773844,-5.119051
54,0.54,0.70886425,-0.645287375,-0.21769907,3.2482759999999997,-0.064446278,-5.103474
55,0.55,0.7197248,-0.6384538,-0.20940112,3.0628784,-0.1386664,-5.087897
56,0.56,0.7082541,-0.6199054,-0.2633378,2.6077838,-0.10995574,-5.024367
57,0.57,0.60038084,-0.5693855,-0.29774985,1.4214834,0.65240407,-4.6773953
58,0.58,0.56731107,-0.555108175,-0.27261194499999997,1.2953397500000001,0.869872085,-4.5921795
59,0.59,0.5342413,-0.54083085,-0.24747404,1.1691961,1.0873401,-4.5069637
60,0.6,0.453580385,-0.48628406,-0.233684815,1.0903945,1.46699285,-4.37287885
61,0.61,0.37291947,-0.43173727,-0.21989559,1.0115929,1.8466456,-4.238794
62,0.62,0.2853029,-0.40342662,-0.29140437,1.0543534,2.2052236,-3.8050797
63,0.63,0.18450728,-0.2848148,-0.41855815,1.1227703,1.8503108,-3.3878586
64,0.64,0.172060365,-0.275906725,-0.441377505,1.1392636999999999,1.6752979,-3.3038647
65,0.65,0.15961345,-0.26699865,-0.46419686,1.1557571,1.500285,-3.2198708
66,0.66,0.14179726,-0.29872608,-0.6155124,0.820392,0.33658674,-2.6853635
67,0.67,0.27651685,-0.39927766,-0.6389419,0.52290064,0.13561209,-2.4550674
68,0.68,0.4393030333333333,-0.4774573266666667,-0.7425035133333333,0.13113240333333337,-0.018122333333333324,-2.3677137
69,0.69,0.6020892166666667,-0.5556369933333334,-0.8460651266666667,-0.2606358333333333,-0.17185675666666664,-2.28036
70,0.7,0.7648754,-0.63381666,-0.94962674,-0.65240407,-0.32559118,-2.1930063
71,0.71,0.7577977499999999,-0.7254601300000001,-0.96195164,-0.694859205,-0.30085114,-2.13894465
72,0.72,0.7507201,-0.8171036,-0.97427654,-0.73731434,-0.2761111,-2.084883
73,0.73,1.2217506,-0.88983274,-1.7037637,-0.7556403,0.22724187,-1.7916678
74,0.74,1.28459535,-0.97403252,-1.8689904,-0.94714655,0.39248090999999996,-2.02807265
75,0.75,1.3474401,-1.0582323,-2.0342171,-1.1386528,0.55771995,-2.2644775
76,0.76,-0.041977845,-1.7362232,-2.3466103,-1.7067575,1.2082914,-2.828917
77,0.77,-0.49690056,-1.8655735,-2.2445943,-1.6627752,1.0079277,-2.1716259
78,0.78,-0.49690056,-1.8655735,-2.2445943,-1.6627752,1.0079277,-2.1716259
79,0.79,-0.7093117066666667,-1.9595355,-2.16072,-1.4047864333333333,0.8611164,-1.74198402
80,0.8,-0.9217228533333333,-2.0534975,-2.0768457000000002,-1.1467976666666666,0.7143051,-1.3123421400000002
81,0.81,-1.134134,-2.1474595,-1.9929714,-0.8888089,0.5674938,-0.88270026
82,0.82,-1.6522676,-2.1179287,-1.517304,0.26083946,0.047036625,1.1765264
83,0.83,-1.5014402,-2.0081031,-1.4106508,0.52290064,-0.2284636,2.2174408
84,0.84,-1.5014402,-2.0081031,-1.4106508,0.61819565,-0.5222898,3.2760704
85,0.85,-0.9862353,-1.7577002,-1.2686096,0.27977628,-1.1979067,5.0170364
86,0.86,-0.82088655,-1.72792525,-1.1974669,-0.052839844999999996,-1.5204436000000001,5.8304032
87,0.87,-0.6555378,-1.6981503,-1.1263242,-0.38545597,-1.8429805,6.64377
88,0.88,-0.12544544999999996,-1.59650045,-0.8540783350000001,-0.483499835,-1.91200825,6.8606273
89,0.89,0.4046469,-1.4948506,-0.58183247,-0.5815437,-1.981036,7.0774846
90,0.9,0.7833017,-1.3659884,-0.25967690800000004,-0.8384125499999999,-2.42574585,7.5405203
91,0.91,1.1619565,-1.2371262,0.062478654,-1.0952814,-2.8704557,8.003556
92,0.92,1.2881342,-1.171963,0.07297312,-1.1496484,-3.3224962,8.218581
93,0.93,1.4942405,-1.14365235,0.061380399,-1.50853175,-3.8734965999999997,8.448877
94,0.94,1.7003468,-1.1153417,0.049787678,-1.8674151,-4.424497,8.679173
95,0.95,1.92939455,-1.08373625,0.0214770375,-2.0989330500000003,-4.4883325,8.7054405
96,0.96,2.1584423,-1.0521308,-0.006833603,-2.330451,-4.552168,8.731708
97,0.97,2.4422808,-0.9196077,-0.11324256,-4.3725734,-4.03843,8.437271
98,0.98,2.5543032,-0.9034999,-0.10909359,-5.373171,-3.6926804,8.260119
99,0.99,2.9172163,-0.9374239,0.032459613,-6.401868,-3.3249395,7.969348
100,1.0,3.014107,-0.9557281799999999,0.12703180149999999,-6.77724465,-3.21101325,7.7986112
101,1.01,3.1109977,-0.97403246,0.22160399,-7.1526213,-3.097087,7.6278744
102,1.02,3.2840343,-1.0850785,0.81685966,-9.302867,-3.131906,5.361564
103,1.03,3.1485825,-1.1875826,1.3820962,-9.549656,-3.3298264,4.77941
104,1.04,3.0547424999999997,-1.2101578499999999,1.70925495,-9.5942495,-3.73116495,3.894877
105,1.05,2.9609025,-1.2327331,2.0364137,-9.638843,-4.1325035,3.010344
106,1.06,2.9609025,-1.2327331,2.0364137,-9.638843,-4.1325035,3.010344
107,1.07,2.4012792,-0.9188756,2.7231908,-8.603426,-3.979787,2.144137
108,1.08,2.3030462,-0.8376045000000001,2.76150775,-8.06922435,-3.69512385,1.8133534500000001
109,1.09,2.2048132,-0.7563334,2.7998247,-7.5350227,-3.4104607,1.4825699
110,1.1,1.7269491,-0.45394647,2.6526582,-6.672481,-2.5784621,0.77824235
111,1.11,1.1859962,-0.237345668,2.4948752,-6.7045515,-2.2580633,0.601091415
112,1.12,0.6450433,-0.020744866,2.3370922,-6.736622,-1.9376645,0.42394048
113,1.13,0.31190515,0.10055158,2.3558846,-7.280903,-1.5974126,0.37934732
114,1.14,0.004148960000000035,0.27968959000000004,2.5278229000000003,-7.4491965,-1.56961825,0.422718745
115,1.15,-0.30360723,0.4588276,2.6997612,-7.61749,-1.5418239,0.46609017
116,1.16,-0.7487676,0.92180425,3.4285164,-7.851451,-1.5228871,0.5222898
117,1.17,-0.6882414,0.9242448,4.019623,-8.449488,-1.473407,0.8155051
118,1.18,-0.437838685,0.8207645299999999,4.5807105,-8.4617055,-1.5430456,0.82436265
119,1.19,-0.18743597,0.71728426,5.141798,-8.473923,-1.6126842,0.8332202
120,1.2,0.307024,0.13764828,7.6375275,-8.4024515,-3.1795535,0.6908886
121,1.21,0.31825064000000003,-0.051496089999999994,7.81324875,-7.346876399999999,-3.25346825,0.7971791500000001
122,1.22,0.32947728,-0.24064046,7.98897,-6.2913013,-3.327383,0.9034697
123,1.23,0.49079913,-0.61892915,7.98897,-1.1166617,0.58032197,1.4819591
124,1.24,0.8829990649999999,-0.582198575,7.98897,-0.02351835000000002,1.267239985,1.4520267
125,1.25,1.275199,-0.545468,7.98897,1.069625,1.954158,1.4220943
126,1.26,1.275199,-0.545468,7.98897,5.543602,4.318817,0.8417723
127,1.27,1.0240642,-0.45467865,5.2706604,7.471493,5.891795,0.27855456
128,1.28,1.0240642,-0.45467865,5.2706604,7.471493,5.891795,0.27855456
129,1.29,1.0240642,-0.45467865,5.2706604,7.471493,5.891795,0.27855456
130,1.3,0.70971847,-0.70288485,2.895251,8.491638,6.7665544,-0.047036625
131,1.31,0.7413238600000001,-0.7681701750000001,2.5118371,8.310822,6.588792700000001,0.0
132,1.32,0.77292925,-0.8334555,2.1284232,8.130006,6.411031,0.047036625
133,1.33,1.0694588,-1.0108851,1.9446481,8.130006,6.411031,0.047036625
134,1.34,1.1990532,-1.07751275,1.9536782499999998,7.85755975,5.88263235,-0.08277223750000001
135,1.35,1.3286476,-1.1441404,1.9627084,7.5851135,5.3542337,-0.2125811
136,1.36,1.3286476,-1.1441404,1.9627084,7.5851135,5.3542337,-0.2125811
137,1.37,1.7213358,-1.62578735,1.88827095,8.42444225,4.938845349999999,-0.9709703
138,1.38,2.114024,-2.1074343,1.8138335,9.263771,4.523457,-1.7293595
139,1.39,2.12537255,-2.23287975,1.65531825,9.9100665,4.2562035,-2.16979325
140,1.4,2.1367211,-2.3583252,1.496803,10.556362,3.98895,-2.610227
141,1.41,2.03104435,-2.2260462,1.1513400150000002,10.662042,3.6645806,-2.98163315
142,1.42,1.9253676,-2.0937672,0.80587703,10.767722,3.3402112,-3.3530393
143,1.43,1.8419001,-1.9426957,0.614048,10.536203,2.8386908,-3.7232237
144,1.44,1.8419001,-1.9426957,0.614048,9.519113,2.3096815,-4.048814849999999
145,1.45,1.8419001,-1.9426957,0.614048,8.502023,1.7806722,-4.374406
146,1.46,1.5951582,-1.1150976,-0.06418706,7.1281867,1.817935,-4.4550405
147,1.47,1.5951582,-1.1150976,-0.06418706,5.647449,2.2192733,-4.5399504
148,1.48,1.4577539499999999,-0.8557867499999999,-0.068214005,4.512767,2.8371635499999996,-4.5451429
149,1.49,1.3203497,-0.5964759,-0.07224095,3.378085,3.4550538,-4.5503354
150,1.5,1.1971008,-0.5789038,-0.050031736,1.4477507,5.16792,-4.152051
151,1.51,1.0111292,-0.547054325,0.027212382,1.20218285,5.17372315,-3.871664
152,1.52,0.8251576,-0.51520485,0.1044565,0.956615,5.1795263,-3.591277
153,1.53,0.7897693,-0.5000733,0.00024405724,1.2577715,4.1862597,-3.4703255
154,1.54,0.77036673,-0.49616838500000005,-0.11873385638,1.3863587000000002,3.77270385,-3.4333681
155,1.55,0.75096416,-0.49226347,-0.23771177,1.5149459,3.359148,-3.3964107
156,1.56,0.9117979,-0.92863786,-1.3498806,1.8765781,2.5308146,-3.2724051
157,1.57,0.8717725,-1.0282133,-1.8514184,1.9034561,3.249803,-3.3487632
158,1.58,0.554498065,-1.1404796,-2.3408751,1.80785565,3.2488868,-3.3649511
159,1.59,0.23722363,-1.2527459,-2.8303318,1.7122552,3.2479706,-3.381139
160,1.6,0.23722363,-1.2527459,-2.8303318,1.3536774,2.7122416,-3.1227431
161,1.61,0.418680195,-1.42395205,-3.023015,0.3246748799999999,2.97185945,-2.318539
162,1.62,0.60013676,-1.5951582,-3.2156982,-0.70432764,3.2314773,-1.5143349
163,1.63,0.422219,-1.5983309,-3.0531561,-0.8881981,3.6957347,-1.4587462
164,1.64,0.2133060152,-1.5208427000000002,-2.8058040999999996,-0.44715337615,3.43917135,-0.98715825
165,1.65,0.0043930304,-1.4433545,-2.5584521,-0.0061086523,3.182608,-0.5155703
166,1.66,-0.2860351,-1.3188853,-2.5623572,0.44959682,2.3469443,-0.028710667
167,1.67,-0.6784792,-1.1695224,-2.8498566,0.8393288,0.8979719,0.8246681
168,1.68,-0.5994046,-1.17464755,-2.8768247999999996,0.7483099,-0.3408627999999999,1.75745935
169,1.69,-0.52033,-1.1797727,-2.903793,0.657291,-1.5796975,2.6902506
170,1.7,0.30043447,-1.1460928,-2.6126328,0.31887165,-1.9963076,3.241251
171,1.71,0.38353595,-1.0997219999999999,-2.3926152,-0.9272934750000001,-2.56135795,3.982536
172,1.72,0.46663743,-1.0533512,-2.1725976,-2.1734586,-3.1264083,4.723821
173,1.73,0.507395,-1.0379754,-1.8506861,-2.7690523,-3.7934732,5.0512447
174,1.74,0.7775663500000001,-1.129863,-1.4501881499999998,-3.2042937499999997,-4.47031185,5.3597316500000005
175,1.75,1.0477377,-1.2217506,-1.0496902,-3.6395352,-5.1471505,5.6682186
176,1.76,1.0477377,-1.2217506,-1.0496902,-3.6395352,-5.1471505,5.6682186
177,1.77,1.504857,-1.3016793,-0.7160639499999999,-4.25253835,-6.181956250000001,5.8826323
178,1.78,1.9619763,-1.381608,-0.3824377,-4.8655415,-7.216762,6.097046
179,1.79,1.9619763,-1.381608,-0.3824377,-5.235115,-7.3707,5.9913664
180,1.8,1.9619763,-1.381608,-0.3824377,-5.235115,-7.3707,5.9913664
181,1.81,2.4546058,-1.39869205,0.13410946999999995,-6.0338213,-6.76716525,5.45349955
182,1.82,2.9472353,-1.4157761,0.65065664,-6.8325276,-6.1636305,4.9156327
183,1.83,3.014107,-1.4396937,0.7902574,-7.2729616,-5.957158,4.5387287
184,1.84,3.01923215,-1.4499441000000002,0.8760435,-7.6425353000000005,-5.83009785,4.11662085
185,1.85,3.0243573,-1.4601945,0.9618296,-8.012109,-5.7030377,3.694513
186,1.86,2.9723732,-1.5011961,1.1744035,-8.316319,-5.5045066,3.2039883
187,1.87,2.864988,-1.6173674,1.7057161,-8.650463,-5.1062226,2.0842721
188,1.88,2.762728,-1.6168793,1.8254261500000002,-8.535009500000001,-4.9565605999999995,1.5833627000000001
189,1.89,2.660468,-1.6163912,1.9451362,-8.419556,-4.8068986,1.0824533
190,1.9,2.2904773,-1.5719727,2.2995074,-7.566177,-4.5625525,0.36102137
191,1.91,2.09645175,-1.4106508999999998,2.4975598999999997,-6.642243199999999,-4.87836975,-0.02871066499999997
192,1.92,1.9024262,-1.2493291,2.6956124,-5.7183094,-5.194187,-0.4184427
193,1.93,1.6683753,-1.1446284,2.554059,-5.4012704,-5.3102517,-0.44104472
194,1.94,1.4440867,-1.02186765,2.3994488499999997,-5.35912085,-5.2644367,-0.389732035
195,1.95,1.2197981,-0.8991069,2.2448387,-5.3169713,-5.2186217,-0.33841935
196,1.96,1.2197981,-0.8991069,2.2448387,-5.474574,-4.6712866,-0.16126843
197,1.97,1.0776754333333334,-0.7158199133333334,2.3461224,-5.719734766666666,-3.3591480333333337,-0.3066543666666667
198,1.98,0.9355527666666668,-0.5325329266666667,2.4474061,-5.964895533333333,-2.0470094666666667,-0.45204030333333334
199,1.99,0.7934301,-0.34924594,2.5486898,-6.2100563,-0.7348709,-0.59742624
200,2.0,-0.33948365,0.0021965152,2.7561386,-6.528317,-0.8222246,-1.613906
201,2.01,-0.5952556250000001,0.060770255599999996,2.8618153,-6.6245282,-1.7880026,-1.5974126499999999
202,2.02,-0.8510276,0.119343996,2.967492,-6.7207394,-2.7537806,-1.5809193
203,2.03,-1.2298045,-0.36755022,4.2644124,-6.7604456,-3.6016614,-1.5253305
204,2.04,-1.3552498499999999,-0.6388198599999999,5.197077050000001,-6.2836654,-4.6599854,-1.04427413
205,2.05,-1.4806952,-0.9100895,6.1297417,-5.8068852,-5.7183094,-0.56321776
206,2.06,-1.4806952,-0.9100895,6.1297417,-5.8068852,-5.7183094,-0.56321776
207,2.07,-0.6706693,-0.81344277,7.98897,-3.4788775,-4.690223,1.070236
208,2.08,-0.6706693,-0.81344277,7.98897,-1.91933856,-4.0601157,1.4443909000000001
209,2.09,-0.6706693,-0.81344277,7.98897,-0.35979962,-3.4300084,1.8185458
210,2.1,-0.0605262,-0.23917611,7.98897,1.9914207,-0.6047566,1.9614882
211,2.11,0.13801437000000003,-0.004148984999999994,7.457047,2.74217415,2.0354029,1.9199494000000001
212,2.12,0.33655494,0.23087814,6.925124,3.4929276,4.6755624,1.8784106
213,2.13,0.38512233,0.16498269,6.399669,4.235129,5.8300977,1.6841555
214,2.14,0.36291313000000003,0.008053884999999983,5.7099632499999995,4.6025645,6.087883,1.5607607
215,2.15,0.34070393,-0.14887492,5.0202575,4.97,6.3456683,1.4373659
216,2.16,0.17498904,-0.34631723,4.312003,5.4409766,6.4586782,1.2754866
217,2.17,0.05418071,-0.68214005,3.1908045,6.197839,6.3762116,1.4935656
218,2.18,0.164982705,-0.794894475,2.96566165,6.1905085,6.3710191,1.568702
219,2.19,0.2757847,-0.9076489,2.7405188,6.183178,6.3658266,1.6438384
220,2.2,0.5171573,-1.0116173,2.6592476,6.255871,6.4214153,1.8625281
221,2.21,1.1436522500000001,-1.27227045,2.4974377,6.8978905,6.20425265,1.80755025
222,2.22,1.7701472,-1.5329236,2.3356278,7.53991,5.98709,1.7525724
223,2.23,1.9263438499999999,-1.61980795,2.2491095000000003,7.8600034999999995,5.8417043,1.5677857
224,2.24,2.0825405,-1.7066923,2.1625912,8.180097,5.6963186,1.382999
225,2.25,2.3710163,-1.9719826,1.7757605,9.196576,4.946787,0.26328292
226,2.26,2.352468,-2.0498369,1.5792944,9.918008,4.460538,-1.1826351
227,2.27,2.352468,-2.0498369,1.5792944,9.918008,4.460538,-1.1826351
228,2.28,2.2192126500000002,-1.97979245,1.17952865,9.375254,4.3826528,-2.01127375
229,2.29,2.0859573,-1.909748,0.7797629,8.8325,4.3047676,-2.8399124
230,2.3,2.0093234,-1.7520871,0.68482465,8.3144865,4.139834,-3.0042353
231,2.31,2.0085911999999997,-1.43761925,0.66261545,6.7683867499999995,4.088215849999999,-3.2351423500000003
232,2.32,2.007859,-1.1231514,0.64040625,5.222287,4.0365977,-3.4660494
233,2.33,2.0253091,-1.07714665,0.674452225,4.892114299999999,4.27727835,-3.5042284500000003
234,2.34,2.0427592,-1.0311419,0.7084982,4.5619416,4.517959,-3.5424075
235,2.35,2.0427592,-1.0311419,0.7084982,3.7659843,5.3835554,-3.535077
236,2.36,1.731098,-0.7480355,0.6962953,2.6994135,6.817256,-3.2583551
237,2.37,1.63921045,-0.62429845,0.5493728499999999,2.59495555,6.4431012,-3.3026429000000004
238,2.38,1.5473229,-0.5005614,0.4024504,2.4904976,6.0689464,-3.3469307
239,2.39,1.4337143,-0.413555,0.125689485,2.56105255,4.9822171,-3.33532425
240,2.4,1.3201057,-0.3265486,-0.15107143,2.6316075,3.8954878,-3.3237178
241,2.41,1.41553205,-0.45419053500000006,-0.663591615,2.46667385,3.8588358,-3.2192599
242,2.42,1.5109584,-0.58183247,-1.1761118,2.3017402,3.8221838,-3.114802
243,2.43,1.50217235,-0.648338085,-1.31302795,2.2598959499999998,4.0176606999999995,-3.09739225
244,2.44,1.4933863,-0.7148437,-1.4499441,2.2180517,4.2131376,-3.0799825
245,2.45,1.4933863,-0.7148437,-1.4499441,2.2180517,4.2131376,-3.0799825
246,2.46,0.8922733,-0.93229866,-2.2194567,2.755613,3.9565742,-3.363424
247,2.47,0.44491637,-1.1499978,-3.714307,2.7995954,1.0439687,-2.2412646
248,2.48,0.44491637,-1.1499978,-3.714307,2.2855523,1.0897836,-1.8964311500000002
249,2.49,0.44491637,-1.1499978,-3.714307,1.7715092,1.1355985,-1.5515977
250,2.5,-0.58110034,-1.5917413,-4.0867386,0.30909783,1.2437216,-0.6951646
251,2.51,-0.84004502,-1.6822865999999999,-3.7093041,0.209221355,0.7113525549999999,0.29413159999999994
252,2.52,-1.0989897,-1.7728319,-3.3318696,0.10934488,0.17898351,1.2834278
253,2.53,-1.13096125,-1.8005323999999998,-3.2213117000000002,0.30176742999999995,-0.23029619499999998,1.7247780000000001
254,2.54,-1.1629328,-1.8282329,-3.1107538,0.49418998,-0.6395759,2.1661282
255,2.55,-1.0623811,-1.8384832,-2.9308834,0.9095783,-2.1245892,3.7586539
256,2.56,-1.0623811,-1.8384832,-2.9308834,0.9095783,-2.1245892,3.7586539
257,2.57,-0.20696054,-1.6632501,-2.923806,-0.49480084,-2.9407053,6.0347376
258,2.58,0.3940304,-1.6028459,-2.5287992,-1.3781119200000003,-3.12518655,6.6529333
259,2.59,0.99502134,-1.5424417,-2.1337924,-2.261423,-3.3096678,7.271129
260,2.6,1.3908823,-1.5314592,-1.7869871,-3.5845573,-3.6022723,7.7946405
261,2.61,1.7558699,-1.5199885499999999,-1.4429884,-4.11753715,-3.83379015,7.77234375
262,2.62,2.1208575,-1.5085179,-1.0989897,-4.650517,-4.065308,7.750047
263,2.63,2.43227445,-1.4924100999999999,-0.76951246,-4.8661525,-4.2189407,7.65291965
264,2.64,2.7436914,-1.4763023,-0.44003522,-5.081788,-4.3725734,7.5557923
265,2.65,2.7436914,-1.4763023,-0.44003522,-5.081788,-4.3725734,7.5557923
266,2.66,3.1412606,-1.381608,0.28676724,-5.693875,-4.6627345,6.478837
267,2.67,3.1732322,-1.1764779349999999,0.56035542,-5.720753,-4.51215625,6.000835
268,2.68,3.2052038,-0.97134787,0.8339436,-5.747631,-4.361578,5.522833
269,2.69,3.133939,-0.82808626,1.0579882,-6.2735863,-3.8136318,3.9327505
270,2.7,3.0507154,-0.7392494,1.2471325,-6.5032716,-3.580892,3.2937853
271,2.71,2.9412558,-0.75230645,1.3502467,-6.5032716,-3.580892,3.2937853
272,2.72,2.8317962,-0.7653635,1.4533609,-6.5032716,-3.580892,3.2937853
273,2.73,2.557964,-0.8898326999999999,1.5979649,-6.82489205,-3.6816848,1.5971071330000002
274,2.74,2.2841318,-1.0143019,1.7425689,-7.1465125,-3.7824776,-0.099571034
275,2.75,2.1433108,-1.1050912,1.7896718,-7.18011,-4.188703,-0.5656612
276,2.76,1.9702741,-1.2124764,1.8411678,-7.2332554,-4.523457,-0.852157
277,2.77,1.897179,-1.2564066999999999,1.8647194,-7.3233580499999995,-4.82553,-1.0494665
278,2.78,1.8240839,-1.300337,1.888271,-7.4134607,-5.127603,-1.246776
279,2.79,1.3008251,-1.5719727,1.965637,-7.4904294,-4.960837,-1.2394456
280,2.8,1.0975254,-1.6137065,1.9890665,-7.4696603,-4.651128,-1.1478158
281,2.81,0.8250355,-1.6523896,2.18492255,-7.3856664,-4.363105,-0.9932669000000001
282,2.82,0.5525456,-1.6910727,2.3807786,-7.3016725,-4.075082,-0.838718
283,2.83,0.38890521499999997,-1.6475084500000001,2.4437453,-6.9650855499999995,-3.6520578500000003,-0.7229589999999999
284,2.84,0.22526483,-1.6039442,2.506712,-6.6284986,-3.2290337,-0.6072
285,2.85,-0.5217944,-1.2781278,2.5140338,-5.3334646,-2.8429668,0.28160888
286,2.86,-0.5217944,-1.2781278,2.5140338,-5.1214943,-3.1991012,0.7837401
287,2.87,-0.73180565,-0.76536352,2.47901155,-5.1462343,-3.4648276,0.9819658499999999
288,2.88,-0.9418169,-0.25259924,2.4439893,-5.1709743,-3.730554,1.1801916
289,2.89,-0.4497975,0.067847915,2.7551622,-7.1141367,-5.266269,0.8772025
290,2.9,-0.354249085,-0.48823654250000004,4.3382396,-8.04204085,-5.502674000000001,0.6786713
291,2.91,-0.25870067,-1.044321,5.921317,-8.969945,-5.739079,0.4801401
292,2.92,-0.4424758,-1.3537855,7.4876766,-8.214305,-3.6645806,1.4899004
293,2.93,0.03807290000000002,-1.43371425,7.7383233,-6.156910999999999,-2.89183605,1.9740110999999998
294,2.94,0.5186216,-1.513643,7.98897,-4.099517,-2.1190915,2.4581218
295,2.95,0.5186216,-1.513643,7.98897,-0.8546005,-1.8478674,2.6175575
296,2.96,1.1224194,-0.8288184,7.98897,2.0176878,-1.3603969,2.5857925
297,2.97,1.2345636,-0.622101915,7.98897,3.4321464,-0.1353067000000001,2.5622742499999998
298,2.98,1.3467078,-0.41538543,7.98897,4.846605,1.0897835,2.538756
299,2.99,1.9282963,0.45370242,5.4661503,5.466633,3.255301,2.452013
300,3.0,1.9282963,0.45370242,5.4661503,5.466633,3.255301,2.452013
301,3.01,1.6144387,0.193537395,4.33579915,6.27053175,4.8478267,1.5934419499999999
302,3.02,1.3005811,-0.06662763,3.205448,7.0744305,6.4403524,0.7348709
303,3.03,1.1880707,-0.32923323,2.775907,7.376198,6.125146,0.54733527
304,3.04,1.16342085,-0.43100511499999994,2.63301155,7.754018,5.6645535,0.37018434
305,3.05,1.138771,-0.532777,2.4901161,8.131838,5.203961,0.19303341
306,3.06,1.1004542,-0.7314396,2.2314155,8.822116,4.4238863,0.014049901
307,3.07,1.3279155,-1.1748916,1.7452533,9.232006,3.9272528,-0.11911872
308,3.08,1.3279155,-1.1748916,1.7452533,9.5789775,3.3854152,-0.39156461
309,3.09,1.3279155,-1.1748916,1.7452533,9.925949,2.8435776,-0.6640105
310,3.1,1.8506861,-1.649339,1.2173575,10.514824,1.5662584,-1.7977765
311,3.11,1.8749698,-1.6720362,1.040171975,10.4131145,1.01800689,-2.7534751
312,3.12,1.8992535,-1.6947334,0.86298645,10.311405,0.46975538,-3.7091737
313,3.13,1.86935645,-1.6382341999999999,0.802582275,9.864252,0.7797694399999999,-4.2375722
314,3.14,1.8394594,-1.581735,0.7421781,9.417099,1.0897835,-4.7659707
315,3.15,1.7606289,-1.4760582,0.7038611,8.999878,1.3952162,-5.0439143
316,3.16,1.7452533,-1.3447554,0.64016217,8.306545,1.7269161,-5.2699347
317,3.17,1.8787525999999999,-1.1175381199999999,0.6633476,6.8532968499999996,2.10870685,-5.218622
318,3.18,2.0122519,-0.89032084,0.68653303,5.4000487,2.4904976,-5.1673093
319,3.19,2.0832727,-0.8432178,0.8246695,4.365854,3.072652,-5.159368
320,3.2,2.0594771,-0.837360415,0.883609275,3.6761871499999996,3.8783835,-5.1245486499999995
321,3.21,2.0356815,-0.83150303,0.94254905,2.9865203,4.684115,-5.0897293
322,3.22,1.8210331499999999,-0.834309665,0.795260525,2.65359865,5.4034085,-4.9721376500000005
323,3.23,1.6063848,-0.8371163,0.647972,2.320677,6.122702,-4.854546
324,3.24,1.4414021,-0.82003236,0.4795725,1.9297233,6.8868947,-4.437936
325,3.25,1.3698933,-0.80490083,0.40562315000000004,1.93033415,6.5829892,-4.31698475
326,3.26,1.2983845,-0.7897693,0.3316738,1.930945,6.2790837,-4.1960335
327,3.27,1.2983845,-0.7897693,0.3316738,1.930945,6.2790837,-4.1960335
328,3.28,0.84931916,-0.65382934,-0.7826916,1.7892243,3.245527,-3.1453452
329,3.29,0.8821448999999999,-0.89825267,-1.3032656999999999,1.2238685,4.207029,-2.6951375
330,3.3,0.91497064,-1.142676,-1.8238398,0.6585127,5.168531,-2.2449298
331,3.31,0.91497064,-1.142676,-1.8238398,0.6585127,5.168531,-2.2449298
332,3.32,1.1714748,-1.568556,-2.2311714,1.1545353,5.894239,-1.6194037
333,3.33,1.1290087999999998,-1.6919269,-2.3779718,1.3723087999999999,5.3209420000000005,-1.7061465999999998
334,3.34,1.0865428,-1.8152978,-2.5247722,1.5900823,4.747645,-1.7928895
335,3.35,-0.28676724,-1.8782645,-3.6535368,2.2101104,1.7030923,-1.5204436
336,3.36,-0.34680536,-1.897057,-3.8399966,1.9932534,1.2986995,-1.0458013
337,3.37,-0.88031447,-1.3664765,-4.061845,1.1374311,1.4953982,-0.4801401
338,3.38,-1.2522577,-1.9395229,-3.9073565,0.82650065,0.97127575,0.9663888
339,3.39,-0.916435,-1.683507,-3.7936256,0.35308012,0.6236934,1.7446312
340,3.4,-0.7353445000000001,-1.59344985,-3.6589061000000003,-0.27152959,0.48624873,2.39978415
341,3.41,-0.554254,-1.5033927,-3.5241866,-0.8961393,0.34880406,3.0549371
342,3.42,-0.38406475000000007,-1.3977972666666667,-3.136135566666667,-1.204219,-0.10343985999999994,3.389283966666667
343,3.43,-0.21387550000000005,-1.2922018333333334,-2.7480845333333335,-1.5122987,-0.5556837799999998,3.7236308333333334
344,3.44,-0.04368625,-1.1866064,-2.3600335,-1.8203784,-1.0079277,4.0579777
345,3.45,0.6889736,-0.9999026,-2.1808956,-2.502104,-3.137404,5.0604076
346,3.46,0.6889736,-0.9999026,-2.1808956,-2.9681942,-3.8997638,5.044525
347,3.47,1.0493241,-0.93937635,-1.9961443,-3.8716639,-4.7552806,4.627915
348,3.48,1.4096746,-0.8788501,-1.811393,-4.7751336,-5.6107974,4.211305
349,3.49,1.5548887,-0.8551766,-1.4555575,-4.7751336,-5.6107974,4.211305
350,3.5,1.9431838,-0.9193637,-0.20574026,-5.3548446,-5.7311378,4.1465535
351,3.51,1.9431838,-0.9193637,-0.20574026,-5.3548446,-5.7311378,4.1465535
352,3.52,2.3152490500000003,-0.9837948000000001,0.17791772,-6.3933155500000005,-5.07751205,3.7711767
353,3.53,2.6873143,-1.0482259,0.5615757,-7.4317865,-4.4238863,3.3957999
354,3.54,2.6662034,-1.2011278,0.7575537,-7.953771250000001,-3.8573087500000005,2.67528435
355,3.55,2.6450925,-1.3540297,0.9535317,-8.475756,-3.2907312,1.9547688
356,3.56,2.4803538,-1.479475,1.1238836,-8.510574,-3.1367931,1.423316
357,3.57,2.37992415,-1.5650171,1.2654368,-8.4598725,-3.15328645,1.262353
358,3.58,2.2794945,-1.6505592,1.40699,-8.409171,-3.1697798,1.10139
359,3.59,2.271685,-1.6298143,1.4994878,-7.2918983,-4.800179,-0.44593164
360,3.6,2.152463,-1.62359085,1.5387810000000002,-7.1052789999999995,-5.0668218,-0.61575217
361,3.61,2.033241,-1.6173674,1.5780742,-6.9186597,-5.3334646,-0.7855727
362,3.62,2.033241,-1.6173674,1.5780742,-6.5338144,-5.9449406,-1.065349
363,3.63,2.033241,-1.6173674,1.5780742,-6.5338144,-5.9449406,-1.065349
364,3.64,1.9129207,-1.6017477,1.56196635,-6.4220261999999995,-6.1761529500000005,-1.13162785
365,3.65,1.7926004,-1.586128,1.5458585,-6.310238,-6.4073653,-1.1979067
366,3.66,1.6859474,-1.4350566,1.9461124,-6.210667,-5.2595496,-0.62980205
367,3.67,1.5910091,-1.4052817,2.2197006,-6.2900796,-4.7989573,-0.6872234
368,3.68,1.23712612,-1.32315645,2.4652222999999998,-6.1602708,-4.4138069,-0.7883216
369,3.69,0.88324314,-1.2410312,2.710744,-6.030462,-4.0286565,-0.8894198
370,3.7,0.6221019,-1.1626887,2.9230738,-5.897293,-4.0811906,-0.79412484
371,3.71,0.5707278499999999,-1.1054572999999999,3.005077,-5.7858102,-4.107457800000001,-0.67286807
372,3.72,0.5193538,-1.0482259,3.0870802,-5.6743274,-4.133725,-0.5516113
373,3.73,0.55791485,-0.5012936,3.4524338,-5.062851,-4.2992697,0.0018325958
374,3.74,0.51276426,-0.42734425,3.5808079,-5.0313915,-4.30293485,-0.07696902209999999
375,3.75,0.46761367,-0.3533949,3.709182,-4.999932,-4.3066,-0.15577064
376,3.76,0.08102701,-0.41733786,3.9600728,-5.3249125,-4.3261476,-0.9578367
377,3.77,-0.397325195,-0.65456153,4.9638802,-5.87530205,-4.565606799999999,-0.920573925
378,3.78,-0.8756774,-0.8917852,5.9676876,-6.4256916,-4.805066,-0.88331115
379,3.79,-0.82100855,-0.939864485,6.5296298,-6.2292983,-4.3508877,0.13683377500000005
380,3.8,-0.7663397,-0.98794377,7.091572,-6.032905,-3.8967094,1.1569787
381,3.81,-0.43710655,-1.001611,7.973594,-4.6486845,-3.3701437,1.5436565
382,3.82,-0.063943,-0.90325594,7.98897,-2.7861564,-3.0604348,1.6352862
383,3.83,0.3087324,-0.5881780116666666,7.884350733333333,-0.4850269333333337,-0.7772241333333332,1.6945401333333332
384,3.84,0.6814078000000001,-0.27310008333333335,7.779731466666667,1.8161025333333325,1.5059865333333335,1.7537940666666667
385,3.85,1.0540832,0.041977845,7.6751122,4.117232,3.7891972,1.813048
386,3.86,1.0540832,0.041977845,7.6751122,4.117232,3.7891972,1.813048
387,3.87,1.2600676,0.071020655,4.915557,6.019466,6.808093,0.9663888
388,3.88,1.1213820349999999,-0.08328453425,4.2733814,6.3224552,6.741203275,0.7912232025
389,3.89,0.98269647,-0.23758972350000002,3.6312058,6.6254444,6.67431355,0.616057605
390,3.9,0.878423005,-0.40116909675,3.13265775,6.7674707000000005,6.568328275,0.5850562024999999
391,3.91,0.77414954,-0.56474847,2.6341097,6.909497,6.462343,0.5540548
392,3.92,1.0069802,-0.81734776,2.1052377,6.4812803,6.5246515,0.9755518
393,3.93,1.3186413,-1.05200883,2.12537235,6.4757824,6.668205,1.07237395
394,3.94,1.6303024,-1.2866699,2.145507,6.4702845,6.8117585,1.1691961
395,3.95,1.6303024,-1.2866699,2.145507,6.4702845,6.8117585,1.1691961
396,3.96,2.0559382,-1.60516455,1.9996828999999998,7.1565917500000005,6.58818175,0.7571674899999999
397,3.97,2.481574,-1.9236592,1.8538588,7.842899,6.364605,0.34513888
398,3.98,2.4842587,-2.0139604,1.679602,8.29555,5.9907556,-0.19914207
399,3.99,2.3222046,-2.0473962,1.4865527,8.689558,5.43609,-1.1203269
400,4.0,2.3222046,-2.0473962,1.4865527,8.692612,5.3866098000000004,-1.28953655
401,4.01,2.3222046,-2.0473962,1.4865527,8.695666,5.3371296,-1.4587462
402,4.02,1.9688098,-1.9627084,1.0265048,8.183762,5.3481255,-1.96271
403,4.03,1.8448287,-1.8731394,1.0257727,7.5954986,5.522222,-2.2094996
404,4.04,1.77661475,-1.81993495,1.00832257,7.4015488000000005,5.52894135,-2.21713545
405,4.05,1.7084008,-1.7667305,0.99087244,7.207599,5.5356607,-2.2247713
406,4.06,1.8096845,-1.4252943,0.8891005,6.087883,5.262604,-2.140472
407,4.07,1.8877828,-1.3657444,1.0684826,4.7623053,5.159368,-2.5277603
408,4.08,1.8671600000000002,-1.347074,1.17745415,4.60500765,5.23114465,-2.6166411500000004
409,4.09,1.8465372,-1.3284036,1.2864257,4.44771,5.3029213,-2.705522
410,4.1,1.5368285,-1.2632403,1.4248062,4.44771,5.3029213,-2.705522
411,4.11,1.2947236,-1.2173575,1.4377413,4.5570545,5.7036486,-2.7030787
412,4.12,1.1210769,-1.09935585,1.25909135,4.83255475,5.1755558,-2.5335636
413,4.13,0.9474302,-0.9813542,1.0804414,5.108055,4.647463,-2.3640485
414,4.14,1.5125448000000001,-0.8589595,0.34473085000000003,4.485278,2.88420035,-2.7968465
415,4.15,2.0776594,-0.7365648,-0.3909797,3.862501,1.1209377,-3.2296445
416,4.16,1.9702741,-0.58232063,-1.7281694,2.303573,2.3903158,-3.200323
417,4.17,1.4772785,-0.76194674,-2.0195737,0.91813046,4.6938887,-2.820365
418,4.18,1.4732516,-0.817103685,-1.9855277500000001,0.65087691,5.5145859999999995,-2.63527275
419,4.19,1.4692247,-0.87226063,-1.9514818,0.38362336,6.3352833,-2.4501805
420,4.2,0.6543175,-0.9794017,-2.382731,2.8918362,4.768414,-2.3377812
421,4.21,0.6543175,-0.9794017,-2.382731,2.8918362,4.768414,-2.3377812
422,4.22,0.3742617975,-1.18807065,-3.5594530000000004,3.6428951,3.2278119,-2.2843305
423,4.23,0.094206095,-1.3967396,-4.736175,4.393954,1.6872098,-2.2308798
424,4.24,-0.3222776025,-1.4562896,-5.232343500000001,3.4211508999999998,1.22875545,-1.5421293
425,4.25,-0.7387613,-1.5158396,-5.728512,2.4483478,0.7703011,-0.8533788
426,4.26,-0.7167961,-1.3306,-4.829893,-0.050701816,0.64568454,0.9272934
427,4.27,-0.5779276,-1.2012497,-4.386929,-1.3665055,0.1301143,2.1252003
428,4.28,-0.47042036499999995,-1.14536065,-4.12127265,-1.6007723,-0.09285151500000002,2.3710735
429,4.29,-0.36291313,-1.0894716,-3.8556163,-1.8350391,-0.31581733,2.6169467
430,4.3,0.23087814,-0.85542065,-2.5726075,-2.0928242,-1.4147639,3.2485814
431,4.31,0.23087814,-0.85542065,-2.5726075,-2.0928242,-1.4147639,3.2485814
432,4.32,0.56316207,-0.938522125,-2.15319515,-2.0573941,-2.6789496,3.4495560999999997
433,4.33,0.895446,-1.0216236,-1.7337828,-2.021964,-3.9431353,3.6505308
434,4.34,1.0279691,-1.08068545,-1.5792945,-2.677117,-4.6486845,3.9342777499999997
435,4.35,1.1604922,-1.1397473,-1.4248062,-3.33227,-5.3542337,4.2180247
436,4.36,1.3901501,-1.2246792,-1.1922196,-3.758043,-5.408601,4.3182063
437,4.37,1.952214,-1.4194369,-0.6667644,-4.355469,-5.364008,4.3487496
438,4.38,2.0849811,-1.4736175999999999,-0.50397822,-4.6410485,-5.23572615,4.2986585999999996
439,4.39,2.2177482,-1.5277983,-0.34119204,-4.926628,-5.1074443,4.2485676
440,4.4,2.4615614,-1.6913167,0.27993366,-6.023742,-4.505742,3.3860261
441,4.41,2.4314203,-1.68997435,0.42966277999999997,-6.0903265,-4.4730608,3.2473596000000002
442,4.42,2.4012792,-1.688632,0.5793919,-6.156911,-4.4403796,3.1086931
443,4.43,2.3460003,-1.64274925,0.8369943,-6.25495485,-4.3734898,2.8612927
444,4.44,2.2907214,-1.5968665,1.0945967,-6.3529987,-4.3066,2.6138923
445,4.45,2.4234886,-1.3530535,1.3371897,-6.370103,-4.59615,2.0176878
446,4.46,2.374677,-1.2878901,1.3908823,-6.450737,-4.718323,1.6108516
447,4.47,2.36210815,-1.28776805,1.42736885,-6.6892797999999996,-4.56255235,1.0751228
448,4.48,2.3495393,-1.287646,1.4638554,-6.9278226,-4.4067817,0.539394
449,4.49,2.0649683,-1.3359693,1.8765563,-7.1232996,-4.219857,0.19486602
450,4.5,1.9519699,-1.355738,2.0966957,-7.188662,-4.0139956,-0.118507855
451,4.51,1.90254835,-1.3484163,2.1818718500000003,-7.13887665,-3.92542015,-0.2761110925
452,4.52,1.8531268,-1.3410946,2.267048,-7.0890913,-3.8368447,-0.43371433
453,4.53,1.1207108,-1.2500613,2.7100117,-6.079331,-3.5008688,-1.1801916
454,4.54,0.8679895499999999,-1.16964435,2.59518275,-5.4144042,-3.16519835,-1.18416225
455,4.55,0.6152683,-1.0892274,2.4803538,-4.7494774,-2.8295279,-1.1881329
456,4.56,0.6152683,-1.0892274,2.4803538,-4.7494774,-2.8295279,-1.1881329
457,4.57,-0.010494461,-0.7726852,2.2172601,-4.238794,-2.6786442,-1.0922271
458,4.58,-0.1846293005,-0.737174885,2.23861505,-4.1514402,-2.7977629,-1.1175779499999998
459,4.59,-0.35876414,-0.70166457,2.25997,-4.0640864,-2.9168816,-1.1429288
460,4.6,-1.198077,-0.40293851,2.3451462,-3.7134497,-4.084245,-0.41233405
461,4.61,-1.4636112,-0.24356914,2.4859672,-3.6816847,-4.4318275,0.18448131
462,4.62,-1.5269441499999998,-0.010738524999999999,2.6568073,-3.9874228499999997,-4.56805025,0.681725655
463,4.63,-1.5902771,0.22209209,2.8276474,-4.293161,-4.704273,1.17897
464,4.64,-1.5818571000000001,0.28066584499999997,3.34004545,-5.06498915,-4.5711045,1.3032810000000001
465,4.65,-1.5734371,0.3392396,3.8524435,-5.8368173,-4.437936,1.427592
466,4.66,-1.5734371,0.3392396,3.8524435,-5.8368173,-4.437936,1.427592
467,4.67,-1.1485333,0.19500175,5.7375417,-7.356039,-4.048204,1.7146988
468,4.68,-0.9908723500000001,0.09481624525,6.32266905,-7.2851789,-3.7125335,1.8219056
469,4.69,-0.8332114,-0.0053692595,6.9077964,-7.2143188,-3.376863,1.9291124
470,4.7,-0.10494461,-0.46761367,7.98897,-4.536896,-1.7989981,1.8973475
471,4.71,-0.13227903,-0.24271492449999998,7.98897,-0.9676104999999997,-0.1658499,1.88115955
472,4.72,-0.15961345,-0.017816179,7.98897,2.601675,1.4672983,1.8649716
473,4.73,-0.15961345,-0.017816179,7.98897,2.601675,1.4672983,1.8649716
474,4.74,0.005003174999999999,0.16217604549999998,6.862401500000001,4.17954,2.6407704499999998,1.8713856500000001
475,4.75,0.1696198,0.34216827,5.735833,5.757405,3.8142426,1.8777997
476,4.76,0.25821257,0.34460884,4.573145,6.984022,5.1208835,1.5882497
477,4.77,0.24869433,-0.00073217176,1.9331775,7.266242,5.1422634,1.0280862
478,4.78,0.281275985,-0.04515059088,1.7878414,6.914689,5.08362055,0.95294977
479,4.79,0.31385764,-0.08956901,1.6425053,6.563136,5.0249777,0.87781334
480,4.8,0.39756928,-0.14936303,1.5993072000000002,6.1624085,5.05490985,0.896139295
481,4.81,0.48128092,-0.20915705,1.5561091,5.761681,5.084842,0.91446525
482,4.82,0.8085616,-0.44223174,1.6881441,5.6254582,5.0610185,0.9388999
483,4.83,1.0404973666666666,-0.63983676,1.6512913999999999,5.7903918,4.920926766666667,0.7291694933333334
484,4.84,1.2724331333333334,-0.83744178,1.6144387,5.9553253999999995,4.780835033333333,0.5194390866666667
485,4.85,1.5043689,-1.0350468,1.577586,6.120259,4.6407433,0.30970868
486,4.86,1.5675796,-1.1883147,1.4767904,6.120259,4.6407433,0.30970868
487,4.87,1.6508032,-1.338654,1.38112,6.120259,4.6407433,0.30970868
488,4.88,1.55940375,-1.3618394,1.2920391,6.446460999999999,4.38295815,-0.59101216
489,4.89,1.4680043,-1.3850248,1.2029582,6.772663,4.125173,-1.491733
490,4.9,1.4680043,-1.3850248,1.2029582,6.5472536,3.7293322,-1.6621643
491,4.91,1.3169329,-1.3010693,1.0838583,6.125146,3.4342844,-1.6969837
492,4.92,1.3169329,-1.3010693,1.0838583,4.8655415,4.0139956,-1.5632042
493,4.93,1.3169329,-1.3010693,1.0838583,4.8655415,4.0139956,-1.5632042
494,4.94,1.4572658500000002,-1.2952118499999998,1.2442039,4.692361399999999,4.33836505,-1.5638151
495,4.95,1.5975988,-1.2893544,1.4045495,4.5191813,4.6627345,-1.564426
496,4.96,1.4497000500000001,-1.34548765,1.5844197,5.10072495,4.71801775,-1.8225165
497,4.97,1.3018013,-1.4016209,1.7642899,5.6822686,4.773301,-2.080607
498,4.98,1.3018013,-1.4016209,1.7642899,5.6822686,4.773301,-2.080607
499,4.99,1.2898425,-1.3964956,0.9972179,7.897266,1.1417072,-2.6816983
500,5.0,1.3410945,-1.37355425,0.67933333,7.81296665,0.88025685,-2.83380375
501,5.01,1.3923465,-1.3506129,0.36144876,7.7286673,0.6188065,-2.9859092
502,5.02,1.0594525,-1.0428566,-1.1587838,5.784894,0.8051204,-3.5234706
503,5.03,0.9344952,-1.02845725,-1.2527458,4.8029281,1.5769486000000001,-3.3396002
504,5.04,0.8095379,-1.0140579,-1.3467078,3.8209622,2.3487768,-3.1557298
505,5.05,0.55059314,-0.99917036,-1.4697127,3.8209622,2.3487768,-3.1557298
506,5.06,0.24991462,-1.159272,-2.0088353,3.1050282,3.5417967,-2.262034
507,5.07,0.37182121,-1.325719,-2.29230775,3.59769085,2.7412578,-2.1068742499999997
508,5.08,0.4937278,-1.492166,-2.5757802,4.0903535,1.9407189,-1.9517145
509,5.09,-0.17791773,-1.6979064,-4.249281,4.138001,1.0079277,-1.8600847
510,5.1,-0.5379022,-1.7962613,-4.62098,3.568064,1.078788,-1.613906
511,5.11,-0.5379022,-1.7962613,-4.62098,2.724459,1.4862351,-1.2284501
512,5.12,-0.9845269,-1.7487921499999999,-4.6398943500000005,2.0073032,1.5167784,-0.6181956740000001
513,5.13,-1.4311516,-1.701323,-4.6588087,1.2901474,1.5473217,-0.007941248
514,5.14,-1.2417631999999998,-1.6351835000000001,-3.9395721,0.3417790999999999,1.01770152,1.590082276
515,5.15,-1.0523748,-1.569044,-3.2203355,-0.6065892,0.48808134,3.1881058
516,5.16,-0.77024466,-1.4902135,-2.7895741,-0.6267477,0.04642576,3.685961
517,5.17,-0.53765811,-1.35061275,-2.42958975,-0.54764067,-0.28893927,3.873802
518,5.18,-0.30507156,-1.211012,-2.0696054,-0.46853364,-0.6243043,4.061643
519,5.19,-0.14350566,-1.1604922,-2.0085912,-0.1386664,-2.791654,4.9834385
520,5.2,0.014887493,-1.1180263,-1.9712504,-0.33108896,-3.3695326,5.312695
521,5.21,0.23429495,-1.0928884,-1.918534,-0.59986967,-3.7006216,5.5619283
522,5.22,0.642724775,-1.09435275,-1.7435450000000001,-0.8732318349999999,-3.8771618,5.724418399999999
523,5.23,1.0511546,-1.0958171,-1.568556,-1.146594,-4.053702,5.8869085
524,5.24,1.4439648,-1.1230295,-1.25176965,-2.28524685,-4.346306500000001,6.20058775
525,5.25,1.836775,-1.1502419,-0.9349833,-3.4238997,-4.638911,6.514267
526,5.26,2.5320938,-1.2371262,-0.12032023,-5.162422,-4.184427,6.3077946
527,5.27,2.56980075,-1.2280961000000001,0.32606046,-5.73266475,-3.6737436,5.64561655
528,5.28,2.6075077,-1.219066,0.77244115,-6.3029075,-3.1630602,4.9834385
529,5.29,2.4003031,-1.0374874,1.3098553,-6.2210517,-3.059824,4.511851
530,5.3,2.298531,-0.9715919,1.4001565,-6.042679,-3.0653217,4.0732493
531,5.31,2.2555770500000003,-0.9336409999999999,1.4188268000000002,-5.961434,-3.06593265,3.9174787999999996
532,5.32,2.2126231,-0.8956901,1.4374971,-5.880189,-3.0665436,3.7617083
533,5.33,2.1845565,-0.8297946,1.4518965,-5.5472674,-3.2070425,2.9028316
534,5.34,2.0390983499999997,-0.801606,1.4224876499999999,-5.4122661999999995,-3.22628475,2.1694879
535,5.35,1.8936402,-0.7734174,1.3930788,-5.277265,-3.245527,1.4361442
536,5.36,1.6271297,-0.8007518,1.2969202,-5.2974234,-3.163671,1.2400564
537,5.37,1.49509475,-0.80221617,1.2620200000000001,-5.32705045,-3.1337386499999997,1.12857355
538,5.38,1.3630598,-0.80368054,1.2271198,-5.3566775,-3.1038063,1.0170907
539,5.39,1.2119883,-0.81417495,1.1336459,-5.739079,-3.218649,0.63163465
540,5.4,1.1521943,-0.83858067,1.121199,-5.966321,-3.1337388,0.5216789
541,5.41,1.0185729499999998,-0.8848295500000001,1.25152555,-6.153245699999999,-2.9217685500000004,0.4709771
542,5.42,0.8849516,-0.93107843,1.3818521,-6.3401704,-2.7097983,0.4202753
543,5.43,0.8849516,-0.93107843,1.3818521,-6.454402,-2.208278,0.39522982
544,5.44,0.8849516,-0.93107843,1.3818521,-6.454402,-2.208278,0.39522982
545,5.45,0.7102066,-0.895202015,1.6819205,-6.4272187,-2.0818288000000003,0.32986723
546,5.46,0.5354616,-0.8593256,1.9819889,-6.4000354,-1.9553796,0.26450464
547,5.47,0.15839316,-0.5959878,2.1747942,-5.7580156,-1.9969184,0.2687807
548,5.48,-0.017572122,-0.3053156,2.1691809,-5.6865444,-2.3377812,0.36774087
549,5.49,-0.017572122,-0.3053156,2.1691809,-5.7415223,-2.8081474,0.37384954
550,5.5,-0.167301246,-0.07431542000000002,2.38663595,-5.89637665,-3.24613785,0.30512719499999996
551,5.51,-0.31703037,0.15668476,2.604091,-6.051231,-3.6841283,0.23640485
552,5.52,-0.8166155,-0.38194957,3.747987,-8.575937,-5.309641,-0.5448918
553,5.53,-1.2254114,-0.8222289,4.621712,-9.756129,-4.8704286,-0.5027421
554,5.54,-1.4144337500000002,-1.16573945,6.20954835,-9.868833500000001,-3.9403863,0.31856625000000005
555,5.55,-1.6034561,-1.50925,7.7973847,-9.981538,-3.010344,1.1398746
556,5.56,-1.4050376,-1.6739886,7.98897,-7.564955,-2.9675834,1.67316
557,5.57,-1.033216365,-1.2360278999999998,7.98897,-4.2864413500000005,-3.0750957000000003,1.9226985
558,5.58,-0.66139513,-0.7980672,7.98897,-1.0079277,-3.182608,2.172237
559,5.59,-0.43246946,-0.4148973,7.98897,4.5161266,-1.5778649,2.425746
560,5.6,-0.06711575,-0.011470691,7.98897,5.6285124,0.4111123,2.4764478
561,5.61,0.149363045,0.12996048449999997,7.6763325,5.781534199999999,1.2791517999999997,2.4388796
562,5.62,0.36584184,0.27139166,7.363695,5.934556,2.1471913,2.4013114
563,5.63,1.0311419,0.4588276,4.7129893,6.007249,6.2845817,1.5839735
564,5.64,1.0311419,0.4588276,4.7129893,6.1868432,7.1373496,1.29656145
565,5.65,1.0311419,0.4588276,4.7129893,6.3664374,7.9901175,1.0091494
566,5.66,1.0311419,0.4588276,4.7129893,6.3664374,7.9901175,1.0091494
567,5.67,0.81002603,-0.18792405,3.4628062,6.7299022,7.35359595,1.0870347
568,5.68,0.58891016,-0.8346757,2.2126231,7.093367,6.7170744,1.16492
569,5.69,0.58891016,-0.8346757,2.2126231,7.387193,6.29741,1.3457361
570,5.7,1.0845904,-1.2503053,1.7616051,7.5900006,5.9864793,1.4178182
571,5.71,1.2472546,-1.3182752,1.7020552,7.5900006,5.9864793,1.4178182
572,5.72,1.4099188,-1.3862451,1.6425053,7.5900006,5.9864793,1.4178182
573,5.73,1.8318938,-1.5631866,1.1136333,8.420167,4.874094,0.35735616
574,5.74,1.8318938,-1.5631866,1.1136333,8.420167,4.874094,0.35735616
575,5.75,1.8318938,-1.5631866,1.1136333,8.420167,4.874094,0.35735616
576,5.76,1.7074246,-1.48301385,0.908137065,7.90704,4.71862865,-0.43951756999999997
577,5.77,1.5829554,-1.4028411,0.70264083,7.393913,4.5631633,-1.2363913
578,5.78,1.3464638,-1.2171135,0.7106947,7.393913,4.5631633,-1.2363913
579,5.79,1.1902672,-1.1409676,0.8346757,6.304129,4.166712,-1.5247196
580,5.8,1.1536586,-1.0833701,0.9440134,5.3420167,4.097073,-1.3432927
581,5.81,1.45018815,-1.091424,1.2765414499999999,4.80170635,4.2815545,-1.2760975499999998
582,5.82,1.7467177,-1.0994779,1.6090695,4.261396,4.466036,-1.2089024
583,5.83,1.7123058,-1.1351103,1.6813104,3.98895,5.5771995,-1.7482964
584,5.84,1.62627555,-1.14767925,1.67545305,4.0711113,5.65630655,-1.77547985
585,5.85,1.5402453,-1.1602482,1.6695957,4.1532726,5.7354136,-1.8026633
586,5.86,1.0687267,-0.98159826,1.2893544,4.586987,5.267491,-1.4978416
587,5.87,1.1853861,-0.9379120299999999,1.24676645,4.9819115,4.4012839999999995,-1.4062118
588,5.88,1.3020455,-0.8942258,1.2041785,5.376836,3.535077,-1.314582
589,5.89,1.5641629,-0.81246656,1.0931324,5.765957,2.9614747,-1.4587462
590,5.9,2.1874852,-0.8261338,-0.018304294,6.470896,2.3005185,-2.7806585
591,5.91,2.0693614,-0.9066727,-0.6303999,6.470896,2.3005185,-2.7806585
592,5.92,1.96722345,-0.9393763500000001,-1.05737805,5.7616812,2.630233,-2.9405525499999996
593,5.93,1.8650855,-0.97208,-1.4843562,5.0524664,2.9599475,-3.1004465999999997
594,5.94,1.2312688299999999,-1.28727995,-2.0959636,4.5830164,2.51386315,-2.9029843
595,5.95,0.59745216,-1.6024799,-2.707571,4.1135664,2.0677788,-2.705522
596,5.96,0.53717,-1.6542201,-2.9982433,4.0280457,0.9682214,-1.8301523
597,5.97,0.36999078566666666,-1.7333759333333334,-3.334391533333333,3.7889937,0.9087638466666667,-1.6228653333333334
598,5.98,0.20281157133333333,-1.8125317666666667,-3.6705397666666664,3.5499417,0.8493062933333334,-1.4155783666666666
599,5.99,0.035632357,-1.8916876,-4.006688,3.3108897,0.78984874,-1.2082914
600,6.0,-0.51691324,-1.8938842,-3.909797,1.8558086,1.0354166,0.2938262
601,6.01,-0.51691324,-1.8938842,-3.909797,1.4416419,0.625526,0.82894415
602,6.02,-0.60916686,-1.8404356,-3.619613,0.96761054,0.14172074,1.3078625
603,6.03,-0.7452287799999999,-1.76026285,-3.2003226500000004,0.493579114,-0.15057827999999995,1.7055357500000001
604,6.04,-0.8812907,-1.6800901,-2.7810323,0.019547688,-0.4428773,2.103209
605,6.05,-0.8854397,-1.6388444,-2.5394156,-0.8912524,-1.0983357,3.1716123
606,6.06,-0.84443808,-1.62969225,-2.43093215,-1.0509936999999998,-1.3390166,3.45169405
607,6.07,-0.80343646,-1.6205401,-2.3224487,-1.210735,-1.5796975,3.7317758
608,6.08,-0.23917611,-1.5797825,-1.7738081,-1.9388863,-3.2473598,4.972443
609,6.09,-0.025626011,-1.5851518,-1.6727684,-2.302351,-3.7006216,5.301089
610,6.1,0.18597162,-1.6388444,-1.5412215,-2.302351,-3.7006216,5.301089
611,6.11,0.44296391,-1.7359792,-1.237492235,-3.4159585,-4.12486745,5.821546
612,6.12,0.6999562,-1.833114,-0.93376297,-4.529566,-4.5491133,6.342003
613,6.13,1.1150976,-1.9578272,-0.6721336,-5.0164256,-4.6218066,6.555195
614,6.14,1.3253529,-2.0005372,-0.53424129,-5.3423221000000005,-4.6728138,6.630636750000001
615,6.15,1.5356082,-2.0432472,-0.39634898,-5.6682186,-4.723821,6.7060785
616,6.16,2.0918147,-2.0104215500000002,0.39122376,-6.8404688,-4.9599203,6.32886925
617,6.17,2.6480212,-1.9775959,1.1787965,-8.012719,-5.1960196,5.95166
618,6.18,2.6675458,-1.9695419,1.6320108,-8.384736,-4.710993,5.6596665
619,6.19,2.6675458,-1.9695419,1.6320108,-8.384736,-4.710993,5.6596665
620,6.2,2.6149515,-1.88631845,1.8736275,-8.4720895,-3.5442402,5.21648375
621,6.21,2.5623572,-1.803095,2.1152442,-8.559443,-2.3774874,4.773301
622,6.22,2.4881637,-1.6588572,2.335384,-8.559443,-2.3774874,4.773301
623,6.23,2.276322,-1.1246158,2.7278278,-6.8197,-1.8509218,2.6120598
624,6.24,2.1428227,-0.9464539999999999,2.6532684,-6.4415742,-2.1169536,2.28127625
625,6.25,2.0093234,-0.7682922,2.578709,-6.0634484,-2.3829854,1.9504927
626,6.26,1.73976215,-0.52435698,2.2923077999999997,-5.396383500000001,-3.2977562,1.46210595
627,6.27,1.4702009,-0.28042176,2.0059066,-4.7293186,-4.212527,0.9737192
628,6.28,1.4702009,-0.28042176,2.0059066,-4.7293186,-4.212527,0.9737192
629,6.29,1.4702009,-0.28042176,2.0059066,-5.02681,-3.4428365,0.7733554
630,6.3,1.4093086000000001,-0.14008885138000002,1.95611885,-5.107749500000001,-3.00912225,0.631329225
631,6.31,1.3484163,0.00024405724,1.9063311,-5.188689,-2.575408,0.48930305
632,6.32,1.1207108,0.065163285,1.9548985,-5.315749,-1.8655825,0.23090707
633,6.33,0.485918,0.24503349,2.0993805,-5.299256,-0.20952678,-0.41416663
634,6.34,-0.005247229999999992,0.509957645,2.26009215,-4.77055225,-0.38912119,-0.19181168399999998
635,6.35,-0.49641246,0.7748818,2.4208038,-4.2418485,-0.5687156,0.030543262
636,6.36,-0.62673903,1.1534146,2.5079322,-3.8722749,-1.0100657,0.21594086099999998
637,6.37,-0.7570656,1.5319474,2.5950606,-3.5027013,-1.4514158,0.40133846
638,6.38,-0.7570656,1.5319474,2.5950606,-3.5027013,-1.4514158,0.40133846
639,6.39,-1.0518868,2.1206133,2.83082,-3.1685581,-2.4587326,0.15821409
640,6.4,-1.27300265,2.24532665,2.9449168,-3.2965343,-2.41902635,0.13561208
641,6.41,-1.4941185,2.37004,3.0590136,-3.4245105,-2.3793201,0.11301007
642,6.42,-1.4941185,2.37004,3.0590136,-3.9956696,-2.048842,0.25289822
643,6.43,-1.1929518,2.4464297,4.566311,-5.7494636,-1.010982,1.282817
644,6.44,-0.2887196999999999,2.0891299500000002,6.2550652499999995,-5.1996848,-0.7315111400000001,0.8836165650000001
645,6.45,0.6155124,1.7318302,7.9438195,-4.649906,-0.45204028,0.48441613
646,6.46,0.541929125,1.6456780000000002,7.96639475,-2.12764352,0.7733553599999998,-0.037262784999999965
647,6.47,0.46834585,1.5595258,7.98897,0.39461896,1.998751,-0.5589417
648,6.48,0.25467373400000004,1.4093086000000001,7.98897,1.36650563,2.5567765,-0.532979925
649,6.49,0.041001618,1.2590914,7.98897,2.3383923,3.114802,-0.50701815
650,6.5,0.12642166,0.86323047,6.305951,3.613268,3.7097847,-0.50335294
651,6.51,0.12642166,0.86323047,6.305951,3.613268,3.7097847,-0.50335294
652,6.52,0.12642166,0.86323047,6.305951,3.613268,3.7097847,-0.50335294
653,6.53,0.0678479175,0.44869924299999997,4.25831085,4.898223,4.182289,-0.60109137
654,6.54,0.009274175,0.034168016,2.2106707,6.183178,4.6547933,-0.6988298
655,6.55,0.18182266,-0.08664032,2.0459318,5.9455514,5.0982814,-0.48380527
656,6.56,0.29128233,-0.144481885,1.99797455,5.9198952,5.18441345,-0.455094605
657,6.57,0.400742,-0.20232345,1.9500173,5.894239,5.2705455,-0.42638394
658,6.58,1.1024066,-0.5835409,1.9248794,6.42447,5.2241197,-0.73548174
659,6.59,1.1024066,-0.5835409,1.9248794,6.42447,5.2241197,-0.73548174
660,6.6,1.20796135,-0.673475975,1.8677700499999998,6.55886035,5.12729735,-0.8894197699999999
661,6.61,1.3135161,-0.76341105,1.8106607,6.6932507,5.030475,-1.0433578
662,6.62,1.5041249,-1.0985017,1.5534244,7.136739,4.636467,-1.7825048
663,6.63,1.3642801,-1.3410946,1.091424,6.8673472,4.4135013,-2.461787
664,6.64,1.2969202499999999,-1.2160153,0.9401085,6.5524461,4.3368378,-2.45537295
665,6.65,1.2295604,-1.090936,0.788793,6.237545,4.2601743,-2.4489589
666,6.66,1.2295604,-1.090936,0.788793,6.237545,4.2601743,-2.4489589
667,6.67,1.2295604,-1.090936,0.788793,6.237545,4.2601743,-2.4489589
668,6.68,1.7718556,-0.88324314,1.2622641,3.7995818,4.289496,-2.5320365
669,6.69,1.77942135,-0.89654427,1.33645745,3.5738671,4.58973625,-2.5946501499999997
670,6.7,1.7869871,-0.9098454,1.4106508,3.3481524,4.8899765,-2.6572638
671,6.71,1.7166986,-0.9620737,1.5295068,2.891225,6.0457335,-2.6957483
672,6.72,1.7374434,-0.9408407,1.679846,3.0121765,6.1935625,-2.4898868
673,6.73,1.7614831,-0.9504809999999999,1.63408525,3.18993825,6.02465845,-2.5024094999999997
674,6.74,1.7855228,-0.9601213,1.5883245,3.3677,5.8557544,-2.5149322
675,6.75,1.7408603,-0.93986446,1.1958805,5.0298643,4.4623704,-2.9364293
676,6.76,1.7298776999999999,-0.92570916,0.9729342,5.27421045,4.2846087,-3.01797975
677,6.77,1.7188951,-0.91155386,0.7499879,5.5185566,4.106847,-3.0995302
678,6.78,1.6566606,-1.0084445,-0.6123396,6.0261855,3.7959166,-3.2766812
679,6.79,1.6720362,-1.0633575,-2.3048768,5.594304,2.8887818,-4.2277985
680,6.8,1.0921562,-1.05945255,-2.7185538,5.247332500000001,2.46300865,-4.45351325
681,6.81,0.5122762,-1.0555476,-3.1322308,4.900361,2.0372355,-4.679228
682,6.82,-0.032459613,-1.0604287,-3.389223,3.105639,0.3885103,-4.012163
683,6.83,0.4271002,-1.3269392,-3.213502,1.5803084,0.5149594,-2.886949
684,6.84,0.23624742399999998,-1.54256385,-3.0685319,1.1835514,0.883922,-2.6609289499999997
685,6.85,0.045394648,-1.7581885,-2.9235618,0.7867944,1.2528846,-2.4349089
686,6.86,-0.085542066,-1.80541355,-2.97029875,0.79045962,0.992656,-1.6823229
687,6.87,-0.21647878,-1.8526386,-3.0170357,0.79412484,0.7324274,-0.9297369
688,6.88,-0.65285313,-1.8770443,-3.1737204,0.829555,0.35124752,-0.5039638
689,6.89,-0.970005515,-1.8901013500000001,-3.2444969500000003,0.7495316700000001,0.08399396999999997,0.4413502
690,6.9,-1.2871579,-1.9031584,-3.3152735,0.66950834,-0.18325958,1.3866642
691,6.91,-1.3972276,-1.8555672,-3.2386398,0.5693264,-0.5369505,2.071444
692,6.92,-1.3972276,-1.8555672,-3.2386398,0.47525316,-1.1447614,2.9339857
693,6.93,-0.9028897,-1.7594086500000001,-2.8320404000000003,0.320704255,-1.7504342999999998,3.7998872
694,6.94,-0.4085518,-1.6632501,-2.425441,0.16615535,-2.3561072,4.6657887
695,6.95,-0.33130769000000004,-1.6412849999999999,-2.3464885000000004,0.05772676700000001,-2.5201245500000002,4.91471635
696,6.96,-0.25406358,-1.6193199,-2.267536,-0.050701816,-2.6841419,5.163644
697,6.97,0.22965786,-1.4763023,-1.6871678,-0.64934975,-3.3707545,6.2540383
698,6.98,0.40367068,-1.4633672500000001,-1.57648785,-0.771217375,-3.52774675,6.45012615
699,6.99,0.5776835,-1.4504322,-1.4658079,-0.893085,-3.684739,6.646214
700,7.0,1.6593453,-1.3203497,-0.74364245,-2.05434,-4.6425757,7.531358
701,7.01,1.6593453,-1.3203497,-0.74364245,-2.05434,-4.6425757,7.531358
702,7.02,1.6593453,-1.3203497,-0.74364245,-2.05434,-4.6425757,7.531358
703,7.03,2.2336118,-1.1370627,-0.17913802,-3.6541958,-4.439158,7.0481634
704,7.04,2.575536,-0.8820229,0.6045298,-3.9742892,-4.2821655,6.853297
705,7.05,2.6241035,-0.82906246,0.82393724,-4.3004913,-4.019493,6.5270953
706,7.06,2.6328896,-0.75547923,0.92351262,-4.72229385,-3.63251,5.924171149999999
707,7.07,2.6416757,-0.681896,1.023088,-5.1440964,-3.245527,5.321247
708,7.08,2.455216,-0.665056,1.2978964,-5.4880133,-2.9022207,4.8160615
709,7.09,2.4117738500000003,-0.64980242,1.3689170499999999,-5.61324065,-2.76721955,4.58026775
710,7.1,2.3683317,-0.63454884,1.4399377,-5.738468,-2.6322184,4.344474
711,7.11,2.17455,-0.58183247,1.6566606,-5.885687,-2.417194,3.4703255
712,7.12,1.9243914,-0.5703618,1.7286574,-5.681047,-2.638938,2.510656
713,7.13,1.83628665,-0.5574267500000001,1.6976622,-5.681047,-2.638938,2.510656
714,7.14,1.7481819,-0.5444917,1.666667,-5.681047,-2.638938,2.510656
715,7.15,1.4133356,-0.50837123,1.3872215,-5.4244833,-2.9278772,1.4208726
716,7.16,1.317177,-0.47725394,1.2808125000000001,-5.51061535,-2.91291095,1.38880215
717,7.17,1.2210184,-0.44613665,1.1744035,-5.5967474,-2.8979447,1.3567317
718,7.18,1.2210184,-0.44613665,1.1744035,-5.5967474,-2.8979447,1.3567317
719,7.19,1.1429201,-0.42685616,1.4428664,-6.7109656,-2.4446826,0.95478237
720,7.2,1.0219897,-0.422829195,1.59027705,-6.72959705,-2.2931881,0.8903360849999999
721,7.21,0.9010593,-0.41880223,1.7376877,-6.7482285,-2.1416936,0.8258898
722,7.22,0.52423495,-0.20622836,1.9753993,-6.6651506,-1.9028453,0.7330383
723,7.23,0.38219365,-0.06711575,2.1096308,-5.9333344,-2.3958135,0.788627
724,7.24,0.27895743,0.367550225,2.28315555,-5.4550269,-3.14626145,0.84207772
725,7.25,0.17572121,0.8022162,2.4566803,-4.9767194,-3.8967094,0.89552844
726,7.26,0.34363260500000004,1.0825159500000001,2.30109365,-4.622722850000001,-4.65723655,0.87842422
727,7.27,0.511544,1.3628157,2.145507,-4.2687263,-5.4177637,0.86132
728,7.28,-0.12080834,1.6246891,2.0661886,-4.6835036,-5.427538,0.5290093
729,7.29,-0.605506,1.5568411,2.3204963,-6.550308,-3.7916405,0.1301143
730,7.3,-0.7854982500000001,1.4130913999999999,2.60030795,-7.7063705,-2.82005935,0.20769418
731,7.31,-0.9654905,1.2693417,2.8801196,-8.862433,-1.8484782,0.28527406
732,7.32,-0.5195979,0.003172744,6.357203,-10.414031,-2.4373524,-0.10262536
733,7.33,-0.4356422,-0.49177536,7.98897,-9.994367,-2.9535334,-0.16737708
734,7.34,-0.30153272999999997,-0.71801643,7.98897,-6.8994178,-2.7794368,0.018325959999999974
735,7.35,-0.16742326,-0.9442575,7.98897,-3.8044686,-2.6053402,0.204029
736,7.36,-0.116903415,-0.70678978,7.98897,-0.95111715,-1.70645202,0.3753767
737,7.37,-0.06638357,-0.46932206,7.98897,1.9022343,-0.80756384,0.5467244
738,7.38,0.108117364,-0.281398,7.98897,5.995642,2.1923954,0.906524
739,7.39,0.36730617,-0.107629254,6.809197,7.066489,3.6071594,0.8173377
740,7.4,0.49543622,-0.043320165499999994,5.6458983499999995,7.325495849999999,3.9944478500000002,0.71746123
741,7.41,0.62356627,0.020988923,4.4825997,7.5845027,4.3817363,0.61758476
742,7.42,0.5337532,-0.10177187,2.8984237,8.06281,4.967556,-0.105068825
743,7.43,0.5337532,-0.10177187,2.8984237,8.06281,4.967556,-0.105068825
744,7.44,0.6829535333333333,-0.22583429666666666,2.4243832333333333,7.741291333333334,5.1286208,-0.18142697666666668
745,7.45,0.8321538666666666,-0.3498967233333333,1.9503427666666666,7.419772666666667,5.2896856,-0.25778512833333334
746,7.46,0.9813542,-0.47395915,1.4763023,7.098254,5.4507504,-0.33414328
747,7.47,1.171963,-0.53009236,1.3806318,6.292523,5.829487,-0.49296826
748,7.48,1.171963,-0.53009236,1.3806318,6.292523,5.829487,-0.49296826
749,7.49,1.171963,-0.53009236,1.3806318,6.292523,5.829487,-0.49296826
750,7.5,1.7506226,-0.8956901,1.2115002,4.577824,6.753726,-1.2705997
751,7.51,1.7506226,-0.8956901,1.2115002,4.577824,6.753726,-1.2705997
752,7.52,1.7506226,-0.8956901,1.2115002,4.577824,6.753726,-1.2705997
753,7.53,1.6930252,-1.0787331,0.8027043,3.1380148,7.7909756,-1.2437216
754,7.54,1.6121608666666667,-1.1342154,0.80888708,2.564819566666667,8.036339733333334,-1.2221377333333334
755,7.55,1.5312965333333333,-1.1896977,0.81506986,1.9916243333333334,8.281703866666668,-1.2005538666666666
756,7.56,1.4504322,-1.24518,0.82125264,1.4184291,8.527068,-1.17897
757,7.57,1.1563432,-1.4328601,1.1878266,1.1911873,8.389012,-0.8588765
758,7.58,1.0538392,-1.50925,1.445063,2.058616,7.5545707,-0.47891834
759,7.59,1.087519,-1.5888127,1.7176749,2.7666087,6.7256265,-0.30482176
760,7.6,1.2194319999999998,-1.6256653,1.6303024000000002,3.05860235,6.25495475,-0.2742785
761,7.61,1.351345,-1.6625179,1.5429299,3.350596,5.784283,-0.24373524
762,7.62,1.5548887,-1.5509838,1.4245622,4.5857654,4.519792,-0.3885103
763,7.63,1.6627622,-1.4655638,1.325719,5.039027,4.5857654,-0.5693264
764,7.64,1.7342708666666666,-1.3636292333333333,1.15186888,5.400659433333333,4.659680066666667,-0.7525859666666667
765,7.65,1.8057795333333333,-1.2616946666666666,0.9780187600000001,5.762291866666667,4.733594733333333,-0.9358455333333333
766,7.66,1.8772882,-1.1597601,0.80416864,6.1239243,4.8075094,-1.1191051
767,7.67,1.9917512,-0.9203399,-0.36779428,7.5447965,2.8429668,-2.2547035
768,7.68,2.045688,-0.63918597,-1.9412313,7.369478,1.9193386,-2.7446175
769,7.69,1.6622739,-0.4249037,-2.7136724,6.695694,1.4080443,-3.449556
770,7.7,1.4043054000000001,-0.3648656,-2.98945715,6.695694,1.4080443,-3.449556
771,7.71,1.1463369,-0.3048275,-3.2652419,6.695694,1.4080443,-3.449556
772,7.72,0.7895252,-0.3863426,-3.7240694,0.59437186,2.2602015,-2.5149322
773,7.73,0.76328905,-0.41782599,-3.4891643500000002,0.59437186,2.2602015,-2.5149322
774,7.74,0.7370529,-0.44930938,-3.2542593,0.59437186,2.2602015,-2.5149322
775,7.75,0.54607809,-0.50031734,-2.7944555,0.411112295,2.2537874,-2.044566
776,7.76,0.35510328,-0.5513253,-2.3346517,0.22785273,2.2473733,-1.5741998
777,7.77,0.19256116,-0.60916686,-2.1628354,1.1410962,1.8264871,-1.3982705
778,7.78,-0.46834585,-0.95328766,-2.971885,3.6425896,1.0360274,-1.0341948
779,7.79,-0.46834585,-0.95328766,-2.971885,3.6425896,1.0360274,-1.0341948
780,7.8,-0.924976925,-1.05017833,-3.8583008000000003,3.5903605499999998,-0.4932737999999999,0.08643749999999994
781,7.81,-1.381608,-1.147069,-4.7447166,3.5381315,-2.022575,1.2070698
782,7.82,-1.3630598,-1.1248599,-4.496999,1.069625,-2.0690005,2.7226264
783,7.83,-1.2473766,-1.1121689,-3.9195592,-0.059253927,-2.144748,3.5790594
784,7.84,-0.9824931333333333,-1.1153416,-3.3935345666666668,-0.4247549846666666,-2.4296148,4.0388372666666665
785,7.85,-0.7176096666666667,-1.1185143,-2.8675099333333334,-0.7902560423333332,-2.7144816,4.498615133333333
786,7.86,-0.4527262,-1.121687,-2.3414853,-1.1557571,-2.9993484,4.958393
787,7.87,0.27846932,-1.1421878,-1.7264609,-1.5748106,-4.4758096,5.8771343
788,7.88,0.9288819,-1.180993,-1.3413386,-1.7941113,-4.742758,6.0041943
789,7.89,1.1953924,-1.1670818,-1.1453607,-1.7941113,-4.742758,6.0041943
790,7.9,1.3097332000000002,-1.18099305,-1.044442975,-2.6169466999999997,-5.358510000000001,6.006027
791,7.91,1.424074,-1.1949043,-0.94352525,-3.4397821,-5.974262,6.0078597
792,7.92,2.1662521,-1.3415827,-0.1867038,-3.8460076,-6.084218,5.9168406
793,7.93,2.3020699000000002,-1.3913703499999999,0.06296677999999997,-4.1355578,-6.1193428,5.827348949999999
794,7.94,2.4378877,-1.441158,0.31263736,-4.425108,-6.1544676,5.7378573
795,7.95,2.4541175500000003,-1.4769124,0.48591799999999996,-5.2470272,-5.7045653000000005,5.4205129
796,7.96,2.4703474,-1.5126668,0.65919864,-6.0689464,-5.254663,5.1031685
797,7.97,2.4703474,-1.5126668,0.65919864,-6.3542204,-4.573548199999999,4.8392747499999995
798,7.98,2.4703474,-1.5126668,0.65919864,-6.6394944,-3.8924334,4.575381
799,7.99,2.306341,-1.3933228,1.8472692,-6.436687,-2.9944615,3.8832703
800,8.0,2.2062775,-1.25384405,1.9778399,-6.0472605,-2.93612385,3.3044755500000003
801,8.01,2.106214,-1.1143653,2.1084106,-5.657834,-2.8777862,2.7256808
802,8.02,1.5497636,-0.861278,2.0373898,-4.318817,-3.6413677,1.6902641
803,8.03,1.3625716,-0.7058135,1.9055991,-3.9632938,-3.935194,1.5992452
804,8.04,1.3377591333333334,-0.61282772,1.7137700666666666,-3.952705466666667,-3.884695766666667,1.4446963
805,8.05,1.3129466666666667,-0.51984194,1.5219410333333334,-3.9421171333333334,-3.834197533333333,1.2901474
806,8.06,1.2881342,-0.42685616,1.330112,-3.9315288,-3.7836993,1.1355985
807,8.07,1.1990532,-0.3990336,1.2402989,-4.258342,-3.3518176,0.99387777
808,8.08,0.9772052,-0.26455808,1.206619,-4.258342,-3.3518176,0.99387777
809,8.09,0.9678089999999999,-0.20024898,1.3143703000000002,-4.258342,-3.3518176,0.99387777
810,8.1,0.9584128,-0.13593988,1.4221216,-4.258342,-3.3518176,0.99387777
811,8.11,0.9005712,-0.06613952,1.6432374,-5.8539214,-1.4410311,0.5363397
812,8.12,0.69348866,0.06467516499999999,1.9214627000000002,-5.75465585,-1.4049900499999999,0.38301251999999997
813,8.13,0.48640612,0.19548985,2.199688,-5.6553903,-1.368949,0.22968534
814,8.14,0.48640612,0.19548985,2.199688,-5.6553903,-1.368949,0.22968534
815,8.15,0.38304786,0.433689725,2.4660765,-5.1462343,-2.0830505,-0.071776655
816,8.16,0.2796896,0.6718896,2.732465,-4.6370783,-2.797152,-0.37323865
817,8.17,-0.12422514,1.0238202,3.1744528,-4.606535,-3.1703906,-0.65484756
818,8.18,-0.4368625,1.1443844,3.467077,-5.004208,-3.3903022,-1.0891727
819,8.19,-0.9995364500000001,1.0339485000000002,3.98118365,-5.1746395,-3.2980615,-1.14018
820,8.2,-1.5622104,0.9235126,4.4952903,-5.345071,-3.2058208,-1.1911873
821,8.21,-1.8824136,0.7570656,5.217944,-6.6016207,-2.1826215,-0.59559363
822,8.22,-1.7816179,0.61038715,6.0819063,-6.8642926,-1.4782939,0.5363397
823,8.23,-1.5026605,0.5137405,7.2414227,-5.996253,-1.2699889,0.82650065
824,8.24,-1.3388981,0.44955344333333336,7.490605133333333,-5.422039833333334,-1.2655092,0.8503244
825,8.25,-1.1751357,0.38536638666666667,7.739787566666667,-4.847826666666666,-1.2610295,0.87414815
826,8.26,-1.0113733,0.32117933,7.98897,-4.2736135,-1.2565498,0.8979719
827,8.27,-0.47176263,0.49958518,7.98897,4.4263296,0.6817256,1.0097603
828,8.28,0.34558508,0.43198135,6.089473,5.408601,1.7800614,0.8979719
829,8.29,0.34558508,0.43198135,6.089473,5.846286,2.52928755,0.75228055
830,8.3,0.34558508,0.43198135,6.089473,6.283971,3.2785137,0.6065892
831,8.31,0.54839665,0.064919226,3.3455367,7.0292263,5.554598,-0.2284636
832,8.32,0.54839665,0.064919226,3.3455367,7.0292263,5.554598,-0.2284636
833,8.33,0.54839665,0.064919226,3.3455367,6.588487150000001,5.6517253499999995,-0.29260445
834,8.34,0.54839665,0.064919226,3.3455367,6.147748,5.7488527,-0.3567453
835,8.35,0.5732904750000001,-0.266998637,2.4609512,5.86644435,5.80963385,-0.372322365
836,8.36,0.5981843,-0.5989165,1.5763657,5.5851407,5.870415,-0.38789943
837,8.37,0.8925173,-0.97452056,1.5670916,5.266269,6.020077,-0.35613444
838,8.38,0.97403246,-1.0950848,1.6417731,5.3469033,6.0359597,-0.38362336
839,8.39,1.04310068,-1.27385675,1.6315227,5.45624825,6.0216043500000005,-0.39492437
840,8.4,1.1121689,-1.4526287,1.6212723,5.5655932,6.007249,-0.40622538
841,8.41,1.1121689,-1.4526287,1.6212723,5.7635136,5.935167,-0.4184427
842,8.42,1.1560992,-1.551472,1.4445748,6.392705,5.3016996,-0.49968776
843,8.43,1.1889249,-1.57148465,1.3783133,6.408893,5.2146513,-0.52412238
844,8.44,1.2217506,-1.5914973,1.3120518,6.425081,5.127603,-0.548557
845,8.45,1.22711985,-1.5031485999999998,1.09154605,5.99625335,4.6718975,-0.68844513
846,8.46,1.2324891,-1.4147999,0.8710403,5.5674257,4.216192,-0.82833326
847,8.47,1.2756872,-1.3220581,0.76853627,4.918687,4.1868706,-0.8686504
848,8.48,1.3928347,-1.1848979,0.85175985,4.29255,4.4312167,-0.9443977
849,8.49,1.37831335,-1.1668376999999999,0.8696980249999999,3.81027195,4.9327368499999995,-1.0363329000000001
850,8.5,1.363792,-1.1487775,0.8876362,3.3279939,5.434257,-1.1282681
851,8.51,1.2466444,-1.1131451,0.9061846,3.3279939,5.434257,-1.1282681
852,8.52,0.8049008,-1.078489,0.92082804,3.554014,5.1471505,-0.96883225
853,8.53,0.821740735,-1.0659201,0.8589594949999999,3.7583485000000003,4.86493075,-0.913243525
854,8.54,0.83858067,-1.0533512,0.79709095,3.962683,4.582711,-0.8576548
855,8.55,0.6007469,-0.96780907,0.03636452499999998,4.846299500000001,2.72995675,-0.9987647
856,8.56,0.36291313,-0.88226694,-0.7243619,5.729916,0.8772025,-1.1398746
857,8.57,0.31703037,-0.8180799,-1.1648853,5.6016345,0.28160888,-1.0555751
858,8.58,0.483355385,-0.793674175,-1.38990605,5.14470725,0.21410826500000002,-1.07451195
859,8.59,0.6496804,-0.76926845,-1.6149268,4.68778,0.14660765,-1.0934488
860,8.6,0.51349646,-0.54912883,-2.5860307,2.5900686,0.3933972,-2.212554
861,8.61,0.23527117,-0.6718896,-2.5765123,2.5900686,0.3933972,-2.212554
862,8.62,0.20805879,-0.59110665,-2.5347786,1.299310357,1.35245565,-1.4294247
863,8.63,0.18084641,-0.5103237,-2.4930449,0.008552114,2.3115141,-0.6462954
864,8.64,0.18084641,-0.5103237,-2.4930449,0.008552114,2.3115141,-0.6462954
865,8.65,-0.07138674499999997,-0.437350585,-2.7648026000000003,0.199142072,2.1988095000000003,-0.48838675
866,8.66,-0.3236199,-0.36437747,-3.0365603,0.38973203,2.0861049,-0.3304781
867,8.67,-0.46151224,-0.35461518,-3.2027633,1.2779301,0.51251596,0.37507126
868,8.68,-0.6726217,-0.44564855,-3.6047254,1.4165965,0.18020524,0.5748242
869,8.69,-0.7230195500000001,-0.46614935999999996,-3.6736717,1.4333953,-0.07116581,0.7525859699999999
870,8.7,-0.7734174,-0.48665017,-3.742618,1.4501941,-0.32253686,0.93034774
871,8.71,-0.6799435,-0.55742675,-3.7289507,0.5516113,-1.4636332,2.4367414
872,8.72,-0.3277689,-0.5405868,-3.3391914,0.04520403,-1.6395624,2.9181032
873,8.73,-0.22404456499999997,-0.53180073,-3.1735984999999998,-0.189062795,-1.75257245,3.10014105
874,8.74,-0.12032023,-0.52301466,-3.0080056,-0.42332962,-1.8655825,3.2821789
875,8.75,0.027700489999999994,-0.515448895,-2.7201401,-0.9636399099999999,-2.7317893499999997,3.5839463499999997
876,8.76,0.17572121,-0.50788313,-2.4322746,-1.5039502,-3.5979962,3.8857138
877,8.77,0.7577977,-0.5618198,-1.7494024,-1.7366899,-3.9480221,3.8631117
878,8.78,0.8817788,-0.605262,-1.534388,-2.4318545,-4.837442,3.8099666
879,8.79,1.0313859,-0.6727438,-1.2821547500000001,-2.6343563999999997,-5.044525200000001,3.82371105
880,8.8,1.180993,-0.7402256,-1.0299215,-2.8368583,-5.2516084,3.8374555
881,8.81,1.3991802,-0.83687234,-0.7385172,-3.169169,-5.493511,3.8930442
882,8.82,1.3991802,-0.83687234,-0.7385172,-3.6389244,-5.6541686,3.9687915
883,8.83,1.7960173,-0.95585022,-0.33716507,-4.3579127,-5.5078663,3.83959355
884,8.84,2.1928544,-1.0748281,0.06418706,-5.076901,-5.361564,3.7103956
885,8.85,2.3436817999999997,-1.16586145,0.6557818299999999,-5.589722500000001,-4.732373000000001,3.2720998000000003
886,8.86,2.4945092,-1.2568948,1.2473766,-6.102544,-4.103182,2.833804
887,8.87,2.4029877,-1.2869139,1.5309712,-7.013344,-3.0347786,1.9895881
888,8.88,2.2297071,-1.2932594000000002,1.7823501,-7.013344,-2.7950139,1.788308
889,8.89,2.0564265,-1.2996049,2.033729,-7.013344,-2.5552492,1.5870279
890,8.9,1.8858303,-1.2859375,2.1667402,-6.8673472,-2.2492058,1.3041973
891,8.91,1.518036,-1.2051547,2.2497199,-6.01519,-1.9657644,0.61819565
892,8.92,1.1831895,-1.0750722,2.092547,-4.999321,-2.4569001,0.17348573
893,8.93,1.1831895,-1.0750722,2.092547,-4.999321,-2.4569001,0.17348573
894,8.94,1.1831895,-1.0750722,2.092547,-4.999321,-2.4569001,0.17348573
895,8.95,0.9099674499999999,-0.9357154999999999,1.751721,-4.32248235,-3.1535918499999998,0.044898594999999986
896,8.96,0.6367454,-0.7963588,1.410895,-3.6456437,-3.8502836,-0.08368854
897,8.97,0.5361937999999999,-0.7762240499999999,1.3576905,-3.97031855,-3.24277815,0.17043139999999998
898,8.98,0.4356422,-0.7560893,1.304486,-4.2949934,-2.6352727,0.42455134
899,8.99,0.3572998,-0.7138674,1.3415827,-4.5717154,-2.1655173,0.5748242
900,9.0,0.214526315,-0.6484600666666667,1.4143117666666667,-4.682485600000001,-2.006895966666667,0.6275622333333334
901,9.01,0.07175282999999999,-0.5830527333333334,1.4870408333333334,-4.7932558,-1.8482746333333333,0.6803002666666667
902,9.02,-0.071020655,-0.5176454,1.5597699,-4.904026,-1.6896533,0.7330383
903,9.03,-0.2518671,-0.43808278,1.7777131,-4.9565606,-2.2156084,1.033584
904,9.04,-0.4148973,0.04344219,2.2973108,-4.415945,-3.1569517,1.4746287
905,9.05,-0.287865515,0.228559595,2.38907635,-4.4009788,-3.44986155,1.5488488
906,9.06,-0.16083373,0.413677,2.4808419,-4.3860126,-3.7427714,1.6230689
907,9.07,-0.3014107,0.7575537,2.8664525,-4.788573,-3.535077,1.3292428
908,9.08,-0.71252515,0.74034765,3.37665405,-5.6700515,-3.111442,1.064127285
909,9.09,-1.1236396,0.7231416,3.8868556,-6.55153,-2.687807,0.79901177
910,9.1,-1.3945432,0.6369894,4.607557,-7.63887,-1.7831156,1.3084733
911,9.11,-1.5258459,0.56987363,5.525212,-7.57534,-1.5796975,1.7318029
912,9.12,-1.5258459,0.56987363,5.525212,-7.2812084,-1.638646,1.8008307000000001
913,9.13,-1.5258459,0.56987363,5.525212,-6.9870768,-1.6975945,1.8698585
914,9.14,-0.38683072,0.107385196,7.98897,-6.9870768,-1.6975945,1.8698585
915,9.15,-0.2003709915,0.266998638,7.98897,-3.09586512,-0.736398045,1.67651965
916,9.16,-0.013911263,0.42661208,7.98897,0.79534656,0.22479841,1.4831808
917,9.17,0.353883,0.4761557,7.5128145,3.6419785,2.9590313,1.4184291
918,9.18,0.46505110000000005,0.47334902,7.1014558999999995,4.1911465,3.5732563500000003,1.27976265
919,9.19,0.5762192,0.47054234,6.6900973,4.7403145,4.1874814,1.1410962
920,9.2,0.7053254,0.4419877,5.6726227,5.4379225,4.859433,0.8723156
921,9.21,0.5649925,0.127886,3.018256,6.5875707,5.2167892,0.19792034
922,9.22,0.44674677500000004,0.05601114,2.7053746,6.57443715,5.0836206,0.045814894999999994
923,9.23,0.32850105,-0.01586372,2.3924932,6.5613036,4.950452,-0.10629055
924,9.24,0.22111587,-0.21086545,1.8177384,6.3108487,5.004208,-0.10567969
925,9.25,0.389759415,-0.385732475,1.76465595,5.96815345,5.3972997,0.02015855500000001
926,9.26,0.55840296,-0.5605995,1.7115735,5.6254582,5.7903914,0.1459968
927,9.27,0.55840296,-0.5605995,1.7115735,5.744577,5.9486055,0.13683382
928,9.28,0.83382158,-0.778054475,1.72011545,5.8355958999999995,5.99778025,0.07513642749999999
929,9.29,1.1092402,-0.99550945,1.7286574,5.9266148,6.046955,0.013439035
930,9.3,1.1092402,-0.99550945,1.7286574,5.9266148,6.046955,0.013439035
931,9.31,1.0965492,-1.2659249,1.5853959,6.4348545,6.0322943,-0.49296826
932,9.32,1.03797545,-1.3607412,1.4205352,6.5814622499999995,5.85636515,-0.55802543
933,9.33,0.9794017,-1.4555575,1.2556745,6.72807,5.680436,-0.6230826
934,9.34,1.0094208,-1.4052817,0.83491987,6.260147,4.7079387,-0.61269784
935,9.35,1.0848345,-1.3518331,0.971591935,5.5545975,4.76108385,-0.64873889
936,9.36,1.1602482,-1.2983845,1.108264,4.849048,4.814229,-0.68477994
937,9.37,1.1207108,-1.283497,1.4733735,4.1129556,5.5417695,-0.7110472
938,9.38,1.1207108,-1.283497,1.4733735,4.0540072,5.6468384,-0.6973027
939,9.39,1.1207108,-1.283497,1.4733735,3.9950588,5.7519073,-0.6835582
940,9.4,1.2793481,-1.2134526,1.7513548,4.4843616,5.3200254,-0.81489426
941,9.41,1.3642801,-1.1539028,1.6473864,4.8563786,4.8356094,-0.9242391
942,9.42,1.37538465,-1.0305317999999999,1.20881553,5.4272323,3.6410623500000003,-1.2189816
943,9.43,1.3864892,-0.9071608,0.77024466,5.998086,2.4465153,-1.5137241
944,9.44,1.3864892,-0.9071608,0.77024466,5.998086,2.4465153,-1.5137241
945,9.45,1.4714211499999998,-0.8105141,-0.028432695000000008,5.78764275,2.3029619500000003,-1.60993535
946,9.46,1.5563531,-0.7138674,-0.82711005,5.5771995,2.1594086,-1.7061466
947,9.47,1.4023529,-0.6496804,-1.1067996,3.5503488,3.073874,-2.0286834
948,9.48,1.21931,-0.6160005,-1.1665937,3.31822,3.018896,-2.1875083
949,9.49,0.97610698,-0.6577343,-1.48484435,3.932445,2.00455428,-2.4727824500000004
950,9.5,0.73290396,-0.6994681,-1.803095,4.54667,0.99021256,-2.7580566
951,9.51,0.17742965,-0.9065507,-2.81434615,4.2015312,0.35888333000000006,-2.7149906
952,9.52,-0.37804466,-1.1136333,-3.8255973,3.8563924,-0.2724459,-2.6719246
953,9.53,-0.6208816,-1.1348661,-4.0267005,1.7800614,0.37751472,-1.5796975
954,9.54,-0.64394503,-1.16634955,-4.0235277499999995,1.2321152249999998,0.6438519600000001,-1.19699045
955,9.55,-0.66700846,-1.197833,-4.020355,0.68416905,0.9101892,-0.8142834
956,9.56,-0.61746484,-1.3110756,-3.0946457,-0.2932153,1.0170907,0.33414328
957,9.57,-0.6611510700000001,-1.2699519499999998,-2.8071463999999997,0.4654793,0.35369101000000003,1.16858524
958,9.58,-0.7048373,-1.2288283,-2.5196471,1.2241739,-0.30970868,2.0030272
959,9.59,-0.7048373,-1.2288283,-2.5196471,1.2241739,-0.30970868,2.0030272
960,9.6,-0.51496077,-1.19344,-3.0197203,2.5906794,-1.8759671,2.8655689
961,9.61,-0.33728711,-1.1373068499999999,-3.19324495,2.2412644999999998,-2.61541955,3.4813209499999997
962,9.62,-0.15961345,-1.0811737,-3.3667696,1.8918496,-3.354872,4.097073
963,9.63,-0.15961345,-1.0811737,-3.3667696,0.99204516,-3.4917057,4.456262
964,9.64,0.45785138,-0.9169231,-2.860595,-0.036651913,-3.5375206,4.7580295
965,9.65,0.538146215,-0.90362197,-2.6702304,-1.3591751065,-3.69604015,5.1251595000000005
966,9.66,0.61844105,-0.89032084,-2.4798658,-2.6816983,-3.8545597,5.4922895
967,9.67,1.073973925,-0.895812155,-1.7832043,-3.06959785,-3.90159635,5.56131725
968,9.68,1.5295068,-0.90130347,-1.0865428,-3.4574974,-3.948633,5.630345
969,9.69,1.8475134,-0.9178993,-0.6186851,-3.4574974,-3.948633,5.630345
970,9.7,2.2140872,-0.96817505,0.44882128,-4.560109,-4.0146065,5.4293704
971,9.71,2.2616785,-0.9855032,1.3020455,-5.266269,-4.1123447,4.5051312
972,9.72,2.2430081499999996,-0.9872116,1.44835775,-5.211902,-4.08821555,4.33469985
973,9.73,2.2243378,-0.98892,1.59467,-5.157535,-4.0640864,4.1642685
974,9.74,2.1176848,-0.9437694,1.7794214,-4.5485024,-4.0311,3.5558467
975,9.75,1.98162285,-0.8722605999999999,1.7995561,-4.2907173499999995,-4.0204097,3.39427285
976,9.76,1.8455609,-0.8007518,1.8196908,-4.0329323,-4.0097194,3.232699
977,9.77,1.8455609,-0.8007518,1.8196908,-3.9315286499999997,-3.92572545,3.164893
978,9.78,1.8455609,-0.8007518,1.8196908,-3.830125,-3.8417315,3.097087
979,9.79,1.6722802,-0.62356627,1.4060138,-3.8111882,-3.1618385,2.656042
980,9.8,1.3806318,-0.49860895,0.9901402,-4.211916,-2.9364293,2.3585508
981,9.81,1.3398743,-0.49226347,0.9452337,-4.9302936,-3.023783,2.0830505
982,9.82,1.3398743,-0.49226347,0.9452337,-5.0894238000000005,-3.0812043,1.9960022
983,9.83,1.3398743,-0.49226347,0.9452337,-5.248554,-3.1386256,1.9089539
984,9.84,1.343291,-0.5281399,1.0611609,-5.248554,-3.1386256,1.9089539
985,9.85,1.3171769,-0.497876785,1.2396888000000001,-5.42203985,-3.09128355,1.63009395
986,9.86,1.2910628,-0.46761367,1.4182167,-5.5955257,-3.0439415,1.351234
987,9.87,1.30411985,-0.454678635,1.46837045,-5.5955257,-3.0439415,1.351234
988,9.88,1.3171769,-0.4417436,1.5185242,-5.5955257,-3.0439415,1.351234
989,9.89,1.0294335,-0.2523552,1.5387809,-5.25283,-2.7934868,0.68600166
990,9.9,0.7155758,-0.122272685,1.5021724,-5.537493,-2.3988678,0.41355577
991,9.91,0.5906184999999999,-0.0959145025,1.6637383,-5.716782200000001,-2.3496931500000002,0.32223142
992,9.92,0.4656612,-0.06955632,1.8253042,-5.8960714,-2.3005185,0.23090707
993,9.93,0.3441207,-0.020744866,1.9976085,-6.006638,-2.1789563,-0.08735373
994,9.94,0.035144235000000024,0.099575362,2.40823485,-5.952271,-2.32189885,-0.277638255
995,9.95,-0.27383223,0.21989559,2.8188612,-5.897904,-2.4648414,-0.46792278
996,9.96,-0.74583894,0.30946457,3.1917806,-5.897904,-2.4648414,-0.46792278
997,9.97,-1.19038927,0.38780695,3.5355352499999997,-6.1898975,-3.59249855,-0.21868975899999998
998,9.98,-1.6349396,0.46614933,3.8792899,-6.481891,-4.7201557,0.030543262
999,9.99,-1.6349396,0.46614933,3.8792899,-6.481891,-4.7201557,0.030543262
