id,timestamp,acc_x,acc_y,acc_z,gyro_x,gyro_y,gyro_z
0,0.0,-0.25650415,-0.26626647,1.1282767,1.8216002,0.38545597,-0.8552113
1,0.01,-0.25650415,-0.26626647,1.1282767,1.8216002,0.38545597,-0.8552113
2,0.02,-0.341924205,-0.30897647500000003,1.08983765,1.6740762,0.280998015,-0.878729635
3,0.03,-0.42734426,-0.35168648,1.0513986,1.5265522,0.17654006,-0.90224797
4,0.04,-0.42734426,-0.35168648,1.0513986,1.5265522,0.17654006,-0.90224797
5,0.05,-0.041245673,-0.281398,1.7428128,2.8417451,-0.9211848,-0.99021256
6,0.06,-0.041245673,-0.281398,1.7428128,2.8417451,-0.9211848,-0.99021256
7,0.07,-0.041245673,-0.281398,1.7428128,2.8417451,-0.9211848,-0.99021256
8,0.08,-0.023795580499999996,-0.32337585,1.51461925,3.43306255,-0.7122688699999999,-0.9144652799999999
9,0.09,-0.006345488,-0.3653537,1.2864257,4.02438,-0.50335294,-0.838718
10,0.1,0.029530926,-0.35656762,1.056768,2.8802297,-1.3451253,-0.9963212
11,0.11,0.041611762,-0.295431285,0.9052083799999999,2.56227435,-1.42331605,-1.01922865
12,0.12,0.053692598,-0.23429495,0.75364876,2.244319,-1.5015068,-1.0421361
13,0.13,-0.020012695,-0.18597162,0.9523114,1.4214834,-1.2131784,-0.8741482
14,0.14,-0.0317274425,-0.21147559500000002,1.0452972,1.43125725,-1.1230758,-0.8084801800000001
15,0.15,-0.04344219,-0.23697957,1.138283,1.4410311,-1.0329732,-0.74281216
16,0.16,0.08908089,-0.35315084,0.84761083,1.5589281,-0.39522982,-0.24251351
17,0.17,0.093473925,-0.34839172,0.69458693,1.4688255,-0.439822975,-0.176845492
18,0.18,0.09786696,-0.3436326,0.54156303,1.3787229,-0.48441613,-0.111177474
19,0.19,0.045516678500000005,-0.31263732499999997,0.421486865,1.0622947,-0.525344115,-0.0757472905
20,0.2,-0.006833603,-0.28164205,0.3014107,0.7458665,-0.5662721,-0.040317107
21,0.21,-0.15863721,-0.0873725,0.22697324,0.47708577,-0.6230826,-0.040317107
22,0.22,-0.194269565,-0.052594339500000004,0.24247088,0.445015335,-0.75502948,-0.0387899435
23,0.23,-0.22990192,-0.017816179,0.25796852,0.4129449,-0.88697636,-0.03726278
24,0.24,-0.38561043,0.06369894,0.2889638,0.4392121,-1.3151928,-0.027488936
25,0.25,-0.339727685,0.042954073999999995,0.265656325,0.5161811199999999,-1.81824035,-0.0360410495
26,0.26,-0.29384494,0.022209208,0.24234885,0.59315014,-2.3212879,-0.044593163
27,0.27,-0.37584817,0.05198419,0.31312546,0.7770206,-4.1331143,-0.13255776
28,0.28,-0.476399785,0.09542638,0.40232838000000004,0.794735685,-5.0115385,-0.16371189
29,0.29,-0.5769514,0.13886857,0.4915313,0.81245077,-5.8899627,-0.19486602
30,0.3,-0.52789587,0.1683995,0.4417436,0.81245077,-5.8899627,-0.19486602
31,0.31,-1.010152985,0.5513253,0.8856837,0.40927971115,-6.67584085,-0.41783181
32,0.32,-1.4924101,0.9342511,1.3296238,0.0061086523,-7.461719,-0.6407976
33,0.33,-1.4924101,0.9342511,1.3296238,-0.20616702385000002,-5.3035321,-0.668592
34,0.34,-1.4924101,0.9342511,1.3296238,-0.4184427,-3.1453452,-0.6963864
35,0.35,-0.88788027,0.76170266,1.168302,-0.4184427,-3.1453452,-0.6963864
36,0.36,-0.47798612,0.44699085,1.2267537499999999,-1.2907582499999999,0.8539895999999998,-1.4706581
37,0.37,-0.06809197,0.13227904,1.2852055,-2.1630738,4.8533244,-2.2449298
38,0.38,-0.32581642,0.11495096,1.2163813,-2.2033908,4.364632,-2.7794368
39,0.39,-3.1019676,1.3274274,1.7706354,-1.958434,3.9376373,-2.8179214
40,0.4,-3.1019676,1.3274274,1.7706354,-1.21440012,4.24276445,-1.8863518849999998
41,0.41,-3.1019676,1.3274274,1.7706354,-0.47036624,4.5478916,-0.95478237
42,0.42,-2.011641875,0.94657605,2.621663,1.3494013800000002,2.74247945,-0.40256019
43,0.43,-0.92131615,0.5657247,3.4726906,3.169169,0.9370673,0.14966199
44,0.44,-0.92131615,0.5657247,3.4726906,3.169169,0.9370673,0.14966199
45,0.45,1.3723339,0.353883,3.5505447,8.55639,0.54733527,-0.12889257
46,0.46,1.4553134,0.35656762,3.25853035,9.73719225,1.204626285,-0.8588765349999999
47,0.47,1.5382929,0.35925224,2.966516,10.9179945,1.8619173,-1.5888605
48,0.48,1.5382929,0.35925224,2.966516,10.9179945,1.8619173,-1.5888605
49,0.49,1.133035815,0.40049792,1.88680665,10.499857250000002,1.7119498499999999,-1.9226983500000001
50,0.5,0.72777873,0.4417436,0.8070973,10.08172,1.5619824,-2.2565362
51,0.51,0.478718295,0.17206035000000003,0.51471673,9.826378,0.73761977,-2.02501825
52,0.52,0.22965786,-0.0976229,0.22233616,9.571036,-0.08674286,-1.7935003
53,0.53,0.013179091,-0.30970863,-0.010494461,9.23445,-1.1337659,-1.4306464
54,0.54,-0.0167179215,-0.376946405,-0.10250404549999999,8.620530500000001,-1.84939455,-0.95142262
55,0.55,-0.046614934,-0.44418418,-0.19451363,8.006611,-2.5650232,-0.47219884
56,0.56,0.14643435,-0.694831,-0.69239044,7.352985,-2.6450465,-0.010995574
57,0.57,0.17364673,-0.74876765,-0.73632072,6.169739,-2.1441369999999997,0.5586362630000001
58,0.58,0.20085911,-0.8027043,-0.780251,4.986493,-1.6432275,1.1282681
59,0.59,0.17816179,-0.91155386,-0.78366786,4.986493,-1.6432275,1.1282681
60,0.6,0.18084642499999998,-1.18855883,-0.6948310099999999,2.6914722650000003,-0.53878315,2.33808675
61,0.61,0.18353106,-1.4655638,-0.60599416,0.39645153,0.5656612,3.5479054
62,0.62,0.117635585,-1.9463564,-0.19719826,-1.0415252,0.5009095,5.440366
63,0.63,0.0898130625,-2.0387322,-0.18084642499999998,-0.987158215,0.11850786000000002,6.329174849999999
64,0.64,0.06199054,-2.131108,-0.16449459,-0.93279123,-0.26389378,7.2179837
65,0.65,0.06199054,-2.131108,-0.16449459,-0.93279123,-0.26389378,7.2179837
66,0.66,0.21928543500000003,-2.2836437,-0.14655637999999999,-0.621555385,-0.7696901899999999,8.53989635
67,0.67,0.37658033,-2.4361794,-0.12861817,-0.31031954,-1.2754866,9.861809
68,0.68,0.37658033,-2.4361794,-0.12861817,-0.31031954,-1.2754866,9.861809
69,0.69,0.8664032150000001,-2.4203156999999997,-0.15802707,0.17165313,-1.28678765,10.640967499999999
70,0.7,1.3562261,-2.404452,-0.18743597,0.6536258,-1.2980887,11.420126
71,0.71,2.4759607,-1.0855666,-0.80514485,0.30665436,-1.6945401,9.102503
72,0.72,2.5549132500000002,-0.88043652,-0.866281175,0.03054326500000004,-1.833512,8.636107500000001
73,0.73,2.6338658,-0.67530644,-0.9274175,-0.24556783,-1.9724839,8.169712
74,0.74,2.7864015,-0.3956168,-0.95328766,-0.7147123,-2.0378466,7.6089373
75,0.75,2.9057455,-0.010250399999999993,-0.755113155,-1.0085385,-1.9254473,7.31938715
76,0.76,3.0250895,0.375116,-0.55693865,-1.3023647,-1.813048,7.029837
77,0.77,3.0887885,1.9173138,-0.33631086,-2.239432,-0.03481932,5.2931476
78,0.78,3.0887885,1.9173138,-0.33631086,-2.239432,-0.03481932,5.2931476
79,0.79,3.0887885,1.9173138,-0.33631086,-2.239432,-0.03481932,5.2931476
80,0.8,3.0067854,2.0317764,-0.43466598,-2.6645942,0.15943582,4.7164907
81,0.81,3.0067854,2.0317764,-0.43466598,-2.6645942,0.15943582,4.7164907
82,0.82,3.0067854,2.0317764,-0.43466598,-2.6645942,0.15943582,4.7164907
83,0.83,2.5972571,2.7864015,1.2820327,-4.759862,0.39278635,2.4911084
84,0.84,2.5972571,2.7864015,1.2820327,-4.759862,0.39278635,2.4911084
85,0.85,2.5972571,2.7864015,1.2820327,-4.759862,0.39278635,2.4911084
86,0.86,2.7427154,2.859619,1.4699568,-2.0561724,0.002443461,-0.906524
87,0.87,2.5412461,2.7622400000000003,1.4084544,-1.56931285,0.4187481305,-1.65636115
88,0.88,2.3397768,2.664861,1.346952,-1.0824533,0.8350528,-2.4061983
89,0.89,2.2233615,2.5015867,1.1560992,-0.51251596,1.3084733,-3.3848042
90,0.9,2.2233615,2.5015867,1.1560992,-0.51251596,1.3084733,-3.3848042
91,0.91,2.2233615,2.5015867,1.1560992,-0.51251596,1.3084733,-3.3848042
92,0.92,2.2538686,2.5084205,1.0357789,-1.0195341,1.3310753,-4.420221
93,0.93,2.2538686,2.5084205,1.0357789,-1.0195341,1.3310753,-4.420221
94,0.94,2.2538686,2.5084205,1.0357789,-1.0195341,1.3310753,-4.420221
95,0.95,3.781911,2.200664,1.1739154,-1.5613716,2.417194,-5.6767707
96,0.96,3.5219901,1.81761625,1.2184558,-1.14415063,3.04394165,-6.33406165
97,0.97,3.2620692,1.4345685,1.2629962,-0.72692966,3.6706893,-6.9913526
98,0.98,2.544541,0.7941623,1.1087521,-0.21746802,3.9144244,-7.277238
99,0.99,2.3407531500000003,0.55266765,0.9595111000000001,0.16096299,3.9187004500000002,-7.36336975
100,1.0,2.1369653,0.311173,0.8102701,0.539394,3.9229765,-7.4495015
101,1.01,2.007981,0.14789869649999998,0.57438875,1.8222111,2.92146295,-7.47118725
102,1.02,1.8789967,-0.015375607,0.3385074,3.1050282,1.9199494,-7.492873
103,1.03,1.7152344,-0.45931572,-0.37682438,3.3169982,1.3457361,-7.4922624
104,1.04,1.7152344,-0.45931572,-0.37682438,3.16641995,1.1713341000000002,-7.4925677
105,1.05,1.7152344,-0.45931572,-0.37682438,3.0158417,0.9969321,-7.492873
106,1.06,1.6261535,-0.8019721,-0.58207655,2.0842721,1.632232,-7.3920803
107,1.07,1.5797826000000001,-0.88763622,-0.562307895,1.88390835,1.8869628,-7.33771315
108,1.08,1.5334117,-0.97330034,-0.54253924,1.6835446,2.1416936,-7.283346
109,1.09,1.5334117,-0.97330034,-0.54253924,1.350623,3.1606169,-6.5240407
110,1.1,1.169278275,-1.00637007,-0.354005025,1.9517145,2.84388315,-6.007859699999999
111,1.11,0.80514485,-1.0394398,-0.16547081,2.552806,2.5271494,-5.4916787
112,1.12,0.6958072,-0.9701275,-0.10152781,2.9791899,2.2638667,-5.3951616
113,1.13,0.6843364999999999,-0.9629278649999999,-0.11543907,3.1254920999999998,2.16154675,-5.36217495
114,1.14,0.6728658,-0.95572823,-0.12935033,3.2717943,2.0592268,-5.3291883
115,1.15,0.63162017,-0.921072,-0.18792409,3.2717943,2.0592268,-5.3291883
116,1.16,0.2761507825,-0.8186899999999999,-0.33374829500000003,3.54821085,1.8332066,-5.37103265
117,1.17,-0.079318605,-0.716308,-0.4795725,3.8246274,1.6071864,-5.412877
118,1.18,-0.33118567,-0.64089435,-0.47273886,3.62182,0.41783184,-5.007262
119,1.19,-0.43979116,-0.555596325,-0.39256607,3.3454034999999998,-0.37873648,-4.120896699999999
120,1.2,-0.54839665,-0.4702983,-0.31239328,3.068987,-1.1753048,-3.2345314
121,1.21,-0.3961049,-0.44662476,-0.26529023,2.511267,-0.7806858,-1.7788396
122,1.22,-0.3961049,-0.44662476,-0.26529023,2.4089471500000004,-0.60658919,-1.5305229
123,1.23,-0.3961049,-0.44662476,-0.26529023,2.3066273,-0.43249258,-1.2822062
124,1.24,-0.36437747,-0.31825066,-0.4322254,1.2223413,0.51068336,0.70432764
125,1.25,-0.365597755,-0.33460249,-0.4684679,1.022893815,0.598647955,0.91538157
126,1.26,-0.36681804,-0.35095432,-0.5047104,0.82344633,0.68661255,1.1264355
127,1.27,-0.45162795499999997,-0.41782600999999997,-0.5042223,-0.09468408500000003,0.6698137550000001,1.79380585
128,1.28,-0.53643787,-0.4846977,-0.5037342,-1.0128145,0.65301496,2.4611762
129,1.29,-0.58891016,-0.5930591,-0.42051062,-1.4239268,0.4728097,2.8179214
130,1.3,-0.64809403,-0.7092303499999999,-0.35071026,-1.6829337500000001,0.326812905,3.0708196
131,1.31,-0.7072779,-0.8254016,-0.2809099,-1.9419407,0.18081611,3.3237178
132,1.32,-0.71142685,-1.0357789,0.016839951,-1.9419407,0.18081611,3.3237178
133,1.33,-0.6379656250000001,-1.09081385,0.0660174855,-2.36740835,0.111177475,4.7717738999999995
134,1.34,-0.5645044,-1.1458488,0.11519502,-2.792876,0.04153884,6.21983
135,1.35,-0.082491346,-1.4023529,0.1513155,-2.3726006,0.084910266,8.2246895
136,1.36,0.400009827,-1.53255755,0.072729063,-2.3726006,0.084910266,8.2246895
137,1.37,0.882511,-1.6627622,-0.005857374,-2.3726006,0.084910266,8.2246895
138,1.38,1.2727585,-1.6425053,-0.05759751,-2.1233675,-0.9297369,9.671829
139,1.39,1.5112024499999999,-1.6102897500000002,-0.072362975,-2.0891591,-1.1859948999999999,9.7836175
140,1.4,1.7496464,-1.5780742,-0.08712844,-2.0549507,-1.4422529,9.895406
141,1.41,2.4820623,-1.3369455,0.004881145,-1.8325957,-1.9975294,9.81294
142,1.42,2.8326504999999997,-0.8897106499999999,0.1081173575,-1.4563027,-2.0305161,9.5670665
143,1.43,3.1832387,-0.4424758,0.21135357,-1.0800097,-2.0635028,9.321193
144,1.44,3.7069855,0.6472398,0.08956901,-0.5919284,-1.790446,8.382293
145,1.45,3.8809981,1.0240642,0.0873725,-0.5919284,-1.790446,8.382293
146,1.46,3.8809981,1.0240642,0.0873725,-0.573297,-1.7125607,8.05639635
147,1.47,3.8809981,1.0240642,0.0873725,-0.5546656,-1.6346754,7.7304997
148,1.48,3.53797575,1.4252943,0.070776605,-0.40591992499999996,-1.4450017,6.04451155
149,1.49,3.1949534,1.8265244,0.05418071,-0.25717425,-1.255328,4.3585234
150,1.5,2.7517455,1.777469,-0.031239327,-0.29260445,-1.0763446,3.785532
151,1.51,1.9315911000000001,1.6072389999999999,-0.1094596735,-0.572991625,-0.7455610500000001,3.2427782
152,1.52,1.1114367,1.437009,-0.18768002,-0.8533788,-0.4147775,2.7000244
153,1.53,0.7934301,1.5663594,-0.174745,-1.3035865,-0.38362336,2.9565878
154,1.54,0.8523699499999999,1.63201075,-0.14326161,-1.4144584999999998,-0.43524148,3.0103438999999996
155,1.55,0.9113098,1.6976621,-0.11177822,-1.5253305,-0.4868596,3.0641
156,1.56,0.9113098,1.6976621,-0.11177822,-1.5253305,-0.4868596,3.0641
157,1.57,1.1955144,2.01286205,-0.0536925948,-1.72141825,-0.7611380999999999,2.50302035
158,1.58,1.479719,2.328062,0.0043930304,-1.917506,-1.0354166,1.9419407
159,1.59,1.6869236,2.6707184,0.18841219,-1.8967366,-0.9492846,1.5027285
160,1.6,1.6974181000000002,2.7982384,0.296773615,-1.8967366,-0.9492846,1.5027285
161,1.61,1.7079126,2.9257584,0.40513504,-1.8967366,-0.9492846,1.5027285
162,1.62,1.8611807,3.1088011,0.55840296,-1.8967366,-0.9492846,1.5027285
163,1.63,1.8611807,3.1088011,0.55840296,-1.56198245,-0.63285639,0.28191429999999995
164,1.64,1.8611807,3.1088011,0.55840296,-1.2272283,-0.31642818,-0.9388999
165,1.65,2.2370288,3.0424178,0.4283205,-1.241889,0.037873644,-2.4966063
166,1.66,2.3634504,2.96139075,0.472372815,-1.3891075000000002,0.234572257,-2.97185945
167,1.67,2.489872,2.8803637,0.51642513,-1.536326,0.43127087,-3.4471126
168,1.68,2.6753557,2.4230003,0.72485006,-1.5485435,0.74097955,-4.201531
169,1.69,2.6753557,2.4230003,0.72485006,-1.47371245,0.8506298750000001,-4.3979242
170,1.7,2.6753557,2.4230003,0.72485006,-1.3988814,0.9602802,-4.5943174
171,1.71,2.309758,1.6058967,0.43710655,-0.5558874,2.0891593,-5.707314
172,1.72,2.2694885,1.5168157999999998,0.395006655,-0.44623707,2.1945335,-5.8065795
173,1.73,2.229219,1.4277349,0.35290676,-0.33658674,2.2999077,-5.905845
174,1.74,2.0876658,1.0836142,0.10689708,-0.00061086525,2.4733934,-6.228993
175,1.75,2.03934235,0.9894081,0.034412075,0.048258352374999994,2.4550674,-6.3273423
176,1.76,1.9910189,0.895202,-0.03807293,0.09712757,2.4367414,-6.4256916
177,1.77,1.7145022,0.43613032,-0.23673552,0.16126843,2.1551325,-6.8105364
178,1.78,1.6815544500000001,0.350710275,-0.25259926,0.263282915,2.1899519,-6.9256847
179,1.79,1.6486067,0.26529023,-0.268463,0.3652974,2.2247713,-7.040833
180,1.8,1.6486067,0.26529023,-0.268463,0.3652974,2.2247713,-7.040833
181,1.81,1.6486067,0.26529023,-0.268463,0.3652974,2.2247713,-7.040833
182,1.82,1.3447554,-0.22672918,-0.4183141,0.45998153,2.2015584,-7.0151763
183,1.83,1.2468885,-0.52350277,-0.44003522,0.45570546,2.0647244,-6.968751
184,1.84,1.21162225,-0.55278966,-0.4181921,0.45478918,2.0228802,-6.96478
185,1.85,1.176356,-0.58207655,-0.39634898,0.4538729,1.981036,-6.960809
186,1.86,1.0618931,-0.6157564,-0.32801294,0.5131268,1.9749273,-6.9131618
187,1.87,0.9585348499999999,-0.6212477000000001,-0.25857865,0.645684575,1.9630154499999999,-6.84169055
188,1.88,0.8551766,-0.626739,-0.18914436,0.77824235,1.9511036,-6.7702193
189,1.89,0.4373506,-0.5964759,-0.10884953,1.3854424,1.7421877,-6.517932
190,1.9,0.3491239,-0.5729243749999999,-0.124225135,1.6530014,1.4373659499999998,-6.2546492
191,1.91,0.2608972,-0.54937285,-0.13960074,1.9205604,1.1325442,-5.9913664
192,1.92,0.1607117,-0.4472349,-0.176087305,2.07633105,0.5592471495,-5.3050592000000005
193,1.93,0.0605262,-0.34509695,-0.21257387,2.2321017,-0.014049901,-4.618752
194,1.94,0.03294773,-0.30897647,-0.2630937,2.0451767,-0.28344148,-3.6425896
195,1.95,-0.024893836999999995,-0.298359985,-0.30385127,1.9193384999999998,-0.28221975,-3.3872478
196,1.96,-0.082735404,-0.2877435,-0.34460884,1.7935003,-0.28099802,-3.131906
197,1.97,-0.19402552,-0.28213018,-0.34070393,0.74220127,0.06291912,-1.6291776
198,1.98,-0.195001745,-0.29616347,-0.318006605,0.6010914,0.16249015,-1.4416419999999999
199,1.99,-0.19597797,-0.31019676,-0.29530928,0.45998153,0.26206118,-1.2541064
200,2.0,-0.239786245,-0.354127065,-0.23551524499999998,0.200974665,0.5323690400000001,-0.83016589
201,2.01,-0.28359452,-0.39805737,-0.17572121,-0.0580322,0.8026769,-0.40622538
202,2.02,-0.5256993,-0.43759465,-0.07834238,-0.2883284,1.0354166,0.2779437
203,2.03,-0.6574902149999999,-0.481402925,-0.032703673,-0.36621371999999996,0.8509352800000001,1.0693196
204,2.04,-0.78928113,-0.5252112,0.012935034,-0.44409904,0.66645396,1.8606955
205,2.05,-0.7475473,-0.6113634,0.05759751,-0.44348818,0.4642576,2.3041837
206,2.06,-0.6972716,-0.6552937,0.059305906,-0.4202753,0.23579398,2.892447
207,2.07,-0.63454885,-0.70971845,0.03636452775,-0.4202753,0.23579398,2.892447
208,2.08,-0.5718261,-0.7641432,0.0134231495,-0.4202753,0.23579398,2.892447
209,2.09,-0.496046335,-0.8173477,-0.007809831250000001,-0.45478917500000005,0.102625359,4.27758385
210,2.1,-0.42026657,-0.8705522,-0.029042812,-0.48930305,-0.030543262,5.6627207
211,2.11,-0.42026657,-0.8705522,-0.029042812,-0.48930305,-0.030543262,5.6627207
212,2.12,-0.186337705,-0.9780594,-0.059671996,-0.521373475,-0.047342056,5.98434135
213,2.13,0.04759116,-1.0855666,-0.09030118,-0.5534439,-0.06414085,6.305962
214,2.14,0.23356278,-1.1373067,-0.09200958,-0.74464476,-0.21685717,8.080525
215,2.15,0.8232051,-1.11705,-0.04271002,-0.7495316,-0.51251596,9.15687
216,2.16,0.8232051,-1.11705,-0.04271002,-0.70951997,-0.5904012599999999,9.378919499999999
217,2.17,0.8232051,-1.11705,-0.04271002,-0.66950834,-0.66828656,9.600969
218,2.18,1.219066,-1.065554,-0.044174362,-0.66950834,-0.66828656,9.600969
219,2.19,1.6904625000000002,-0.96134155,-0.064675171,-0.66950834,-0.66828656,9.600969
220,2.2,2.161859,-0.8571291,-0.08517598,-0.66950834,-0.66828656,9.600969
221,2.21,2.8366773,0.12398108,-0.1889003,-0.49541172,-0.85154617,8.505688
222,2.22,2.6903650499999996,0.33716509000000006,-0.067847908,-0.61483586,-0.726929665,7.402159849999999
223,2.23,2.5440528,0.5503491,0.053204484,-0.73426,-0.60231316,6.2986317
224,2.24,2.365403,1.0882512,0.4373506,-0.080634214,-0.44776422,5.8417044
225,2.25,2.4442334,1.3464638,0.21477039,0.48380527,-0.46303585,5.181359
226,2.26,2.39713035,1.3972277,0.123492972,0.503352955,-0.455705465,4.970916
227,2.27,2.3500273,1.4479916,0.032215554,0.52290064,-0.44837508,4.760473
228,2.28,1.7403722,1.6095576,-0.31581008,-0.5198463,-0.47769663,3.6688566
229,2.29,1.51205665,1.66581285,-0.33704306,-1.0030407000000001,-0.33353243,3.6856554499999996
230,2.3,1.2837411,1.7220681,-0.35827604,-1.4862351,-0.18936823,3.7024543
231,2.31,1.26446055,1.9132868,-0.22343441,-1.4862351,-0.18936823,3.7024543
232,2.32,1.24518,2.1045055,-0.08859278,-1.4862351,-0.18936823,3.7024543
233,2.33,1.3750186,2.3056087,0.051496077,-2.485,0.29810223,3.4147367
234,2.34,1.6525116,2.7200181,0.4300289,-2.447737,-0.01038471,2.5247061
235,2.35,1.6849712000000001,2.8188611999999997,0.565846735,-2.31517925,-0.120035025,2.2922718499999997
236,2.36,1.7174308,2.9177043,0.70166457,-2.1826215,-0.22968534,2.0598376
237,2.37,1.7813739,3.3462691,1.1185144,-0.8527679,-0.82711154,0.75686204
238,2.38,1.8438525000000001,3.4582913,0.99123855,-0.29840768000000006,-0.75961092,0.26694811
239,2.39,1.9063311,3.5703135,0.8639627,0.25595254,-0.6921103,-0.22296582
240,2.4,1.9063311,3.5703135,0.8639627,0.5381723,-0.059253927,-1.16492
241,2.41,2.14538515,3.5705575,0.518255585,0.5381723,-0.059253927,-1.16492
242,2.42,2.3844392,3.5708015,0.17254847,0.5381723,-0.059253927,-1.16492
243,2.43,2.5784647,3.4426715,0.18377511,-0.321926,0.72692966,-2.3200662
244,2.44,2.52709065,3.0801245,0.260897205,-0.62583145,1.09558683,-3.1703906
245,2.45,2.4757166,2.7175775,0.3380193,-0.9297369,1.464244,-4.020715
246,2.46,2.1848004,2.1735737,0.45174995,-0.7831292,1.7525724,-4.831944
247,2.47,2.1042615,1.90999195,0.450651705,-0.7831292,1.7525724,-4.831944
248,2.48,2.0237226,1.6464102,0.44955346,-0.7831292,1.7525724,-4.831944
249,2.49,1.99187325,1.5314592,0.43393378000000005,-0.7831292,1.7525724,-4.831944
250,2.5,1.9600239,1.4165082,0.4183141,-0.7831292,1.7525724,-4.831944
251,2.51,1.6630061,0.73339206,0.07834238,0.589485,1.7843374,-6.1862326
252,2.52,1.6587351,0.64431116,0.0163518365,0.8106182000000001,1.70034345,-6.3597181
253,2.53,1.6544641,0.55523026,-0.045638707,1.0317514,1.6163495,-6.5332036
254,2.54,1.6544641,0.55523026,-0.045638707,1.1496484,1.4422529,-6.842302
255,2.55,1.6222485,0.303241141,-0.1468004335,1.1114693,1.3726142000000001,-7.0469415
256,2.56,1.5900329,0.051252022,-0.24796216,1.0732902,1.3029755,-7.251581
257,2.57,1.398204,-0.38707477,-0.25406358,0.9388999,1.310306,-7.6138244
258,2.58,1.398204,-0.38707477,-0.25406358,0.9388999,1.3219124500000001,-7.642840400000001
259,2.59,1.398204,-0.38707477,-0.25406358,0.9388999,1.3335189,-7.6718564
260,2.6,1.1463369,-0.6728658,-0.16864355,1.0616838,1.3475688,-7.647422
261,2.61,0.99270285,-0.716185985,-0.10775127100000001,1.2434162,1.30694625,-7.5383825
262,2.62,0.8390688,-0.75950617,-0.046858992,1.4251486,1.2663237,-7.429343
263,2.63,0.6631035,-0.74242216,0.007321717,1.6255124,1.151481,-7.263188
264,2.64,0.51996394,-0.7164300800000001,0.034045986,1.9370536999999999,0.911105525,-6.91866
265,2.65,0.37682438,-0.690438,0.060770255,2.248595,0.67073005,-6.574132
266,2.66,0.25528386,-0.6384538,-0.024893839,2.6688702,0.21563543,-5.911343
267,2.67,0.23624741,-0.5472984,-0.1430175395,2.6838364500000003,-0.0006108700000000133,-5.5631499
268,2.68,0.21721096,-0.456143,-0.26114124,2.6988027,-0.21685717,-5.2149568
269,2.69,0.21721096,-0.456143,-0.26114124,2.6988027,-0.21685717,-5.2149568
270,2.7,0.12471325700000001,-0.39964375,-0.27493049,2.19300625,-0.460592405,-4.4981064
271,2.71,0.032215554,-0.3431445,-0.28871974,1.6872098,-0.70432764,-3.781256
272,2.72,-0.1969542,-0.21769907,-0.19036464,1.0897835,-0.6792821,-2.723848
273,2.73,-0.19939478,-0.19793043,-0.14960709,1.0897835,-0.6792821,-2.723848
274,2.74,-0.0818812115,-0.221359925,-0.129106285,0.7168503150000001,-0.5769622,-2.0039434
275,2.75,0.035632357,-0.24478942,-0.10860548,0.34391713,-0.4746423,-1.2840388
276,2.76,0.06418706,-0.44491637,-0.10421244,-1.0280862,1.0574077,0.35369098
277,2.77,-0.05027579,-0.419412385,-0.0567433075,-1.1319333,1.19271435,0.47830749
278,2.78,-0.16473864,-0.3939084,-0.009274175,-1.2357804,1.328021,0.602924
279,2.79,-0.276882955,-0.36303515,0.0627227175,-1.30572445,1.4101824,0.8344419
280,2.8,-0.38902727,-0.3321619,0.13471961,-1.3756685,1.4923438,1.0659598
281,2.81,-0.7285109,-0.41050428,0.26919514,-1.2449434,1.146594,2.1270328
282,2.82,-0.75865195,-0.44052331,0.26382588,-1.05404798,0.77213364,2.5842653999999996
283,2.83,-0.788793,-0.47054234,0.25845662,-0.86315256,0.39767328,3.041498
284,2.84,-0.7968469,-0.67579454,0.15863721,-0.24740042,-0.44104472,4.684115
285,2.85,-0.77231915,-0.73949347,0.13179090999999998,-0.1456913585,-0.50213124,5.020090850000001
286,2.86,-0.7477914,-0.8031924,0.10494461,-0.043982297,-0.56321776,5.3560667
287,2.87,-0.31995904,-1.074096,-0.16010156,0.115453534,-0.5852089,8.428719
288,2.88,-0.31995904,-1.074096,-0.16010156,0.115453534,-0.5852089,8.428719
289,2.89,-0.31995904,-1.074096,-0.16010156,0.115453534,-0.5852089,8.428719
290,2.9,0.28749946,-1.2095478,-0.26968327,-0.31520647,-0.41783184,10.000475
291,2.91,1.26311823,-1.1442624499999998,-0.33277206,-0.6258314549999999,-0.51373767,10.5609435
292,2.92,2.238737,-1.0789771,-0.39586085,-0.93645644,-0.6096435,11.121412
293,2.93,2.238737,-1.0789771,-0.39586085,-1.01281457,-0.6169739000000001,11.034975
294,2.94,2.238737,-1.0789771,-0.39586085,-1.0891727,-0.6243043,10.948538
295,2.95,2.7800562,-0.6108753,-0.3333822,-1.4477507,-0.46609017,9.903958
296,2.96,2.7593112,-0.27846932,-0.29701766,-1.6261233,-0.32803464,9.3431835
297,2.97,2.5500321,0.0020744799999999897,-0.25394155500000004,-2.13161425,0.05528331000000003,9.18588575
298,2.98,2.340753,0.28261828,-0.21086545,-2.6371052,0.43860126,9.028588
299,2.99,2.340753,0.28261828,-0.21086545,-2.6371052,0.43860126,9.028588
300,3.0,2.340753,0.28261828,-0.21086545,-2.66123435,0.59376103,8.680395
301,3.01,2.340753,0.28261828,-0.21086545,-2.6853635,0.7489208,8.332202
302,3.02,3.3301609,1.4601945,1.3784354,0.3659083,-0.79168135,4.483751
303,3.03,2.85095455,1.7213358,1.1213210500000002,1.37078165,-1.4187345749999998,3.58913885
304,3.04,2.3717482,1.9824771,0.8642067,2.375655,-2.0457878,2.6945267
305,3.05,1.7503786,2.2707086,0.020988923,2.579684,-1.7263051,2.3102922
306,3.06,1.6647145,2.3267198000000002,-0.15522041350000002,2.3023511,-1.39765965,2.2440134
307,3.07,1.5790504,2.382731,-0.33142975,2.0250182,-1.0690142,2.1777346
308,3.08,1.5387809,2.5977454,-0.665056,2.0250182,-1.0690142,2.1777346
309,3.09,1.5387809,2.5977454,-0.665056,2.0250182,-1.0690142,2.1777346
310,3.1,1.5387809,2.5977454,-0.665056,2.0250182,-1.0690142,2.1777346
311,3.11,1.743545,2.873774,-0.21232979,-1.5528195,0.37934732,0.7110472
312,3.12,1.77356405,2.9169721500000003,0.07516964499999998,-1.51158605,-0.12308933999999999,0.04001169999999998
313,3.13,1.8035831,2.9601703,0.36266908,-1.4703526,-0.625526,-0.6310238
314,3.14,1.84702525,2.93344605,0.50568664,-1.0769554000000001,-0.7232644500000001,-0.9789115500000001
315,3.15,1.8904674,2.9067218,0.6487042,-0.6835582,-0.8210029,-1.3267993
316,3.16,1.9873582,2.8979359,0.6108753,-0.18753563,-0.81183994,-1.6316211
317,3.17,2.1833362000000003,2.82630505,0.369014565,-0.04489859500000001,-0.602924005,-2.11786985
318,3.18,2.3793142,2.7546742,0.12715383,0.09773844,-0.39400807,-2.6041186
319,3.19,2.3793142,2.7546742,0.12715383,-0.15760323,-0.007330383,-3.0763173
320,3.2,2.3453901999999998,2.5056138,0.076878036,-0.42913283,0.5277876085,-3.5240815999999997
321,3.21,2.3114662,2.2565534,0.026602242,-0.70066243,1.0629056,-3.9718459
322,3.22,2.0544739,1.8357986,0.102504045,-0.86376345,1.8203784,-4.592485
323,3.23,1.98906655,1.7506226,0.1183677725,-0.829555005,1.93186135,-4.7207665
324,3.24,1.9236592,1.6654466,0.1342315,-0.79534656,2.0433443,-4.849048
325,3.25,1.7293897,1.0540832,0.14472595,-0.11789699,1.8674151,-5.395773
326,3.26,1.6429934,0.88312112,0.014155324999999996,0.21197023000000004,1.6453655500000002,-5.66638615
327,3.27,1.5565971,0.71215904,-0.1164153,0.54183745,1.423316,-5.9369993
328,3.28,1.4950947,0.5930591,-0.26504618,1.1496484,0.93401295,-6.6242228
329,3.29,1.4950947,0.5930591,-0.26504618,1.1264355,0.928209725,-6.6743139
330,3.3,1.4950947,0.5930591,-0.26504618,1.1032226,0.9224065,-6.724405
331,3.31,1.4950947,0.5930591,-0.26504618,0.947452,0.9407325,-6.86246
332,3.32,1.4887492500000001,0.21586862499999998,-0.34204623,0.658512735,0.9624182,-7.10253015
333,3.33,1.4824038,-0.16132185,-0.41904628,0.36957347,0.9841039,-7.3426003
334,3.34,1.3171769,-0.37169918,-0.24064046,0.27122417,0.93401295,-7.6016073
335,3.35,1.2052767,-0.48042669,-0.1162932855,0.43829583499999997,0.891863255,-7.542047650000001
336,3.36,1.0933765,-0.5891542,0.008053889,0.6053675,0.84971356,-7.482488
337,3.37,1.04602938,-0.6129498,0.0472250795,0.73273287,0.83413648,-7.443393
338,3.38,0.99868226,-0.6367454,0.08639627,0.86009824,0.8185594,-7.404298
339,3.39,0.8539563,-0.6467517,0.17620933,1.1985176,0.75136423,-7.286401
340,3.4,0.63064396,-0.59232694,0.27041543,1.9120082,0.58276546,-6.9192705
341,3.41,0.53582771,-0.54766447,0.22465469,1.9120082,0.58276546,-6.9192705
342,3.42,0.44101146,-0.503002,0.17889395,1.9120082,0.58276546,-6.9192705
343,3.43,0.29994637,-0.42856455,-0.032459613,2.687807,0.33964106,-6.1782913
344,3.44,0.27907947,-0.386342625,-0.0705325465,2.547308,0.409585145,-5.87224765
345,3.45,0.25821257,-0.3441207,-0.10860548,2.406809,0.47952923,-5.566204
346,3.46,0.10348027,-0.15912533,-0.18133454,1.6560557,1.0103711,-4.834388
347,3.47,0.10348027,-0.15912533,-0.18133454,1.6560557,1.0103711,-4.834388
348,3.48,0.10348027,-0.15912533,-0.18133454,1.6560557,1.0103711,-4.834388
349,3.49,-0.30287504,-0.08297946,-0.17303659,-0.8472701,1.7489072,-1.7366899
350,3.5,-0.32691468,-0.130570625,-0.10555476,-0.8472701,1.7489072,-1.7366899
351,3.51,-0.35095432,-0.17816179,-0.03807293,-0.8472701,1.7489072,-1.7366899
352,3.52,-0.47127452,-0.3372871,0.5610876,-0.4990769,0.43371433,-0.6450737
353,3.53,-0.56316206,-0.36535369,0.62246802,-0.22449297499999998,0.228463605,-0.473726
354,3.54,-0.6550496,-0.39342028,0.68384844,0.05009095,0.02321288,-0.3023783
355,3.55,-0.8066092,-0.5605995,0.45687518,1.5015068,-0.34025195,1.097114
356,3.56,-0.8627424,-0.581832465,0.38805104,1.5015068,-0.34025195,1.097114
357,3.57,-0.9188756,-0.60306543,0.3192269,1.5015068,-0.34025195,1.097114
358,3.58,-0.99355704,-0.64431113,0.02391761,1.5015068,-0.34025195,1.097114
359,3.59,-0.87982637,-0.717772365,-0.041855821999999994,1.3625349500000001,0.28710664999999996,3.1603115
360,3.6,-0.7660957,-0.7912336,-0.107629254,1.2235631,0.91446525,5.223509
361,3.61,-0.7660957,-0.7912336,-0.107629254,1.2235631,0.91446525,5.223509
362,3.62,-0.6919022800000001,-0.8346758,-0.135695827,1.2235631,0.91446525,5.223509
363,3.63,-0.61770886,-0.878118,-0.1637624,1.2235631,0.91446525,5.223509
364,3.64,0.36315718,-1.052863,-0.22502078,-0.66523224,1.6071864,8.260119
365,3.65,0.7152097400000001,-1.0395618500000001,-0.20720460000000002,-0.85337872,1.5561791999999999,8.455902
366,3.66,1.0672623,-1.0262607,-0.18938842,-1.0415252,1.505172,8.651685
367,3.67,1.3357253,-0.82003236,-0.04490653,-1.0415252,1.505172,8.651685
368,3.68,1.8087083,-0.652609095,0.032215560000000004,-1.2819007,1.02075585,8.830668
369,3.69,2.2816913,-0.48518583,0.10933765,-1.5222762,0.5363397,9.009651
370,3.7,2.4986582,-0.2711476,0.21013328,-0.99082345,0.4428773,8.229576
371,3.71,2.5566217,-0.01635183000000001,0.26895109,-0.646906305,0.42882739999999997,7.6764378
372,3.72,2.6145852,0.23844394,0.3277689,-0.30298916,0.4147775,7.1232996
373,3.73,2.3788261,0.6677406,0.13447554,0.06047566,0.5290093,6.164852
374,3.74,2.3152492000000002,0.7414459,0.030385125,0.01740966,0.5876523499999999,5.98464675
375,3.75,2.2516723,0.8151512,-0.07370529,-0.02565634,0.6462954,5.8044415
376,3.76,2.00456425,1.07775675,-0.248084175,-0.02565634,0.6462954,5.8044415
377,3.77,1.7574562,1.3403623,-0.42246306,-0.02565634,0.6462954,5.8044415
378,3.78,1.7574562,1.3403623,-0.42246306,-0.02565634,0.6462954,5.8044415
379,3.79,1.7574562,1.3403623,-0.42246306,-0.41202862,0.40317105,5.16700375
380,3.8,1.7574562,1.3403623,-0.42246306,-0.7984009,0.1600467,4.529566
381,3.81,1.5248697,1.8482454,-0.7321718,-1.3213016,-0.24923302,3.6615262
382,3.82,1.40418335,1.9854056999999998,-0.74791345,-1.9300287999999999,-0.26542095,3.1725285999999997
383,3.83,1.283497,2.122566,-0.7636551,-2.538756,-0.28160888,2.683531
384,3.84,1.1883147,2.647289,-0.31507793,-2.538756,-0.28160888,2.683531
385,3.85,1.2343195,2.7336852499999997,-0.23588134500000002,-2.5970936499999997,-0.27947084,2.4807237
386,3.86,1.2803243,2.8200815,-0.15668476,-2.6554313,-0.2773328,2.2779164
387,3.87,1.4977793,3.3221073,-0.005857374,-1.7067575,-0.86620694,1.0299188
388,3.88,1.4959489,3.37043065,-0.0257480405,-1.3625349,-1.03114052,0.5061018534999999
389,3.89,1.4941185,3.418754,-0.045638707,-1.0183123,-1.1960741,-0.017715093
390,3.9,1.5241375,3.4941676,-0.082735404,-0.86498517,-1.1533136,-0.42149702
391,3.91,1.68509325,3.4940455,-0.0588177945,-0.8454374849999999,-0.8515461499999999,-0.9291260600000001
392,3.92,1.846049,3.4939234,-0.034900185,-0.8258898,-0.5497787,-1.4367551
393,3.93,1.9883344,3.4048426,0.017816179,-0.81245077,-0.21502456,-1.8148806
394,3.94,2.1499003,3.1511451,0.0671157395,-0.655152985,0.28741209,-2.49538445
395,3.95,2.3114662,2.8974476,0.1164153,-0.4978552,0.78984874,-3.1758883
396,3.96,2.1857767,2.4010353,0.05832968,-0.4978552,0.78984874,-3.1758883
397,3.97,2.08351665,2.2699765000000003,0.041489731,-0.2510656285,1.03511117,-3.9642099
398,3.98,1.9812566,2.1389177,0.024649782,-0.004276057,1.2803736,-4.7525315
399,3.99,1.5473229,1.602968,-0.11031388,0.312763,0.8533788,-5.2852063
400,4.0,1.5337778,1.52682215,-0.14338362999999998,0.312763,0.75869465,-5.33438085
401,4.01,1.5202327,1.4506763,-0.17645338,0.312763,0.6640105,-5.3835554
402,4.02,1.5463467,0.9269294,-0.2967736,0.24129178,0.5357288,-5.534439
403,4.03,1.53756065,0.85127168,-0.28969594,0.064140855,0.53695055,-5.85636515
404,4.04,1.5287746,0.77561396,-0.28261828,-0.11301007,0.5381723,-6.1782913
405,4.05,1.51754795,0.60355359,-0.236613495,-0.168598805,0.5552765,-6.3013806500000005
406,4.06,1.5063213,0.43149322,-0.19060871,-0.22418754,0.5723807,-6.42447
407,4.07,1.4487238,0.08102701,-0.09274176,-0.1160644,0.4905248,-7.2216487
408,4.08,1.39454305,-0.06406502000000001,-0.052716368,-0.0690277745,0.46486845,-7.26440935
409,4.09,1.3403623,-0.20915705,-0.012690976,-0.021991149,0.4392121,-7.30717
410,4.1,1.2083274,-0.50812715,0.058817793,0.115453534,0.376293,-7.375587
411,4.11,1.2083274,-0.50812715,0.058817793,0.267559,0.34391713,-7.4195695
412,4.12,1.18001675,-0.5465661749999999,0.0671157415,0.5048801350000001,0.39217548,-7.445836549999999
413,4.13,1.1517061,-0.5850052,0.07541369,0.74220127,0.44043383,-7.4721036
414,4.14,0.94620997,-0.6716455,0.14374973,0.9584476,0.47952923,-7.4061303
415,4.15,0.719968885,-0.6588324999999999,0.18316496999999998,1.37475225,0.472504265,-7.15414835
416,4.16,0.4937278,-0.6460195,0.22258021,1.7910569,0.4654793,-6.9021664
417,4.17,0.39915561499999996,-0.634792885,0.209767205,1.95385245,0.41966442,-6.76075105
418,4.18,0.30458343,-0.62356627,0.1969542,2.116648,0.37384954,-6.6193357
419,4.19,-0.065163285,-0.54864067,0.023673553,2.3151793,0.27305678,-6.3566637
420,4.2,-0.2673647125,-0.46151223500000005,-0.06357691350000001,2.2403483,-0.08796459000000001,-5.1572298
421,4.21,-0.46956614,-0.3743838,-0.15082738,2.1655173,-0.44898596,-3.9577959
422,4.22,-0.49690056,-0.3048275,-0.16888762,1.8668042,-0.6462954,-3.1783319
423,4.23,-0.48530783,-0.27907945999999995,-0.17254847499999998,1.6777414,-0.72234815,-2.817616
424,4.24,-0.4737151,-0.25333142,-0.17620933,1.4886786,-0.7984009,-2.4569001
425,4.25,-0.16644704,-0.2633378,-0.107629254,-0.18203785,-0.21685717,-0.37751472
426,4.26,-0.17071804000000002,-0.31410170000000004,-0.047225081499999995,-0.459370675,0.13072516500000003,-0.07574729000000002
427,4.27,-0.17498904,-0.3648656,0.013179091,-0.7367035,0.4783075,0.22602014
428,4.28,-0.26919514,-0.38463423,0.08175918,-0.9242391,0.79229224,0.5119051
429,4.29,-0.37597020000000003,-0.38707480000000005,0.14582420000000001,-0.99845925,0.89980452,0.8356637
430,4.3,-0.48274526,-0.38951537,0.20988922,-1.0726794,1.0073168,1.1594223
431,4.31,-0.48274526,-0.38951537,0.20988922,-0.84299403,0.79534656,2.8130345
432,4.32,-0.48274526,-0.38951537,0.20988922,-0.774882565,0.7379252300000001,3.03844375
433,4.33,-0.48274526,-0.38951537,0.20988922,-0.7067711,0.6805039,3.263853
434,4.34,-0.39366436,-0.609655,0.23722363,-0.5131268,0.52290064,3.8875463
435,4.35,-0.335090605,-0.6295456749999999,0.20622837,-0.34788775,0.46211955000000005,4.46084345
436,4.36,-0.27651685,-0.64943635,0.17523311,-0.1826487,0.40133846,5.0341406
437,4.37,-0.08127106,-0.6980037,0.029042812,-0.08368854,0.50640726,6.162409
438,4.38,-0.033557870000000004,-0.7076439800000001,-0.0159857505,-0.129198,0.48105636,6.367965
439,4.39,0.01415532,-0.71728426,-0.061014313,-0.17470746,0.45570546,6.573521
440,4.4,0.23527117,-0.74339837,-0.12324891,-0.4465425,0.18203785,7.3914695
441,4.41,0.456509085,-0.7255821849999999,-0.09579247,-0.53114733,-0.026267205000000016,7.83343075
442,4.42,0.677747,-0.707766,-0.06833603,-0.61575216,-0.23457226,8.275392
443,4.43,1.21528305,-0.56767715,-0.11080198999999999,-0.61911193,-0.35338555,8.505077
444,4.44,1.7528191,-0.4275883,-0.15326795,-0.6224717,-0.47219884,8.734762
445,4.45,1.9619763,-0.23771177,-0.23893206,-0.6988298,-0.2144137,8.452542
446,4.46,2.3212285,0.4334457,-0.38048524,-1.2217305,0.3408628,7.837401
447,4.47,2.3657689,0.52460105,-0.273100055,-1.4559973,0.38087448,7.429342999999999
448,4.48,2.4103093,0.6157564,-0.16571487,-1.6902641,0.42088616,7.021285
449,4.49,2.4452095,1.010397,0.45394647,-1.5344934,0.26511553,6.36094
450,4.5,2.2997514,1.20674105,0.482379135,-0.821613705,0.04856379499999999,5.6902099
451,4.51,2.1542933,1.4030851,0.5108118,-0.10873401,-0.16798794,5.0194798
452,4.52,1.9641727,1.5358523,0.27358818,1.2907583,-0.4166101,4.2601743
453,4.53,1.89180975,1.56818985,0.1334993173,1.2907583,-0.4166101,4.2601743
454,4.54,1.8194468,1.6005274,-0.0065895454,1.2907583,-0.4166101,4.2601743
455,4.55,1.38575705,1.6231027,-0.4241715227,1.04152527,-0.32223141499999997,3.49811985
456,4.56,0.9520673,1.645678,-0.8417535,0.79229224,-0.22785273,2.7360654
457,4.57,0.9520673,1.645678,-0.8417535,0.79229224,-0.22785273,2.7360654
458,4.58,0.9520673,1.645678,-0.8417535,-0.19089538000000006,0.031154124999999977,2.8050932
459,4.59,0.9520673,1.645678,-0.8417535,-1.174083,0.29016098,2.874121
460,4.6,1.0382195,2.302436,-0.13862452,-2.402533,0.1863139,3.1612277
461,4.61,1.1249819,2.4044518999999998,-0.03624250000000001,-2.39917325,0.12003502,3.0127874500000003
462,4.62,1.2117443,2.5064678,0.06613952,-2.3958135,0.05375614,2.8643472
463,4.63,1.5356082,2.8871973,0.40391475,-1.6982054,-0.16920967,2.1771238
464,4.64,1.5764878,2.9733494499999997,0.43783869,-1.43950395,-0.21380283500000002,1.9117028
465,4.65,1.6173674,3.0595016,0.47176263,-1.1808025,-0.258396,1.6462818
466,4.66,1.8475134,3.5883737,0.09200958,-0.30848694,-0.047036625,0.42149702
467,4.67,1.9517258,3.6071662,0.0695563135,-0.30848694,-0.047036625,0.42149702
468,4.68,2.0559382,3.6259587,0.047103047,-0.30848694,-0.047036625,0.42149702
469,4.69,2.27681005,3.57909955,0.0691902285,-0.5006040700000001,0.44287730249999996,-0.32589659000000004
470,4.7,2.4976819,3.5322404,0.09127741,-0.6927212,0.93279123,-1.0732902
471,4.71,2.204081,2.8547378,0.21184167,-0.3903429,1.3225232,-3.3212743
472,4.72,2.046298,2.70671705,0.22197005,-0.226325578,1.3225232,-3.63189925
473,4.73,1.888515,2.5586963,0.23209843,-0.062308256,1.3225232,-3.9425242
474,4.74,1.6405529,2.348807,0.20256752,0.31398472,1.2260065,-4.3493605
475,4.75,1.5051011,2.0963297499999998,-0.040635525000000006,0.57207529,0.98471475,-4.514905000000001
476,4.76,1.3696493,1.8438525,-0.28383857,0.83016586,0.743423,-4.6804495
477,4.77,1.4040614,1.6854594,-0.4429639,0.6640105,0.13255776,-5.013371
478,4.78,1.4455510999999999,1.5082738,-0.49909707999999997,0.31673361899999997,0.043371433,-5.223814
479,4.79,1.4870408,1.3310882,-0.55523026,-0.030543262,-0.045814894,-5.434257
480,4.8,1.5148634,0.69971216,-0.2936009,-1.0659598,0.40500367,-6.2393775
481,4.81,1.5120567,0.59171683,-0.232464545,-1.10994215,0.47250426,-6.3401704
482,4.82,1.50925,0.4837215,-0.17132819,-1.1539245,0.54000485,-6.4409633
483,4.83,1.5077857,0.024161667,0.13716017,-0.86559606,0.75991637,-6.998072
484,4.84,1.48667475,-0.0698003665,0.19536782000000003,-0.1994475,0.563523185,-7.3154164999999995
485,4.85,1.4655638,-0.1637624,0.25357547,0.46670106,0.36713,-7.632761
486,4.86,1.3096112,-0.5972081,0.31556603,1.3121386,0.009773844,-7.834347
487,4.87,1.2914289,-0.64065028,0.281275985,1.50333935,-0.055894167999999994,-7.8990985
488,4.88,1.2732466,-0.68409246,0.24698594,1.6945401,-0.12156218,-7.96385
489,4.89,1.193928,-0.75194037,0.17352471,2.1887302,-0.20708331,-8.135504
490,4.9,0.7944063250000001,-0.72314161,0.0885927843,2.2473732,-0.215635425,-8.1092365
491,4.91,0.39488465,-0.69434285,0.0036608586,2.3060162,-0.22418754,-8.082969
492,4.92,0.17523311,-0.6157564,-0.029530926,2.4367414,-0.52412236,-7.2002687
493,4.93,0.17523311,-0.6157564,-0.029530926,2.4367414,-0.52412236,-7.2002687
494,4.94,0.17523311,-0.6157564,-0.029530926,2.4367414,-0.52412236,-7.2002687
495,4.95,-0.45052966,-0.43954712,-0.15961345,1.9785925,-0.7825184,-5.6272907
496,4.96,-0.49421592999999997,-0.40708751,-0.16254213,1.9785925,-0.7825184,-5.6272907
497,4.97,-0.5379022,-0.3746279,-0.16547081,1.9785925,-0.7825184,-5.6272907
498,4.98,-0.5706058,-0.31361356,-0.14936304,0.95722586,-0.54733527,-3.3597589
499,4.99,-0.51007963,-0.318250655,-0.11116808,0.43463063300000004,-0.35521814500000004,-2.2992968
500,5.0,-0.44955346,-0.32288775,-0.07297312,-0.087964594,-0.16310102,-1.2388347
501,5.01,-0.35095432,-0.39878955,0.017816179,-0.6407976,0.16371189,-0.19364429
502,5.02,-0.41367705,-0.426001935,0.041489732,-0.7134906,0.23945918,-0.031459564999999995
503,5.03,-0.47639978,-0.45321432,0.065163285,-0.7861836,0.31520647,0.13072516
504,5.04,-0.47639978,-0.45321432,0.065163285,-0.7861836,0.31520647,0.13072516
505,5.05,-0.5447357899999999,-0.4735931,0.1036022975,-1.0351112,0.5177083,0.85551678
506,5.06,-0.6130718,-0.49397188,0.14204131,-1.2840388,0.72021013,1.5803084
507,5.07,-0.6365013,-0.6050179,0.39659303,-0.90224797,0.54244834,3.3151658
508,5.08,-0.6365013,-0.6050179,0.39659303,-0.90224797,0.54244834,3.3151658
509,5.09,-0.6365013,-0.6050179,0.39659303,-0.90224797,0.54244834,3.3151658
510,5.1,-0.5679212,-0.66920495,0.36364532,-0.6579019,0.42943826,3.6193767
511,5.11,-0.47261685,-0.719480755,0.2352712,-0.17348575,0.2238821085,4.3456955
512,5.12,-0.3773125,-0.76975656,0.10689708,0.3109304,0.018325957,5.0720143
513,5.13,-0.3162982,-0.7917217,0.026358182,0.36835176,-0.08307768,5.499009
514,5.14,-0.10799533499999997,-0.8177137999999999,-0.017938209000000004,0.35918876499999997,-0.260534025,6.165157499999999
515,5.15,0.10030753,-0.8437059,-0.0622346,0.35002577,-0.43799037,6.831306
516,5.16,0.31581008,-0.827354,-0.021477038,0.37507126,-0.61391956,7.293731
517,5.17,0.649802415,-0.7884269,-0.0030507154999999987,0.48105638,-0.732732865,7.5933603000000005
518,5.18,0.98379475,-0.7494998,0.015375607,0.5870415,-0.85154617,7.8929896
519,5.19,1.6620299,-0.53765815,-0.15595257,0.77213365,-0.4550946,7.4806557
520,5.2,1.7897938500000001,-0.335944825,-0.30055649500000003,0.6789767250000001,-0.35949419000000005,7.3386295
521,5.21,1.9175578,-0.1342315,-0.44516042,0.5858198,-0.26389378,7.1966033
522,5.22,2.0117638,0.30360723,-0.5112999,-0.7996226,0.39095375,6.476393
523,5.23,2.0447116000000003,0.337897275,-0.43002885,-0.9150761,0.405919955,6.3502495
524,5.24,2.0776594,0.37218732,-0.3487578,-1.0305296,0.42088616,6.224106
525,5.25,2.0266514,0.6208816,0.15961345,-0.7819075,0.2687807,5.4000487
526,5.26,1.9257336999999999,0.80404655,0.226607175,-0.317649925,0.062919115,5.15753535
527,5.27,1.824816,0.9872115,0.2936009,0.14660765,-0.14294247,4.915022
528,5.28,1.7896718,1.0594525,0.214648365,0.340251925,-0.22876903499999998,4.8453832
529,5.29,1.7545276,1.1316935,0.13569583,0.5338962,-0.3145956,4.7757444
530,5.3,1.7403722,1.2756872,-0.09689073,0.50762904,-0.3408628,4.464814
531,5.31,1.3410946,1.704984,-0.3360668,-0.7678576,0.3115413,3.4367278
532,5.32,1.2439597999999998,1.74854825,-0.262239495,-0.8866708999999999,0.33292157,3.3509012499999997
533,5.33,1.146825,1.7921125,-0.18841219,-1.0054842,0.35430184,3.2650747
534,5.34,0.92863786,2.1540492,0.18255483,-0.9957104,0.19547687,2.9547553
535,5.35,0.98647943,2.22128705,0.164860675,-0.9517281,0.16523904,2.92390655
536,5.36,1.044321,2.2885249,0.14716652,-0.9077458,0.13500121,2.8930578
537,5.37,1.1873385,2.4525313,0.055645052,-0.84971356,0.059864793,2.719572
538,5.38,1.32913575,2.7301463999999998,0.11446284600000001,-0.86467975,0.030237829125,2.5885415
539,5.39,1.470933,3.0077615,0.17328064,-0.87964594,0.00061086525,2.457511
540,5.4,1.5548887,3.14968085,0.294333035,-0.855211345,0.03756821262500001,2.05036925
541,5.41,1.6388444,3.2916002,0.41538543,-0.83077675,0.07452556,1.6432275
542,5.42,1.9658812,3.4944115,0.45077375,0.18203785,0.73792523,0.08552113
543,5.43,2.0340952000000003,3.4980724,0.40391475,0.30665436,0.7614435150000001,-0.16798794499999997
544,5.44,2.1023092,3.5017333,0.35705575,0.43127087,0.7849618,-0.42149702
545,5.45,2.284864,3.3577394,0.13838045,0.62125,0.84482664,-1.4263704
546,5.46,2.284864,3.3577394,0.13838045,0.62125,0.84482664,-1.4263704
547,5.47,2.284864,3.3577394,0.13838045,0.62125,0.84482664,-1.4263704
548,5.48,2.2331238,3.0075176,0.05735345,0.6976081,1.0818423,-3.0586023
549,5.49,1.9677115,2.6662035,-0.035266275,0.7040222,1.11116385,-3.43825505
550,5.5,1.7022992,2.3248894,-0.127886,0.7104363,1.1404854,-3.8179078
551,5.51,1.4306636,1.7855228,-0.35485923,0.28588495,1.0671816,-4.229631
552,5.52,1.42517235,1.7088888,-0.36303515500000005,0.16310102850000002,1.09497595,-4.305683650000001
553,5.53,1.4196811,1.6322548,-0.37121108,0.040317107,1.1227703,-4.3817363
554,5.54,1.3779472,1.2224828,-0.20500809,-0.36957347,1.2718215,-4.946176
555,5.55,1.3635478,1.09069185,-0.15985749500000002,-0.363159385,1.27151605,-5.0524664999999995
556,5.56,1.3491484,0.9589009,-0.1147069,-0.3567453,1.2712106,-5.158757
557,5.57,1.3640359,0.87738578,-0.10762924,-0.291993585,1.2339478000000002,-5.3456817999999995
558,5.58,1.3789234,0.79587066,-0.10055158,-0.22724187,1.196685,-5.5326066
559,5.59,1.3789234,0.79587066,-0.10055158,-0.22724187,1.196685,-5.5326066
560,5.6,1.3341389,0.44918735249999997,-0.0577195365,0.10781771499999998,0.942565075,-6.0778038
561,5.61,1.2893544,0.102504045,-0.014887493,0.4428773,0.68844515,-6.623001
562,5.62,1.1412116,-0.3014107,-0.009274175,0.66339964,0.5002986,-6.826419
563,5.63,1.1193685000000002,-0.36315719999999996,-0.0111046045,0.91415982,0.3643811,-7.01823075
564,5.64,1.0975254,-0.4249037,-0.012935034,1.16492,0.2284636,-7.2100425
565,5.65,1.0523748,-0.5232587,-0.012202863,1.3109168,0.18936823,-7.2815137
566,5.66,0.8731147749999999,-0.602943425,-0.0032947733500000003,1.4883731500000001,0.146607662,-7.2708235
567,5.67,0.69385475,-0.68262815,0.0056133163,1.6658295,0.103847094,-7.2601333
568,5.68,0.5474204,-0.66700846,0.016839951,1.7837266,-0.004276057,-7.081761
569,5.69,0.47676582,-0.6501685100000001,0.025381953999999998,1.7837266,-0.004276057,-7.081761
570,5.7,0.40611124,-0.63332856,0.033923957,1.7837266,-0.004276057,-7.081761
571,5.71,0.106164895,-0.54205114,-0.05344854,2.0635028,-0.48808134,-5.7812285
572,5.72,0.106164895,-0.54205114,-0.05344854,2.0018053,-0.5546656,-5.500231
573,5.73,-0.18316495250000003,-0.40464692,-0.12141848000000001,1.4828753,-0.8405505499999999,-4.4981063500000005
574,5.74,-0.4724948,-0.2672427,-0.18938842,0.9639453,-1.1264355,-3.4959817
575,5.75,-0.47444725,-0.20866893,-0.18157859,0.54183745,-1.2718215,-2.7000244
576,5.76,-0.47444725,-0.20866893,-0.18157859,0.311541265,-1.2892310999999999,-2.3249531500000002
577,5.77,-0.47444725,-0.20866893,-0.18157859,0.08124508,-1.3066407,-1.9498819
578,5.78,-0.32984335,-0.24283696500000002,-0.09432812500000001,-0.51679201,-0.90591312,-1.205542575
579,5.79,-0.18523945,-0.277005,-0.00707766,-1.1148291,-0.50518554,-0.46120325
580,5.8,-0.34460884,-0.33533466,0.20354374,-1.4104879,-0.010995574,-0.106901415
581,5.81,-0.34460884,-0.33533466,0.20354374,-1.4957036,0.186924763,0.053145277500000004
582,5.82,-0.34460884,-0.33533466,0.20354374,-1.5809193,0.3848451,0.21319197
583,5.83,-0.763167,-0.49909708,0.52203846,-1.0458013,0.4550946,2.0384574
584,5.84,-0.77097685,-0.52228254,0.529238165,-0.89949907,0.3979787,2.2375993999999997
585,5.85,-0.7787867,-0.545468,0.53643787,-0.75319684,0.3408628,2.4367414
586,5.86,-0.72582626,-0.690682,0.36559775,-0.75319684,0.3408628,2.4367414
587,5.87,-0.72582626,-0.690682,0.36559775,-0.21319197,0.23121249000000002,3.1645874
588,5.88,-0.72582626,-0.690682,0.36559775,0.3268129,0.12156218,3.8924334
589,5.89,-0.48738232,-0.8351639,0.102992155,0.94806284,0.18142697,5.4202075
590,5.9,-0.48738232,-0.8351639,0.102992155,0.94806284,0.18142697,5.4202075
591,5.91,-0.48738232,-0.8351639,0.102992155,0.94806284,0.18142697,5.4202075
592,5.92,-0.15448824,-0.98159826,-0.13789235,1.0152581,-0.0067195175,6.744563
593,5.93,0.030751219999999996,-1.01259353,-0.203177675,0.9285152000000001,-0.21624629875,7.104362650000001
594,5.94,0.21599068,-1.0435888,-0.268463,0.8417723,-0.42577308,7.4641623
595,5.95,0.68702114,-1.0621371,-0.2884757,0.60903263,-0.8155051,8.142834
596,5.96,0.9637820699999999,-1.02052535,-0.26846299,0.557109085,-0.829555,8.3740465
597,5.97,1.240543,-0.9789136,-0.24845028,0.50518554,-0.8436049,8.605259
598,5.98,1.9383026,-0.70190865,-0.29823795,0.49357912,-0.75869465,8.761641
599,5.99,2.13977185,-0.464318915,-0.36254705499999995,0.387594,-0.496938885,8.396038
600,6.0,2.3412411,-0.22672918,-0.42685616,0.28160888,-0.23518312,8.030435
601,6.01,2.4144583,0.041001618,-0.43954712,0.073303826,-0.10445796,7.6736894
602,6.02,2.4664426,0.23942018,-0.44686884,-0.1740966,0.036651913,7.4403386
603,6.03,2.5136676,0.41343299,-0.36449951,-0.38606682999999997,0.1994475065,7.0179253
604,6.04,2.5608926,0.5874458,-0.28213018,-0.59803706,0.3622431,6.595512
605,6.05,2.4710796,1.1700104,0.084931925,-0.46853364,0.22907446,6.1752367
606,6.06,2.3911508,1.44811365,-0.0804168675,-0.304516325,0.03817907500000001,5.74702035
607,6.07,2.311222,1.7262169,-0.24576566,-0.14049901,-0.15271631,5.318804
608,6.08,2.311222,1.7262169,-0.24576566,-0.35002577,-0.037873644,4.913189
609,6.09,1.9498953,1.78430245,-0.24576566,-0.7223481350000001,0.193644278,4.4345762
610,6.1,1.5885686,1.842388,-0.24576566,-1.0946705,0.4251622,3.9559634
611,6.11,1.2073512,1.8804612,-0.045638707,-1.6175711,0.8020661,3.069598
612,6.12,0.933763025,1.9818669500000001,0.1324010465,-1.42850835,0.64507372,2.84113435
613,6.13,0.66017485,2.0832727,0.3104408,-1.2394456,0.48808134,2.6126707
614,6.14,0.7055695,2.4359353,0.050031736,-0.3182608,-0.5326745,2.2235496
615,6.15,0.82186275,2.53697505,-0.034045981999999995,-0.318566225,-0.566272085,2.13436315
616,6.16,0.938156,2.6380148,-0.1181237,-0.31887165,-0.59986967,2.0451767
617,6.17,1.0812956,2.7324649,-0.16034561,-0.490524775,-0.41935899,1.7482962499999999
618,6.18,1.2244352,2.826915,-0.20256752,-0.6621779,-0.23884831,1.4514158
619,6.19,2.097916,3.3484652,0.14130914,-0.7165449,-0.12644911,1.1203269
620,6.2,2.32952635,3.4424274,0.211231545,-0.56810465,-0.229074465,0.42241333000000003
621,6.21,2.5611367,3.5363896,0.28115395,-0.4196644,-0.33169982,-0.27550024
622,6.22,3.120272,3.4192421,0.21281794,-0.75808376,-0.1600467,-1.6572775
623,6.23,3.1915367,3.33296785,0.203909845,-0.8799513800000001,-0.03695735,-1.8286251500000001
624,6.24,3.2628014,3.2466936,0.19500175,-1.001819,0.086132,-1.9999728
625,6.25,2.9404018,2.4151905,0.53131264,-1.3310753,0.5479461,-2.5375342
626,6.26,2.9404018,2.4151905,0.53131264,-1.5430456,1.0665708,-3.128852
627,6.27,2.6624205,2.1478258500000003,0.59488955,-1.25532807,1.428203,-3.7391062500000003
628,6.28,2.3844392,1.8804612,0.65846646,-0.96761054,1.7898352,-4.3493605
629,6.29,1.9959,1.4077222,0.3243521,-0.10751228,1.5589281,-4.7635274
630,6.3,1.9807685,1.3507348000000001,0.23490510999999997,-0.10354165700000001,1.54884885,-4.8261409
631,6.31,1.965637,1.2937474,0.14545812,-0.099571034,1.5387696,-4.8887544
632,6.32,1.9762534999999999,1.1817251500000001,0.0667496575,-0.268475267,1.65055795,-5.0558262
633,6.33,1.98687,1.0697029,-0.011958805,-0.4373795,1.7623463,-5.222898
634,6.34,1.9788162,0.8676235,0.0156196635,-0.5448918,1.9663752,-5.4470854
635,6.35,1.6991266,0.3482697,0.23405088,-0.18448131,2.4825563,-6.328564
636,6.36,1.65324385,0.26126329000000004,0.25003664,0.015271625000000011,2.4584271500000003,-6.4409632000000006
637,6.37,1.6073611,0.17425688,0.2660224,0.21502456,2.434298,-6.5533624
638,6.38,1.4963149,-0.1261776,0.18816814,1.1301007,2.0329595,-6.9327097
639,6.39,1.47862085,-0.191706965,0.149363038,1.1301007,2.0329595,-6.9327097
640,6.4,1.4609268,-0.25723633,0.110557936,1.1301007,2.0329595,-6.9327097
641,6.41,1.43115175,-0.32496223,0.0608922845,1.5375478,1.67713055,-7.134600649999999
642,6.42,1.4013767,-0.39268813,0.011226633,1.9449949,1.3213016,-7.3364916
643,6.43,1.1883147,-0.77683425,-0.17742962,2.1502457,0.89980453,-7.674911
644,6.44,1.06653015,-0.8312589749999999,-0.17303658500000002,2.16734995,0.885143765,-7.712479
645,6.45,0.9447456,-0.8856837,-0.16864355,2.1844542,0.870483,-7.750047
646,6.46,0.45199403,-0.88324314,-0.14252943,2.4538457,0.5112942,-7.4030757
647,6.47,0.36352327500000003,-0.86262029,-0.14277349,2.490803,0.3943135,-7.245167
648,6.48,0.27505252,-0.84199744,-0.14301755,2.5277603,0.2773328,-7.0872583
649,6.49,0.08590815,-0.78610843,-0.17059602,2.5393667,0.0842994,-6.7781606
650,6.5,-0.09628058500000002,-0.736564785,-0.23966421999999998,2.3176226499999997,-0.17806721500000003,-5.9690698
651,6.51,-0.27846932,-0.68702114,-0.30873242,2.0958786,-0.44043383,-5.159979
652,6.52,-0.27846932,-0.68702114,-0.30873242,1.3439035,-0.6065892,-3.7274997
653,6.53,-0.348025635,-0.621857855,-0.30519359,1.3439035,-0.6065892,-3.7274997
654,6.54,-0.41758195,-0.55669457,-0.30165476,1.3439035,-0.6065892,-3.7274997
655,6.55,-0.3014107,-0.3973252,-0.15790504,-0.25045475,0.064751714,-1.146594
656,6.56,-0.27993366,-0.40928398499999996,-0.128984255,-0.42577307500000006,0.232128797,-0.8710938149999999
657,6.57,-0.25845662,-0.42124277,-0.10006347,-0.6010914,0.39950588,-0.59559363
658,6.58,-0.2762728,-0.4554108,0.010494461,-1.0500773,0.9737192,0.20830505
659,6.59,-0.34155811,-0.464929025,0.0611363405,-1.1655308500000001,1.11971595,0.640797625
660,6.6,-0.40684342,-0.47444725,0.11177822,-1.2809844,1.2657127,1.0732902
661,6.61,-0.40684342,-0.47444725,0.11177822,-1.3035865,1.260215,1.4172074
662,6.62,-0.45345836000000006,-0.525821325,0.18487336999999998,-1.118188865,1.0656544350000001,2.0295997
663,6.63,-0.5000733,-0.5771954,0.25796852,-0.93279123,0.87109387,2.641992
664,6.64,-0.5132524,-0.6023333,0.25528386,-0.75991637,0.6994407,2.9266553
665,6.65,-0.5244790500000001,-0.641626535,0.201347225,-0.534812525,0.48380527500000003,3.3331861500000004
666,6.66,-0.5357057,-0.68091977,0.14741059,-0.30970868,0.26816985,3.739717
667,6.67,-0.45223808,-0.7426662,0.044418417,0.1160644,-0.20463985,4.923574
668,6.68,-0.45223808,-0.7426662,0.044418417,0.1441642,-0.302378295,5.1315735
669,6.69,-0.45223808,-0.7426662,0.044418417,0.172264,-0.40011674,5.339573
670,6.7,-0.01586372,-0.8820229,-0.22794947,-0.044593163,-0.8680395,6.522819
671,6.71,0.07602383,-0.8877582150000001,-0.237589735,-0.1301142965,-0.90133167,6.726848
672,6.72,0.16791138,-0.89349353,-0.24723,-0.21563543,-0.93462384,6.930877
673,6.73,0.3321619,-0.8844635,-0.23868799,-0.35246924,-0.9773844,7.251581
674,6.74,0.7939182,-0.78452203,-0.19256117,-0.530841905,-0.9697486,7.8496185
675,6.75,1.2556745,-0.68458056,-0.14643435,-0.70921457,-0.9621128,8.447656
676,6.76,2.1101189,-0.29555333,-0.21306199,-0.86498517,-0.7165449,8.279057
677,6.77,2.22128705,-0.026236154999999983,-0.24747404499999998,-0.956920435,-0.59986965,8.0350163
678,6.78,2.3324552,0.24308102,-0.2818861,-1.0488557,-0.4831944,7.7909756
679,6.79,2.2353203,0.48201308,-0.18109047,-1.5784758,-0.05009095,6.935764
680,6.8,2.204203,0.51910977,-0.10738518650000001,-1.8390098000000001,0.10262536500000002,6.6184195
681,6.81,2.1730857,0.55620646,-0.033679903,-2.0995438,0.25534168,6.301075
682,6.82,2.1032853,0.91057765,0.5945235,-1.391551,-0.3323107,5.5533757
683,6.83,2.1469716,0.988431875,0.62625093,-1.391551,-0.3323107,5.5533757
684,6.84,2.1906579,1.0662861,0.65797836,-1.391551,-0.3323107,5.5533757
685,6.85,2.122566,1.5587937,0.16132185,-1.391551,-0.3323107,5.5533757
686,6.86,2.05325365,1.6427493499999999,0.0710206645,-0.713796025,-0.49999321500000005,4.424496850000001
687,6.87,1.9839413,1.726705,-0.019280521,-0.03604105,-0.66767573,3.295618
688,6.88,1.8218873,1.850198,-0.09200958,-0.03604105,-0.66767573,3.295618
689,6.89,1.70327545,1.91292075,-0.09030118,-0.424856775,-0.42913284,3.0033190000000003
690,6.9,1.5846636,1.9756435,-0.08859278,-0.8136725,-0.19058995,2.71102
691,6.91,1.185142,2.4486263,0.2894519,-2.0415115,0.12705997,2.0964894
692,6.92,1.16586145,2.51598615,0.36584182,-2.02471275,0.182648705,2.00272165
693,6.93,1.1465809,2.583346,0.44223174,-2.007914,0.23823744,1.9089539
694,6.94,1.1324255,2.762972,0.6347929,-1.7696766,0.23762658,1.7519615
695,6.95,1.26397245,2.9936061499999997,0.73900535,-1.0946704999999999,0.029932390000000003,1.35978602
696,6.96,1.3955194,3.2242403,0.8432178,-0.4196644,-0.1777618,0.96761054
697,6.97,1.5143752,3.5837364,0.6123396,0.4813618,-0.45204028,-0.23823744
698,6.98,1.5917412999999998,3.61046065,0.48494172999999996,0.485027,-0.46150869,-0.408057985
699,6.99,1.6691074,3.6371849,0.35754386,0.4886922,-0.4709771,-0.57787853
700,7.0,1.6691074,3.6371849,0.35754386,0.37201694,-0.43493605,-0.79045963
701,7.01,1.8648413000000001,3.4931912499999997,0.32996539999999996,-0.09590585499999998,-0.126143675,-1.247386815
702,7.02,2.0605752,3.3491976,0.30238694,-0.56382865,0.1826487,-1.704314
703,7.03,2.1784549,3.1395526,0.38097337,-0.7141015,0.43127087,-2.0641136
704,7.04,2.16283525,2.87230995,0.45638706,-0.6844745299999999,0.781907535,-2.6780332
705,7.05,2.1472156,2.6050673,0.53180075,-0.65484756,1.1325442,-3.2919528
706,7.06,2.1472156,2.6050673,0.53180075,0.014049901,1.4361442,-4.333478
707,7.07,1.8090743,2.20261675,0.447723035,0.1172861305,1.4114042,-4.38234735
708,7.08,1.470933,1.8001662,0.36364532,0.22052236,1.3866642,-4.4312167
709,7.09,1.4977793,1.3447554,0.09469421,0.42638394,1.3316863,-4.889365
710,7.1,1.5036367,1.2662909999999998,0.07175283,0.42363505,1.3677273,-5.0225338
711,7.11,1.5094941,1.1878266,0.04881145,0.42088616,1.4037683,-5.1557026
712,7.12,1.4157761,0.8991069,0.053692598,0.45020768,1.4575244,-5.6236253
713,7.13,1.3923466,0.8402891,0.0635769165,0.48166724,1.44378,-5.72563985
714,7.14,1.3689171,0.7814713,0.073461235,0.5131268,1.4300356,-5.8276544
715,7.15,1.3800217,0.54497982,0.08078294999999999,0.68569625,1.3796392000000002,-6.0466497
716,7.16,1.3911263,0.30848834,0.088104665,0.8582657,1.3292428,-6.265645
717,7.17,1.3918585,-0.1461903,0.032459613,1.2113458,1.187522,-6.753726
718,7.18,1.3918585,-0.1461903,0.032459613,1.2113458,1.187522,-6.753726
719,7.19,1.3918585,-0.1461903,0.032459613,1.2113458,1.187522,-6.753726
720,7.2,1.2473766,-0.5191097,0.028798755,1.4312572,1.065349,-7.1544538
721,7.21,1.2473766,-0.5191097,0.028798755,1.5482379499999999,1.01434175,-7.2130969
722,7.22,1.2473766,-0.5191097,0.028798755,1.6652187,0.9633345,-7.27174
723,7.23,0.9401085,-0.71215904,0.12154051,1.8576412,0.870483,-7.2766266
724,7.24,0.761092525,-0.72155527,0.1347196,2.05067465,0.775188,-7.17949915
725,7.25,0.58207655,-0.7309515,0.14789869,2.2437081,0.679893,-7.0823717
726,7.26,0.11519502,-0.7309515,0.04637088,2.747061,0.267559,-6.2534275
727,7.27,0.040391474999999996,-0.7266804499999999,-0.00012202699999999678,2.747061,0.267559,-6.2534275
728,7.28,-0.03441207,-0.7224094,-0.046614934,2.747061,0.267559,-6.2534275
729,7.29,-0.14887492,-0.6792113,-0.1381364,2.64749,-0.1282817,-5.347514
730,7.3,-0.22807148500000002,-0.51764541,-0.30848837500000004,2.50760185,-0.26145033,-5.0860638
731,7.31,-0.30726805,-0.35607952,-0.47884035,2.3677137,-0.39461896,-4.8246136
732,7.32,-0.32166746,-0.27187976,-0.5315567,-0.14966199,-0.9560041,-3.0903673
733,7.33,-0.306047795,-0.25687025500000005,-0.503124015,-0.44837509499999995,-0.9538660750000001,-2.8994718500000003
734,7.34,-0.29042813,-0.24186075,-0.47469133,-0.7470882,-0.95172805,-2.7085764
735,7.35,-0.31703037,-0.35022214,-0.27602875,-2.0622811,-0.4831944,-1.6242907
736,7.36,-0.40781966000000003,-0.373895705,-0.1223947115,-2.3805419,-0.180510675,-1.13712567
737,7.37,-0.49860895,-0.39756927,0.031239327,-2.6988027,0.12217305,-0.64996064
738,7.38,-0.677747,-0.42197496,0.30067852,-2.8368583,0.37323865,-0.03848451
739,7.39,-0.677747,-0.42197496,0.30067852,-2.7229319,0.5140431050000001,0.609338095
740,7.4,-0.677747,-0.42197496,0.30067852,-2.6090055,0.65484756,1.2571607
741,7.41,-0.6850687,-0.5645044,0.6118515,-1.8216002,0.6462954,2.26631
742,7.42,-0.6655441,-0.573168435,0.6072143999999999,-1.16889065,0.47006079999999995,2.7666085999999996
743,7.43,-0.6460195,-0.58183247,0.6025773,-0.5161811,0.2938262,3.2669072
744,7.44,-0.6460195,-0.58183247,0.6025773,0.47647488,-0.13744467,4.0500364
745,7.45,-0.49799879999999996,-0.650778635,0.27798118299999997,0.66431594,-0.266337245,4.2274927
746,7.46,-0.3499781,-0.7197248,-0.046614934,0.852157,-0.39522982,4.404949
747,7.47,-0.20134723,-0.73607665,-0.1871919,1.0415252,-0.97433007,5.693875
748,7.48,-0.15692881,-0.733514075,-0.20561823,0.988685375,-0.997542935,5.842926
749,7.49,-0.11251039,-0.7309515,-0.22404456,0.93584555,-1.0207558,5.991977
750,7.5,0.3951287,-0.67506236,-0.32557237,0.50579643,-1.0122037,6.853297
751,7.51,0.3951287,-0.67506236,-0.32557237,0.21746802,-0.9450085,7.271129
752,7.52,0.68445857,-0.58964233,-0.302508965,-0.03756821499999999,-0.82802785,7.56281725
753,7.53,0.97378844,-0.5042223,-0.27944556,-0.29260445,-0.7110472,7.8545055
754,7.54,1.27886,-0.37926495,-0.25381953,-0.52595496,-0.50640726,7.938194
755,7.55,1.54585865,-0.22709526,-0.242592895,-0.74708818,-0.343917115,7.4491962
756,7.56,1.8128573,-0.07492557,-0.23136626,-0.9682214,-0.18142697,6.9601984
757,7.57,1.8192028,0.5532778,0.13032657,-0.91813046,-0.49541172,5.9400535
758,7.58,1.79040395,0.61868513,0.170107895,-0.829555005,-0.53969946,5.8197132499999995
759,7.59,1.7616051,0.68409246,0.20988922,-0.74097955,-0.5839872,5.699373
760,7.6,1.7616051,0.68409246,0.20988922,-0.74097955,-0.5839872,5.699373
761,7.61,1.7616051,0.68409246,0.20988922,-0.74097955,-0.5839872,5.699373
762,7.62,1.6913167,0.8993509,0.2294138,-0.2938262,-0.7495316,5.126381
763,7.63,1.6803341,1.19026715,0.27248991499999997,-0.1264491135,-0.780380325,4.6758678499999995
764,7.64,1.6693515,1.4811834,0.31556603,0.040927973,-0.81122905,4.2253547
765,7.65,1.2903306,1.9424516,0.16351835,-0.17592919,-0.634689,3.236975
766,7.66,1.26482665,1.9989509,0.148630865,-0.252898215,-0.6185010799999999,3.1740558500000002
767,7.67,1.2393227,2.0554502,0.13374338,-0.32986724,-0.60231316,3.1111367
768,7.68,1.1438963,2.177723,0.093473926,-0.5644395,-0.55771995,2.914438
769,7.69,0.919119575,2.43959635,0.151193463,-0.88575465,-0.407752545,2.7791314
770,7.7,0.69434285,2.7014697,0.208913,-1.2070698,-0.25778514,2.6438248
771,7.71,0.77170897,3.1556602,0.38463423,-1.241889,-0.10262536,2.5509732
772,7.72,0.865060885,3.2730517499999996,0.397813305,-1.19821215,-0.130114295,2.447737
773,7.73,0.9584128,3.3904433,0.41099238,-1.1545353,-0.15760323,2.3445008
774,7.74,1.10802,3.5600631,0.41123646,-1.0824533,-0.24007004,2.0879374
775,7.75,1.23907875,3.7394450499999996,0.431493205,-1.07970435,-0.317955355,1.464549415
776,7.76,1.3701375,3.918827,0.45174995,-1.0769554,-0.39584067,0.84116143
777,7.77,1.3701375,3.918827,0.45174995,-1.1203269,0.57971114,-0.7141015
778,7.78,1.6846052,3.7520138999999997,0.615878475,-1.0317514,0.72143185,-0.9883799999999999
779,7.79,1.9990729,3.5852008,0.780007,-0.9431759,0.86315256,-1.2626585
780,7.8,1.978084,3.3450487,0.8712844,-0.5571091,1.1759156,-2.0140228
781,7.81,1.7202375,2.94503885,0.7808611999999999,0.2049453,1.3744467999999999,-2.79806825
782,7.82,1.462391,2.545029,0.690438,0.9669997,1.572978,-3.5821137
783,7.83,1.1748916,2.097916,0.25430766,1.5919148,1.391551,-4.0463715
784,7.84,1.14487255,2.00785895,0.138136406,1.5964963,1.28617675,-4.11967525
785,7.85,1.1148535,1.9178019,0.021965152,1.6010778,1.1808025,-4.192979
786,7.86,1.0944747499999998,1.72597285,-0.117757614,1.25807697,1.0684033,-4.37990385
787,7.87,1.074096,1.5341438,-0.25748038,0.91507614,0.9560041,-4.5668287
788,7.88,1.0592085,1.398448,-0.2511349,0.62980205,1.0396926,-4.6981645
789,7.89,1.014668,1.1761118799999999,-0.171328185,0.39553524,1.2186761499999998,-4.8722610500000005
790,7.9,0.9701275,0.95377576,-0.09152147,0.16126843,1.3976597,-5.0463576
791,7.91,0.9835507,0.7919658,-0.020256752,0.16126843,1.3976597,-5.0463576
792,7.92,0.9972179000000001,0.7182605,0.006101430500000001,0.16126843,1.3976597,-5.0463576
793,7.93,1.0108851,0.6445552,0.032459613,0.16126843,1.3976597,-5.0463576
794,7.94,1.1192465,0.041001618,0.047347106,1.1203269,0.86926126,-5.979149
795,7.95,1.1153416,-0.013789231000000006,0.0361204725,1.2110404,0.7889324799999999,-6.08605035
796,7.96,1.1114367,-0.06858008,0.024893839,1.3017539,0.7086037,-6.1929517
797,7.97,0.9371798,-0.34582913,-0.017816179,1.5949692,0.5320636,-6.5845165
798,7.98,0.89166313,-0.37658033,-0.019158493999999998,1.6261233499999999,0.5393939999999999,-6.61231085
799,7.99,0.84614646,-0.40733153,-0.020500809,1.6572775,0.5467244,-6.6401052
800,8.0,0.70288485,-0.46248847,0.0,1.736079,0.5326745,-6.649268
801,8.01,0.46944410000000003,-0.45211603499999997,0.042221905,1.9031506999999999,0.320704255,-6.429051
802,8.02,0.23600335,-0.4417436,0.08444381,2.0702224,0.10873401,-6.208834
803,8.03,0.02318544,-0.40391475,0.043930303,2.176513,-0.059864793,-5.891795
804,8.04,-0.020134720000000002,-0.39268811000000003,0.018304293,2.20155835,-0.19639317650000002,-5.5955255
805,8.05,-0.06345488,-0.38146147,-0.007321717,2.2266037,-0.33292156,-5.299256
806,8.06,-0.28994003,-0.20915705,-0.13252309,1.9590448,-0.6078109,-4.3627996
807,8.07,-0.302020865,-0.17511107,-0.16132184500000002,1.6890424,-0.70188415,-3.8059959
808,8.08,-0.3141017,-0.14106509,-0.1901206,1.41904,-0.7959574,-3.2491922
809,8.09,-0.18060236,-0.12422514,-0.29945824,-0.1001819,-0.571159,-1.5632042
810,8.1,-0.18060236,-0.12422514,-0.29945824,-0.1001819,-0.571159,-1.5632042
811,8.11,-0.18060236,-0.12422514,-0.29945824,-0.1001819,-0.571159,-1.5632042
812,8.12,-0.15009521,-0.25748038,-0.21843125,-0.1001819,-0.571159,-1.5632042
813,8.13,-0.246985935,-0.32191148999999997,-0.1333772915,-1.06931965,0.17226399999999997,-0.7037167799999999
814,8.14,-0.34387666,-0.3863426,-0.048323333,-2.0384574,0.915687,0.15577064
815,8.15,-0.6218578,-0.53253293,0.27944556,-2.4147503,1.1282681,1.5375478
816,8.16,-0.64662962,-0.552667645,0.33936161,-2.32098245,1.0268645,1.78036675
817,8.17,-0.67140144,-0.57280236,0.39927766,-2.2272146,0.9254609,2.0231857
818,8.18,-0.6887296,-0.6157564,0.53058046,-1.4037683,0.25595254,2.9944615
819,8.19,-0.639918125,-0.6310100000000001,0.48567393000000003,-0.9523389,-0.023518309999999987,3.42542695
820,8.2,-0.59110665,-0.6462636,0.4407674,-0.5009095,-0.30298916,3.8563924
821,8.21,-0.5142286,-0.6640798,0.34241232,-0.077579886,-0.51068336,4.3261476
822,8.22,-0.4203886,-0.6765266999999999,0.17242644625,0.20494529700000003,-0.634078145,4.9721378
823,8.23,-0.3265486,-0.6889736,0.0024405725,0.48747048,-0.75747293,5.618128
824,8.24,-0.30970863,-0.6994681,-0.078830495,0.47403142,-0.83260936,6.1679063
825,8.25,-0.288719715,-0.713379365,-0.1164153075,0.40744711,-0.90744033,6.4858618
826,8.26,-0.2677308,-0.72729063,-0.15400012,0.3408628,-0.9822713,6.8038173
827,8.27,0.383658,-0.916679,-0.067847915,-0.40194935,-1.0555751,8.765916
828,8.28,0.383658,-0.916679,-0.067847915,-0.555887375,-0.78923787,9.250027
829,8.29,0.383658,-0.916679,-0.067847915,-0.7098254,-0.52290064,9.734138
830,8.3,2.02836,-0.77634615,0.14741059,-0.6102544,0.38789943,9.858143
831,8.31,2.2276326,-0.674086125,0.093351905,-0.59437188,0.45173486500000004,9.515753499999999
832,8.32,2.4269052,-0.5718261,0.03929322,-0.57848936,0.5155703,9.173364
833,8.33,2.4269052,-0.5718261,0.03929322,-0.6401868,0.45448375,8.141001
834,8.34,2.4681509000000004,-0.08505393500000002,0.14228538,-0.5900958249999999,0.05619961000000001,6.69599925
835,8.35,2.5093966,0.40171823,0.24527754,-0.54000485,-0.34208453,5.2509975
836,8.36,1.964905,0.6877533,0.532777,0.16676621,-0.9370673,4.284609
837,8.37,1.75330735,0.839678935,0.46126820999999996,0.47067167499999996,-0.956615,4.3337835
838,8.38,1.5417097,0.99160457,0.38975942,0.77457714,-0.9761627,4.382958
839,8.39,1.56513915,1.0767805350000001,0.14594623,0.62460972,-0.645684585,4.5610252
840,8.4,1.5885686,1.1619565,-0.09786696,0.4746423,-0.31520647,4.7390924
841,8.41,1.735491,1.1929518,-0.30751213,0.035430185,0.021991149,4.6767845
842,8.42,1.7486702,1.2886223,-0.3829258,-1.491122,0.9126327,3.8722749
843,8.43,1.50888395,1.4174845,-0.04515057499999997,-1.9679023,0.89064155,3.4907895499999997
844,8.44,1.2690977,1.5463467,0.29262465,-2.4446826,0.8686504,3.1093042
845,8.45,1.28044635,1.7135259,0.453702425,-2.3261748,0.496633455,3.0815098499999998
846,8.46,1.291795,1.8807051,0.6147802,-2.207667,0.12461651,3.0537155
847,8.47,1.5961344,2.2611904,0.6452874,-1.831374,-0.71593404,2.882673
848,8.48,1.7088888,2.3835851999999997,0.6568800850000001,-1.79411125,-0.8402451200000001,2.803566
849,8.49,1.8216432,2.50598,0.66847277,-1.7568485,-0.9645562,2.724459
850,8.5,2.6760879,3.090009,1.0867869,-1.2669345,-0.9059132,1.6132951
851,8.51,2.6760879,3.090009,1.0867869,-1.2669345,-0.9059132,1.6132951
852,8.52,2.6760879,3.090009,1.0867869,-1.2669345,-0.9059132,1.6132951
853,8.53,2.8637679,3.457559,1.2815446,-0.40133846,-0.2724459,0.5131268
854,8.54,2.8637679,3.457559,1.2815446,-0.40133846,-0.2724459,0.5131268
855,8.55,2.8637679,3.457559,1.2815446,-0.40133846,-0.2724459,0.5131268
856,8.56,2.634598,3.1559043,0.033435844,2.235767,0.14844026,-2.2284365
857,8.57,2.2668037500000002,2.76797535,-0.10396839300000002,1.555263,0.9159924300000001,-2.93215325
858,8.58,1.8990095,2.3800464,-0.24137263,0.874759,1.6835446,-3.63587
859,8.59,1.3828284,2.0715578,-0.1432616,0.6414085,1.8081611,-3.8063014
860,8.6,1.34853835,2.00663865,-0.111900245,0.47586402000000005,1.61482225,-3.86769335
861,8.61,1.3142483,1.9417195,-0.08053889,0.31031954,1.4214834,-3.9290853
862,8.62,1.4118712,1.6722802,0.021477038,0.3463606,0.8185594,-4.1648793
863,8.63,1.44262235,1.5581835000000002,0.116903414,0.559247125,0.56902097,-4.49871715
864,8.64,1.4733735,1.4440868,0.21232979,0.77213365,0.31948254,-4.832555
865,8.65,1.3730661,1.1094842,0.093717985,0.9957104,0.18936823,-5.0787334
866,8.66,1.36098525,1.0308978,0.038439017000000006,1.19027095,0.177456355,-5.4727417
867,8.67,1.3489044,0.9523114,-0.016839951,1.3848315,0.16554448,-5.86675
868,8.68,1.398204,0.61673266,-0.09518232,1.3243558,0.22113322,-6.01519
869,8.69,1.3962515,0.43076104000000004,-0.07626788500000001,1.1939361,0.28099801,-6.374378849999999
870,8.7,1.394299,0.24478942,-0.05735345,1.0635164,0.3408628,-6.7335677
871,8.71,1.3018013,-0.06418706,-0.016351834,0.9975429,0.4025602,-7.0970325
872,8.72,1.28093445,-0.12093036500000001,-0.0042710010999999996,0.98837995,0.4025602,-7.1565917500000005
873,8.73,1.2600676,-0.17767367,0.0078098318,0.979217,0.4025602,-7.216151
874,8.74,1.2146729,-0.29384494,0.037828874,0.9639453,0.37018433,-7.2821245
875,8.75,1.15085195,-0.404646905,0.08273540199999999,1.0082331,0.332005265,-7.33801875
876,8.76,1.087031,-0.51544887,0.12764193,1.0525209,0.2938262,-7.393913
877,8.77,1.0108851,-0.56011134,0.1637624,1.1496484,0.2761111,-7.420791
878,8.78,0.7231416150000001,-0.5582809449999999,0.1795041,1.1496484,0.2761111,-7.420791
879,8.79,0.43539813,-0.55645055,0.1952458,1.1496484,0.2761111,-7.420791
880,8.8,0.24064046,-0.5256993,0.16278619,1.8099937,-0.32070425,-6.886284
881,8.81,0.08005078500000001,-0.498730965,0.131058745,1.86497155,-0.6059783249999999,-6.50815825
882,8.82,-0.08053889,-0.47176263,0.0993313,1.9199494,-0.8912524,-6.1300325
883,8.83,-0.1432616,-0.45297023999999997,0.084565835,1.9025398,-1.02655905,-5.91867325
884,8.84,-0.20598431,-0.43417785,0.06980037,1.8851302,-1.1618657,-5.707314
885,8.85,-0.2604091,-0.2796896,-0.13838045,0.86437434,-1.7971655,-2.9865203
886,8.86,-0.19890666,-0.29506522,-0.19646609,0.3115413,-1.5161675,-2.3047945
887,8.87,-0.164372555,-0.350832295,-0.18706988000000002,0.007635820000000015,-1.2819007,-1.996613
888,8.88,-0.12983845,-0.40659937,-0.17767367,-0.29626966,-1.0476339,-1.6884315
889,8.89,-0.21452633,-0.49446,0.0053692595,-1.7128662,0.44532076,-0.3567453
890,8.9,-0.21452633,-0.49446,0.0053692595,-1.7128662,0.44532076,-0.3567453
891,8.91,-0.21452633,-0.49446,0.0053692595,-1.7128662,0.44532076,-0.3567453
892,8.92,-0.48054874,-0.5845171,0.31532198,-2.121535,1.0567969,0.4746423
893,8.93,-0.604163735,-0.6160005,0.41038227,-1.7015651,0.6969972499999999,1.3826935500000002
894,8.94,-0.72777873,-0.6474839,0.50544256,-1.2815952,0.3371976,2.2907448
895,8.95,-0.741812015,-0.6477279499999999,0.51215413,-1.11208015,0.191200815,2.5027150000000002
896,8.96,-0.7558453,-0.647972,0.5188657,-0.9425651,0.04520403,2.7146852
897,8.97,-0.75438094,-0.6643238,0.49104318,-0.4728097,-0.28710666,3.3157766
898,8.98,-0.626616985,-0.7390053249999999,0.34948997000000004,0.006108659999999988,-0.46273043,4.09065905
899,8.99,-0.49885303,-0.81368685,0.20793676,0.48502702,-0.6383542,4.8655415
900,9.0,-0.41929033,-0.8507836,0.119588055,0.6597345,-0.6560693,5.350569
901,9.01,-0.24100652,-0.8943478,-0.0021965124999999974,0.6795876000000001,-0.671340925,6.03107275
902,9.02,-0.06272271,-0.937912,-0.12398108,0.6994407,-0.68661255,6.7115765
903,9.03,0.28359452,-0.99160457,-0.2323425,0.5839872,-0.7104363,7.2149296
904,9.04,0.38536639500000003,-0.991360515,-0.23905408,0.42302419,-0.795346565,7.6443677999999995
905,9.05,0.48713827,-0.99111646,-0.24576566,0.26206118,-0.88025683,8.073806
906,9.06,1.4443307,-0.76511943,-0.14008886,-0.19425514,-1.0036516,9.002932
907,9.07,1.6423831500000001,-0.691536185,-0.13398743000000002,-0.226631,-0.98807453,8.9943795
908,9.08,1.8404356,-0.61795294,-0.127886,-0.25900686,-0.97249746,8.985827
909,9.09,2.2062776,-0.4183141,-0.14228538,-0.3475823,-0.7819075,8.679784
910,9.1,2.2902332999999997,-0.18475132500000002,-0.18914436499999998,-0.7000516,-0.26083945,7.8658062
911,9.11,2.374189,0.04881145,-0.23600335,-1.0525209,0.2602286,7.0518284
912,9.12,2.1835802,0.43539813,-0.29652956,-2.0091357,0.74220127,6.5649686
913,9.13,2.19517295,0.63491495,0.22184801999999998,-1.84053695,0.31795536,6.0887993
914,9.14,2.2067657,0.83443177,0.7402256,-1.6719382,-0.10629055,5.61263
915,9.15,2.2331238,1.0223558,1.0318741,-1.6719382,-0.10629055,5.61263
916,9.16,2.1979796,1.1172941,1.05872035,-0.08002335000000005,-0.911716375,4.72687535
917,9.17,2.1628354,1.2122324,1.0855666,1.5118915,-1.7171422,3.8411207
918,9.18,1.8211553,1.6080933,0.122272685,1.5448782,-1.613906,3.5198054
919,9.19,1.77234375,1.6523896,-0.03758481749999999,1.4101824,-1.4990633,3.4083225500000003
920,9.2,1.7235322,1.6966859,-0.19744232,1.2754866,-1.3842206,3.2968397
921,9.21,1.4113832,1.8765563,-0.27041543,-0.65057147,-0.20952678,2.5827382
922,9.22,1.368307,1.9168257,-0.204031855,-0.8133670850000001,-0.15699237,2.50546375
923,9.23,1.3252308,1.9570951,-0.13764828,-0.9761627,-0.10445796,2.4281893
924,9.24,1.283497,2.0276275,-0.0017084008,-1.2308935,-0.06719518,2.2547035
925,9.25,1.3968616,2.24996375,0.1448479846,-1.215011,-0.21533000500000002,2.05892125
926,9.26,1.5102262,2.4723,0.29140437,-1.1991285,-0.36346483,1.863139
927,9.27,1.8772882,2.7654128,0.40171823,-0.9071349,-0.48502702,1.2296717
928,9.28,1.92378115,2.90428125,0.547054335,-0.40805799,-0.34880405999999997,0.541532025
929,9.29,1.9702741,3.0431497,0.69239044,0.09101892,-0.2125811,-0.14660765
930,9.3,1.9487971,3.09537805,0.66700849,0.30634891,-0.18906278999999998,-0.298102235
931,9.31,1.9273201,3.1476064,0.64162654,0.5216789,-0.16554448,-0.44959682
932,9.32,1.9165816,3.2178948,0.51349646,0.84299403,-0.115453534,-0.64934975
933,9.33,2.02469895,3.2505984,0.29848201500000004,0.84299403,-0.115453534,-0.64934975
934,9.34,2.1328163,3.283302,0.08346757,0.84299403,-0.115453534,-0.64934975
935,9.35,2.5726075,3.1790895,-0.27871338,0.67011917,-0.07452556,-0.73548174
936,9.36,2.60762965,2.9322257,-0.21708892000000002,-0.45295656500000003,0.56749382,-1.58000287
937,9.37,2.6426518,2.6853619,-0.15546446,-1.5760323,1.2095132,-2.424524
938,9.38,1.6861916,1.8799729,0.63625723,-1.7531832,2.0506747,-3.5894442
939,9.39,1.572827,1.79967815,0.68970579,-1.25166285,2.12855995,-3.9165626
940,9.4,1.4594624,1.7193834,0.74315435,-0.7501425,2.2064452,-4.243681
941,9.41,1.359399,1.334261,0.44394013,0.8772025,1.5473217,-4.597983
942,9.42,1.359399,1.334261,0.44394013,0.8772025,1.5473217,-4.597983
943,9.43,1.359399,1.334261,0.44394013,0.8772025,1.5473217,-4.597983
944,9.44,1.4267586,1.2376143,0.31605414,1.318858,1.287704,-5.1783047
945,9.45,1.4326159500000002,1.00795643,0.18914437,1.3970487500000002,1.2345587,-5.628207
946,9.46,1.4384733,0.77829856,0.0622346,1.4752395,1.1814134,-6.0781093
947,9.47,1.4384733,0.77829856,0.0622346,1.4752395,1.1814134,-6.0781093
948,9.48,1.39417695,0.65846646,0.014155321499999998,1.4636331,1.1963796,-6.23937765
949,9.49,1.3498806,0.53863436,-0.033923957,1.4520267,1.2113458,-6.400646
950,9.5,1.3420708,0.15302388,-0.11226633,1.2974777,1.3457361,-6.736622
951,9.51,1.3356032999999998,0.016961967500000008,-0.10091767,1.31091675,1.3466524500000001,-6.89880665
952,9.52,1.3291358,-0.119099945,-0.08956901,1.3243558,1.3475688,-7.0609913
953,9.53,1.2842293,-0.2438132,-0.07028849,1.3946054,1.2632693,-7.2063775
954,9.54,1.18233535,-0.36462154,-0.030141071,1.6016887,1.0503828,-7.28426275
955,9.55,1.0804414,-0.48542988,0.010006348,1.808772,0.8374963,-7.362148
956,9.56,1.0804414,-0.48542988,0.010006348,2.0433443,0.63224554,-7.3316045
957,9.57,0.8161274000000001,-0.538024215,0.023185439000000002,2.3716843499999998,0.3124575785,-7.11535825
958,9.58,0.5518134,-0.59061855,0.03636453,2.7000244,-0.007330383,-6.899112
959,9.59,0.3922,-0.60989904,-0.002928687,2.8674014,-0.24740042,-6.6113944
960,9.6,0.05515694,-0.6169767,-0.088836834,2.951701,-0.75625116,-5.900347
961,9.61,-0.0750476,-0.5588911000000001,-0.142895517,2.7546969,-1.03358398,-5.2412237
962,9.62,-0.20525214,-0.5008055,-0.1969542,2.5576928,-1.3109168,-4.5821004
963,9.63,-0.21794312,-0.42697817000000005,-0.24661984999999997,2.14505335,-1.36467295,-3.9077050499999997
964,9.64,-0.2306341,-0.35315084,-0.2962855,1.7324139,-1.4184291,-3.2333097
965,9.65,-0.17376876,-0.32459614,-0.3265486,1.1026118,-1.2620476,-2.5076017
966,9.66,-0.045882765,-0.36291313,-0.32679266,1.1026118,-1.2620476,-2.5076017
967,9.67,-0.018914438,-0.407819665,-0.264802115,-0.13744464999999995,-0.402865625,-1.52410872
968,9.68,0.008053889,-0.4527262,-0.20281157,-1.3775011,0.45631635,-0.54061574
969,9.69,-0.23307467,-0.52350277,0.061014313,-1.7318029,0.8362745,-0.2657264
970,9.7,-0.292624635,-0.536925935,0.10213795649999999,-2.0836613,1.20035025,0.32925635000000003
971,9.71,-0.3521746,-0.5503491,0.1432616,-2.4355197,1.564426,0.9242391
972,9.72,-0.51740134,-0.596964,0.3162982,-2.3090706,1.5021176,1.700038
973,9.73,-0.53948852,-0.5998927000000001,0.358642125,-2.1600194999999998,1.40285205,1.9086485
974,9.74,-0.5615757,-0.6028214,0.40098605,-2.0109684,1.3035865,2.117259
975,9.75,-0.60599416,-0.6604189,0.43832684,-0.6603453,0.35918877,3.3707545
976,9.76,-0.60599416,-0.6604189,0.43832684,-0.6603453,0.35918877,3.3707545
977,9.77,-0.60599416,-0.6604189,0.43832684,-0.6603453,0.35918877,3.3707545
978,9.78,-0.37243137,-0.7770783,0.10470056,0.5681047,-0.39828414,4.6718974
979,9.79,-0.336066835,-0.78720665,0.0561331675,0.8032878000000001,-0.5720753199999999,5.0695707
980,9.8,-0.2997023,-0.797335,0.007565775,1.0384709,-0.7458665,5.467244
981,9.81,0.08542004,-0.85273606,-0.26651052,0.98471475,-1.0005972,6.4886107
982,9.82,0.16290822,-0.86140008,-0.290672185,0.893390425,-1.0345003,6.668205
983,9.83,0.2403964,-0.8700641,-0.31483385,0.8020661,-1.0684034,6.8477993
984,9.84,0.409284,-0.8817788,-0.3333822,0.59131753,-1.1307116,7.225314
985,9.85,0.75523515,-0.82576768,-0.27578469,0.39828412999999996,-1.1725558,7.866111500000001
986,9.86,1.1011863,-0.76975656,-0.21818718,0.20525073,-1.2144,8.506909
987,9.87,1.8699666,-0.56865335,-0.26943922,0.19853121,-0.9914343,8.863044
988,9.88,2.0441014,-0.33911753,-0.340093775,0.08277224350000001,-0.9138544,8.5450885
989,9.89,2.2182362,-0.10958171,-0.41074833,-0.032986723,-0.8362745,8.227133
990,9.9,2.2182362,-0.10958171,-0.41074833,-0.1472185215,-0.7910705,8.0099705
991,9.91,2.2182362,-0.10958171,-0.41074833,-0.26145032,-0.7458665,7.792808
992,9.92,2.2182362,-0.10958171,-0.41074833,-0.6792821,-0.50885075,7.2130966
993,9.93,2.2604581,0.462732545,-0.220139628,-1.2935071,-0.20158553,6.450737
994,9.94,2.30268,1.0350468,-0.029530926,-1.9077321,0.10567969,5.6883774
995,9.95,2.148192,1.1192465,0.078830495,-2.3151793,0.17348573,5.3872204
996,9.96,2.148192,1.1192465,0.078830495,-2.35488555,0.176845485,5.255579
997,9.97,2.148192,1.1192465,0.078830495,-2.3945918,0.18020524,5.1239376
998,9.98,1.9204865,1.347196,0.7228975,-2.3530529,0.15393804,4.92113
