id,timestamp,acc_x,acc_y,acc_z,gyro_x,gyro_y,gyro_z
0,0.0,-0.23209843,0.32728076,0.37877685,-0.41355577,0.07941248,-0.116675265
1,0.01,-0.15863721,0.27871338,0.5469323,-0.46914452,0.37568212,-0.24190263
2,0.02,-0.09469421,0.18865626,0.68384844,-0.43249258,0.5723807,-0.39645153
3,0.03,-0.23575929,0.26455808,0.626495,-0.33353242,0.49174652,-0.7654142
4,0.04,-0.22685121000000003,0.26077518,0.600502875,-0.35857789,0.46670105,-0.752280575
5,0.05,-0.21794313,0.25699228,0.57451075,-0.38362336,0.44165558,-0.73914695
6,0.06,-0.16303024,0.21379416,0.5508372,-0.52595496,0.44715336,-0.6835582
7,0.07,-0.106042875,0.219041385,0.54644417,-0.6814201799999999,0.41935898,-0.828333275
8,0.08,-0.04905551,0.22428861,0.54205114,-0.8368854,0.3915646,-0.97310835
9,0.09,-0.16351835,0.24942651,0.6047739,-1.0091494,-0.38056904,-1.6157386
10,0.1,-0.16351835,0.24942651,0.6047739,-1.10261175,-0.83719082,-1.75959735
11,0.11,-0.16351835,0.24942651,0.6047739,-1.1960741,-1.2938126,-1.9034561
12,0.12,-0.2550398,0.15400012,0.40171823,-1.4312572,-1.8154916,-1.9975294
13,0.13,-0.36291313,0.2255089,0.49031103,-1.7018706,-2.2424862,-1.9926424
14,0.14,-0.43576421499999995,0.2434471,0.632352315,-1.8292359999999999,-2.2666155000000003,-1.7247780000000001
15,0.15,-0.5086153,0.2613853,0.7743936,-1.9566014,-2.2907448,-1.4569136
16,0.16,-0.58134437,0.25894472,0.93156654,-1.72264,-2.2565362,-1.0464121
17,0.17,-0.605017935,0.210377335,1.00368547,-1.39918685,-2.3625214000000003,-0.637132415
18,0.18,-0.6286915,0.16180995,1.0758044,-1.0757337,-2.4685066,-0.22785273
19,0.19,-0.5449798,0.025626011,0.89105296,-0.5870415,-3.3169982,0.58276546
20,0.2,-0.50141559,-0.016229806500000003,0.89312748,-0.7556403,-2.8255572,0.706771105
21,0.21,-0.45785138,-0.058085624,0.895202,-0.9242391,-2.3341162,0.83077675
22,0.22,-0.3499781,-0.021232981,1.2163813,-1.2388347,-2.701857,1.2516629
23,0.23,-0.3499781,-0.021232981,1.2163813,-1.3854424,-2.93704,1.9156734
24,0.24,-0.3385074,-0.006589546000000002,1.2710501500000002,-1.4529429999999999,-2.7870726,3.0366112000000003
25,0.25,-0.3270367,0.008053889,1.325719,-1.5204436,-2.6371052,4.157549
26,0.26,0.17791773,-0.15595257,1.4919219,-1.9767599,-1.7128662,4.980995
27,0.27,0.421608865,0.041001624999999986,1.54402815,-2.5121833,-2.07205495,4.43579785
28,0.28,0.6653,0.23795582,1.5961344,-3.0476067,-2.4312437,3.8906007
29,0.29,0.9010593,0.3682824,1.657881,-3.4917057,-4.437936,2.5094345
30,0.3,0.9010593,0.3682824,1.657881,-3.59830165,-4.6673158,1.6545285499999998
31,0.31,0.9010593,0.3682824,1.657881,-3.7048976,-4.8966956,0.7996226
32,0.32,0.5771954,0.5217944,1.5512279,-3.7048976,-4.8966956,0.7996226
33,0.33,0.027944550000000068,0.73473435,1.54378415,-4.21833,-3.6441165,0.041233399999999976
34,0.34,-0.5213063,0.9476743,1.5363404,-4.7317624,-2.3915374,-0.7171558
35,0.35,-1.1768441,1.1431642,2.1418464,-4.8386636,-0.86132,-0.17287487
36,0.36,-0.94889458,1.1535366,2.48120795,-4.2595633,-1.01434175,0.26664269
37,0.37,-0.72094506,1.163909,2.8205695,-3.680463,-1.1673635,0.70616025
38,0.38,-0.16400647,1.0052718,2.953825,-2.6181684,-1.6737708,0.63529986
39,0.39,-0.154732295,1.12766655,2.88414655,-1.0815369000000001,-1.3381003,0.11148290500000002
40,0.4,-0.14545812,1.2500613,2.8144681,0.4550946,-1.0024298,-0.41233405
41,0.41,-0.20915705,1.2476206,2.3536882,1.1453724,-0.03604105,-0.729984
42,0.42,-0.33338219,1.2000295,2.02823785,1.3035865,0.8118399249999999,-0.96180735
43,0.43,-0.45760733,1.1524384,1.7027875,1.4618006,1.6597209,-1.1936307
44,0.44,-0.511544,1.0094208,1.7328066,1.8301523,2.7256808,-0.9969321
45,0.45,-0.483111325,0.95585025,1.7630696499999998,2.0140227,2.6844474,-0.8857546199999999
46,0.46,-0.45467865,0.9022797,1.7933327,2.1978931,2.643214,-0.77457714
47,0.47,0.008786061,0.400742,1.8904674,4.4324384,2.0158553,-0.52412236
48,0.48,0.1291062855,0.16864356,1.76062895,5.2006013499999995,1.6737708000000002,-0.326507465
49,0.49,0.24942651,-0.06345488,1.6307905,5.9687643,1.3316863,-0.12889257
50,0.5,0.4356422,-0.28554696,1.4374971,6.8154235,0.8918633,0.05009095
51,0.51,0.614414135,-0.44357403,1.17269502,7.55609775,0.619417375,-0.03970624
52,0.52,0.79318607,-0.6016011,0.90789294,8.296772,0.34697145,-0.12950343
53,0.53,0.76511943,-0.63308454,0.7560893,8.547227,-0.12339478,-0.37995818
54,0.54,0.75291663,-0.6794554,0.605506,8.710327,-0.35796702,-0.5497787
55,0.55,0.75291663,-0.6794554,0.605506,8.7604185,-0.417526395,-0.82161375
56,0.56,0.75291663,-0.6794554,0.605506,8.81051,-0.47708577,-1.0934488
57,0.57,0.80343646,-0.9059405,0.18572757,8.544783,-0.571159,-1.8301523
58,0.58,0.34460884,-0.56523657,0.07492557,8.399397,-0.6420194,-2.3487768
59,0.59,0.34460884,-0.56523657,0.07492557,8.209418,-0.9724974500000001,-2.6771168999999997
60,0.6,0.34460884,-0.56523657,0.07492557,8.019439,-1.3029755,-3.005457
61,0.61,-0.7614586,0.044174362,-0.05832968,8.019439,-1.3029755,-3.005457
62,0.62,-0.7614586,0.044174362,-0.05832968,8.019439,-1.3029755,-3.005457
63,0.63,-0.8660371,-0.04868941899999999,-0.241982775,7.37833585,-3.2097912500000003,-1.8912388
64,0.64,-0.9706156,-0.1415532,-0.42563587,6.7372327,-5.116607,-0.7770206
65,0.65,-0.88104665,-0.14887492,-0.58305275,5.5784216,-6.603453,0.7489208
66,0.66,-0.746083,-0.18206671,-0.73510045,4.6627345,-6.8038173,1.6670512
67,0.67,-0.3482697,-0.42685616,-0.85493255,2.8845057,-5.9363885,3.3903022
68,0.68,-0.06638357,-0.5549862,-0.8088057,2.8845057,-5.9363885,3.3903022
69,0.69,0.248206215,-0.709840515,-0.68152985,1.567480225,-4.4312165,4.191452099999999
70,0.7,0.562796,-0.86469483,-0.554254,0.25045475,-2.9260445,4.992602
71,0.71,0.6516328499999999,-0.975984915,-0.46029197,-0.7544185749999999,-1.69148585,5.078428349999999
72,0.72,0.7404697,-1.087275,-0.36632994,-1.7592919,-0.4569272,5.1642547
73,0.73,0.7175283,-1.1353543,-0.2272173,-2.402533,-0.009162978,5.2644367
74,0.74,0.77683425,-1.2205303,0.04783522,-2.9138272,0.22724187,5.3951616
75,0.75,0.822106875,-1.2323670500000001,0.17596527499999998,-3.1630602000000003,0.07910704800000001,5.5701747
76,0.76,0.8673795,-1.2442038,0.30409533,-3.4122932,-0.069027774,5.7451878
77,0.77,0.88690406,-1.2207743,0.38219365,-3.4122932,-0.069027774,5.7451878
78,0.78,0.92961407,-1.1753798,0.44442827,-2.334727,-2.2992969,6.5154886
79,0.79,1.176966085,-1.05005635,0.505686615,-2.09007545,-2.6923887,6.5970393000000005
80,0.8,1.4243181,-0.9247329,0.56694496,-1.8454239,-3.0854805,6.67859
81,0.81,1.7088889,-0.7946504,0.59745216,-1.3041973,-3.7928624,6.744563
82,0.82,2.10938685,-0.5588911,0.48225714,-1.0922270649999999,-3.98895,6.726542650000001
83,0.83,2.5098848,-0.3231318,0.36706212,-0.88025683,-4.1850376,6.7085223
84,0.84,2.6577835,-0.08005078,0.1803583,0.24556783,-4.143499,5.785505
85,0.85,2.6233714,0.44808912,-0.27554062,0.25411993,-3.7012324,5.2711563
86,0.86,2.58554245,0.64431113,-0.366329925,0.1291979935,-3.4071008999999997,5.0442196500000005
87,0.87,2.5477135,0.84053314,-0.45711923,0.004276057,-3.1129694,4.817283
88,0.88,2.5477135,0.84053314,-0.45711923,-0.80878556,-1.8723019,4.133725
89,0.89,2.29853115,1.02345407,-0.22758338605,-1.29869948,-1.2754866,3.363424
90,0.9,2.0493488,1.206375,0.0019524579,-1.7886134,-0.6786713,2.593123
91,0.91,1.88705065,1.2483528000000002,-0.01659589255,-1.7886134,-0.6786713,2.593123
92,0.92,1.7247525,1.2903306,-0.035144243,-1.7886134,-0.6786713,2.593123
93,0.93,1.2546983,1.4648316,-0.051496077,-2.7580566,0.6389651,1.9242256
94,0.94,1.3201057,1.7518429,0.4932397,-2.9981265,0.7867944,1.8686367
95,0.95,1.3689171,1.8309174499999998,0.56072155,-2.98652015,0.634688975,1.48867855
96,0.96,1.4177285,1.909992,0.6282034,-2.9749138,0.48258355,1.1087204
97,0.97,1.5629426,2.0517893,0.70190865,-2.8411343,0.2510656,0.8527679
98,0.98,1.7371994,2.183092,0.72070104,-2.674979,-0.051923547,0.4550946
99,0.99,1.8968129500000002,2.2823012499999997,0.81332077,-2.57113185,-0.066889746,-0.18661932999999997
100,1.0,2.0564265,2.3815105,0.9059405,-2.4672847,-0.081855945,-0.82833326
101,1.01,2.0564265,2.3815105,0.9059405,-2.4672847,-0.081855945,-0.82833326
102,1.02,2.0564265,2.3815105,0.9059405,-2.4672847,-0.081855945,-0.82833326
103,1.03,2.3478308,2.3798022,1.2773956,-1.7238617,1.0433578,-2.5228734
104,1.04,2.5484458500000002,2.3674773,1.26592495,-1.52563595,0.98288215,-2.87259375
105,1.05,2.7490609,2.3551524,1.2544543,-1.3274102,0.9224065,-3.2223141
106,1.06,2.9233177,2.3314788,1.2295604,-1.2589933,0.8698721,-3.4550538
107,1.07,3.11014345,2.2597260500000003,1.23944475,-1.2366966499999998,0.9975429,-3.7155879
108,1.08,3.2969692,2.1879733,1.2493291,-1.2144,1.1252137,-3.976122
109,1.09,3.627179,1.8018748,1.2473766,-1.0403035,2.0781636,-4.629137
110,1.1,3.4558508,1.2305366,1.1529264,-0.15332718,4.1245623,-6.006638
111,1.11,3.2501105,1.00710223,1.1288868,0.033903020000000006,4.217719150000001,-6.1123178
112,1.12,3.0443702,0.78366786,1.1048472,0.22113322,4.310876,-6.2179976
113,1.13,2.831064,0.571338,1.0335824,0.7819075,4.341419,-6.4464607
114,1.14,2.3265977,0.058573738,0.66847277,1.3884968,4.189314,-6.632164
115,1.15,2.3265977,0.058573738,0.66847277,2.3890939,3.6865718,-6.842302
116,1.16,2.2705866,-0.006589546000000002,0.58756781,2.7843237,3.397938,-6.9052208
117,1.17,2.2145755,-0.07175283,0.50666285,3.1795535,3.1093042,-6.9681396
118,1.18,2.0220141,-0.45687518,-0.018060237,3.1795535,3.1093042,-6.9681396
119,1.19,1.7899158,-0.53887844,-0.16278619,3.4752123,2.8087585,-7.049996
120,1.2,1.67459875,-0.60501792,-0.27407628500000003,3.35975885,2.7672196500000004,-7.0390003
121,1.21,1.5592817,-0.6711574,-0.38536638,3.2443054,2.7256808,-7.0280046
122,1.22,1.2832531,-0.75364876,-0.47444725,3.037833,2.6285532,-6.9870768
123,1.23,1.121443,-0.7809832,-0.46834585,2.5900686,2.3848178,-6.802595
124,1.24,1.05030035,-0.79013535,-0.454312565,2.5189028,2.3368649,-6.742425
125,1.25,0.9791577,-0.7992875,-0.44027928,2.447737,2.288912,-6.682255
126,1.26,0.7482795,-0.77512586,-0.33509058,2.447737,2.288912,-6.682255
127,1.27,0.59672,-0.72631437,-0.20256752,2.1789563,1.9040669,-5.81055
128,1.28,0.57475485,-0.725826265,-0.167301245,2.1789563,1.9040669,-5.81055
129,1.29,0.5527897,-0.72533816,-0.13203497,2.1789563,1.9040669,-5.81055
130,1.3,0.5527897,-0.72533816,-0.13203497,2.403144,1.5546521,-5.4183745
131,1.31,0.507395,-0.70459324,-0.025137896,2.403144,1.5546521,-5.4183745
132,1.32,0.40830776,-0.690681995,-0.008297946,2.81120185,1.00273532,-5.17830475
133,1.33,0.30922052,-0.67677075,0.008542004,3.2192597,0.45081854,-4.938235
134,1.34,-0.14692247,-0.5989165,-0.02757847,3.3731978,0.12095132,-4.459927
135,1.35,-0.2075707,-0.58354087,-0.05771954,3.4519994,-0.26572637499999996,-4.093408
136,1.36,-0.26821893,-0.56816524,-0.08786061,3.530801,-0.65240407,-3.726889
137,1.37,-0.37926495,-0.5205741,-0.17425688,3.4122932,-0.8185594,-3.200934
138,1.38,-0.42612392499999996,-0.47823018000000006,-0.28066582500000004,2.9568932,-0.8906415000000001,-2.38939945
139,1.39,-0.4729829,-0.43588626,-0.38707477,2.5014932,-0.9627236,-1.5778649
140,1.4,-0.4656612,-0.43491003,-0.42563587,2.02624,-0.8246681,-1.0531317
141,1.41,-0.47298295,-0.43600828999999997,-0.422341075,1.347568725,-0.509156195,-0.39034290000000005
142,1.42,-0.4803047,-0.43710655,-0.41904628,0.66889745,-0.19364429,0.2724459
143,1.43,-0.4803047,-0.43710655,-0.41904628,0.22235495,0.059864793,0.7812967
144,1.44,-0.6155124,-0.48445365,-0.32203353,-0.10781771000000001,0.29413162149999994,1.26449105
145,1.45,-0.7507201,-0.53180075,-0.22502078,-0.43799037,0.52839845,1.7476854
146,1.46,-0.7997756,-0.5635282,-0.1552204,-0.74097955,0.6560693,2.3548856
147,1.47,-0.7579198,-0.65626995,-0.149241,-1.045495875,0.7003570299999999,3.2510249499999997
148,1.48,-0.716064,-0.7490117,-0.1432616,-1.3500122,0.74464476,4.1471643
149,1.49,-0.716064,-0.7490117,-0.1432616,-1.3500122,0.74464476,4.1471643
150,1.5,-0.716064,-0.7490117,-0.1432616,-1.3500122,0.74464476,4.1471643
151,1.51,-0.716064,-0.7490117,-0.1432616,-1.8203785000000001,0.29688052,5.71617165
152,1.52,-0.716064,-0.7490117,-0.1432616,-2.2907448,-0.15088372,7.285179
153,1.53,0.008297946,-1.2642165,-0.18475133,-2.4697282,-0.3390302,7.9791217
154,1.54,0.51788944,-1.3420708,-0.107385196,-2.724459,-0.6969972,9.080512
155,1.55,0.51788944,-1.3420708,-0.107385196,-2.7849348,-0.8875872,9.627236
156,1.56,1.19795497,-1.30350975,-0.044418423,-2.7834076,-0.9407324850000001,9.808663
157,1.57,1.8780205,-1.2649487,0.01854835,-2.7818804,-0.99387777,9.99009
158,1.58,2.6824331,-0.9242448,0.113974735,-2.6847527,-1.133155,9.625403
159,1.59,3.163958,-0.3956168,0.23161033,-2.6847527,-1.133155,9.625403
160,1.6,3.163958,-0.3956168,0.23161033,-2.60931085,-1.25166285,9.032253
161,1.61,3.163958,-0.3956168,0.23161033,-2.533869,-1.3701707,8.439103
162,1.62,2.9438186,0.14277348,0.44003522,-2.2968533,-1.4776831,7.1428475
163,1.63,2.7284380500000003,0.42539179,0.59049651,-1.96729155,-1.3167201,6.7011918999999995
164,1.64,2.5130575,0.7080101,0.7409578,-1.6377298,-1.1557571,6.2595363
165,1.65,2.5054917,0.8454143,0.7819594,-1.3243558,-1.1215485,5.993199
166,1.66,2.4281254,1.4604386,0.6745742,-0.5363397,-1.3927728,5.0652947
167,1.67,2.4281254,1.4604386,0.6745742,-0.5363397,-1.3927728,5.0652947
168,1.68,2.4281254,1.4604386,0.6745742,-0.5363397,-1.3927728,5.0652947
169,1.69,2.3685756,1.6992486,0.54119693,-0.57818395,-1.3793337499999998,4.74795005
170,1.7,2.3090258,1.9380586,0.40781966,-0.6200282,-1.3658947,4.4306054
171,1.71,2.0439794,2.3480747,0.19500175,-0.8539896,-1.2003502,4.1905355
172,1.72,2.0454438,2.5416121,0.43881494,-1.8545868,-0.4147775,3.7366626
173,1.73,2.1921222,2.6253238,0.68604493,-2.4764478,0.3036,3.4849863
174,1.74,2.3799243,2.82252205,0.955850165,-2.20736165,0.58123825,2.68261475
175,1.75,2.5677264,3.0197203,1.2256554,-1.9382755,0.8588765,1.8802432
176,1.76,2.4286137,3.1307664,1.3076587,-0.93218035,1.0415252,0.27000242
177,1.77,2.21481955,3.2285112,1.29069675,-0.4269948,0.9013316499999999,-0.19181169000000003
178,1.78,2.0010254,3.326256,1.2737348,0.07819075,0.7611381,-0.6536258
179,1.79,2.1374533,3.3255243,1.0848345,0.5552765,0.42332962,-1.1142182
180,1.8,2.3588133,3.27476,0.8603018,0.86559606,0.07696902,-1.640784
181,1.81,2.4707135,3.03460765,0.5294822,0.75319683,-0.011911873000000003,-2.58090565
182,1.82,2.5826137,2.7944553,0.1986626,0.6407976,-0.100792766,-3.5210273
183,1.83,2.4064045,2.549422,0.094206095,0.27183503,0.2321288,-4.079358
184,1.84,2.0388544,1.9836973,0.1718163,-0.35369098,1.0635164,-4.727486
185,1.85,2.0388544,1.9836973,0.1718163,-0.42760569,1.29320175,-4.85851665
186,1.86,2.0388544,1.9836973,0.1718163,-0.5015204,1.5228871,-4.9895473
187,1.87,1.7252407,1.3113196,0.44857723,-0.34208453,1.9724839,-5.3469033
188,1.88,1.7104752,1.2246793,0.46822384,-0.24862215,1.9898935500000001,-5.419290999999999
189,1.89,1.6957097,1.138039,0.48787045,-0.15515977,2.0073032,-5.4916787
190,1.9,1.5849078,0.6897058,0.37218732,0.79779,1.8417587,-6.0781093
191,1.91,1.5745353500000001,0.5324109,0.30385128,1.0186178,1.7492126,-6.25067865
192,1.92,1.5641629,0.375116,0.23551524,1.2394456,1.6566665,-6.423248
193,1.93,1.5126668,0.20451997,0.16937573,1.4544702,1.5375478,-6.613838
194,1.94,1.4138236000000002,-0.009640265000000009,0.091521468,1.67926855,1.40682265,-6.773273850000001
195,1.95,1.3149804,-0.2238005,0.013667206,1.9040669,1.2760975,-6.9327097
196,1.96,1.2510375,-0.36388937,-0.033435844,2.0097466,1.1997393,-6.977914
197,1.97,1.14645895,-0.480792785,-0.07041052,2.0650299,1.10261175,-6.95531185
198,1.98,1.0418804,-0.5976962,-0.107385196,2.1203132,1.0054842,-6.9327097
199,1.99,1.0418804,-0.5976962,-0.107385196,2.1135938,0.9462303,-6.8374147
200,2.0,1.0418804,-0.5976962,-0.107385196,2.1077906,0.93309668,-6.7906835
201,2.01,1.0418804,-0.5976962,-0.107385196,2.1019874,0.91996306,-6.7439523
202,2.02,0.6711574,-0.6406503,0.019280521,2.1368067,0.80756384,-6.34689
203,2.03,0.5930591,-0.6238103,0.082247294,2.2223277,0.711658,-6.2387667
204,2.04,0.5930591,-0.6238103,0.082247294,2.2223277,0.711658,-6.2387667
205,2.05,0.5930591,-0.6238103,0.082247294,2.2223277,0.711658,-6.2387667
206,2.06,0.3065359,-0.61941725,0.15058333,2.7800477,0.10629055,-5.8588085
207,2.07,-0.052472305,-0.59745216,0.058573738,2.7800477,0.10629055,-5.8588085
208,2.08,-0.2929907225,-0.54022073,0.0215990655,2.85640585,-0.324064,-5.38141725
209,2.09,-0.53350914,-0.4829893,-0.015375607,2.932764,-0.75441855,-4.904026
210,2.1,-0.53350914,-0.4829893,-0.015375607,2.6645942,-1.205848,-3.5564575
211,2.11,-1.0096649,-0.22502078,-0.05051985,2.4758368,-1.3445144,-2.6908615
212,2.12,-0.988187825,-0.19671014,-0.138868575,2.1881193000000003,-1.32374495,-1.89704205
213,2.13,-0.96671075,-0.1683995,-0.2272173,1.9004018,-1.3029755,-1.1032226
214,2.14,-0.7582859,-0.2306341,-0.2882316,0.63529986,-0.48258355,0.89736104
215,2.15,-0.7582859,-0.2306341,-0.2882316,0.63529986,-0.48258355,0.89736104
216,2.16,-0.7582859,-0.2306341,-0.2882316,0.63529986,-0.48258355,0.89736104
217,2.17,-0.65797836,-0.29384494,-0.22868164,-0.24923302,0.33353242,2.1636846
218,2.18,-0.50495446,-0.41977844,-0.10396838,-0.91813046,0.86009824,3.1514537
219,2.19,-0.44027928,-0.4724948,-0.016351834,-1.1771374,1.0409144,3.6248744
220,2.2,-0.41684978,-0.49909705,0.012568948,-1.25685525,1.08245325,3.8505892
221,2.21,-0.39342028,-0.5256993,0.04148973,-1.3365731,1.1239921,4.076304
222,2.22,-0.33777523,-0.59745216,0.08005078,-1.4398094,1.1386528,4.529566
223,2.23,-0.058085624,-0.87274873,0.082491346,-1.6035212,0.88208944,5.707925
224,2.24,-0.0168399495,-0.904720215,0.098111013,-1.6136005500000001,0.8075638700000001,5.8710259
225,2.25,0.024405725,-0.9366917,0.11373068,-1.6236799,0.7330383,6.0341268
226,2.26,0.127886,-0.97744924,0.14057697,-1.6236799,0.7330383,6.0341268
227,2.27,0.47725395,-0.98147622,0.16400647000000002,-1.3735305,-0.014355334999999969,7.241501899999999
228,2.28,0.8266219,-0.9855032,0.18743597,-1.1233811,-0.76174897,8.448877
229,2.29,1.1375508,-0.9452337,0.15912533,-0.8979719,-1.0409144,8.728654
230,2.3,1.1375508,-0.9452337,0.15912533,-0.8979719,-1.0409144,8.728654
231,2.31,2.1894376,-0.56694496,0.00073217176,-0.8979719,-1.0409144,8.728654
232,2.32,2.2837658000000003,-0.47127453,-0.01037243312,-0.6805038750000001,-1.1786645,8.3282316
233,2.33,2.378094,-0.3756041,-0.021477038,-0.46303585,-1.3164146,7.9278092
234,2.34,2.404452,0.18304294,0.07785426,-0.49174652,-0.7984009,6.514267
235,2.35,2.3351398,0.32557237,0.14082102,-0.46609017,-0.59986967,6.1129284
236,2.36,2.3351398,0.32557237,0.14082102,-0.46609017,-0.59986967,6.1129284
237,2.37,2.3351398,0.32557237,0.14082102,-0.46609017,-0.59986967,6.1129284
238,2.38,2.0017576,0.84150934,0.30629185,0.13072516,-0.3921755,4.7934594
239,2.39,1.8849762,0.95548407,0.314467775,0.334754145,-0.56474492,4.5546112
240,2.4,1.7681948,1.0694588,0.3226437,0.53878313,-0.73731434,4.315763
241,2.41,1.59467,1.427979,0.10030753,1.0164797,-1.1508701,3.84051
242,2.42,1.54988555,1.51120245,0.056743310500000005,1.0216721,-1.1301006999999998,3.7693441500000002
243,2.43,1.5051011,1.5944259,0.013179091,1.0268645,-1.1093313,3.6981783
244,2.44,1.4230978,1.7896718,-0.062478654,0.95294976,-0.9297369,3.6102135
245,2.45,1.42041315,1.9979746999999999,-0.178527877,0.76816303,-0.6478226,3.62365255
246,2.46,1.4177285,2.2062776,-0.2945771,0.5833763,-0.3659083,3.6370916
247,2.47,2.1728418,2.7300243,-0.6299118,-0.26083946,0.37323865,3.6248744
248,2.48,2.2731492500000003,2.81739685,-0.649680415,-0.68905598,0.558636275,3.2290337
249,2.49,2.3734567,2.9047694,-0.66944903,-1.1172725,0.7440339,2.833193
250,2.5,2.3351398,3.2132578,-0.49885303,-2.0042489,0.8142834,1.4672983
251,2.51,2.212623,3.3092942499999998,-0.2700493515,-2.1432206999999996,0.9211848,0.996321215
252,2.52,2.0901062,3.4053307,-0.041245673,-2.2821925,1.0280862,0.52534413
253,2.53,2.0481284,3.4028902,0.11665936,-2.2003367,1.1704178,0.1020145
254,2.54,2.1851665000000002,3.2482799499999997,0.3167863,-1.7812831,0.94684113,-0.6328564
255,2.55,2.3222046,3.0936697,0.51691324,-1.3622295,0.72326446,-1.3677273
256,2.56,2.3422174,2.9291751,0.58207655,-0.88331115,0.40439278,-2.0421226
257,2.57,2.0024896,2.310246,0.3448529,0.19486602,0.4538729,-3.7348301
258,2.58,1.9212186,2.20786395,0.29201450500000004,0.279776285,0.5409211700000001,-3.9409972
259,2.59,1.8399476,2.1054819,0.23917611,0.36468655,0.62796944,-4.1471643
260,2.6,1.6573927,1.9085277,0.14716652,0.4636467,0.7855727,-4.439769
261,2.61,1.5368285,1.6714261000000001,0.073339202755,0.5513059,1.00212445,-4.6731195
262,2.62,1.4162643,1.4343245,-0.00048811449,0.6389651,1.2186762,-4.90647
263,2.63,1.4162643,1.4343245,-0.00048811449,0.6389651,1.2186762,-4.90647
264,2.64,1.4035733,1.1856301,-0.08712844,0.7312057,1.3756685,-5.1355443
265,2.65,1.4587301,1.0804414,-0.1295944,0.75625116,1.3946054,-5.2852063
266,2.66,1.5202325499999998,0.8710403,-0.22990193,0.6835582,1.3283265000000002,-5.5790324
267,2.67,1.581735,0.6616392,-0.33020946,0.61086524,1.2620476,-5.8728585
268,2.68,1.581735,0.6616392,-0.33020946,0.61086524,1.2620476,-5.8728585
269,2.69,1.51681575,0.44259782,-0.30775618000000005,0.45020768499999997,1.1386528500000002,-6.102543750000001
270,2.7,1.4518965,0.22355644,-0.2853029,0.28955013,1.0152581,-6.332229
271,2.71,1.4518965,0.22355644,-0.2853029,0.28955013,1.0152581,-6.332229
272,2.72,1.4418902,0.05357057000000001,-0.20708256000000003,0.18723019800000001,0.9251554500000001,-6.5564167
273,2.73,1.4318839,-0.1164153,-0.12886222,0.084910266,0.8350528,-6.7806044
274,2.74,1.3354812,-0.42026657,0.026602242,0.27122417,0.7696902,-6.998072
275,2.75,1.2666571,-0.48494175,0.079562664,0.453262,0.6963864,-7.135517
276,2.76,1.1557331,-0.527285675,0.136916117,0.6808093,0.5723807399999999,-7.210348
277,2.77,1.0448091,-0.5696296,0.19426957,0.9083566,0.44837508,-7.285179
278,2.78,0.9264413,-0.5789038,0.22111587,1.2217305,0.23579398,-7.2821245
279,2.79,0.66969305,-0.6062382,0.22648512,1.7415768,-0.22296582,-7.2063775
280,2.8,0.572436275,-0.608678765,0.218675285,1.8579466500000001,-0.36774089,-7.166365600000001
281,2.81,0.4751795,-0.61111933,0.21086545,1.9743165,-0.51251596,-7.1263537
282,2.82,-0.22819352,-0.4720067,0.13569583,2.2956316,-1.1362094,-6.1672955
283,2.83,-0.3973252,-0.40342662,0.09054524,2.2522602,-1.2773192,-5.511837
284,2.84,-0.61111933,-0.2774931,-0.06833603,2.117259,-1.3231341,-4.78674
285,2.85,-0.63613519,-0.251501,-0.104822585,1.8713856999999998,-1.2531900500000002,-4.10745785
286,2.86,-0.66115105,-0.2255089,-0.14130914,1.6255124,-1.183246,-3.4281757
287,2.87,-0.6357691,-0.20598431,-0.24552159,0.7263188,-0.75502944,-1.8411479
288,2.88,-0.5886661,-0.23942018,-0.24747404,0.23273966,-0.4196644,-1.142318
289,2.89,-0.6633476,-0.31068486,-0.018792408,-0.7867944,0.47219884,0.47647488
290,2.9,-0.6838484,-0.325328305,0.034656128499999994,-0.7867944,0.47219884,0.47647488
291,2.91,-0.7043492,-0.33997175,0.088104665,-0.7867944,0.47219884,0.47647488
292,2.92,-0.7050814,-0.36315718,0.18572757,-1.0641272,0.66645396,1.5760323
293,2.93,-0.6895837499999999,-0.369502675,0.23539321500000002,-1.0647381,0.6435465300000001,1.88299215
294,2.94,-0.6740861,-0.37584817,0.28505886,-1.065349,0.6206391,2.189952
295,2.95,-0.45297024,-0.4463807,0.46444094,-0.535118,0.2706133,3.630372
296,2.96,-0.41038226,-0.458705585,0.45870559,-0.39736786,0.204028985,3.8420370000000004
297,2.97,-0.36779428,-0.47103047,0.45297024,-0.25961772,0.13744467,4.053702
298,2.98,-0.053936653,-0.60941094,0.34070393,0.42271876,-0.06352998,5.0616293
299,2.99,-0.053936653,-0.60941094,0.34070393,0.62125,-0.054367006,5.434868
300,3.0,-0.053936653,-0.60941094,0.34070393,0.7028004999999999,-0.033597588,5.6263743
301,3.01,-0.053936653,-0.60941094,0.34070393,0.784351,-0.01282817,5.8178806
302,3.02,0.22428861,-0.6743302,0.17669745,0.784351,-0.01282817,5.8178806
303,3.03,0.92448884,-0.55620646,-0.023429496,0.9431759,-0.09285152,7.1287975
304,3.04,1.04505317,-0.5327769499999999,-0.052716366,0.9431759,-0.09285152,7.1287975
305,3.05,1.1656175,-0.50934744,-0.082003236,0.9431759,-0.09285152,7.1287975
306,3.06,1.368429,-0.430394935,-0.13667205799999999,0.6780604,0.030543260000000003,6.7680814
307,3.07,1.5712405,-0.35144243,-0.19134088,0.4129449,0.15393804,6.4073653
308,3.08,1.700591,0.042221904,-0.14374973,0.26083946,0.23762658,6.1446934
309,3.09,1.68716785,0.089569012,-0.119954145,0.212275675,0.27183503,6.0252692
310,3.1,1.6737447,0.13691612,-0.09615856,0.16371189,0.30604348,5.905845
311,3.11,1.6464102,0.5020258,-0.0134231495,0.20769419,0.42210788,5.4232616
312,3.12,1.6683753,0.6291796,-0.041245673,0.26083946,0.3640757,5.209459
313,3.13,1.5766098,0.96256185,-0.16693515,0.3042109,0.3023783,5.021312
314,3.14,1.5766098,0.96256185,-0.16693515,0.26939157,-0.03726278,4.233907
315,3.15,1.44494095,1.103138725,-0.23771174500000003,0.210137645,-0.06505715000000001,4.194811700000001
316,3.16,1.3132721,1.2437156,-0.30848834,0.15088372,-0.09285152,4.1557164
317,3.17,1.185142,1.4267586,-0.3904916,-0.46181414,-0.04153884,4.297437
318,3.18,1.1458488,1.6820425,-0.5183776,-0.94470307,0.09407325,4.440074
319,3.19,1.1065556,1.9373264,-0.6462636,-1.427592,0.22968534,4.582711
320,3.2,1.2642165,2.1274471,-0.6050179,-2.0512855,0.31520647,4.597372
321,3.21,1.3230343,2.2192126500000002,-0.54754244,-2.3157901499999998,0.31642820000000005,4.5341474999999996
322,3.22,1.3818521,2.3109782,-0.49006698,-2.5802948,0.31764993,4.470923
323,3.23,1.858496,2.898668,0.07150877,-3.1257975,0.06658431,4.0188823
324,3.24,1.858496,2.898668,0.07150877,-3.1749721500000003,-0.152716315,3.4996469
325,3.25,1.858496,2.898668,0.07150877,-3.2241468,-0.37201694,2.9804115
326,3.26,1.9392788,3.3194227,0.47151858,-3.1355712,-0.4184427,1.967597
327,3.27,1.96929785,3.33675075,0.77707829,-2.7110198499999996,0.13347406499999998,1.112385625
328,3.28,1.9993169,3.3540788,1.082638,-2.2864685,0.68539083,0.25717425
329,3.29,1.9746673,3.274272,1.2800802,-1.6420058,1.0690142,-0.41905355
330,3.3,1.8506861,3.0512037,1.3913703,0.10140363,1.3335189,-1.6071864
331,3.31,1.84592695,2.9762781499999997,1.3119296999999999,0.420886145,1.30969515,-1.7880025499999999
332,3.32,1.8411678,2.9013526,1.2324891,0.74036866,1.2858714,-1.9688187
333,3.33,1.888759,2.387368,0.3414361,1.9816469,1.1539245,-3.3194418
334,3.34,1.8497099,2.238737,0.11543907,1.9816469,1.1539245,-3.3194418
335,3.35,1.8113929,2.0698495,-0.016961984999999985,1.7284432,1.2938125999999999,-3.7467419
336,3.36,1.7730759,1.900962,-0.14936304,1.4752395,1.4337007,-4.174042
337,3.37,1.7730759,1.900962,-0.14936304,1.0421361,1.7018706,-4.615087
338,3.38,1.65007105,1.55769545,-0.12678774,0.95844755,1.77181465,-4.7128255
339,3.39,1.5270662,1.2144289,-0.10421244,0.874759,1.8417587,-4.810564
340,3.4,1.5270662,1.2144289,-0.10421244,0.7147123,2.0152445,-5.1288247
341,3.41,1.46458755,0.89324955,-0.081393089,0.713796,2.03051615,-5.18807865
342,3.42,1.4021089,0.5720702,-0.058573738,0.7128797,2.0457878,-5.2473326
343,3.43,1.4021089,0.5720702,-0.058573738,0.83199847,1.9456058,-5.5417695
344,3.44,1.3711136499999999,0.2885977011,-0.134719594,0.914159835,1.7409659,-5.72930505
345,3.45,1.3401184,0.0051252022,-0.21086545,0.9963212,1.536326,-5.9168406
346,3.46,1.3332847,0.0051252022,-0.21086545,0.9718866,1.3677273,-6.0939918
347,3.47,1.2645826,-0.1923171089,-0.16900964000000002,0.9224065,1.14018,-6.39087225
348,3.48,1.1958805,-0.38975942,-0.12715383,0.8729264,0.9126327,-6.6877527
349,3.49,1.0906918,-0.49543622,-0.042465962,0.91507614,0.75625116,-6.845356
350,3.5,0.944501515,-0.5577928249999999,0.04649290899999999,1.11238562,0.586736055,-6.8310005
351,3.51,0.79831123,-0.62014943,0.13545178,1.3096951,0.41722095,-6.816645
352,3.52,0.7136234,-0.6406503,0.17084008,1.5210545,0.33841935,-6.7250156
353,3.53,0.5635282,-0.6792113,0.20622836,1.967597,0.19425514,-6.572299
354,3.54,0.41904631000000003,-0.67140145,0.188900305,1.967597,0.19425514,-6.572299
355,3.55,0.27456442,-0.6635916,0.17157225,1.967597,0.19425514,-6.572299
356,3.56,0.05296042,-0.60648227,0.13618395,2.5937338,-0.21563543,-6.240599
357,3.57,-0.26577834,-0.443207965,0.087006412,2.5937338,-0.21563543,-6.240599
358,3.58,-0.5845171,-0.27993366,0.037828874,2.5937338,-0.21563543,-6.240599
359,3.59,-0.68702114,-0.15180361,-0.022453265,2.511267,-1.1594223,-3.6767979
360,3.6,-0.71008457,-0.0978669565,-0.0591838825,2.40192215,-1.2495249,-3.23666945
361,3.61,-0.733148,-0.043930303,-0.0959145,2.2925773,-1.3396275,-2.796541
362,3.62,-0.42612398,0.004881145,-0.32972133,1.0965031,-1.2815952,-0.58093286
363,3.63,-0.36559777000000004,-0.0303851275,-0.332772045,0.8191702750000001,-1.1511755,-0.3203988265
364,3.64,-0.30507156,-0.0656514,-0.33582276,0.54183745,-1.0207558,-0.059864793
365,3.65,-0.30507156,-0.0656514,-0.33582276,0.03359759,-0.675617,0.33169982
366,3.66,-0.24576566,-0.1398448,-0.12690976,-0.7104363,-0.06963864,0.92485
367,3.67,-0.287499445,-0.17803976500000002,-0.04917753100000001,-0.9914343,0.21349739999999998,1.22845
368,3.68,-0.32923323,-0.21623473,0.028554698,-1.2724323,0.49663344,1.53205
369,3.69,-0.47786412,-0.36315718,0.32020313,-1.3720033,0.7067711,2.4788911
370,3.7,-0.5210622,-0.40611124,0.3912238,-1.0262536,0.5375614,3.2381966
371,3.71,-0.5341192800000001,-0.45321429,0.41782603500000004,-0.883922,0.471587965,3.4810155500000004
372,3.72,-0.54717636,-0.50031734,0.44442827,-0.7415904,0.40561453,3.7238345
373,3.73,-0.46151224,-0.6145361,0.40123013,-0.43127087,0.2657264,4.2363505
374,3.74,-0.41111442,-0.642114575,0.375726135,-0.018936834999999985,0.08063421999999998,4.9889364
375,3.75,-0.3607166,-0.66969305,0.35022214,0.3933972,-0.10445796,5.7415223
376,3.76,-0.08956901,-0.75096416,0.20012695,0.61636305,-0.23457226,6.26931
377,3.77,0.25748038,-0.78684056,0.044418417,0.8594874,-0.4569272,7.108028
378,3.78,0.5213062749999999,-0.73888333,0.010860546499999998,0.9129381000000001,-0.5739079,7.49195675
379,3.79,0.78513217,-0.6909261,-0.022697324,0.9663888,-0.6908886,7.8758855
380,3.8,0.78513217,-0.6909261,-0.022697324,0.9828822,-0.72387534,7.9998913
381,3.81,1.140601585,-0.5925710200000001,-0.082735402,0.85429505,-0.49846606,7.6550579
382,3.82,1.496071,-0.49421594,-0.14277348,0.7257079,-0.27305678,7.3102245
383,3.83,1.496071,-0.49421594,-0.14277348,0.7257079,-0.27305678,7.3102245
384,3.84,2.2309272,0.18548352,-0.30507156,0.35308012,0.1777618,6.441574
385,3.85,2.18223785,0.34412071,-0.31166111,0.24831672500000002,0.30054571,6.18867585
386,3.86,2.1335485,0.5027579,-0.31825066,0.14355333,0.42332962,5.9357777
387,3.87,1.9505056,0.7663397,-0.19915071,-0.36713,0.9260717,4.909524
388,3.88,1.8143216,1.0479817,-0.055645052,-0.3115413,0.7501425,4.4819183
389,3.89,1.75330725,1.14597075,-0.062478656,-0.190284537,0.53756141,4.29193915
390,3.9,1.6922929,1.2439598,-0.06931226,-0.069027774,0.32498032,4.10196
391,3.91,1.5729489,1.3103434,-0.14106509,0.021991149,0.06414085,3.8802161
392,3.92,1.41870475,1.4298094,-0.218431235,0.032986722999999996,-0.046731190000000006,3.8142425500000003
393,3.93,1.2644606,1.5492754,-0.29579738,0.043982297,-0.15760323,3.748269
394,3.94,0.9596331,1.8726513,-0.528384,0.043982297,-0.15760323,3.748269
395,3.95,0.916190915,1.9633185499999999,-0.58549337,-0.23548855149999998,-0.46700649000000005,3.7403278
396,3.96,0.87274873,2.0539858,-0.64260274,-0.5149594,-0.77640975,3.7323866
397,3.97,1.5846636,2.625812,-0.41294485,-3.3658676,-0.09162979,4.492303
398,3.98,1.5846636,2.625812,-0.41294485,-3.3658676,-0.09162979,4.492303
399,3.99,1.5846636,2.625812,-0.41294485,-3.3658676,-0.09162979,4.492303
400,4.0,2.2868164,2.902817,0.08346757,-3.9309177,0.11301007,3.5521815
401,4.01,2.5037832,3.0577934,0.469078,-3.8484511,0.14110987,2.7189612
402,4.02,2.4613173,3.2011769,0.9110657499999999,-3.43825505,0.08582656599999999,1.9404134499999999
403,4.03,2.4188514,3.3445604,1.3530535,-3.028059,0.030543262,1.1618657
404,4.04,2.2738814,3.303315,1.4160202,-1.4587462,-0.06414085,-0.35246924
405,4.05,2.0073707,2.9979992,1.1756238,-0.8472701,-0.014049901,-0.82772243
406,4.06,1.8614245500000002,2.78091025,0.974642615,-0.5045746950000001,0.0803287795,-1.118494265
407,4.07,1.7154784,2.5638213,0.77366143,-0.16187929,0.17470746,-1.4092661
408,4.08,1.5544006,2.3165915,0.5835409,0.9456194,0.88270026,-2.7446175
409,4.09,1.37721505,2.01188595,0.41526342,1.153619,1.09772483,-3.13832025
410,4.1,1.2000295,1.7071804,0.24698594,1.3616186,1.3127494,-3.532023
411,4.11,1.1360865,1.5397571,0.16717921,1.450805,1.3836098,-3.694513
412,4.12,1.15853975,1.334627,0.114706905,1.5155566999999999,1.41354215,-3.9190060000000004
413,4.13,1.180993,1.1294969,0.0622346,1.5803084,1.4434745,-4.143499
414,4.14,1.2207743,0.97696114,0.07614586,1.7623463,1.4300356,-4.387845
415,4.15,1.1966126,0.8561529,0.07809832,1.9333885,1.4025466,-4.67373
416,4.16,1.1966126,0.8561529,0.07809832,1.9333885,1.4025466,-4.67373
417,4.17,1.15500085,0.61185156,-0.00463709000000001,2.2455406499999997,1.09741942,-5.1062227
418,4.18,1.1133891,0.36755022,-0.0873725,2.5576928,0.79229224,-5.5387154
419,4.19,1.1048471,0.31678631,-0.11031388,2.6279424000000002,0.501214945,-5.7338867
420,4.2,1.0963051,0.2660224,-0.13325526,2.698192,0.21013765,-5.929058
421,4.21,0.9874556,0.09615856,-0.24747404,2.6829202,-0.1282817,-6.082996
422,4.22,0.9473081999999999,0.028066585000000005,-0.291160285,2.4480424999999997,-0.45540005,-6.1721824
423,4.23,0.9071608,-0.04002539,-0.33484653,2.2131648,-0.7825184,-6.2613688
424,4.24,0.88373125,-0.06882414,-0.36950266,1.9162843,-0.820392,-6.242432
425,4.25,0.899839075,-0.11190024500000001,-0.38207161,1.49112205,-0.6685920000000001,-6.2384615
426,4.26,0.9159469,-0.15497635,-0.39464056,1.0659598,-0.516792,-6.234491
427,4.27,0.9654905,-0.25674823,-0.3214234,1.0659598,-0.516792,-6.234491
428,4.28,0.8891005,-0.2884757,-0.20012695,0.7098254,-0.14172074,-6.3438354
429,4.29,0.66566612,-0.289940035,-0.1015278185,0.689361425,-0.09346238500000001,-6.3899557
430,4.3,0.44223174,-0.29140437,-0.002928687,0.66889745,-0.04520403,-6.436076
431,4.31,-0.111290105,-0.24967057,0.07443746,0.8979719,-0.17715092,-6.243654
432,4.32,-0.45614300249999995,-0.139112634,0.096524635,1.0775663,-0.32070425999999996,-5.6731055
433,4.33,-0.8009959,-0.028554698,0.11861181,1.2571607,-0.4642576,-5.102557
434,4.34,-0.96671075,0.08517598,0.14643435,1.3524556,-0.7257079,-4.3780713
435,4.35,-0.97744924,0.13325526,0.14338362500000001,1.4104878,-0.9413433,-3.86372265
436,4.36,-0.98818773,0.18133454,0.1403329,1.46852,-1.1569787,-3.349374
437,4.37,-0.93059033,0.23575929,0.08322352,1.5436565,-1.5344934,-2.411696
438,4.38,-0.78659654,0.25137895,-0.021965152,0.883922,-1.4349225,-0.04337143
439,4.39,-0.5204521,0.1837751,-0.148386811,0.883922,-1.4349225,-0.04337143
440,4.4,-0.25430766,0.11617125,-0.27480847,0.883922,-1.4349225,-0.04337143
441,4.41,-0.1849954,0.08395569,-0.29897013,0.535118,-1.0403035,0.28221974
442,4.42,-0.1849954,0.08395569,-0.29897013,-0.49174652,0.017104227,1.2718215
443,4.43,-0.23136626999999998,-0.0006101450000000064,-0.1891443675,-0.73792521,0.17806721350000002,1.67682515
444,4.44,-0.27773714,-0.08517598,-0.079318605,-0.9841039,0.3390302,2.0818288
445,4.45,-0.25430764,-0.127519915,-0.007809832500000002,-1.1206323,0.421497,2.5766296
446,4.46,-0.23087814,-0.16986385,0.06369894,-1.2571607,0.5039638,3.0714304
447,4.47,-0.23087814,-0.16986385,0.06369894,-1.2571607,0.5039638,3.0714304
448,4.48,-0.158515175,-0.23856595000000003,0.09579246999999999,-1.3084733499999999,0.5919284,3.7119226999999997
449,4.49,-0.08615221,-0.30726805,0.127886,-1.359786,0.679893,4.352415
450,4.5,0.38731885,-0.5095915,0.14252943,-1.3316863,0.87964594,5.3279667
451,4.51,0.48006064,-0.5337532,0.13716017,-1.3048081,0.9443977,5.6230145
452,4.52,0.60160112,-0.53948855,0.12861817,-1.2773191499999998,0.9666942700000001,5.8401771
453,4.53,0.7231416,-0.5452239,0.12007617,-1.2498302,0.98899084,6.0573397
454,4.54,0.9872115,-0.46785772,0.11690342,-1.1429288,0.8894198,6.272364
455,4.55,1.09837965,-0.42258511,0.133255255,-1.035722,0.7583892,6.250984
456,4.56,1.2095478,-0.3773125,0.14960709,-0.9285152,0.6273586,6.229604
457,4.57,1.3454876,-0.24991462,0.13105874,-0.35063666,0.17837265,5.67616
458,4.58,1.34133865,-0.154244179,0.13227903000000002,-0.26542095,0.128587135,5.601329
459,4.59,1.3371897,-0.058573738,0.13349932,-0.18020524,0.07880162,5.526498
460,4.6,1.308757,-0.004148974,0.123248915,-0.06811147149999999,0.009162980000000001,5.45044525
461,4.61,1.2803243,0.05027579,0.11299851,0.043982297,-0.06047566,5.3743925
462,4.62,1.359887,0.3904916,0.026846299,0.66950834,-0.539394,5.362175
463,4.63,1.496559,0.5332651,-0.042465962,0.66950834,-0.539394,5.362175
464,4.64,1.6814323500000001,0.754503,-0.255894011,0.803898695,-0.5852089,5.215262
465,4.65,1.8663057,0.9757409,-0.46932206,0.93828905,-0.6310238,5.068349
466,4.66,1.8663057,0.9757409,-0.46932206,0.79290307,-0.50579643,4.7665815
467,4.67,1.6866796000000002,1.0925223,-0.53716998,0.350331208,-0.36651915,4.2073344
468,4.68,1.5070535,1.2093037,-0.6050179,-0.092240654,-0.22724187,3.6480873
469,4.69,1.1785524,1.3286476,-0.5379022,-0.43004912,-0.27550024,3.5295794
470,4.7,0.8332114,1.5961344,-0.41245672,-1.0189233,-0.48075095,3.9840631
471,4.71,0.8710403,1.6558064,-0.381949575,-1.11727255,-0.514959425,4.1150937
472,4.72,0.9088692,1.7154784,-0.35144243,-1.2156218,-0.5491679,4.2461243
473,4.73,1.359887,2.1008449,-0.3270367,-1.7024814,-0.6114761,4.727486
474,4.74,2.4732761,2.7141607,-0.27187976,-2.5912905,-0.28527406,4.0640864
475,4.75,2.4732761,2.7141607,-0.27187976,-2.5912905,-0.28527406,4.0640864
476,4.76,2.4732761,2.7141607,-0.27187976,-2.5912905,-0.28527406,4.0640864
477,4.77,2.6599798,2.8764586,-0.16595893,-2.860682,-0.095294975,3.3115005
478,4.78,2.6677897,3.0011718,-0.0078098318,-2.4941628,0.61636305,0.7348709
479,4.79,2.4325186,3.13711175,0.5060526840999999,-2.2766947999999996,0.6499606250000001,0.5852089149999999
480,4.8,2.1972475,3.2730517,1.0199152,-2.0592268,0.6835582,0.43554693
481,4.81,2.2868164,3.2132578,1.0838583,-1.3921618,0.73914695,0.01160644
482,4.82,2.3056087,2.793235,0.71948075,0.34147367,0.8185594,-1.6841555
483,4.83,2.22201915,2.6743793,0.5994046,0.509461635,0.8466592,-1.9972238500000001
484,4.84,2.1384296,2.5555236,0.47932845,0.6774496,0.874759,-2.3102922
485,4.85,1.9336655,2.340509,0.2894519,0.8405506,1.0067059,-2.8515189
486,4.86,1.7319522,2.16234715,0.1533899825,0.7489208,1.1688906000000001,-3.24949765
487,4.87,1.5302389,1.9841853,0.017328065,0.657291,1.3310753,-3.6474764
488,4.88,1.5302389,1.9841853,0.017328065,0.657291,1.3310753,-3.6474764
489,4.89,1.52999485,1.7020552,-0.1505833175,-0.012828170000000028,1.77547985,-3.8658607
490,4.9,1.5297508,1.4199251,-0.3184947,-0.68294734,2.2198844,-4.084245
491,4.91,1.5443943,1.3039979,-0.25943285,-1.0164797,2.792265,-4.3285913
492,4.92,1.5691661,1.1432862,-0.13484162724999998,-1.1472049000000002,3.2974505499999998,-4.5384235
493,4.93,1.5939379,0.9825745,-0.0102504045,-1.2779301,3.8026361,-4.7482557
494,4.94,1.6337193,0.63162017,0.38390204,-0.7079928,4.170988,-5.4189854
495,4.95,1.6478745,0.47737598,0.5252112,-0.25411993,4.0097194,-5.6859336
496,4.96,1.64994905,0.38536638999999995,0.5708499,0.4850269850000001,3.4892621999999998,-6.0029726
497,4.97,1.6520236,0.2933568,0.6164886,1.2241739,2.968805,-6.3200116
498,4.98,1.6520236,0.2933568,0.6164886,1.2241739,2.968805,-6.3200116
499,4.99,1.6520236,0.2933568,0.6164886,1.2241739,2.968805,-6.3200116
500,5.0,1.5978427,-0.5127643,0.17816179,3.1813862,0.7861836,-7.2918983
501,5.01,1.50144015,-0.6343048,-0.015619665000000005,3.2498031000000003,0.623693425,-7.40307595
502,5.02,1.4050376,-0.7558453,-0.20940112,3.31822,0.46120325,-7.5142536
503,5.03,1.2954559,-0.7995315,-0.26943922,2.9907963,0.172264,-7.946746
504,5.04,1.125348,-0.8107582,-0.2630937,2.7629435,0.15882497,-7.9943933
505,5.05,0.94157284,-0.78537625,-0.2072046,2.606562,0.116675265,-7.9669046
506,5.06,0.58402898,-0.68824145,-0.128130055,2.4846944,-0.11270463249999998,-7.6526143
507,5.07,0.22648512,-0.59110665,-0.04905551,2.3628268,-0.34208453,-7.338324
508,5.08,-0.12471326499999999,-0.47347105999999994,-0.108727505,2.3353379,-0.41966441499999996,-7.1846915
509,5.09,-0.47591165,-0.35583547,-0.1683995,2.307849,-0.4972443,-7.031059
510,5.1,-0.47591165,-0.35583547,-0.1683995,1.563815,-1.065349,-4.986493
511,5.11,-0.75364876,-0.10689708,-0.16400647,1.2907583,-1.187522,-4.2907176
512,5.12,-0.70471528,-0.0528383969,-0.16229807,0.9138544,-1.22875545,-3.37533595
513,5.13,-0.6557818,0.0012202862,-0.16058967,0.5369505,-1.2699889,-2.4599543
514,5.14,-0.3956168,-0.14716652,-0.102992155,-0.118507855,-0.8881981,-1.2712106
515,5.15,-0.40684342500000004,-0.15253578,-0.0705325425,-0.38056902750000005,-0.562606905,-0.77060651
516,5.16,-0.41807005,-0.15790504,-0.03807293,-0.6426302,-0.23701571,-0.27000242
517,5.17,-0.41807005,-0.15790504,-0.03807293,-0.95722586,0.17470746,0.6133087
518,5.18,-0.3773125,-0.27871338,0.06321083,-1.0995574,0.32253686,1.0555751
519,5.19,-0.35913025,-0.32703671,0.113120535,-1.15881135,0.39248092999999995,1.37230875
520,5.2,-0.340948,-0.37536004,0.16303024,-1.2180653,0.462425,1.6890424
521,5.21,-0.3756041,-0.4720067,0.32288775,-0.9492846,0.41905355,2.7592783
522,5.22,-0.3756041,-0.4720067,0.32288775,-0.86834495,0.392175475,2.90496965
523,5.23,-0.3756041,-0.4720067,0.32288775,-0.7874053,0.3652974,3.050661
524,5.24,-0.29823795,-0.5588911,0.30897648499999997,-0.3869831325,0.155465197,3.5656204
525,5.25,-0.2208718,-0.6457755,0.29506522,0.013439035,-0.054367006,4.0805798
526,5.26,-0.15180361,-0.69312257,0.23575929,0.013439035,-0.054367006,4.0805798
527,5.27,-0.08322352,-0.72558224,0.16742326,0.42943826,-0.4605924,4.8075094
528,5.28,0.007321717,-0.7585299,0.079562664,0.42943826,-0.4605924,4.8075094
529,5.29,0.1880461085,-0.7750037999999999,-0.013301115499999988,0.42943826,-0.4605924,4.8075094
530,5.3,0.3687705,-0.7914777,-0.106164895,0.42943826,-0.4605924,4.8075094
531,5.31,0.5256993,-0.78415596,-0.14814276,0.7611381,-1.4575244,6.3114595
532,5.32,0.7657296499999999,-0.72375178,-0.18109049,0.721737275,-1.4605788,6.4959409
533,5.33,1.00576,-0.6633476,-0.21403822,0.68233645,-1.4636332,6.6804223
534,5.34,1.3218141,-0.48542988,-0.2186753,0.47891834,-1.0042624,6.7928214
535,5.35,1.3900280500000002,-0.42197499,-0.214770375,0.43829581,-0.89675015,6.75616955
536,5.36,1.458242,-0.3585201,-0.21086545,0.39767328,-0.7892379,6.7195177
537,5.37,1.458242,-0.3585201,-0.21086545,0.31703907,-0.6047566,6.586349
538,5.38,1.590521,-0.06418706000000002,-0.145214057,0.30176743500000003,-0.4764749,6.3487225
539,5.39,1.7228,0.23014598,-0.079562664,0.2864958,-0.3481932,6.111096
540,5.4,1.7313421,0.42465958,-0.076633975,0.3304781,-0.35613444,5.9852576
541,5.41,1.74439915,0.534119265,-0.09701275449999999,0.3399465,-0.37048977,5.9632666
542,5.42,1.7574562,0.64357895,-0.117391534,0.3494149,-0.3848451,5.9412756
543,5.43,1.9404991,1.1883147,-0.31776255,-0.061086524,-0.37812558,5.7910028
544,5.44,2.0273836,1.3842927,-0.27944556,-0.23701571,-0.41050145,5.6920424
545,5.45,2.0642363,1.6106558500000001,-0.236857565,-0.429743705,-0.50090949,5.475796
546,5.46,2.101089,1.837019,-0.19426957,-0.6224717,-0.59131753,5.2595496
547,5.47,1.956851,2.3283062,-0.298482,-1.1184943,-0.47403142,4.99871
548,5.48,2.311222,2.757603,-0.588178,-3.0909781,0.9615019,4.9791627
549,5.49,2.43154235,2.81556655,-0.4582175,-3.0909781,0.9615019,4.9791627
550,5.5,2.5518627,2.8735301,-0.328257,-3.0909781,0.9615019,4.9791627
551,5.51,2.5518627,2.8735301,-0.328257,-3.0909781,0.9615019,4.9791627
552,5.52,2.5518627,2.8735301,-0.328257,-3.7384953,1.2583824,2.933375
553,5.53,2.6048231,3.11148595,0.41587355000000004,-3.45627555,1.10047375,2.44285015
554,5.54,2.6577835,3.3494418,1.1600041,-3.1740558,0.9425651,1.9523253
555,5.55,2.1879733,3.4470644,1.5978427,-0.45570546,0.21563543,-0.095294975
556,5.56,2.01286225,3.2503542999999997,1.19636858,-0.016798790000000008,0.20494528499999998,-0.35430183750000005
557,5.57,1.8377512,3.0536442,0.79489446,0.42210788,0.19425514,-0.6133087
558,5.58,1.8150537,2.8339927,0.55669457,1.6383406,0.47036624,-2.0836613
559,5.59,1.735003,2.6394792,0.36779428,1.7464638,0.6041457,-2.4587326
560,5.6,1.68143245,2.5313616999999997,0.27541861,1.75104525,0.66706485,-2.6691757999999997
561,5.61,1.6278619,2.4232442,0.18304294,1.7556267,0.729984,-2.879619
562,5.62,1.5500076,2.242154,0.067359805,1.6517797,0.8338311,-3.2119296
563,5.63,1.432616,1.7635576,-0.061746486,1.138042,0.9639453,-3.8637226
564,5.64,1.45262875,1.63786815,-0.037462788500000004,0.9819659000000001,0.95569865,-4.038430099999999
565,5.65,1.4726415,1.5121787,-0.013179091,0.8258898,0.947452,-4.2131376
566,5.66,1.5151074,1.244448,0.041733786,0.7440339,0.9462303,-4.3640213
567,5.67,1.5502517,1.1141213,0.049299564,0.6395759,0.9957104,-4.785518
568,5.68,1.5630647,1.0299215800000001,0.038561045,0.59620445,1.097114,-5.116301699999999
569,5.69,1.5758777,0.94572186,0.027822526,0.552833,1.1985176,-5.4470854
570,5.7,1.5163277,0.45736328,0.014399378,0.552833,1.1985176,-5.4470854
571,5.71,1.4982674,0.27432033,0.050763905,0.59437186,1.2742649,-5.885687
572,5.72,1.4499441499999999,0.133987421,0.0667496545,0.70493848,1.2541063499999998,-6.07688765
573,5.73,1.4016209,-0.006345488,0.082735404,0.8155051,1.2339478,-6.2680883
574,5.74,1.2712942,-0.2762728,0.06833603,1.2180653,0.9584476,-6.6792006
575,5.75,1.2060089,-0.36181487,0.06333285500000001,1.2791518,0.89430673,-6.7149363
576,5.76,1.1407236,-0.44735694,0.05832968,1.3402383,0.83016586,-6.750672
577,5.77,1.1407236,-0.44735694,0.05832968,1.3402383,0.83016586,-6.750672
578,5.78,0.9340071,-0.5696296,0.023429496,1.6572775,0.48563787,-6.796487
579,5.79,0.82906245,-0.57487685,0.025015869000000003,1.68446095,0.455705475,-6.779688
580,5.8,0.7241178,-0.5801241,0.026602242,1.7116444,0.42577308,-6.762889
581,5.81,0.5791479,-0.55718267,0.020012695,1.7489072,0.41172317,-6.7079115
582,5.82,0.306047815,-0.501171545,0.0323375855,1.8029688,0.394313515,-6.56893945
583,5.83,0.03294773,-0.44516042,0.044662476,1.8570304,0.37690386,-6.4299674
584,5.84,-0.18645974,-0.37291947,0.01854835,1.9932534,0.3744604,-5.900347
585,5.85,-0.43808278,-0.27383223,-0.020988923,2.0329595,0.3371976,-5.3823338
586,5.86,-0.534973515,-0.223068325,-0.0319714995,2.0189095999999997,0.260534015,-5.01856355
587,5.87,-0.63186425,-0.17230442,-0.042954076,2.0048597,0.18387043,-4.6547933
588,5.88,-0.6677406,0.08859278,-0.20476402,1.5418239,-0.62125,-2.149024
589,5.89,-0.25650415,-0.0078098318,-0.358032,0.4886922,-0.82344633,-0.52839845
590,5.9,-0.2374677,-0.0334358409,-0.349001875,0.28191431,-0.72082099,-0.35369098
591,5.91,-0.21843125,-0.05906185,-0.33997175,0.07513642,-0.61819565,-0.17898351
592,5.92,-0.23014598,-0.10396838,-0.29433304,-0.30298916,-0.35430184,0.15088372
593,5.93,-0.28310639,-0.18816813999999998,-0.21428227,-0.7360926299999999,-0.07483099500000001,0.6869179599999999
594,5.94,-0.3360668,-0.2723679,-0.1342315,-1.1691961,0.20463985,1.2229522
595,5.95,-0.3360668,-0.2723679,-0.1342315,-1.3976597,0.30665436,1.6316211
596,5.96,-0.40269446,-0.35876414,-0.0046370877,-1.5259414,0.35185838,1.958434
597,5.97,-0.40232837,-0.45455662,0.05088594115,-1.6560557,0.34300083000000003,2.6679539
598,5.98,-0.40196228,-0.5503491,0.10640897,-1.78617,0.33414328,3.3774738
599,5.99,-0.3790209,-0.60721445,0.1300825,-1.7941113,0.29749137,4.255287
600,6.0,-0.35827604,-0.6339387,0.148508825,-1.7941113,0.29749137,4.255287
601,6.01,-0.33753118,-0.66066295,0.16693515,-1.7941113,0.29749137,4.255287
602,6.02,-0.01854835,-0.7480355,0.22355644,-1.4837917,0.11911872,5.453805
603,6.03,0.013301119999999996,-0.75474705,0.211597635,-1.32802105,-0.066278875,5.76992775
604,6.04,0.04515059,-0.7614586,0.19963883,-1.1722504,-0.25167647,6.0860505
605,6.05,0.21403822,-0.79513854,0.17742962,-0.9602802,-0.54000485,6.577186
606,6.06,0.36059458499999997,-0.794772445,0.14619029,-0.8432995000000001,-0.5644394749999999,6.7964865
607,6.07,0.50715095,-0.79440635,0.11495096,-0.7263188,-0.5888741,7.015787
608,6.08,0.8341876,-0.5708499,-0.08981306,-0.63407815,-0.41538838,7.2564683
609,6.09,0.90166945,-0.5197199,-0.15949141,-0.799622625,-0.26358835999999997,7.44094965
610,6.1,0.9691513,-0.4685899,-0.22916976,-0.9651671,-0.11178834,7.625431
611,6.11,1.3620834,-0.29701766,-0.4724948,-1.8649716,0.29993483,7.9210896
612,6.12,1.6540979,-0.223556435,-0.419046275,-2.5595253,0.52106805,7.893906100000001
613,6.13,1.9461124,-0.15009521,-0.36559775,-3.254079,0.74220127,7.8667226
614,6.14,2.4908483,0.064919226,0.2689511,-3.6603045,0.7819075,7.600385
615,6.15,2.4908483,0.064919226,0.2689511,-3.9315288,0.63713247,7.0341134
616,6.16,2.5040273500000003,0.397691313,0.7911116,-3.8673878999999998,0.454789185,6.67584085
617,6.17,2.5172064,0.7304634,1.3132721,-3.803247,0.2724459,6.3175683
618,6.18,2.5172064,0.7304634,1.3132721,-1.9144517,-0.70249504,4.488638
619,6.19,2.079856,1.0557917,1.1656175,-1.2198979,-0.6927212,4.0640864
620,6.2,1.9740571,1.0965492000000001,1.04908012,-0.9911288500000001,-0.60811635,3.89426585
621,6.21,1.8682582,1.1373067,0.93254274,-0.7623598,-0.5235115,3.7244453
622,6.22,1.6786258,1.5102262,0.737541,-0.2932153,-0.2938262,3.1202996
623,6.23,1.7472057,1.6488507,0.8073414,-0.07574729,-0.64934975,2.8490756
624,6.24,1.7472057,1.6488507,0.8073414,0.03359759,-0.8234463249999999,2.7305677
625,6.25,1.7472057,1.6488507,0.8073414,0.14294247,-0.9975429,2.6120598
626,6.26,1.94416,2.0966957,0.7353445,0.66950834,-1.7165314,2.0066924
627,6.27,2.0390983,2.4405725,0.33313814,0.4428773,-1.7140878,1.8784106
628,6.28,2.1186609499999998,2.4837705999999997,0.25589402,0.2031126935,-1.53724235,1.8716911
629,6.29,2.1982236,2.5269687,0.1786499,-0.036651913,-1.3603969,1.8649716
630,6.3,2.8818278,2.7346616,0.4702983,-1.0238101,-0.2687807,1.5851953
631,6.31,2.8818278,2.7346616,0.4702983,-1.0238101,-0.2687807,1.5851953
632,6.32,2.8818278,2.7346616,0.4702983,-1.0238101,-0.2687807,1.5851953
633,6.33,3.3489537,2.5223315,1.1238836,-0.7293731,1.3396275,-0.9816604
634,6.34,3.1854353,2.3607657,1.0965492,-0.21319197,1.4312572,-1.7574593
635,6.35,2.8532734,2.152829,1.0001466,0.26389378,1.3793337,-2.4538457
636,6.36,2.31024595,1.88778285,0.83150305,0.7617489399999999,1.2275337,-2.97766265
637,6.37,1.7672185,1.6227367,0.6628595,1.2596041,1.0757337,-3.5014796
638,6.38,1.5187683,1.4819156,0.53936654,1.2596041,1.0757337,-3.5014796
639,6.39,1.3957634,1.380876,0.43149322,1.5851953,0.93828905,-3.591277
640,6.4,1.3885637000000002,1.2886223,0.345096945,1.6190983,0.878729675,-3.6282341999999996
641,6.41,1.381364,1.1963686,0.25870067,1.6530013,0.8191703,-3.6651914
642,6.42,1.4382293,1.0267489,0.17401282,1.5809193,0.84421575,-3.9962804
643,6.43,1.4291992,0.9369358,0.15863721,1.5161675,0.93462384,-4.234518
644,6.44,1.33023405,0.7562114,0.17474498500000002,1.4773776,1.10230637,-4.569272
645,6.45,1.2312689,0.575487,0.19085276,1.4385877,1.2699889,-4.904026
646,6.46,1.1609803,0.46102414,0.20110317,1.4666874,1.3603969,-5.0793447
647,6.47,1.0994779,0.32459614,0.22794947,1.5222762,1.4147639,-5.226563
648,6.48,1.04932413,0.22111586249999998,0.246741875,1.6102408000000001,1.4211779500000001,-5.326439499999999
649,6.49,0.99917036,0.117635585,0.26553428,1.6982054,1.427592,-5.426316
650,6.5,0.9698835,-0.071020655,0.26284966,1.9633209,1.2907583,-5.5600953
651,6.51,0.975252775,-0.15851518250000002,0.226973245,2.00852495,1.2592987,-5.582697400000001
652,6.52,0.98062205,-0.24600971,0.19109683,2.053729,1.2278391,-5.6052995
653,6.53,0.98062205,-0.24600971,0.19109683,2.1416936,1.1533136,-5.660888
654,6.54,1.022844,-0.53887844,0.14130914,2.239432,1.1239921,-5.8899627
655,6.55,0.9794017,-0.60721445,0.1598575,2.3970351,1.1459832,-6.206391
656,6.56,0.93608155,-0.632718425,0.17279253500000002,2.47064445,1.11177475,-6.27969485
657,6.57,0.8927614,-0.6582224,0.18572757,2.5442538,1.0775663,-6.3529987
658,6.58,0.5047104,-0.6887296,0.23575929,3.1386256,0.47342056,-6.4721174
659,6.59,0.32898918,-0.6648119,0.2328306,3.3915238,0.1386664,-6.413474
660,6.6,0.255283885,-0.6511447,0.21879731,3.4800993,-0.007635819999999988,-6.36949175
661,6.61,0.18157859,-0.6374775,0.20476402,3.5686748,-0.15393804,-6.3255095
662,6.62,0.014643434,-0.60916686,0.1415532,3.749491,-1.3897184,-5.5912495
663,6.63,-0.30873242,-0.5459561,-0.042465962,3.749491,-1.3897184,-5.5912495
664,6.64,-0.54363753,-0.3814615,-0.22355643099999997,2.9394836499999997,-1.7250834,-4.4758096
665,6.65,-0.77854264,-0.2169669,-0.4046469,2.1294763,-2.0604484,-3.3603697
666,6.66,-0.7797629,-0.17108414,-0.4131889,1.6420058,-1.9761491,-2.8130345
667,6.67,-0.76926845,-0.13862452,-0.39244407,0.9999864,-1.7482964,-2.111761
668,6.68,-0.792331845,-0.130204545,-0.36364529999999995,0.221133225,-1.2632693750000001,-1.2113456999999999
669,6.69,-0.81539524,-0.12178457,-0.33484653,-0.55771995,-0.77824235,-0.3109304
670,6.7,-0.8031924,-0.20061506,-0.25723633,-1.5876387,-0.12156218,1.0201449
671,6.71,-0.7908675199999999,-0.22258021500000003,-0.22392252,-1.7974709500000001,0.0009162999999999949,1.3326025000000001
672,6.72,-0.77854264,-0.24454537,-0.19060871,-2.0073032,0.12339478,1.6450601
673,6.73,-0.70459324,-0.31263736,0.008053889,-2.6145031,0.31337386,3.2143729
674,6.74,-0.62503062,-0.35193058,0.0794406345,-2.62885855,0.299629405,3.4043519499999997
675,6.75,-0.545468,-0.3912238,0.15082738,-2.643214,0.28588495,3.594331
676,6.76,-0.545468,-0.3912238,0.15082738,-2.615725,0.24617869,4.039041
677,6.77,-0.322887765,-0.46736965,0.19219508000000002,-2.4569,0.14477506,4.4602325
678,6.78,-0.10030753,-0.5435155,0.23356278,-2.298075,0.04337143,4.881424
679,6.79,-0.028554698,-0.5637722,0.24576566,-2.0952678,-0.07819075,5.108055
680,6.8,0.026846299,-0.59281504,0.24845028,-1.853976,-0.23457226,5.3291883
681,6.81,0.0639429995,-0.6181969949999999,0.24710797,-1.4446963,-0.53603428,5.67402165
682,6.82,0.1010397,-0.64357895,0.24576566,-1.0354166,-0.8374963,6.018855
683,6.83,0.1010397,-0.64357895,0.24576566,-1.0354166,-0.8374963,6.018855
684,6.84,0.7919658,-0.70361704,0.014887493,-0.05131268,-1.5632042,6.4256916
685,6.85,0.7919658,-0.70361704,0.014887493,0.020463987000000003,-1.6340645999999999,6.4043112
686,6.86,0.7919658,-0.70361704,0.014887493,0.092240654,-1.704925,6.3829308
687,6.87,0.7919658,-0.70361704,0.014887493,0.092240654,-1.704925,6.3829308
688,6.88,1.3008251,-0.26870704,0.1044565,0.6041457,-1.9120082,6.494108
689,6.89,1.3961294,-0.213184015,0.10335824299999999,0.6829473349999999,-1.8307631,6.46478665
690,6.9,1.4914337,-0.15766099,0.102259986,0.76174897,-1.749518,6.4354653
691,6.91,1.7020552,-0.01586372,0.060770255,0.8454375,-1.5662584,6.3261204
692,6.92,1.7839365,0.056377225,0.035754387,0.8686503999999999,-1.4230105499999999,6.209445199999999
693,6.93,1.8658178,0.12861817,0.010738519,0.8918633,-1.2797627,6.09277
694,6.94,2.0825405,0.6811638,-0.2037878,0.5174029,-0.44715336,5.376225
695,6.95,2.0973059999999997,0.8138089,-0.24393521,0.10048736000000003,-0.163406455,5.1413475
696,6.96,2.1120715,0.946454,-0.28408262,-0.31642818,0.12034045,4.90647
697,6.97,2.0918145,1.0672623,-0.24527754,-0.66706485,0.35979962,4.713436
698,6.98,2.0918145,1.0672623,-0.24527754,-1.5454891,0.79290307,4.2717805
699,6.99,1.93439765,1.2969202000000002,-0.016839960000000015,-1.8408424,0.8426885850000001,4.17618015
700,7.0,1.7769808,1.5265781,0.21159762,-2.1361957,0.8924741,4.0805798
701,7.01,1.78674305,1.57307095,0.31556600999999995,-2.24584605,0.88758718,4.0976839
702,7.02,1.7965053,1.6195638,0.4195344,-2.3554964,0.88270026,4.114788
703,7.03,2.3561287,2.0361695,1.0384636,-1.9566014,0.80878556,3.935194
704,7.04,2.6180020500000003,2.31097805,1.048714,-1.3784174500000002,0.7400632300000001,3.246138
705,7.05,2.8798754,2.5857866,1.0589644,-0.8002335,0.6713409,2.557082
706,7.06,2.9601703,2.7251432,0.98892,-0.8002335,0.6713409,2.557082
707,7.07,2.9839659000000003,2.8132479000000004,0.9562163,-0.528703875,0.73364915,1.6869044
708,7.08,3.0077615,2.9013526,0.9235126,-0.25717425,0.7959574,0.8167268
709,7.09,2.8813398,2.8676727,0.8507836,0.061086524,0.838718,-0.21380283
710,7.1,2.8813398,2.8676727,0.8507836,0.145691362,0.88147855,-0.497244315
711,7.11,2.8813398,2.8676727,0.8507836,0.2302962,0.9242391,-0.7806858
712,7.12,2.472544,2.452043,0.5933032,0.46792278,1.2925909,-1.7690657
713,7.13,2.059111,2.0864456,0.47103047,0.75686204,1.6982054,-2.7122416
714,7.14,1.9293946000000002,1.9207306499999999,0.458827615,0.94623027,1.6600263499999999,-2.9883528
715,7.15,1.7996782,1.7550157,0.44662476,1.1355985,1.6218473,-3.264464
716,7.16,1.6876558,1.3347491,0.345341,1.1355985,1.6218473,-3.264464
717,7.17,1.6876558,1.3347491,0.345341,2.0018053,0.66950834,-4.048204
718,7.18,1.68838805,1.20576485,0.22843758,2.1377228500000003,0.45967611,-4.28063825
719,7.19,1.6891203,1.0767806,0.11153416,2.2736404,0.24984388,-4.5130725
720,7.2,1.67106,0.9545079,-0.010006348,2.257147,0.14660765,-4.7928486
721,7.21,1.6346955,0.8092938,-0.13252309,2.1300871,0.1600467,-5.0573535
722,7.22,1.52084275,0.6094109249999999,-0.173768765,1.81182635,0.3200934,-5.34446
723,7.23,1.40699,0.40952805,-0.21501444,1.4935656,0.4801401,-5.6315665
724,7.24,1.3169329,0.30946457,-0.17889395,1.0586295,0.77274454,-5.8453693
725,7.25,1.2216285500000001,0.1585151725,-0.123859045,1.0586295,0.77274454,-5.8453693
726,7.26,1.1263242,0.007565775,-0.06882414,1.0586295,0.77274454,-5.8453693
727,7.27,1.1124129,-0.19158493,0.00024405724,0.8943067,0.93645644,-5.935167
728,7.28,1.08068545,-0.275052515,0.04673696362,0.9523389,0.95233892,-6.031988999999999
729,7.29,1.048958,-0.3585201,0.09322987,1.0103711,0.9682214,-6.128811
730,7.3,1.0069802,-0.4339338,0.13862452,1.110553,0.95905846,-6.20578
731,7.31,0.95426387,-0.5171573,0.18353106,1.2895365,0.92057395,-6.306573
732,7.32,0.889344605,-0.5845171,0.21232981,1.5289957,0.845132075,-6.39056685
733,7.33,0.82442534,-0.6518769,0.24112856,1.7684549,0.7696902,-6.4745607
734,7.34,0.61673266,-0.7307074,0.24698594,2.257147,0.56077427,-6.5625253
735,7.35,0.48689422,-0.7385172,0.2421048,2.538756,0.3915646,-6.5643578
736,7.36,0.2600430025,-0.73265985,0.2506468,2.89825015,0.0488692,-6.413779399999999
737,7.37,0.033191785,-0.7268025,0.2591888,3.2577443,-0.2938262,-6.263201
738,7.38,-0.1615659,-0.70142055,0.23844394,3.5106425,-0.6096435,-6.0536747
739,7.39,-0.1615659,-0.70142055,0.23844394,3.7293322,-1.2290609,-5.3688946
740,7.4,-0.48298927999999997,-0.600868945,0.09091132999999998,3.6471709,-1.43217355,-5.0613238
741,7.41,-0.80441266,-0.50031734,-0.05662128,3.5650096,-1.6352862,-4.753753
742,7.42,-1.1277885,-0.20061506,-0.23331872,2.1294763,-2.4373524,-2.3811526
743,7.43,-1.10289465,-0.17486701500000001,-0.214038205,1.82770885,-2.430022,-1.9052886
744,7.44,-1.0780008,-0.14911897,-0.19475769,1.5259414,-2.4226916,-1.4294246
745,7.45,-0.895202,-0.13471961,-0.1381364,1.5259414,-2.4226916,-1.4294246
746,7.46,-0.81624947,-0.15997952999999998,-0.13569583,0.57726766,-1.62276355,0.05345069999999996
747,7.47,-0.73729694,-0.18523945,-0.13325526,-0.37140608,-0.8228355,1.536326
748,7.48,-0.6562699,-0.2272173,-0.13325526,-0.8582657,-0.19975294,2.212554
749,7.49,-0.422219,-0.358032,0.04637088,-1.9498819,1.0934488,3.7195585
750,7.5,-0.39720316,-0.37633627999999997,0.08224729,-2.0555616,1.1863003,3.8826595500000005
751,7.51,-0.37218732,-0.39464056,0.1181237,-2.1612413,1.2791518,4.0457606
752,7.52,-0.14204131,-0.5344854,0.24747404,-2.324953,1.2382239,5.159368
753,7.53,-0.092253636,-0.5516913999999999,0.2634598,-2.3017401499999997,1.1615603,5.275737749999999
754,7.54,-0.042465962,-0.5688974,0.27944556,-2.2785273,1.0848967,5.3921075
755,7.55,0.08517598,-0.60184515,0.32093528,-2.1594086,0.8020661,5.666386
756,7.56,0.31178314,-0.616000505,0.33252799,-1.83412285,0.29229903999999995,5.94432965
757,7.57,0.5383903,-0.63015586,0.3441207,-1.5088371,-0.21746802,6.2222733
758,7.58,0.7055695,-0.60599416,0.33191785,-1.2168436,-0.59803706,6.349944
759,7.59,0.8777519,-0.56181978,0.28823161,-0.967916,-0.89736103,6.414695999999999
760,7.6,1.0499343,-0.5176454,0.24454537,-0.7189884,-1.196685,6.479448
761,7.61,1.2300485,-0.4510178,0.17498904,-0.6133087,-1.3573426,6.464176
762,7.62,1.4466493,-0.32679266,0.117147473,-0.6322455250000001,-1.36070235,6.18439975
763,7.63,1.6632501,-0.20256752,0.059305906,-0.65118235,-1.3640621,5.9046235
764,7.64,1.6632501,-0.20256752,0.059305906,-0.65118235,-1.3640621,5.9046235
765,7.65,1.6271296,-0.027944560000000007,0.141797258,-0.6786713,-0.88086769,5.5872791
766,7.66,1.5910091,0.1466784,0.22428861,-0.70616025,-0.39767328,5.2699347
767,7.67,1.5993071,0.25259924,0.29530928,-0.5467244,-0.07086037,4.978552
768,7.68,1.6085813,0.34290043,0.3521746,-0.32253686,-0.06047566,4.7806315
769,7.69,1.60516455,0.511177915,0.3385074,0.11606436999999997,-0.24342980000000003,4.484972750000001
770,7.7,1.6017478,0.6794554,0.3248402,0.5546656,-0.42638394,4.189314
771,7.71,1.5812469,0.8075854,0.24698594,0.806953,-0.5705481,3.993226
772,7.72,1.5132769499999998,1.03773135,0.06357691499999998,0.8304713,-0.64385195,3.8398988999999997
773,7.73,1.445307,1.2678773,-0.11983211,0.8539896,-0.7171558,3.6865718
774,7.74,1.4526287,1.4187049,-0.21525851,0.28527406,-0.32925636,3.6639698
775,7.75,1.5404893,1.58490785,-0.272733985,0.1414152995,-0.23854287000000002,3.6318994
776,7.76,1.6283499,1.7511108,-0.33020946,-0.002443461,-0.14782938,3.599829
777,7.77,1.7318302,1.8936402,-0.3448529,-0.4025602,0.100792766,3.4025195
778,7.78,1.7459855,2.1018212,-0.27871338,-1.1386528,0.54611355,2.8674014
779,7.79,1.7326844499999998,2.1674724999999997,-0.243691155,-1.25349545,0.5958990449999999,2.7864617000000003
780,7.8,1.7193834,2.2331238,-0.20866893,-1.3683381,0.64568454,2.705522
781,7.81,1.7957731,2.5442967,-0.0014643435,-1.5986344,0.7012733,2.5143213
782,7.82,1.8630109,2.69463595,0.08810466324999999,-1.6325374,0.49999320999999997,2.20308545
783,7.83,1.9302487,2.8449752,0.17767367,-1.6664404,0.29871312,1.8918496
784,7.84,2.0527656,3.0092258,0.26236153,-1.3304645,-0.26206118,1.3646729
785,7.85,2.0527656,3.0092258,0.26236153,-1.3304645,-0.26206118,1.3646729
786,7.86,2.9228296,3.074145,0.24845028,-0.6609562,-0.49541172,-0.042760566
787,7.87,2.83582315,2.8846345500000004,0.17193833,-0.52106805,-0.366213715,-0.7073819330000001
788,7.88,2.7488167,2.6951241,0.09542638,-0.3811799,-0.23701571,-1.3720033
789,7.89,2.08913,2.1721096,0.11495096,-0.2773328,0.51251596,-2.634662
790,7.9,1.70376365,1.95929165,0.18536148000000002,-0.184481295,0.7779368799999999,-2.8933633
791,7.91,1.3183973,1.7464737,0.255772,-0.09162979,1.0433578,-3.1520646
792,7.92,0.9171671,1.4384733,0.38268176,0.1777618,1.17897,-3.1991012
793,7.93,0.8966663349999999,1.3802657,0.37206525999999995,0.53206365,1.08428585,-3.1404582
794,7.94,0.87616557,1.3220581,0.36144876,0.8863655,0.9896017,-3.0818152
795,7.95,0.9584128,1.1668377,0.21574661,1.3952162,0.69027776,-3.0854805
796,7.96,1.2012497,0.8854397,-0.0036608586,1.6475036,0.44409904,-3.6242635
797,7.97,1.2156491,0.8304047999999999,-0.0195245793,1.6426167,0.43707408000000003,-3.78828085
798,7.98,1.2300485,0.7753699,-0.0353883,1.6377298,0.43004912,-3.9522982
799,7.99,1.206619,0.6543175,-0.058085624,1.5143349,0.24617869,-4.760473
800,8.0,1.1523162500000002,0.53582768,-0.06699371700000001,1.5143349,0.24617869,-4.760473
801,8.01,1.0980135,0.41733786,-0.07590181,1.5143349,0.24617869,-4.760473
802,8.02,0.90520835,0.10933765,-0.09884319,1.3384057,0.1337795,-5.1098876
803,8.03,0.899839075,0.013911264999999992,-0.0767560075,1.1756101,0.13683382,-5.19418715
804,8.04,0.8944698,-0.08151512,-0.054668825,1.0128145,0.13988814,-5.2784867
805,8.05,0.88421935,-0.16180995,-0.0134231495,0.9450085,0.1685988,-5.3255234
806,8.06,0.880924625,-0.22904772499999998,0.025381955249999998,0.9282097,0.18753563,-5.3695056999999995
807,8.07,0.8776299,-0.2962855,0.06418706,0.9114109,0.20647246,-5.413488
808,8.08,0.8776299,-0.2962855,0.06418706,0.9114109,0.20647246,-5.413488
809,8.09,0.8210086,-0.35071027,0.10262607500000001,0.9795224,0.224798415,-5.5298577
810,8.1,0.7643873,-0.40513504,0.14106509,1.0476339,0.24312437,-5.6462274
811,8.11,0.55401,-0.4041588,0.25943285,1.3439035,0.12339478,-5.757405
812,8.12,0.2488163875,-0.31910484,0.287377415,1.5183054999999999,-0.0012217299999999903,-5.5860573
813,8.13,-0.056377225,-0.23405088,0.31532198,1.6927075,-0.12583824,-5.4147096
814,8.14,-0.27895743,-0.13593988,0.3226437,1.8527542,-0.28893927,-5.0402493
815,8.15,-0.362913135,-0.09188755000000001,0.32606049,1.9104809999999999,-0.35521814500000004,-4.86309835
816,8.16,-0.44686884,-0.04783522,0.32947728,1.9682078,-0.42149702,-4.6859474
817,8.17,-0.70923036,0.19085276,0.17620933,2.3011293,-1.1209377,-2.7995954
818,8.18,-0.70923036,0.19085276,0.17620933,2.3063217,-1.2116512,-2.52653865
819,8.19,-0.70923036,0.19085276,0.17620933,2.3115141,-1.3023647,-2.2534819
820,8.2,-0.5933032,0.1867038,-0.0370967,1.9761491,-1.5583172,-0.93767816
821,8.21,-0.42563587,0.1342315,-0.25772443,0.8210029,-1.3243558,0.4447099
822,8.22,-0.418436165,0.13484163999999998,-0.276760905,0.53389623,-1.22417395,0.6740898
823,8.23,-0.41123646,0.13545178,-0.29579738,0.24678956,-1.1239921,0.9034697
824,8.24,-0.36755022,0.091033354,-0.2716357,-0.8228355,-0.6914995,1.704925
825,8.25,-0.35156445999999997,0.0611363405,-0.245277525,-1.10413895,-0.5283984500000001,1.9306397
826,8.26,-0.3355787,0.031239327,-0.21891935,-1.3854424,-0.3652974,2.1563544
827,8.27,-0.25601605,-0.15741692,-0.09005712,-1.8674151,0.0061086523,2.601675
828,8.28,-0.23075612,-0.21232981,-0.03721872825,-2.4544565499999997,0.64965517615,3.3463196500000003
829,8.29,-0.20549619,-0.2672427,0.0156196635,-3.041498,1.2932017,4.0909643
830,8.3,-0.084687866,-0.4588276,0.062478654,-3.041498,1.2932017,4.0909643
831,8.31,0.14374973,-0.75486904,0.2186753,-3.363424,1.7348573,5.163644
832,8.32,0.17437891,-0.76817017,0.24405726,-3.3279938500000004,1.6722436,5.2467215
833,8.33,0.20500809,-0.7814713,0.26943922,-3.2925637,1.6096299,5.329799
834,8.34,0.2865232,-0.79440635,0.33094162,-2.860682,0.9059132,5.7097573
835,8.35,0.42734422,-0.7653635400000001,0.40989416,-2.531731,0.4422664585,5.845675
836,8.36,0.56816524,-0.73632073,0.4888467,-2.20278,-0.021380283,5.9815927
837,8.37,0.7380291,-0.68091977,0.55523026,-1.6939293,-0.5571091,6.0665026
838,8.38,0.82259495,-0.6552937350000001,0.5780495999999999,-1.40224115,-0.765719585,6.06741905
839,8.39,0.9071608,-0.6296677,0.60086894,-1.110553,-0.97433007,6.0683355
840,8.4,0.9071608,-0.6296677,0.60086894,-1.110553,-0.97433007,6.0683355
841,8.41,1.2883781,-0.27993366,0.507395,0.5552765,-1.2803736,5.753129
842,8.42,1.4182167,-0.055400997,0.47493544,1.6187929,-1.1209377,5.6657753
843,8.43,1.4182167,-0.055400997,0.47493544,1.6187929,-1.1209377,5.6657753
844,8.44,1.4182167,-0.055400997,0.47493544,1.6187929,-1.1209377,5.6657753
845,8.45,1.7508667,0.2272173,0.43173727,1.6187929,-1.1209377,5.6657753
846,8.46,1.9610001,0.38536638,0.3236199,2.5900686,-1.0085385,5.283984
847,8.47,2.12830135,0.65834439,0.030751209999999973,2.5735753,-0.93554012,5.085758350000001
848,8.48,2.2956026,0.9313224,-0.26211748,2.557082,-0.86254174,4.8875327
849,8.49,2.280715,1.1687901,-0.60941094,1.3390167,0.41050145,3.627318
850,8.5,2.2415437999999996,1.20966975,-0.62844742,1.0097603,0.7382306249999999,3.3707545
851,8.51,2.2023726,1.2505494,-0.6474839,0.6805039,1.0659598,3.114191
852,8.52,1.6622739,1.470689,-0.4419877,-0.69027776,2.122146,2.0152445
853,8.53,1.5245036,1.5574512999999999,-0.314467775,-0.69027776,2.122146,2.0152445
854,8.54,1.3867333,1.6442136,-0.18694785,-0.69027776,2.122146,2.0152445
855,8.55,1.3960074,1.7601409,-0.09152147,-0.8185594,1.3665055,1.7464638
856,8.56,1.3960074,1.7601409,-0.09152147,-0.8185594,1.3665055,1.7464638
857,8.57,1.3960074,1.7601409,-0.09152147,-0.8185594,1.3665055,1.7464638
858,8.58,1.7367114,2.072534,-0.079318605,-0.42332962,-0.16982053,1.3842206
859,8.59,1.7367114,2.072534,-0.079318605,-0.438906685,-0.186313895,1.27304315
860,8.6,1.7367114,2.072534,-0.079318605,-0.45448375,-0.20280726,1.1618657
861,8.61,2.7136724,2.6265442,-0.12568948,-0.54733527,-0.047036625,0.8374963
862,8.62,3.410212,2.4244647,-0.027090356,-0.08674286,0.3744604,-0.8362745
863,8.63,3.2037395,2.2421538500000002,-0.078708463,0.05833763,0.3481932,-1.53754775
864,8.64,2.997267,2.059843,-0.13032657,0.20341812,0.321926,-2.238821
865,8.65,2.6028705,1.8555672,-0.12642166,0.26450464,0.22296582,-2.8753426
866,8.66,2.1805295,1.68118835,-0.14399378000000002,0.28160888,0.25473081000000003,-3.1603113
867,8.67,1.7581885,1.5068095,-0.1615659,0.29871312,0.2864958,-3.44528
868,8.68,1.283497,1.2559186,-0.15448824,0.29871312,0.2864958,-3.44528
869,8.69,1.2290722500000002,1.1514620500000001,-0.14045495,0.29779681,0.36254853,-3.4400876499999997
870,8.7,1.1746475,1.0470055,-0.12642166,0.2968805,0.43860126,-3.4348953
871,8.71,1.2168695,0.8019721,0.051496077,0.64568454,-0.119729586,-3.753767
872,8.72,1.2156492,0.75987223,0.0752916615,0.7223481549999999,-0.203112693,-3.8282925
873,8.73,1.2144289,0.71777236,0.099087246,0.79901177,-0.2864958,-3.902818
874,8.74,1.194172,0.63503695,0.14643435,1.0274754,-0.5180137,-4.0958514
875,8.75,1.1746475,0.541319,0.19646609,1.2815952,-0.784351,-4.2821655
876,8.76,1.1634209,0.49519216499999996,0.210255325,1.39032925,-0.8836166000000001,-4.35943975
877,8.77,1.1521943,0.44906533,0.22404456,1.4990633,-0.9828822,-4.436714
878,8.78,1.0747061,0.3048275,0.18145656500000001,1.8927659,-1.26632365,-4.7222935
879,8.79,0.9972179,0.16058967,0.13886857,2.2864685,-1.5497651,-5.007873
880,8.8,0.8839754,-0.07785426,-0.08908089,2.370768,-1.6676621,-5.33041
881,8.81,0.83760446,-0.24234885,-0.19451363,2.370768,-1.6676621,-5.33041
882,8.82,0.81075818,-0.276882945,-0.20891300499999998,2.1077905,-1.60352125,-5.511226199999999
883,8.83,0.7839119,-0.31141704,-0.22331238,1.844813,-1.5393804,-5.6920424
884,8.84,0.6574902,-0.40903994,-0.21599068,1.559539,-1.4245378,-5.797111
885,8.85,0.5956217,-0.44638072,-0.164494595,1.19240897,-1.21745445,-5.8554487
886,8.86,0.5337532,-0.4837215,-0.11299851,0.82527894,-1.0103711,-5.9137864
887,8.87,0.4424758,-0.49201941,-0.051252022,0.64812803,-0.8735373,-5.9088993
888,8.88,0.21428227,-0.4685899,0.076389916,0.4978552,-0.6432411,-5.721364
889,8.89,0.06699372,-0.43771666,0.131058743,0.4978552,-0.6432411,-5.721364
890,8.9,-0.08029483,-0.40684342,0.18572757,0.4978552,-0.6432411,-5.721364
891,8.91,-0.22746135,-0.35437113,0.23039004,0.61391956,-0.6933321,-5.459303
892,8.92,-0.48970086,-0.25992097,0.25552792,0.84665923,-0.77152283,-4.9785520000000005
893,8.93,-0.75194037,-0.16547081,0.2806658,1.0793989,-0.84971356,-4.497801
894,8.94,-0.9276616,-0.09786696,0.2545517,1.1765264,-0.9266826,-4.0457606
895,8.95,-1.0772687,-0.014643434,0.21721096,1.1765264,-0.9266826,-4.0457606
896,8.96,-1.0878852,0.046370881,0.10897156588000001,1.1530081,-1.04610675,-2.444071875
897,8.97,-1.0985017,0.107385196,0.00073217176,1.1294898,-1.1655309,-0.84238315
898,8.98,-1.0985017,0.107385196,0.00073217176,1.1294898,-1.1655309,-0.84238315
899,8.99,-1.037487365,0.099575363,-0.07895251912000001,0.89186325,-1.00242985,-0.05833762499999995
900,9.0,-0.97647303,0.09176553,-0.15863721,0.6542367,-0.8393288,0.7257079
901,9.01,-0.755723265,-0.010372430000000002,-0.182676845,0.331394407,-0.6331618,1.38574785
902,9.02,-0.5349735,-0.11251039,-0.20671648,0.008552114,-0.4269948,2.0457878
903,9.03,-0.37682438,-0.15668476,-0.14008886,-1.1386528,0.059864793,3.9608502
904,9.04,-0.07687803,-0.23966423,0.0019524579,-1.536326,0.17165314,4.7201557
905,9.05,0.093473935,-0.2906722,0.03331381395000001,-1.6630806,0.223271245,4.974581000000001
906,9.06,0.2638259,-0.34168017,0.06467517,-1.7898352,0.27488935,5.2290063
907,9.07,0.41880223,-0.38268176,0.08322352,-1.8716911,0.33841935,5.2998667
908,9.08,0.518255545,-0.44345203,0.10775127999999999,-1.91964405,0.40103302500000004,5.3050592000000005
909,9.09,0.61770886,-0.5042223,0.13227904,-1.967597,0.4636467,5.3102517
910,9.1,0.61722076,-0.55791485,0.18060236,-2.1642957,1.0512991,5.289482
911,9.11,0.6884855,-0.5945235,0.2894519,-2.0463986,1.4789047,5.639508
912,9.12,0.7237517499999999,-0.5785377,0.29933621,-2.0463986,1.4789047,5.639508
913,9.13,0.759018,-0.5625519,0.30922052,-2.0463986,1.4789047,5.639508
914,9.14,0.84468216,-0.53228885,0.3145898,-1.6187929,1.0134255,5.9498277
915,9.15,0.98586928,-0.5006834250000001,0.296407535,-1.5647313,0.89308502,5.9519656
916,9.16,1.1270564,-0.469078,0.27822527,-1.5106697,0.77274454,5.9541035
917,9.17,1.4523847,-0.3316738,0.30214286,-1.1655309,0.20219639,5.7598486
918,9.18,1.5675796,-0.22453266,0.31263736,-0.97066486,-0.051923547,5.5497108
919,9.19,1.59918505,-0.092131607,0.32081327,-0.73426003,-0.24129177349999997,5.334380899999999
920,9.2,1.6307905,0.040269446,0.32898918,-0.4978552,-0.43066,5.119051
921,9.21,1.6307905,0.040269446,0.32898918,-0.4978552,-0.43066,5.119051
922,9.22,1.5270662,0.1701079,0.3738957,-0.2302962,-0.42943826,5.02681
923,9.23,1.4989995999999999,0.281642065,0.3892713,-0.01466076500000002,-0.56260688,5.159367700000001
924,9.24,1.470933,0.39317623,0.4046469,0.20097467,-0.6957755,5.2919254
925,9.25,1.68216455,0.597330115,0.267486735,0.42607850999999997,-1.12796265,5.18563505
926,9.26,1.8933961,0.801484,0.13032657,0.65118235,-1.5601498,5.0793447
927,9.27,1.9336655,0.97330034,0.018060237,0.68661255,-1.6627752,4.6725082
928,9.28,1.9292725,1.3755066,-0.054912884,0.6579019,-1.6157386,4.3585234
929,9.29,2.03153245,1.56111215,-0.09518233200000001,0.536950565,-1.1542299,3.82584895
930,9.3,2.1337924,1.7467177,-0.13545178,0.41599923,-0.6927212,3.2931745
931,9.31,2.238005,1.8855863,-0.20574026,0.30848694,-0.4147775,3.0476067
932,9.32,2.4198277,2.1464834,-0.40342662,-0.16920967,0.2828306,2.4294112
933,9.33,2.48401475,2.22714445,-0.48091479000000004,-0.16920967,0.2828306,2.4294112
934,9.34,2.5482018,2.3078055,-0.55840296,-0.16920967,0.2828306,2.4294112
935,9.35,2.5765123,2.3392887,-0.5422952,-0.83199847,0.8979719,1.8148806
936,9.36,2.523552,2.3800464,-0.22331238,-1.5741998,1.3976597,0.93034774
937,9.37,2.53294815,2.3688197,-0.122028623,-1.6249015999999998,1.4251486500000001,0.61025436
938,9.38,2.5423443,2.357593,-0.020744866,-1.6756034,1.4526376,0.29016098
939,9.39,2.681213,2.2585058,0.24405725,-1.4330899,1.3066407,-0.025045475
940,9.4,2.8420465,1.9978526,0.16888762,-0.4813618,1.1594223,-0.6914995
941,9.41,2.8245965,1.8427542,-0.0012202850000000154,-0.1423316,0.9926560499999999,-1.46271685
942,9.42,2.8071465,1.6876558,-0.17132819,0.1966986,0.8258898,-2.2339342
943,9.43,2.5811496,1.5507398,-0.16986385,0.1966986,0.8258898,-2.2339342
944,9.44,1.7545276,1.2271198,0.088836834,0.43066,1.1117748,-3.6670241
945,9.45,1.6854594,1.1999074,0.102504042,0.51190507,1.11543995,-3.69604015
946,9.46,1.6163912,1.172695,0.11617125,0.59315014,1.1191051,-3.7250562
947,9.47,1.6000394,1.0374874,0.04271002,0.59315014,1.1191051,-3.7250562
948,9.48,1.6000394,1.0374874,0.04271002,0.80328782,0.9944886000000001,-3.7782014999999998
949,9.49,1.6000394,1.0374874,0.04271002,1.0134255,0.8698721,-3.8313468
950,9.5,1.7066923,0.81978834,-0.16180995,1.2235631,0.4269948,-4.465425
951,9.51,1.6202961,0.45199403,-0.25601605,0.90469146,0.25778514,-5.3432384
952,9.52,1.56635945,0.38048525,-0.233196695,0.8472701,0.22510384500000002,-5.49931435
953,9.53,1.5124228,0.30897647,-0.21037734,0.78984874,0.19242255,-5.6553903
954,9.54,1.4456731,0.25589402,-0.18902233499999999,0.76205437,0.16798794,-5.7870319
955,9.55,1.3789234,0.20281157,-0.16766733,0.73426,0.14355333,-5.9186735
956,9.56,1.1150976,0.0156196635,-0.091033354,0.7104363,0.076358154,-6.1300325
957,9.57,1.0265047999999999,-0.11092402824999999,-0.0708986295,0.7278459500000001,0.018631388999999998,-6.1468315
958,9.58,0.937912,-0.23746772,-0.050763905,0.7452556,-0.039095376,-6.1636305
959,9.59,0.937912,-0.23746772,-0.050763905,0.7452556,-0.039095376,-6.1636305
960,9.6,0.8534682,-0.35607952,-0.032703668,0.75319684,-0.10873401,-6.1404176
961,9.61,0.80782948,-0.407087475,0.015497636000000002,0.7806857700000001,-0.18020524,-6.11017965
962,9.62,0.76219076,-0.45809543,0.06369894,0.8081747,-0.25167647,-6.0799417
963,9.63,0.7063017,-0.4720067,0.09127741,0.8668178,-0.29749137,-6.055507
964,9.64,0.56975167,-0.47798612500000004,0.137282205,0.97982785,-0.413555785,-5.989839
965,9.65,0.43320164,-0.48396555,0.183287,1.0928379,-0.5296202,-5.924171
966,9.66,0.15863721,-0.44345203,0.26968327,1.1985176,-0.66828656,-5.839872
967,9.67,-0.118855886,-0.37267542,0.32972133,1.3451253,-0.8405506,-5.6999836
968,9.68,-0.17755164299999998,-0.35327286,0.327036715,1.58244645,-1.1374311000000001,-5.3105568000000005
969,9.69,-0.2362474,-0.3338703,0.3243521,1.8197676,-1.4343116,-4.92113
970,9.7,-0.38439015,-0.2894519,0.26943922,1.8197676,-1.4343116,-4.92113
971,9.71,-0.539976645,-0.22245818,0.1824328,1.86161185,-1.59588545,-4.2522328
972,9.72,-0.69556314,-0.15546446,0.09542638,1.9034561,-1.7574593,-3.5833356
973,9.73,-0.74242216,-0.11690342,0.048323333,1.6151277,-1.6804903,-2.4446826
974,9.74,-0.7596282050000001,-0.09274175,0.011470689999999999,1.348485,-1.4905112,-1.7458528000000002
975,9.75,-0.77683425,-0.06858008,-0.025381953,1.0818423,-1.3005321,-1.047023
976,9.76,-0.7807391,-0.06199054,-0.05515694,0.7556403,-1.0280862,-0.33536503
977,9.77,-0.72338563,-0.10177187,-0.090789296,0.100792766,-0.4605924,0.9315695
978,9.78,-0.687021135,-0.129838455,-0.080416863,-0.09162978699999999,-0.29688051,1.2815953
979,9.79,-0.65065664,-0.15790504,-0.07004443,-0.28405234,-0.13316862,1.6316211
980,9.8,-0.35071027,-0.28432667,0.12056428,-0.8026769,0.33292156,2.705522
981,9.81,-0.10128376,-0.40342662,0.14106509,-0.9804387,0.51923543,3.218649
982,9.82,-0.0634548855,-0.42575787,0.135573795,-1.12887895,0.59406644,3.728416
983,9.83,-0.025626011,-0.44808912,0.1300825,-1.2773192,0.66889745,4.238183
984,9.84,0.019768637,-0.53765815,0.12690976,-1.2773192,0.66889745,4.238183
985,9.85,0.04905551,-0.61892915,0.12739788,-1.7037032,0.27977628,5.208848
986,9.86,0.106897075,-0.7122810500000001,0.17669744999999998,-1.8469511,0.11545353,5.5558195
987,9.87,0.16473864,-0.80563295,0.22599702,-1.990199,-0.04886922,5.902791
988,9.88,0.39268813,-0.88373125,0.38683072,-2.0372355,-0.08979719,6.5643578
989,9.89,0.502757915,-0.8750672749999999,0.427222195,-2.0372355,-0.08979719,6.5643578
990,9.9,0.6128277,-0.8664033,0.46761367,-2.0372355,-0.08979719,6.5643578
991,9.91,1.056768,-0.7246059,0.5525456,-1.2003502,0.3005457,7.08115
992,9.92,1.445551,-0.52033,0.50934744,-0.5161811,0.35308012,6.7915998
993,9.93,1.51339895,-0.465539165,0.48433158,-0.329867215,0.297491375,6.6483519
994,9.94,1.5812469,-0.41074833,0.45931572,-0.14355333,0.24190263,6.505104
995,9.95,1.811881,-0.14179726,0.35095432,0.42149702,-0.115453534,5.926004
996,9.96,1.88143725,0.03782887500000001,0.30153273,0.84391036,-0.5451972469999999,5.3478198500000005
997,9.97,1.9509935,0.21745501,0.25211114,1.2663237,-0.97494096,4.7696357
998,9.98,1.9263439,0.42514774,0.17718557,1.4135422,-1.1362094,4.517959
999,9.99,1.9263439,0.42514774,0.17718557,1.5491543,-1.2803736,4.24307
