id,timestamp,acc_x,acc_y,acc_z,gyro_x,gyro_y,gyro_z
0,0.0,-0.42758830000000003,0.5104457149999999,0.70276288,0.18997909500000001,-1.10627695,-1.2214250500000001
1,0.01,-0.27187976,0.48152497,0.86274236,-0.28405234,-0.56688297,-0.97433007
2,0.02,-0.2762728,0.4385709,0.9679311,-0.28405234,-0.56688297,-0.97433007
3,0.03,-0.2762728,0.4385709,0.9679311,-0.43066,-0.0018325958,-1.0354166
4,0.04,-0.28676724,0.43027294,1.0108851,-0.43066,-0.0018325958,-1.0354166
5,0.05,-0.32972136500000004,0.428564535,0.9907503499999999,-0.18692477,-0.233655953,-0.935234675
6,0.06,-0.33777523,0.41636166,0.8534682,0.11301007,-1.0256428,-0.86742866
7,0.07,-0.41343296,0.29018408,0.81319875,0.11301007,-1.0256428,-0.86742866
8,0.08,-0.41343296,0.29018408,0.81319875,0.27122417,-1.990199,-0.5363397
9,0.09,-0.2988481,0.33923956,0.7776884,0.315511895,-2.47675315,-0.28466321
10,0.1,-0.24405725,0.3526627,0.7455949,0.33353242,-2.606562,-0.18692477
11,0.11,-0.24405725,0.3526627,0.7455949,0.36346483,-2.6774223,0.0
12,0.12,-0.093717985,0.2936009,0.86664724,0.34330627,-2.9846876,0.1704314
13,0.13,-0.03441207,0.268463,0.8881243,0.34330627,-2.9846876,0.1704314
14,0.14,-0.011714748620000002,0.24234885,0.8640846799999999,0.240375475,-4.00544335,0.2415972
15,0.15,-0.02318544,0.23795582,0.8542004,0.21868975,-4.382958,0.408058
16,0.16,-0.12398108,0.29067218,0.86274236,0.21868975,-4.382958,0.408058
17,0.17,-0.06638357,0.2630937,0.9410847,0.21868975,-4.382958,0.408058
18,0.18,-0.028066583,0.19134088,0.95328766,0.36774087,-4.147775,0.95905846
19,0.19,-0.006833603,0.14521407,0.88958865,0.29443705,-4.541172,1.0873401
20,0.2,-0.067359805,0.13447554,0.68702114,-0.0036651916,-5.390275,1.6108516
21,0.21,-0.0765119475,0.135329745,0.6718896050000001,-0.21868976,-5.2427509,2.0317378
22,0.22,-0.06632255675,0.1549153375,0.6729878525,-0.26419922,-5.1750976,2.10901225
23,0.23,-0.056133166,0.17450093,0.6740861,-0.30970868,-5.1074443,2.1862867
24,0.24,-0.056133166,0.17450093,0.6740861,-0.30970868,-5.1074443,2.1862867
25,0.25,0.13618395,0.3521746,0.71996886,-1.260215,-3.26874,2.1551325
26,0.26,0.082003236,0.45760733,0.84834296,-1.260215,-3.26874,2.1551325
27,0.27,0.045882765,0.4720067,0.8427297,-1.391551,-2.7782152,2.13925
28,0.28,0.012690976,0.50544256,0.77024466,-1.6633861,-2.079996,2.1856759
29,0.29,-0.006833603,0.520086,0.7580418,-1.8252654,-1.9321668,2.1911736
30,0.3,-0.038561042,0.52472305,0.737541,-2.0005836,-2.0097466,2.1954496
31,0.31,-0.106286935,0.6422366500000001,0.85151575,-2.1227567,-2.1642957,2.189952
32,0.32,-0.14936304,0.7380291,0.9659786,-2.225382,-2.3402247,2.1587977
33,0.33,-0.19671014,0.91545874,1.103871,-1.8393153,-1.8319849,1.6511687
34,0.34,-0.202689535,0.937667935,1.1408456500000002,-1.73638445,-1.6542230999999998,1.4917329
35,0.35,-0.20866893,0.95987713,1.1778203,-1.6334536,-1.4764613,1.3322971
36,0.36,-0.16229807,1.0023432,1.1504859,-1.2809844,-0.8686504,0.7556403
37,0.37,-0.186215675,1.0409042,1.16293285,-1.37872285,-0.48930307,0.55038959
38,0.38,-0.21013328,1.0794652,1.1753798,-1.4764613,-0.10995574,0.34513888
39,0.39,-0.29329579,1.1024066000000001,1.38777055,-1.35948059,0.2015855375,0.22250767
40,0.4,-0.3764583,1.125348,1.6001613,-1.24249988,0.513126815,0.09987646
41,0.41,-0.40489095,1.1006982,1.8311615,-0.99021256,0.8210029,0.06352998
42,0.42,-0.13179092,0.9196077,2.0688734,-0.40378192,0.77763146,0.19425514
43,0.43,-0.13179092,0.9196077,2.0688734,0.12705997,0.7452556,0.28710666
44,0.44,0.061502427,0.9096014,2.1359892,1.7220291,1.1496484,0.3145956
45,0.45,0.24747404,0.8866599,2.140138,1.7220291,1.1496484,0.3145956
46,0.46,0.5020258,0.84053314,2.195539,2.797152,1.5613716,-0.03848451
47,0.47,0.58329684,0.8407772,2.234832,3.3286047,1.318858,-0.3371976
48,0.48,0.9205839,0.89349353,2.4954853,3.8380663,0.7849618,-0.63713247
49,0.49,0.9205839,0.89349353,2.4954853,4.638911,-0.28344148,-1.0732902
50,0.5,1.1150976,0.89154106,2.5320938,5.041471,-0.6053675,-1.2223413
51,0.51,1.2974083,0.87079626,2.5181828,5.350569,-0.6206391,-1.3536774
52,0.52,1.2974083,0.87079626,2.5181828,5.350569,-0.6206391,-1.3536774
53,0.53,1.8267684,0.7829357,2.2841318,5.80322,0.75747293,-1.6902641
54,0.54,1.8267684,0.7829357,2.2841318,5.9229493,1.2241739,-1.8057177
55,0.55,1.9707624,0.6474839,2.0327528,6.0628376,1.3805555,-1.9376645
56,0.56,1.8467811,0.48128092,1.6505592,6.2265496,0.8216137,-2.1960607
57,0.57,1.7154784,0.37365165,1.4628792,6.29710425,-0.140193565,-2.3952025
58,0.58,1.547567,0.23649146,1.2305366,6.3132925,-0.48197266,-2.4526238
59,0.59,1.3889297,0.09689073,1.0247964,6.3132925,-0.48197266,-2.4526238
60,0.6,0.7695125,-0.26211748,0.30800024,5.851478,-2.388483,-2.6169467
61,0.61,0.7695125,-0.26211748,0.30800024,5.851478,-2.388483,-2.6169467
62,0.62,0.7695125,-0.26211748,0.30800024,5.851478,-2.388483,-2.6169467
63,0.63,0.423439335,-0.40171823,-0.18157859999999998,4.51062885,-2.3652702,-2.3057108499999996
64,0.64,0.300373465,-0.51941484,-0.221542975,3.6948183749999997,-2.087937425,-2.112219275
65,0.65,0.177307595,-0.63711145,-0.26150735,2.8790079,-1.81060465,-1.9187277000000003
66,0.66,0.0654683575,-0.765180475,-0.23972524,2.3414465,-1.6355917249999998,-1.6914858500000003
67,0.67,-0.04637088,-0.8932495,-0.21794313,1.8038851,-1.4605788,-1.464244
68,0.68,-0.31239328,-1.1482893,0.03636453,1.2956452,-1.4978416,-0.8191703
69,0.69,-0.31239328,-1.1482893,0.03636453,1.2565498000000002,-1.45172125,-0.61941735
70,0.7,-0.31239328,-1.1482893,0.03636453,1.2174544,-1.4056009,-0.4196644
71,0.71,-0.49055508,-1.1712307,0.027822526,1.3115277,-1.1172725,0.44165558
72,0.72,-0.5464442,-1.2080834,-0.08175918,1.3811663,-0.9828822,0.97249746
73,0.73,-0.48909074,-1.2954559,-0.36559775,1.2253957,-0.8881981,1.9578232
74,0.74,-0.44613665,-1.3169329,-0.4515059,1.0415252,-0.9138544,2.2699752
75,0.75,-0.39659303,-1.3398743,-0.51398456,0.7733554,-1.0042624,2.6511552
76,0.76,-0.34192422,-1.3391421,-0.5181335,0.50823987,-1.2144,2.9914072
77,0.77,-0.26577836,-1.3193735,-0.48128092,0.29932398,-1.5515977,3.2797356
78,0.78,-0.26577836,-1.3193735,-0.48128092,0.13194689,-2.3057108,3.9208385999999997
79,0.79,-0.2877435,-1.2986286,-0.42246306,0.12156218,-2.4281893,4.1099014
80,0.8,-0.2877435,-1.2986286,-0.42246306,0.10995574,-2.538145,4.6431866
81,0.81,-0.1210524,-1.3874654,-0.5012936,0.0018325958,-2.3958135,5.657223
82,0.82,0.11592719,-1.4094306,-0.592571,-0.119729586,-2.3182335,6.1098742
83,0.83,0.43979117,-1.3701375,-0.7477914,-0.34269542,-2.3102922,6.419583
84,0.84,0.8136868850000001,-1.2722704999999999,-0.845658325,-0.72204271,-2.3744331,6.593374000000001
85,0.85,1.1875826,-1.1744035,-0.94352525,-1.10139,-2.438574,6.767165
86,0.86,2.1342807,-0.6879974,-0.91448253,-2.175291,-3.0604348,6.9070535
87,0.87,2.66742375,-0.3721873125,-0.83919084,-2.6774222500000002,-3.2180380499999997,6.9488976000000005
88,0.88,3.2005668,-0.056377225,-0.76389915,-3.1795535,-3.3756413,6.9907417
89,0.89,3.7605561499999998,0.30061750499999995,-0.3423512825,-3.539353125,-2.714685125,6.9232411250000006
90,0.9,4.3205455,0.657612235,0.07919658499999999,-3.89915275,-2.05372895,6.85574055
91,0.91,4.586568,0.89080894,0.48689422,-4.7812424,0.23640485,6.364605
92,0.92,4.7427645,1.1539028,1.0038075,-4.5943174,0.7678576,5.8850756
93,0.93,4.677113,1.6356717,1.7984579,-3.4654386,0.44043383,4.7616944
94,0.94,4.5912048500000004,1.7323184,1.8977892,-3.4654386,0.44043383,4.7616944
95,0.95,3.8653786,2.0686293,1.8372629,-0.5552765,-0.95172805,2.8160887
96,0.96,3.8653786,2.0686293,1.8372629,-0.5552765,-0.95172805,2.8160887
97,0.97,2.912579,2.1154883,1.0985017,0.73975784,-1.0995574,1.500285
98,0.98,2.374189,2.0993805,0.73290396,0.8979719,-0.9773844,1.0280862
99,0.99,1.9385467,2.0586228,0.50763905,0.86009824,-0.8356637,0.77824235
100,1.0,1.5465908,1.986626,0.3653537,0.78343467,-0.7153232199999999,0.6600399
101,1.01,1.0553036,1.8582519,0.36950266,0.39095375,-0.09040806,0.23518312
102,1.02,0.9096014,1.8089523,0.41294485,0.34574974,0.044593163,0.12950343
103,1.03,0.8044127249999999,1.752270025,0.44564852,0.369115325,0.1233947815,-0.004734205000000019
104,1.04,0.69922405,1.69558775,0.47835219,0.39248091,0.2021964,-0.13897184
105,1.05,0.6155124,1.6376241,0.49860895,0.55955255,0.23579398,-0.48502702
106,1.06,0.40318257,1.5094941,0.4756676,0.8142834,0.21868975,-0.9602802
107,1.07,0.32410803,1.411627,0.473227,0.8142834,0.21868975,-0.9602802
108,1.08,0.23893206,1.2927712,0.46200037,1.26540735,0.35460727000000003,-1.5757269
109,1.09,0.017816179,1.0328503,0.37267542,1.3451253,0.40133846,-1.65911
110,1.1,-0.12715383,0.9034999,0.28994003,1.6835446,0.8197812,-1.8680259
111,1.11,-0.19134088,0.8007518,0.2489384,1.767844,0.96761054,-1.8942931
112,1.12,-0.19280522,0.6823841,0.26480213,1.9187278,1.1997393,-1.9572122
113,1.13,-0.056133166,0.49592432,0.24942651,2.4947736,1.6029104,-2.2840252
114,1.14,-0.056133166,0.49592432,0.24942651,2.4947736,1.6029104,-2.2840252
115,1.15,0.06711575,0.38439015,-0.106164895,2.8447995,1.577254,-2.8637362
116,1.16,0.11726951199999999,0.39427449,-0.371089025,2.6700920000000004,1.28617675,-3.4141259
117,1.17,0.12642166,0.41758195,-0.46663743,2.5448647,1.178359,-3.5882225
118,1.18,0.15705084,0.477498025,-0.572802365,2.11512095,1.07817715,-3.82096225
119,1.19,0.18768002,0.5374141,-0.6789673,1.6853772,0.9779953,-4.053702
120,1.2,0.18768002,0.5374141,-0.6789673,1.6853772,0.9779953,-4.053702
121,1.21,0.759018,1.2991167,-0.35534734,-1.0635164,2.112372,-3.6541958
122,1.22,0.759018,1.2991167,-0.35534734,-1.0635164,2.112372,-3.6541958
123,1.23,0.9701885499999999,1.425416325,-0.1947576725,-1.130558875,2.1748330000000005,-3.6096026500000002
124,1.24,1.1813590999999999,1.55171595,-0.034168005,-1.19760135,2.2372940000000003,-3.5650095
125,1.25,1.6037002,1.8043152,0.28701133,-1.3316863,2.362216,-3.4758232
126,1.26,1.6037002,1.8043152,0.28701133,-1.3316863,2.362216,-3.4758232
127,1.27,1.6037002,1.8043152,0.28701133,-1.3316863,2.362216,-3.4758232
128,1.28,4.00742,1.3567142,1.9329334,3.0812044,-1.4819591,-5.7983327
129,1.29,3.3365068,0.7336361,0.77512586,3.816075,-1.6951511,-6.1068196
130,1.3,2.886709,0.35119838,0.1461903,3.5204165,-1.649947,-6.0542855
131,1.31,2.886709,0.35119838,0.1461903,3.5204165,-1.649947,-6.0542855
132,1.32,1.6146828,-0.16766733,-0.54912883,1.8081611,-1.0299188,-5.434257
133,1.33,0.7143555,-0.34729347,-0.41636166,0.1386664,-0.2706133,-3.9950588
134,1.34,0.5725583,-0.41636166,-0.26577836,-0.6133087,-0.062308256,-3.1270192
135,1.35,0.501659685,-0.5264314800000001,-0.07346123700000001,-1.09192165,0.06750061199999999,-2.5625796999999997
136,1.36,0.43076107,-0.6365013,0.118855886,-1.5705346,0.19730948,-1.9981402
137,1.37,0.43076107,-0.6365013,0.118855886,-1.8148806,0.44898596,-1.4776831
138,1.38,0.16730125833333337,-0.7856202833333333,0.330982314,-1.36854174,0.7544185733333333,-0.7289659066666666
139,1.39,-0.09615855333333329,-0.9347392666666667,0.543108742,-0.92220288,1.0598511866666667,0.0197512866666667
140,1.4,-0.359618365,-1.08385825,0.75523517,-0.47586401999999994,1.3652838,0.7684684799999999
141,1.41,-0.5767073,-1.125348,0.77903074,0.47525316,1.3701707,1.6505579
142,1.42,-0.61844105,-1.2158931,0.32532832,1.0873401,1.138042,2.1197023
143,1.43,-0.61844105,-1.2158931,0.32532832,1.7971655,0.64996064,2.7000244
144,1.44,-0.596964,-1.2598236,0.024405725,2.2974641,-0.01160644,3.2265902
145,1.45,-0.520086,-1.3181533,-0.33118567,2.5363126,-0.75747293,3.6871827
146,1.46,-0.33509058,-1.3415827,-0.8991069,2.293188,-1.9877555,4.3145413
147,1.47,-0.23600335,-1.3320644,-1.0323621,1.8191566,-2.4856107,4.6028695
148,1.48,-0.10177187,-1.3323085,-1.053107,1.2351695,-2.7537806,4.8710394
149,1.49,-0.10177187,-1.3323085,-1.053107,0.32803464,-2.724459,5.262604
150,1.5,0.12886222,-1.2725145,-0.9081371,0.32803464,-2.724459,5.262604
151,1.51,0.4595598,-1.2083274,-0.75438094,-0.3744604,-2.289523,5.4965653
152,1.52,0.55498618,-1.17855245,-0.74181202,-0.5238169500000001,-2.1429153,5.48404265
153,1.53,0.85444444,-0.9706156,-0.68653303,-1.178359,-1.8148806,4.96328
154,1.54,0.9056965,-0.88007045,-0.6796995,-1.178359,-1.8148806,4.96328
155,1.55,0.9056965,-0.88007045,-0.6796995,-1.178359,-1.8148806,4.96328
156,1.56,1.3994243,-0.44564855,-0.37218732,-0.88514376,-3.1325169,4.5045204
157,1.57,1.3994243,-0.44564855,-0.37218732,-0.88514376,-3.1325169,4.5045204
158,1.58,1.6983943,-0.26699865,-0.3121492,-0.1001819,-3.8429532,4.4354925
159,1.59,1.9043787,-0.03465613,-0.24259292,0.49846604,-4.0518694,4.3988404
160,1.6,1.9043787,-0.03465613,-0.24259292,0.49846604,-4.0518694,4.3988404
161,1.61,2.4691272,0.69239044,-1.0623811,1.3219124,-3.173445,4.8698177
162,1.62,2.4691272,0.69239044,-1.0623811,1.3219124,-3.173445,4.8698177
163,1.63,2.9818914,1.30595035,-1.46605185,-0.10934488,-1.3261884,5.039638
164,1.64,3.02033045,1.367696875,-1.4293212249999998,-0.10934488,-1.3261884,5.039638
165,1.65,3.0587695,1.4294434,-1.3925906,-0.10934488,-1.3261884,5.039638
166,1.66,3.4250994,2.0388544,-0.45370242,-2.1661282,0.68539083,4.20092
167,1.67,3.4856255,2.2172601,-0.20012695,-2.1337523,0.8020661,3.8344011
168,1.68,3.4663453,2.3475866,0.016351834,-1.926669,0.88514376,3.2381966
169,1.69,3.1707919,2.4874313,0.37804466,-1.5906931,0.97433007,2.5961773
170,1.7,2.9438186,2.5006106,0.49738866,-0.2669481,1.2644911,0.8949176
171,1.71,2.7397866,2.4845028,0.5537659,-0.2669481,1.2644911,0.8949176
172,1.72,2.4791336,2.4430132,0.5588911,0.26083946,1.1960741,0.31215215
173,1.73,2.0857131,2.2963347,0.44784504,0.6432411,1.0800097,-0.08002335
174,1.74,1.9600239,2.174062,0.3585201,1.4532484,0.72326446,-1.078788
175,1.75,1.7928444,2.0198178,0.21965154,1.7293595,0.59986967,-1.5986344
176,1.76,1.615903,1.8904674,0.07199689,1.8643607,0.5290093,-1.9572122
177,1.77,1.295944,1.6288381,-0.17523311,1.9107865,0.4654793,-2.3640485
178,1.78,1.1619565,1.4651977,-0.261141265,1.6221527,0.44532075,-3.0851749
179,1.79,1.1287647,1.4189488,-0.2809099,1.5564847,0.4654793,-3.1838295
180,1.8,1.0797093,1.3205938,-0.3231318,1.3884968,0.58276546,-3.4306192
181,1.81,0.9479183,1.1067996,-0.35632357,1.3884968,0.58276546,-3.4306192
182,1.82,0.9479183,1.1067996,-0.35632357,1.3884968,0.58276546,-3.4306192
183,1.83,0.9418169,1.0409042,-0.38268176,1.1624765,0.9841039,-4.3432517
184,1.84,0.97696114,0.99355704,-0.4378387,1.1924089,0.7348709,-4.607146
185,1.85,1.0496902,0.9447456,-0.5332651,1.146594,0.2779437,-4.9015827
186,1.86,1.087519,0.7831797,-0.7158199,0.77946407,-0.6407976,-5.370116
187,1.87,1.1192465,0.7383952,-0.7520624,0.317649935,-0.83199845,-5.4895402
188,1.88,1.150974,0.6936107,-0.7883049,-0.1441642,-1.0231993,-5.6089644
189,1.89,1.325475,0.46639338,-0.8710403,-1.3426818,-0.4007276,-5.7366357
190,1.9,1.3925907,0.397813305,-0.846756615,-1.6890424,-0.07880161499999999,-5.768095349999999
191,1.91,1.4597064,0.32923323,-0.82247293,-2.035403,0.24312437,-5.799555
192,1.92,1.6503152,0.0605262,-0.59916055,-2.9810224,1.5173893,-5.975484
193,1.93,1.824816,-0.18304294,-0.200371,-3.3017266,2.610227,-6.3163466
194,1.94,1.84360845,-0.22904773,-0.1110460475,-3.2357532,2.73453815,-6.4095037
195,1.95,1.8221315,-0.3526627,0.13886857,-3.1697798,2.8588493,-6.5026608
196,1.96,1.7598969,-0.40196228,0.26284966,-2.2449298,3.1496212,-6.9296556
197,1.97,1.5356082,-0.43076107,0.5418071,-0.9071349,2.8087585,-7.1178017
198,1.98,1.35085685,-0.376092215,0.70495939,0.649349767,2.0369302,-7.0619075
199,1.99,1.2800802,-0.35144243,0.72558224,1.1991285,1.7024814,-7.015787
200,2.0,1.2800802,-0.35144243,0.72558224,2.2363777,0.7635816,-6.8673472
201,2.01,0.5535218,-0.17425688,0.4148973,3.504534,-1.1856894,-6.352388
202,2.02,0.45089575,-0.15827112999999998,0.3202031,3.66183175,-1.6621643000000001,-6.08238535
203,2.03,0.17303659,-0.11665936,-0.018792408,3.8472292,-2.751337,-5.1013355
204,2.04,0.07785426,-0.0873725,-0.2518671,3.8472292,-2.751337,-5.1013355
205,2.05,0.059794027,-0.064919226,-0.49616838,3.8472292,-2.751337,-5.1013355
206,2.06,0.09066726850000001,-0.067847913,-0.63149814,2.3780984,-2.5561656,-2.66062355
207,2.07,0.117635585,-0.10079564,-0.80441266,0.87781334,-1.6377298,-1.2382239
208,2.08,0.087616555,-0.1398448,-0.77195305,-0.07452556,-0.9437868,-0.5558874
209,2.09,-0.03807293,-0.27773714,-0.4937278,-1.6358972,0.20280726,0.6017023
210,2.1,-0.11031388,-0.38756293,-0.25894472,-1.6358972,0.20280726,0.6017023
211,2.11,-0.16595893,-0.49299565,-0.04490653,-2.6713138,1.4062119,1.8545868
212,2.12,-0.23161033,-0.5945235,0.1769415,-2.8112018,1.890628,2.4538457
213,2.13,-0.23161033,-0.5945235,0.1769415,-2.8112018,1.890628,2.4538457
214,2.14,-0.2545517,-0.788793,0.48494175,-2.1856759,2.4178047,3.9926152
215,2.15,-0.20988922,-0.8407772,0.49885303,-2.1856759,2.4178047,3.9926152
216,2.16,-0.20988922,-0.8407772,0.49885303,-2.1856759,2.4178047,3.9926152
217,2.17,0.0690682,-1.0240642,0.31312546,-0.14355333,0.6432411,6.102544
218,2.18,0.0690682,-1.0240642,0.31312546,-0.14355333,0.6432411,6.102544
219,2.19,0.28505886,-1.1565872,0.13764828,0.118507855,0.23396139,6.4379086
220,2.2,0.28505886,-1.1565872,0.13764828,0.43004912,-0.27305678,6.8783426
221,2.21,0.8839754,-1.1800168,-0.084687866,0.92179567,-1.1325442,7.632761
222,2.22,1.41528795,-1.048714,-0.19170695999999998,1.0800097849999999,-1.30511365,7.77448175
223,2.23,1.5802706,-0.9855032,-0.2294138,1.2382239,-1.4776831,7.9162025
224,2.24,1.9199983,-0.7695125,-0.3231318,1.3426818,-1.5137241,7.7805905
225,2.25,2.1247623,-0.53253293,-0.40391475,1.3732251,-1.5057828,7.570453
226,2.26,2.24715715,-0.32374194500000003,-0.499463175,1.2925908499999998,-1.42270515,7.20668285
227,2.27,2.3263538,0.26675457,-0.74461865,0.7360926,-0.8680395,6.1178155
228,2.28,2.3263538,0.26675457,-0.74461865,0.7360926,-0.8680395,6.1178155
229,2.29,2.0710697,0.5400987,-0.750232,0.028099801,-0.3903429,5.525276
230,2.3,2.01152,0.6643238,-0.665056,-0.29016098,-0.28527406,5.3108625
231,2.31,1.9727148,0.7822035,-0.59964865,-0.47891834,-0.23945917,5.145929
232,2.32,1.9690539,0.899595,-0.53253293,-0.6762278,-0.2284636,4.895474
233,2.33,1.9292725,1.0787331,-0.44662476,-0.9443977,-0.39767328,4.275446
234,2.34,1.8309175,1.1766,-0.4300289,-1.0311406,-0.43310347,4.0280457
235,2.35,1.6905845,1.2932593,-0.42661208,-1.16492,-0.39645153,3.758043
236,2.36,1.5880805,1.4072341,-0.4097721,-1.3329079,-0.3652974,3.5973854
237,2.37,1.5360963,1.722312,-0.3321619,-1.5241088,-0.36957347,3.5228598
238,2.38,1.5360963,1.722312,-0.3321619,-1.8301523,-0.398895,3.4116824
239,2.39,1.78491265,1.99016475,-0.193537392,-1.9159788,-0.394924375,3.2146783
240,2.4,2.033729,2.2580175,-0.054912884,-2.0018053,-0.39095375,3.0176742
241,2.41,2.4149466,2.5047596,0.018792408,-2.130698,-0.12644911,2.2968533
242,2.42,2.643384,2.578953,0.10323621,-2.2149973,0.111177474,1.645671
243,2.43,2.7373462,2.6250796,0.20842488,-2.2461514,0.3481932,1.0494665
244,2.44,2.63374375,2.6282525,0.427832365,-2.2156084,0.7086037,0.19914207
245,2.45,2.5743158,2.617758,0.50446635,-2.1050417,1.0537425,-0.5687156
246,2.46,2.4151905,2.4962175,0.73485637,-1.6872098,1.450805,-1.6609426
247,2.47,2.3888323,2.4151905,0.788793,-1.6872098,1.450805,-1.6609426
248,2.48,2.4066484,2.331723,0.7980672,-1.0925325,1.141401735,-2.6462683
249,2.49,2.4992682,2.12268795,0.652975165,-0.7255552,0.9848674975,-3.4000759
250,2.5,2.591888,1.9136529,0.50788313,-0.3585779,0.82833326,-4.1538835
251,2.51,2.6116564,1.7638018,0.40147418,-0.32986724,0.95478237,-4.6883907
252,2.52,2.5428324,1.5995512,0.3226437,-0.35979962,1.1111639,-5.185635
253,2.53,2.5428324,1.5995512,0.3226437,-0.47708577,1.4648548,-5.8551435
254,2.54,2.1982236,1.027481,0.15936938,-0.52778757,1.7324139,-6.1208696
255,2.55,2.0705817,0.8468786,0.17938207,-0.5222898,2.0054705,-6.324288
256,2.56,1.8140775,0.46688148,0.2328306,-0.3231477,2.3732114,-6.532593
257,2.57,1.8140775,0.46688148,0.2328306,-0.3231477,2.3732114,-6.532593
258,2.58,1.7596527499999999,0.34204622,0.22599701,0.001527164999999997,2.4468207,-6.6318585
259,2.59,1.705228,0.21721096,0.21916342,0.32620203,2.52043,-6.731124
260,2.6,1.56538325,0.021599070000000005,0.025503985,0.6933320700000001,2.4425447,-6.77357915
261,2.61,1.5055892,-0.07785426,-0.09005712,0.806953,2.4220808,-6.7702193
262,2.62,1.4252943,-0.18645974,-0.19402552,0.806953,2.4220808,-6.7702193
263,2.63,1.3657444,-0.27554062,-0.24747404,0.7275405,2.5088236,-6.7170744
264,2.64,1.3183973,-0.36022848,-0.27041543,0.62980205,2.5399778,-6.6419377
265,2.65,1.2898425,-0.42612398,-0.2630937,0.4905248,2.58029485,-6.4357708
266,2.66,1.2363939,-0.5281399,-0.25430766,0.41722095,2.611449,-6.296188
267,2.67,1.2112561,-0.5588911,-0.26968327,0.32375857,2.7000244,-6.075666
268,2.68,1.1761118,-0.56670094,-0.2660224,0.25167647,2.7934868,-5.905845
269,2.69,1.039928,-0.4751795,-0.16473864,0.15577064,3.2058208,-5.3982162
270,2.7,0.98574716,-0.40562314,-0.05759751,0.15577064,3.2058208,-5.3982162
271,2.71,0.9386441,-0.3270367,0.047347106,0.39645153,3.5570683,-5.06224
272,2.72,0.8600578,-0.23771177,0.16180995,0.73426,3.5717292,-4.9974885
273,2.73,0.6489482,-0.15424417,0.31581008,1.7037032,2.9956832,-4.9113564
274,2.74,0.50934744,-0.12935033,0.34680536,1.7037032,2.9956832,-4.9113564
275,2.75,0.29189245025,-0.0987821675,0.29622449,2.3759603499999997,2.26142315,-4.67311905
276,2.76,0.0744374605,-0.068214005,0.24564362,3.0482175,1.5271631,-4.4348817
277,2.77,-0.029286869,-0.063943,0.16058967,3.378085,1.0311406,-4.056145
278,2.78,-0.029286869,-0.063943,0.16058967,3.378085,1.0311406,-4.056145
279,2.79,-0.082491346,-0.076633975,0.036120474,3.378085,1.0311406,-4.056145
280,2.8,-0.11434082000000001,-0.14777665750000002,-0.38463421499999995,3.0182851499999996,0.17715092000000002,-1.806634
281,2.81,-0.191829,-0.20671648,-0.56426036,2.158187,0.49541172,-1.0409144
282,2.82,-0.191829,-0.20671648,-0.56426036,2.158187,0.49541172,-1.0409144
283,2.83,-0.2574804,-0.20549619000000002,-0.57499888,1.6701055999999999,0.61086526,-0.63102381
284,2.84,-0.3231318,-0.2042759,-0.5857374,1.1820242,0.7263188,-0.22113322
285,2.85,-0.58158845,-0.27187976,-0.61966133,0.5888741,0.784351,0.3659083
286,2.86,-0.6936107,-0.37291947,-0.44540447,-0.4288274,0.5363397,1.4721853
287,2.87,-0.75169635,-0.42319524,-0.32532832,-0.4288274,0.5363397,1.4721853
288,2.88,-0.7873287,-0.47835222,-0.2362474,-1.1985176,-0.08979719,2.9083295
289,2.89,-0.7721971,-0.64992446,-0.14692247,-1.5754215,-0.4098906,4.2797217
290,2.9,-0.6621273,-0.76292293,-0.127641945,-1.7180585000000002,-0.39461895999999996,5.0390272
291,2.91,-0.5520575,-0.8759214,-0.10836142,-1.8606955,-0.37934732,5.7983327
292,2.92,-0.5520575,-0.8759214,-0.10836142,-1.8606955,-0.37934732,5.7983327
293,2.93,-0.5520575,-0.8759214,-0.10836142,-1.8606955,-0.37934732,5.7983327
294,2.94,0.27944556,-1.1722069,-0.25943285,-2.1923954,-0.8197812,7.746993
295,2.95,0.51349643,-1.2177236,-0.283838575,-2.28219255,-1.1566733999999999,7.9253659999999995
296,2.96,0.7475473,-1.2632403,-0.3082443,-2.3719897,-1.4935656,8.103739
297,2.97,1.1975889,-1.2495731,-0.26577836,-2.3903158,-2.2290473,8.235685
298,2.98,1.4741058,-1.1697664,-0.22575295,-2.324953,-2.4929411,8.243627
299,2.99,1.7677068,-1.0330943,-0.16547081,-2.2492058,-2.624277,8.194146
300,3.0,2.1006007,-0.8336995,-0.10323621,-1.8759671500000001,-2.5024096,7.5228057
301,3.01,2.7949436,0.014643434,0.09689073,-1.6523905,-2.3341162,7.072598
302,3.02,2.7949436,0.014643434,0.09689073,-1.6523905,-2.3341162,7.072598
303,3.03,2.7600434,0.24454537,0.11299851,-1.6523905,-2.3341162,7.072598
304,3.04,2.651438,0.48128092,0.15497635,-1.269378,-1.8936822,5.76779
305,3.05,2.651438,0.48128092,0.15497635,-1.269378,-1.8936822,5.76779
306,3.06,2.651438,0.48128092,0.15497635,-1.269378,-1.8936822,5.76779
307,3.07,2.5396597,0.68580085,0.22306833,-0.806953,-1.790446,4.938235
308,3.08,2.5396597,0.68580085,0.22306833,-0.806953,-1.790446,4.938235
309,3.09,2.3036563,1.4465274,-0.1849954,0.9981538,-2.7311785,3.5479054
310,3.1,2.2053013,1.5783182,-0.35705575,0.86559606,-2.3768766,3.2968397
311,3.11,2.08132,1.6852154,-0.47859627,0.6579019,-2.062892,3.12763
312,3.12,1.9138969,1.7879633,-0.5886661,0.27366763,-1.6676621,2.9443705
313,3.13,1.5658714,2.0325086,-0.73778504,-0.76052725,-1.078788,2.8930578
314,3.14,1.6176114,2.3161032,-0.53350914,-1.7037032,-0.8002335,3.0335567
315,3.15,1.6176114,2.3161032,-0.53350914,-1.7037032,-0.8002335,3.0335567
316,3.16,2.0500808,2.7400305,-0.122272685,-2.4953845,-0.589485,2.606562
317,3.17,2.0500808,2.7400305,-0.122272685,-2.4953845,-0.589485,2.606562
318,3.18,2.1435547,2.818129,0.041245673,-2.4953845,-0.589485,2.606562
319,3.19,2.24227595,2.89073605,0.2587006865,-2.5234843500000004,-0.47769665000000006,2.05739415
320,3.2,2.3409972,2.9633431,0.4761557,-2.5515842,-0.3659083,1.5082263
321,3.21,2.5722413,2.91709425,0.82454743,-2.0699168500000003,-0.28221974,0.35002578500000003
322,3.22,2.5989656,2.8659642,0.86933196,-1.5161675,-0.06841691,-0.86742866
323,3.23,2.5562556,2.7219706,0.90374404,-1.5161675,-0.06841691,-0.86742866
324,3.24,2.3840733,2.48816375,0.86847772,-1.1789699,0.24526239499999997,-1.59649633
325,3.25,2.211891,2.2543569,0.8332114,-0.8417723,0.5589417,-2.325564
326,3.26,1.81505385,1.9698471499999999,0.7097794575,-0.4943426913125,0.8257371250000001,-2.861750925
327,3.27,1.4182166999999999,1.6853373999999999,0.586347515,-0.146913082625,1.09253255,-3.39793785
328,3.28,1.138283,1.3057063,0.22306833,0.22968534,1.2113458,-3.7384953
329,3.29,1.138283,1.3057063,0.22306833,0.22968534,1.2113458,-3.7384953
330,3.3,1.138283,1.3057063,0.22306833,0.4605924,1.2528846,-4.0494256
331,3.31,1.2083274,1.1155857,-0.0019524579,0.43188173,1.323745,-4.4813075
332,3.32,1.2666571,1.018939,-0.11592719,0.30970868,1.3921618,-4.7299294
333,3.33,1.2488409,0.8685997,-0.37316352,0.15271631,1.4807373,-4.9168544
334,3.34,1.2551864,0.79660285,-0.5034901,-0.5363397,1.9572122,-5.222898
335,3.35,1.3166889,0.68604493,-0.61111933,-1.03786,2.3109033,-5.307197
336,3.36,1.3166889,0.68604493,-0.61111933,-1.03786,2.3109033,-5.307197
337,3.37,1.5473229,0.3333822,-0.4966565,-1.8912388,2.9211576,-5.621793
338,3.38,1.6876558,0.059549972,-0.032459613,-1.8912388,2.9211576,-5.621793
339,3.39,1.6876558,0.059549972,-0.032459613,-2.1142046,3.3475416,-6.2674775
340,3.4,1.6788697,-0.045882765,0.23112221,-1.5314392,3.3884695,-6.663318
341,3.41,1.7400061,-0.1755991825,0.390979705,-0.72509706,3.3148602499999997,-6.77663365
342,3.42,1.8011425,-0.3053156,0.5508372,0.08124508,3.241251,-6.8899493
343,3.43,1.9085277,-0.39976576,0.46883395,0.65240407,3.2125404,-7.1116934
344,3.44,1.9753993,-0.51642513,0.36169282,1.142318,3.1984904,-7.4464474
345,3.45,1.9753993,-0.51642513,0.36169282,1.4611896,3.1697798,-7.7225585
346,3.46,1.6041883,-0.7060576,0.097134784,2.0934353,2.9944615,-8.334645
347,3.47,1.6041883,-0.7060576,0.097134784,2.0934353,2.9944615,-8.334645
348,3.48,0.80416864,-0.6994681,0.051496077,2.6041186,2.7776043,-8.586322
349,3.49,0.33142974999999997,-0.6214918,0.0361204715,2.97705185,2.50271495,-8.2640906
350,3.5,-0.14130914,-0.5435155,0.020744866,3.3499851,2.2278256,-7.9418592
351,3.51,-0.9071608,-0.43173727,-0.04905551,3.9559634,0.7556403,-6.74212
352,3.52,-1.1736712,-0.31019676,-0.20842488,4.1239514,-0.35796702,-5.742133
353,3.53,-1.2244352,-0.28042176,-0.665056,4.0457606,-1.2333369,-4.656015
354,3.54,-1.1521943,-0.3121492,-0.8288184,3.232699,-1.8570304,-2.9761355
355,3.55,-1.1995413,-0.340948,-0.92156017,1.6572775,-1.3933836,-1.0274754
356,3.56,-1.2222387,-0.34973404,-0.9235126,1.6572775,-1.3933836,-1.0274754
357,3.57,-1.0330943,-0.42612398,-0.86664724,0.8063421,-0.9963212,0.062308256
358,3.58,-0.87299275,-0.52252656,-0.7890371,-0.6469063,-0.25900686,1.7935003
359,3.59,-0.73607665,-0.5964759,-0.6811638,-0.6469063,-0.25900686,1.7935003
360,3.6,-0.73607665,-0.5964759,-0.6811638,-0.6469063,-0.25900686,1.7935003
361,3.61,-0.465905265,-0.77793245,-0.294699127,-1.82312735,0.23304509999999998,3.1089986499999998
362,3.62,-0.32996538,-0.8932495,-0.040513504,-2.9993484,0.72509706,4.424497
363,3.63,-0.2975058,-0.95719254,0.10640897,-3.0274482,0.70921457,4.732373
364,3.64,-0.2626056,-1.0174747,0.25674823,-2.91566,0.5992588,5.154481
365,3.65,-0.23429495,-1.0462735,0.36364532,-2.7751609999999998,0.4954117,5.377751999999999
366,3.66,-0.23429495,-1.0462735,0.36364532,-2.634662,0.3915646,5.601023
367,3.67,0.13740423,-1.0723876,0.42465958,-0.81245077,-0.9285152,7.235088
368,3.68,0.13740423,-1.0723876,0.42465958,-0.81245077,-0.9285152,7.235088
369,3.69,0.13740423,-1.0723876,0.42465958,-0.37873647,-1.2351695,7.4556103
370,3.7,0.13740423,-1.0723876,0.42465958,-0.124005646,-1.4251486,7.528303
371,3.71,0.86884385,-0.9691513,0.18304294,0.3268129,-1.6896533,7.38475
372,3.72,1.5867382,-0.6189292,-0.05857374,0.44043383,-1.6927075,7.142236
373,3.73,1.6803342,-0.5008055,-0.07834238,0.5027421,-1.6676621,6.923547
374,3.74,1.7162106,-0.36974674,-0.06955632,0.57543504,-1.7153096,6.318179
375,3.75,1.7035197,-0.23185438,-0.05588911,0.6414085,-1.7916678,6.056118
376,3.76,1.7035197,-0.23185438,-0.05588911,0.6414085,-1.7916678,6.056118
377,3.77,1.7001028,-0.12178457,-0.048567392,0.70738196,-1.853976,5.894239
378,3.78,1.8223755,0.2277054,-0.008297946,1.1258247,-2.1875083,5.222287
379,3.79,1.8221315,0.3943965,0.0017084008,1.2980887,-2.3432791,5.0927835
380,3.8,1.8372629,0.5789038,-0.053936653,1.2980887,-2.3432791,5.0927835
381,3.81,2.029824,0.92229235,-0.3829258,1.6762142,-2.3536637,4.8185053
382,3.82,2.0439794,1.1530484749999999,-0.55230152,1.34573615,-1.91628435,4.717407
383,3.83,2.0581348,1.3838046,-0.72167724,1.1563679,-1.7073684,4.693278
384,3.84,2.1025531,1.6566606,-0.9261973,0.5381723,-1.2137892,4.6627345
385,3.85,2.137514325,1.8841829499999998,-0.8978866400000001,-0.4063780975,-0.7698429075,4.539187
386,3.86,2.17247555,2.1117052999999997,-0.86957598,-1.350928495,-0.325896615,4.415639499999999
387,3.87,2.242398,2.56675,-0.81295466,-2.6401596,0.19914207,4.226577
388,3.88,2.2997513,2.784449,-0.6643238,-3.200934,0.45448375,4.1221185
389,3.89,2.7397866,3.2220438,0.008542004,-4.238794,1.0531317,3.5369098
390,3.9,2.7397866,3.2220438,0.008542004,-4.238794,1.0531317,3.5369098
391,3.91,3.0219169,3.7794704,1.7999222,-3.9150352,1.1924089,2.031127
392,3.92,3.0219169,3.7794704,1.7999222,-3.0573804,1.0726794,0.9334021
393,3.93,2.3510034,3.7455466,1.978084,-0.6365216,0.838718,-0.93218035
394,3.94,2.072534,3.5959396,1.7123058,0.5662720800000001,0.66614858,-1.7366898499999999
395,3.95,1.790404,3.1812863,0.8771418,0.9560041,0.60048056,-2.0250182
396,3.96,1.790404,3.1812863,0.8771418,1.3677273,0.6102544,-2.5638015
397,3.97,1.6127303,2.6389909,0.20012695,1.3640621,0.9841039,-3.476434
398,3.98,1.33682355,2.19797955,0.0018304305000000007,0.9892962299999999,1.54090755,-4.0671407
399,3.99,1.2473766,2.0700936,-0.026114125,0.86315256,1.7220291,-4.219857
400,4.0,1.10802,1.7803977,-0.020012695,0.675617,2.008525,-4.4043384
401,4.01,1.0452971,1.274955,0.06589546,0.58093286,2.26631,-4.6706758
402,4.02,1.0511546,1.07434,0.10933765,0.58093286,2.26631,-4.6706758
403,4.03,1.052863,0.89666635,0.14008886,0.8668178,2.221717,-5.0109277
404,4.04,1.0631135,0.72070104,0.1466784,1.0482447,2.122146,-5.1379876
405,4.05,1.0762925,0.5791479,0.13252309,1.2815952,1.9303342,-5.3059754
406,4.06,1.0494461,0.35949633,0.04271002,1.6584991,1.5418239,-5.5655932
407,4.07,1.0121055,0.3333822,-0.07272906,1.6584991,1.5418239,-5.5655932
408,4.08,1.0296776,0.312637335,-0.12947237,1.6939293,1.4022412,-5.5744506000000005
409,4.09,1.2302926,0.07516963,-0.3053156,1.4630222,1.1667526,-5.720753
410,4.1,1.2302926,0.07516963,-0.3053156,1.2925909,1.0757337,-5.8649173
411,4.11,1.1946602,-0.038316987,-0.2962855,1.1074986,1.0012082,-5.949217
412,4.12,1.19344,-0.10543273,-0.26992732,1.0170906,0.9920452,-5.97151335
413,4.13,1.19344,-0.10543273,-0.26992732,0.7049385,1.0757337,-6.093381
414,4.14,1.048714,-0.44101146,0.040513504,0.7305948,1.1765264,-6.1214805
415,4.15,1.048714,-0.44101146,0.040513504,0.7305948,1.1765264,-6.1214805
416,4.16,0.7641432,-0.4617563,0.24259292,1.042747,1.1759156,-6.027407
417,4.17,0.7641432,-0.4617563,0.24259292,1.042747,1.1759156,-6.027407
418,4.18,0.7641432,-0.4617563,0.24259292,1.042747,1.1759156,-6.027407
419,4.19,0.68214005,-0.47127452,0.29164842,1.8955148,0.9761627,-5.7201424
420,4.2,0.297627825,-0.478352185,0.268218925,2.2779164,0.7825184,-5.6773815
421,4.21,0.09200958,-0.46810177,0.21745501,2.9743028,0.24801129,-5.4776287
422,4.22,-0.15302388,-0.43246946,0.13911264,3.1398473,0.017104227,-5.2925363
423,4.23,-0.15302388,-0.43246946,0.13911264,3.2467487,-0.3145956,-4.891809
424,4.24,-0.66847277,-0.30555966,0.07785426,3.28279,-0.70066243,-4.2681155
425,4.25,-0.74498472,-0.253697505,0.09225364,3.2904257,-1.032362265,-3.0350840000000003
426,4.26,-0.82149667,-0.20183535,0.10665302,3.2980614,-1.3640621,-1.8020525
427,4.27,-0.5994046,0.06589546,-0.2865232,3.0402763,-1.3335189,-0.9718866
428,4.28,-0.37926495,0.023429496,-0.44320798,2.701857,-1.2351695,-0.5112942
429,4.29,-0.19378147,-0.05296042,-0.5762192,1.5992452,-0.6646214,0.13988814
430,4.3,-0.19378147,-0.05296042,-0.5762192,1.5992452,-0.6646214,0.13988814
431,4.31,-0.19378147,-0.05296042,-0.5762192,1.5992452,-0.6646214,0.13988814
432,4.32,-0.37218732,-0.13667206,-0.6343048,-0.18387043,0.1966986,0.93401295
433,4.33,-0.37218732,-0.13667206,-0.6343048,-0.18387043,0.1966986,0.93401295
434,4.34,-0.76060438,-0.35998443999999996,-0.23966422,-1.6676621,0.9193522,2.0598376
435,4.35,-0.9108216,-0.41977844,-0.08053889,-2.1655173,1.10139,3.3261611
436,4.36,-0.9108216,-0.41977844,-0.08053889,-2.1655173,1.10139,3.3261611
437,4.37,-0.8820229,-0.55059314,0.07175283,-2.2492058,0.9969321,4.0732493
438,4.38,-0.7917217,-0.6343048,0.0993313,-2.1972823,0.52656585,5.4379225
439,4.39,-0.6645679,-0.7145996,0.10177187,-2.098933,0.16187929,6.2332687
440,4.4,-0.47664383,-0.7909895,0.099087246,-1.9798143,-0.23396139,7.020674
441,4.41,-0.47664383,-0.7909895,0.099087246,-1.9798143,-0.23396139,7.020674
442,4.42,0.132401035,-0.8421195,0.091399438,-1.5683965,-0.9126326950000001,8.3089885
443,4.43,0.7414459,-0.8932495,0.08371163,-1.1569787,-1.591304,9.597303
444,4.44,1.7913802,-0.788549,-0.055400997,-0.7788532,-1.7305813,9.901515
445,4.45,1.7913802,-0.788549,-0.055400997,-0.7788532,-1.7305813,9.901515
446,4.46,2.5518627,-0.456143,-0.1632743,-0.63224554,-1.428203,9.138544
447,4.47,2.5518627,-0.456143,-0.1632743,-0.63224554,-1.428203,9.138544
448,4.48,2.51623,0.024893839,-0.24723,-0.766025,-0.55955255,7.810523
449,4.49,2.2323916,0.4217309,-0.3699908,-1.2815952,0.172264,7.1544538
450,4.5,2.1684487,0.6433349,-0.17669745,-1.2815952,0.172264,7.1544538
451,4.51,2.1684487,0.6433349,-0.17669745,-1.9840903,0.4343252,6.7146306
452,4.52,2.1845565,0.7228975,0.014399378,-2.1019874,0.30543262,6.4171395
453,4.53,2.3778498,0.87226063,0.37584817,-1.8032742,-0.20219639,5.5875845
454,4.54,2.3739447499999997,0.9737884000000001,0.498730985,-1.3952162,-0.51007247,4.8569894
455,4.55,2.3217165,1.0099089,0.5354616,-0.8888089,-0.7611381,4.043928
456,4.56,2.1132917,1.0535952,0.60184515,-0.8888089,-0.7611381,4.043928
457,4.57,1.5112025,1.1180263,0.50690687,0.16249016,-0.90224797,2.9162707
458,4.58,1.2647047,1.1431642,0.3248402,1.174083,-0.915687,2.4349089
459,4.59,1.21137815,1.1648853,0.175721221,1.3408492,-0.94317593,2.4321600500000002
460,4.6,1.3393861,1.3545178,-0.17401282,1.5442673,-1.0824533,2.443461
461,4.61,1.3393861,1.3545178,-0.17401282,1.5442673,-1.0824533,2.443461
462,4.62,1.3393861,1.3545178,-0.17401282,1.5442673,-1.0824533,2.443461
463,4.63,1.599063,1.6642264,-0.33753118,1.0629056,-1.2027937,2.208278
464,4.64,1.7074246,1.8465372,-0.32069123,0.77763146,-1.0580186,2.0073032
465,4.65,1.7168207,2.1638114,-0.25613807,0.57726765,-0.8772025,1.817935
466,4.66,1.679846,2.3290381,-0.22819352,0.073303826,-0.19242255,1.3805555
467,4.67,1.6207842,2.4820623,-0.25137895,-0.226631,0.12461651,1.2962561
468,4.68,1.6207842,2.4820623,-0.25137895,-0.49541172,0.31642818,1.2895365
469,4.69,1.9980967,2.7383223,-0.21062139,-1.3469579,0.51251596,1.1099422
470,4.7,1.9980967,2.7383223,-0.21062139,-1.3469579,0.51251596,1.1099422
471,4.71,2.59628105,2.6150734499999997,0.035266273,-2.07205495,0.5265658200000001,-0.10965029500000001
472,4.72,2.6614444,2.5608926,0.107873306,-2.180789,0.5742133,-0.48197266
473,4.73,2.604091,2.4222682,0.23014598,-2.2809708,0.8906415,-1.2986995
474,4.74,2.1218338,2.059355,0.50666285,-2.112372,1.7641789,-2.5008824
475,4.75,1.8235958,1.8626448,0.652365,-1.7733418,2.1734586,-2.9883528
476,4.76,1.6207842,1.6908286,0.72631437,-1.2241739,2.3671029,-3.3713653
477,4.77,1.2847173,1.3079028,0.6894617,-1.2241739,2.3671029,-3.3713653
478,4.78,1.2847173,1.3079028,0.6894617,0.6243043,1.9449949,-4.0732493
479,4.79,1.1124129,1.2057647999999999,0.5658467199999999,1.02716995,1.73730075,-4.0906591500000005
480,4.8,0.9401085,1.1036268,0.44223174,1.4300356,1.5296066,-4.108069
481,4.81,0.9791577,0.8932495,0.0039049159,1.4300356,1.5296066,-4.108069
482,4.82,0.9791577,0.8932495,0.0039049159,1.4300356,1.5296066,-4.108069
483,4.83,1.2737348,0.6213697,-0.056377225,1.4129313,1.5167783,-4.6114216
484,4.84,1.32462075,0.46297662,0.003294773000000001,1.42026165,1.4929546,-4.8380528
485,4.85,1.2036903,0.30555966,-0.029774986,1.5809193,1.078788,-5.9504385
486,4.86,1.2036903,0.30555966,-0.029774986,1.5809193,1.078788,-5.9504385
487,4.87,1.2285842,0.20988922,-0.08127106,1.5735888,1.0494665,-6.0359597
488,4.88,1.3869772999999999,-0.03197149500000001,-0.067603858,1.5537357,1.0662653,-6.06039435
489,4.89,1.4499441499999999,-0.19268319750000001,-0.006345486999999997,1.7304285,1.06977775,-6.3655214749999995
490,4.9,1.512911,-0.3533949,0.054912884,1.9071213,1.0732902,-6.6706486
491,4.91,1.4355447,-0.42197496,0.021965152,2.1288655,0.91324353,-6.886284
492,4.92,1.2859376,-0.46724758,-0.037584816,2.22965825,0.753196835,-7.04236015
493,4.93,1.1363305,-0.5125202,-0.097134784,2.330451,0.59315014,-7.1984363
494,4.94,0.6074585,-0.50495446,-0.09030118,2.4336872,0.38545597,-7.311446
495,4.95,0.465783265,-0.47578961,-0.087250465,2.4773641,0.389426585,-7.257079
496,4.96,0.32410803,-0.44662476,-0.08419975,2.521041,0.3933972,-7.202712
497,4.97,-0.24259292,-0.31434575,-0.14497001,2.7128525,0.28527406,-6.453791
498,4.98,-0.24259292,-0.31434575,-0.14497001,2.692694,0.13988814,-5.866139
499,4.99,-0.6092889,-0.19170697,-0.24954853999999999,2.65695835,0.0824668075,-5.5875845
500,5.0,-0.724789,0.009091125000000005,-0.30574272,2.4231496750000003,-0.12767084625000003,-4.4868053
501,5.01,-0.8402891,0.20988922,-0.3619369,2.189341,-0.3378085,-3.3860261
502,5.02,-0.6496804,0.22843759,-0.43661842,1.6029104,-0.50823987,-1.7201965
503,5.03,-0.41807005,0.1871919,-0.48518583,1.1618657,-0.47219884,-1.0128145
504,5.04,-0.19500175,0.122272685,-0.524479,0.6780604,-0.31948254,-0.5381723
505,5.05,-0.078830495,0.06443111,-0.49812084,0.32986724,-0.1423316,-0.28893927
506,5.06,-0.10884953,-0.08322352,-0.32508424,-0.34208453,0.2706133,0.32742378
507,5.07,-0.19280522,-0.15229172,-0.2630937,-0.56505036,0.35002577,0.74220127
508,5.08,-0.27017137,-0.2072046,-0.21769907,-0.7134906,0.35430184,1.0885619
509,5.09,-0.27017137,-0.2072046,-0.21769907,-1.0555751,0.18509217,2.2143865
510,5.1,-0.40171823,-0.27480847,-0.1398448,-1.0555751,0.18509217,2.2143865
511,5.11,-0.36315718,-0.3316738,-0.16522676,-1.4049901,-0.053145275,3.3579264
512,5.12,-0.25552794,-0.38561043,-0.1901206,-1.6707164,-0.15332718,3.9822304
513,5.13,0.012690976,-0.49641246,-0.21403822,-2.3243423,-0.22052236,5.0475793
514,5.14,0.1398448,-0.54668826,-0.2072046,-2.3243423,-0.22052236,5.0475793
515,5.15,0.2723679,-0.6062382,-0.16254212,-2.8918362,-0.10323623,5.75374
516,5.16,0.47273886,-0.72216535,-0.019036464,-3.3060026,0.20952678,6.3493333
517,5.17,0.47273886,-0.72216535,-0.019036464,-3.3060026,0.20952678,6.3493333
518,5.18,0.63332856,-0.8407772,0.12398108,-3.3677,0.3817908,6.740898
519,5.19,0.8241813499999999,-0.87372497,0.19902869499999998,-3.259577,0.3885103,6.9339314
520,5.2,0.9169231,-0.8742131,0.21452633,-3.0610456,0.312763,7.052439
521,5.21,1.3947871,-0.69434285,0.18865626,-2.8722885,0.07941248,6.9272118
522,5.22,1.3947871,-0.69434285,0.18865626,-2.3060162,-0.16676621,6.767165
523,5.23,1.44860175,-0.629179575,0.20220143499999998,-2.1933116000000004,-0.307876085,6.7179905
524,5.24,1.6874118,-0.3956168,0.28359452,-1.7256943,-0.9224065,6.539923
525,5.25,1.6874118,-0.3956168,0.28359452,-1.7256943,-0.9224065,6.539923
526,5.26,1.897789,-0.24552159,0.35607952,-1.2907583,-1.3988814,6.3365054
527,5.27,2.3075612,0.10323621,0.3909797,-0.3744604,-1.8429805,5.702427
528,5.28,2.3075612,0.10323621,0.3909797,0.37934732,-1.7434094,4.7073274
529,5.29,2.3422174,0.7819594,0.19500175,0.5858198,-1.6352862,4.237572
530,5.3,2.16918085,0.86091193,0.16266416,0.80649484,-1.41720735,3.64533825
531,5.31,1.9961443,0.93986446,0.13032657,1.02716988,-1.1991285,3.0531045
532,5.32,1.9961443,0.93986446,0.13032657,1.0622946,-1.1575897,2.9486465
533,5.33,1.4045495,1.1792847,-0.082003236,1.0635164,-1.0793989,2.8900034
534,5.34,1.4045495,1.1792847,-0.082003236,0.88697636,-1.1429288,3.0305026
535,5.35,1.359399,1.4406699,-0.12861817,0.88697636,-1.1429288,3.0305026
536,5.36,1.58600605,1.7201154,-0.20232346,0.59742624,-1.3567317,3.264464
537,5.37,1.7079736749999999,1.9082836,-0.23758973,0.377514745,-1.317941775,3.23819675
538,5.38,1.8299413,2.0964518,-0.272856,0.15760325,-1.27915185,3.2119295
539,5.39,1.9783281499999998,2.2349542500000004,-0.26577833500000003,-0.43585237499999996,-1.0290025250000001,2.98407675
540,5.4,2.126715,2.3734567,-0.25870067,-1.029308,-0.7788532,2.756224
541,5.41,2.1974914,2.6533904,0.11177822,-1.8558086,-0.045814894,1.4831808
542,5.42,2.1907798,2.6633967,0.21208575000000002,-1.8558086,-0.045814894,1.4831808
543,5.43,2.1840682,2.673403,0.31239328,-1.8558086,-0.045814894,1.4831808
544,5.44,2.183336,2.6936598,0.545468,-1.7757853,-0.04153884,0.5681047
545,5.45,2.2046910000000004,2.63557425,0.65419547,-1.3151929,-0.15943582,-0.10445794999999991
546,5.46,2.226046,2.5774887,0.76292294,-0.8546005,-0.2773328,-0.7770206
547,5.47,2.1960271000000002,2.4541177000000003,0.6804316050000001,-0.611170685,-0.11362092499999998,-1.25013575
548,5.48,2.1660082,2.3307467,0.59794027,-0.36774087,0.05009095,-1.7232509
549,5.49,1.9385467,2.007615,0.375116,-0.13744467,0.7519751,-2.6853635
550,5.5,1.9385467,2.007615,0.375116,-0.13744467,0.7519751,-2.6853635
551,5.51,1.7258508,1.75147685,0.25711432,-0.12614366999999999,1.1459832,-3.1157180999999996
552,5.52,1.5131549,1.4953387,0.13911264,-0.11484267,1.5399913,-3.5460727
553,5.53,1.4438426,1.3447554,0.10201593,-0.13988814,1.7189748,-3.7610974
554,5.54,1.3266952,1.0799533,0.065163285,-0.119729586,1.8625281,-4.1178427
555,5.55,1.2673893,0.94669807,0.05198419,-0.0983493,1.8686367,-4.3182063
556,5.56,1.21272045,0.775247825,0.0485673915,-0.010079275,1.8671096,-4.597066399999999
557,5.57,1.151950225,0.6830552275,0.03319178525,0.0823140925,1.8947513,-4.75237895
558,5.58,1.09118,0.59086263,0.017816179,0.17470746,1.922393,-4.9076915
559,5.59,1.09118,0.59086263,0.017816179,0.17470746,1.922393,-4.9076915
560,5.6,1.150974,0.38951537,-0.062478654,0.2302962,2.0683897,-5.0793447
561,5.61,1.150974,0.38951537,-0.062478654,0.2302962,2.0683897,-5.0793447
562,5.62,1.2290722,0.06687169,-0.012935034,0.3231477,2.3109033,-5.585752
563,5.63,1.2434716,-0.04368625,0.053692598,0.42271876,2.32984,-5.75374
564,5.64,1.2262656,-0.146800435,0.122882824,0.68569623,2.3121248999999997,-5.938221
565,5.65,1.2090596,-0.24991462,0.19207305,0.9486737,2.2944098,-6.122702
566,5.66,1.1531705,-0.4053791,0.28920785,0.9486737,2.2944098,-6.122702
567,5.67,1.1365746,-0.45370242,0.30214286,2.0708332,2.0060816,-6.28336
568,5.68,1.0296775,-0.58256465,0.2020794,3.273016,1.5473217,-6.456235
569,5.69,1.0296775,-0.58256465,0.2020794,3.273016,1.5473217,-6.456235
570,5.7,1.0296775,-0.58256465,0.2020794,3.273016,1.5473217,-6.456235
571,5.71,0.75267255,-0.6108753,0.058085624,3.952909,0.99387777,-6.612616
572,5.72,0.4617563,-0.59989274,-0.03904916,4.162436,0.64568454,-6.595512
573,5.73,0.1581491,-0.56523657,-0.12935033,4.2357397,0.38912117,-6.479448
574,5.74,0.1581491,-0.56523657,-0.12935033,4.2357397,0.38912117,-6.479448
575,5.75,0.1581491,-0.56523657,-0.12935033,3.8124099,-0.46975538,-4.7152686
576,5.76,-0.37963105,-0.27444236800000005,-0.324962215,3.4263431,-0.569937275,-3.9382481499999997
577,5.77,-0.9174112,0.016351834,-0.5205741,3.0402763,-0.67011917,-3.1612277
578,5.78,-0.9174112,0.016351834,-0.5205741,1.8099937,-0.55833083,-1.3567317
579,5.79,-0.84809893,-0.0388051,-0.5288721,1.3494014,-0.42210788,-0.7538077
580,5.8,-0.7630449800000001,-0.12739788999999999,-0.42490368999999995,0.63285643,-0.1563815,0.27916545
581,5.81,-0.67799103,-0.21599068,-0.32093528,-0.08368854,0.10934488,1.3121386
582,5.82,-0.5954997,-0.277005,-0.23502712,-0.45081854,0.19547687,1.9932534
583,5.83,-0.49299565,-0.32337585,-0.1632743,-0.73853606,0.30298916,2.6041186
584,5.84,-0.35974038,-0.37096703,-0.09737884,-0.93828905,0.4129449,3.1300735
585,5.85,-0.35974038,-0.37096703,-0.09737884,-0.93828905,0.4129449,3.1300735
586,5.86,-0.35974038,-0.37096703,-0.09737884,-0.93828905,0.4129449,3.1300735
587,5.87,0.037584815,-0.4249037,0.006833603,-0.93828905,0.4129449,3.1300735
588,5.88,0.2251428075,-0.459193725,-0.010006348,-1.26998885,0.30085113,5.3441545999999995
589,5.89,0.4127008,-0.49348375,-0.026846299,-1.3023647,0.226631,5.6822686
590,5.9,0.588299975,-0.512764275,-0.0480792795,-1.3374895,0.14905112,5.8783563
591,5.91,0.76389915,-0.5320448,-0.06931226,-1.3726143,0.07147124,6.074444
592,5.92,0.76389915,-0.5320448,-0.06931226,-1.3726143,0.07147124,6.074444
593,5.93,1.3100992,-0.38829508,0.0134231495,-1.4899004,-0.15210545,6.3022966
594,5.94,1.3100992,-0.38829508,0.0134231495,-1.44866695,-0.155770635,6.2861088
595,5.95,1.3100992,-0.38829508,0.0134231495,-1.4074335,-0.15943582,6.269921
596,5.96,1.4553133,-0.25259925,0.08895886974999999,-1.1572841999999999,-0.23182336,6.0747495
597,5.97,1.6005274,-0.11690342,0.16449459,-0.9071349,-0.3042109,5.879578
598,5.98,1.6342072,-0.07785426,0.14106509,-0.6969972,-0.36896262,5.649893
599,5.99,1.6766733,-0.033679903,0.09664667,-0.51251596,-0.44532076,5.370116
600,6.0,1.7323183,0.0134231495,0.0622346,-0.3933972,-0.5290093,5.1208835
601,6.01,1.5954022,0.18340903,0.0473471035,-0.067500613,-0.86559605,4.5118504999999995
602,6.02,1.4828918,0.26821893,0.047103047,0.099571034,-1.0476339,4.287663
603,6.03,1.427979,0.345341,0.013667206,0.21380283,-1.1569787,4.256509
604,6.04,1.4523847,0.42685616,-0.08932495,0.3268129,-1.2315043,4.256509
605,6.05,1.7108413,0.63015586,-0.5222825,-0.032986723,-1.0311406,4.13739
606,6.06,1.7108413,0.63015586,-0.5222825,-0.032986723,-1.0311406,4.13739
607,6.07,1.7108413,0.63015586,-0.5222825,-0.36346483,-0.9138544,3.976122
608,6.08,1.8270127,0.7175283,-0.5952556,-0.7134906,-0.7849618,3.7794232
609,6.09,1.8270127,0.7175283,-0.5952556,-0.7134906,-0.7849618,3.7794232
610,6.1,1.7428128,0.8847075,-0.43881494,-1.169807,-0.7287622,3.5503488
611,6.11,1.7769808,1.2717823,-0.29994637,-1.5057828,-0.85154617,3.7085629
612,6.12,1.7769808,1.2717823,-0.29994637,-1.5057828,-0.85154617,3.7085629
613,6.13,2.0046864,1.6398207,-0.2962855,-1.6163495,-0.84788096,3.7421606
614,6.14,2.1352568,1.8128573,-0.24649782,-2.0073032,-0.689056,3.6022723
615,6.15,2.2838876,2.0098114,-0.111290105,-2.144748,-0.61758476,3.3512068
616,6.16,2.391761,2.1848004,0.05515694,-2.1587977,-0.6035349,3.0836477
617,6.17,2.420742775,2.4030486499999997,0.2696832575,-1.73180295,-0.64446285,2.304183675
618,6.18,2.44972455,2.6212969,0.484209575,-1.3048082,-0.6853908,1.52471965
619,6.19,2.4415486,2.6529024,0.50715095,-1.1673635,-0.6817256,1.3469579
620,6.2,2.4149466,2.6834095,0.53253293,-0.78801614,-0.6658431,0.86254174
621,6.21,2.335872,2.70269,0.59061855,-0.08246681,-0.66706485,-0.0036651916
622,6.22,2.2953584,2.6707184,0.5962319,0.37201694,-0.7147123,-0.5497787
623,6.23,2.2026167,2.5541811,0.48787045,0.78282382,-0.6973026499999999,-1.1316278499999999
624,6.24,2.109875,2.4376438,0.379509,1.1936307,-0.679893,-1.713477
625,6.25,1.9807687,2.2731493,0.23478307,1.3811663,-0.60231316,-2.1319196
626,6.26,1.6346955,1.8665497,-0.03172744,1.5351044,-0.2779437,-3.1312952
627,6.27,1.4313958,1.6593453,-0.108117364,1.5039502,-0.08979719,-3.5167513
628,6.28,1.094474725,1.355738,-0.18414119499999998,1.38483155,0.23151792699999998,-3.9440516
629,6.29,1.0099698875,1.2876460500000002,-0.2042149025,1.3494013749999998,0.3225368485,-4.0394993
630,6.3,0.92546505,1.2195541,-0.22428861,1.3139712,0.41355577,-4.134947
631,6.31,0.82759815,1.0140579,-0.35168648,1.0842859,0.6420194,-4.2711697
632,6.32,0.82247293,0.9266854,-0.42319524,1.0842859,0.6420194,-4.2711697
633,6.33,0.8473667,0.7839119,-0.5186216,0.37201694,0.68477994,-4.6865582
634,6.34,0.8925173,0.7067898,-0.54839665,0.14294247,0.7098254,-4.8160615
635,6.35,0.938156,0.6037976,-0.5632841,-0.17592919,0.7733554,-5.004208
636,6.36,0.97696114,0.4966565,-0.5342413,-0.8753699,1.0030408,-5.4922895
637,6.37,1.0509106,0.31068486,-0.4271002,-0.8753699,1.0030408,-5.4922895
638,6.38,1.0509106,0.31068486,-0.4271002,-1.0201449,1.1221595,-5.6309557
639,6.39,1.1475571,0.12471326,-0.27846932,-1.0800097,1.2235631,-5.765346
640,6.4,1.1900232,0.08127106,-0.20696054,-1.0659598,1.287704,-5.8533106
641,6.41,1.1900232,0.08127106,-0.20696054,-0.9804387,1.351234,-5.9596014
642,6.42,1.2625082,-0.06321083,-0.014643434,-0.59742624,1.3096951,-6.208834
643,6.43,1.2625082,-0.06321083,-0.014643434,-0.59742624,1.3096951,-6.208834
644,6.44,1.3018013,-0.15668476,0.05027579,-0.11301007,1.0867293,-6.4440174
645,6.45,1.1837996,-0.17218239000000002,0.063332853,0.33078353499999996,0.8607091499999999,-6.5377852
646,6.46,1.0657979,-0.18768002,0.076389916,0.77457714,0.634689,-6.631553
647,6.47,0.8757993749999999,-0.17840585,0.07455948800000001,1.10688782,0.39858958,-6.6300258
648,6.48,0.68580085,-0.16913168,0.07272906,1.4391985,0.16249016,-6.6284986
649,6.49,0.09664667,-0.0388051,0.0707766,1.894904,-0.64873886,-6.1385846
650,6.5,0.09664667,-0.0388051,0.0707766,1.894904,-0.64873886,-6.1385846
651,6.51,-0.25870067,0.14497001,0.0776102,2.1655173,-1.7153096,-4.945565
652,6.52,-0.23954218000000002,0.201469265,0.035632355000000004,2.271197025,-2.1568124500000003,-3.800039925
653,6.53,-0.22038369000000002,0.25796852,-0.006345489999999995,2.37687675,-2.5983153000000003,-2.65451485
654,6.54,-0.18206671,0.37096703,-0.09030118,2.3365595,-2.552195,-2.3218987
655,6.55,-0.07004443,0.35461518,-0.19597797,2.1252003,-2.266921,-1.785559
656,6.56,-0.07004443,0.35461518,-0.19597797,1.8979583,-1.9730947,-1.4337007
657,6.57,-0.033923957,0.2801777,-0.32996538,1.5467108,-1.5180001,-0.9279043
658,6.58,-0.07272906,0.25162303,-0.33069757,0.820392,-0.7287622,0.032375857
659,6.59,-0.117391534,0.2323425,-0.2967736,0.37934732,-0.34697145,0.5662721
660,6.6,-0.13838045,0.1986626,-0.24918245,-0.020158553,0.00061086525,1.0995574
661,6.61,-0.11324256,0.052716363,-0.18963248,-0.39522982,0.29626966,1.6346754
662,6.62,-0.09469421,-0.05198419,-0.1564407,-0.39522982,0.29626966,1.6346754
663,6.63,-0.087128437,-0.099575355,-0.12861817,-1.2412782,1.02839165,2.71102
664,6.64,-0.07370529,-0.26626647,-0.021965152,-1.7348573,1.5418239,3.3597589
665,6.65,-0.054424766,-0.5735345,0.2757847,-2.0751092,2.2272146,4.466036
666,6.66,-0.006833603,-0.64821607,0.39927766,-2.0751092,2.2272146,4.466036
667,6.67,-0.006833603,-0.64821607,0.39927766,-2.0751092,2.2272146,4.466036
668,6.68,-0.006833603,-0.64821607,0.39927766,-2.0751092,2.2272146,4.466036
669,6.69,0.17718557,-0.73510045,0.520086,-1.0024298,1.998751,5.3566775
670,6.7,0.2979939,-0.758774025,0.42905265000000004,-0.63652155,1.7849482,5.447391
671,6.71,0.41880223,-0.7824476,0.3380193,-0.2706133,1.5711454,5.5381045
672,6.72,0.5469323,-0.8073414,0.18938842,0.03726278,1.2974777,5.5564303
673,6.73,0.7556012,-0.8088057,-0.1164153,0.22113322,1.0030408,5.514281
674,6.74,0.8002637,-0.80392456,-0.24649782,0.24678956,0.4605924,5.3108625
675,6.75,0.8232051,-0.77414954,-0.3328941,0.0983493,0.13927728,5.189911
676,6.76,0.8175918,-0.71996886,-0.35412705,-0.08674286,-0.111177474,5.117829
677,6.77,0.8175918,-0.71996886,-0.35412705,-0.1881465,-0.24556783,5.1202726
678,6.78,0.8175918,-0.71996886,-0.35412705,-0.1881465,-0.24556783,5.1202726
679,6.79,0.9242448,-0.35998443,-0.25381953,-0.10567969,-0.6389651,5.381723
680,6.8,1.0811737,-0.22672918,-0.22453266,0.032375857,-0.7874053,5.462357
681,6.81,1.68912025,0.21074343499999998,-0.32032515,0.2782491085,-0.98838,5.4370062
682,6.82,1.7933327,0.31605414,-0.36242503,0.52412236,-1.1893547,5.4116554
683,6.83,1.8731394,0.5347294,-0.47444725,0.838718,-1.3610078,5.149594
684,6.84,1.9246354,0.80587703,-0.652365,0.838718,-1.3610078,5.149594
685,6.85,1.9588034,1.0294335,-0.8346757,0.10934487999999998,-0.70371677,5.367062150000001
686,6.86,2.1545374,1.4767904,-1.0455412,-0.34574974,-0.37384954,5.512448
687,6.87,2.418363,1.7120615,-1.040172,-0.9914343,-0.022602014,5.6046886
688,6.88,2.7339292,1.8985213,-0.9757409,-1.613906,0.21563543,5.4782395
689,6.89,3.3184462,2.2262902,-0.6962953,-2.5076017,0.4550946,4.5717154
690,6.9,3.3456587,2.3325771,-0.35107633699999996,-2.64107585,0.48014007000000003,3.7803395
691,6.91,3.3728712,2.438864,-0.005857374,-2.77455,0.50518554,2.9889636
692,6.92,3.2606049,2.5430765,0.45174995,-2.3732114,0.35369098,2.2033908
693,6.93,3.1131942,2.6489973,0.81246656,-1.8191566,0.1600467,1.6597209
694,6.94,2.7861576,2.788598,1.0684826,0.29016098,-0.28221974,0.589485
695,6.95,2.6834095,2.6619325,0.50788313,1.8185458,-0.30848694,-0.24312437
696,6.96,2.6834095,2.6619325,0.50788313,1.8185458,-0.30848694,-0.24312437
697,6.97,2.6834095,2.6619325,0.50788313,2.0500637,-0.27305676,-0.5510004350000001
698,6.98,2.6834095,2.6619325,0.50788313,2.2815816,-0.23762658,-0.8588765
699,6.99,1.8570317,2.0049303,-0.50446635,2.307238,-0.1160644,-2.63344
700,7.0,1.44786965,1.7487922,-0.541563075,1.9868392,-0.264810085,-3.0567696
701,7.01,1.0387076,1.4926541,-0.5786598,1.6664404,-0.41355577,-3.4800992
702,7.02,0.8600578,1.3511009,-0.5554743,1.4306464,-0.49296826,-3.595553
703,7.03,0.7964808800000001,1.30350975,-0.55352185,1.4306464,-0.49296826,-3.595553
704,7.04,0.73290396,1.2559186,-0.5515694,1.4306464,-0.49296826,-3.595553
705,7.05,0.64821607,1.1153417,-0.5767073,0.7715228,-0.43493605,-3.6517525
706,7.06,0.9066727,0.9220483,-0.6382097,-0.080634214,0.077579886,-4.0555344
707,7.07,0.9066727,0.9220483,-0.6382097,-0.080634214,0.077579886,-4.0555344
708,7.08,0.9066727,0.9220483,-0.6382097,-0.080634214,0.077579886,-4.0555344
709,7.09,0.967443,0.84102124,-0.65993077,-0.080634214,0.077579886,-4.0555344
710,7.1,0.9315665500000001,0.729975195,-0.593181135,-0.7409795570000001,0.470977113,-4.6557095
711,7.11,0.8956901,0.61892915,-0.5264315,-1.4013249,0.86437434,-5.2558846
712,7.12,0.94938266,0.51569295,-0.4424758,-1.5754215,0.99387777,-5.4244833
713,7.13,0.99892628,0.463342665,-0.39744723,-1.62765045,1.056796885,-5.69601295
714,7.14,1.0484699,0.41099238,-0.35241866,-1.6798794,1.119716,-5.9675426
715,7.15,1.2827649,0.038316987,-0.08419975,-1.5485435,1.3041973,-6.2766404
716,7.16,1.2827649,0.038316987,-0.08419975,-1.4544702,1.4190399500000002,-6.3884287
717,7.17,1.2827649,0.038316987,-0.08419975,-1.3603969,1.5338826,-6.500217
718,7.18,1.3149804,-0.21550256,0.06833603,-1.3603969,1.5338826,-6.500217
719,7.19,1.3149804,-0.21550256,0.06833603,-0.97402465,1.55892805,-6.7354002
720,7.2,1.3149804,-0.21550256,0.06833603,-0.5876524,1.5839735,-6.9705834
721,7.21,0.9070387400000001,-0.30080056,0.279201505,0.32284225,1.0433578,-7.017009
722,7.22,0.49909708,-0.38609856,0.49006698,1.2333369,0.5027421,-7.0634346
723,7.23,0.24308102,-0.34509695,0.46712556,1.7446312,0.062308256,-6.891782
724,7.24,-0.05710939000000001,-0.303607215,0.324718165,2.2504276,-0.625526022,-6.4837240000000005
725,7.25,-0.3572998,-0.26211748,0.18231077,2.756224,-1.3133603,-6.075666
726,7.26,-0.8812907,-0.06199054,-0.13325526,2.670703,-3.123354,-3.8515053
727,7.27,-0.936447635,0.046981015,-0.24552158,2.670703,-3.123354,-3.8515053
728,7.28,-0.99160457,0.15595257,-0.3577879,2.670703,-3.123354,-3.8515053
729,7.29,-0.72753465,0.1398448,-0.46444094,1.704925,-3.4061847,-1.8154916
730,7.3,-0.62149176,0.0867623515,-0.45907168,0.86406894,-2.6939158,-0.71929387
731,7.31,-0.51544887,0.033679903,-0.45370242,0.02321288,-1.9816469,0.37690386
732,7.32,-0.36632994,-0.03465613,-0.4002539,-0.5534439,-1.1985176,1.0201449
733,7.33,-0.21391618350000002,-0.108849535,-0.27346614999999996,-1.1737776,-0.24342979999999992,1.56625845
734,7.34,-0.061502427,-0.18304294,-0.1466784,-1.7941113,0.711658,2.112372
735,7.35,-0.073217176,-0.2037878,-0.017328065,-2.0048597,1.0855075,2.4190264
736,7.36,-0.108483453,-0.21660079999999998,0.0959144925,-2.03784645,1.2192870500000001,2.74706105
737,7.37,-0.14374973,-0.2294138,0.20915705,-2.0708332,1.3530666,3.0750957
738,7.38,-0.14374973,-0.2294138,0.20915705,-2.0708332,1.3530666,3.0750957
739,7.39,-0.11556111499999999,-0.2788354,0.30360721,-1.84695105,1.2464705999999999,3.6343427000000004
740,7.4,-0.0873725,-0.328257,0.39805737,-1.6230689,1.1398746,4.1935897
741,7.41,0.4339338,-0.5513253,0.3065359,-0.643852,0.7244862,5.3542337
742,7.42,0.49226347000000004,-0.55962325,0.28298437499999995,-0.53267451,0.66706485,5.41868015
743,7.43,0.55059314,-0.5679212,0.25943285,-0.42149702,0.6096435,5.4831266
744,7.44,0.76341105,-0.5730464,0.1952458,-0.09468412,0.32253686,5.5918603
745,7.45,0.854688425,-0.532532905,0.19402551,0.10812313999999999,0.058948504999999984,5.62423635
746,7.46,0.9459658,-0.49201941,0.19280522,0.3109304,-0.20463985,5.6566124
747,7.47,1.1089962,-0.4183141,0.21428227,0.58459806,-0.50640726,5.71159
748,7.48,1.30143525,-0.2873774,0.17913802499999998,1.01953413,-0.7486153550000001,5.602856
749,7.49,1.4938743,-0.1564407,0.14399378,1.4544702,-0.99082345,5.494122
750,7.5,1.6817985,0.07785426,-0.0622346,1.8521434,-0.8765916,5.0286427
751,7.51,1.69387935,0.1381364,-0.131180775,1.8851301500000002,-0.8213083,4.87623185
752,7.52,1.7059602,0.19841854,-0.20012695,1.9181169,-0.766025,4.723821
753,7.53,1.7640458,0.46956614,-0.41855815,1.6346754,-0.56382865,3.8789942
754,7.54,1.75428355,0.51593702,-0.444306195,1.5479325,-0.5268712950000001,3.7381898
755,7.55,1.7445213,0.5623079,-0.47005424,1.4611896,-0.48991394,3.5973854
756,7.56,1.76807275,0.700322275,-0.525821345,1.25624435,-0.363159395,3.4300083
757,7.57,1.7916242,0.83833665,-0.58158845,1.0512991,-0.23640485,3.2626312
758,7.58,1.8326257,0.9535317,-0.54986095,0.571159,0.12339478,3.0286698
759,7.59,1.8805830000000001,1.12266335,-0.492995635,0.45173485,0.2987131,3.0430251
760,7.6,1.9285403,1.291795,-0.43613032,0.3323107,0.47403142,3.0573804
761,7.61,2.0564265,1.6127303,-0.39464056,0.23945917,0.6414085,3.123354
762,7.62,2.00126945,1.76721855,-0.409283995,0.104152521,0.7754934,3.0045406999999997
763,7.63,1.9461124,1.9217068,-0.42392743,-0.031154128,0.9095783,2.8857274
764,7.64,1.8941283,2.0776594,-0.45907167,-0.18875736,0.9443977,2.805704
765,7.65,1.8128571999999998,2.2722949999999997,-0.471152515,-0.28527408,0.9621128,2.7443121
766,7.66,1.7315861,2.4669306,-0.48323336,-0.3817908,0.9798279,2.6829202
767,7.67,1.615903,2.5691907,-0.43466598,-0.9034697,0.9120218,2.0115793
768,7.68,1.55501075,2.6077517,-0.40184027,-0.9618073,0.8857546000000001,1.8655825000000001
769,7.69,1.4941185,2.6463127,-0.36901456,-1.0201449,0.8594874,1.7195857
770,7.7,1.4721533,2.7392986,0.059794027,-0.6310238,0.6395759,0.68477994
771,7.71,1.4815494999999999,2.7148928000000003,0.08456583849999999,-0.48349985,0.599564225,0.47342056
772,7.72,1.4909457,2.690487,0.10933765,-0.3359759,0.55955255,0.26206118
773,7.73,1.4830138499999999,2.4975597,0.087616555,0.157603225,0.48624872500000005,-0.46089780999999996
774,7.74,1.475082,2.3046324,0.06589546,0.65118235,0.4129449,-1.1838568
775,7.75,1.475082,2.3046324,0.06589546,0.65118235,0.4129449,-1.1838568
776,7.76,1.2669012,2.0027337000000003,-0.10592084,0.890946975,0.34116823500000004,-1.63039925
777,7.77,1.0587204,1.700835,-0.27773714,1.1307116,0.26939157,-2.0769417
778,7.78,0.9637821,1.5810028,-0.33899552,1.323745,-0.06169739,-3.0921998
779,7.79,0.912164,1.4632452,-0.35864212,1.2180653000000001,-0.145080495,-3.3212743
780,7.8,0.8605459,1.3454876,-0.37828872,1.1123856,-0.2284636,-3.5503488
781,7.81,0.8605459,1.3454876,-0.37828872,1.1123856,-0.2284636,-3.5503488
782,7.82,0.854322415,1.116683935,-0.339361595,0.9538660800000001,-0.25961772,-3.9587121
783,7.83,0.84809893,0.88788027,-0.30043447,0.79534656,-0.29077184,-4.3670754
784,7.84,0.8107582,0.7814713,-0.3133695,0.7483099,-0.25534168,-4.5704937
785,7.85,0.81966628,0.64797198,-0.33753116000000005,0.5958990399999999,-0.25320364,-4.79437585
786,7.86,0.82857436,0.51447266,-0.36169282,0.44348818,-0.2510656,-5.018258
787,7.87,0.8605459,0.42392743,-0.35876414,0.44348818,-0.2510656,-5.018258
788,7.88,0.9227805,0.32996539,-0.337653205,0.14538593500000002,-0.368351735,-5.2833735
789,7.89,0.9850151,0.23600335,-0.31654227,-0.15271631,-0.48563787,-5.548489
790,7.9,1.0511546,0.18987654,-0.31434575,-0.15271631,-0.48563787,-5.548489
791,7.91,1.1282767,0.1211744225,-0.31861675,-0.42974370500000003,-0.383623375,-5.6724945
792,7.92,1.2053988,0.052472305,-0.32288775,-0.7067711,-0.28160888,-5.7965
793,7.93,1.2053988,0.052472305,-0.32288775,-0.93401295,-0.11056661,-5.9449406
794,7.94,1.2338314499999998,-0.0688241475,-0.19548986,-1.058629475,0.015577065000000015,-6.10651445
795,7.95,1.2622641,-0.1901206,-0.06809197,-1.183246,0.14172074,-6.2680883
796,7.96,1.0965492,-0.2506468,0.19988288,-0.9627236,0.38423425,-6.6792006
797,7.97,0.822839015,-0.22465469999999998,0.31568805,-0.6640105000000001,0.461203275,-6.7497556
798,7.98,0.54912883,-0.1986626,0.43149322,-0.3652974,0.5381723,-6.8203106
799,7.99,0.27529657,-0.15180361,0.43466598,0.5558874,0.65179324,-6.572299
800,8.0,-0.11885586499999995,-0.024039645,0.38194960499999997,1.099252,0.429743715,-5.9260037
801,8.01,-0.5130083,0.10372432,0.32923323,1.6426166,0.20769419,-5.2797084
802,8.02,-0.69239044,0.20964517,0.32044718,1.9443841,-0.31887165,-4.4941354
803,8.03,-0.71704022,0.251867085,0.201957375,2.11970245,-0.7751879750000001,-3.74399295
804,8.04,-0.74169,0.294089,0.08346757,2.2950208,-1.2315043,-2.9938505
805,8.05,-0.69971216,0.20842488,-0.26065314,1.7800614,-1.8527542,-0.8686504
806,8.06,-0.69971216,0.20842488,-0.26065314,1.7800614,-1.8527542,-0.8686504
807,8.07,-0.69971216,0.20842488,-0.26065314,1.7800614,-1.8527542,-0.8686504
808,8.08,-0.6286915,0.07150877,-0.5554743,1.2742649,-1.7421877,-0.08246681
809,8.09,-0.54620013,0.025870066499999997,-0.51129993,0.44104469999999996,-1.35215025,0.926071695
810,8.1,-0.46370876,-0.019768637,-0.46712556,-0.3921755,-0.9621128,1.9346102
811,8.11,-0.234539,-0.077122085,-0.2630937,-1.3041973,-0.24740042,3.1435125
812,8.12,-0.103968379,-0.1149509575,-0.175721212,-1.5485434,-0.017104225,3.51247515
813,8.13,0.026602242,-0.15277983,-0.088348724,-1.7928895,0.21319197,3.8814378
814,8.14,0.102748096,-0.179504095,-0.005491291999999995,-1.9199495,0.391870035,4.1267001500000005
815,8.15,0.17889395,-0.20622836,0.07736614,-2.0470095,0.5705481,4.3719625
816,8.16,0.19646609,-0.2208718,0.1461903,-2.0146337,0.77274454,4.7494774
817,8.17,0.21452633,-0.25845662,0.27432033,-1.8875736,0.81000733,5.0084844
818,8.18,0.373041515,-0.28762147000000005,0.31397964,-1.5650368000000001,0.7189883850000001,5.336519
819,8.19,0.5315567,-0.31678632,0.35363895,-1.2425,0.62796944,5.6645536
820,8.2,0.9088692,-0.2894519,0.2767609,-0.66339964,0.21624629,5.852089
821,8.21,0.9724461,-0.26712066,0.26101922,-0.435546915,0.029626965000000005,5.8530052
822,8.22,1.036023,-0.24478942,0.24527754,-0.20769419,-0.15699236,5.8539214
823,8.23,1.15121805,-0.17913802,0.23697959,0.02809979500000001,-0.27824912,5.7729818999999996
824,8.24,1.2664131,-0.11348662,0.22868164,0.26389378,-0.39950588,5.6920424
825,8.25,1.3296238,-0.0302631,0.21281794,0.43554693,-0.43188173,5.5698695
826,8.26,1.3296238,-0.0302631,0.21281794,0.43554693,-0.43188173,5.5698695
827,8.27,1.3296238,-0.0302631,0.21281794,0.43554693,-0.43188173,5.5698695
828,8.28,1.3459758,0.2272173,0.058085624,1.0384709,-0.40378192,4.9425106
829,8.29,1.36867305,0.33277207,-0.08432177800000001,1.03663835,-0.34055736000000003,4.4773368
830,8.3,1.3913703,0.43832684,-0.22672918,1.0348058,-0.2773328,4.012163
831,8.31,1.240543,0.48738232,-0.26553428,0.73548174,-0.043982297,3.8124099
832,8.32,1.240543,0.48738232,-0.26553428,0.57543506,0.1160644015,3.66977285
833,8.33,1.240543,0.48738232,-0.26553428,0.41538838,0.2761111,3.5271358
834,8.34,1.078489,0.5532778,-0.15277983,0.44165558,0.43554693,3.645033
835,8.35,1.1416998,0.71874857,-0.2208718,0.6236934,0.29443705,4.2363505
836,8.36,1.3021674,0.883365135,-0.3508323,0.5684100999999999,0.10170906499999999,4.50054975
837,8.37,1.462635,1.0479817,-0.4807928,0.5131268,-0.09101892,4.764749
838,8.38,1.6744769,1.2083274,-0.63235235,-0.27550024,-0.45631635,4.9528956
839,8.39,1.96356265,1.3825842499999998,-0.7321717750000001,-0.49388456999999997,-0.514959395,4.9211303
840,8.4,2.2526484,1.5568411,-0.8319912,-0.7122689,-0.57360244,4.889365
841,8.41,2.7873778,1.9539223,-0.694831,-2.3793201,-0.4801401,3.6890152
842,8.42,2.7382003,2.0083470500000002,-0.61246168,-2.5393668,-0.402254765,3.4813210000000003
843,8.43,2.6890228,2.0627718,-0.53009236,-2.6994135,-0.32436943,3.2736268
844,8.44,2.3305027,2.2558212,-0.060038086,-3.01462,-0.07941248,2.7806585
845,8.45,2.3305027,2.2558212,-0.060038086,-3.0699033499999997,0.13622295,2.3878721499999997
846,8.46,2.3305027,2.2558212,-0.060038086,-3.1251867,0.35185838,1.9950858
847,8.47,2.3305027,2.2558212,-0.060038086,-3.1251867,0.35185838,1.9950858
848,8.48,2.3305027,2.2558212,-0.060038086,-3.1251867,0.35185838,1.9950858
849,8.49,2.0342171,2.2907214,0.72070104,-2.3774874,0.54061574,0.97066486
850,8.5,1.8652075,2.1829700499999998,0.783667805,-1.7379115500000002,0.61544675,0.20036378
851,8.51,1.6961979,2.0752187,0.84663457,-1.0983357,0.69027776,-0.5699373
852,8.52,1.4811834,1.9600239,0.8571291,-0.5155703,0.75441855,-1.024421
853,8.53,1.360131,1.8880268999999998,0.83662825,-0.296880525,0.77243909,-1.16308745
854,8.54,1.2390786,1.8160299,0.8161274,-0.07819075,0.79045963,-1.3017539
855,8.55,0.87030816,1.5331676,0.64992446,0.9773844,0.73914695,-1.8338175
856,8.56,0.7509641650000001,1.39771585,0.54424768,1.3274102,0.6820310249999999,-1.990199
857,8.57,0.63162017,1.2622641,0.4385709,1.677436,0.6249151,-2.1465805
858,8.58,0.63162017,1.2622641,0.4385709,1.677436,0.6249151,-2.1465805
859,8.59,0.476643815,1.1050912,0.18194469000000002,1.8585574999999999,0.7156286,-2.53417445
860,8.6,0.32166746,0.9479183,-0.07468152,2.039679,0.8063421,-2.9217684
861,8.61,0.37804466,0.94157284,-0.21794313,1.8808541,0.97127575,-3.0457742
862,8.62,0.4385709,0.9452337,-0.29189247,1.4825699,1.2479976,-3.2834008
863,8.63,0.56914153,0.93010217,-0.332527995,1.16064395,1.33046445,-3.47704505
864,8.64,0.69971216,0.91497064,-0.37316352,0.838718,1.4129313,-3.6706893
865,8.65,1.0260166,0.81246656,-0.3961049,-0.27488935,1.3726143,-4.6114216
866,8.66,1.0747061,0.74998793,-0.36022849999999995,-0.496022575,1.39704885,-4.786740050000001
867,8.67,1.1233956,0.6875093,-0.3243521,-0.7171558,1.4214834,-4.9620585
868,8.68,1.2132086,0.5723142,-0.191829,-0.7171558,1.4214834,-4.9620585
869,8.69,1.28752405,0.47432524,-0.005857379999999995,-1.0030407000000001,1.5063937,-5.35942625
870,8.7,1.3618395,0.37633628,0.18011424,-1.2889256,1.591304,-5.756794
871,8.71,1.3618395,0.37633628,0.18011424,-0.9526443250000001,1.67590885,-6.03901385
872,8.72,1.3618395,0.37633628,0.18011424,-0.61636305,1.7605137,-6.3212337
873,8.73,1.3618395,0.37633628,0.18011424,-0.61636305,1.7605137,-6.3212337
874,8.74,1.36952725,0.33252801,0.49079912000000003,0.44684792500000003,1.8469511,-6.5771861
875,8.75,1.377215,0.28871974,0.801484,1.5100589,1.9333885,-6.8331385
876,8.76,1.1534146,0.3414361,0.7524285,2.1319196,1.8289305,-6.845356
877,8.77,0.89788663,0.48652813500000003,0.73278187,2.3441953,1.6966782500000002,-6.73234585
878,8.78,0.64235866,0.63162017,0.71313524,2.556471,1.564426,-6.6193357
879,8.79,0.73729694,0.7995315,0.17645338,3.7788124,-0.47891834,-4.5442266
880,8.8,0.71057269,0.708986275,-0.06260069000000001,3.6221255,-1.0525208199999998,-3.8857138
881,8.81,0.68384844,0.61844105,-0.30165476,3.4654386,-1.6261233,-3.227201
882,8.82,0.54888475,0.5122762,-0.49397188,2.9547553,-1.6200147,-2.7091873
883,8.83,0.412578775,0.42453759999999996,-0.577927555,2.3307564,-1.3729197,-2.1813998
884,8.84,0.2762728,0.336799,-0.66188323,1.7067575,-1.1258247,-1.6536123
885,8.85,0.07858644,0.18133454,-0.45248213,0.9615019,-0.6921103,-1.0256428
886,8.86,0.074925577,0.13972278,-0.40586718499999996,0.12156218499999993,-0.13072514999999996,-0.2553417
887,8.87,0.071264714,0.09811102,-0.35925224,-0.71837753,0.43066,0.5149594
888,8.88,0.071264714,0.09811102,-0.35925224,-0.71837753,0.43066,0.5149594
889,8.89,0.024649782,-0.17157225,-0.09274176,-1.7623463,1.2302825,1.4001031
890,8.9,0.024649782,-0.17157225,-0.09274176,-1.7623463,1.2302825,1.4001031
891,8.91,0.024649782,-0.17157225,-0.09274176,-1.7623463,1.2302825,1.4001031
892,8.92,0.024649782,-0.17157225,-0.09274176,-1.7623463,1.2302825,1.4001031
893,8.93,-0.035022213999999996,-0.356811695,0.15546447,-1.6701055999999999,1.41109865,2.14352605
894,8.94,-0.09469421,-0.54205114,0.4036707,-1.5778649,1.5919148,2.886949
895,8.95,-0.07297312,-0.5662128,0.44735694,-1.3096951,1.4660766,3.1337388
896,8.96,-0.025626011,-0.5852493,0.47176263,-0.9053023,1.2186762,3.4648278
897,8.97,0.06784791949999999,-0.5843951000000001,0.424415545,-0.27824912,0.7327328799999999,3.83776105
898,8.98,0.16132185,-0.5835409,0.37706846,0.34880406,0.24678956,4.2106943
899,8.99,0.26419198499999996,-0.5858594500000001,0.305681705,0.70768743,-0.13439037,4.35577465
900,9.0,0.36706212,-0.588178,0.23429495,1.0665708,-0.5155703,4.500855
901,9.01,0.36706212,-0.588178,0.23429495,1.4972308,-1.0323622,4.4611487
902,9.02,0.48982291,-0.54327145,0.10921561499999999,1.57389435,-1.14842665,4.39945145
903,9.03,0.6125837,-0.4983649,-0.01586372,1.6505579,-1.2644911,4.3377542
904,9.04,0.6433349,-0.460536,-0.093473926,1.7318029,-1.5796975,3.9920044
905,9.05,0.6016011,-0.3726754,-0.254307648,1.5387695,-1.50150675,3.84539675
906,9.06,0.5598673,-0.2848148,-0.41514137,1.3457361,-1.423316,3.6987891
907,9.07,0.54668826,-0.24503349,-0.4937278,1.3457361,-1.423316,3.6987891
908,9.08,0.55693865,-0.18963248,-0.5972081,0.7703011,-1.0042624,3.716504
909,9.09,0.5515694,-0.11202228,-0.7480355,-0.172264,-0.49968776,3.8001926
910,9.1,0.5357057000000001,-0.068214,-0.76304495,-0.8072584,-0.31581732500000004,4.07691465
911,9.11,0.5430274,-0.05344854,-0.7560893,-1.5222762,-0.2773328,4.664567
912,9.12,0.6289356,-0.017328065,-0.71215904,-1.5222762,-0.2773328,4.664567
913,9.13,0.827354,0.050031736,-0.614048,-1.9034561,-0.40194935,5.2106805
914,9.14,0.827354,0.050031736,-0.614048,-2.2052236,-0.86926126,6.314514
915,9.15,1.965149,0.49982923,-0.1398448,-2.2052236,-0.86926126,6.314514
916,9.16,2.7104998,0.80587703,0.059549972,-1.8704693,-1.8295414,7.0750413
917,9.17,3.8497589,1.4814276,0.045394648,-1.5515977,-2.0415115,6.974859
918,9.18,4.423782,2.079856,-0.45248213,-0.9639453,-1.4349225,6.016412
919,9.19,4.423782,2.079856,-0.45248213,-1.2095132,-0.62858033,5.315749
920,9.2,4.464539,2.2792506,-0.66871685,-1.6481144,0.08246681,4.7299294
921,9.21,4.1204185,2.4393523,-0.6374775,-3.2968397,1.917506,2.9248228
922,9.22,4.1204185,2.4393523,-0.6374775,-3.2968397,1.917506,2.9248228
923,9.23,4.1204185,2.4393523,-0.6374775,-3.2968397,1.917506,2.9248228
924,9.24,3.2161865,2.3126864,-0.08053889,-4.4926083000000006,2.9871309999999998,0.8744535999999999
925,9.25,2.182848,2.0915706,0.53082454,-4.6431866,3.1086931,0.3042109
926,9.26,1.3899059,1.88461,1.0553036,-4.0280457,2.8142562,-0.23640485
927,9.27,1.1412116,1.790892,1.2420074,-4.0280457,2.8142562,-0.23640485
928,9.28,0.79660285,1.4770344,1.5209647,-1.7373008,1.5424347,-0.7012733
929,9.29,0.79660285,1.4770344,1.5209647,-1.7373008,1.5424347,-0.7012733
930,9.3,0.7570656,1.394299,1.4902135,0.41722095,0.3915646,-1.119716
931,9.31,0.7153318,1.3022895,1.3418267,1.4355333,-0.100792766,-1.3658947
932,9.32,0.6799435,1.2224828,1.1416998,2.067168,-0.3640757,-1.5632042
933,9.33,0.6386978,1.1504859,0.8754333,3.2748485,-0.47403142,-2.4190264
934,9.34,0.6374775,1.040416,0.4288086,3.3121114,-0.33169982,-2.6481009
935,9.35,0.6374775,1.040416,0.4288086,3.3121114,-0.33169982,-2.6481009
936,9.36,0.59794027,0.93620354,0.13691612,3.2693508,-0.10629055,-2.93704
937,9.37,0.50641876,0.8700641,-0.020744866,3.167947,0.17104226,-3.2015448
938,9.38,0.4651731,0.87909424,-0.065163285,2.9938505,0.72082096,-3.4972036
939,9.39,0.4651731,0.87909424,-0.065163285,2.8851166,0.9798279,-3.5827246
940,9.4,0.59672,0.86933196,-0.13203497,2.7757716,1.133155,-3.7024543
941,9.41,0.9061846,0.7946504,-0.20793676,2.6413813,1.074512,-4.0775256
942,9.42,1.0321181,0.754625,-0.2860351,2.488665,0.82833326,-4.382958
943,9.43,1.129985,0.72045696,-0.3499781,2.3564127,0.63591072,-4.560109000000001
944,9.44,1.2017379,0.68604493,-0.39976576,1.853976,0.06780604,-5.1019464
945,9.45,1.261776,0.6321083,-0.43173727,1.5265522,-0.108123146,-5.3487363
946,9.46,1.4211453,0.45809543,-0.40733153,0.5204572,-0.11789699,-5.885687
947,9.47,1.4855764,0.37828872,-0.3392396,0.14905111,-0.008552114,-6.0689464
948,9.48,1.4855764,0.37828872,-0.3392396,0.14905111,-0.008552114,-6.0689464
949,9.49,1.4343245,0.3031191,0.019036464,-0.6310238,0.6047566,-6.5387015
950,9.5,1.3525653,0.32508424,0.16132185,-0.87964594,1.346347,-6.7983193
951,9.51,1.2241911,0.35998443,0.32972133,-0.79779,1.6896533,-6.863682
952,9.52,1.2241911,0.35998443,0.32972133,-0.5381723,1.8741345,-6.859406
953,9.53,1.2241911,0.35998443,0.32972133,-0.34086281500000004,1.8182404,-6.75678065
954,9.54,1.2241911,0.35998443,0.32972133,-0.14355333,1.7623463,-6.6541553
955,9.55,0.42685612500000003,0.79721302,0.6724997500000001,0.774271685,-0.15974127999999999,-4.8340822
956,9.56,0.77951884,0.6894617,0.66944903,1.3396275,-1.6994271,-3.789808
957,9.57,0.78598637,0.6318642,0.600380835,1.3396275,-1.6994271,-3.789808
958,9.58,0.7924539,0.5742667,0.53131264,1.3396275,-1.6994271,-3.789808
959,9.59,0.7053254,0.44271985,0.35241866,2.14749685,-2.8762591,-2.833193
960,9.6,0.481768985,0.312759365,0.1657148685,1.7707456750000001,-2.3733642,-2.2000312
961,9.61,0.25821257,0.18279888,-0.020988923,1.3939945,-1.8704693,-1.5668694
962,9.62,0.13520771,0.15400012,-0.07199689,1.3939945,-1.8704693,-1.5668694
963,9.63,0.13520771,0.15400012,-0.07199689,1.3939945,-1.8704693,-1.5668694
964,9.64,-0.013911263,0.038316987,-0.14350566,0.74036866,-1.0519099,-0.7800749
965,9.65,-0.30116665,-0.08664032,-0.15741692,0.74036866,-1.0519099,-0.7800749
966,9.66,-0.30116665,-0.08664032,-0.15741692,-0.97433007,0.9211848,0.6047566
967,9.67,-0.38658667,-0.11006982,-0.09127741,-0.97433007,0.9211848,0.6047566
968,9.68,-0.45980385,-0.15375607,0.02757847,-1.3652838,1.3494014,1.033584
969,9.69,-0.498731,-0.2668766,0.21171965999999998,-1.554652,1.66246985,1.45538645
970,9.7,-0.53765815,-0.37999713,0.39586085,-1.7440202,1.9755383,1.8771889
971,9.71,-0.53765815,-0.37999713,0.39586085,-1.7440202,1.9755383,1.8771889
972,9.72,-0.5186216,-0.5012936,0.7582859,-1.2608259,2.624277,3.3524284
973,9.73,-0.5186216,-0.5012936,0.7582859,-1.2608259,2.624277,3.3524284
974,9.74,0.0053692595,-0.70923036,0.8437059,0.9431759,2.2870796,5.0115385
975,9.75,0.24405725,-0.7941623,0.6909261,0.9431759,2.2870796,5.0115385
976,9.76,0.6548056,-0.84931916,0.33582276,2.1288655,1.6242907,5.4562483
977,9.77,0.6548056,-0.84931916,0.33582276,2.606562,1.1624765,5.480683
978,9.78,0.9735444,-0.74303227,-0.1382584275,2.82830615,0.7305948099999999,5.32766135
979,9.79,0.99319095,-0.6894006850000001,-0.25839561375,2.939178225,0.5146539649999999,5.251150525
980,9.8,1.0128375,-0.6357691,-0.3785328,3.0500503,0.29871312,5.1746397
981,9.81,1.0128375,-0.6357691,-0.3785328,2.783102,-0.9896017,4.0048327
982,9.82,0.74339837,-0.4253918,-0.62551874,2.194228,-1.2186762,3.4617734
983,9.83,0.5657247,-0.36218095,-0.6655441,1.7873917,-1.1759156,3.327383
984,9.84,0.5657247,-0.36218095,-0.6655441,1.7873917,-1.1759156,3.327383
985,9.85,0.26943922,-0.27090356,-0.75657743,0.7742716949999999,-0.63346726,3.6416732
986,9.86,0.19988288,-0.20769271,-0.89617825,-0.70371675,0.21380283,4.1532726
987,9.87,0.19988288,-0.20769271,-0.89617825,-0.70371675,0.21380283,4.1532726
988,9.88,0.24283697,-0.15180361,-0.9034999,-1.2944235,0.5571091,4.415334
989,9.89,0.46639338,0.036608588,-0.8671354,-1.8509218,0.7684685,4.736038
990,9.9,1.0082005,0.3443648,-0.6970275,-2.733011,0.675617,5.5271087
991,9.91,1.0082005,0.3443648,-0.6970275,-3.186273,0.38912117,6.038403
992,9.92,1.4086984,0.60013676,-0.524479,-3.5155294,0.050701816,6.519765
993,9.93,1.9915072,0.96036524,-0.35241866,-3.7336085,-0.15943582,6.89056
994,9.94,1.9915072,0.96036524,-0.35241866,-4.1862597,0.18753563,6.8331385
995,9.95,4.1601999,2.07814745,-0.38268177000000003,-4.641354,0.7623598,6.2625904
996,9.96,4.3674045,2.2023726,-0.3738957,-5.2681017,1.4477507,5.3682837
997,9.97,4.459902,2.3595455,-0.22209209,-5.7604594,1.9407189,4.5814896
998,9.98,4.002783,2.438376,0.60770255,-5.7604594,1.9407189,4.5814896
999,9.99,3.6264467,2.3934696,1.2344415,-6.368881,2.615725,1.7733418
