id,timestamp,id,acc_x,acc_y,acc_z,gyro_x,gyro_y,gyro_z
0,1778415621790,0.0,-0.13677627,0.6105234,1.0925637,-0.6290385,0.5710063,0.030543262
1,1778415621800,1.0,-0.1372641,0.5860098,1.0134128,-0.70341134,1.00075,-0.13698652
2,1778415621810,2.0,-0.13122717,0.5311895,0.8867591,-0.6418667,1.1223122,-0.23289238
3,1778415621820,3.0,-0.16915621,0.46252698,0.6601605,-0.356898,0.9060659,-0.24587326
4,1778415621830,4.0,-0.1627534,0.46185625,0.5866806,-0.13881913,0.6105598,-0.22266038
5,1778415621840,,,,,,,
6,1778415621850,5.0,-0.1387276,0.4928946,0.50905406,0.18051068,0.038331795,-0.2182316
7,1778415621860,6.0,-0.20062146,0.51698136,0.3257507,0.2519819,-0.73273283,-0.2591596
8,1778415621870,7.0,-0.1562896,0.54143405,0.40032822,0.03023783,-1.3478742,-0.12935072
9,1778415621880,8.0,-0.111165024,0.5266161,0.54667825,-0.44730607,-1.6949984,0.114689946
10,1778415621890,9.0,-0.025001459,0.5149691,0.6179019,-0.96745783,-1.7620409,0.30589077
11,1778415621900,10.0,0.13714215,0.41264603,0.45447776,-1.3351988,-1.8515326,0.58108556
12,1778415621910,11.0,-0.014756958,0.597108,0.49722412,-1.599856,-2.222786,0.7837401
13,1778415621920,12.0,0.16330221,0.6505867,0.5142373,-1.6105462,-2.4205534,0.56092703
14,1778415621930,13.0,0.34325173,0.66412413,0.52179873,-1.5430456,-2.8166997,0.14370605
15,1778415621940,14.0,0.5764971,0.51015174,0.63418335,-1.6033685,-3.1323643,0.113162786
16,1778415621950,15.0,0.28940713,0.7966318,0.9584705,-1.3834571,-2.4642303,-0.0067195175
17,1778415621960,16.0,0.42691517,0.7641909,0.89151543,-1.1281154,-1.7227927,-0.6236934
18,1778415621970,17.0,0.42691517,0.7641909,0.89151543,-1.1281154,-1.7227927,-0.6236934
19,1778415621980,18.0,0.77638674,0.9224319,0.9276761,-0.84223044,-1.3217597,-1.2646438
20,1778415621990,19.0,0.77638674,0.9224319,0.9276761,-0.84223044,-1.3217597,-1.2646438
21,1778415622000,20.0,0.9053577,0.7271766,0.3436786,-0.63591075,-2.027309,-1.6849191
22,1778415622010,21.0,0.8749901,0.90145504,1.2314743,0.17684549,-2.1696405,-2.6929994
23,1778415622020,22.0,0.8749901,0.90145504,1.2314743,0.36209038,-1.5496124,-2.9778154
24,1778415622030,23.0,0.93767667,0.7450435,1.5206375,0.36209038,-1.5496124,-2.9778154
25,1778415622040,24.0,0.90566254,0.6860156,1.4831352,0.63453627,-1.1734722,-2.7609582
26,1778415622050,25.0,0.7866922,0.857733,1.5005754,0.63453627,-1.1734722,-2.7609582
27,1778415622060,26.0,1.0046928,1.1587871,1.4964898,1.8307631,-2.0350976,-2.8561006
28,1778415622070,27.0,1.1820812,1.5229547,1.6094232,2.6992607,-2.814409,-3.3713653
29,1778415622080,28.0,1.3534936,1.6168016,1.8105325,3.5424075,-3.9745948,-4.0275874
30,1778415622090,29.0,1.5685061,1.5852145,2.4651437,4.2099304,-4.6309695,-4.8230867
31,1778415622100,30.0,1.6750368,1.5445414,2.8901687,4.7051897,-4.6821294,-5.369047
32,1778415622110,31.0,1.8029101,1.3169061,3.184881,5.1153855,-4.6422706,-5.978691
33,1778415622120,32.0,1.8218136,1.1053084,3.4229436,5.3592734,-4.3169847,-6.411336
34,1778415622130,33.0,1.721381,1.0484148,3.4470303,5.473658,-4.0921865,-6.6497264
35,1778415622140,34.0,1.6388761,1.0489026,3.4225166,5.5417695,-4.114177,-6.723641
36,1778415622150,35.0,1.6388761,1.0489026,3.4225166,5.5417695,-4.114177,-6.723641
37,1778415622160,36.0,1.5948491,1.0262794,3.3099494,5.814521,-4.5776715,-7.0758047
38,1778415622170,37.0,1.5546029,0.9690809,3.187381,5.805358,-4.8623347,-7.3429055
39,1778415622180,38.0,1.3821537,0.95200676,3.1220114,5.7629027,-5.4724364,-7.468133
40,1778415622190,39.0,1.1840935,0.7996808,3.1504276,5.3673673,-5.1532593,-7.653378
41,1778415622200,40.0,0.69473565,0.75065356,2.8105907,5.052008,-4.787198,-7.501578
42,1778415622210,41.0,-0.025123417,0.9994486,2.6371052,4.5274277,-4.526206,-7.3430586
43,1778415622220,42.0,-0.25251475,0.94048166,2.5269766,3.9368737,-4.1344886,-6.94508
44,1778415622230,43.0,-0.33965397,0.8718801,2.3014758,3.5195,-3.8811324,-6.4950247
45,1778415622240,44.0,-0.2573321,0.96432453,2.2622051,3.1450398,-3.6462545,-6.2291455
46,1778415622250,45.0,-0.098725274,0.9598731,2.294707,2.7731755,-3.0857859,-6.142555
47,1778415622260,46.0,0.09116385,0.78169197,2.2435455,2.4591908,-2.2542455,-6.1211753
48,1778415622270,47.0,0.14513041,0.6583311,1.7269909,2.2661574,-1.668273,-6.1109433
49,1778415622280,48.0,0.26763758,0.51179814,1.3771535,2.2542455,-1.6875153,-6.1990604
50,1778415622290,49.0,0.4344156,0.29019985,1.0295722,2.36695,-2.078927,-6.347501
51,1778415622300,50.0,0.6193044,0.08549279,0.86523336,2.484847,-2.359467,-6.402937
52,1778415622310,51.0,0.8325486,-0.12256813,0.72705466,2.584571,-2.6180158,-6.3481116
53,1778415622320,52.0,1.0154251,-0.17543708,0.68095434,2.54517,-2.7215574,-6.227924
54,1778415622330,53.0,1.1787883,-0.18818171,0.7008336,2.2004893,-2.5448647,-6.227924
55,1778415622340,54.0,1.2789161,-0.25800288,0.67656386,1.7628044,-2.1636846,-6.296341
56,1778415622350,55.0,1.3175159,-0.34117845,0.5431415,1.2081387,-1.6227635,-6.4024787
57,1778415622360,56.0,1.2779404,-0.37368035,0.36154547,0.79076505,-1.2165382,-6.414849
58,1778415622370,57.0,1.2184248,-0.362948,0.08640748,0.63346726,-1.1904236,-6.511213
59,1778415622380,58.0,1.1690925,-0.4173414,-0.095493376,0.7516697,-1.5480852,-6.612005
60,1778415622390,59.0,1.1597629,-0.49515083,-0.24873403,0.991587,-2.0137172,-6.608951
61,1778415622400,60.0,1.1622019,-0.550215,-0.5008219,1.4040737,-2.839607,-6.4809747
62,1778415622410,61.0,1.1951307,-0.60259616,-0.6091209,1.6279559,-3.603036,-6.3252044
63,1778415622420,62.0,1.2664763,-0.6133285,-0.5626548,1.5289958,-4.2621593,-6.0156484
64,1778415622430,63.0,1.2770867,-0.6911379,-0.46441734,1.2374603,-4.189314,-5.7323594
65,1778415622440,64.0,1.1587871,-0.78986317,-0.40404797,0.49770245,-3.5592062,-5.10607
66,1778415622450,65.0,1.0396948,-0.8918203,-0.4861869,-0.38026363,-2.6676486,-4.51124
67,1778415622460,66.0,0.84382975,-0.9836549,-0.6974797,-1.1849259,-1.8429805,-3.9414554
68,1778415622470,67.0,0.6805885,-1.0467074,-0.85017157,-1.6835446,-1.6290249,-3.5703547
69,1778415622480,,,,,,,
70,1778415622490,68.0,0.51813996,-1.1547625,-0.82846296,-1.7374535,-1.6250542,-3.3948836
71,1778415622500,69.0,0.38587618,-1.1668974,-0.8624893,-1.493871,-1.8700112,-3.395189
72,1778415622510,70.0,0.21153674,-1.3248334,-0.6779664,-0.93767816,-2.179567,-3.5114062
73,1778415622520,71.0,-0.017257104,-1.5797873,-0.5325311,-0.5225952,-2.2420282,-3.3296738
74,1778415622530,72.0,-0.18738899,-1.7754084,-0.45630714,-0.3032946,-2.15498,-2.924212
75,1778415622540,73.0,-0.36947277,-1.9842011,-0.34447134,-0.2591596,-2.008067,-2.5954137
76,1778415622550,74.0,-0.36947277,-1.9842011,-0.34447134,-0.2591596,-2.008067,-2.5954137
77,1778415622560,75.0,-0.8326705,-2.2752547,-0.08024859,-0.269697,-1.5720617,-1.237613
78,1778415622570,76.0,-1.0234133,-2.4306905,0.13445906,-0.27320948,-1.1882856,-0.5946773
79,1778415622580,77.0,-1.2767818,-2.514049,0.27117437,-0.24113905,-0.83260936,-0.021838432
80,1778415622590,78.0,-1.4888064,-2.549783,0.3670336,-0.19410244,-0.67347896,0.34132096
81,1778415622600,79.0,-1.9529188,-2.803944,0.8027297,0.22311853,-0.64904433,0.68951416
82,1778415622610,80.0,-1.9529188,-2.803944,0.8027297,0.22311853,-0.64904433,0.68951416
83,1778415622620,81.0,-2.110428,-3.0693254,0.88956416,0.7787005,-0.6569856,0.8136725
84,1778415622630,82.0,-2.180798,-3.3772702,0.8960889,2.2479842,-1.1291844,1.3500122
85,1778415622640,83.0,-2.2089093,-3.5316086,0.9773741,2.2479842,-1.1291844,1.3500122
86,1778415622650,84.0,-2.2400088,-3.6400294,1.1289073,2.892447,-1.1928672,1.6652187
87,1778415622660,85.0,-2.2694006,-3.7455845,1.229401,3.4648278,-1.023352,2.1540635
88,1778415622670,86.0,-2.0728648,-3.871872,1.0353043,4.8632507,-0.82909685,3.360217
89,1778415622680,87.0,-1.8255334,-3.9594994,0.9362132,5.742439,-0.9024007,3.9851322
90,1778415622690,88.0,-1.3777024,-4.073408,0.6866255,5.742439,-0.9024007,3.9851322
91,1778415622700,89.0,-0.787363,-4.2109165,0.40410894,8.286693,-0.7165449,6.348264
92,1778415622710,90.0,-0.14982581,-4.2955556,-0.0064028124,9.341657,-0.23090707,7.963239
93,1778415622720,91.0,1.0381093,-4.373487,-0.75364155,10.019412,0.4738787,9.711994
94,1778415622730,92.0,1.4868551,-4.378792,-1.0481709,10.094853,1.0213667,10.738706
95,1778415622740,93.0,1.4868551,-4.378792,-1.0481709,10.094853,1.0213667,10.738706
96,1778415622750,94.0,4.013039,-4.215246,-3.161465,9.119454,2.2939517,13.521655
97,1778415622760,95.0,4.013039,-4.215246,-3.161465,9.119454,2.2939517,13.521655
98,1778415622770,96.0,5.625572,-3.8466876,-3.4586773,6.495941,1.4138476,14.919467
99,1778415622780,97.0,6.083282,-3.583136,-3.3705015,5.3479724,1.4781412,15.337299
100,1778415622790,98.0,6.4168377,-3.1445127,-3.2420793,4.0856194,1.4367551,15.528653
101,1778415622800,99.0,6.4555593,-2.6769855,-2.9439523,3.0944905,1.0488557,15.132965
102,1778415622810,100.0,6.501477,-2.2605588,-2.8182132,2.5167649,0.56688297,14.418558
103,1778415622820,101.0,6.1142592,-1.5567981,-2.774796,1.5167783,-0.27855456,12.556641
104,1778415622830,102.0,5.673441,-1.22934,-2.4934382,0.68386364,-1.0235047,10.976943
105,1778415622840,103.0,5.673441,-1.22934,-2.4934382,0.68386364,-1.0235047,10.976943
106,1778415622850,104.0,3.9232776,-1.355201,-1.001522,-0.23991732,-2.235614,6.51839
107,1778415622860,105.0,3.9232776,-1.355201,-1.001522,-0.23991732,-2.235614,6.51839
108,1778415622870,106.0,3.0843263,-1.8586451,-0.82754827,1.4367551,-2.3232732,5.9863267
109,1778415622880,107.0,2.883095,-2.0524979,-0.82614577,2.3435845,-2.6175575,6.457762
110,1778415622890,108.0,2.7863212,-2.02835,-0.7144929,2.6093109,-2.5862508,6.9322515
111,1778415622900,109.0,2.7996757,-1.9301735,-0.6275976,2.5549438,-2.1673498,7.4400334
112,1778415622910,110.0,2.8396778,-1.7498581,-0.5986935,2.362216,-1.5884024,7.731569
113,1778415622920,111.0,2.871326,-1.4975873,-0.7063217,2.0877848,-0.8969029,8.025242
114,1778415622930,112.0,2.9341345,-1.2854408,-0.8859054,1.8555032,-0.45051312,8.316931
115,1778415622940,113.0,3.0806067,-1.0954298,-1.097747,1.7255416,-0.3388775,8.471327
116,1778415622950,114.0,3.3404999,-0.5171033,-1.3925812,1.3300064,-0.46685377,8.661153
117,1778415622960,115.0,3.5496585,-0.11476279,-1.4497797,0.61727935,-0.7874053,8.540507
118,1778415622970,116.0,3.740645,0.3729486,-1.2009847,-0.2950479,-0.88025683,8.3378525
119,1778415622980,117.0,3.8793728,0.8618796,-0.62753665,-2.034334,-0.4728097,8.001113
120,1778415622990,118.0,3.9527915,1.0664037,-0.20629252,-3.1170926,0.018936822,7.7703586
121,1778415623000,119.0,4.1553645,1.1131138,0.10396948,-3.723529,0.77732605,7.5794635
122,1778415623010,120.0,4.8499784,1.6730244,0.06829667,-3.2940907,0.8979719,7.7477565
123,1778415623020,121.0,5.5007477,2.2898898,0.2022679,-2.5407412,0.37415496,7.823962
124,1778415623030,122.0,6.3442726,2.9318173,0.54399514,-1.5876387,0.15882497,6.9391236
125,1778415623040,123.0,6.638619,3.208541,0.60546213,-1.2279918,0.43142357,5.6230145
126,1778415623050,124.0,7.0016885,3.0603006,0.21147576,-0.8208502,0.7984009,2.445599
127,1778415623060,125.0,6.921562,2.4036767,-0.104396336,-0.16722436,0.24113905,-1.7536414
128,1778415623070,126.0,6.3536634,1.7333939,-0.11909231,0.43661594,-0.3213151,-4.257731
129,1778415623080,,,,,,,
130,1778415623090,127.0,5.889124,0.59948623,-0.13683724,1.1863003,-1.0546589,-6.372088
131,1778415623100,128.0,5.644476,-0.60875505,-0.1923283,1.9349157,-1.3581061,-7.2757106
132,1778415623110,129.0,5.4495864,-1.3145279,-0.2593444,2.2864685,-1.3202325,-7.20821
133,1778415623120,130.0,5.0733447,-1.7723596,-0.25422215,2.0131063,-0.84329945,-6.43516
134,1778415623130,131.0,4.8421726,-1.7896166,-0.1885476,1.2672399,-0.15760323,-5.8430786
135,1778415623140,132.0,4.553741,-1.6112525,-0.05866196,-0.07544186,1.0525209,-5.1976995
136,1778415623150,133.0,4.3327527,-1.4052039,0.00804925,-0.8863655,1.9240729,-4.9069276
137,1778415623160,134.0,3.9027886,-0.9365181,-0.011159187,-2.0796907,3.5167513,-4.6013427
138,1778415623170,135.0,3.6374683,-0.6911989,-0.044270877,-2.4573581,4.2195516,-4.5685086
139,1778415623180,136.0,3.3234255,-0.43856218,-0.08933448,-2.3590088,4.585613,-4.8895183
140,1778415623190,137.0,2.7879066,-0.12195834,0.08585867,-2.022575,4.3267584,-5.1795263
141,1778415623200,138.0,2.7879066,-0.12195834,0.08585867,-2.022575,4.3267584,-5.1795263
142,1778415623210,139.0,2.5527709,-0.12067777,0.39855984,-1.1603385,3.9613085,-5.723349
143,1778415623220,140.0,2.5302696,-0.15732625,0.57978994,-0.71853024,4.0818014,-5.9001946
144,1778415623230,141.0,2.5302696,-0.15732625,0.57978994,-0.31566462,4.477642,-6.116594
145,1778415623240,142.0,2.5463681,-0.25605154,0.70924866,0.04138612,4.9145637,-6.3323817
146,1778415623250,143.0,2.5463681,-0.25605154,0.70924866,0.04138612,4.9145637,-6.3323817
147,1778415623260,144.0,2.5835655,-0.32697028,0.58796114,0.49434268,5.3015466,-6.6312475
148,1778415623270,145.0,2.707658,-0.5741799,0.10884781,1.2534955,5.484195,-7.1280336
149,1778415623280,146.0,2.8239453,-0.7693132,-0.20025559,3.0642529,4.841871,-8.614117
150,1778415623290,147.0,2.9051695,-0.96481246,-0.42319545,3.791488,3.9547415,-9.487806
151,1778415623300,148.0,3.0183468,-1.2512925,-0.5644232,4.1796927,2.903137,-10.200533
152,1778415623310,149.0,3.056093,-1.4910016,-0.5207621,4.161214,2.2579107,-10.581714
153,1778415623320,150.0,3.056093,-1.4910016,-0.5207621,4.161214,2.2579107,-10.581714
154,1778415623330,151.0,3.0787773,-1.7200394,-0.4732593,3.390913,1.8616118,-10.835222
155,1778415623340,152.0,3.0787773,-1.7200394,-0.4732593,3.390913,1.8616118,-10.835222
156,1778415623350,153.0,2.9786494,-1.8359609,-0.7324208,1.5774068,2.179109,-10.418918
157,1778415623360,154.0,2.9786494,-1.8359609,-0.7324208,1.5774068,2.179109,-10.418918
158,1778415623370,155.0,2.8955348,-1.7511388,-0.98993576,-0.14844026,1.8547395,-9.458637
159,1778415623380,156.0,2.8319945,-1.659365,-0.9654831,-0.85139346,1.7973182,-8.874192
160,1778415623390,157.0,2.7626002,-1.5364921,-0.9615805,-1.3767376,1.8558086,-8.434522
161,1778415623400,158.0,2.7201586,-1.4566094,-0.994997,-1.9462167,1.9868392,-7.9501057
162,1778415623410,159.0,2.6221652,-1.3852638,-1.2027531,-2.3338106,1.9950858,-7.5315104
163,1778415623420,160.0,2.5176468,-1.3158085,-1.3647748,-2.4804184,1.6534595,-7.190342
164,1778415623430,161.0,2.4328249,-1.2636104,-1.3870931,-2.5324945,1.306488,-6.9823422
165,1778415623440,162.0,2.2998903,-1.2003139,-1.2133635,-2.6138923,1.1200215,-6.7590714
166,1778415623450,163.0,2.0730476,-1.1039059,-1.1002471,-2.7617218,1.2873985,-6.6019263
167,1778415623460,164.0,1.7490044,-0.9854234,-1.2213517,-2.953228,1.5488489,-6.6179614
168,1778415623470,165.0,1.7490044,-0.9854234,-1.2213517,-2.953228,1.5488489,-6.6179614
169,1778415623480,166.0,0.7732159,-0.9825573,-1.4093505,-2.8860328,0.8958339,-7.405214
170,1778415623490,167.0,0.13098325,-1.2676959,-1.1712269,-2.6520715,0.5458081,-7.940332
171,1778415623500,168.0,-0.3939864,-1.7618711,-1.0714649,-2.3861923,0.5152648,-8.152149
172,1778415623510,169.0,-1.0432316,-2.6601553,-1.0806118,-1.9793562,0.45769078,-7.942317
173,1778415623520,170.0,-1.8531569,-3.5925877,-1.1405544,-1.8118263,0.40622538,-7.415446
174,1778415623530,171.0,-2.4656928,-4.124265,-1.3554449,-1.6614008,0.08368854,-6.8681107
175,1778415623540,172.0,-2.8030293,-4.793755,-1.3652016,-1.4524848,-0.5865834,-5.9510493
176,1778415623550,173.0,-3.1255481,-5.2971992,-0.96450746,-1.3863586,-1.2089024,-4.5491133
177,1778415623560,174.0,-3.3702576,-5.556239,-0.42648828,-1.4866933,-1.2319624,-3.0456214
178,1778415623570,175.0,-3.4605677,-5.6482563,-0.15561883,-1.3208433,-0.8547532,-1.2298244
179,1778415623580,176.0,-3.4389203,-5.4106817,-0.033111688,-0.6421721,-0.66248333,0.65041876
180,1778415623590,177.0,-3.3029976,-4.923702,0.03158721,0.5002986,-0.6754643,2.3397665
181,1778415623600,178.0,-3.0346284,-4.519837,0.021830542,1.6737708,-0.72250086,3.4988835
182,1778415623610,179.0,-2.5424654,-4.0907264,-0.1674488,3.1813862,-0.7133379,4.808884
183,1778415623620,180.0,-2.0095077,-3.7977216,-0.42270756,4.276515,-0.6443101,5.847813
184,1778415623630,181.0,-1.1508598,-3.3564155,-0.97975224,5.336366,-0.5421429,7.3177075
185,1778415623640,182.0,-0.57570434,-3.058288,-1.3533716,5.689141,-0.5896377,8.182845
186,1778415623650,183.0,0.0035977708,-2.8112617,-1.6668656,5.893628,-0.7858781,8.975902
187,1778415623660,184.0,0.77382565,-2.5711257,-1.9222463,6.05566,-1.081995,9.941679
188,1778415623670,,,,,,,
189,1778415623680,185.0,1.5503954,-2.353125,-2.0714014,5.9745674,-1.3080152,10.829267
190,1778415623690,186.0,2.3110495,-2.2135437,-2.163114,5.5524597,-1.374294,11.599262
191,1778415623700,187.0,2.936025,-2.2138488,-2.321111,5.029559,-1.4291192,12.24067
192,1778415623710,188.0,3.6425295,-2.1009762,-2.397945,4.1877866,-1.6062702,13.074807
193,1778415623720,189.0,4.0848117,-1.8614501,-2.3645282,3.4778085,-1.7253889,13.475687
194,1778415623730,190.0,4.4791026,-1.5828363,-2.3083663,2.5189028,-1.928807,13.491876
195,1778415623740,191.0,4.6905785,-1.3842881,-2.1245143,1.493871,-2.3357959,13.050525
196,1778415623750,192.0,4.6824684,-1.1984847,-1.8050443,0.5853616,-2.7316368,12.0766535
197,1778415623760,193.0,4.4821515,-1.0162178,-1.4293517,0.15622878,-2.9057333,10.999087
198,1778415623770,194.0,4.095178,-0.9092604,-1.2009237,0.08246681,-3.077081,9.40763
199,1778415623780,195.0,3.6025882,-0.8715753,-1.0912832,0.6290385,-3.2879822,7.777078
200,1778415623790,196.0,3.034933,-1.2450726,-1.3656284,2.574339,-4.102571,5.6640954
201,1778415623800,197.0,2.9695024,-1.6325953,-1.4088017,3.2986724,-4.7290134,5.301089
202,1778415623810,198.0,3.0312743,-2.1051838,-1.5229547,3.2856915,-5.4560957,5.651267
203,1778415623820,199.0,3.0312743,-2.1051838,-1.5229547,3.2856915,-5.4560957,5.651267
204,1778415623830,200.0,3.161648,-2.426239,-0.6395495,2.000431,-5.7221274,7.9371247
205,1778415623840,201.0,3.2308593,-2.2089703,-0.19214535,2.000431,-5.7221274,7.9371247
206,1778415623850,202.0,3.2308593,-2.2089703,-0.19214535,1.1439979,-4.703815,9.398314
207,1778415623860,203.0,3.2711666,-1.9655416,-0.043478146,0.6536258,-3.5466835,10.272463
208,1778415623870,204.0,3.4134917,-1.5949712,-0.187328,0.36086863,-2.3170118,10.848509
209,1778415623880,205.0,3.4837396,-1.065733,-0.4680151,0.35995236,-1.642922,10.608591
210,1778415623890,206.0,3.732657,-0.62009716,-1.2942219,1.0383182,-2.2069035,8.414363
211,1778415623900,207.0,3.934193,-0.57344806,-1.5369799,1.6575829,-3.4115298,7.553196
212,1778415623910,208.0,4.1021295,-0.14336202,-1.3933129,2.2484422,-4.4235806,7.223176
213,1778415623920,209.0,4.1502423,0.089700356,-1.0592692,2.2272146,-4.7864347,7.0197577
214,1778415623930,210.0,4.0150514,0.41667065,-0.15738723,1.0688615,-3.9964333,6.567565
215,1778415623940,211.0,3.9045572,0.5698503,0.34800813,-0.46944994,-2.0233383,6.3730044
216,1778415623950,212.0,3.8848608,0.6621728,0.45649004,-1.2773192,-0.70661837,6.446614
217,1778415623960,213.0,4.1248746,0.8961498,0.31209138,-2.1815524,1.1076514,7.0345716
218,1778415623970,214.0,4.1248746,0.8961498,0.31209138,-2.1815524,1.1076514,7.0345716
219,1778415623980,215.0,4.8596125,1.1807396,0.058113147,-1.9158261,1.496009,8.027227
220,1778415623990,216.0,6.725636,2.2339718,-0.21110988,-0.90102625,1.5558738,8.910386
221,1778415624000,217.0,7.4578743,2.8257136,-0.41343874,-0.91858864,1.8498527,7.3522215
222,1778415624010,218.0,7.822957,3.2768986,-0.58972955,-0.8697194,1.8920023,4.192521
223,1778415624020,219.0,7.8532023,3.1925032,-0.6443059,-0.48441613,1.6258179,0.8944594
224,1778415624030,220.0,7.551233,2.7419283,-0.59814465,0.21471913,1.2374603,-2.3617578
225,1778415624040,221.0,6.8708887,1.5502734,-0.83547556,1.5796975,0.68844515,-6.3956065
226,1778415624050,222.0,6.494159,0.89316183,-1.0169495,2.1714733,0.23258694,-7.726071
227,1778415624060,223.0,5.8404016,-0.13750802,-1.1828738,2.8754954,-0.80649483,-9.015608
228,1778415624070,224.0,5.395864,-0.6979676,-1.0557934,2.775619,-1.2631166,-9.031184
229,1778415624080,225.0,4.9230313,-0.9829842,-0.68308866,1.9055941,-0.8167268,-8.340296
230,1778415624090,226.0,4.597463,-0.9973143,-0.41081664,0.73548174,0.27656925,-7.482794
231,1778415624100,227.0,4.189574,-0.7373601,-0.23476979,-0.9445504,2.2652411,-6.4536386
232,1778415624110,228.0,3.966573,-0.5353971,-0.26775953,-2.1966715,3.9391646,-5.8769817
233,1778415624120,229.0,3.7686956,-0.36691165,-0.42173192,-3.327383,5.5000777,-5.4632735
234,1778415624130,230.0,3.5633175,-0.24361177,-0.49807784,-3.8192823,6.375906,-5.426469
235,1778415624140,231.0,3.4624581,-0.25178298,-0.49472398,-3.6693149,6.7164636,-5.6807413
236,1778415624150,232.0,3.395076,-0.3418492,-0.48082075,-3.3130276,6.710813,-5.946162
237,1778415624160,233.0,3.3120227,-0.4483798,-0.389352,-2.3797784,6.496857,-6.512587
238,1778415624170,234.0,3.2715325,-0.6227193,-0.32251883,-1.1937834,6.234491,-7.1318517
239,1778415624180,235.0,3.3265967,-0.8622454,-0.4166097,0.2669481,5.9922824,-7.8147993
240,1778415624190,236.0,3.460202,-1.0320115,-0.6875401,1.0076222,5.8012347,-8.369465
241,1778415624200,237.0,3.6072838,-1.2658665,-1.0636597,1.5587754,5.369811,-9.285915
242,1778415624210,238.0,3.6871054,-1.4452672,-1.2890996,1.7676913,4.7978883,-10.14296
243,1778415624220,239.0,3.7561946,-1.794251,-1.5216742,1.9074267,3.681074,-11.286346
244,1778415624230,240.0,3.76211,-1.8898662,-1.56003,1.8829921,3.0804408,-11.68463
245,1778415624240,241.0,3.7357666,-2.1739683,-1.5406997,1.5427402,2.0690005,-12.124301
246,1778415624250,242.0,3.7099726,-2.2937922,-1.4966117,1.2157745,1.7837266,-12.139877
247,1778415624260,243.0,3.5866728,-2.3706262,-1.4558166,0.44883323,1.6022996,-11.936612
248,1778415624270,244.0,3.4115405,-2.4187386,-1.4708785,-0.68218374,1.6942347,-11.423486
249,1778415624280,245.0,3.202504,-2.3776386,-1.4732567,-1.4069754,1.7670804,-10.924256
250,1778415624290,246.0,2.9278538,-2.248607,-1.3869102,-2.2382102,1.8683313,-10.165714
251,1778415624300,247.0,2.7114387,-2.0824995,-1.2820259,-2.971554,2.084883,-9.371284
252,1778415624310,248.0,2.517403,-1.8984034,-1.1768979,-3.4298556,2.3408356,-8.768054
253,1778415624320,249.0,2.4245927,-1.800471,-1.253,-3.670231,2.6401596,-8.121606
254,1778415624330,250.0,2.3543446,-1.720893,-1.4716103,-3.5726454,2.6132815,-7.806858
255,1778415624340,251.0,2.2611685,-1.6125941,-1.7093071,-3.321885,1.9257526,-7.558388
256,1778415624350,,,,,,,
257,1778415624360,252.0,2.2329962,-1.5979592,-1.7044287,-3.327383,1.4300356,-7.456221
258,1778415624370,253.0,2.1145136,-1.5452732,-1.4639878,-3.4530685,0.9049969,-7.340768
259,1778415624380,254.0,1.9114529,-1.5066732,-1.2640373,-3.6548069,0.8023715,-7.0770264
260,1778415624390,255.0,1.645157,-1.466549,-1.0473173,-3.76293,0.9260717,-6.802901
261,1778415624400,256.0,1.276294,-1.5356994,-0.91371185,-3.7681222,1.3483323,-6.5942903
262,1778415624410,257.0,0.83023137,-1.8925494,-0.86901414,-3.5676057,1.7380643,-6.5455737
263,1778415624420,258.0,0.16689998,-2.1347587,-0.8601721,-3.291342,1.813659,-6.4895267
264,1778415624430,259.0,-0.29422447,-2.426788,-0.84065884,-2.9066496,1.5691601,-6.4606633
265,1778415624440,260.0,-0.7807773,-2.8219938,-0.7177858,-2.2473733,1.1869112,-6.2964935
266,1778415624450,261.0,-1.4265466,-3.2424452,-0.6344882,-1.7211128,0.9295842,-6.167601
267,1778415624460,262.0,-1.9159654,-3.7002158,-0.63765913,-1.2476922,0.5821546,-5.935472
268,1778415624470,263.0,-2.3987985,-4.372755,-0.5257624,-0.7476991,0.11285736,-5.275585
269,1778415624480,264.0,-3.1073153,-5.555873,-0.118604474,-0.3313944,0.3368922,-2.952159
270,1778415624490,265.0,-3.4000154,-5.707467,-0.017866896,-0.10293079,0.7150178,-1.190729
271,1778415624500,266.0,-3.6636896,-5.3637276,-0.058783915,0.49327368,0.9558514,0.43585235
272,1778415624510,267.0,-3.7048502,-5.0676737,-0.21708584,1.3758212,0.8356637,1.5402967
273,1778415624520,268.0,-3.515388,-4.688444,-0.39325467,2.866485,0.37568212,3.0161471
274,1778415624530,269.0,-3.0370066,-4.2811036,-0.51179814,4.308585,0.013744468,4.663956
275,1778415624540,270.0,-3.0370066,-4.2811036,-0.51179814,4.308585,0.013744468,4.663956
276,1778415624550,271.0,-1.841083,-3.714546,-0.93950605,5.667302,0.19058995,7.357108
277,1778415624560,272.0,-1.841083,-3.714546,-0.93950605,5.667302,0.19058995,7.357108
278,1778415624570,273.0,-0.102688916,-3.1137183,-1.8290701,5.8911843,0.31642818,8.935889
279,1778415624580,274.0,0.7819359,-2.8108346,-2.1275632,5.517335,-0.08246681,11.216097
280,1778415624590,275.0,1.5934466,-2.5798457,-2.3144033,5.02681,-0.452193,11.875068
281,1778415624600,276.0,2.308854,-2.4830105,-2.3677602,4.404033,-0.7948884,12.3862095
282,1778415624610,277.0,2.8579106,-2.5253913,-2.3953228,3.909843,-1.1177307,12.777315
283,1778415624620,278.0,3.5933194,-2.5867364,-2.3019025,3.3539557,-1.51968,13.472327
284,1778415624630,279.0,3.5933194,-2.5867364,-2.3019025,3.3539557,-1.51968,13.472327
285,1778415624640,280.0,4.220002,-2.5625885,-2.1531134,2.6645942,-1.6194037,14.099533
286,1778415624650,281.0,4.8990054,-2.374041,-1.9451746,0.6559166,-1.5227343,14.300814
287,1778415624660,282.0,4.8990054,-2.374041,-1.9451746,0.6559166,-1.5227343,14.300814
288,1778415624670,283.0,4.9067497,-2.027923,-1.648145,-0.33841935,-1.5887078,13.780967
289,1778415624680,284.0,4.495018,-1.5567981,-1.1892767,-1.1827878,-2.0347922,11.351403
290,1778415624690,285.0,4.108898,-1.364165,-1.0114005,-0.8190176,-2.5642595,9.821186
291,1778415624700,286.0,3.7696102,-1.2578174,-0.88090503,-0.35063666,-3.0231721,8.6437435
292,1778415624710,287.0,3.4053817,-1.2476947,-0.82949966,0.269697,-3.6082282,7.3409204
293,1778415624720,288.0,3.0682278,-1.3204429,-0.7723621,0.8145888,-4.15312,6.34353
294,1778415624730,289.0,2.836385,-1.434169,-0.6963821,1.1733195,-4.5810313,5.699373
295,1778415624740,290.0,2.7239394,-1.5178325,-0.6375372,1.3332134,-4.74963,5.4185276
296,1778415624750,291.0,2.5688086,-1.6860739,-0.50948095,1.4117095,-4.7511573,5.3823338
297,1778415624760,292.0,2.5688086,-1.6860739,-0.50948095,1.4117095,-4.7511573,5.3823338
298,1778415624770,293.0,2.3842247,-1.824009,-0.34062964,1.4198035,-4.2082505,6.230978
299,1778415624780,294.0,2.4161775,-1.7635787,-0.31385976,1.3836098,-3.793015,6.8632236
300,1778415624790,295.0,2.6129572,-1.7072947,-0.3606918,1.2311989,-3.3191364,7.4834046
301,1778415624800,296.0,2.7998586,-1.6242411,-0.44069642,0.9440922,-2.9098566,7.887034
302,1778415624810,297.0,3.05902,-1.4992948,-0.5178351,0.41416663,-2.4388795,8.244084
303,1778415624820,298.0,3.2493358,-1.1976918,-0.50185853,-0.23915374,-2.0528126,8.549823
304,1778415624830,299.0,3.3436706,-0.8221212,-0.3298363,-1.0997101,-1.653765,8.629999
305,1778415624840,300.0,3.3921492,-0.567838,-0.124336526,-1.8574885,-1.2189816,8.539132
306,1778415624850,301.0,3.4581897,-0.31837222,0.09671296,-2.6412287,-0.68416905,8.34335
307,1778415624860,302.0,3.5252056,-0.09494456,0.23080614,-3.0448577,-0.39736784,8.204684
308,1778415624870,303.0,3.5252056,-0.09494456,0.23080614,-3.0448577,-0.39736784,8.204684
309,1778415624880,304.0,4.125424,0.33379996,0.6360737,-3.12595,-0.59238654,7.9641557
310,1778415624890,305.0,4.8597956,0.6252804,0.9375548,-2.5450172,-0.7281514,8.16009
311,1778415624900,306.0,5.9001,1.001034,1.0889659,-1.5775595,-0.44638976,8.308531
312,1778415624910,307.0,6.7413077,1.419717,0.9237734,-0.7991645,-0.05024367,7.7850194
313,1778415624920,308.0,7.4888515,1.9150509,0.5229573,-0.11178834,0.13469578,5.692195
314,1778415624930,309.0,7.8123465,2.1565893,0.04896627,0.38637227,-0.550695,2.032654
315,1778415624940,310.0,7.897839,1.923161,0.079211935,1.0106765,-1.592373,-1.1661417
316,1778415624950,311.0,7.7179503,1.4599632,0.4349034,2.1027508,-2.4049764,-4.1943536
317,1778415624960,,,,,,,
318,1778415624970,312.0,7.181943,0.88066113,0.86407477,2.8092165,-2.1620047,-5.8724003
319,1778415624980,313.0,6.4938545,0.25391725,0.86602616,3.1311426,-0.98944896,-7.2346296
320,1778415624990,314.0,5.959799,-0.2977003,0.47929627,3.0034716,0.36774087,-8.06953
321,1778415625000,315.0,5.6090465,-0.65394056,0.12372673,2.7508788,1.1481212,-8.542951
322,1778415625010,316.0,5.175668,-0.9246272,-0.14202048,2.2928827,1.7475327,-8.8409
323,1778415625020,317.0,4.788755,-0.9084066,-0.22769623,1.7510452,2.0749564,-8.760419
324,1778415625030,318.0,4.408367,-0.6579652,-0.18305947,1.2762502,2.3779457,-8.485988
325,1778415625040,319.0,4.042187,-0.30898145,-0.08067544,0.90392786,2.7962356,-8.248055
326,1778415625050,320.0,3.9085817,-0.18787682,-0.043905,0.79412484,3.0115657,-8.18422
327,1778415625060,321.0,3.586063,0.009329813,-0.009817646,0.59864795,3.6325102,-8.089536
328,1778415625070,322.0,3.3089736,0.05427146,-0.06890646,0.46670106,4.353331,-7.988132
329,1778415625080,323.0,3.1476226,-0.07537025,-0.37300956,0.1244638,5.311626,-7.9588103
330,1778415625090,324.0,3.0923145,-0.22915971,-0.5411291,0.020616703,5.51596,-8.039445
331,1778415625100,325.0,3.0804236,-0.36691165,-0.6940039,0.07727446,5.449376,-8.152608
332,1778415625110,326.0,3.0451777,-0.55869114,-0.8249872,0.3315471,5.126992,-8.374657
333,1778415625120,327.0,2.9875524,-0.74004316,-0.87041664,0.3315471,5.126992,-8.374657
334,1778415625130,328.0,2.9875524,-0.74004316,-0.87041664,0.68233645,4.6583056,-8.682381
335,1778415625140,329.0,2.9262683,-0.895479,-0.8716972,0.97692627,4.2562037,-8.954979
336,1778415625150,330.0,2.8224206,-1.0796971,-0.89108855,1.2757921,3.7297904,-9.209558
337,1778415625160,331.0,2.7342448,-1.2225103,-0.922005,1.4934129,3.1134274,-9.288511
338,1778415625170,332.0,2.6854005,-1.2682447,-0.919139,1.5720617,2.6125178,-9.252165
339,1778415625180,333.0,2.5958831,-1.3977034,-0.8426101,1.433548,2.1054997,-9.105863
340,1778415625190,334.0,2.5197203,-1.3648967,-0.7909608,0.5349652,1.7137824,-8.603121
341,1778415625200,335.0,2.51411,-1.3589207,-0.7408359,-0.16615535,1.6995798,-8.216748
342,1778415625210,336.0,2.4630706,-1.2748915,-0.6638192,-0.8208502,1.8216002,-7.774482
343,1778415625220,337.0,2.452704,-1.1720196,-0.6366835,-1.3136657,1.9824104,-7.416973
344,1778415625230,338.0,2.4742296,-1.0984787,-0.649855,-1.5416712,2.0427334,-7.1906476
345,1778415625240,339.0,2.4742296,-1.0984787,-0.649855,-1.5416712,2.0427334,-7.1906476
346,1778415625250,340.0,2.587285,-0.9940214,-0.7871191,-1.596649,1.6523905,-6.892087
347,1778415625260,341.0,2.668997,-0.8960889,-0.7704718,-1.5558738,1.350623,-6.8697906
348,1778415625270,342.0,2.668997,-0.8960889,-0.7704718,-1.5558738,1.350623,-6.8697906
349,1778415625280,343.0,2.8347385,-0.9088335,-0.76473975,-1.6632334,1.0823005,-6.8983483
350,1778415625290,344.0,2.9058402,-0.9576168,-0.7466899,-1.9370537,1.1417072,-6.7806044
351,1778415625300,345.0,2.9451718,-0.9187731,-0.7957171,-2.1566598,1.1899655,-6.69264
352,1778415625310,346.0,2.9593189,-0.9342008,-0.7008336,-2.376724,1.4650075,-6.668052
353,1778415625320,347.0,2.8062003,-0.8890763,-0.6377811,-2.4764478,1.9985983,-6.7580023
354,1778415625330,348.0,2.5453315,-0.8007784,-0.6922965,-2.3732114,2.4284947,-7.124216
355,1778415625340,349.0,1.987311,-0.8800513,-0.82785314,-1.9055941,2.8562531,-8.038681
356,1778415625350,350.0,1.3961791,-1.2536707,-1.1945819,-1.1688906,2.762638,-9.162063
357,1778415625360,351.0,0.6832106,-1.8606575,-1.5647255,-0.50594914,2.037541,-9.886702
358,1778415625370,352.0,-0.4788084,-3.0537755,-1.7332109,-0.123242065,0.9786061,-10.551628
359,1778415625380,353.0,-2.08378,-4.812659,-2.020118,-0.49388456,-0.30497447,-10.471452
360,1778415625390,354.0,-3.070972,-5.886502,-1.4554508,-1.478752,-1.3687963,-8.500495
361,1778415625400,355.0,-4.1572547,-6.398849,-0.42770788,-2.058005,-1.1236867,-6.148817
362,1778415625410,356.0,-4.7142997,-6.463426,-0.034636166,-2.0250182,-0.36193767,-3.1687107
363,1778415625420,357.0,-4.782413,-6.293355,-0.079211935,-0.9964739,-0.26893342,-0.43325618
364,1778415625430,358.0,-4.5743523,-5.8582687,-0.085004956,0.14645495,-0.51343226,1.3034338
365,1778415625440,359.0,-4.0754204,-5.4135475,-0.027806502,1.297936,-0.63499445,2.9924762
366,1778415625450,360.0,-3.7157047,-5.0877967,-0.05927175,1.69622,-0.57650405,3.8438694
367,1778415625460,361.0,-3.0628617,-4.536423,-0.23434295,2.2046127,-0.4474588,5.116302
368,1778415625470,362.0,-2.3850782,-3.9306562,-0.5012488,2.9000828,-0.47021353,6.1419444
369,1778415625480,363.0,-1.7319303,-3.3585496,-0.8130962,3.9768856,-0.7460192,6.8734555
370,1778415625490,364.0,-1.1274438,-2.9823692,-1.1221386,4.7519207,-1.0395399,7.1627007
371,1778415625500,365.0,-0.5711309,-2.7552829,-1.4359374,5.5955257,-1.4662293,7.450876
372,1778415625510,366.0,-0.09238344,-2.6313121,-1.645218,6.106056,-1.836719,7.7779946
373,1778415625520,367.0,0.5354581,-2.5399044,-1.7610174,6.0918536,-1.9824104,8.264854
374,1778415625530,368.0,1.1284804,-2.4332519,-1.8251675,5.800471,-1.8516853,8.773399
375,1778415625540,369.0,1.7566268,-2.400689,-1.8607793,5.285359,-1.6230689,9.532552
376,1778415625550,370.0,2.3415391,-2.3436732,-1.8827927,4.6647196,-1.3396275,10.387153
377,1778415625560,371.0,2.716378,-2.2923288,-1.899562,4.227951,-1.2140946,10.915399
378,1778415625570,372.0,3.2792766,-2.1323805,-1.8836465,3.2899675,-1.1472049,11.583227
379,1778415625580,373.0,3.6809466,-1.9514554,-1.6727196,2.2017112,-1.1267409,11.79596
380,1778415625590,374.0,3.948584,-1.77675,-1.463622,1.1919508,-1.1635456,11.654392
381,1778415625600,375.0,4.024198,-1.5876536,-1.1751295,0.34040466,-1.2470814,11.207544
382,1778415625610,,,,,,,
383,1778415625620,376.0,3.9940746,-1.5373458,-0.90389425,-0.25686884,-1.1896601,10.643563
384,1778415625630,377.0,3.8300407,-1.522223,-0.69473565,-0.5662721,-1.0989466,10.109667
385,1778415625640,378.0,3.7012525,-1.4815499,-0.6433912,-0.627664,-1.1372783,9.806678
386,1778415625650,379.0,3.448555,-1.4080089,-0.5383241,-0.5897904,-1.4054482,9.139155
387,1778415625660,380.0,3.128719,-1.3295288,-0.40673104,-0.50778174,-1.6739235,8.522487
388,1778415625670,381.0,2.9846864,-1.3147109,-0.36008197,-0.46028697,-1.8370245,8.143598
389,1778415625680,382.0,2.7534535,-1.3037345,-0.31306705,-0.34773505,-2.088701,7.5341067
390,1778415625690,383.0,2.554783,-1.3650187,-0.34404445,-0.05222898,-2.4572055,6.971347
391,1778415625700,384.0,2.3899565,-1.4170339,-0.3406906,0.2845105,-2.7594311,6.7412033
392,1778415625710,385.0,2.309403,-1.5399069,-0.40532854,1.2890784,-3.2919528,6.697374
393,1778415625720,386.0,2.3483686,-1.5297843,-0.42203683,1.5975653,-3.4057264,6.805344
394,1778415625730,387.0,2.3483686,-1.5297843,-0.42203683,1.7825048,-3.3910656,6.966307
395,1778415625740,388.0,2.4244096,-1.4562435,-0.44270876,1.7825048,-3.3910656,6.966307
396,1778415625750,389.0,2.4987433,-1.3388586,-0.44417223,1.7794504,-3.2812626,7.091229
397,1778415625760,390.0,2.8283358,-1.1499451,-0.40667006,1.3775011,-2.67223,7.5464764
398,1778415625770,391.0,2.8283358,-1.1499451,-0.40667006,1.3775011,-2.67223,7.5464764
399,1778415625780,392.0,3.0109684,-0.9457259,-0.33611718,0.852157,-2.025171,7.8830633
400,1778415625790,393.0,3.1957963,-0.5889368,-0.28105298,0.112399206,-1.3107641,8.094575
401,1778415625800,394.0,3.5281935,-0.050307814,-0.1323248,-1.6630806,0.018325957,7.8500767
402,1778415625810,395.0,3.6159427,0.12823918,-0.021830542,-2.2985332,0.4100433,7.6428404
403,1778415625820,396.0,3.7251563,0.31666481,0.1765347,-2.9423852,0.66553766,7.3878045
404,1778415625830,397.0,4.0000505,0.48795533,0.37922946,-2.9358184,0.6534731,7.333895
405,1778415625840,398.0,4.460382,0.69674796,0.41807315,-2.4691174,0.4700608,7.527234
406,1778415625850,399.0,5.3902535,1.0190839,0.36550912,-1.4865406,-0.15500705,7.8871865
407,1778415625860,400.0,6.2945747,1.358067,0.354228,-0.677755,-0.6383542,7.775551
408,1778415625870,401.0,7.2470083,1.8348023,0.26702777,-0.08307768,-1.0641272,6.479448
409,1778415625880,402.0,7.2470083,1.8348023,0.26702777,0.20005837,-1.5682437,4.0225477
410,1778415625890,403.0,7.944854,2.113172,0.31623796,0.20005837,-1.5682437,4.0225477
411,1778415625900,404.0,7.7288656,2.048778,1.2222054,1.0651963,-1.0706941,-2.0958786
412,1778415625910,405.0,7.053826,1.3107473,1.1537868,1.7099645,-0.1498147,-4.3951755
413,1778415625920,406.0,6.6117887,0.81754774,0.99304575,2.0732768,0.3098614,-5.3316317
414,1778415625930,407.0,5.8119245,-0.030672522,0.6105234,2.5885415,0.9651671,-6.3563585
415,1778415625940,408.0,5.3485436,-0.41575596,0.42587852,2.6525297,1.2988522,-6.5779495
416,1778415625950,409.0,5.3485436,-0.41575596,0.42587852,2.6525297,1.2988522,-6.5779495
417,1778415625960,410.0,4.4843473,-0.6068037,0.32276276,1.7513506,2.4147503,-6.130491
418,1778415625970,411.0,4.101093,-0.4607586,0.3257507,0.87766063,3.4822373,-5.690668
419,1778415625980,412.0,3.8095517,-0.31251824,0.25830775,0.065515295,4.6024113,-5.30903
420,1778415625990,413.0,3.5485606,-0.17501022,0.16165577,-0.50533825,5.4823627,-5.046205
421,1778415626000,414.0,3.3527567,-0.100005835,0.06854059,-0.70325863,5.974415,-4.9933653
422,1778415626010,415.0,3.2278101,-0.0687845,0.02555027,-0.5703954,6.09781,-5.115691
423,1778415626020,416.0,3.0815823,-0.072565205,0.030489584,-0.12660182,6.0471077,-5.4750323
424,1778415626030,417.0,3.0815823,-0.072565205,0.030489584,-0.12660182,6.0471077,-5.4750323
425,1778415626040,418.0,3.0815823,-0.072565205,0.030489584,-0.12660182,6.0471077,-5.4750323
426,1778415626050,419.0,3.0815823,-0.072565205,0.030489584,-0.12660182,6.0471077,-5.4750323
427,1778415626060,420.0,3.0344453,-0.6782713,-0.16415593,2.7065911,4.973054,-7.9410954
428,1778415626070,421.0,3.114267,-0.9115166,-0.2681254,3.1444287,4.6569314,-8.615186
429,1778415626080,422.0,3.1697583,-1.2555001,-0.41026786,3.5291212,4.2444444,-9.443213
430,1778415626090,423.0,3.2098823,-1.5959468,-0.5246038,3.7229183,3.7861428,-10.177473
431,1778415626100,424.0,3.2118337,-1.8373632,-0.6033889,3.7320812,3.274543,-10.668914
432,1778415626110,425.0,3.1915276,-2.0670717,-0.66570956,3.6074648,2.8409815,-10.862864
433,1778415626120,426.0,3.1511595,-2.2205563,-0.6714416,3.25301,2.3290765,-10.837971
434,1778415626130,427.0,3.0923145,-2.26873,-0.63393945,2.7925704,2.0518963,-10.618518
435,1778415626140,428.0,3.0923145,-2.26873,-0.63393945,2.7925704,2.0518963,-10.618518
436,1778415626150,429.0,3.0923145,-2.26873,-0.63393945,2.7925704,2.0518963,-10.618518
437,1778415626160,430.0,2.7852843,-2.1387224,-0.5839365,0.605062,2.276542,-8.954215
438,1778415626170,,,,,,,
439,1778415626180,431.0,2.6905227,-1.9642,-0.6080233,-0.1966986,2.4776695,-8.340143
440,1778415626190,432.0,2.6475935,-1.817545,-0.6690634,-0.862389,2.63344,-7.7863936
441,1778415626200,433.0,2.6047251,-1.6845495,-0.72028595,-1.2861768,2.6974282,-7.261966
442,1778415626210,434.0,2.5743575,-1.5728966,-0.70235807,-1.5176947,2.7339275,-6.786102
443,1778415626220,435.0,2.5442948,-1.457829,-0.7102244,-1.5871806,2.757293,-6.462343
444,1778415626230,436.0,2.5123417,-1.3337363,-0.8091326,-1.5183055,2.6375635,-6.170808
445,1778415626240,437.0,2.475876,-1.1812274,-0.8516961,-1.4013249,2.3704627,-6.087883
446,1778415626250,438.0,2.475876,-1.1812274,-0.8516961,-1.4013249,2.3704627,-6.087883
447,1778415626260,439.0,2.475876,-1.1812274,-0.8516961,-1.4013249,2.3704627,-6.087883
448,1778415626270,440.0,2.2705593,-0.9440795,-0.7930341,-1.1065824,1.8258762,-6.623917
449,1778415626280,441.0,1.4331324,-0.96645886,-0.61174303,-1.0086912,3.0758593,-7.151705
450,1778415626290,442.0,1.4331324,-0.96645886,-0.61174303,-1.0086912,3.0758593,-7.151705
451,1778415626300,443.0,0.0863465,-1.6870496,-1.5085636,-0.86254174,3.7442985,-7.726071
452,1778415626310,444.0,-0.97828877,-2.3133667,-2.1798835,-0.47998735,3.5888333,-8.438493
453,1778415626320,445.0,-0.97828877,-2.3133667,-2.1798835,0.42363504,2.324495,-9.414808
454,1778415626330,446.0,-2.8737652,-4.3076906,-1.8407172,1.0735956,0.5719226,-9.749256
455,1778415626340,447.0,-2.8737652,-4.3076906,-1.8407172,1.0784826,-1.6832392,-8.9120655
456,1778415626350,448.0,-2.8737652,-4.3076906,-1.8407172,1.0784826,-1.6832392,-8.9120655
457,1778415626360,449.0,-2.8737652,-4.3076906,-1.8407172,1.0784826,-1.6832392,-8.9120655
458,1778415626370,450.0,-4.656979,-5.681856,-0.6412569,-1.8232801,0.5815437,-2.7105618
459,1778415626380,451.0,-4.790706,-5.587826,-0.70991945,-2.0862575,0.91538155,-0.5636759
460,1778415626390,452.0,-4.243174,-4.776864,-0.54661727,-1.9211712,1.0876455,1.7817413
461,1778415626400,453.0,-3.787538,-4.447211,-0.7827895,-0.5529858,0.8362745,4.832555
462,1778415626410,454.0,-3.0992053,-4.1465836,-1.0605496,0.16126843,0.10415252,5.7163243
463,1778415626420,455.0,-2.3085494,-3.734913,-0.8485861,0.93645644,-0.6088799,6.7463956
464,1778415626430,456.0,-1.460634,-3.3873928,-0.7497389,1.3396275,-0.7060075,7.6929317
465,1778415626440,457.0,-1.460634,-3.3873928,-0.7497389,1.3396275,-0.7060075,7.6929317
466,1778415626450,458.0,-1.460634,-3.3873928,-0.7497389,1.3396275,-0.7060075,7.6929317
467,1778415626460,459.0,-1.460634,-3.3873928,-0.7497389,1.3396275,-0.7060075,7.6929317
468,1778415626470,460.0,0.40173078,-2.5418556,-1.074087,1.4850134,-1.1983649,9.428094
469,1778415626480,461.0,1.7468702,-2.1417713,-1.0708551,1.8452712,-2.0157025,9.414808
470,1778415626490,462.0,2.2377524,-2.1377468,-1.071282,2.0769417,-2.4426973,9.309128
471,1778415626500,463.0,2.5535026,-2.1565282,-1.0728065,2.2311852,-2.7522533,9.260565
472,1778415626510,464.0,2.9609046,-2.2667785,-0.95499474,2.2505803,-2.9622383,9.499871
473,1778415626520,465.0,3.2392743,-2.1553087,-0.8978573,2.0054705,-2.8619037,9.799806
474,1778415626530,466.0,3.5196564,-1.9312713,-0.8740144,1.4683673,-2.5935812,10.033156
475,1778415626540,467.0,3.6711287,-1.6833299,-0.90669924,0.79519385,-2.329382,10.008569
476,1778415626550,468.0,3.6827147,-1.4395353,-0.84303695,0.13958271,-2.196824,9.638385
477,1778415626560,469.0,3.6033812,-1.299466,-0.7871191,-0.19883664,-2.1155791,9.23445
478,1778415626570,470.0,3.6033812,-1.299466,-0.7871191,-0.19883664,-2.1155791,9.23445
479,1778415626580,471.0,3.0927415,-1.2874532,-0.8465737,-0.7993172,-2.2696698,7.496691
480,1778415626590,472.0,2.9073648,-1.3789829,-0.8396832,-0.83260936,-2.7279716,6.9800515
481,1778415626600,473.0,2.724976,-1.4848428,-0.73553073,-0.95279706,-3.1494684,6.7334146
482,1778415626610,474.0,2.5998468,-1.6028984,-0.5733261,-1.1604912,-3.3087516,6.6766043
483,1778415626620,475.0,2.4690466,-1.6614385,-0.39642558,-1.1604912,-3.3087516,6.6766043
484,1778415626630,476.0,2.4690466,-1.6614385,-0.39642558,-1.1604912,-3.3087516,6.6766043
485,1778415626640,477.0,2.4690466,-1.6614385,-0.39642558,-1.1604912,-3.3087516,6.6766043
486,1778415626650,478.0,2.3334289,-1.8788902,-0.24818522,-2.5955665,-2.9846876,7.452556
487,1778415626660,479.0,2.379651,-1.9052941,-0.25403923,-2.6644416,-3.0795245,7.6610136
488,1778415626670,480.0,2.4778275,-1.8624257,-0.23519666,-2.6261096,-3.3534975,7.8940587
489,1778415626680,481.0,2.6114938,-1.7904094,-0.23513566,-2.2910502,-3.7062721,7.8803144
490,1778415626690,482.0,2.7741861,-1.694794,-0.3793514,-1.7742581,-4.180762,7.6750636
491,1778415626700,483.0,2.9173043,-1.6720488,-0.42282957,-1.3154984,-4.6801443,7.510588
492,1778415626710,484.0,3.2154925,-1.6111306,-0.29202923,-0.870483,-5.0794973,7.4823356
493,1778415626720,485.0,3.5514877,-1.5594813,-0.18946227,-0.7075347,-4.994587,7.7156863
494,1778415626730,486.0,3.5514877,-1.5594813,-0.18946227,-0.7075347,-4.994587,7.7156863
495,1778415626740,487.0,3.5514877,-1.5594813,-0.18946227,-0.7075347,-4.994587,7.7156863
496,1778415626750,,,,,,,
497,1778415626760,488.0,3.8797996,-1.4825256,-0.07494339,-0.8491027,-4.630664,8.142222
498,1778415626770,489.0,4.846868,-0.78138703,0.19598705,-3.6717582,-1.6297885,9.5563755
499,1778415626780,490.0,5.170058,-0.5835096,0.30154198,-4.752684,-1.1258247,9.495748
500,1778415626790,491.0,5.499955,-0.44722122,0.585522,-5.5423803,-0.999681,9.308059
501,1778415626800,492.0,6.211033,-0.27288178,1.0482929,-5.109277,-1.5460999,8.897863
502,1778415626810,493.0,6.8857064,0.019696271,1.3917886,-3.9316814,-2.1520782,8.625875
503,1778415626820,494.0,7.765636,0.6709538,1.8009588,-1.9671388,-2.63344,7.985078
504,1778415626830,495.0,8.353109,1.3000149,1.9312103,-0.15286903,-2.663067,6.2489986
505,1778415626840,496.0,8.353109,1.3000149,1.9312103,-0.15286903,-2.663067,6.2489986
506,1778415626850,497.0,8.353109,1.3000149,1.9312103,-0.15286903,-2.663067,6.2489986
507,1778415626860,498.0,8.353109,1.3000149,1.9312103,-0.15286903,-2.663067,6.2489986
508,1778415626870,499.0,7.2132864,0.7361405,2.011337,1.3231341,-0.5242751,-5.013371
509,1778415626880,500.0,6.3770185,0.17397358,2.0820727,1.3626876,0.68019843,-5.8844647
510,1778415626890,501.0,6.3770185,0.17397358,2.0820727,1.3626876,0.68019843,-5.8844647
511,1778415626900,502.0,6.3770185,0.17397358,2.0820727,1.3626876,0.68019843,-5.8844647
512,1778415626910,503.0,4.0551147,-0.7712035,0.5914369,1.9265163,3.9999456,-5.7946677
513,1778415626920,504.0,3.7769277,-0.73278666,0.4297812,1.7635679,3.9162571,-5.908136
514,1778415626930,505.0,3.5574026,-0.6652827,0.45301422,1.666135,3.90236,-6.0504675
515,1778415626940,506.0,3.5574026,-0.6652827,0.45301422,1.666135,3.90236,-6.0504675
516,1778415626950,507.0,3.5574026,-0.6652827,0.45301422,1.666135,3.90236,-6.0504675
517,1778415626960,508.0,3.5574026,-0.6652827,0.45301422,1.666135,3.90236,-6.0504675
518,1778415626970,509.0,3.1146328,-0.91572416,0.33117786,1.6398678,4.085772,-6.3569694
519,1778415626980,510.0,3.1146328,-0.91572416,0.33117786,2.4309382,4.7697887,-7.4785175
520,1778415626990,511.0,3.1146328,-0.91572416,0.33117786,2.4309382,4.7697887,-7.4785175
521,1778415627000,512.0,3.1396954,-1.3350779,-0.003963646,3.6754234,3.3802228,-9.235366
522,1778415627010,513.0,3.1992111,-1.5125883,-0.013354438,3.8166862,2.9692633,-9.781938
523,1778415627020,514.0,3.2454944,-1.648023,0.04177073,3.7389534,2.787378,-10.181444
524,1778415627030,515.0,3.281472,-1.794678,0.077077664,3.520111,2.8921416,-10.414031
525,1778415627040,516.0,3.3272674,-1.9804815,0.060491335,3.1264083,3.207959,-10.533302
526,1778415627050,517.0,3.3039122,-2.0751212,0.011525063,2.7673724,3.5283577,-10.482753
527,1778415627060,518.0,3.2948873,-2.1591504,-0.0895784,2.323884,3.9118283,-10.286818
528,1778415627070,519.0,3.3229985,-2.2457407,-0.25452703,1.9504927,4.096157,-10.0075
529,1778415627080,520.0,3.3229985,-2.2457407,-0.25452703,1.9504927,4.096157,-10.0075
530,1778415627090,521.0,3.3804412,-2.2750719,-0.5264941,0.958753,4.1114287,-9.230327
531,1778415627100,522.0,3.409894,-2.2112265,-0.5177741,0.56581396,4.0497313,-8.816618
532,1778415627110,523.0,3.4148333,-2.0936587,-0.46496618,0.24969117,4.1673226,-8.484155
533,1778415627120,524.0,3.4131868,-2.0074952,-0.5253355,-0.03268129,4.3595924,-8.319527
534,1778415627130,525.0,3.3681233,-1.8575473,-0.62918305,-0.20586158,4.429231,-8.334798
535,1778415627140,526.0,3.2643976,-1.7066239,-0.76102,-0.22815818,4.2629232,-8.52325
536,1778415627150,527.0,3.1344512,-1.6082646,-0.85700125,-0.0067195175,3.8165333,-8.806386
537,1778415627160,528.0,3.026701,-1.5683842,-0.9623732,0.279929,3.275765,-9.057146
538,1778415627170,529.0,2.8687038,-1.5447853,-1.1652509,0.5859725,2.4851525,-9.286526
539,1778415627180,530.0,2.7169878,-1.533687,-1.2800137,0.85139346,1.3174837,-9.478032
540,1778415627190,531.0,2.5539904,-1.5167348,-1.150128,0.8368854,0.33933565,-9.50262
541,1778415627200,532.0,2.3216598,-1.4735616,-0.8732217,0.51053065,0.04810564,-9.34074
542,1778415627210,533.0,1.9741396,-1.4670978,-0.6880889,0.16905695,0.52274793,-9.194591
543,1778415627220,534.0,1.3417856,-1.5249671,-0.8848077,-0.10094548,1.4445436,-9.081734
544,1778415627230,535.0,0.6274147,-1.8814512,-1.240926,-0.20677789,1.9517145,-9.03821
545,1778415627240,536.0,-0.17232713,-2.4872184,-1.5290526,-0.09850202,1.9764545,-9.022174
546,1778415627250,537.0,-0.9118215,-3.053166,-1.8594987,0.16493362,1.5963436,-9.014386
547,1778415627260,538.0,-1.891147,-3.7449744,-2.326904,0.5369505,0.13500121,-8.68742
548,1778415627270,539.0,-2.5474048,-4.258663,-2.0786579,0.6733262,-1.3200798,-7.900473
549,1778415627280,540.0,-3.166831,-4.7457647,-1.4239855,0.36911532,-2.13925,-6.429204
550,1778415627290,541.0,-3.5927708,-5.2118287,-0.8766975,-0.24297164,-1.7687603,-4.765818
551,1778415627300,542.0,-3.8946176,-5.4470863,-0.8965157,-0.43768495,-1.0797043,-2.9213104
552,1778415627310,543.0,-4.0182834,-5.455684,-0.87852687,-0.33078352,-1.0435106,-1.3451253
553,1778415627320,544.0,-3.9914525,-5.161521,-0.7154686,0.0355829,-1.1669053,0.3126103
554,1778415627330,545.0,-3.8589444,-4.852783,-0.5821071,0.452193,-1.2592987,1.3886495
555,1778415627340,546.0,-3.53295,-4.5316057,-0.45539245,1.1400273,-1.4242324,2.5842655
556,1778415627350,547.0,-3.0962172,-4.2549434,-0.38136372,1.9721785,-1.5586227,3.7465892
557,1778415627360,,,,,,,
558,1778415627370,548.0,-2.631495,-4.0984097,-0.40642616,2.6607764,-1.6212363,4.7160325
559,1778415627380,549.0,-1.9673098,-3.8744335,-0.5163106,3.4370334,-1.6491834,5.9391375
560,1778415627390,550.0,-1.249707,-3.6252723,-0.6746735,4.0549235,-1.6062702,7.0562572
561,1778415627400,551.0,-0.5469831,-3.3216574,-0.9009672,4.574159,-1.5654949,8.002946
562,1778415627410,552.0,0.15446024,-3.0239568,-1.1909232,5.094158,-1.6427693,8.745299
563,1778415627420,553.0,0.74864125,-2.8518128,-1.4203877,5.526956,-1.7547104,9.263161
564,1778415627430,554.0,1.4920382,-2.6598504,-1.6597309,5.9169936,-1.8338175,9.867307
565,1778415627440,555.0,2.2170196,-2.4688025,-1.8805975,5.9212694,-1.8409951,10.421514
566,1778415627450,556.0,2.7664418,-2.3578205,-1.9810911,5.575825,-1.8124372,10.793378
567,1778415627460,557.0,3.6098447,-2.1155503,-1.8665112,4.818047,-1.8009834,11.076209
568,1778415627470,558.0,3.6098447,-2.1155503,-1.8665112,4.087605,-1.6667458,11.215944
569,1778415627480,559.0,3.9610846,-1.99036,-1.7664444,3.1807754,-1.5289958,11.319486
570,1778415627490,560.0,4.1668286,-1.604057,-1.5496637,2.3571763,-1.6717855,11.041084
571,1778415627500,561.0,4.1641455,-1.3948375,-1.2327548,1.1459832,-1.6861408,9.774608
572,1778415627510,562.0,3.8999226,-1.3153816,-0.8251092,0.8518516,-1.5749633,9.284694
573,1778415627520,563.0,3.6419196,-1.3031858,-0.68949145,0.5401576,-1.4660766,8.748354
574,1778415627530,564.0,3.368489,-1.3344681,-0.5822291,0.26542094,-1.420109,8.298451
575,1778415627540,565.0,3.1606722,-1.3536766,-0.5234452,0.033750303,-1.4949399,7.9728603
576,1778415627550,566.0,3.1606722,-1.3536766,-0.5234452,0.033750303,-1.4949399,7.9728603
577,1778415627560,567.0,2.7533925,-1.4089236,-0.28666306,-0.35002577,-1.5375478,7.719657
578,1778415627570,568.0,2.7533925,-1.4089236,-0.28666306,-0.35002577,-1.5375478,7.719657
579,1778415627580,569.0,2.5913708,-1.4505724,-0.21671996,-0.6418667,-1.5117388,7.7482147
580,1778415627590,570.0,2.3569667,-1.4346569,-0.13275166,-0.8582657,-1.5986344,7.870235
581,1778415627600,571.0,2.2961094,-1.3868492,-0.13525179,-0.806953,-1.7713565,7.8877974
582,1778415627610,572.0,2.259644,-1.3361145,-0.13683724,-0.68584895,-1.9300288,7.837401
583,1778415627620,573.0,2.2569609,-1.3196502,-0.18995011,-0.3933972,-2.1487186,7.735081
584,1778415627630,574.0,2.2875116,-1.2512316,-0.3325194,0.010231993,-2.4598017,7.6400914
585,1778415627640,575.0,2.390993,-1.197021,-0.5020415,0.36743546,-2.8464794,7.5588465
586,1778415627650,576.0,2.5933828,-1.1442132,-0.5882661,0.6969972,-3.2896621,7.5377717
587,1778415627660,577.0,2.5933828,-1.1442132,-0.5882661,0.6969972,-3.2896621,7.5377717
588,1778415627670,578.0,3.1853688,-0.9031625,-0.4552095,0.9036224,-3.6018143,7.8852015
589,1778415627680,579.0,3.550573,-0.5877782,-0.29361472,0.30955598,-2.8362474,8.316777
590,1778415627690,580.0,3.7889407,-0.21989086,-0.25050244,-0.61911196,-1.8144225,8.507521
591,1778415627700,581.0,3.9772444,0.12214127,-0.26007617,-1.709201,-0.84116143,8.469646
592,1778415627710,582.0,4.1123133,0.34965453,-0.248795,-2.525775,-0.24694228,8.340448
593,1778415627720,583.0,4.3629375,0.55326396,-0.22226907,-3.2652276,0.12003502,8.057159
594,1778415627730,584.0,4.8227816,0.7336404,-0.26153967,-3.3234124,0.043066,7.874053
595,1778415627740,585.0,5.5305057,0.96560514,-0.26074693,-2.7907379,-0.605062,8.026922
596,1778415627750,586.0,6.2646947,1.2425725,-0.15525296,-2.1595614,-1.3019066,8.101448
597,1778415627760,587.0,7.2699976,1.6953428,-0.013354438,-1.4086553,-2.0033326,7.5460186
598,1778415627770,588.0,7.806492,2.0002387,0.10488417,-1.0607675,-2.2841778,6.710049
599,1778415627780,589.0,8.41671,2.415324,0.47710103,-0.6533204,-2.2122486,4.462065
600,1778415627790,590.0,8.399453,2.6437519,0.8877957,-0.43188173,-1.2003502,0.52763486
601,1778415627800,591.0,8.016321,2.1384783,1.0240841,-0.2848159,-0.021533,-2.9286406
602,1778415627810,592.0,7.2879863,1.4345349,0.96877605,-0.020158553,0.73746705,-5.0652947
603,1778415627820,593.0,6.481659,0.49954134,0.85584265,0.54367006,1.420109,-6.710813
604,1778415627830,594.0,5.8763185,-0.097749606,0.7332745,1.0479393,1.8429805,-7.2352405
605,1778415627840,595.0,5.288845,-0.6771737,0.51655453,1.4860824,2.4110851,-7.062671
606,1778415627850,596.0,4.9154086,-0.793156,0.43313503,1.4645494,2.7550023,-6.7437997
607,1778415627860,597.0,4.5703278,-0.8326705,0.26830834,0.8848383,3.6532795,-6.0355015
608,1778415627870,598.0,4.4279413,-0.75858086,0.22562292,0.40439278,4.185496,-5.7473254
609,1778415627880,599.0,4.2026234,-0.6038767,0.2376968,-0.45280385,5.141958,-5.4070735
610,1778415627890,600.0,4.005843,-0.52801865,0.31142062,-1.1794281,6.295272,-5.238933
611,1778415627900,601.0,3.8564446,-0.5394827,0.36410663,-1.3127494,7.1426945,-5.244889
612,1778415627910,602.0,3.761378,-0.6032059,0.38185155,-1.0790935,7.7155333,-5.3835554
613,1778415627920,603.0,3.6457007,-0.7713865,0.32788497,-0.3585779,8.192772,-5.6665387
614,1778415627930,604.0,3.664482,-1.0077418,0.117140986,0.74204856,8.230035,-6.01519
615,1778415627940,605.0,3.6479568,-1.1264071,-0.010549396,1.7673858,7.9589634,-6.4369926
616,1778415627950,,,,,,,
617,1778415627960,606.0,3.650274,-1.2875141,-0.14287418,3.0356948,7.4850845,-7.189426
618,1778415627970,607.0,3.6482615,-1.3967887,-0.19909698,3.7044396,7.2279105,-7.72882
619,1778415627980,608.0,3.658933,-1.6097281,-0.3987428,4.6384525,6.802901,-8.702997
620,1778415627990,609.0,3.7050943,-1.817484,-0.7016873,5.3340755,6.2270074,-9.763001
621,1778415628000,610.0,3.8304067,-2.224825,-1.3340412,5.817117,5.064989,-11.131339
622,1778415628010,611.0,3.8304067,-2.224825,-1.3340412,5.82796,4.005596,-11.971127
623,1778415628020,612.0,3.8032098,-2.3661745,-1.3477006,5.4099755,2.4103215,-12.798696
624,1778415628030,613.0,3.5500245,-2.528745,-1.0621351,3.7129917,1.3828462,-12.812746
625,1778415628040,614.0,3.5500245,-2.528745,-1.0621351,3.7129917,1.3828462,-12.812746
626,1778415628050,615.0,3.3525126,-2.5713086,-0.9726177,1.3564262,1.4963144,-11.126147
627,1778415628060,616.0,3.135244,-2.4844131,-0.9854843,1.3564262,1.4963144,-11.126147
628,1778415628070,617.0,3.0310307,-2.3361728,-1.0229255,0.5748242,1.5537357,-10.472216
629,1778415628080,618.0,2.9157188,-2.0728648,-1.0065831,-0.8156578,1.6629279,-9.471924
630,1778415628090,619.0,2.8793755,-1.8724264,-0.95560455,-2.0540345,1.8558086,-8.5904455
631,1778415628100,620.0,2.9190726,-1.8524251,-0.92816395,-2.8154778,2.1097758,-7.8543525
632,1778415628110,621.0,2.8371167,-1.6860739,-0.9118215,-3.1386256,2.257758,-7.1315465
633,1778415628120,622.0,2.7549777,-1.5229547,-0.7573003,-3.2371275,2.43216,-6.4169865
634,1778415628130,623.0,2.5195982,-1.1551284,-0.7124196,-3.118467,3.4811683,-5.580865
635,1778415628140,624.0,2.3160498,-1.0620742,-1.0658549,-2.786309,3.684281,-5.6022453
636,1778415628150,625.0,2.0713403,-1.071343,-1.4248393,-2.0700696,3.295618,-5.9366937
637,1778415628160,626.0,1.8130326,-1.255988,-1.7156489,-1.2017246,2.5367706,-6.608493
638,1778415628170,627.0,1.8130326,-1.255988,-1.7156489,-1.2017246,2.5367706,-6.608493
639,1778415628180,628.0,1.5061854,-1.3722142,-1.7108315,-0.8330675,2.0546453,-7.1940074
640,1778415628190,629.0,0.8613918,-1.6288756,-1.6115575,-0.38698313,1.4210253,-8.30059
641,1778415628200,630.0,-0.974813,-2.7951632,-1.7994953,0.8897252,0.25244007,-8.9036665
642,1778415628210,631.0,-1.9053551,-3.5731354,-1.9548093,0.96852684,-0.46914452,-8.3622875
643,1778415628220,632.0,-2.5577712,-4.1262164,-1.8818781,0.96852684,-0.46914452,-8.3622875
644,1778415628230,633.0,-3.2545803,-4.624782,-1.6559503,0.19868392,-1.6485726,-6.1636305
645,1778415628240,634.0,-3.6931424,-5.2151823,-1.3997158,-0.3202461,-1.7405078,-4.6266932
646,1778415628250,635.0,-3.9568162,-5.5072722,-1.5555176,-0.59483004,-2.5912905,-2.8301387
647,1778415628260,636.0,-3.9144967,-5.3194566,-1.1987895,-0.82741696,-2.8921416,-1.2915218
648,1778415628270,637.0,-3.6436882,-5.1649356,-0.5810705,-1.1523973,-2.54517,-0.3846924
649,1778415628280,638.0,-3.6436882,-5.1649356,-0.5810705,-1.1523973,-2.54517,-0.3846924
650,1778415628290,639.0,-3.389161,-5.3587275,-0.13525179,-1.4964671,-1.054048,2.4362833
651,1778415628300,640.0,-2.9606605,-4.870345,0.04896627,-0.54092115,-1.6184875,3.9516873
652,1778415628310,641.0,-2.2726934,-4.504775,0.30977416,0.5728389,-1.6928604,5.220149
653,1778415628320,642.0,-1.691928,-4.1920133,0.23275748,1.4495832,-1.6081028,6.116899
654,1778415628330,643.0,-0.9347496,-3.8424802,0.045856334,2.5463917,-1.5558738,7.083746
655,1778415628340,644.0,-0.17348573,-3.5344744,-0.1753151,3.5541668,-1.4802792,7.9705696
656,1778415628350,645.0,0.58094853,-3.3275113,-0.44398934,4.392732,-1.3616186,8.799209
657,1778415628360,646.0,1.2335476,-3.0372503,-0.82614577,5.092936,-1.2505939,9.487349
658,1778415628370,647.0,1.8085201,-2.863155,-1.2822089,5.7112846,-1.3298537,9.86639
659,1778415628380,648.0,2.4020915,-2.7802231,-1.7728474,6.28,-1.675298,10.161285
660,1778415628390,649.0,3.0828018,-2.7438796,-2.0981102,6.667594,-2.3612995,10.386389
661,1778415628400,650.0,3.5852091,-2.6147258,-2.165492,6.667594,-2.3612995,10.386389
662,1778415628410,651.0,3.999014,-2.6056397,-2.0829265,6.7033296,-2.8582385,10.73275
663,1778415628420,652.0,4.285677,-2.4256294,-2.1386003,6.481891,-2.545781,11.085372
664,1778415628430,653.0,4.54618,-2.145674,-2.2089093,6.0658917,-2.2492058,11.286957
665,1778415628440,654.0,4.721068,-1.9992629,-2.2780597,5.1283665,-1.8423696,11.312919
666,1778415628450,655.0,4.7870474,-1.9016963,-2.195189,3.7766743,-1.6204728,11.028255
667,1778415628460,656.0,4.6475883,-1.7038189,-2.0207276,2.5793786,-1.4559973,10.686934
668,1778415628470,657.0,4.388244,-1.5363702,-1.7318693,1.4010195,-1.294118,10.306213
669,1778415628480,658.0,4.1004834,-1.4911846,-1.431425,0.18478674,-1.1549934,9.916023
670,1778415628490,659.0,3.8562007,-1.5242963,-1.2605003,-0.63117653,-1.1879802,9.60723
671,1778415628500,660.0,3.6247237,-1.5273452,-1.1550674,-1.1470522,-1.5893186,9.320581
672,1778415628510,661.0,3.5104487,-1.6044229,-0.99267983,-1.415222,-2.195755,9.060658
673,1778415628520,,,,,,,
674,1778415628530,662.0,3.4816055,-1.6795493,-0.79461956,-1.5028812,-2.654973,8.936042
675,1778415628540,663.0,3.4348345,-1.718454,-0.5159447,-1.5303701,-2.9261973,8.899238
676,1778415628550,664.0,3.3548298,-1.6440594,-0.37258273,-1.5025758,-2.8490756,8.834181
677,1778415628560,665.0,3.3036685,-1.5866779,-0.48222327,-1.3880385,-2.779895,8.605564
678,1778415628570,666.0,3.237628,-1.5435656,-0.6310734,-1.125061,-3.067307,8.258593
679,1778415628580,667.0,3.1656115,-1.4914895,-0.72107863,-0.8903361,-3.3869424,8.028296
680,1778415628590,668.0,3.152562,-1.387398,-0.8359634,-0.35369098,-4.10532,7.6449785
681,1778415628600,669.0,3.289887,-1.3291019,-0.878222,0.39370266,-4.8898234,7.3781834
682,1778415628610,670.0,3.43081,-1.1468961,-0.8487081,1.2266175,-5.475643,7.309003
683,1778415628620,671.0,3.656372,-0.9645685,-0.76065415,1.92392,-5.7218223,7.4411025
684,1778415628630,672.0,4.209026,-0.3647774,-0.6500989,1.9543107,-4.742452,8.328078
685,1778415628640,673.0,4.597524,-0.015671646,-0.69449174,1.0706941,-3.5204165,8.896642
686,1778415628650,674.0,4.597524,-0.015671646,-0.69449174,1.0706941,-3.5204165,8.896642
687,1778415628660,675.0,4.9307756,0.38032708,-0.6922965,-0.4437936,-2.3806946,9.265909
688,1778415628670,676.0,5.761007,1.1862278,-0.25952733,-2.3906212,-0.8405506,9.963059
689,1778415628680,677.0,5.761007,1.1862278,-0.25952733,-2.3906212,-0.8405506,9.963059
690,1778415628690,678.0,6.320369,1.8133985,-0.09463967,-2.3970351,-0.59315014,10.273073
691,1778415628700,679.0,7.168589,2.6241164,0.05927175,-1.7997618,-0.59421915,9.951453
692,1778415628710,680.0,8.4402485,3.5010579,0.6135114,-0.30604348,-0.7846564,5.472589
693,1778415628720,681.0,8.412015,3.6033812,0.5857659,0.34208453,-0.25870144,1.6788104
694,1778415628730,682.0,8.011321,2.631739,0.06335735,1.1470522,-0.09330966,-3.2160528
695,1778415628740,683.0,7.247252,1.472464,-0.073723815,1.8051068,-0.095753126,-6.932404
696,1778415628750,684.0,6.474646,0.50978583,-0.16183871,2.0980167,-0.08109236,-9.070433
697,1778415628760,685.0,5.7414327,-0.6399763,-0.1837912,2.1087067,0.13820826,-9.707718
698,1778415628770,686.0,5.1931076,-1.4375839,-0.22653762,1.9103284,0.5325218,-9.387013
699,1778415628780,687.0,5.1931076,-1.4375839,-0.22653762,1.9103284,0.5325218,-9.387013
700,1778415628790,688.0,4.906933,-1.7234542,-0.22080556,1.5845845,0.93859446,-8.600066
701,1778415628800,689.0,4.38489,-1.8565108,-0.17135146,0.9016371,1.5711454,-7.2647147
702,1778415628810,690.0,3.6978986,-1.2336695,-0.01689123,-1.2194397,3.8147008,-4.7477975
703,1778415628820,691.0,3.6978986,-1.2336695,-0.01689123,-1.2194397,3.8147008,-4.7477975
704,1778415628830,692.0,3.2595196,-0.43850118,-0.092505395,-2.551126,5.696624,-3.7565157
705,1778415628840,693.0,3.1061568,-0.172693,-0.08183405,-2.7062857,6.229298,-3.6980255
706,1778415628850,694.0,3.0297499,-0.056710627,-0.096347086,-2.4587326,6.358191,-3.8924334
707,1778415628860,695.0,2.9293172,0.05799119,-0.061649937,-1.7150042,6.151413,-4.3650904
708,1778415628870,696.0,2.8877294,0.080065645,-0.009573729,-0.5856671,5.7505326,-5.1037793
709,1778415628880,697.0,2.8558373,0.02274523,0.06433302,0.42332962,5.4180694,-5.7836723
710,1778415628890,698.0,2.8558373,0.02274523,0.06433302,0.42332962,5.4180694,-5.7836723
711,1778415628900,699.0,3.0190787,-0.25800288,-0.10433535,1.5971072,4.9916854,-6.675841
712,1778415628910,700.0,3.1595745,-0.39673045,-0.2013532,3.1719177,4.006818,-8.398634
713,1778415628920,701.0,3.2993388,-0.5991813,-0.24056281,3.6004398,3.5964692,-9.330967
714,1778415628930,702.0,3.4314806,-0.8596843,-0.30074924,3.7145188,3.4665074,-10.111805
715,1778415628940,703.0,3.524413,-1.0788434,-0.4238052,3.600287,3.5224018,-10.772456
716,1778415628950,704.0,3.600698,-1.3753241,-0.71174884,3.363424,3.3956473,-11.334299
717,1778415628960,705.0,3.597222,-1.6799761,-0.9555435,3.1713068,3.0347786,-11.649811
718,1778415628970,706.0,3.491362,-1.8994402,-1.0652452,2.9185615,2.3727534,-11.799932
719,1778415628980,707.0,3.4359934,-1.9930432,-1.0907344,2.7488935,1.914299,-11.745106
720,1778415628990,708.0,3.2648857,-2.0698159,-1.0589643,2.7488935,1.914299,-11.745106
721,1778415629000,709.0,3.2648857,-2.0698159,-1.0589643,2.1378756,1.1252137,-11.376755
722,1778415629010,710.0,3.0063949,-1.9776154,-0.86498946,0.36880988,0.64675355,-10.166783
723,1778415629020,711.0,2.8579106,-1.870597,-0.7818749,-0.2751948,0.7554876,-9.597303
724,1778415629030,712.0,2.7510753,-1.7866286,-0.74260426,-1.0105238,1.0395399,-8.821047
725,1778415629040,713.0,2.6896691,-1.7378453,-0.7591906,-1.5748106,1.3116804,-8.144513
726,1778415629050,714.0,2.6344829,-1.6677192,-0.80510795,-2.076331,1.5245669,-7.4724092
727,1778415629060,715.0,2.5222812,-1.5228328,-0.7938878,-2.6299276,1.7075211,-6.641785
728,1778415629070,716.0,2.4543505,-1.4758788,-0.7535196,-2.750268,1.7673858,-6.3481116
729,1778415629080,717.0,2.2640955,-1.3488592,-0.6592458,-2.6684122,1.8165605,-5.9548674
730,1778415629090,718.0,1.9978606,-1.2202542,-0.55051994,-2.2925773,1.8254181,-5.618433
731,1778415629100,719.0,1.7188199,-1.1376274,-0.5388119,-1.8110627,1.7927368,-5.479003
732,1778415629110,720.0,1.5252719,-1.1315905,-0.54490983,-1.3972015,1.6626225,-5.5040483
733,1778415629120,721.0,1.2977587,-1.4775252,-0.3041031,-1.1067351,1.894904,-5.944788
734,1778415629130,722.0,0.676198,-1.6058254,-0.3691069,-0.892016,2.7714956,-6.8339024
735,1778415629140,723.0,-0.017744938,-2.1032934,-1.0372556,-0.16401732,2.9733865,-8.025394
736,1778415629150,724.0,-0.017744938,-2.1032934,-1.0372556,-0.16401732,2.9733865,-8.025394
737,1778415629160,725.0,-0.017744938,-2.1032934,-1.0372556,-0.16401732,2.9733865,-8.025394
738,1778415629170,726.0,-1.3920325,-3.0073705,-1.8035197,2.5402832,-2.0540345,-8.571203
739,1778415629180,727.0,-2.6597283,-4.1721945,-1.2566587,2.4043655,-2.8154778,-8.008138
740,1778415629190,728.0,-2.6597283,-4.1721945,-1.2566587,2.4043655,-2.8154778,-8.008138
741,1778415629200,729.0,-3.4131868,-5.090541,-0.35081315,0.26465738,-2.3806946,-4.959004
742,1778415629210,730.0,-3.516181,-5.2939672,-0.2139759,-0.89751375,-1.4220943,-2.8487701
743,1778415629220,731.0,-3.451543,-5.2086573,-0.19135264,-1.3121386,-1.0636691,-1.5764905
744,1778415629230,732.0,-3.2815938,-5.055417,-0.009085896,-1.4654657,-0.8536842,-0.4072944
745,1778415629240,733.0,-2.9928575,-4.689115,0.24056281,-1.2673926,-0.4925101,0.9934196
746,1778415629250,734.0,-2.5807605,-4.375804,0.33880025,-0.6085745,-0.078343466,2.461787
747,1778415629260,735.0,-2.0567663,-4.1659746,0.17409553,0.4005749,0.17715092,4.123493
748,1778415629270,736.0,-1.6503402,-4.057737,-0.14476454,1.3955216,-0.044898596,5.6132407
749,1778415629280,,,,,,,
750,1778415629290,737.0,-0.90279657,-3.6803975,-0.31764048,2.3063216,-0.47998735,7.0680165
751,1778415629300,738.0,0.011586042,-3.2884238,-0.38471758,3.0573804,-0.64751714,8.767138
752,1778415629310,739.0,0.78626543,-2.7194269,-0.47813767,3.5115588,-0.3202461,10.315834
753,1778415629320,740.0,1.7021725,-2.339283,-0.88078314,3.904956,-0.16661349,11.115915
754,1778415629330,741.0,2.5264888,-2.1624434,-1.112077,4.096615,-0.25778514,11.778246
755,1778415629340,742.0,2.9717586,-1.9357227,-1.1442741,3.970166,-0.27046058,11.88591
756,1778415629350,743.0,3.3766606,-1.6495476,-1.1937282,3.3695326,-0.21533,11.463802
757,1778415629360,744.0,3.4584947,-1.4931359,-1.1794591,2.979037,-0.2941316,11.1592865
758,1778415629370,745.0,3.623748,-1.4941726,-1.1673852,2.254551,-0.80664754,10.69961
759,1778415629380,746.0,3.653323,-1.4189242,-1.0497563,1.8139644,-1.2359331,10.567663
760,1778415629390,747.0,3.7071066,-1.4331933,-0.8353536,1.3906348,-1.5859588,10.53712
761,1778415629400,748.0,3.682288,-1.3811172,-0.40069413,0.2003638,-1.8664987,10.312474
762,1778415629410,749.0,3.682288,-1.3811172,-0.40069413,0.2003638,-1.8664987,10.312474
763,1778415629420,750.0,3.5781357,-1.3266017,-0.21824445,-0.1947133,-1.752267,10.155024
764,1778415629430,751.0,3.4322126,-1.2721474,-0.0954324,-0.59391373,-1.5632042,9.91587
765,1778415629440,752.0,3.149391,-1.1829959,0.017440042,-1.0398453,-1.3281738,9.332189
766,1778415629450,753.0,3.149391,-1.1829959,0.017440042,-1.0398453,-1.3281738,9.332189
767,1778415629460,754.0,2.9955406,-1.1754954,0.052015226,-1.1879802,-1.3046554,8.943373
768,1778415629470,755.0,2.8369946,-1.2065948,0.04116094,-1.2331842,-1.4191927,8.249887
769,1778415629480,756.0,2.8369946,-1.2065948,0.04116094,-1.2331842,-1.4191927,8.249887
770,1778415629490,757.0,2.7768085,-1.2494631,0.011464084,-1.1882856,-1.5509869,7.9592686
771,1778415629500,758.0,2.6845467,-1.276233,-0.0016464376,-1.0862712,-1.8168659,7.6532254
772,1778415629510,759.0,2.5887485,-1.2541586,0.032136023,-0.8868236,-2.123215,7.394982
773,1778415629520,760.0,2.590883,-1.2015336,0.041526813,-0.2770274,-2.5752552,7.125132
774,1778415629530,761.0,2.6703997,-1.1611043,0.041038983,-0.0917825,-2.6787968,7.148803
775,1778415629540,762.0,2.865472,-1.1145163,0.03561183,-0.036957346,-2.6899452,7.304879
776,1778415629550,763.0,3.084814,-0.99463123,0.089517415,-0.123547494,-2.5302038,7.647422
777,1778415629560,764.0,3.301595,-0.7748623,0.15305771,-0.52519137,-2.112983,8.008138
778,1778415629570,765.0,3.301595,-0.7748623,0.15305771,-0.52519137,-2.112983,8.008138
779,1778415629580,766.0,3.7073505,-0.37343642,0.21482961,-1.195616,-1.4905112,8.286081
780,1778415629590,767.0,3.7073505,-0.37343642,0.21482961,-1.6702583,-1.0668762,8.36977
781,1778415629600,768.0,3.9530356,-0.11726294,0.20989029,-2.5030203,-0.41599923,8.413294
782,1778415629610,769.0,4.419892,0.34197116,0.2004995,-3.577685,0.11682798,8.112902
783,1778415629620,770.0,4.9684606,0.4610025,0.19775544,-3.673438,-0.419359,7.826711
784,1778415629630,771.0,5.467514,0.52942115,0.24897793,-3.375336,-1.1253664,7.6074104
785,1778415629640,772.0,6.2267656,0.83998805,0.36928985,-2.5636487,-2.333658,7.3552756
786,1778415629650,773.0,7.164442,1.2718425,0.7236398,-1.5502232,-3.5851681,6.930877
787,1778415629660,774.0,7.8586907,1.7544317,1.2780014,-0.9277516,-4.0146065,6.1042237
788,1778415629670,775.0,8.277923,2.2917192,2.057315,-0.53969944,-3.2261322,4.04347
789,1778415629680,776.0,8.197612,2.4466062,2.461912,-0.47678033,-1.6786577,1.7718146
790,1778415629690,777.0,7.809175,2.2024455,2.5684426,-0.14569137,0.73914695,-1.4778358
791,1778415629700,778.0,7.809175,2.2024455,2.5684426,0.61743206,2.3660338,-4.1124973
792,1778415629710,779.0,6.279513,0.63686645,1.4511822,1.6436857,2.937651,-5.915772
793,1778415629720,780.0,5.545263,-0.09067602,0.97767895,2.5224154,2.8577802,-6.913315
794,1778415629730,781.0,5.090907,-0.56253284,0.7871801,2.8510609,2.643672,-7.1652966
795,1778415629740,782.0,4.6364293,-0.93157876,0.8129743,2.6354253,2.7316368,-6.9391236
796,1778415629750,783.0,4.2901893,-1.053964,0.9142607,1.794264,3.5361462,-6.367812
797,1778415629760,784.0,3.959865,-1.0428047,1.0166447,0.6458373,5.0055823,-5.746104
798,1778415629770,785.0,3.7399135,-1.0080466,0.9846306,-0.19547687,6.357427,-5.2597027
799,1778415629780,786.0,3.5018506,-0.9223709,0.8249872,-0.8347474,7.757836,-4.744743
800,1778415629790,787.0,3.3592813,-0.8938326,0.67455155,-0.88056225,8.435896,-4.5083385
801,1778415629800,788.0,3.216895,-0.9164559,0.49277264,-0.36086863,8.705746,-4.4887905
802,1778415629810,789.0,3.0723135,-0.94633573,0.36270407,0.7611381,8.422152,-4.8123965
803,1778415629820,790.0,2.9628558,-1.0122542,0.25257573,1.9668334,7.938957,-5.283984
804,1778415629830,791.0,2.8607767,-1.156287,0.09183463,3.6018143,7.115664,-6.0321417
805,1778415629840,792.0,2.801139,-1.3022711,-0.058844898,5.066669,6.1799707,-6.8752885
806,1778415629850,793.0,2.7771132,-1.4697199,-0.20708527,6.1614923,5.225647,-7.8322086
807,1778415629860,794.0,2.7638807,-1.6118014,-0.3418492,6.719212,4.4348817,-8.60984
808,1778415629870,795.0,2.7733326,-1.7255886,-0.4355742,6.974096,3.5961637,-9.326996
809,1778415629880,796.0,2.7785769,-1.9577973,-0.55192244,6.786102,2.324495,-10.162507
810,1778415629890,797.0,2.7741861,-2.0249963,-0.5174692,6.340934,1.6212363,-10.474812
811,1778415629900,798.0,2.7181466,-2.0262766,-0.42630538,5.5161133,1.0348058,-10.60569
812,1778415629910,799.0,2.6600943,-2.010971,-0.35514265,4.5199447,0.78694713,-10.489625
813,1778415629920,800.0,2.6397882,-2.0474365,-0.31105474,3.4941492,0.8142834,-10.088898
814,1778415629930,801.0,2.579419,-2.0118248,-0.31837222,2.6678011,0.95524055,-9.5910425
815,1778415629940,,,,,,,
816,1778415629950,802.0,2.592895,-1.9023061,-0.38715672,1.5986344,1.1578951,-8.900917
817,1778415629960,803.0,2.6457033,-1.747358,-0.41502422,0.54229563,1.3387111,-8.257524
818,1778415629970,804.0,2.6508863,-1.6240582,-0.41045076,-0.42271876,1.5818355,-7.72378
819,1778415629980,805.0,2.6800954,-1.5391752,-0.35465485,-1.0395399,1.8639026,-7.3464184
820,1778415629990,806.0,2.681376,-1.5064293,-0.32032356,-1.3481796,2.1358902,-7.076263
821,1778415630000,807.0,2.6032007,-1.390325,-0.30904242,-1.5490016,2.5977044,-6.675841
822,1778415630010,808.0,2.5519173,-1.2989173,-0.44703826,-1.3677273,2.883895,-6.301686
823,1778415630020,809.0,2.455875,-1.1733612,-0.5938761,-0.89873546,2.7415633,-6.1413336
824,1778415630030,810.0,2.3664796,-1.0774409,-0.6694903,-0.47342056,2.4184155,-6.128964
825,1778415630040,811.0,2.2286057,-0.95487285,-0.61040145,0.03268129,2.0719023,-6.381709
826,1778415630050,812.0,2.0104833,-0.7723012,-0.5483857,0.03268129,2.0719023,-6.381709
827,1778415630060,813.0,1.3480664,-0.7469338,-0.5655208,-0.01695151,2.3385448,-6.776023
828,1778415630070,814.0,0.778643,-1.0639645,-0.910297,0.44028112,3.153439,-7.744855
829,1778415630080,815.0,0.778643,-1.0639645,-0.910297,0.44028112,3.153439,-7.744855
830,1778415630090,816.0,0.29190728,-1.2886118,-1.3254431,0.9775371,2.9176452,-7.9965315
831,1778415630100,817.0,-0.75303173,-1.8176061,-1.820838,2.2530236,1.215011,-7.9151335
832,1778415630110,818.0,-1.6817445,-2.257266,-1.9596267,2.9210048,-0.21533,-7.476074
833,1778415630120,819.0,-2.5998468,-3.0251155,-1.8883419,0.07498371,-1.3416128,-6.3406286
834,1778415630130,820.0,-3.8562617,-4.3667183,-1.2631226,-1.8913915,-0.9807441,-5.2080846
835,1778415630140,821.0,-4.5410576,-4.864064,-0.8815758,-3.805385,-0.23411411,-3.5630243
836,1778415630150,822.0,-4.7466183,-4.9578505,-0.82529205,-4.4156394,-0.116980694,-2.1777346
837,1778415630160,823.0,-4.773693,-4.8166833,-0.66113615,-3.854407,-0.4718934,-1.2857187
838,1778415630170,824.0,-4.5365453,-4.641734,-0.3312998,-2.285705,-1.1687379,-0.12293663
839,1778415630180,825.0,-4.1401806,-4.4683704,-0.014756958,-0.40408736,-1.7128662,1.4271339
840,1778415630190,826.0,-4.1401806,-4.4683704,-0.014756958,-0.40408736,-1.7128662,1.4271339
841,1778415630200,827.0,-3.6108816,-4.261102,0.2505634,0.6640105,-1.767844,2.4894285
842,1778415630210,828.0,-1.949687,-3.6272848,0.027440626,3.1659617,-0.6020077,6.0057216
843,1778415630220,829.0,-1.1239071,-3.225798,-0.46399048,3.7676642,0.007788532,7.230354
844,1778415630230,830.0,-0.4444162,-2.8729117,-0.95560455,4.1108174,0.36209038,7.981107
845,1778415630240,831.0,0.009939604,-2.7238784,-1.352701,4.3456955,0.41996986,8.377711
846,1778415630250,832.0,0.5468002,-2.5825899,-1.8960252,4.915327,-0.25121832,8.851895
847,1778415630260,833.0,1.1109794,-2.4136164,-2.2731814,5.3916492,-1.0931433,9.053939
848,1778415630270,834.0,1.6084476,-2.1822615,-2.3907492,5.8458276,-2.158187,9.116247
849,1778415630280,835.0,1.6084476,-2.1822615,-2.3907492,5.8458276,-2.158187,9.116247
850,1778415630290,836.0,2.4067867,-1.9299297,-2.4108725,5.764735,-3.4771976,9.191078
851,1778415630300,837.0,2.9123042,-1.7862629,-2.0035317,4.9312096,-3.9887974,9.346697
852,1778415630310,838.0,2.9123042,-1.7862629,-2.0035317,4.9312096,-3.9887974,9.346697
853,1778415630320,839.0,3.2940948,-1.5211253,-1.0984178,2.271808,-2.777757,9.447336
854,1778415630330,840.0,3.302266,-1.3928251,-0.8146207,0.6806566,-1.6607898,9.327912
855,1778415630340,841.0,3.302266,-1.3928251,-0.8146207,-0.36468655,-0.98700553,9.20971
856,1778415630350,842.0,3.0906682,-1.3694701,-0.6650998,-1.4671456,-0.61315596,8.888394
857,1778415630360,843.0,2.9746249,-1.3536155,-0.58113146,-1.9523253,-0.72524977,8.598234
858,1778415630370,844.0,2.8315675,-1.3654455,-0.44575772,-2.337934,-1.0199922,8.17353
859,1778415630380,845.0,2.7388794,-1.3798366,-0.3655701,-2.4909558,-1.2098186,7.909178
860,1778415630390,846.0,2.596188,-1.4277663,-0.24166043,-2.6520715,-1.5225816,7.507839
861,1778415630400,847.0,2.596188,-1.4277663,-0.24166043,-2.7119362,-1.8817704,7.1836224
862,1778415630410,848.0,2.3862977,-1.5588105,-0.056649648,-2.7119362,-1.8817704,7.1836224
863,1778415630420,849.0,2.3612964,-1.6175944,0.025977125,-2.64917,-2.4055874,6.9742484
864,1778415630430,850.0,2.3393438,-1.6520475,0.12012896,-2.581822,-2.4927883,6.967376
865,1778415630440,851.0,2.3062932,-1.6577797,0.14171559,-2.477364,-2.4813347,6.963864
866,1778415630450,852.0,2.2769623,-1.6628408,0.033843435,-2.1206186,-2.6413813,6.956381
867,1778415630460,853.0,2.309159,-1.6639994,-0.042136606,-1.732872,-2.9329166,6.954548
868,1778415630470,854.0,2.3698332,-1.6490598,-0.09695688,-1.1571314,-3.4028249,6.939582
869,1778415630480,855.0,2.4775226,-1.6564381,-0.09829842,-0.8078693,-3.6483927,6.9490504
870,1778415630490,856.0,2.6670458,-1.6955868,-0.103115775,-0.28069258,-3.9092321,7.0559516
871,1778415630500,857.0,2.991638,-1.7655299,-0.079638794,0.078343466,-3.979787,7.45729
872,1778415630510,858.0,3.335926,-1.6788785,0.008537084,0.1226312,-3.6457965,8.173072
873,1778415630520,859.0,3.6659458,-1.3533716,0.07445556,-0.2782491,-2.9738448,9.064018
874,1778415630530,860.0,4.021515,-0.8959059,0.11366516,-1.2064588,-2.1025982,9.753685
875,1778415630540,861.0,4.3154345,-0.54216576,0.16586334,-2.6569583,-1.1731668,9.97268
876,1778415630550,862.0,4.671492,-0.18744996,0.2426361,-4.008345,-0.50854534,9.825615
877,1778415630560,863.0,5.0196223,-0.038965687,0.29885888,-5.585294,-0.1226312,9.348988
878,1778415630570,864.0,5.3125663,0.05335677,0.5321042,-6.612311,-0.58291817,8.575479
879,1778415630580,865.0,5.634475,0.06360127,0.9234075,-6.766402,-1.4023939,7.834347
880,1778415630590,866.0,6.1476755,0.10451829,1.34642,-6.1744733,-2.4249823,7.1013083
881,1778415630600,867.0,7.1502953,0.39471814,1.8574865,-4.6631927,-3.8373027,6.440505
882,1778415630610,868.0,8.348536,0.96493435,2.564601,-2.9622383,-4.6404376,5.713881
883,1778415630620,869.0,9.22188,1.5611277,3.2086017,-1.97508,-3.9385536,3.5784485
884,1778415630630,,,,,,,
885,1778415630640,870.0,9.351399,1.8477298,3.5181932,-1.6180294,-1.6826283,-0.02397646
886,1778415630650,871.0,8.997293,1.4731957,3.5276449,-1.1636983,0.21120666,-3.0112603
887,1778415630660,872.0,8.22926,0.92554176,3.322206,-0.17379116,1.619862,-5.2974234
888,1778415630670,873.0,6.9051595,0.08915155,2.7864432,1.8632917,2.8467848,-7.1943126
889,1778415630680,874.0,6.1314554,-0.31770146,2.292207,3.0016391,3.339753,-7.684532
890,1778415630690,875.0,5.526969,-0.5683259,1.7438822,3.634801,3.7548358,-7.8151045
891,1778415630700,876.0,5.016939,-0.7114439,1.1337247,3.5634825,4.3208027,-7.752491
892,1778415630710,877.0,4.627709,-0.7952293,0.7660203,2.6827674,5.094005,-7.604203
893,1778415630720,878.0,4.236284,-0.8337072,0.59741294,1.4749341,6.037792,-7.2665477
894,1778415630730,879.0,3.8189423,-0.80425423,0.5550324,0.48655418,7.019147,-6.7143254
895,1778415630740,880.0,3.2446406,-0.83974415,0.37209487,-0.03848451,8.275392,-5.730832
896,1778415630750,881.0,3.2446406,-0.83974415,0.37209487,-0.03848451,8.275392,-5.730832
897,1778415630760,882.0,3.032677,-0.89249104,0.22726935,0.46120325,8.523708,-5.402645
898,1778415630770,883.0,2.9432814,-0.9697517,0.042746395,0.90469146,8.428413,-5.386457
899,1778415630780,884.0,2.947794,-1.1290293,-0.4063042,1.9908098,7.822893,-5.600107
900,1778415630790,885.0,2.947794,-1.1290293,-0.4063042,2.8571694,7.0533557,-6.098115
901,1778415630800,886.0,2.953648,-1.1959845,-0.47252756,3.3125696,6.617809,-6.5229716
902,1778415630810,887.0,2.979381,-1.4184973,-0.58515614,4.2497897,5.489388,-7.858018
903,1778415630820,888.0,2.979381,-1.4184973,-0.58515614,4.2497897,5.489388,-7.858018
904,1778415630830,889.0,2.9938333,-1.7138804,-0.85675734,4.221384,4.626999,-8.616254
905,1778415630840,890.0,2.9834669,-1.7574197,-0.94401854,3.9971967,4.2374196,-8.739344
906,1778415630850,891.0,2.9834669,-1.7574197,-0.94401854,3.9971967,4.2374196,-8.739344
907,1778415630860,892.0,2.9053524,-1.7428457,-0.97786194,3.0101912,3.368311,-8.658557
908,1778415630870,893.0,2.842361,-1.6666826,-0.9377376,2.435825,3.125492,-8.4659815
909,1778415630880,894.0,2.7813818,-1.5791165,-0.8003516,1.5986344,3.0433307,-8.055175
910,1778415630890,895.0,2.7295496,-1.4994167,-0.6882719,0.8750645,3.2343788,-7.6229873
911,1778415630900,896.0,2.7295496,-1.4994167,-0.6882719,0.032986723,3.650378,-7.0412908
912,1778415630910,897.0,2.751197,-1.3332485,-0.71223664,0.032986723,3.650378,-7.0412908
913,1778415630920,898.0,2.7307081,-1.2598295,-0.8322436,-1.1545353,4.45672,-6.158285
914,1778415630930,899.0,2.6636312,-1.1661046,-1.0203035,-1.185384,4.479933,-6.1139975
915,1778415630940,900.0,2.5359406,-1.1408592,-1.1173213,-0.9923506,4.088063,-6.224106
916,1778415630950,901.0,2.5359406,-1.1408592,-1.1173213,-0.9923506,4.088063,-6.224106
917,1778415630960,902.0,2.5359406,-1.1408592,-1.1173213,-0.9923506,4.088063,-6.224106
918,1778415630970,903.0,2.0744503,-1.0174984,-1.0554883,-0.49266282,3.2566752,-6.232811
919,1778415630980,904.0,1.8280945,-0.9735934,-1.1214678,-0.6603453,3.22995,-6.2519
920,1778415630990,905.0,1.5925928,-1.0177423,-1.1145163,-0.87598073,3.2575917,-6.359871
921,1778415631000,906.0,1.5925928,-1.0177423,-1.1145163,-0.87598073,3.2575917,-6.359871
922,1778415631010,907.0,0.59320533,-1.4802084,-1.2339745,-0.78694713,3.9154935,-6.8235173
923,1778415631020,908.0,-0.104945146,-1.9749933,-1.5206984,-0.15409076,4.063934,-6.934848
924,1778415631030,909.0,-0.7730329,-2.4016037,-1.8610233,0.29932398,3.8745656,-6.977608
925,1778415631040,910.0,-1.5980201,-3.0174322,-2.3085494,0.7829765,3.048065,-7.0142603
926,1778415631050,911.0,-2.304159,-3.781745,-2.6067984,1.0013609,1.7142406,-6.7173796
927,1778415631060,912.0,-2.7424772,-4.4705048,-2.5499048,0.9236283,0.65469486,-6.0990314
928,1778415631070,913.0,-3.196589,-5.111335,-2.1737244,0.38835758,-0.09330966,-4.8455358
929,1778415631080,914.0,-3.4787397,-5.4375734,-1.8651698,-0.45570546,-0.071318515,-3.14
930,1778415631090,915.0,-3.7664394,-5.399339,-1.6332661,-0.98364574,0.14065172,-1.6991217
931,1778415631100,916.0,-3.9068744,-5.126641,-1.5726527,-1.0468704,0.10781772,0.12583824
932,1778415631110,917.0,-3.8193693,-4.777718,-1.5740552,-0.40775254,-0.40286562,1.9906571
933,1778415631120,918.0,-3.437335,-4.3434243,-1.4034966,0.58032197,-1.128879,3.9374847
934,1778415631130,919.0,-2.9084623,-3.9619386,-1.2812942,1.2741122,-1.4228579,5.437464
935,1778415631140,920.0,-2.067133,-3.530206,-1.2544634,1.7621936,-1.4792101,7.1002393
936,1778415631150,921.0,-1.1682999,-3.1222553,-1.4062406,1.8348864,-1.5286902,8.452695
937,1778415631160,922.0,-0.64967203,-2.9151702,-1.481367,1.7799087,-1.7366899,9.262856
938,1778415631170,923.0,0.27568683,-2.5250254,-1.493014,1.7994562,-2.1238258,9.992686
939,1778415631180,924.0,0.7227251,-2.3576376,-1.4563044,1.8912388,-2.3629794,10.346225
940,1778415631190,925.0,1.4619756,-2.1553087,-1.3805073,1.9999728,-2.7601945,11.007639
941,1778415631200,926.0,1.4619756,-2.1553087,-1.3805073,1.8144225,-2.9869783,11.514504
942,1778415631210,927.0,3.0276155,-1.9149288,-1.1918379,1.2719742,-3.0285172,12.012971
943,1778415631220,928.0,3.6250896,-1.8572425,-1.1370175,0.41309762,-2.9886582,12.342227
944,1778415631230,929.0,4.0636516,-1.7810185,-1.100674,-0.40530908,-3.161533,12.372312
945,1778415631240,930.0,4.239699,-1.7074167,-1.0239623,-0.7779369,-3.5708127,12.22494
946,1778415631250,931.0,4.4125133,-1.5696038,-0.7641909,-0.79473567,-4.1112757,11.714105
947,1778415631260,932.0,4.4125133,-1.5696038,-0.7641909,-0.79473567,-4.1112757,11.714105
948,1778415631270,933.0,4.4125133,-1.5696038,-0.7641909,-0.79473567,-4.1112757,11.714105
949,1778415631280,934.0,4.3106785,-1.1232363,-0.12153149,-0.13408493,-4.6137123,9.282861
950,1778415631290,935.0,4.0518827,-1.0248158,0.018964522,0.08597928,-4.3078218,7.937583
951,1778415631300,936.0,3.749304,-1.0177423,0.030245667,0.31322116,-4.124715,7.1390295
952,1778415631310,937.0,3.421541,-1.0238402,-0.0029879792,0.6889033,-4.054618,6.333909
953,1778415631320,938.0,3.1648188,-1.0348165,0.019452354,1.0801625,-4.065461,5.78917
954,1778415631330,939.0,2.883156,-1.0603667,0.040124293,1.3458889,-4.0320163,5.539479
955,1778415631340,,,,,,,
956,1778415631350,940.0,2.6351538,-1.0815874,0.06451596,1.5809193,-3.886172,5.4185276
957,1778415631360,941.0,2.490633,-1.1112844,0.030184686,1.6905695,-3.6937494,5.4716725
958,1778415631370,942.0,2.490633,-1.1112844,0.030184686,1.6905695,-3.6937494,5.4716725
959,1778415631380,943.0,2.3478198,-1.009693,-0.18098617,1.7009543,-3.5019376,5.667608
960,1778415631390,944.0,2.326904,-0.9458478,-0.19537725,1.2681563,-3.240182,6.0295453
961,1778415631400,945.0,2.294768,-0.8735875,-0.13830076,0.7823657,-2.9636128,6.296646
962,1778415631410,946.0,2.2375696,-0.7256521,-0.04756375,0.24724771,-2.534938,6.639189
963,1778415631420,947.0,2.3907492,-0.50655395,-0.10049367,-0.61941737,-1.9172006,7.3241215
964,1778415631430,948.0,2.3907492,-0.50655395,-0.10049367,-0.61941737,-1.9172006,7.3241215
965,1778415631440,949.0,2.5541735,-0.24641682,-0.09244442,-1.1782063,-1.7573066,7.6358156
966,1778415631450,950.0,2.7434528,0.068479605,-0.010915271,-1.8316795,-1.6029104,7.824878
967,1778415631460,951.0,2.8870587,0.37624148,0.1733028,-2.5670085,-1.3878858,7.922006
968,1778415631470,952.0,3.114267,0.5578984,0.40990198,-2.5670085,-1.3878858,7.922006
969,1778415631480,953.0,3.114267,0.5578984,0.40990198,-2.5670085,-1.3878858,7.922006
970,1778415631490,954.0,3.506729,0.9974972,0.78809476,-4.0431643,0.1928807,7.858323
971,1778415631500,955.0,4.200489,1.308369,0.5248477,-3.4171803,0.33765575,7.168198
972,1778415631510,956.0,4.200489,1.308369,0.5248477,-3.4171803,0.33765575,7.168198
973,1778415631520,957.0,4.8572955,1.5019169,0.3139817,-2.0150917,-1.0680978,6.520834
974,1778415631530,958.0,6.5450163,2.0381677,0.5286894,-0.0012217305,-3.7307067,4.4435863
975,1778415631540,959.0,6.5450163,2.0381677,0.5286894,-0.0012217305,-3.7307067,4.4435863
976,1778415631550,960.0,7.2856693,2.1533575,1.6854032,0.37491855,-2.6123652,0.5187773
977,1778415631560,961.0,7.120233,1.8954766,1.844193,0.1966986,-0.79427755,-1.2669345
978,1778415631570,962.0,7.120233,1.8954766,1.844193,0.1966986,-0.79427755,-1.2669345
979,1778415631580,963.0,7.120233,1.8954766,1.844193,0.1966986,-0.79427755,-1.2669345
980,1778415631590,964.0,6.1899953,0.65509915,0.93133485,0.49602258,2.3918428,-4.6276097
981,1778415631600,965.0,5.13469,-0.37898555,0.442038,1.4883732,2.523637,-5.67616
982,1778415631610,966.0,4.65765,-0.5781435,0.36471638,1.8800905,2.40574,-5.6166005
983,1778415631620,967.0,4.2848234,-0.5529591,0.36502132,1.8338175,2.568841,-5.3699636
984,1778415631630,968.0,3.964012,-0.36800927,0.3626431,1.4625641,3.0329459,-5.0352097
985,1778415631640,969.0,3.6900933,-0.1630583,0.368802,0.86635965,3.6911533,-4.7590985
986,1778415631650,970.0,3.475386,-0.025428312,0.36099666,0.39064834,4.235434,-4.5995097
987,1778415631660,971.0,3.2406769,0.0775655,0.35343525,-0.028710667,4.814229,-4.540561
988,1778415631670,972.0,3.2406769,0.0775655,0.35343525,-0.028710667,4.814229,-4.540561
989,1778415631680,973.0,3.2406769,0.0775655,0.35343525,-0.028710667,4.814229,-4.540561
990,1778415631690,974.0,2.8288846,-0.09707884,0.3521547,0.3098614,5.540548,-5.4385333
991,1778415631700,975.0,2.830531,-0.35355723,0.3094083,0.88407475,5.426316,-5.933945
992,1778415631710,976.0,2.8029685,-0.5606425,0.336544,1.5975653,5.2328243,-6.5322876
993,1778415631720,977.0,2.7908945,-0.7998637,0.36428955,2.5254695,5.129894,-7.3285503
994,1778415631730,978.0,2.771564,-1.0656109,0.3144086,3.061351,5.1424165,-7.853894
995,1778415631740,979.0,2.7636979,-1.2642201,0.20421924,3.5756998,5.114164,-8.453764
996,1778415631750,980.0,2.7864432,-1.519052,0.0052442085,3.876398,4.966487,-8.866861
997,1778415631760,981.0,2.792541,-1.6850983,-0.15476513,4.116468,4.604397,-9.26988
998,1778415631770,982.0,2.792541,-1.6850983,-0.15476513,4.116468,4.604397,-9.26988
999,1778415631780,983.0,2.792541,-1.6850983,-0.15476513,4.116468,4.604397,-9.26988
1000,1778415631790,984.0,2.7440624,-1.8930982,-0.38051,3.5266778,3.5172093,-9.5078125
1001,1778415631800,985.0,2.7440624,-1.8930982,-0.38051,3.5266778,3.5172093,-9.5078125
1002,1778415631810,986.0,2.6063106,-1.8827319,-0.34941062,2.1427627,3.4513886,-8.836929
1003,1778415631820,987.0,2.5132563,-1.811508,-0.3664848,1.3574953,3.7658315,-8.336783
1004,1778415631830,988.0,2.3897736,-1.6921718,-0.44264776,0.5830709,4.107916,-7.8537416
1005,1778415631840,989.0,2.221715,-1.5460658,-0.57228947,-0.07391469,4.3346996,-7.454083
1006,1778415631850,990.0,2.0772555,-1.4300835,-0.6493062,-0.4437936,4.3295074,-7.199505
1007,1778415631860,991.0,1.9323689,-1.3048322,-0.72052985,-0.68493265,4.163352,-6.9466066
1008,1778415631870,992.0,1.7987026,-1.194216,-0.7877899,-0.7153232,3.796833,-6.7375383
1009,1778415631880,993.0,1.7987026,-1.194216,-0.7877899,-0.7153232,3.796833,-6.7375383
1010,1778415631890,994.0,1.6791223,-1.0680501,-0.8698678,-0.46502116,3.0117183,-6.487847
1011,1778415631900,995.0,1.6790004,-1.0115834,-0.9129801,-0.2489276,2.2337816,-6.2538857
1012,1778415631910,996.0,1.6609507,-0.91590714,-0.8590135,-0.29932398,1.7528778,-6.1537037
1013,1778415631920,997.0,1.5713111,-0.8474884,-0.79242426,-0.50625455,1.5010486,-6.0988784
1014,1778415631930,998.0,1.4311811,-0.7888265,-0.76797163,-0.68875057,1.402852,-6.0854397
1015,1778415631940,999.0,1.220376,-0.74278724,-0.7513853,-0.622319,1.260215,-6.0251164
