id,timestamp,id,acc_x,acc_y,acc_z,gyro_x,gyro_y,gyro_z
0,1778415645970,0.0,-0.07268717,0.4230125,0.6775395,-0.84467393,-0.12293663,-1.5980235
1,1778415645980,1.0,-0.010793312,0.3901447,0.60259616,-0.9274462,-0.06582073,-1.6620116
2,1778415645990,2.0,0.07969977,0.4101459,0.64442784,-0.9592112,0.015118915,-1.73501
3,1778415646000,3.0,0.18129106,0.43545225,0.67747855,-0.9456194,0.21273382,-1.8217529
4,1778415646010,4.0,0.19799936,0.4561242,0.51679844,-0.9457721,0.39599338,-1.9462167
5,1778415646020,5.0,0.23019636,0.48917487,0.24745347,-1.0725267,-0.10140363,-1.9506454
6,1778415646030,6.0,0.3963646,0.42179292,0.26330805,-1.2363913,-0.8324566,-1.7762434
7,1778415646040,7.0,0.465393,0.52545744,0.45844138,-1.4385877,-1.3800973,-1.6588045
8,1778415646050,8.0,0.56045955,0.59180284,0.5286894,-1.5682437,-1.6664404,-1.6029104
9,1778415646060,9.0,0.7000409,0.7273595,0.5944859,-1.5392277,-2.162463,-1.6846136
10,1778415646070,10.0,0.86102587,0.7810212,0.6826008,-1.2406673,-2.5318837,-1.9414824
11,1778415646080,11.0,0.8088277,0.9997535,0.8551108,-0.5702427,-2.789058,-2.4452937
12,1778415646090,12.0,0.92517596,1.039207,0.90358925,0.2910773,-3.2473598,-3.022256
13,1778415646100,13.0,1.0060343,1.1130528,1.0473173,1.5488489,-4.115552,-3.6210566
14,1778415646110,14.0,1.250073,1.2878191,1.0404875,2.574186,-5.7457986,-3.73651
15,1778415646120,15.0,1.2247056,1.4406939,1.6885741,3.232088,-7.0205216,-3.311806
16,1778415646130,16.0,1.1375664,1.5710063,2.010605,3.769955,-6.888422,-3.452763
17,1778415646140,17.0,0.91444355,1.7867507,2.303976,4.0613375,-7.1616316,-4.3664646
18,1778415646150,18.0,0.9185292,1.8652308,2.5792968,3.9939897,-7.4533195,-4.7418413
19,1778415646160,19.0,1.2123269,1.5247232,3.0515807,3.7548358,-8.153982,-4.9582405
20,1778415646170,20.0,1.3798976,1.229279,3.3265967,3.71177,-8.426275,-4.73558
21,1778415646180,21.0,1.3956913,1.1801298,3.6454568,3.8579195,-8.3509865,-4.3576074
22,1778415646190,22.0,1.2944658,1.4063016,3.847298,4.321261,-8.210945,-3.7148242
23,1778415646200,23.0,1.3698361,1.8188256,4.464285,4.5604143,-8.025242,-3.5651622
24,1778415646210,,,,,,,
25,1778415646220,24.0,1.5202717,1.9066355,4.575084,4.2992697,-6.616434,-3.8186715
26,1778415646230,25.0,1.6309489,1.7173562,4.0231614,3.8736491,-5.1631856,-3.813479
27,1778415646240,26.0,1.490087,2.1797004,3.852603,3.3130276,-4.672814,-3.7398698
28,1778415646250,27.0,1.6105208,2.0662792,3.7239368,3.0808988,-4.0709586,-3.7722456
29,1778415646260,28.0,1.4852085,2.028716,3.9012032,2.6406178,-3.1230485,-4.212985
30,1778415646270,29.0,1.2778794,1.9797497,3.7140584,2.3808472,-1.9989038,-4.512156
31,1778415646280,30.0,1.229523,1.513259,3.1688435,2.0546453,-0.9443977,-5.004208
32,1778415646290,31.0,0.95719004,1.5579567,2.7215612,2.041359,-0.60903263,-5.190675
33,1778415646300,32.0,0.7017483,1.2253764,2.3110495,2.3134995,-0.559858,-5.301089
34,1778415646310,33.0,0.63442725,0.6358298,1.6440594,3.7105482,-1.4482088,-5.9159245
35,1778415646320,34.0,0.8318778,0.3460568,1.5827752,4.5362854,-1.7857119,-6.372546
36,1778415646330,35.0,0.8318778,0.3460568,1.5827752,4.5362854,-1.7857119,-6.372546
37,1778415646340,36.0,1.0998813,0.015915563,1.6168627,4.8149924,-2.1481075,-7.28243
38,1778415646350,37.0,1.3090397,-0.28446782,1.6504622,4.5497246,-1.7356209,-7.974235
39,1778415646360,38.0,1.4306931,-0.53283596,1.5352725,4.5497246,-1.7356209,-7.974235
40,1778415646370,39.0,1.4306931,-0.53283596,1.5352725,4.0989056,-1.4149166,-8.476977
41,1778415646380,40.0,1.5138078,-0.9956069,1.2234861,3.7716348,-1.125061,-8.861211
42,1778415646390,41.0,1.5138078,-0.9956069,1.2234861,3.7716348,-1.125061,-8.861211
43,1778415646400,42.0,1.4495358,-1.1207361,1.0240841,3.83883,-1.1734722,-8.669858
44,1778415646410,43.0,1.2386088,-1.1598847,0.6121089,3.8001926,-1.398576,-7.9087195
45,1778415646420,44.0,1.2744036,-1.5290526,-0.0011586042,3.8001926,-1.398576,-7.9087195
46,1778415646430,45.0,1.0491467,-0.85181797,0.51856685,3.556152,-2.4642303,-6.4481406
47,1778415646440,46.0,0.89395463,-0.7748623,0.18836464,3.0289752,-3.117398,-6.3801823
48,1778415646450,47.0,1.021401,-0.9140168,0.102140106,2.2510383,-3.8585303,-6.2253275
49,1778415646460,48.0,1.01884,-0.9528605,0.18751094,1.7234036,-4.007581,-5.784894
50,1778415646470,49.0,0.9209074,-0.8761487,0.24873403,1.1520919,-3.8835757,-5.3566775
51,1778415646480,50.0,0.9209074,-0.8761487,0.24873403,1.1520919,-3.8835757,-5.3566775
52,1778415646490,51.0,0.9205415,-0.77285,0.2300744,0.6646214,-3.4490979,-4.9828277
53,1778415646500,52.0,0.9205415,-0.77285,0.2300744,0.6646214,-3.4490979,-4.9828277
54,1778415646510,53.0,0.8441956,-0.9065163,0.14122775,0.4288274,-2.182469,-4.6799912
55,1778415646520,54.0,0.72754246,-1.0586593,-0.19214535,0.27931812,-1.8813123,-4.399146
56,1778415646530,55.0,0.62540233,-1.2592199,-0.34081256,0.15515977,-1.9613355,-4.0187297
57,1778415646540,56.0,0.4438674,-1.45478,-0.4732593,-0.03283401,-2.185523,-3.2867606
58,1778415646550,57.0,0.19043794,-1.3852638,-0.41484126,-0.018478673,-2.5761714,-2.4663684
59,1778415646560,58.0,0.19043794,-1.3852638,-0.41484126,-0.018478673,-2.5761714,-2.4663684
60,1778415646570,59.0,-0.3204455,-1.2747695,-0.207817,0.07452556,-2.3667974,-2.2626448
61,1778415646580,60.0,-0.48380873,-1.4564874,-0.23287943,-0.020158553,-2.1587977,-2.383749
62,1778415646590,61.0,-0.8368171,-2.0113978,-0.4864918,-0.28817567,-1.9402608,-2.395508
63,1778415646600,62.0,-0.8368171,-2.0113978,-0.4864918,-0.28817567,-1.9402608,-2.395508
64,1778415646610,63.0,-1.8200452,-2.754246,-0.4024625,-0.51266867,-2.6745207,-1.5952746
65,1778415646620,64.0,-2.1379905,-2.985357,-0.07445556,-0.5664248,-2.8368583,-1.0542006
66,1778415646630,65.0,-2.5205128,-3.2210417,0.39392543,-0.45204028,-2.6503916,-0.51923543
67,1778415646640,66.0,-2.7742472,-3.4235535,0.68747914,-0.057268616,-2.196366,0.23243423
68,1778415646650,67.0,-2.9131577,-3.582221,0.7482754,0.6293439,-1.7704402,1.0839803
69,1778415646660,68.0,-2.970417,-3.6226501,0.72540814,1.3932309,-1.5222762,1.8671097
70,1778415646670,69.0,-2.9348054,-3.6382608,0.7302255,1.7889189,-1.3927728,2.4297166
71,1778415646680,70.0,-2.8816926,-3.4883134,0.93340814,1.8336648,-1.069625,3.0734158
72,1778415646690,71.0,-2.8027854,-3.403918,0.99005777,1.7938058,-0.70264775,3.4854443
73,1778415646700,72.0,-2.8027854,-3.403918,0.99005777,1.7938058,-0.70264775,3.4854443
74,1778415646710,73.0,-2.1711023,-3.5409994,0.6868694,3.349374,-0.46578476,4.854088
75,1778415646720,74.0,-1.758944,-3.5845993,0.48521125,4.7707047,-0.70356405,5.9270725
76,1778415646730,75.0,-1.1259193,-3.4963624,0.251722,5.836054,-0.72356987,6.807177
77,1778415646740,76.0,-0.33636108,-3.3134248,-0.3579477,7.051981,-0.5357288,7.8413715
78,1778415646750,77.0,0.5815583,-3.1851249,-1.1905572,8.067086,-0.41920626,8.714756
79,1778415646760,78.0,1.3281263,-3.1158526,-1.8582791,8.6006775,-0.6087272,9.426109
80,1778415646770,79.0,2.1998234,-3.0233471,-2.3047075,8.511338,-0.84329945,9.842719
81,1778415646780,80.0,2.1998234,-3.0233471,-2.3047075,8.511338,-0.84329945,9.842719
82,1778415646790,81.0,3.3453171,-3.052617,-2.3637965,7.2610497,-0.26343563,10.636844
83,1778415646800,82.0,3.8330896,-2.9618192,-2.6001518,6.4559293,0.5830709,11.398593
84,1778415646810,,,,,,,
85,1778415646820,83.0,4.2084165,-2.8991935,-2.798456,5.564677,1.0451905,12.009
86,1778415646830,84.0,4.551424,-2.5375872,-2.6910107,3.4110715,1.4069754,12.493568
87,1778415646840,85.0,4.902847,-2.2556195,-2.4517894,1.1293371,1.5858061,12.388194
88,1778415646850,86.0,5.0634055,-2.0142028,-2.0612788,-0.6252206,1.8364136,12.073446
89,1778415646860,87.0,4.852722,-1.7258934,-1.7494314,-2.7605,2.005776,11.347433
90,1778415646870,88.0,3.8355896,-1.5325894,-1.0093882,-4.192063,1.907274,10.543076
91,1778415646880,89.0,3.8355896,-1.5325894,-1.0093882,-5.1520376,1.3573426,9.48017
92,1778415646890,90.0,3.5276449,-1.6178383,-0.8641968,-5.14318,0.5152648,8.789893
93,1778415646900,91.0,3.158721,-1.7693106,-0.71260256,-4.5178065,-0.57986385,8.281652
94,1778415646910,92.0,3.0043216,-1.8746825,-0.5600937,-2.8342621,-2.1595614,7.736303
95,1778415646920,93.0,2.9603555,-1.8945009,-0.48344287,-1.406059,-3.2096386,7.294647
96,1778415646930,94.0,2.9962115,-1.9577361,-0.4131339,-0.35033122,-3.8330266,6.8439813
97,1778415646940,95.0,3.0131028,-1.9826157,-0.43350092,0.24220806,-4.1378484,6.5915413
98,1778415646950,96.0,3.0668862,-2.0310333,-0.4674663,0.81290895,-4.44603,6.463107
99,1778415646960,97.0,3.13189,-1.9745055,-0.46020976,1.351234,-4.602106,6.6446867
100,1778415646970,98.0,3.3531833,-1.6767441,-0.40057215,2.084883,-4.390136,7.2260776
101,1778415646980,99.0,3.3531833,-1.6767441,-0.40057215,2.084883,-4.390136,7.2260776
102,1778415646990,100.0,3.6049054,-1.5010632,-0.42642733,2.2687535,-3.8542542,7.5958037
103,1778415647000,101.0,3.7525363,-1.3078202,-0.50887114,2.205529,-3.462995,7.83679
104,1778415647010,102.0,4.0113926,-0.85194,-0.58753425,1.3252722,-2.8189905,8.101142
105,1778415647020,103.0,4.10152,-0.3261166,-0.35508168,-0.15027285,-2.2017112,8.302728
106,1778415647030,104.0,3.9974895,0.3996575,0.12299499,-3.6798522,-0.44684792,8.547532
107,1778415647040,105.0,4.148169,0.9474943,0.9071261,-5.0756793,0.5183192,8.501717
108,1778415647050,106.0,4.6180744,1.1828738,1.0820143,-5.02681,0.83062404,9.087842
109,1778415647060,107.0,4.6180744,1.1828738,1.0820143,-5.02681,0.83062404,9.087842
110,1778415647070,108.0,6.6078243,2.6122866,1.8009588,-2.3306036,-0.05955936,9.189094
111,1778415647080,109.0,7.3863454,3.2511044,1.7557733,-2.3306036,-0.05955936,9.189094
112,1778415647090,110.0,7.3863454,3.2511044,1.7557733,-0.946383,0.20479257,7.1115403
113,1778415647100,111.0,7.7703924,3.1192672,1.5391142,-0.36147952,0.057421334,5.024061
114,1778415647110,112.0,7.6984982,2.979747,1.1890328,0.733191,-0.48181996,0.64553183
115,1778415647120,113.0,7.0007133,2.0798774,0.85755,2.346639,-1.8081611,-4.409989
116,1778415647130,114.0,6.015168,-0.07744354,0.7268107,3.5598173,-2.869692,-6.820616
117,1778415647140,115.0,5.71326,-0.84212226,0.6308905,4.766429,-3.0213394,-7.968737
118,1778415647150,116.0,5.4435496,-1.6963794,0.3889861,4.7080913,-2.2562308,-7.7221003
119,1778415647160,117.0,5.174509,-2.1767733,0.13067836,3.9422188,-1.3049608,-6.975165
120,1778415647170,118.0,4.8018045,-2.1098793,0.050429773,2.6511552,-0.29779682,-5.8986673
121,1778415647180,119.0,4.408611,-1.5946661,0.14171559,1.111622,1.0436633,-4.755586
122,1778415647190,120.0,4.16506,-1.1903133,0.18690115,-0.14737125,2.417194,-4.0900483
123,1778415647200,121.0,4.16506,-1.1903133,0.18690115,-0.14737125,2.417194,-4.0900483
124,1778415647210,122.0,3.741133,-0.26123476,0.024818521,-2.6762006,5.561012,-3.574478
125,1778415647220,123.0,3.6254554,-0.075126335,-0.073175006,-3.126561,6.2015038,-3.615406
126,1778415647230,124.0,3.4398959,0.12494631,-0.033294626,-3.2145257,6.5408397,-3.7511706
127,1778415647240,125.0,3.3140347,0.2154394,0.085309856,-2.8944323,6.5968866,-4.0527854
128,1778415647250,126.0,3.225554,0.19531627,0.23019636,-2.4194846,6.524194,-4.4248023
129,1778415647260,127.0,3.2095776,0.045002624,0.38587618,-1.5577064,6.3951483,-5.0416236
130,1778415647270,128.0,3.2481165,-0.20489,0.49569967,-0.45570546,6.2719064,-5.763819
131,1778415647280,129.0,3.2825694,-0.49929744,0.49344343,0.83108217,6.207918,-6.5978026
132,1778415647290,130.0,3.3103151,-0.7163833,0.39496207,1.668273,6.112776,-7.1373496
133,1778415647300,131.0,3.3103151,-0.7163833,0.39496207,3.0433307,5.75038,-8.070599
134,1778415647310,132.0,3.363184,-1.1107966,0.14513041,4.327064,5.124396,-9.024007
135,1778415647320,133.0,3.4003813,-1.8102275,-0.35325232,5.4867916,4.0057487,-10.067517
136,1778415647330,134.0,3.358062,-2.0337772,-0.5200913,5.989534,3.0776918,-10.673495
137,1778415647340,135.0,3.3211083,-2.2030554,-0.614731,6.290232,1.9384282,-11.243433
138,1778415647350,136.0,3.2628124,-2.2854383,-0.6427204,6.179513,1.1128438,-11.517559
139,1778415647360,137.0,3.1365855,-2.3170254,-0.6265,5.597511,0.3585779,-11.658516
140,1778415647370,138.0,2.9552333,-2.2879384,-0.5520444,4.637231,-0.018478673,-11.505036
141,1778415647380,139.0,2.830653,-2.3970912,-0.57039917,3.3264668,-0.0015271631,-11.102781
142,1778415647390,140.0,2.7261956,-2.312635,-0.54375124,2.3761132,0.14844026,-10.760239
143,1778415647400,141.0,2.5887485,-2.1189651,-0.51813996,0.8428413,0.731053,-10.115012
144,1778415647410,142.0,2.464717,-1.9896892,-0.5262502,-0.5859725,1.527774,-9.470702
145,1778415647420,143.0,2.311659,-1.846876,-0.582473,-1.7669277,2.4330764,-8.844413
146,1778415647430,144.0,2.168724,-1.7429066,-0.8243164,-2.552653,3.0731103,-8.3462515
147,1778415647440,145.0,2.0663402,-1.7227224,-1.018596,-2.9405525,3.0294335,-7.920326
148,1778415647450,146.0,1.9812131,-1.7351623,-1.1602507,-2.961322,2.607631,-7.57198
149,1778415647460,147.0,1.9081601,-1.6629629,-1.174032,-2.7546968,1.7948748,-7.164075
150,1778415647470,148.0,1.8958422,-1.5628351,-1.0617692,-2.6195428,1.0343475,-6.793432
151,1778415647480,,,,,,,
152,1778415647490,149.0,1.9352958,-1.5380166,-0.8052299,-2.7249172,0.70463306,-6.3363523
153,1778415647500,150.0,1.8893176,-1.4949653,-0.5022244,-2.9756773,0.9558514,-5.8417044
154,1778415647510,151.0,1.7693716,-1.3311752,-0.29849303,-3.310126,1.6055065,-5.340642
155,1778415647520,152.0,1.5684452,-1.2305597,-0.27788207,-3.6601517,2.8160887,-4.9021935
156,1778415647530,153.0,1.1950698,-1.1748246,-0.5716187,-3.6858082,3.7485745,-4.7378707
157,1778415647540,154.0,0.7806553,-1.1550674,-0.8610868,-3.1977267,4.001473,-5.2036557
158,1778415647550,155.0,0.10671354,-1.4292297,-1.2679398,-2.3703098,3.748269,-6.145915
159,1778415647560,156.0,-0.69150376,-2.034509,-1.8037027,-0.8323039,2.5248587,-7.630165
160,1778415647570,157.0,-1.4202049,-3.035421,-1.9573703,-0.8323039,2.5248587,-7.630165
161,1778415647580,158.0,-2.0278623,-3.7734518,-1.7322961,1.8446603,-0.95264435,-8.053647
162,1778415647590,159.0,-2.722049,-4.6760654,-1.2270838,1.9084958,-1.6073391,-6.370408
163,1778415647600,160.0,-3.2263467,-5.053892,-0.95249456,1.2087497,-1.2881621,-4.7221413
164,1778415647610,161.0,-3.688081,-5.314761,-0.7059558,0.35185838,-0.6630942,-3.0644054
165,1778415647620,162.0,-3.9912083,-5.157862,-0.8477934,-0.38927388,0.07727446,-1.0676397
166,1778415647630,163.0,-3.9698658,-4.8544297,-0.7130294,0.65011334,-0.377362,1.8590157
167,1778415647640,164.0,-3.7726593,-4.6312456,-0.66205084,0.65011334,-0.377362,1.8590157
168,1778415647650,165.0,-3.415504,-4.5093484,-0.73077434,4.021326,-1.5396858,3.6380079
169,1778415647660,166.0,-3.415504,-4.5093484,-0.73077434,4.021326,-1.5396858,3.6380079
170,1778415647670,167.0,-1.9199902,-4.408794,-0.5667404,6.3551364,-1.92392,7.256621
171,1778415647680,168.0,-1.9199902,-4.408794,-0.5667404,6.041152,-0.9976957,9.54309
172,1778415647690,169.0,0.2909316,-3.8559568,-0.86389184,5.599344,-0.39538252,10.735193
173,1778415647700,170.0,0.2909316,-3.8559568,-0.86389184,5.599344,-0.39538252,10.735193
174,1778415647710,171.0,1.5385653,-3.3269017,-1.2633665,4.7290134,0.36957347,12.182791
175,1778415647720,172.0,3.4537382,-2.4245927,-1.6767441,3.787212,0.18325958,13.094966
176,1778415647730,173.0,3.9002886,-2.2284229,-1.6519256,3.637397,-0.22968534,12.911095
177,1778415647740,174.0,4.3263497,-2.1324415,-1.4979533,3.6176968,-0.42378777,12.759295
178,1778415647750,175.0,4.6465516,-2.1081717,-1.4263027,3.5424075,-0.38362336,12.727072
179,1778415647760,176.0,4.8030243,-1.8928542,-1.4131312,3.1644347,-0.3538437,12.640329
180,1778415647770,177.0,4.8551,-1.6147894,-1.2700131,2.4013114,-0.28344148,12.213639
181,1778415647780,178.0,4.8286963,-1.4603901,-1.0840876,1.4750868,-0.031306844,11.643397
182,1778415647790,179.0,4.7378373,-1.3830684,-0.968898,0.41523564,0.32406402,10.981524
183,1778415647800,180.0,4.352083,-1.235072,-0.71150494,0.41523564,0.32406402,10.981524
184,1778415647810,181.0,3.9771833,-1.2019604,-0.64412296,-1.8794796,0.6785186,9.234603
185,1778415647820,182.0,3.621248,-1.3175159,-0.5336287,-2.5951083,0.37216964,8.452237
186,1778415647830,183.0,3.3836122,-1.4380107,-0.4483798,-2.9283352,-0.049480084,8.007069
187,1778415647840,184.0,3.078838,-1.4774643,-0.28501663,-3.0949488,-0.7133379,7.623598
188,1778415647850,185.0,2.857118,-1.5411875,-0.067321,-3.0691397,-1.2840388,7.3801684
189,1778415647860,186.0,2.6863153,-1.6016788,0.096651986,-2.9061913,-1.6105462,7.2459307
190,1778415647870,187.0,2.5945415,-1.6039351,0.15147226,-2.7533224,-1.7163786,7.19416
191,1778415647880,188.0,2.4525821,-1.6408274,0.15080148,-2.3790147,-1.8727602,7.1106243
192,1778415647890,189.0,2.390932,-1.6530842,0.10732334,-2.1578815,-1.9764545,7.0764155
193,1778415647900,190.0,2.3253186,-1.664975,-0.02859923,-1.6484199,-2.3241894,7.0365567
194,1778415647910,191.0,2.3554423,-1.6364979,-0.15147226,-1.0940597,-2.762638,7.047552
195,1778415647920,192.0,2.4747174,-1.5973493,-0.2771503,-0.47067168,-3.2798882,7.096727
196,1778415647930,193.0,2.6056397,-1.5196009,-0.3456909,0.12797627,-3.787212,7.20989
197,1778415647940,194.0,2.8643744,-1.4063016,-0.39551088,0.48075095,-4.1231875,7.3919277
198,1778415647950,195.0,3.202382,-1.2280595,-0.34191018,0.5899431,-4.3962445,7.7905173
199,1778415647960,196.0,3.4767275,-0.9784107,-0.17568098,0.27046058,-4.213443,8.247903
200,1778415647970,197.0,3.819613,-0.5069198,0.03378246,-0.52106804,-3.393662,8.562956
201,1778415647980,198.0,4.088836,-0.07360186,0.16293633,-1.5241088,-2.3846653,8.598997
202,1778415647990,199.0,4.400135,0.42752492,0.3032494,-3.180928,-0.9586003,8.268825
203,1778415648000,200.0,4.5995975,0.5986935,0.43325698,-4.4851255,0.110872045,7.8711514
204,1778415648010,201.0,5.016817,0.9481041,0.5633865,-5.379432,1.0552697,7.7750926
205,1778415648020,202.0,5.6224623,1.6630849,0.78199685,-5.336366,1.3264939,7.92674
206,1778415648030,203.0,6.5436745,2.2199466,1.0111566,-4.653877,1.4697418,7.545713
207,1778415648040,204.0,7.3734183,2.6115549,0.97792286,-3.9672644,1.518611,5.937305
208,1778415648050,205.0,7.850214,2.6458251,0.9885943,-3.7316232,1.1850786,3.9767327
209,1778415648060,206.0,8.094801,2.5481975,1.2820871,-3.406948,0.96867955,0.77839506
210,1778415648070,207.0,8.032298,1.9796886,1.3927642,-2.8677068,1.0409144,-2.0056233
211,1778415648080,208.0,7.61581,0.90523577,1.4017282,-1.4705054,1.3759739,-5.148983
212,1778415648090,209.0,7.0887065,0.23165986,1.1302489,0.26435193,1.3900238,-7.0774846
213,1778415648100,210.0,6.1156006,-0.56637454,0.73815286,1.4943291,0.84879726,-7.867639
214,1778415648110,211.0,5.515078,-1.1462253,0.59649825,2.564107,0.09758572,-8.180402
215,1778415648120,212.0,5.005658,-1.3430662,0.6633314,2.8582385,-0.18616119,-7.948884
216,1778415648130,213.0,4.6724067,-1.2841604,0.7561417,2.6141977,0.14095716,-7.5544176
217,1778415648140,214.0,4.322325,-1.0410364,0.8099863,1.8632917,1.2005029,-6.9580607
218,1778415648150,215.0,3.992672,-0.71528566,0.749434,0.7360926,2.6951375,-6.4085875
219,1778415648160,,,,,,,
220,1778415648170,216.0,3.7971728,-0.45947802,0.6401593,-0.5392413,4.243681,-6.013052
221,1778415648180,217.0,3.6040518,-0.23934323,0.44057447,-1.4312572,5.2290063,-5.904776
222,1778415648190,218.0,3.4323347,-0.19074284,0.30568856,-2.166739,6.061616,-5.946468
223,1778415648200,219.0,3.277996,-0.23312336,0.2622714,-2.4220808,6.460969,-5.9982386
224,1778415648210,220.0,3.1344512,-0.32075045,0.25800288,-2.3397665,6.70898,-6.0269494
225,1778415648220,221.0,2.9237683,-0.3795953,0.24989262,-1.6771306,6.8633766,-6.0982676
226,1778415648230,222.0,2.8520567,-0.71077317,0.11110405,-0.8078693,6.8140492,-6.2378507
227,1778415648240,223.0,2.8520567,-0.71077317,0.11110405,0.014813482,6.6587367,-6.3723936
228,1778415648250,224.0,2.920963,-0.90169895,-0.054393414,1.082606,6.354831,-6.651559
229,1778415648260,225.0,3.0337136,-1.0259744,-0.2423312,2.0236437,5.8610992,-7.1229944
230,1778415648270,226.0,3.1839664,-1.2449507,-0.4877114,2.7288878,5.222745,-7.679034
231,1778415648280,227.0,3.2291517,-1.3358096,-0.5719236,3.1086931,4.7030516,-8.082511
232,1778415648290,228.0,3.2601902,-1.4524628,-0.646745,3.3812919,4.161214,-8.536384
233,1778415648300,229.0,3.2650685,-1.560274,-0.68357646,3.4293976,3.9159517,-8.789282
234,1778415648310,230.0,3.246348,-1.7538217,-0.7431531,3.3087516,3.6380079,-9.057605
235,1778415648320,231.0,3.0255425,-1.9071234,-0.9529824,2.4640777,3.1323643,-8.916494
236,1778415648330,232.0,3.0255425,-1.9071234,-0.9529824,2.4640777,3.1323643,-8.916494
237,1778415648340,233.0,2.7298543,-1.7166854,-0.8990769,1.5957327,2.8247936,-8.587696
238,1778415648350,234.0,2.6386294,-1.6570479,-0.8509033,0.025198191,2.8962648,-7.9783583
239,1778415648360,235.0,2.5433192,-1.6238143,-0.82693845,-0.62995476,3.1520646,-7.53823
240,1778415648370,236.0,2.4492283,-1.548749,-0.8610868,-0.9246973,3.2731688,-7.234172
241,1778415648380,237.0,2.3222086,-1.4128263,-0.9587145,-1.287704,3.3211217,-6.6859202
242,1778415648390,238.0,2.3222086,-1.4128263,-0.9587145,-1.287704,3.3211217,-6.6859202
243,1778415648400,239.0,2.1932378,-1.2008018,-1.0066441,-1.4462235,3.165351,-6.4386725
244,1778415648410,240.0,2.1390884,-1.1176262,-0.869319,-1.5761851,2.9200885,-6.3056564
245,1778415648420,241.0,2.057437,-1.0457318,-0.772606,-1.6614008,2.6890287,-5.9600596
246,1778415648430,242.0,2.0271304,-1.0690868,-0.77967966,-1.6172657,2.7130053,-5.806274
247,1778415648440,243.0,2.0271304,-1.0690868,-0.77967966,-1.6172657,2.7130053,-5.806274
248,1778415648450,244.0,1.8934642,-1.3007466,-0.88139284,-1.2608259,2.7437012,-5.4733524
249,1778415648460,245.0,1.4566704,-1.2146441,-0.6652827,-1.2299771,2.8231137,-5.5994964
250,1778415648470,246.0,1.0210961,-1.2350111,-0.5365557,-1.1760683,3.2279646,-6.0203824
251,1778415648480,247.0,0.47472283,-1.2661104,-0.7050411,-0.80557853,3.5983016,-6.793127
252,1778415648490,248.0,-0.45258737,-1.7169294,-1.5603349,0.6601926,3.0567696,-8.272032
253,1778415648500,249.0,-0.45258737,-1.7169294,-1.5603349,0.6601926,3.0567696,-8.272032
254,1778415648510,250.0,-1.6038741,-2.7951632,-2.300622,2.8087585,-0.43600506,-9.243307
255,1778415648520,251.0,-2.177261,-3.6928983,-1.9880428,2.6665795,-1.9935588,-9.197645
256,1778415648530,252.0,-2.6618626,-4.461297,-1.5331383,1.2257011,-2.2773056,-8.394358
257,1778415648540,253.0,-3.0173712,-5.000048,-1.2692814,-0.3136793,-1.6980526,-7.272045
258,1778415648550,254.0,-3.5141075,-5.3407993,-1.238121,-2.0555615,-0.9644035,-5.5025215
259,1778415648560,255.0,-3.7894893,-5.436049,-1.19757,-2.732553,-0.89843005,-3.4901786
260,1778415648570,256.0,-3.8802264,-5.3466535,-0.89279604,-2.5841126,-1.4619533,-1.4063646
261,1778415648580,257.0,-3.6055152,-5.213109,-0.535641,-2.072513,-1.8319849,0.47708577
262,1778415648590,258.0,-3.1157916,-5.069808,-0.3418492,-1.4421002,-2.0254765,2.1357377
263,1778415648600,259.0,-2.7506483,-4.940349,-0.28751677,-1.0364856,-2.097253,3.186273
264,1778415648610,260.0,-2.7506483,-4.940349,-0.28751677,-1.0364856,-2.097253,3.186273
265,1778415648620,261.0,-1.3533107,-4.027552,-0.29587093,0.053297993,-1.971873,6.5672593
266,1778415648630,262.0,-0.7157125,-3.2611048,-0.67595404,1.0346531,-2.0613647,7.5948877
267,1778415648640,263.0,-0.074577525,-2.7882724,-0.9059065,2.3214407,-2.4985917,8.421999
268,1778415648650,264.0,0.8387685,-2.380078,-1.1720196,3.247207,-2.7893634,8.863655
269,1778415648660,265.0,1.7658958,-2.1288435,-1.4251441,4.086536,-3.0277536,9.22941
270,1778415648670,266.0,2.5051463,-1.8771827,-1.5490538,4.492303,-3.1180089,9.469938
271,1778415648680,267.0,3.0249326,-1.750773,-1.7458946,4.5871396,-3.2125404,9.668164
272,1778415648690,268.0,3.4444692,-1.6371686,-1.8084593,4.563774,-3.501785,9.92992
273,1778415648700,269.0,3.839858,-1.4990509,-1.5821044,4.3047676,-3.5364516,10.2419195
274,1778415648710,270.0,4.032979,-1.3642259,-1.3394684,3.553556,-3.0896037,10.563387
275,1778415648720,271.0,4.2170143,-1.1686047,-1.1900694,2.6067147,-2.448806,10.609355
276,1778415648730,272.0,4.2370768,-1.056403,-1.1280537,1.8503108,-1.9393444,10.491611
277,1778415648740,273.0,4.176829,-0.97639847,-1.1225046,1.3324498,-1.713477,10.250013
278,1778415648750,274.0,4.031211,-0.9108458,-1.0376825,0.99112886,-1.676825,9.815383
279,1778415648760,275.0,3.8418095,-0.86968493,-1.0240841,0.8333729,-1.7809776,9.384875
280,1778415648770,276.0,3.627102,-0.8608429,-1.0709771,0.7799222,-2.2464569,8.792642
281,1778415648780,,,,,,,
282,1778415648790,277.0,3.4496524,-0.87858784,-0.9841428,0.79152864,-2.8038714,8.347473
283,1778415648800,278.0,3.2926311,-0.97798395,-0.7723012,0.80970186,-3.239571,7.988132
284,1778415648810,279.0,3.158111,-1.1221997,-0.53698254,0.8028296,-3.4203873,7.765319
285,1778415648820,280.0,3.0683496,-1.2339745,-0.4269761,0.7858781,-3.3637295,7.731263
286,1778415648830,281.0,3.0859728,-1.3739216,-0.44130626,0.8019133,-3.291342,7.8413715
287,1778415648840,282.0,3.1135962,-1.3716043,-0.47643024,0.8712466,-3.3315063,8.007069
288,1778415648850,283.0,3.1609771,-1.1606774,-0.54210484,0.957684,-3.3947308,8.080678
289,1778415648860,284.0,3.1609771,-1.1606774,-0.54210484,1.0528263,-3.455512,8.044179
290,1778415648870,285.0,3.2131753,-0.9873137,-0.59881544,1.1808025,-3.5779905,7.9276567
291,1778415648880,286.0,3.2841551,-0.8340121,-0.6933941,1.3190107,-3.7042868,7.7511163
292,1778415648890,287.0,3.4930694,-0.48143053,-0.7658374,1.4245378,-4.1993933,7.6833105
293,1778415648900,288.0,3.4930694,-0.48143053,-0.7658374,1.4245378,-4.1993933,7.6833105
294,1778415648910,289.0,3.659726,-0.14580119,-0.55302006,1.0642799,-4.2479568,7.837401
295,1778415648920,290.0,3.7207658,0.2519659,-0.24574605,0.41447207,-3.7620137,7.954687
296,1778415648930,291.0,3.7602804,0.9094433,0.22293983,-2.4594963,-1.7333301,8.073348
297,1778415648940,292.0,3.7813184,1.1310416,0.41173133,-3.5834882,-1.0374019,7.963239
298,1778415648950,293.0,3.7813184,1.1310416,0.41173133,-3.5834882,-1.0374019,7.963239
299,1778415648960,294.0,4.2346983,1.572287,0.8889543,-4.841871,-0.6036876,7.549531
300,1778415648970,295.0,4.2346983,1.572287,0.8889543,-4.841871,-0.6036876,7.549531
301,1778415648980,296.0,5.710028,2.271901,1.5816166,-3.431841,-1.4011722,8.064033
302,1778415648990,297.0,6.6878905,2.7522337,1.8571815,-2.4917192,-1.4439328,7.4696603
303,1778415649000,298.0,6.6878905,2.7522337,1.8571815,-2.4917192,-1.4439328,7.4696603
304,1778415649010,299.0,7.3693323,2.9225485,1.9796277,-1.9088012,-1.2267702,5.9469256
305,1778415649020,300.0,8.0184555,2.8216891,2.0059707,-1.1876748,-0.91690874,3.1479414
306,1778415649030,301.0,7.7203894,1.8605353,2.1529915,0.5123632,0.2874121,-3.7082574
307,1778415649040,302.0,7.086145,1.0668916,2.0881705,1.1808025,0.829555,-5.715866
308,1778415649050,303.0,6.2059717,0.03237994,1.876329,2.0885482,1.5079209,-7.184997
309,1778415649060,304.0,5.5525804,-0.62753665,1.6390591,2.8542678,2.0404427,-7.46233
310,1778415649070,305.0,4.8088784,-1.2154977,1.2606224,3.1719177,2.5189028,-6.9178963
311,1778415649080,306.0,4.48203,-1.3150768,1.065428,2.9115365,2.9788845,-6.1669903
312,1778415649090,307.0,4.135485,-1.1372005,0.9065772,1.7847955,3.9237401,-4.9895473
313,1778415649100,308.0,3.9909034,-0.9314568,0.86700183,1.3005321,4.306447,-4.631733
314,1778415649110,309.0,3.7644877,-0.53167737,0.84059787,-0.13912456,5.583308,-3.7723982
315,1778415649120,310.0,3.7644877,-0.53167737,0.84059787,-0.13912456,5.583308,-3.7723982
316,1778415649130,311.0,3.4430056,-0.17251006,0.9106629,-1.3136657,7.4604974,-3.2108605
317,1778415649140,312.0,3.3090954,-0.17726645,0.94090855,-1.0792462,7.99363,-3.2418618
318,1778415649150,313.0,3.1920764,-0.25477096,0.8727339,-0.2950479,8.4258175,-3.448487
319,1778415649160,314.0,3.1007297,-0.3778879,0.70065063,0.9045387,8.492707,-3.8654025
320,1778415649170,315.0,3.044202,-0.47069818,0.5671672,1.7666223,8.367327,-4.1996984
321,1778415649180,316.0,2.9716978,-0.64826953,0.21098791,3.5651622,7.7204204,-5.0739994
322,1778415649190,317.0,2.968649,-0.7548611,0.048661377,4.633413,7.095658,-5.858961
323,1778415649200,318.0,2.9626117,-0.91907805,-0.18818171,5.489999,6.4128633,-6.7751064
324,1778415649210,319.0,2.92389,-1.2137903,-0.37794888,6.2906904,5.4637313,-8.153677
325,1778415649220,320.0,2.8770583,-1.4563655,-0.56210595,6.570772,4.699539,-9.180541
326,1778415649230,321.0,2.8192499,-1.703697,-0.6961382,6.5354943,3.8553233,-9.920451
327,1778415649240,322.0,2.7732105,-1.8626697,-0.758215,6.2042527,2.9982793,-10.273226
328,1778415649250,323.0,2.6857054,-1.9284663,-0.7866922,5.6983037,2.350915,-10.2605505
329,1778415649260,324.0,2.5461242,-1.9566387,-0.8010833,4.8123965,1.5935947,-9.971306
330,1778415649270,325.0,2.4952674,-1.929259,-0.7573003,3.7583485,1.0989466,-9.547824
331,1778415649280,326.0,2.406116,-1.7948608,-0.626439,2.801428,0.95233893,-9.079596
332,1778415649290,327.0,2.376663,-1.6601579,-0.54100716,1.4091134,1.0783299,-8.394968
333,1778415649300,328.0,2.364711,-1.4563044,-0.4804549,-0.003970624,1.4323263,-7.741648
334,1778415649310,329.0,2.3617232,-1.3489811,-0.44459912,-0.91324353,1.8234328,-7.3085446
335,1778415649320,330.0,2.414226,-1.1971431,-0.53375065,-1.6986635,2.2908974,-6.9047627
336,1778415649330,331.0,2.4314225,-1.1043937,-0.7221153,-1.9853121,2.3819163,-6.636287
337,1778415649340,332.0,2.3956277,-1.0440853,-0.78315544,-2.0190623,2.1432207,-6.4785314
338,1778415649350,333.0,2.3873346,-1.0151201,-0.70302886,-1.8861991,1.8180877,-6.3346725
339,1778415649360,334.0,2.294585,-1.0065222,-0.5558251,-1.7437148,1.8788688,-6.201351
340,1778415649370,335.0,2.186103,-1.0345726,-0.5041757,-1.752267,2.1781929,-6.0197716
341,1778415649380,336.0,1.9976776,-0.9873137,-0.5786923,-1.9028453,2.6736045,-5.705634
342,1778415649390,337.0,1.762115,-0.8889543,-0.7403481,-2.0938933,3.0967813,-5.537799
343,1778415649400,338.0,1.5668597,-0.78791183,-1.0680501,-2.1142046,3.1680999,-5.661194
344,1778415649410,339.0,1.405143,-0.75809306,-1.2671471,-2.0173824,3.0106494,-5.838497
345,1778415649420,,,,,,,
346,1778415649430,340.0,0.97871566,-0.74821436,-1.6124111,-1.6653714,2.5948029,-6.666067
347,1778415649440,341.0,0.6654047,-1.0768921,-1.826692,-1.4069754,2.3423629,-7.3677983
348,1778415649450,342.0,0.04049017,-1.527955,-2.192323,-1.3498595,2.2380576,-7.783187
349,1778415649460,343.0,-0.77839905,-2.1000614,-2.6921692,-1.5157094,2.0011945,-8.22362
350,1778415649470,344.0,-1.422461,-2.821811,-3.1645749,-1.9352211,1.2967142,-8.264396
351,1778415649480,345.0,-2.2198248,-3.819735,-3.564659,-2.705522,0.027488936,-7.65292
352,1778415649490,346.0,-2.7523556,-4.6495395,-3.3839777,-3.3455563,-0.7286095,-6.9183545
353,1778415649500,347.0,-3.4518478,-5.5103827,-2.7019868,-4.672661,-1.563815,-4.7196975
354,1778415649510,348.0,-3.6479568,-5.7391763,-2.3827,-5.100114,-1.7600555,-3.4310775
355,1778415649520,349.0,-3.799124,-5.8273525,-1.914136,-5.052619,-2.133447,-1.2443326
356,1778415649530,350.0,-3.4206264,-5.154996,-1.1437863,-2.1864395,-3.303254,2.5610526
357,1778415649540,351.0,-3.4206264,-5.154996,-1.1437863,-2.1864395,-3.303254,2.5610526
358,1778415649550,352.0,-2.1683583,-3.91907,-0.71711504,1.2104294,-3.7633882,5.664706
359,1778415649560,353.0,-2.1683583,-3.91907,-0.71711504,1.2104294,-3.7633882,5.664706
360,1778415649570,354.0,-1.3769706,-3.3253767,-0.89249104,3.199712,-3.859294,7.762723
361,1778415649580,355.0,-0.6600385,-2.9281585,-1.1392738,3.199712,-3.859294,7.762723
362,1778415649590,356.0,0.21440275,-2.4452038,-1.3259311,4.046524,-4.1457896,8.552724
363,1778415649600,357.0,0.8218162,-2.0953052,-1.3497739,4.5335364,-4.2749877,8.930697
364,1778415649610,358.0,1.5086247,-1.7916899,-1.3644089,5.07965,-4.1416664,9.238573
365,1778415649620,359.0,2.008349,-1.6524745,-1.4863062,5.2586336,-4.076151,9.386097
366,1778415649630,360.0,3.2033577,-1.408131,-1.9567605,5.4884715,-4.364327,9.9706955
367,1778415649640,361.0,3.2033577,-1.408131,-1.9567605,5.527872,-4.9399147,9.890061
368,1778415649650,362.0,3.9965746,-1.0942101,-1.8648648,5.493053,-5.279861,9.516669
369,1778415649660,363.0,4.157925,-1.0472562,-1.7057093,5.3829446,-5.368742,9.116247
370,1778415649670,364.0,4.1433516,-1.0073758,-1.5258818,5.331021,-5.223814,8.805012
371,1778415649680,365.0,4.042309,-1.0042659,-1.4695979,5.341253,-4.893489,8.416348
372,1778415649690,366.0,4.0195637,-1.0730504,-1.5021608,5.40631,-4.7299294,8.161465
373,1778415649700,367.0,3.974683,-1.2061679,-1.5503343,5.441893,-4.541936,7.9667516
374,1778415649710,368.0,3.8982153,-1.2445848,-1.5235646,5.318804,-4.4135013,7.9583526
375,1778415649720,369.0,3.8982153,-1.2445848,-1.5235646,5.318804,-4.4135013,7.9583526
376,1778415649730,370.0,3.6075885,-1.4348398,-1.4673417,4.0894375,-3.8579195,8.301964
377,1778415649740,371.0,3.5342305,-1.5197837,-1.3108691,3.1858149,-3.7455204,8.734457
378,1778415649750,372.0,3.4786177,-1.5261866,-1.1369566,2.4576635,-3.6293032,9.133505
379,1778415649760,373.0,3.500387,-1.4711834,-0.91511434,1.5855007,-3.4121406,9.608758
380,1778415649770,374.0,3.5106926,-1.3612379,-0.77181333,1.1876748,-3.228881,9.752463
381,1778415649780,375.0,3.5186198,-1.3094057,-0.6753443,0.9317222,-3.0876184,9.793239
382,1778415649790,376.0,3.5149,-1.2025092,-0.597169,0.93431836,-2.919936,9.837374
383,1778415649800,377.0,3.5149,-1.2025092,-0.597169,0.93431836,-2.919936,9.837374
384,1778415649810,378.0,3.5865507,-0.9004184,-0.6265,1.5103643,-2.923143,9.700693
385,1778415649820,379.0,3.732962,-0.5877782,-0.7179687,1.9022343,-2.8771753,9.313863
386,1778415649830,380.0,3.7391818,-0.15415533,-0.8188282,2.007914,-2.8225029,8.56036
387,1778415649840,381.0,3.7441208,0.1621436,-0.83779275,1.8687896,-2.7954721,7.7347755
388,1778415649850,382.0,3.702167,0.39477912,-0.7616908,1.6326901,-2.6279423,7.1927857
389,1778415649860,383.0,3.5774038,0.6959552,-0.6025351,0.96791595,-1.9876028,6.5813093
390,1778415649870,384.0,3.46008,0.92974937,-0.4896627,0.3743077,-1.3646729,6.285956
391,1778415649880,385.0,3.3874538,1.112626,-0.47197875,-0.25366178,-0.75334954,6.0924644
392,1778415649890,386.0,3.4878254,1.3047103,-0.6447328,-1.0600039,-0.28099802,5.9739566
393,1778415649900,387.0,3.5961242,1.4551458,-0.6830276,-1.4494305,-0.35735616,6.006027
394,1778415649910,388.0,4.007124,1.6644872,-0.6542455,-1.6592628,-0.6420194,6.1898975
395,1778415649920,389.0,4.692408,1.9706638,-0.5978397,-1.5435038,-1.0296134,6.7045517
396,1778415649930,390.0,4.692408,1.9706638,-0.5978397,-1.2169963,-1.3435981,7.3946767
397,1778415649940,391.0,6.660084,2.7518678,-0.3661799,-1.2011138,-1.1591167,7.4204855
398,1778415649950,392.0,7.290609,3.035421,-0.15525296,-1.6833919,-0.21120666,6.1920357
399,1778415649960,393.0,7.675265,3.2973876,-0.15391143,-2.2748623,0.9960158,3.5874588
400,1778415649970,394.0,7.808443,2.5406969,-0.45777062,-2.6661212,1.9098701,-0.5477934
401,1778415649980,395.0,7.5208654,1.7614442,-0.51228595,-2.4153612,1.9955441,-3.549127
402,1778415649990,396.0,6.8596683,0.6216216,-0.38770556,-1.4359915,1.6346754,-6.8288627
403,1778415650000,,,,,,,
404,1778415650010,397.0,6.2357907,-0.24812423,-0.22397648,-1.4359915,1.6346754,-6.8288627
405,1778415650020,398.0,5.5228224,-1.04189,0.1030548,-0.118202426,1.3136657,-7.6978183
406,1778415650030,399.0,4.92919,-1.3884957,0.32922652,0.21273382,1.8861991,-6.7056203
407,1778415650040,400.0,4.514166,-1.3192234,0.44709927,-0.07849618,3.0641,-5.344002
408,1778415650050,401.0,4.2460403,-0.9555435,0.3831321,-0.90408057,4.62257,-4.1416664
409,1778415650060,402.0,4.1249967,-0.52350616,0.17525412,-1.9167424,6.100864,-3.523776
410,1778415650070,403.0,4.0146246,-0.23416002,0.029940773,-2.573117,6.8943777,-3.513544
411,1778415650080,404.0,3.828272,-0.042319544,0.09903017,-2.9093986,7.4400334,-3.8629591
412,1778415650090,405.0,3.588258,-0.011159187,0.23495273,-2.573728,7.772191,-4.451986
413,1778415650100,406.0,3.4583726,-0.11958014,0.32026258,-1.8442022,7.8813834,-4.95595
414,1778415650110,407.0,3.343183,-0.27105242,0.34349567,-0.8529206,7.8903937,-5.43441
415,1778415650120,408.0,3.2340302,-0.43636695,0.2373919,0.5708536,7.813577,-6.031225
416,1778415650130,409.0,3.2528117,-0.94243306,-0.31270117,3.2682817,6.9698195,-7.640397
417,1778415650140,410.0,3.2528117,-0.94243306,-0.31270117,4.275751,6.233116,-8.607091
418,1778415650150,411.0,3.3091564,-1.153482,-0.5397876,4.275751,6.233116,-8.607091
419,1778415650160,412.0,3.4272122,-1.6726586,-1.0318285,4.9231157,5.26688,-9.547365
420,1778415650170,413.0,3.4808738,-1.9516383,-1.0892099,4.8649306,3.3670893,-10.853853
421,1778415650180,414.0,3.447762,-2.049022,-1.0481099,4.3730316,2.7800477,-11.058951
422,1778415650190,415.0,3.447762,-2.049022,-1.0481099,4.3730316,2.7800477,-11.058951
423,1778415650200,416.0,3.302022,-2.1334782,-0.9210293,3.4304664,2.4269676,-10.975416
424,1778415650210,417.0,3.1859787,-2.1761024,-0.834256,2.347097,2.4885123,-10.541091
425,1778415650220,418.0,3.023896,-2.1495767,-0.8007175,0.37048978,3.094185,-9.244224
426,1778415650230,419.0,2.728391,-1.8678528,-0.9375548,-0.6375906,3.3134859,-8.525388
427,1778415650240,420.0,2.678266,-1.7932754,-0.9528605,-1.4246905,3.4481816,-7.8468695
428,1778415650250,421.0,2.6155796,-1.6582675,-0.96316594,-1.86207,3.5098789,-7.340615
429,1778415650260,422.0,2.5574055,-1.5411875,-0.9500555,-2.1398609,3.5440874,-6.760293
430,1778415650270,423.0,2.4900844,-1.3988011,-0.9350546,-2.2174408,3.5037704,-6.2431955
431,1778415650280,424.0,2.4346542,-1.244097,-0.88084406,-2.1858284,3.4432948,-5.8362064
432,1778415650290,425.0,2.4316053,-1.1875083,-0.82864594,-2.1149683,3.458719,-5.551849
433,1778415650300,426.0,2.427276,-1.1204313,-0.93212754,-2.0011945,3.4617734,-5.2079315
434,1778415650310,427.0,2.427276,-1.1204313,-0.93212754,-2.0011945,3.4617734,-5.2079315
435,1778415650320,428.0,2.432032,-1.1396397,-1.0453658,-1.9445368,3.2855387,-4.8942523
436,1778415650330,429.0,2.3435514,-1.1992164,-0.88761276,-2.2493587,3.3163874,-4.097073
437,1778415650340,430.0,2.3435514,-1.1992164,-0.88761276,-2.2493587,3.3163874,-4.097073
438,1778415650350,431.0,1.843888,-1.1603116,-0.6461353,-2.7013988,5.0969067,-3.2763758
439,1778415650360,432.0,1.3278824,-1.0248158,-0.8473665,-2.504853,6.3357415,-3.386637
440,1778415650370,433.0,0.76541054,-1.0073758,-1.3926421,-1.5167783,6.6521697,-4.004222
441,1778415650380,434.0,-0.14939895,-1.068294,-2.2556803,-0.06780604,5.8841596,-4.8273625
442,1778415650390,435.0,-1.1636045,-1.3857516,-3.0043826,2.339461,3.1364875,-5.9640303
443,1778415650400,436.0,-1.7078435,-1.7541877,-3.1723192,2.8298333,2.0856466,-6.16867
444,1778415650410,437.0,-2.652655,-2.6532645,-2.9541967,2.7356074,-0.013744468,-6.121786
445,1778415650420,438.0,-3.5345964,-3.2793376,-2.661131,1.0864239,-0.1142318,-5.273447
446,1778415650430,439.0,-4.2646394,-3.5978928,-2.6073472,-0.97784257,0.41248676,-3.8411207
447,1778415650440,440.0,-4.654296,-3.6666775,-2.537831,-2.402991,0.7512115,-2.4352143
448,1778415650450,441.0,-4.9607162,-3.61765,-2.5224032,-2.8586967,0.691194,-1.5008959
449,1778415650460,442.0,-5.0627346,-3.6424687,-2.5394166,-2.8139508,-0.06734789,-0.5920811
450,1778415650470,443.0,-4.951752,-3.7778423,-2.4241657,-2.4471262,-1.3028228,0.3042109
451,1778415650480,444.0,-4.7579603,-3.8574202,-2.1622603,-2.167808,-2.3003657,1.1687379
452,1778415650490,445.0,-4.146827,-3.9094353,-1.355262,-1.983174,-2.9752192,2.5680776
453,1778415650500,446.0,-3.6064909,-3.8077831,-0.9945702,-1.753336,-3.1627548,4.190383
454,1778415650510,447.0,-2.8516908,-3.5130708,-0.7841311,-1.3231341,-3.3082933,5.442504
455,1778415650520,448.0,-2.8516908,-3.5130708,-0.7841311,-1.3231341,-3.3082933,5.442504
456,1778415650530,449.0,-1.0734164,-2.8122373,-0.837366,0.88361657,-4.254218,7.964003
457,1778415650540,450.0,-0.263491,-2.6224701,-0.9334691,2.1363485,-4.746881,8.829141
458,1778415650550,451.0,0.71620035,-2.4568505,-1.0908563,2.8754954,-5.011233,9.261939
459,1778415650560,452.0,1.5789336,-2.4138603,-1.1877522,3.3095152,-5.0883546,9.526596
460,1778415650570,453.0,2.1375637,-2.438313,-1.290807,3.3014212,-4.9712214,9.613797
461,1778415650580,454.0,2.7460139,-2.5530758,-1.3673968,3.1242702,-4.96664,9.857838
462,1778415650590,455.0,3.2166512,-2.4638634,-1.4333763,2.968958,-5.085148,10.036516
463,1778415650600,456.0,3.6633236,-2.3733702,-1.3446517,2.8744264,-5.269018,10.162048
464,1778415650610,457.0,3.9119358,-2.3237333,-1.2695253,2.7762299,-5.244431,10.273226
465,1778415650620,458.0,4.220795,-2.122319,-1.1026253,2.3785565,-4.9648075,10.366841
466,1778415650630,,,,,,,
467,1778415650640,459.0,4.284396,-1.5936905,-0.91291916,1.560608,-4.24643,9.909914
468,1778415650650,460.0,4.1557302,-1.2895874,-0.7595565,0.8614727,-3.703676,9.190926
469,1778415650660,461.0,3.8622377,-1.0687209,-0.59344923,0.17715092,-3.0370693,8.057159
470,1778415650670,462.0,3.4591653,-0.94206715,-0.55186146,-0.11575896,-2.622139,6.9032354
471,1778415650680,463.0,3.0693254,-0.89303994,-0.5545445,0.0032070426,-2.5977044,5.923255
472,1778415650690,464.0,2.7568681,-0.9113337,-0.550337,0.31566462,-2.7878363,5.134322
473,1778415650700,465.0,2.4428866,-1.0178033,-0.53198224,0.56245416,-3.036611,4.7204614
474,1778415650710,466.0,2.2386062,-1.1116502,-0.5014927,0.7603745,-3.2849278,4.519792
475,1778415650720,467.0,2.0886586,-1.2288522,-0.42484185,0.8695667,-3.4652858,4.5049787
476,1778415650730,468.0,1.9734688,-1.3952034,-0.30227375,0.850019,-3.4084754,4.707175
477,1778415650740,469.0,1.8620598,-1.5700916,-0.28812656,0.3885103,-2.7554605,5.615684
478,1778415650750,470.0,1.8267529,-1.5623472,-0.32648247,0.3885103,-2.7554605,5.615684
479,1778415650760,471.0,1.8556571,-1.4962459,-0.41551206,-0.25350907,-2.346486,6.682408
480,1778415650770,472.0,1.9571265,-1.3571523,-0.54076326,-0.25350907,-2.346486,6.682408
481,1778415650780,473.0,2.115916,-1.2569636,-0.5950347,-0.6420194,-2.7649288,7.5029526
482,1778415650790,474.0,2.353125,-1.097808,-0.6007668,-0.7386888,-3.0876184,7.720115
483,1778415650800,475.0,2.353125,-1.097808,-0.6007668,-0.7386888,-3.0876184,7.720115
484,1778415650810,476.0,2.7393062,-0.8088887,-0.51149327,-1.040609,-3.3754885,7.7789106
485,1778415650820,477.0,2.7393062,-0.8088887,-0.51149327,-1.040609,-3.3754885,7.7789106
486,1778415650830,478.0,2.9934673,-0.681991,-0.34105647,-1.5016595,-3.2667546,7.7176714
487,1778415650840,479.0,3.2653732,-0.49795586,-0.06445498,-2.3054054,-2.7172813,7.812203
488,1778415650850,480.0,3.7083871,-0.20678036,0.436123,-3.7719402,-1.0629056,7.9357505
489,1778415650860,481.0,3.828516,-0.027257688,0.5790582,-4.5097127,-0.1253801,7.734012
490,1778415650870,482.0,4.203477,0.08244383,0.740409,-4.791627,0.35124752,7.530747
491,1778415650880,483.0,4.633014,0.2610518,0.7883387,-4.4964266,0.2507602,7.6231403
492,1778415650890,484.0,5.421048,0.62168264,0.8133401,-3.5280523,-0.35506544,7.7764673
493,1778415650900,485.0,6.503306,0.97560567,0.7959611,-2.3419046,-1.0997101,7.4527087
494,1778415650910,486.0,7.115415,1.2422066,0.76730084,-1.5984817,-1.6769779,6.446003
495,1778415650920,487.0,7.9383287,1.551737,0.85620844,-1.2056953,-2.1766655,4.7552805
496,1778415650930,488.0,7.9383287,1.551737,0.85620844,-1.2056953,-2.1766655,4.7552805
497,1778415650940,489.0,8.408356,1.4795985,1.8112032,-1.2153164,-1.4149166,-0.79229224
498,1778415650950,490.0,7.772466,0.95188487,2.1383564,-1.2153164,-1.4149166,-0.79229224
499,1778415650960,491.0,6.8675957,0.21684194,2.0216422,-1.3541355,2.1484132,-5.3630915
500,1778415650970,492.0,6.134138,-0.41087765,1.7435774,-0.8019133,3.0364585,-6.2286873
501,1778415650980,493.0,5.3382382,-0.9993266,1.3653235,0.2518292,3.4805574,-6.531066
502,1778415650990,494.0,4.7341175,-1.2758061,1.0671964,0.2518292,3.4805574,-6.531066
503,1778415651000,495.0,4.4392223,-1.2742816,0.9743861,1.4833336,3.4077117,-5.9709024
504,1778415651010,496.0,4.0965195,-1.1493354,0.9209074,1.4253013,3.6879463,-5.637217
505,1778415651020,497.0,3.8591275,-1.0239623,0.86901414,0.8367327,4.389525,-5.4553323
506,1778415651030,498.0,3.6796658,-0.87956345,0.88242954,0.045356743,5.34782,-5.3381987
507,1778415651040,499.0,3.4937403,-0.80968136,0.8977963,-0.66446865,6.42279,-5.2488594
508,1778415651050,500.0,3.3183036,-0.8596843,0.9308469,-1.055117,7.3934546,-5.1004195
509,1778415651060,501.0,3.2296395,-0.9165779,0.960239,-1.0465649,8.217207,-4.842329
510,1778415651070,502.0,3.155611,-1.0143884,1.0058514,-0.7976373,8.837082,-4.5759916
511,1778415651080,503.0,3.1530497,-1.1254925,1.0259744,-0.27473664,9.6196,-4.1749587
512,1778415651090,504.0,3.2497628,-1.2443409,0.84200037,0.5128214,10.35829,-3.84784
513,1778415651100,505.0,3.4598362,-1.4270345,0.47405204,1.5225816,10.698999,-3.7669005
514,1778415651110,506.0,3.582648,-1.5460049,0.24275808,2.2163718,10.674718,-3.8730383
515,1778415651120,507.0,3.8014414,-1.7969341,-0.11067719,3.4581082,10.307129,-4.319123
516,1778415651130,508.0,3.9147406,-2.0739625,-0.4051456,4.7213774,9.672898,-4.992296
517,1778415651140,509.0,3.9281561,-2.3098297,-0.6232071,5.78581,8.870832,-5.7994018
518,1778415651150,510.0,3.8616276,-2.4738638,-0.7868752,6.640716,7.962476,-6.632775
519,1778415651160,511.0,3.75278,-2.5655766,-0.8695629,7.082677,7.185608,-7.237837
520,1778415651170,512.0,3.5574636,-2.590395,-0.9236514,7.3149586,6.222884,-7.8312926
521,1778415651180,513.0,3.3301945,-2.5502708,-0.9599951,7.250818,5.267949,-8.22362
522,1778415651190,514.0,3.1069496,-2.458863,-0.9096263,6.8096204,4.4199157,-8.42597
523,1778415651200,515.0,2.9755394,-2.3659918,-0.82553595,6.3655214,4.088216,-8.490569
524,1778415651210,516.0,2.7866259,-2.207324,-0.76156884,5.3774467,3.8583777,-8.538522
525,1778415651220,,,,,,,
526,1778415651230,517.0,2.616982,-2.0696938,-0.72918886,4.2621593,3.8331795,-8.446587
527,1778415651240,518.0,2.4006279,-1.9150509,-0.7793747,3.227812,3.8725803,-8.17918
528,1778415651250,519.0,2.186469,-1.7539439,-0.96828824,2.521041,3.645033,-7.7613482
529,1778415651260,520.0,2.0009093,-1.6225946,-1.164885,2.1114557,2.9335277,-7.179499
530,1778415651270,521.0,1.9128555,-1.5297234,-1.0848805,1.7211128,2.1192443,-6.429204
531,1778415651280,522.0,1.9190754,-1.4294127,-0.87681943,1.2179126,1.8605428,-5.7723713
532,1778415651290,523.0,1.8581573,-1.2728182,-0.5813144,0.37980548,2.3718371,-5.0804133
533,1778415651300,524.0,1.7271739,-1.0821973,-0.6266829,-0.2996294,3.4997997,-4.7881145
534,1778415651310,525.0,1.5186862,-0.9517019,-1.0139006,-0.42821655,4.083023,-4.8887544
535,1778415651320,526.0,1.2373283,-0.8954181,-1.5083808,-0.1160644,3.879758,-5.2053356
536,1778415651330,527.0,0.8578549,-1.0994544,-1.8287652,0.81504697,2.8637362,-5.7570996
537,1778415651340,528.0,-0.11927526,-2.014081,-2.3439782,1.97508,1.5812247,-6.442185
538,1778415651350,529.0,-0.11927526,-2.014081,-2.3439782,2.776077,0.07376198,-7.0887856
539,1778415651360,530.0,-0.75114137,-2.614238,-2.1506743,2.7524061,-0.9560041,-7.0446506
540,1778415651370,531.0,-2.0760968,-3.3155594,-1.9080381,1.1158981,-0.63071835,-5.651267
541,1778415651380,532.0,-2.7322326,-3.5935023,-1.987555,0.09132435,-0.20265454,-4.6517386
542,1778415651390,533.0,-3.0494463,-3.7299738,-2.096464,-0.39400807,-0.12614368,-3.9640572
543,1778415651400,534.0,-3.0494463,-3.7299738,-2.096464,-0.39400807,-0.12614368,-3.9640572
544,1778415651410,535.0,-3.4953868,-4.082921,-2.3100739,-0.48487428,-0.6188065,-3.186884
545,1778415651420,536.0,-3.6455173,-4.369828,-2.2912922,-0.31673363,-1.2780828,-2.5961773
546,1778415651430,537.0,-3.714485,-4.911445,-1.5916783,-0.38530326,-2.3516784,-0.5682574
547,1778415651440,538.0,-3.588319,-4.8801627,-1.2620249,-0.61743206,-2.529593,0.82986045
548,1778415651450,539.0,-3.588319,-4.8801627,-1.2620249,-0.61743206,-2.529593,0.82986045
549,1778415651460,540.0,-3.1801245,-4.785401,-0.99024075,-0.3733914,-2.9019153,2.6511552
550,1778415651470,541.0,-1.7552854,-4.2171974,-0.46295384,1.3293955,-3.5708127,6.774801
551,1778415651480,542.0,-1.7552854,-4.2171974,-0.46295384,1.3293955,-3.5708127,6.774801
552,1778415651490,543.0,0.076406896,-3.2591536,-0.8355366,3.0216448,-3.5946364,10.062631
553,1778415651500,544.0,1.1733003,-2.9250486,-1.2843432,3.9732203,-3.9697077,11.317806
554,1778415651510,545.0,2.034265,-2.7321105,-1.4983801,4.70183,-4.414876,12.144306
555,1778415651520,546.0,2.9634047,-2.6214335,-1.6051546,4.933806,-4.5570545,12.491736
556,1778415651530,547.0,2.9634047,-2.6214335,-1.6051546,4.933806,-4.5570545,12.491736
557,1778415651540,548.0,4.3983054,-2.6539354,-1.6823543,3.884034,-3.7960694,13.343893
558,1778415651550,549.0,4.857052,-2.4985604,-1.8182768,3.1477885,-3.4579554,13.640469
559,1778415651560,550.0,5.2711,-2.122319,-1.916941,2.304642,-3.4785721,13.737138
560,1778415651570,551.0,5.485259,-1.7207712,-1.8661455,1.6763669,-3.8081338,13.359928
561,1778415651580,552.0,5.433366,-1.308369,-1.6237532,1.2864822,-4.172973,12.556946
562,1778415651590,553.0,5.1854243,-0.9188951,-1.2146441,1.0218248,-4.364938,11.188913
563,1778415651600,554.0,4.8455267,-0.6666852,-0.9799352,1.0129673,-4.2617016,9.62296
564,1778415651610,555.0,4.569657,-0.5508858,-0.94310385,1.0874928,-4.1853433,8.304561
565,1778415651620,556.0,4.003953,-0.50746864,-0.92621255,1.2432635,-4.2830815,6.8261137
566,1778415651630,557.0,3.5439873,-0.5543006,-0.87651455,1.4416419,-4.5365906,5.69922
567,1778415651640,558.0,3.1098766,-0.65211123,-0.72400564,1.6606371,-4.728555,4.90143
568,1778415651650,559.0,2.7356474,-0.78559464,-0.5612523,1.8958203,-4.7155743,4.5173483
569,1778415651660,560.0,2.4763641,-0.8949303,-0.5182619,2.0856466,-4.5646906,4.479017
570,1778415651670,561.0,2.2402527,-1.0581715,-0.5772288,2.2440135,-4.400215,4.7051897
571,1778415651680,562.0,2.1653092,-1.1785444,-0.60491335,2.266921,-4.308585,5.116302
572,1778415651690,563.0,2.1235385,-1.343737,-0.59741294,2.1493294,-4.106236,5.8653755
573,1778415651700,564.0,2.166529,-1.2505608,-0.5300309,1.8089247,-3.67466,6.7540317
574,1778415651710,565.0,2.239094,-1.1540308,-0.49002862,1.484708,-3.313333,7.236157
575,1778415651720,566.0,2.3974571,-0.89340574,-0.5024074,0.6936375,-2.468201,7.934223
576,1778415651730,567.0,2.5149639,-0.6519283,-0.5991813,0.10522154,-1.9643899,8.244237
577,1778415651740,568.0,2.605457,-0.34697145,-0.6504648,-0.3585779,-1.7446312,8.436507
578,1778415651750,569.0,2.8018708,-0.07762648,-0.6688805,-0.7441866,-1.6581937,8.523708
579,1778415651760,570.0,3.0099318,0.11915329,-0.6679048,-1.0458013,-1.6009251,8.541423
580,1778415651770,571.0,3.292936,0.45301422,-0.56302065,-1.5427402,-1.4740179,8.503855
581,1778415651780,572.0,3.5489266,0.7666911,-0.31776243,-2.2452352,-1.067487,8.248361
582,1778415651790,573.0,3.7364986,0.98816746,-0.15202107,-2.8997774,-0.6177375,7.9178824
583,1778415651800,574.0,3.9613287,1.2683057,0.1261659,-3.50881,-0.057421334,7.456221
584,1778415651810,575.0,4.271713,1.5417973,0.26294217,-3.5304956,0.37323865,7.1083336
585,1778415651820,576.0,4.7486916,1.8139474,0.30623737,-3.2363641,0.5343544,6.9391236
586,1778415651830,577.0,5.672221,2.1468327,0.1562896,-2.3851233,0.6814202,6.2199826
587,1778415651840,578.0,6.3716526,2.300622,-0.17122951,-1.9769126,0.5170974,4.555222
588,1778415651850,579.0,6.9240627,2.1578088,-0.438989,-1.790446,-0.19394971,2.0048597
589,1778415651860,,,,,,,
590,1778415651870,580.0,7.139197,1.8962082,-0.304469,-1.6247488,-0.8576548,-0.08017606
591,1778415651880,581.0,7.153893,1.5708843,0.10701844,-1.400714,-1.0500773,-2.2032382
592,1778415651890,582.0,6.937966,1.0294503,0.576619,-1.2864822,-0.4709771,-3.4930801
593,1778415651900,583.0,6.4554377,0.5471661,0.77199626,-1.2389874,0.79717916,-4.5782824
594,1778415651910,584.0,5.909491,0.09555435,0.67314905,-1.1464413,2.0653355,-5.290704
595,1778415651920,585.0,5.4073277,-0.2953831,0.44002566,-0.860251,2.9320004,-5.689904
596,1778415651930,586.0,5.125909,-0.45581928,0.2936757,-0.5523749,3.2679763,-5.784283
597,1778415651940,587.0,4.689115,-0.54027545,0.039941356,-0.22434026,3.2963815,-5.747173
598,1778415651950,588.0,4.372206,-0.47429594,0.0052442085,-0.09682214,3.2475123,-5.714339
599,1778415651960,589.0,4.12518,-0.36380172,0.06579652,-0.1685988,3.3179145,-5.648671
600,1778415651970,590.0,3.8327844,-0.24440451,0.20775603,-0.44089198,3.6968038,-5.5681896
601,1778415651980,591.0,3.5246568,-0.15860681,0.3314218,-1.1055133,5.1526484,-5.5472674
602,1778415651990,592.0,3.214273,-0.09921311,0.41929275,-1.1055133,5.1526484,-5.5472674
603,1778415652000,593.0,3.0109684,-0.09372498,0.4054505,-1.1381947,5.719684,-5.6304975
604,1778415652010,594.0,2.8056517,-0.14830133,0.31312802,-0.8863655,6.1463733,-5.81223
605,1778415652020,595.0,2.7285738,-0.20007265,0.22909874,-0.45341474,6.24289,-5.9939623
606,1778415652030,596.0,2.6299706,-0.32703125,0.07945585,0.13423763,6.1382794,-6.253275
607,1778415652040,597.0,2.5542345,-0.4589292,-0.08774903,1.1488848,5.7563357,-6.8230596
608,1778415652050,598.0,2.4741077,-0.8052299,-0.5144203,2.4162774,4.523457,-8.203156
609,1778415652060,599.0,2.4741077,-0.8052299,-0.5144203,2.4162774,4.523457,-8.203156
610,1778415652070,600.0,2.4475818,-1.3071494,-0.7136392,3.117398,2.6847527,-9.671371
611,1778415652080,601.0,2.4081283,-1.4777691,-0.7333965,3.1177034,2.022575,-9.983066
612,1778415652090,602.0,2.3483686,-1.6668044,-0.7165052,2.9118419,1.3494014,-10.041861
613,1778415652100,603.0,2.3483686,-1.6668044,-0.7165052,2.9118419,1.3494014,-10.041861
614,1778415652110,604.0,2.1493328,-1.7634565,-0.6202801,2.11451,0.8003862,-9.391137
615,1778415652120,605.0,2.1493328,-1.7634565,-0.6202801,2.11451,0.8003862,-9.391137
616,1778415652130,606.0,2.081341,-1.7457726,-0.58320475,1.235475,0.83199847,-8.520806
617,1778415652140,607.0,2.0042024,-1.5186251,-0.6066208,-0.57971114,1.365742,-6.9284334
618,1778415652150,608.0,1.9692003,-1.3577012,-0.56417924,-1.314582,1.7040086,-6.3613977
619,1778415652160,609.0,1.9515773,-1.214827,-0.5411291,-2.0711386,2.1943808,-5.7682476
620,1778415652170,610.0,1.9552361,-1.1231753,-0.5305188,-2.4788911,2.5514314,-5.3867626
621,1778415652180,611.0,1.9602972,-1.006705,-0.544361,-2.7070494,2.894127,-4.977788
622,1778415652190,612.0,1.9739566,-0.9185292,-0.5785094,-2.6224444,2.9636128,-4.8133125
623,1778415652200,613.0,2.0378628,-0.8720021,-0.6719294,-2.2844832,2.8629727,-4.6859474
624,1778415652210,614.0,2.0906098,-0.8619405,-0.74321413,-2.2844832,2.8629727,-4.6859474
625,1778415652220,615.0,2.1523206,-0.86742866,-0.7774844,-1.6811012,2.4338398,-4.625319
626,1778415652230,616.0,2.1523206,-0.86742866,-0.7774844,-1.6811012,2.4338398,-4.625319
627,1778415652240,617.0,2.194823,-0.81510854,-0.64851344,-1.6362026,2.328771,-4.6821294
628,1778415652250,618.0,2.1078668,-0.7824847,-0.4723446,-1.815797,2.7566822,-4.692056
629,1778415652260,619.0,1.9685904,-0.7715694,-0.45142877,-1.968666,3.5957055,-4.7088547
630,1778415652270,620.0,1.7704692,-0.7819359,-0.5873514,-1.9161316,4.215276,-4.781853
631,1778415652280,621.0,1.5231986,-0.8416954,-0.5923516,-1.7308867,4.544685,-4.8908925
632,1778415652290,622.0,0.9847526,-0.834073,-0.65461135,-1.2363913,4.913342,-5.390886
633,1778415652300,623.0,0.24361177,-1.100552,-0.87444127,-0.16737708,4.9096766,-6.343683
634,1778415652310,624.0,-0.32947046,-1.3997767,-1.0937833,0.6769914,4.7058005,-6.9350004
635,1778415652320,625.0,-1.4791107,-1.9974946,-1.6316805,1.9259053,3.7363572,-7.5250964
636,1778415652330,626.0,-2.6916814,-2.8719969,-1.8971838,2.2605069,2.6094637,-7.2499013
637,1778415652340,627.0,-2.6916814,-2.8719969,-1.8971838,2.2605069,2.6094637,-7.2499013
638,1778415652350,628.0,-4.7224708,-4.022613,-2.1195748,0.25579983,1.4984524,-3.9865067
639,1778415652360,629.0,-5.231403,-3.9788299,-1.8820001,-0.97234476,1.4986051,-1.7290541
640,1778415652370,630.0,-5.3524466,-3.8025997,-1.8023611,-1.4679092,1.5586227,-0.007330383
641,1778415652380,631.0,-5.244818,-3.456909,-1.9560897,-1.3852897,1.1618657,1.7079792
642,1778415652390,632.0,-4.853942,-3.1181087,-2.0004826,-0.8536842,0.122020334,2.8182268
643,1778415652400,633.0,-4.2518945,-2.903706,-1.7996782,-0.4298964,-0.9787588,3.5170567
644,1778415652410,634.0,-3.8249183,-2.853825,-1.5496637,-0.33536503,-1.4639386,3.91305
645,1778415652420,635.0,-3.1356099,-2.7057676,-1.0584154,-0.37507126,-1.7831156,4.6239443
646,1778415652430,636.0,-2.5011215,-2.4825227,-0.80870575,-0.3483459,-1.7240144,5.3200254
647,1778415652440,637.0,-1.8587061,-2.2870848,-0.7947415,-0.014813482,-1.8666514,6.007707
648,1778415652450,,,,,,,
649,1778415652460,638.0,-1.1534209,-2.0678036,-0.78559464,0.52320606,-2.2686007,6.6587367
650,1778415652470,639.0,-0.4575877,-1.8600475,-0.72278607,1.0323622,-2.610227,7.0765686
651,1778415652480,640.0,0.04622221,-1.7794939,-0.6886987,1.3955216,-2.790585,7.223176
652,1778415652490,641.0,0.5640573,-1.7764452,-0.661441,1.7737999,-2.8976393,7.263188
653,1778415652500,642.0,0.9843257,-1.9407231,-0.7481534,2.0685425,-2.9341385,7.2810555
654,1778415652510,643.0,1.2769647,-2.110916,-0.91456556,2.3014348,-3.1513011,7.4166675
655,1778415652520,644.0,1.6399128,-2.2550707,-0.97926444,2.6030495,-3.5894442,7.7494364
656,1778415652530,645.0,1.9219414,-2.2829382,-0.90621144,2.77287,-3.8507419,8.144972
657,1778415652540,646.0,2.3083055,-2.242692,-0.860721,2.895654,-4.0165915,8.513018
658,1778415652550,647.0,2.6709485,-2.212934,-0.69443077,2.8722885,-3.8450913,8.865946
659,1778415652560,648.0,3.0044436,-1.8602304,-0.63509804,2.1704042,-2.6580274,9.069211
660,1778415652570,649.0,3.0044436,-1.8602304,-0.63509804,2.1704042,-2.6580274,9.069211
661,1778415652580,650.0,3.0277987,-1.7604077,-0.68540585,1.7426459,-2.2853997,8.891754
662,1778415652590,651.0,2.9585874,-1.7354671,-0.69016224,0.6930266,-1.8553505,8.371908
663,1778415652600,652.0,2.9585874,-1.7354671,-0.69016224,0.6930266,-1.8553505,8.371908
664,1778415652610,653.0,2.7347329,-1.7017457,-0.46234405,-0.300393,-1.8223637,7.998975
665,1778415652620,654.0,2.7347329,-1.7017457,-0.46234405,-0.300393,-1.8223637,7.998975
666,1778415652630,655.0,2.6155796,-1.6346685,-0.35428897,-0.6088799,-1.749518,7.9189515
667,1778415652640,656.0,2.500146,-1.5885683,-0.25977126,-0.96577793,-1.6378825,7.814952
668,1778415652650,657.0,2.2397647,-1.5711893,-0.20586567,-1.3816245,-1.5512923,7.5562506
669,1778415652660,658.0,2.204336,-1.5829582,-0.2596493,-1.2933544,-1.8376354,7.4533195
670,1778415652670,659.0,2.1934814,-1.5941783,-0.2775772,-1.1142182,-2.158187,7.3484035
671,1778415652680,660.0,2.1934814,-1.5941783,-0.2775772,-0.81229806,-2.560289,7.2077518
672,1778415652690,661.0,2.2142756,-1.6176554,-0.2950172,-0.81229806,-2.560289,7.2077518
673,1778415652700,662.0,2.2729375,-1.6704024,-0.33044612,-0.03145956,-3.196658,7.1793466
674,1778415652710,663.0,2.3589182,-1.6720488,-0.39349857,-0.03145956,-3.196658,7.1793466
675,1778415652720,664.0,2.4691684,-1.66839,-0.45716083,0.34529158,-3.4917057,7.306101
676,1778415652730,665.0,2.810103,-1.6768051,-0.4106947,0.6224717,-3.7814085,7.6503234
677,1778415652740,666.0,3.1245117,-1.5416144,-0.1884866,0.569021,-3.538437,8.107709
678,1778415652750,667.0,3.7024112,-1.0629889,0.036587503,-0.7254025,-1.4892895,8.60083
679,1778415652760,668.0,3.9101672,-0.88127095,0.07408969,-1.6299412,-0.46777007,8.531802
680,1778415652770,669.0,4.11774,-0.6843692,0.16702195,-2.7765353,0.66859204,8.329606
681,1778415652780,670.0,4.2203684,-0.39307174,0.37258273,-3.7232237,1.6820174,8.054258
682,1778415652790,671.0,4.2285395,-0.12079973,0.5046636,-4.186565,2.316401,7.6866703
683,1778415652800,672.0,4.310861,0.12720254,0.49557772,-4.1137195,2.547308,7.062213
684,1778415652810,673.0,4.48642,0.1770835,0.40264544,-3.6958876,2.1940753,6.8445926
685,1778415652820,674.0,5.116152,0.15726528,0.2336112,-2.5573874,0.9213375,6.808093
686,1778415652830,675.0,6.4093986,0.52429885,0.023172084,-1.1212431,-1.0282389,6.95241
687,1778415652840,676.0,6.4093986,0.52429885,0.023172084,-1.1212431,-1.0282389,6.95241
688,1778415652850,677.0,8.403357,1.8682798,0.9196878,0.41584653,-3.5628715,4.6880856
689,1778415652860,678.0,8.611905,2.1563454,1.510149,0.1684461,-2.93872,2.5013404
690,1778415652870,679.0,8.3371935,2.0234108,1.9526749,-0.302531,-1.016938,-0.6052147
691,1778415652880,680.0,7.7869177,1.4817327,1.8972448,-0.4804455,0.657291,-2.8816042
692,1778415652890,681.0,6.6091056,0.46423438,1.5351505,-0.087964594,2.1742222,-5.1665454
693,1778415652900,682.0,5.769117,-0.10348164,1.2770867,0.5859725,2.5273023,-6.037792
694,1778415652910,683.0,4.8944926,-0.6530869,1.0112785,1.5937474,2.4517076,-6.499606
695,1778415652920,684.0,4.4892864,-0.85383034,0.88023424,2.3101397,2.2595906,-6.450737
696,1778415652930,685.0,3.852176,-0.8877957,0.7072364,2.7522533,2.130698,-6.188676
697,1778415652940,686.0,3.5341089,-0.73961633,0.5980837,2.5987735,2.3365595,-6.0106087
698,1778415652950,687.0,3.302022,-0.6084501,0.5339336,2.0387628,2.8281534,-6.0116777
699,1778415652960,688.0,3.1476226,-0.5459465,0.523933,1.3471106,3.4939964,-6.0538273
700,1778415652970,689.0,2.9777346,-0.4663077,0.53039676,0.9112582,4.104251,-6.092617
701,1778415652980,690.0,2.8236403,-0.45161173,0.5172863,0.6284276,4.869207,-6.19509
702,1778415652990,691.0,2.7058897,-0.5214329,0.40380403,0.6762278,5.4732,-6.367354
703,1778415653000,692.0,2.6250923,-0.6098527,0.27379647,0.9436341,5.696013,-6.5678706
704,1778415653010,693.0,2.570333,-0.71248055,0.110189356,1.487915,5.632483,-6.9356112
705,1778415653020,694.0,2.5448434,-0.8623674,-0.038599815,1.8758144,5.425247,-7.2138605
706,1778415653030,695.0,2.5617957,-1.1547015,-0.21007323,2.6537514,4.7248898,-7.867486
707,1778415653040,696.0,2.6153355,-1.3742875,-0.31745756,3.234226,3.9822304,-8.459262
708,1778415653050,697.0,2.62558,-1.5420412,-0.3451421,3.6485455,3.223536,-9.037141
709,1778415653060,698.0,2.6146038,-1.6672924,-0.34294683,3.808745,2.6810875,-9.447031
710,1778415653070,699.0,2.611372,-1.8324851,-0.32928753,3.8067596,2.138181,-9.803777
711,1778415653080,700.0,2.602408,-1.9757249,-0.30745694,3.6525161,1.8435913,-9.906707
712,1778415653090,,,,,,,
713,1778415653100,701.0,2.5656984,-2.078048,-0.3003834,3.2777503,1.6261233,-9.762543
714,1778415653110,702.0,2.5072193,-2.0887196,-0.29471233,2.724001,1.5448782,-9.408394
715,1778415653120,703.0,2.4867306,-2.0327406,-0.33148277,2.004707,1.6007724,-8.955743
716,1778415653130,704.0,2.4748397,-1.9601753,-0.38148567,1.5343407,1.6299412,-8.701317
717,1778415653140,705.0,2.446728,-1.7487606,-0.4376475,0.63178736,1.6265814,-8.323956
718,1778415653150,706.0,2.4055061,-1.5658231,-0.3811808,-0.38820487,1.8649716,-7.957436
719,1778415653160,707.0,2.4055061,-1.5658231,-0.3811808,-0.38820487,1.8649716,-7.957436
720,1778415653170,708.0,2.361906,-1.5268574,-0.4308788,-0.7626653,2.0468566,-7.6720095
721,1778415653180,709.0,2.317635,-1.4836231,-0.51996934,-0.9242391,1.8368717,-7.075958
722,1778415653190,710.0,2.3080003,-1.2417188,-0.68241787,-0.95004815,1.5932893,-6.963558
723,1778415653200,711.0,2.3222697,-1.1588482,-0.69558936,-0.9443977,1.2507466,-6.939582
724,1778415653210,712.0,2.3222697,-1.1588482,-0.69558936,-0.8605564,1.097114,-6.945538
725,1778415653220,713.0,2.3161108,-1.1157358,-0.5873514,-0.8605564,1.097114,-6.945538
726,1778415653230,714.0,2.0326185,-0.8855395,-0.38191253,-0.73273283,1.4014776,-7.2045445
727,1778415653240,715.0,2.0326185,-0.8855395,-0.38191253,-0.73273283,1.4014776,-7.2045445
728,1778415653250,716.0,1.3266628,-0.8003516,-0.71010244,0.061086524,1.312444,-8.084954
729,1778415653260,717.0,0.8998086,-0.974691,-0.8003516,0.44868052,0.8688031,-8.368548
730,1778415653270,718.0,0.8998086,-0.974691,-0.8003516,0.8071057,0.3193298,-8.587086
731,1778415653280,719.0,-0.5490564,-1.7938242,-0.5370435,0.66889745,0.31887165,-8.338464
732,1778415653290,720.0,-0.5490564,-1.7938242,-0.5370435,0.66889745,0.31887165,-8.338464
733,1778415653300,721.0,-2.476303,-3.3118396,-0.6680878,-0.8396343,1.2947289,-7.2746415
734,1778415653310,722.0,-3.4034915,-3.784916,-0.68217397,-1.4818064,1.2576188,-6.082538
735,1778415653320,723.0,-3.8155885,-3.9819396,-0.6590018,-1.4752395,0.9250027,-5.118898
736,1778415653330,724.0,-4.3131175,-4.232503,-0.62302417,-0.90087354,0.31429017,-4.212832
737,1778415653340,725.0,-4.3131175,-4.232503,-0.62302417,-0.90087354,0.31429017,-4.212832
738,1778415653350,726.0,-4.5882554,-4.4679437,-0.4926507,0.40286562,-0.9045387,-2.8009698
739,1778415653360,727.0,-4.3939147,-4.5530095,0.2367821,1.8796324,-1.977829,-0.056963183
740,1778415653370,728.0,-3.959743,-4.4317217,0.6133285,2.368172,-1.727985,1.223105
741,1778415653380,729.0,-3.4963017,-4.2311006,0.69699186,2.9605584,-1.2423472,2.6800187
742,1778415653390,730.0,-2.9106576,-3.919924,0.53143346,3.731012,-0.6768387,4.0717225
743,1778415653400,731.0,-1.9265758,-3.4037962,-0.10921369,4.8970013,-0.055436023,5.672342
744,1778415653410,732.0,-1.1193945,-2.9900525,-0.802059,5.6494346,-0.0038179078,6.4014096
745,1778415653420,733.0,-0.5441171,-2.696194,-1.3113569,6.187607,-0.28893927,6.652628
746,1778415653430,734.0,-0.5441171,-2.696194,-1.3113569,6.187607,-0.28893927,6.652628
747,1778415653440,735.0,0.44325754,-2.596493,-1.8429734,6.7465487,-0.691194,6.8629184
748,1778415653450,736.0,0.44325754,-2.596493,-1.8429734,6.7465487,-0.691194,6.8629184
749,1778415653460,737.0,1.4636829,-2.5091097,-2.3493445,6.9618783,-1.1213958,7.7863936
750,1778415653470,738.0,1.9673098,-2.3692236,-2.3802607,6.6008573,-1.1409435,8.449488
751,1778415653480,739.0,2.4481916,-2.2150683,-2.1212823,5.7065506,-0.7257079,9.1467905
752,1778415653490,740.0,2.739062,-2.1891522,-1.9693222,4.84294,-0.1479821,9.67015
753,1778415653500,741.0,3.1727462,-1.9771276,-1.8102275,2.4553728,1.0642799,10.759017
754,1778415653510,742.0,3.5052047,-1.7485776,-1.4494748,0.14019357,1.9465221,11.284056
755,1778415653520,743.0,3.6850932,-1.583568,-0.97200793,-2.112372,2.8151724,11.389888
756,1778415653530,744.0,3.647408,-1.5311259,-0.8374269,-3.2873714,3.130379,11.252901
757,1778415653540,745.0,3.4312978,-1.4170339,-0.65296495,-4.746881,3.1285462,10.754741
758,1778415653550,746.0,3.149269,-1.3648967,-0.5452148,-5.483432,2.48332,10.003835
759,1778415653560,747.0,2.9040108,-1.448865,-0.44892865,-5.567884,1.342529,9.147707
760,1778415653570,748.0,2.6836321,-1.5264305,-0.3357513,-5.2735996,0.061086524,8.383209
761,1778415653580,749.0,2.5719795,-1.6089964,-0.22440335,-4.905095,-0.9469938,7.8543525
762,1778415653590,750.0,2.4657538,-1.694489,-0.096042186,-4.4316745,-2.0050125,7.2961745
763,1778415653600,751.0,2.3911152,-1.7458946,0.0013415418,-4.1048617,-2.6955955,6.895447
764,1778415653610,752.0,2.3384292,-1.8601695,0.12775135,-3.623958,-3.5101845,6.449057
765,1778415653620,753.0,2.3265383,-1.9331007,0.20751211,-3.3599117,-3.8191295,6.3455153
766,1778415653630,754.0,2.3397708,-2.0123127,0.34508112,-2.877939,-4.166712,6.3450575
767,1778415653640,755.0,2.3156838,-2.0048733,0.39526698,-2.3964243,-4.2562037,6.390261
768,1778415653650,756.0,2.3642843,-1.9862745,0.18141302,-1.4553864,-4.5109344,6.3939266
769,1778415653660,757.0,2.5150247,-2.0388386,0.04494165,-0.56306505,-5.0066514,6.507853
770,1778415653670,758.0,2.7752228,-1.9893844,0.008171208,0.23518312,-5.4426565,6.8943777
771,1778415653680,759.0,2.9936502,-1.7846164,0.119946025,0.65500027,-5.4809885,7.528914
772,1778415653690,760.0,3.3331823,-1.493014,0.3363001,0.65393126,-4.9910746,8.1180935
773,1778415653700,,,,,,,
774,1778415653710,761.0,3.6351511,-1.2522072,0.45874628,0.29764408,-4.084398,8.712771
775,1778415653720,762.0,4.0802383,-0.7040655,0.5354581,-0.87995136,-2.313194,9.397703
776,1778415653730,763.0,4.281591,-0.37563166,0.58771724,-1.7139351,-1.4245378,9.549198
777,1778415653740,764.0,4.624111,0.06799178,0.7569344,-3.6234999,0.20433442,9.307754
778,1778415653750,765.0,4.897298,0.3474593,0.9599951,-4.7859764,1.0994047,8.752935
779,1778415653760,766.0,5.07304,0.5281406,1.2073265,-5.673411,1.5899295,7.782423
780,1778415653770,767.0,5.228354,0.6774176,1.5638717,-5.5078664,1.2414309,6.7085223
781,1778415653780,768.0,5.4994063,0.75528795,1.8951106,-4.2786527,0.30818152,5.9472313
782,1778415653790,769.0,6.1191983,1.0142665,2.20397,-2.7209466,-0.68707067,5.577811
783,1778415653800,770.0,7.039191,1.3003807,2.582102,-0.700357,-1.7354681,5.053077
784,1778415653810,771.0,7.6759963,1.8054101,2.8836439,0.7982482,-1.7560849,3.5330918
785,1778415653820,772.0,7.8406405,1.9270025,2.8117495,1.4769194,-1.0682507,1.4827226
786,1778415653830,773.0,7.6894727,1.6328391,2.3836145,1.7944167,-0.31810808,-0.9335548
787,1778415653840,774.0,7.1605396,0.8947473,1.8457174,1.9793562,0.12156218,-3.5752416
788,1778415653850,775.0,5.555751,-0.47697908,1.6260095,2.0735822,0.2759584,-5.2790976
789,1778415653860,776.0,5.555751,-0.47697908,1.6260095,2.179567,1.2967142,-6.2048635
790,1778415653870,777.0,4.385317,-1.1018326,1.3948375,2.2036965,1.87444,-5.943719
791,1778415653880,778.0,3.9971843,-1.1590921,1.1144553,2.158187,2.403144,-5.4615936
792,1778415653890,779.0,3.7519262,-1.0317065,0.8733436,1.9420934,2.716823,-5.05155
793,1778415653900,780.0,3.7519262,-1.0317065,0.8733436,1.9420934,2.716823,-5.05155
794,1778415653910,781.0,3.436908,-0.65144044,0.7837042,1.4019357,3.0550897,-4.920825
795,1778415653920,782.0,3.3559275,-0.5440562,0.8198649,1.2568552,3.198185,-4.968167
796,1778415653930,783.0,3.038165,-0.33306822,0.91804135,1.0377073,4.3653955,-5.481752
797,1778415653940,784.0,3.038165,-0.33306822,0.91804135,1.0377073,4.3653955,-5.481752
798,1778415653950,785.0,2.868887,-0.37307054,0.8235847,1.2592987,4.8091893,-5.784283
799,1778415653960,786.0,2.6354587,-0.6179019,0.39203507,2.5202773,4.945565,-6.658126
800,1778415653970,787.0,2.5832605,-0.7356527,0.24696562,3.1225903,4.608062,-7.124827
801,1778415653980,788.0,2.5483804,-0.88992995,0.08171208,3.7823248,4.053091,-7.783187
802,1778415653990,789.0,2.520391,-1.0495734,-0.07049192,4.3040037,3.3637295,-8.475756
803,1778415654000,790.0,2.5128295,-1.2033019,-0.14299615,4.6060767,2.8023443,-8.987355
804,1778415654010,791.0,2.5184398,-1.3769096,-0.21293926,4.782464,2.1800253,-9.546755
805,1778415654020,792.0,2.5184398,-1.3769096,-0.21293926,4.782464,2.1800253,-9.546755
806,1778415654030,793.0,2.5186834,-1.7085752,-0.30581054,4.440532,1.4086553,-10.179459
807,1778415654040,794.0,2.4596555,-1.8129107,-0.3609357,3.9379427,1.212262,-10.221303
808,1778415654050,795.0,2.39142,-1.8490714,-0.43630594,3.3043227,1.0987939,-10.073168
809,1778415654060,796.0,2.3203182,-1.8146181,-0.52673805,2.7473664,0.98975444,-9.902584
810,1778415654070,797.0,2.2487288,-1.7704082,-0.6255243,1.9477439,0.7698429,-9.668469
811,1778415654080,798.0,2.2158608,-1.7524194,-0.6721733,1.1653782,0.4775439,-9.368535
812,1778415654090,799.0,2.1726267,-1.6972941,-0.66845363,0.5038111,0.12782355,-8.965975
813,1778415654100,800.0,2.1819565,-1.6581455,-0.5777776,-0.09208794,-0.19318613,-8.438034
814,1778415654110,801.0,2.1940305,-1.5728966,-0.3647774,-0.52870387,-0.24740042,-7.923533
815,1778415654120,802.0,2.2232394,-1.5438706,-0.20452413,-0.83291477,-0.06337727,-7.5163913
816,1778415654130,803.0,2.2232394,-1.5438706,-0.20452413,-0.83291477,-0.06337727,-7.5163913
817,1778415654140,804.0,2.2250078,-1.2370844,-0.09012721,-1.7347046,1.6980526,-6.1601176
818,1778415654150,805.0,2.224764,-1.1145772,-0.26599112,-2.0295997,2.3124304,-5.803983
819,1778415654160,806.0,2.2028115,-1.0189619,-0.48630884,-2.0981693,2.4998133,-5.6059103
820,1778415654170,807.0,2.2085435,-0.99146026,-0.6149749,-1.9952387,2.350915,-5.5497108
821,1778415654180,808.0,2.1734195,-0.93926215,-0.6346102,-1.7612772,2.060143,-5.625916
822,1778415654190,809.0,2.0756698,-0.9308469,-0.6041206,-1.4285084,1.8568777,-5.8314724
823,1778415654200,810.0,1.8912688,-0.9215172,-0.62778056,-1.0983357,1.7524197,-5.9988494
824,1778415654210,811.0,1.6493036,-0.9645685,-0.5658257,-0.7506007,1.7432567,-6.1625614
825,1778415654220,812.0,1.0670744,-1.1215289,-0.5588131,-0.56184334,1.9617938,-6.219219
826,1778415654230,813.0,0.7056509,-1.2679398,-0.53808016,-0.589485,2.1873558,-6.2039475
827,1778415654240,814.0,-0.23489174,-1.6075938,-0.6492452,-0.8801041,3.0017917,-6.3846107
828,1778415654250,815.0,-1.2709278,-2.0416436,-1.4239855,-0.97509366,3.1818442,-7.0147185
829,1778415654260,816.0,-2.0863411,-2.6042984,-2.0917683,-0.7492262,2.1927009,-7.3757396
830,1778415654270,817.0,-2.9584043,-3.4243462,-2.321904,-0.38789943,0.14172074,-7.1584244
831,1778415654280,818.0,-3.6171622,-4.1572547,-1.7308327,-0.7150178,-1.2238685,-6.084065
832,1778415654290,819.0,-4.1143255,-4.5067873,-0.97627646,-1.7716619,-1.03786,-4.4898596
833,1778415654300,820.0,-4.513861,-4.668748,-0.7057729,-2.620001,-0.14508049,-2.6203065
834,1778415654310,,,,,,,
835,1778415654320,821.0,-4.7321053,-4.6058784,-0.80016863,-2.7614164,0.20112738,-1.0656544
836,1778415654330,822.0,-4.82083,-4.476785,-0.8570622,-2.332589,-0.093767814,0.6229298
837,1778415654340,823.0,-4.7140555,-4.3447046,-0.8159013,-1.8368717,-0.46761733,1.5228871
838,1778415654350,824.0,-4.1932936,-4.077799,-0.70418745,-0.6553057,-1.2333369,3.2058208
839,1778415654360,825.0,-3.4995944,-3.8360167,-0.68491805,0.34025195,-1.6954565,4.649906
840,1778415654370,826.0,-2.670034,-3.4281878,-0.6690634,1.2611313,-1.9737056,6.048635
841,1778415654380,827.0,-1.9779813,-3.0603616,-0.7283352,1.9617938,-1.9892827,6.9763865
842,1778415654390,828.0,-1.1334198,-2.6730828,-0.9906676,2.8680124,-2.0132592,7.843357
843,1778415654400,829.0,-0.4658808,-2.4314833,-1.3059908,3.5735617,-2.2015584,8.278904
844,1778415654410,830.0,0.30020046,-2.2265935,-1.6666217,4.22902,-2.5584564,8.521418
845,1778415654420,831.0,0.96737355,-2.180737,-1.8785853,4.599052,-2.9367347,8.629693
846,1778415654430,832.0,1.431486,-2.1945794,-2.0407288,4.762611,-3.2559118,8.796459
847,1778415654440,833.0,1.9044405,-2.2468994,-2.1671996,4.7659707,-3.4790304,9.023702
848,1778415654450,834.0,3.0267618,-2.1125624,-2.0676818,3.738648,-3.4115298,10.338436
849,1778415654460,835.0,3.4859352,-2.1008542,-1.8904152,2.6090055,-2.9964468,10.670899
850,1778415654470,836.0,3.7011914,-1.7685788,-1.6003982,1.4827226,-2.5572345,10.602024
851,1778415654480,837.0,3.7108262,-1.5213083,-1.2765379,0.20448714,-2.0909917,10.126161
852,1778415654490,838.0,3.7108262,-1.5213083,-1.2765379,-0.5626069,-1.8602374,9.449017
853,1778415654500,839.0,3.4911182,-1.317089,-0.8911496,-0.7451029,-1.924531,8.824254
854,1778415654510,840.0,3.4911182,-1.317089,-0.8911496,-0.7451029,-1.924531,8.824254
855,1778415654520,841.0,3.3114126,-1.3080032,-0.778643,-0.59437186,-2.1945333,8.044179
856,1778415654530,842.0,3.1618917,-1.3244065,-0.7512633,-0.32788193,-2.5557075,7.496538
857,1778415654540,843.0,3.0000532,-1.3450174,-0.6600385,-0.06414085,-2.9756773,7.0515227
858,1778415654550,844.0,2.801505,-1.3684945,-0.50448066,0.1385137,-3.3339498,6.6624017
859,1778415654560,845.0,2.417458,-1.3822148,-0.22617173,-0.07269296,-3.3835826,6.3255095
860,1778415654570,846.0,2.417458,-1.3822148,-0.22617173,-0.07269296,-3.3835826,6.3255095
861,1778415654580,847.0,2.1951282,-1.3944106,-0.06085721,-0.49678615,-2.909704,6.327953
862,1778415654590,848.0,2.154455,-1.4163631,-0.08829784,-0.52519137,-2.7068965,6.405686
863,1778415654600,849.0,2.209397,-1.5186862,-0.29471233,-0.32589662,-2.741716,6.5773387
864,1778415654610,850.0,2.324343,-1.5395411,-0.43941587,-0.08155051,-3.037222,6.691876
865,1778415654620,851.0,2.4481916,-1.51643,-0.52710396,0.23273966,-3.5924985,6.7870183
866,1778415654630,852.0,2.5880778,-1.528199,-0.5153959,0.37232238,-3.9057198,6.8513117
867,1778415654640,853.0,2.8312018,-1.5670427,-0.33947104,0.44241914,-4.1737366,7.104668
868,1778415654650,854.0,2.8312018,-1.5670427,-0.33947104,0.44241914,-4.1737366,7.104668
869,1778415654660,855.0,3.3880634,-1.2708669,0.03609967,-0.15027285,-3.0399709,8.188954
870,1778415654670,856.0,3.6907032,-0.99011874,0.17872995,-0.8565858,-2.0167716,8.78241
871,1778415654680,857.0,4.0298696,-0.5852781,0.1934869,-1.8512272,-0.9221011,9.240559
872,1778415654690,858.0,4.24976,-0.24318492,0.2528806,-2.860682,-0.16768251,9.267742
873,1778415654700,859.0,4.5127635,0.058722936,0.44612357,-4.0989056,0.65301496,8.941235
874,1778415654710,860.0,4.6490517,0.3094083,0.5846682,-4.9432745,1.1122329,8.292038
875,1778415654720,861.0,4.7967434,0.51600575,0.863526,-5.020854,0.86269444,7.473936
876,1778415654730,862.0,4.999133,0.6285733,1.1948259,-4.5810313,0.4813618,7.030906
877,1778415654740,863.0,5.6452684,0.80309564,1.4578899,-3.033404,-0.43172902,6.7008862
878,1778415654750,864.0,5.6452684,0.80309564,1.4578899,-3.033404,-0.43172902,6.7008862
879,1778415654760,865.0,7.943817,1.8915129,1.6465596,0.89766645,-2.808911,5.9715133
880,1778415654770,866.0,8.649956,2.443618,1.8473028,1.4924965,-2.7705793,3.6775615
881,1778415654780,867.0,8.709716,2.5329525,1.9570043,1.1728612,-1.6891952,0.31749722
882,1778415654790,868.0,8.08346,2.0495098,1.9851159,0.66798115,-0.1160644,-2.9530754
883,1778415654800,869.0,7.3576245,1.3470298,1.8806585,0.52198434,1.0468704,-4.8892126
884,1778415654810,870.0,6.366591,0.46270993,1.6630238,0.7866417,2.1400137,-6.3633833
885,1778415654820,871.0,5.6531343,-0.124641426,1.3841661,1.280679,2.698039,-6.8974323
886,1778415654830,872.0,5.08737,-0.591315,1.0490856,1.8440495,2.954297,-7.006624
887,1778415654840,873.0,4.563376,-0.9289566,0.63961047,2.30342,2.9494102,-6.786102
888,1778415654850,874.0,4.563376,-0.9289566,0.63961047,2.30342,2.9494102,-6.786102
889,1778415654860,875.0,3.8215034,-0.8616966,0.34282488,1.9587394,2.748741,-6.3278003
890,1778415654870,876.0,3.5471582,-0.644062,0.3605698,1.4532484,2.990338,-6.310238
891,1778415654880,877.0,3.3231206,-0.5043587,0.42770788,1.1374311,3.3286047,-6.42279
892,1778415654890,878.0,3.076033,-0.43722063,0.49338245,0.9761627,3.8745656,-6.6234593
893,1778415654900,879.0,2.8344948,-0.43325698,0.44368443,1.1198688,4.3910522,-6.868874
894,1778415654910,880.0,2.6559477,-0.5026513,0.26330805,1.517542,4.584238,-7.1320043
895,1778415654920,,,,,,,
896,1778415654930,881.0,2.541307,-0.55509335,0.08750511,1.9399554,4.466036,-7.3957458
897,1778415654940,882.0,2.4633756,-0.626439,-0.050429773,2.3629794,4.134336,-7.722253
898,1778415654950,883.0,2.4459355,-0.73437214,-0.17665665,2.8257098,3.5515707,-8.173072
899,1778415654960,884.0,2.4287393,-0.8655993,-0.23611133,3.110984,3.0059152,-8.691849
900,1778415654970,885.0,2.4365447,-1.0296332,-0.34849593,3.2178855,2.5082128,-9.228341
901,1778415654980,886.0,2.467644,-1.2545244,-0.45039213,3.1873422,1.9920316,-9.680382
902,1778415654990,887.0,2.4943528,-1.4320347,-0.49515083,2.958726,1.5059355,-9.938167
903,1778415655000,888.0,2.4986825,-1.6002764,-0.5282015,2.6213756,1.1664472,-9.996351
904,1778415655010,889.0,2.4691684,-1.6924158,-0.53875095,2.1142046,0.8194757,-9.922132
905,1778415655020,890.0,2.4009328,-1.7332718,-0.51972544,1.6137533,0.569021,-9.713063
906,1778415655030,891.0,2.3405023,-1.7405285,-0.51996934,1.0117456,0.40469822,-9.288816
907,1778415655040,892.0,2.3106835,-1.7195516,-0.53844607,0.8008443,0.35643986,-9.119149
908,1778415655050,893.0,2.2797673,-1.6337539,-0.5247867,0.2264783,0.29352075,-8.658404
909,1778415655060,894.0,2.2734864,-1.449292,-0.4105727,-1.0810788,0.6579019,-7.7576833
910,1778415655070,895.0,2.2734864,-1.449292,-0.4105727,-1.0810788,0.6579019,-7.7576833
911,1778415655080,896.0,2.3342216,-1.3386147,-0.39538893,-2.005318,1.547169,-6.849479
912,1778415655090,897.0,2.3418438,-1.2349502,-0.47582048,-2.2102633,1.9694295,-6.558707
913,1778415655100,898.0,2.330197,-1.1450058,-0.58820504,-2.2434027,2.110692,-6.3221498
914,1778415655110,899.0,2.3276358,-1.0778677,-0.63674444,-2.1745276,2.0706804,-6.200435
915,1778415655120,900.0,2.3276358,-1.0778677,-0.63674444,-2.1745276,2.0706804,-6.200435
916,1778415655130,901.0,2.3012319,-1.0622572,-0.65766037,-2.1116085,1.9955441,-6.182873
917,1778415655140,902.0,2.2515948,-1.0881733,-0.725896,-1.9081903,1.7712038,-6.20242
918,1778415655150,903.0,2.1044521,-1.0739042,-0.7147368,-1.5247196,1.4459181,-6.2360177
919,1778415655160,904.0,1.8365095,-1.0401826,-0.5271649,-1.1673635,1.29198,-6.206849
920,1778415655170,905.0,0.97902054,-1.2220836,-0.39929157,-0.93218035,2.1255057,-5.733276
921,1778415655180,906.0,0.46673456,-1.296844,-0.45722178,-1.1134546,2.646421,-5.6083536
922,1778415655190,907.0,-0.28885832,-1.5183812,-0.65881896,-1.3070989,3.1479414,-5.6117134
923,1778415655200,908.0,-1.1059182,-2.0289598,-0.8530986,-1.2942708,3.239571,-5.7242656
924,1778415655210,909.0,-1.9989581,-2.3997743,-1.1705562,-0.9967794,2.8951957,-6.212347
925,1778415655220,910.0,-2.7854674,-3.0807285,-1.4976484,-0.63071835,1.9271271,-6.164852
926,1778415655230,911.0,-2.7854674,-3.0807285,-1.4976484,-0.63071835,1.9271271,-6.164852
927,1778415655240,912.0,-4.343119,-4.534167,-1.0934784,-0.0143553335,0.21059579,-4.1668644
928,1778415655250,913.0,-4.343119,-4.534167,-1.0934784,-0.08582657,0.1994475,-2.3283129
929,1778415655260,914.0,-5.0765157,-5.178046,-0.63735425,-0.43768495,0.59773165,-0.14385876
930,1778415655270,915.0,-5.0511484,-5.078223,-0.6677219,-0.70341134,0.73716164,1.5964963
931,1778415655280,916.0,-4.812232,-4.709787,-0.6173531,-0.8043568,0.6046039,3.8351648
932,1778415655290,917.0,-4.282872,-4.311654,-0.6801007,-0.42928556,0.24480425,5.1633387
933,1778415655300,918.0,-3.4005642,-3.9302292,-0.7153466,0.3987423,-0.4466952,6.745938
934,1778415655310,919.0,-2.5250254,-3.6238701,-0.71900535,1.0699304,-0.86376345,7.877718
935,1778415655320,920.0,-1.4337422,-3.190613,-0.8026078,1.6508633,-1.0329732,8.936195
936,1778415655330,921.0,-1.4337422,-3.190613,-0.8026078,1.6508633,-1.0329732,8.936195
937,1778415655340,922.0,-0.8178526,-2.9734662,-0.921944,1.868484,-1.0424415,9.342573
938,1778415655350,923.0,0.2827604,-2.7111337,-1.1990943,2.2171354,-1.1866057,9.724364
939,1778415655360,924.0,0.94048166,-2.5424654,-1.4034966,2.5885415,-1.4961617,9.682214
940,1778415655370,925.0,1.8072395,-2.6122866,-1.8757192,3.488957,-2.9219213,9.579284
941,1778415655380,926.0,2.3305018,-2.8231525,-1.8331558,3.610519,-3.4109187,9.898003
942,1778415655390,927.0,2.914987,-2.9524894,-1.6779027,3.193298,-3.4626896,10.659446
943,1778415655400,928.0,3.4355664,-2.8350434,-1.4567922,2.1061106,-3.0283644,11.358582
944,1778415655410,929.0,3.7483284,-2.6714363,-1.1879961,0.8915578,-2.4572055,11.601706
945,1778415655420,930.0,3.9436448,-2.4341056,-0.86718476,-0.68218374,-1.67316,11.468079
946,1778415655430,931.0,3.97822,-2.3412342,-0.73217684,-1.4941764,-1.2950343,11.200214
947,1778415655440,932.0,3.8841898,-2.2292764,-0.5831438,-2.5013404,-1.0412198,10.406853
948,1778415655450,933.0,3.8841898,-2.2292764,-0.5831438,-2.5013404,-1.0412198,10.406853
949,1778415655460,934.0,3.8841898,-2.2292764,-0.5831438,-2.5013404,-1.0412198,10.406853
950,1778415655470,935.0,3.3498297,-2.075304,-0.3222749,-2.2127066,-2.1326833,8.374963
951,1778415655480,936.0,3.0842652,-2.0526807,-0.31123766,-1.74738,-2.7673724,7.719657
952,1778415655490,937.0,2.9137676,-2.042741,-0.30337137,-1.4694363,-3.2284229,7.394371
953,1778415655500,938.0,2.9137676,-2.042741,-0.30337137,-1.4694363,-3.2284229,7.394371
954,1778415655510,939.0,2.9137676,-2.042741,-0.30337137,-1.4694363,-3.2284229,7.394371
955,1778415655520,940.0,2.6643019,-2.1034155,-0.2660521,-0.63209283,-4.267963,6.9354587
956,1778415655530,941.0,2.769186,-2.3130617,-0.24672171,-0.32620203,-4.424039,7.0533557
957,1778415655540,942.0,2.830653,-2.333063,-0.23220867,-0.15042557,-4.4419065,7.1799574
958,1778415655550,943.0,2.830653,-2.333063,-0.23220867,-0.15042557,-4.4419065,7.1799574
959,1778415655560,,,,,,,
960,1778415655570,944.0,3.2175658,-2.3636136,-0.24269708,0.3642284,-4.373184,8.013025
961,1778415655580,945.0,3.3805022,-2.2300692,-0.17409553,0.33567044,-4.044844,8.487362
962,1778415655590,946.0,3.6552742,-1.9495649,-0.21476863,0.10644327,-3.4440582,8.990868
963,1778415655600,947.0,3.95767,-1.5636888,-0.15787506,-0.37140608,-2.8189905,9.363647
964,1778415655610,948.0,4.124143,-1.270623,-0.043051295,-0.9613492,-2.1329887,9.532094
965,1778415655620,949.0,4.124143,-1.270623,-0.043051295,-0.9613492,-2.1329887,9.532094
966,1778415655630,950.0,4.319886,0.07634591,0.6510136,-3.3082933,0.43295074,9.028283
967,1778415655640,951.0,4.2366495,0.47844255,0.8599892,-4.351651,1.5671748,8.232936
968,1778415655650,952.0,4.1860976,0.6897963,0.9883504,-4.6305113,1.9147571,7.680714
969,1778415655660,953.0,4.5586805,0.907431,1.0250598,-3.876551,1.5908458,7.0866475
970,1778415655670,954.0,6.3547,1.6903424,1.0670744,-0.33322698,-0.82726425,7.401243
971,1778415655680,955.0,6.3547,1.6903424,1.0670744,-0.33322698,-0.82726425,7.401243
972,1778415655690,956.0,6.3547,1.6903424,1.0670744,-0.33322698,-0.82726425,7.401243
973,1778415655700,957.0,6.3547,1.6903424,1.0670744,-0.33322698,-0.82726425,7.401243
974,1778415655710,958.0,8.156207,2.0586567,1.2006798,2.314721,-3.163213,-3.2884402
975,1778415655720,959.0,8.156207,2.0586567,1.2006798,2.314721,-3.163213,-3.2884402
976,1778415655730,960.0,7.429092,1.1740929,1.4747812,1.947133,-1.4094188,-5.4136405
977,1778415655740,961.0,6.5410523,0.17775428,1.0643305,1.6314683,0.8147415,-6.74212
978,1778415655750,962.0,6.102124,-0.42715907,0.6249755,1.5442673,1.7183639,-7.263646
979,1778415655760,963.0,4.9887056,-1.8245578,-0.2842239,1.4961617,2.0044017,-7.508603
980,1778415655770,964.0,4.5203247,-1.896574,-0.16866837,1.1893547,1.7131716,-6.840469
981,1778415655780,965.0,4.1023126,-1.6095451,0.11622629,0.5897904,2.132836,-6.0310726
982,1778415655790,966.0,4.1023126,-1.6095451,0.11622629,0.5897904,2.132836,-6.0310726
983,1778415655800,967.0,4.1023126,-1.6095451,0.11622629,0.5897904,2.132836,-6.0310726
984,1778415655810,968.0,4.1023126,-1.6095451,0.11622629,0.5897904,2.132836,-6.0310726
985,1778415655820,969.0,3.205492,-0.53033584,0.04835648,-1.4129313,5.9168406,-4.5898886
986,1778415655830,970.0,3.0164566,-0.31831124,-0.026160065,-1.3020593,6.045275,-4.74627
987,1778415655840,971.0,3.0164566,-0.31831124,-0.026160065,-1.3020593,6.045275,-4.74627
988,1778415655850,972.0,3.0164566,-0.31831124,-0.026160065,-1.3020593,6.045275,-4.74627
989,1778415655860,973.0,2.6805832,-0.21068303,0.014817937,-0.1498147,5.4550266,-5.6248474
990,1778415655870,974.0,2.4684367,-0.2856264,0.018537667,1.9749273,4.180151,-7.0012794
991,1778415655880,975.0,2.4098969,-0.3992306,-0.02628202,2.928488,3.5801284,-7.863363
992,1778415655890,976.0,2.4098969,-0.3992306,-0.02628202,2.928488,3.5801284,-7.863363
993,1778415655900,977.0,2.4098969,-0.3992306,-0.02628202,2.928488,3.5801284,-7.863363
994,1778415655910,978.0,2.4098969,-0.3992306,-0.02628202,2.928488,3.5801284,-7.863363
995,1778415655920,979.0,2.388432,-1.2609272,-0.4996633,4.16549,1.1348349,-10.96274
996,1778415655930,980.0,2.3402586,-1.48716,-0.5739969,3.892128,0.07360926,-11.35797
997,1778415655940,981.0,2.3402586,-1.48716,-0.5739969,3.892128,0.07360926,-11.35797
998,1778415655950,982.0,2.3402586,-1.48716,-0.5739969,3.892128,0.07360926,-11.35797
999,1778415655960,983.0,2.1596992,-1.770896,-0.41307288,2.3631322,-1.4616479,-10.740385
1000,1778415655970,984.0,2.077987,-1.7408942,-0.30788383,1.5825992,-1.4488196,-10.06935
1001,1778415655980,985.0,2.0391433,-1.6838177,-0.2987979,0.74296486,-1.1676689,-9.28225
1002,1778415655990,986.0,2.0391433,-1.6838177,-0.2987979,0.74296486,-1.1676689,-9.28225
1003,1778415656000,987.0,2.0391433,-1.6838177,-0.2987979,0.74296486,-1.1676689,-9.28225
1004,1778415656010,988.0,2.0391433,-1.6838177,-0.2987979,0.74296486,-1.1676689,-9.28225
1005,1778415656020,989.0,1.9921284,-1.2753183,-0.31812832,-2.281429,0.8242099,-6.0996423
1006,1778415656030,990.0,2.0152395,-1.1847032,-0.32703125,-2.6134343,1.2156218,-5.6760073
1007,1778415656040,991.0,2.0653646,-1.0289015,-0.39477912,-3.0439415,1.8031214,-5.153412
1008,1778415656050,992.0,2.146406,-0.921944,-0.50765157,-3.2618678,2.2035437,-4.8655415
1009,1778415656060,993.0,2.2223856,-0.85596454,-0.6245487,-3.2371275,2.347097,-4.7884197
1010,1778415656070,994.0,2.259888,-0.8182185,-0.7397383,-2.9142854,2.182469,-4.914258
1011,1778415656080,995.0,2.2372646,-0.82992643,-0.7677887,-2.592054,1.9730947,-5.0805664
1012,1778415656090,,,,,,,
1013,1778415656100,996.0,2.1679316,-0.8596233,-0.7770575,-2.2308798,1.7684549,-5.236184
1014,1778415656110,997.0,2.1679316,-0.8596233,-0.7770575,-2.2308798,1.7684549,-5.236184
1015,1778415656120,998.0,2.1679316,-0.8596233,-0.7770575,-2.2308798,1.7684549,-5.236184
1016,1778415656130,999.0,1.7443092,-0.9857892,-0.65266,-1.6132951,1.5696182,-5.4690766
