id,timestamp,id,acc_x,acc_y,acc_z,gyro_x,gyro_y,gyro_z
0,1778416226880,0.0,-0.47551554,0.6841862,1.3237967,0.90056807,1.7702875,1.589624
1,1778416226890,1.0,-0.3679483,0.6910769,1.3744705,1.0680978,2.3012822,1.5373951
2,1778416226900,2.0,-0.3679483,0.6910769,1.3744705,1.0680978,2.3012822,1.5373951
3,1778416226910,3.0,-0.3679483,0.6910769,1.3744705,1.0680978,2.3012822,1.5373951
4,1778416226920,4.0,-0.31459153,0.52807957,1.042012,1.1435398,2.4998133,1.5601498
5,1778416226930,5.0,-0.42825672,0.5441781,1.0146323,0.9550878,1.8726074,1.772731
6,1778416226940,6.0,-0.3621553,0.53875095,1.2483655,0.6302602,1.5114334,2.0044017
7,1778416226950,7.0,-0.3621553,0.53875095,1.2483655,0.6302602,1.5114334,2.0044017
8,1778416226960,8.0,-0.3621553,0.53875095,1.2483655,0.6302602,1.5114334,2.0044017
9,1778416226970,9.0,-0.24190436,0.7397383,1.4130702,-0.30100384,1.6103935,1.6137533
10,1778416226980,10.0,-0.15080148,0.667417,1.3475176,-0.40408736,1.4866933,1.4555391
11,1778416226990,11.0,-0.0837244,0.62735367,1.331968,-0.47769663,1.2976305,1.2455542
12,1778416227000,12.0,-0.0837244,0.62735367,1.331968,-0.47769663,1.2976305,1.2455542
13,1778416227010,13.0,-0.0837244,0.62735367,1.331968,-0.47769663,1.2976305,1.2455542
14,1778416227020,14.0,0.0075004376,0.29379764,1.0281088,-0.35308012,0.9796751,0.91339624
15,1778416227030,15.0,-0.029818814,0.34312975,1.0464635,-0.56489766,0.42730024,1.0273226
16,1778416227040,16.0,0.026647896,0.3550207,0.933774,-0.7325801,0.4089743,1.1354458
17,1778416227050,17.0,0.026647896,0.3550207,0.933774,-0.7325801,0.4089743,1.1354458
18,1778416227060,18.0,0.026647896,0.3550207,0.933774,-0.7325801,0.4089743,1.1354458
19,1778416227070,,,,,,,
20,1778416227080,19.0,0.29330978,0.39746222,0.57015526,-1.2496775,0.09101892,1.2967142
21,1778416227090,20.0,0.29330978,0.39746222,0.57015526,-1.2496775,0.09101892,1.2967142
22,1778416227100,21.0,0.2915414,0.4446601,0.5041757,-1.2240212,0.065515295,1.0823005
23,1778416227110,22.0,0.2915414,0.4446601,0.5041757,-1.2240212,0.065515295,1.0823005
24,1778416227120,23.0,0.23141594,0.40081608,0.48569906,-1.2383766,-0.023823744,0.7863363
25,1778416227130,24.0,0.22336671,0.29696855,0.47758886,-1.3355042,-0.05009095,0.19013181
26,1778416227140,25.0,0.20031658,0.19074284,0.4997243,-1.3768903,-0.06429356,0.18432859
27,1778416227150,26.0,0.16811956,0.10409144,0.5188717,-1.34314,-0.008857546,0.3651447
28,1778416227160,27.0,0.16811956,0.10409144,0.5188717,-1.34314,-0.008857546,0.3651447
29,1778416227170,28.0,0.16811956,0.10409144,0.5188717,-1.34314,-0.008857546,0.3651447
30,1778416227180,29.0,0.29861498,-0.15116736,0.1589727,-0.7330383,0.2593123,0.6983717
31,1778416227190,30.0,0.21885422,-0.08171208,0.25178298,0.04184427,-0.22128594,1.0742066
32,1778416227200,31.0,0.33733675,-0.13750802,0.19379179,0.3184135,-0.43493605,1.193478
33,1778416227210,32.0,0.33733675,-0.13750802,0.19379179,0.3184135,-0.43493605,1.193478
34,1778416227220,33.0,0.33733675,-0.13750802,0.19379179,0.3184135,-0.43493605,1.193478
35,1778416227230,34.0,0.44917256,-0.052076213,0.2906267,0.77457714,-0.5448918,1.2620476
36,1778416227240,35.0,0.5943639,-0.062442668,0.2789797,1.3141239,-0.8940013,1.1950052
37,1778416227250,36.0,0.6549163,-0.12890996,0.23245259,1.4735597,-1.0986412,1.2469287
38,1778416227260,37.0,0.6549163,-0.12890996,0.23245259,1.4735597,-1.0986412,1.2469287
39,1778416227270,38.0,0.6549163,-0.12890996,0.23245259,1.4735597,-1.0986412,1.2469287
40,1778416227280,39.0,0.8715753,-0.13055639,0.4617343,0.73991054,-1.7420349,2.0218112
41,1778416227290,40.0,0.8859054,-0.039758418,0.54917836,0.40775254,-1.842675,2.1056526
42,1778416227300,41.0,0.7469338,0.17921777,0.8178526,-0.22388211,-1.820073,2.0007365
43,1778416227310,42.0,0.7469338,0.17921777,0.8178526,-0.22388211,-1.820073,2.0007365
44,1778416227320,43.0,0.7469338,0.17921777,0.8178526,-0.22388211,-1.820073,2.0007365
45,1778416227330,44.0,0.7469338,0.17921777,0.8178526,-0.22388211,-1.820073,2.0007365
46,1778416227340,45.0,0.9990217,0.4908213,0.9799352,-1.3797919,-2.5192082,2.4199426
47,1778416227350,46.0,1.1079915,0.6057671,0.9856673,-1.4871514,-3.173445,2.744312
48,1778416227360,47.0,1.2390966,0.71150494,1.0317065,-1.4613423,-3.856087,3.0611985
49,1778416227370,48.0,1.4274613,0.813584,1.2142782,-1.2861768,-4.774828,3.4019086
50,1778416227380,49.0,1.586739,0.971642,1.5760676,-0.97341377,-5.3662987,3.487277
51,1778416227390,50.0,1.6489986,1.1382982,1.8394367,-0.5215262,-5.322927,3.2834008
52,1778416227400,51.0,1.5996665,1.2242178,1.8804755,-0.07620544,-4.970916,2.9637654
53,1778416227410,52.0,1.4449013,1.2479386,1.7359549,0.38515055,-4.504368,2.6123652
54,1778416227420,53.0,1.2092168,1.1961673,1.3421515,0.8935431,-4.117537,2.2750149
55,1778416227430,54.0,0.9617634,1.1634215,0.94145733,1.3264939,-4.0850086,2.0039434
56,1778416227440,55.0,0.7104073,1.1342735,0.6274147,1.6859881,-4.383722,1.8579466
57,1778416227450,56.0,0.6641851,1.0438414,0.49435812,1.7719674,-4.9897,1.824349
58,1778416227460,57.0,0.5704601,1.2129366,0.6711977,1.6285667,-5.1940346,1.7938058
59,1778416227470,58.0,0.53673863,1.3016003,0.8858444,1.2982414,-4.9521317,1.7386752
60,1778416227480,59.0,0.3245921,1.4364862,1.2525731,0.517861,-3.5246925,1.7252362
61,1778416227490,60.0,-0.19616999,1.7200394,1.4580729,-0.47601673,-0.713796,1.9779817
62,1778416227500,61.0,-0.119397216,1.5519809,1.0434146,-1.0259482,1.0656544,1.74738
63,1778416227510,62.0,-0.04981998,1.3850808,0.7274814,-1.396438,1.8008307,1.2652546
64,1778416227520,63.0,-0.122324206,1.2601346,0.61369437,-1.4990633,2.278833,1.0296134
65,1778416227530,64.0,-0.34837398,1.2478777,0.46234405,-1.258077,2.494621,0.86116725
66,1778416227540,65.0,-0.32032356,1.0985397,0.39599872,-0.690125,2.5421157,0.6107125
67,1778416227550,66.0,-0.33715382,0.9830452,0.3919131,-0.010842858,2.2899811,0.5180137
68,1778416227560,67.0,-0.29178533,0.92572474,0.509359,0.8491027,1.9872974,0.4353942
69,1778416227570,68.0,-0.18970619,0.8799294,0.56661844,1.9109392,1.8584048,0.3034473
70,1778416227580,69.0,-0.058540005,0.85498893,0.59058326,2.7609582,1.805565,0.18234327
71,1778416227590,70.0,0.14220342,0.9387743,0.626317,3.6007452,1.6247488,-0.03436117
72,1778416227600,71.0,0.20684133,0.9904236,0.6617459,3.9892554,1.5141822,-0.18524489
73,1778416227610,72.0,0.3728876,1.2158027,0.8115718,4.3954806,1.4298828,-0.39385536
74,1778416227620,73.0,0.5608254,1.4080089,0.96584904,4.4350343,1.2680036,-0.47647488
75,1778416227630,74.0,0.93743277,1.5533223,1.1493354,4.2520804,1.0506883,-0.44058657
76,1778416227640,,,,,,,
77,1778416227650,75.0,2.0065804,1.7536389,1.8324851,4.2336016,0.07742717,-0.3831652
78,1778416227660,76.0,2.3785534,1.7410163,2.0276792,4.2336016,0.07742717,-0.3831652
79,1778416227670,77.0,2.6676557,1.6141796,2.0906098,4.5915685,-0.09941832,-0.5093089
80,1778416227680,78.0,2.6981452,1.3869712,2.0568273,5.3001723,-0.56673026,-1.3148874
81,1778416227690,79.0,2.672107,1.027438,1.8859026,5.1315737,-0.7298313,-1.5838208
82,1778416227700,80.0,2.5325258,0.75973946,1.7790672,4.55904,-0.7809912,-1.6687311
83,1778416227710,81.0,2.5325258,0.75973946,1.7790672,4.55904,-0.7809912,-1.6687311
84,1778416227720,82.0,2.3776996,0.5637524,1.7127218,4.0813437,-0.68798697,-1.7017179
85,1778416227730,83.0,1.9312103,0.12025091,1.5302722,3.200934,-0.32375857,-1.765706
86,1778416227740,84.0,1.0832338,-0.5733261,1.1961673,1.7272215,0.5925393,-1.4278975
87,1778416227750,85.0,1.0832338,-0.5733261,1.1961673,1.7272215,0.5925393,-1.4278975
88,1778416227760,86.0,0.70351666,-1.1032351,0.5032001,1.1032226,1.024421,-0.28053987
89,1778416227770,87.0,0.32379937,-0.85279363,0.31587207,1.1433871,0.66981375,0.43799037
90,1778416227780,88.0,0.251722,-0.8359024,-0.04634417,1.2311989,-0.045662176,0.7834347
91,1778416227790,89.0,0.27556485,-0.87767315,-0.21501255,1.4292719,-1.1297953,1.0760391
92,1778416227800,90.0,0.2561735,-0.8308411,-0.20696329,1.6476563,-1.8942931,1.2906055
93,1778416227810,91.0,0.24007498,-0.7945585,-0.10348164,1.8073975,-2.410169,1.4277447
94,1778416227820,92.0,0.24373372,-0.8069983,-0.0032318959,1.8510745,-2.6552784,1.5712981
95,1778416227830,93.0,0.23525764,-0.8149866,0.15299673,1.8510745,-2.6552784,1.5712981
96,1778416227840,94.0,0.21202457,-0.8499886,0.19269417,1.5115861,-2.0563252,1.7308867
97,1778416227850,95.0,0.155131,-0.91907805,0.245868,1.2247849,-1.398576,1.6614008
98,1778416227860,96.0,0.08409027,-1.012864,0.124580435,0.97341377,-0.7677049,1.6317738
99,1778416227870,97.0,-0.0395145,-1.1429325,-0.14269125,0.767094,-0.3733914,1.755474
100,1778416227880,98.0,-0.18318142,-1.1515306,-0.38337603,0.6076582,-0.32788193,1.9077321
101,1778416227890,99.0,-0.19007207,-1.2172052,-0.5522273,0.48395798,-0.6780604,2.1164954
102,1778416227900,100.0,-0.14732568,-1.3122716,-0.54692215,0.37766743,-1.2707524,2.5118778
103,1778416227910,101.0,-0.033843435,-1.3409319,-0.4557583,0.2499966,-1.6956092,2.9811752
104,1778416227920,102.0,0.04835648,-1.3369682,-0.3972183,0.14996742,-1.8493946,3.258508
105,1778416227930,103.0,0.1908648,-1.2339134,-0.2329404,-0.13805555,-1.9031507,3.7187948
106,1778416227940,104.0,0.34617874,-1.141713,-0.11543357,-0.5183192,-1.6308575,3.986201
107,1778416227950,105.0,0.6427204,-0.9848745,-0.057625312,-0.9963212,-1.1988231,4.1040983
108,1778416227960,106.0,0.78839964,-0.8216333,-0.033843435,-1.3080152,-0.88712907,4.041637
109,1778416227970,107.0,1.2261691,-0.550215,-0.12860507,-1.9042196,-0.4689918,3.9832995
110,1778416227980,108.0,1.5808849,-0.41301188,-0.11665315,-2.246915,-0.5213735,4.07722
111,1778416227990,109.0,2.652167,-0.073540874,0.19299906,-3.0825787,-0.7313584,4.9419
112,1778416228000,110.0,3.5990517,0.66753894,0.406792,-3.6758816,-1.029308,5.586057
113,1778416228010,111.0,4.343058,1.5943004,0.8026688,-3.811341,-1.1988231,5.3644657
114,1778416228020,112.0,4.720458,2.017191,1.1051865,-3.4755177,-0.9126327,4.4487786
115,1778416228030,113.0,5.0833454,2.5424044,1.6600358,-2.8489227,-0.24220806,3.3899968
116,1778416228040,114.0,4.6838098,2.851081,1.5730796,-1.6528486,1.1498011,1.7195857
117,1778416228050,115.0,4.2254295,2.7253418,1.1319562,-0.5821546,1.969735,0.22464569
118,1778416228060,116.0,3.489106,2.376663,0.49374834,0.57925296,2.137723,-1.2916746
119,1778416228070,117.0,2.670034,1.9847499,-0.10939662,1.5244142,1.6113098,-2.4165828
120,1778416228080,118.0,2.0945735,1.6614993,-0.39666948,2.0161607,0.8750645,-3.030808
121,1778416228090,119.0,1.6522305,1.3769706,-0.5095419,2.271808,0.119729586,-3.3476942
122,1778416228100,120.0,1.1145772,1.071343,-0.4867357,2.2853997,-0.6776023,-3.4626896
123,1778416228110,121.0,0.8952351,0.96920294,-0.45417285,2.1474967,-0.8927795,-3.4322991
124,1778416228120,122.0,0.62424374,0.8462079,-0.4042309,1.754405,-1.1027645,-3.3050864
125,1778416228130,123.0,0.41209725,0.7612639,-0.30757892,1.1246029,-1.1849259,-3.154508
126,1778416228140,124.0,0.30428603,0.7132733,-0.2154394,0.60994893,-1.1157454,-3.1149547
127,1778416228150,125.0,0.24659975,0.67839324,-0.1367153,0.25244007,-0.9728029,-3.157715
128,1778416228160,126.0,0.21861032,0.62735367,-0.06768687,-0.10522154,-0.7031059,-3.2968397
129,1778416228170,127.0,0.21952501,0.57228947,-0.057625312,-0.35048392,-0.40882155,-3.4982727
130,1778416228180,,,,,,,
131,1778416228190,128.0,0.17470531,0.41843903,0.0086590415,-0.6226244,0.089491755,-3.8337903
132,1778416228200,129.0,0.158058,0.30587152,0.031282313,-0.728915,0.37827832,-3.9472585
133,1778416228210,130.0,0.18123008,0.18305947,0.045063604,-0.8174904,0.6236934,-3.981467
134,1778416228220,131.0,0.18123008,0.18305947,0.045063604,-0.8174904,0.6236934,-3.981467
135,1778416228230,132.0,0.22062263,0.11433593,0.05116152,-0.8750645,0.743423,-3.9721513
136,1778416228240,133.0,0.30776188,0.015854584,0.06695513,-1.0096076,0.87796605,-3.9217548
137,1778416228250,134.0,0.480028,-0.027562585,0.12159246,-1.1508701,0.97402465,-3.7916405
138,1778416228260,135.0,0.6553431,0.012805625,0.17220518,-1.1262828,1.0656544,-3.6987891
139,1778416228270,136.0,0.9209684,0.234221,0.34794715,-0.42394048,1.400714,-3.6430476
140,1778416228280,137.0,0.9874967,0.2976393,0.37209487,0.078343466,1.593442,-3.7530034
141,1778416228290,138.0,1.0583545,0.3463007,0.38276625,0.68951416,1.7359263,-3.8556287
142,1778416228300,139.0,1.0583545,0.3463007,0.38276625,0.68951416,1.7359263,-3.8556287
143,1778416228310,140.0,0.9201756,0.46825904,0.37764397,1.4225525,1.9599612,-3.9629884
144,1778416228320,141.0,0.8509643,0.5024074,0.3694118,1.4291192,2.0201313,-3.9445095
145,1778416228330,142.0,0.8509643,0.5024074,0.3694118,1.4291192,2.0201313,-3.9445095
146,1778416228340,143.0,0.5894856,0.4913701,0.33062905,0.98990715,2.156507,-3.7846155
147,1778416228350,144.0,0.49807784,0.31989673,0.35142294,0.6792821,2.0822868,-3.5013268
148,1778416228360,145.0,0.4613074,0.0831146,0.4030723,0.4156938,2.007914,-2.887102
149,1778416228370,146.0,0.43258622,-0.052686002,0.46435636,0.27488935,1.9969184,-2.162463
150,1778416228380,147.0,0.34709343,-0.06768687,0.51435924,0.2846632,2.1841488,-0.9326385
151,1778416228390,148.0,0.24574605,-0.050185855,0.4290494,0.41309762,2.357329,-0.19960022
152,1778416228400,149.0,0.17427845,-0.09476163,0.29873693,0.54382277,2.4051292,0.48075095
153,1778416228410,150.0,0.079029,-0.17397358,0.11323831,0.61575216,2.2397375,1.3362677
154,1778416228420,151.0,0.007622396,-0.26788148,-0.06445498,0.6072,1.9107865,2.0210476
155,1778416228430,152.0,-0.020549979,-0.44075742,-0.25446606,0.5655085,1.2490667,2.8452575
156,1778416228440,153.0,-0.020549979,-0.44075742,-0.25446606,0.5655085,1.2490667,2.8452575
157,1778416228450,154.0,0.2625763,-0.91883403,-0.33825144,0.49281552,-0.37812558,4.784144
158,1778416228460,155.0,0.5121031,-1.0471343,-0.27971146,0.52595496,-1.0377073,5.810703
159,1778416228470,156.0,0.86785555,-1.0891489,-0.19891405,0.6000224,-1.4227052,6.657057
160,1778416228480,157.0,1.2017165,-1.071221,-0.1156165,0.7405214,-1.4883732,7.152468
161,1778416228490,158.0,1.4774643,-0.98999685,-0.084578104,0.893085,-1.3756685,7.548767
162,1778416228500,159.0,1.6691217,-0.86492854,-0.110860124,1.0067059,-1.2014192,7.6568904
163,1778416228510,160.0,1.8272407,-0.56344754,-0.19446257,1.0067059,-1.2014192,7.6568904
164,1778416228520,161.0,1.8332167,-0.41929275,-0.23184279,1.1911873,-0.8891144,6.8687215
165,1778416228530,162.0,1.7849213,-0.2534904,-0.20885365,1.196685,-0.8555168,6.2997007
166,1778416228540,163.0,1.6553406,-0.18549863,-0.13921544,1.1771374,-0.6916522,5.5929294
167,1778416228550,164.0,1.4914285,-0.19251123,-0.07530928,1.0943651,-0.39095375,5.0228395
168,1778416228560,165.0,1.3126376,-0.16116793,-0.06756492,0.9476047,-0.064751714,4.584238
169,1778416228570,166.0,1.1892157,-0.12945877,-0.10567689,0.8390234,0.15057829,4.283387
170,1778416228580,167.0,1.1317123,-0.07744354,-0.20360945,0.76251256,0.24373524,3.968639
171,1778416228590,168.0,1.1144553,0.010122542,-0.27995536,0.71685034,0.05207626,3.643353
172,1778416228600,169.0,1.1587261,0.13476396,-0.34166628,0.6215554,-0.35995236,3.3279939
173,1778416228610,170.0,1.2287303,0.21952501,-0.32148215,0.4436409,-0.73532903,3.1041117
174,1778416228620,171.0,1.337822,0.3204455,-0.2865411,0.17730364,-1.0813842,2.871372
175,1778416228630,172.0,1.4923432,0.4105727,-0.22489117,-0.21838433,-1.430341,2.5702155
176,1778416228640,173.0,1.6402177,0.41118255,-0.10823802,-0.65179324,-1.5920676,2.259896
177,1778416228650,174.0,1.8331558,0.34544697,-0.006890646,-1.1665999,-1.5254833,2.0485365
178,1778416228660,175.0,1.9788959,0.37374133,0.07122366,-1.7498235,-1.3220651,1.9689714
179,1778416228670,176.0,2.0970128,0.5049075,0.1419595,-2.245846,-1.0937542,1.9694295
180,1778416228680,177.0,2.3222697,0.7094926,0.16372907,-2.8548787,-0.8046622,1.9049833
181,1778416228690,178.0,2.5892973,0.8238895,0.20098734,-3.3754885,-0.58246,1.6328428
182,1778416228700,179.0,2.7629662,0.8868201,0.2865411,-3.6943603,-0.3407101,1.26556
183,1778416228710,180.0,2.898584,0.9546288,0.37410718,-3.9258783,0.084910266,0.6751588
184,1778416228720,181.0,2.9436474,0.9634099,0.40599927,-3.965737,0.33582318,0.29535335
185,1778416228730,182.0,2.959258,0.87133133,0.44447714,-3.7739255,0.8072584,-0.45097128
186,1778416228740,183.0,2.8387022,0.825597,0.43301308,-3.3791537,1.1583532,-0.9647089
187,1778416228750,184.0,2.6102133,0.8144378,0.3667897,-2.8776336,1.3448198,-1.3878858
188,1778416228760,185.0,2.1609797,0.69424784,0.2719061,-2.4292583,1.3701707,-1.6920967
189,1778416228770,186.0,2.1609797,0.69424784,0.2719061,-1.8162551,1.3629931,-2.022575
190,1778416228780,187.0,1.9031597,0.6177799,0.2145247,-1.1846204,1.3498595,-2.284636
191,1778416228790,188.0,1.6902206,0.5666794,0.15677744,-0.5910121,1.3092369,-2.4741569
192,1778416228800,189.0,1.3634942,0.50972486,0.056649648,-0.09590584,1.2087497,-2.6297748
193,1778416228810,190.0,1.2536707,0.49515083,0.035733793,0.14187345,1.1265882,-2.7068965
194,1778416228820,,,,,,,
195,1778416228830,191.0,0.9107849,0.46466127,0.005610083,0.39614612,0.9973902,-2.7977629
196,1778416228840,192.0,0.6436351,0.43752554,0.004817354,0.48151454,0.9268353,-2.8403707
197,1778416228850,193.0,0.4320984,0.39532796,0.020915855,0.45142943,0.925919,-2.8081474
198,1778416228860,194.0,0.28355312,0.37014353,0.05372265,0.3669773,0.9987647,-2.6861272
199,1778416228870,195.0,0.11409202,0.40349916,0.0717115,0.2603813,1.268309,-2.460718
200,1778416228880,196.0,0.079029,0.44246486,0.056039855,0.33292156,1.3874277,-2.4269676
201,1778416228890,197.0,0.03561183,0.46051466,0.042929336,0.5109888,1.4515685,-2.5008824
202,1778416228900,198.0,0.025306353,0.43905002,0.03969744,0.6423248,1.4592043,-2.5867088
203,1778416228910,199.0,0.025306353,0.43905002,0.03969744,0.6423248,1.4592043,-2.5867088
204,1778416228920,200.0,0.019513333,0.3363001,0.08848077,0.7771733,1.5187637,-2.7273605
205,1778416228930,201.0,0.019513333,0.3363001,0.08848077,0.7771733,1.5187637,-2.7273605
206,1778416228940,202.0,0.07555319,0.2622714,0.11988505,0.79381937,1.6247488,-2.698039
207,1778416228950,203.0,0.19287711,0.2798334,0.17622979,0.93584555,1.7809776,-2.4165828
208,1778416228960,204.0,0.32142118,0.3728876,0.19708468,1.0693196,1.765706,-2.2821925
209,1778416228970,205.0,0.4364889,0.509359,0.24300198,1.2098186,1.707063,-2.2713497
210,1778416228980,206.0,0.58320475,0.6764419,0.27062553,1.4706581,1.6345227,-2.4662156
211,1778416228990,207.0,0.734677,0.76559347,0.3084936,1.677436,1.4944818,-2.7033842
212,1778416229000,208.0,0.9136509,0.8377318,0.37740007,1.9026926,1.3159565,-2.9984322
213,1778416229010,209.0,1.0588423,0.8689531,0.4486847,2.0578523,1.1414018,-3.14336
214,1778416229020,210.0,1.0588423,0.8689531,0.4486847,2.0578523,1.1414018,-3.14336
215,1778416229030,211.0,1.4593534,0.8963937,0.68193007,2.2522602,0.9992228,-2.9106202
216,1778416229040,212.0,1.4593534,0.8963937,0.68193007,2.2522602,0.9992228,-2.9106202
217,1778416229050,213.0,1.7315645,1.0642694,0.65266,2.4591908,0.6748534,-2.897181
218,1778416229060,214.0,1.8002269,0.90151596,0.70741934,2.3761132,0.40515637,-3.035084
219,1778416229070,215.0,1.8489493,0.6258292,0.81102294,2.0825922,0.34040466,-2.9967523
220,1778416229080,216.0,1.8789511,0.39484012,0.86437976,1.6694947,0.47784933,-2.6473372
221,1778416229090,217.0,1.8446808,0.23019636,0.90194285,1.2852604,0.79611015,-2.2000313
222,1778416229100,218.0,1.7313205,0.12598296,0.889869,1.0181596,1.3127494,-1.7965547
223,1778416229110,219.0,1.5259427,-0.008537084,0.7930341,0.79244494,1.8579466,-1.3921618
224,1778416229120,220.0,1.3878858,-0.08122425,0.7401651,0.68294734,2.1468859,-1.1152872
225,1778416229130,221.0,1.3878858,-0.08122425,0.7401651,0.68294734,2.1468859,-1.1152872
226,1778416229140,222.0,0.7981563,-0.19184047,0.25269768,0.67073005,2.5224154,-0.12965615
227,1778416229150,223.0,0.57771665,-0.23605035,-0.019086478,0.9297369,2.1919372,0.36880988
228,1778416229160,224.0,0.4454528,-0.28849244,-0.20995127,1.2108877,1.6730071,0.7678576
229,1778416229170,225.0,0.3187381,-0.39685243,-0.35087416,1.5482379,0.8536842,1.2649492
230,1778416229180,226.0,0.24977067,-0.52612823,-0.4242321,1.8274034,0.02733622,1.7650951
231,1778416229190,227.0,0.23452587,-0.6279634,-0.41435343,2.0173824,-0.68401635,2.2514966
232,1778416229200,228.0,0.27385744,-0.68193007,-0.33532444,2.1168008,-1.078788,2.6096163
233,1778416229210,229.0,0.32379937,-0.67979574,-0.19934091,2.198504,-1.2492194,2.9927816
234,1778416229220,230.0,0.35837457,-0.67138064,-0.12171442,2.2116377,-1.1443033,3.1531336
235,1778416229230,231.0,0.41630477,-0.6932112,-0.042502478,2.0966423,-0.7275405,3.2943962
236,1778416229240,232.0,0.41630477,-0.6932112,-0.042502478,2.0966423,-0.7275405,3.2943962
237,1778416229250,233.0,0.377583,-0.73217684,-0.05768629,1.2560917,0.474795,3.216511
238,1778416229260,234.0,0.2930049,-0.69473565,-0.1261659,0.6078109,1.0065532,3.100141
239,1778416229270,235.0,0.18836464,-0.6344882,-0.29690757,-0.05665775,1.3055718,2.9469666
240,1778416229280,236.0,0.09268834,-0.6012546,-0.51807904,-0.59773165,1.1685852,2.7808113
241,1778416229290,237.0,0.06317442,-0.62241435,-0.64186674,-0.9465357,0.6035349,2.6783388
242,1778416229300,238.0,0.08573671,-0.6893085,-0.6872962,-1.118647,-0.023823744,2.6949847
243,1778416229310,239.0,0.16488767,-0.722908,-0.6343663,-1.2557862,-0.8492554,2.809064
244,1778416229320,240.0,0.27965048,-0.71052927,-0.506432,-1.3034338,-1.2481505,2.8835895
245,1778416229330,241.0,0.40740183,-0.63625664,-0.35459387,-1.2915218,-1.6052011,2.962391
246,1778416229340,242.0,0.64168376,-0.5603376,-0.3228847,-1.1487321,-1.6879734,2.9743028
247,1778416229350,243.0,0.8879177,-0.46502712,-0.34288585,-1.0477866,-1.7440202,2.9022207
248,1778416229360,244.0,1.2685496,-0.21678093,-0.35843554,-0.98272943,-1.9350684,2.7252226
249,1778416229370,245.0,1.7197956,0.08854175,-0.30989614,-1.0590876,-2.3098342,2.595719
250,1778416229380,246.0,2.263059,0.3506302,-0.18604743,-1.6885842,-2.9538388,3.346167
251,1778416229390,247.0,2.710707,0.5669233,-0.046039272,-2.0616703,-2.8973339,3.6118934
252,1778416229400,248.0,3.1956742,0.87700236,0.18086421,-2.0616703,-2.8973339,3.6118934
253,1778416229410,,,,,,,
254,1778416229420,249.0,3.656189,1.2026312,0.40142587,-2.3689353,-2.414445,3.648698
255,1778416229430,250.0,3.8712623,1.3999597,0.43203738,-2.3545802,-2.0069978,3.510948
256,1778416229440,251.0,4.0623713,1.6063132,0.36099666,-2.0297525,-1.3599387,2.9946141
257,1778416229450,252.0,3.3946493,1.618692,-0.08024859,-1.513266,-0.88789266,2.1911736
258,1778416229460,253.0,2.9257805,1.5446633,-0.22781818,-0.31810808,-0.6779077,0.28298333
259,1778416229470,254.0,2.3386729,1.2899534,-0.36081374,0.17272215,-0.89904094,-0.49434268
260,1778416229480,255.0,1.8977938,1.0781727,-0.4177073,0.4279111,-1.1128438,-0.9230174
261,1778416229490,256.0,1.4681954,0.83181685,-0.44039157,0.42714754,-1.2649492,-1.0320568
262,1778416229500,257.0,1.1631776,0.6893695,-0.36739948,0.26740626,-1.3351988,-0.96577793
263,1778416229510,258.0,0.9568851,0.64143986,-0.2787358,0.0038179078,-1.1551461,-0.86376345
264,1778416229520,259.0,0.7530927,0.6047914,-0.18629137,-0.26465738,-0.88117313,-0.8023715
265,1778416229530,260.0,0.7530927,0.6047914,-0.18629137,-0.26465738,-0.88117313,-0.8023715
266,1778416229540,261.0,0.6232071,0.5660086,-0.12720254,-0.54137933,-0.5757405,-0.7667886
267,1778416229550,262.0,0.32904357,0.4874065,-0.056588665,-0.83199847,-0.16997325,-0.70096785
268,1778416229560,263.0,0.21976891,0.47380814,-0.06823569,-1.0606148,0.41493022,-0.61468315
269,1778416229570,264.0,0.12915388,0.49435812,-0.06854059,-0.9633345,0.5036584,-0.64843345
270,1778416229580,265.0,0.08640748,0.5105176,-0.05189327,-0.8582657,0.5224425,-0.7058548
271,1778416229590,266.0,0.022257395,0.5578984,-0.033965394,-0.58352906,0.5448918,-0.905455
272,1778416229600,267.0,-0.03000175,0.5968641,-0.06415008,-0.37720928,0.50640726,-1.1217014
273,1778416229610,268.0,-0.097749606,0.60857207,-0.07030898,-0.113926366,0.31429017,-1.4795157
274,1778416229620,269.0,-0.10372557,0.55856913,0.019513333,0.01817324,0.18325958,-1.7832683
275,1778416229630,270.0,-0.10354263,0.54741,0.053173836,0.034208454,0.19639318,-1.8800905
276,1778416229640,271.0,-0.090554066,0.5407023,0.118360564,0.039858956,0.33857206,-2.1270328
277,1778416229650,272.0,-0.059149794,0.5149081,0.1606801,0.008857546,0.66431594,-2.3893993
278,1778416229660,273.0,-0.0026830835,0.4841746,0.16263144,-0.003970624,0.9634872,-2.517223
279,1778416229670,274.0,0.10543298,0.4996633,0.13537374,0.050549097,1.3417655,-2.6224444
280,1778416229680,275.0,0.2148906,0.53600687,0.08805392,0.14523321,1.6319265,-2.660929
281,1778416229690,276.0,0.45880726,0.6107064,0.007866313,0.30818152,1.8939877,-2.6535985
282,1778416229700,277.0,0.68040556,0.731811,-0.065674566,0.46318856,1.9969184,-2.6256516
283,1778416229710,278.0,1.0289015,0.97743505,-0.16915621,0.66538495,1.9402608,-2.6241243
284,1778416229720,279.0,1.1965332,1.0912832,-0.21568331,0.72524977,1.8170186,-2.643214
285,1778416229730,280.0,1.5289307,1.2122658,-0.2697718,0.77625704,1.4524848,-2.6552784
286,1778416229740,281.0,1.9098675,1.2919656,-0.251722,0.7689266,0.9737192,-2.6192374
287,1778416229750,282.0,2.2020798,1.4395962,-0.17586392,0.71761394,0.57711494,-2.6780334
288,1778416229760,283.0,2.4129455,1.4940506,-0.13366634,0.6424775,0.27351493,-2.976288
289,1778416229770,284.0,2.560759,1.3746535,-0.06982114,0.57726765,0.050701816,-3.2953126
290,1778416229780,285.0,2.6482034,1.1321392,0.061223082,0.49953505,-0.021380283,-3.6360226
291,1778416229790,286.0,2.6011274,0.86517245,0.11799469,0.45112398,0.15118915,-3.8469238
292,1778416229800,287.0,2.4420936,0.5625938,0.119397216,0.34437528,0.40866885,-3.8687623
293,1778416229810,288.0,2.2837918,0.3901447,0.11567748,0.21303925,0.5578727,-3.7557523
294,1778416229820,289.0,1.9835303,0.16519257,0.11183579,-0.106137834,0.7852673,-3.414584
295,1778416229830,290.0,1.6618043,-0.012012896,0.08640748,-0.4578435,0.99112886,-2.9213104
296,1778416229840,291.0,1.3356878,-0.11665315,0.032318957,-0.75793105,1.1316279,-2.3087652
297,1778416229850,292.0,1.045,-0.13452004,0.0038416875,-0.9819659,1.1499538,-1.6775887
298,1778416229860,293.0,0.8451712,-0.15964346,0.012683666,-1.1073459,1.1255192,-1.1001683
299,1778416229870,294.0,0.60668176,-0.22043969,0.010854292,-1.1800389,1.0801625,-0.5830709
300,1778416229880,295.0,0.48429656,-0.32038453,-0.045002624,-1.1876748,0.98990715,-0.1965459
301,1778416229890,296.0,0.37398523,-0.44276974,-0.12506826,-1.0743593,0.6722572,0.2828306
302,1778416229900,297.0,0.28111395,-0.5402144,-0.12805626,-0.72387534,0.29184088,0.74113226
303,1778416229910,298.0,0.21184163,-0.61759704,-0.1156165,-0.29871312,0.04841107,1.0705414
304,1778416229920,299.0,0.12238518,-0.7218714,-0.1185435,0.30390546,-0.13820826,1.3884968
305,1778416229930,300.0,0.07079682,-0.82035273,-0.15866779,0.7787005,-0.23716843,1.6247488
306,1778416229940,301.0,0.042624436,-0.93981093,-0.17726645,1.2156218,-0.36132678,1.9614882
307,1778416229950,302.0,0.015427729,-1.0207303,-0.2151345,1.382388,-0.44043383,2.298686
308,1778416229960,303.0,-0.045795355,-1.0193278,-0.27178416,1.3052663,-0.50503284,2.5207355
309,1778416229970,304.0,-0.13421515,-0.97743505,-0.32282373,1.1291844,-0.52458054,2.6253462
310,1778416229980,305.0,-0.25745404,-0.9380426,-0.42081723,0.91751957,-0.5681047,2.7117836
311,1778416229990,306.0,-0.33599523,-0.9518238,-0.51387143,0.516792,-0.7672467,2.9136746
312,1778416230000,307.0,-0.32007965,-0.974813,-0.5322872,-0.04352415,-1.0764973,3.2333097
313,1778416230010,308.0,-0.26129574,-0.971825,-0.4843575,-0.5647449,-1.3316863,3.5428658
314,1778416230020,309.0,-0.13445906,-0.9200537,-0.395145,-1.2066116,-1.5728253,3.9173262
315,1778416230030,,,,,,,
316,1778416230040,310.0,-0.002134271,-0.8449273,-0.29196826,-1.7650951,-1.7217237,4.1966443
317,1778416230050,311.0,0.1656804,-0.70095557,-0.14464259,-2.1276436,-1.6835446,4.308127
318,1778416230060,312.0,0.2856874,-0.5016756,-0.11128698,-2.491872,-1.4306464,4.2581887
319,1778416230070,313.0,0.39685243,-0.3497765,-0.16610725,-2.8661797,-1.2501358,4.07386
320,1778416230080,314.0,0.8844418,-0.1484233,-0.20659742,-3.630983,-1.2363913,3.7633882
321,1778416230090,315.0,1.3871541,0.023355022,-0.1501917,-3.980398,-1.3949108,3.852269
322,1778416230100,316.0,2.0982933,0.34136137,-0.0005488125,-4.07386,-1.5812247,4.08791
323,1778416230110,317.0,2.5656376,0.5874123,0.15622863,-3.9515345,-1.6229162,4.3288965
324,1778416230120,318.0,2.5656376,0.5874123,0.15622863,-3.9515345,-1.6229162,4.3288965
325,1778416230130,319.0,3.9826713,1.689123,0.5495443,-3.4510832,-1.1914927,4.268268
326,1778416230140,320.0,3.9826713,1.689123,0.5495443,-3.4510832,-1.1914927,4.268268
327,1778416230150,321.0,4.6824074,2.1670167,0.68949145,-3.220787,-0.65377855,3.5729508
328,1778416230160,322.0,5.042916,2.379834,0.74608016,-3.0411925,1.3222178,0.47235155
329,1778416230170,323.0,5.042916,2.379834,0.74608016,-3.0411925,1.3222178,0.47235155
330,1778416230180,324.0,3.9160821,1.8033979,0.36569205,-2.6528351,2.7606528,-2.188272
331,1778416230190,325.0,3.2775695,1.496002,0.21671996,-2.0998492,2.8260152,-3.0870075
332,1778416230200,326.0,2.5156348,1.1497623,0.054820273,-2.0998492,2.8260152,-3.0870075
333,1778416230210,327.0,1.9384667,0.8140719,-0.09573729,-1.4990633,2.6284003,-3.5446982
334,1778416230220,328.0,1.9384667,0.8140719,-0.09573729,-0.70554936,2.159714,-3.7491853
335,1778416230230,329.0,1.2185466,0.4897237,-0.24135554,0.26282477,1.0980303,-3.332117
336,1778416230240,330.0,0.95603144,0.4309398,-0.26678386,0.46792278,0.6206391,-3.051119
337,1778416230250,331.0,0.95603144,0.4309398,-0.26678386,0.46792278,0.6206391,-3.051119
338,1778416230260,332.0,0.66046536,0.33678794,-0.16872935,0.48899764,0.17302758,-2.7301095
339,1778416230270,333.0,0.55393475,0.29940772,-0.120007,0.45112398,0.23839016,-2.6868908
340,1778416230280,334.0,0.4598439,0.2273913,-0.09878625,0.42943826,0.4569272,-2.6752844
341,1778416230290,335.0,0.38794947,0.14019111,-0.11262852,0.45158213,0.70157874,-2.660471
342,1778416230300,336.0,0.32276276,0.06561358,-0.15275282,0.52473325,0.8761335,-2.607173
343,1778416230310,337.0,0.272272,0.02414775,-0.18976717,0.59712076,0.9324858,-2.5502098
344,1778416230320,338.0,0.21641506,0.0011586042,-0.23367217,0.6944011,0.8897252,-2.5109615
345,1778416230330,339.0,0.21641506,0.0011586042,-0.23367217,0.6944011,0.8897252,-2.5109615
346,1778416230340,340.0,0.20647547,-0.01396423,-0.2622714,0.75334954,0.8013025,-2.5042422
347,1778416230350,341.0,0.18592548,-0.0026221042,-0.18537667,0.9503536,0.38896844,-2.6977336
348,1778416230360,342.0,0.15757017,-0.005366167,-0.113299295,1.0042624,0.33429602,-2.8586967
349,1778416230370,343.0,0.13482493,-0.012622688,-0.085431814,1.0567969,0.36651915,-2.9594893
350,1778416230380,344.0,0.1086039,-0.017927876,-0.061954834,1.0963504,0.39645153,-3.0320296
351,1778416230390,345.0,0.08287069,-0.004695396,-0.052198168,1.1131492,0.42531493,-3.0712776
352,1778416230400,346.0,0.052076213,0.009939604,-0.064820856,1.1088731,0.41920626,-3.1250339
353,1778416230410,347.0,0.038051,0.02262327,-0.0512225,1.0945178,0.33490688,-3.1728342
354,1778416230420,348.0,0.0016464376,0.06067427,-0.04256346,1.0754282,0.27229318,-3.227812
355,1778416230430,349.0,-0.072870106,0.10610375,-0.042075627,0.9980011,0.17256944,-3.2662964
356,1778416230440,350.0,-0.10994543,0.09683492,-0.048173543,0.8801041,0.029626964,-3.2114713
357,1778416230450,351.0,-0.087992944,0.02426971,-0.019635292,0.61346143,-0.30283645,-2.8629727
358,1778416230460,352.0,-0.051771317,-0.031221334,0.034087352,0.36209038,-0.6401868,-2.3409884
359,1778416230470,353.0,-0.0031709166,-0.058418043,0.10799411,0.19608775,-0.8695667,-1.8171713
360,1778416230480,354.0,0.08494398,-0.09146875,0.19153556,0.049632803,-1.0626001,-1.061073
361,1778416230490,355.0,0.19586508,-0.10366459,0.2476364,-0.009773844,-1.1537718,-0.39858958
362,1778416230500,356.0,0.31812832,-0.07049192,0.30776188,-0.002443461,-1.1728612,0.46883908
363,1778416230510,357.0,0.4309398,-0.0032928751,0.31861615,0.07803804,-1.1235338,1.340391
364,1778416230520,358.0,0.52307934,0.028294332,0.31270117,0.1685988,-1.0706941,1.9953914
365,1778416230530,359.0,0.7077852,0.066650234,0.28794363,0.25457808,-1.0180069,2.5477662
366,1778416230540,360.0,0.8884055,0.08104131,0.25361237,0.36178493,-0.9195049,3.0349312
367,1778416230550,361.0,1.1393958,0.053844605,0.16726585,0.4503604,-0.84864455,3.4833064
368,1778416230560,362.0,1.2800137,0.042502478,0.13128816,0.45631635,-0.82451534,3.808745
369,1778416230570,363.0,1.4240465,0.04664906,0.08695629,0.43997568,-0.75808376,3.9643626
370,1778416230580,364.0,1.5918611,0.03225798,0.026586918,0.38515055,-0.6406449,4.1118865
371,1778416230590,365.0,1.7527853,0.07695571,0.019391375,0.24877487,-0.49632803,4.219857
372,1778416230600,366.0,1.7801647,0.11982407,0.020976834,0.10064005,-0.30497447,4.2192464
373,1778416230610,367.0,1.7772378,0.09159071,0.035733793,-0.14187345,0.0062613687,4.1670175
374,1778416230620,368.0,1.6693046,0.002500146,0.027440626,-0.43585235,0.4202753,4.1265473
375,1778416230630,369.0,1.5832632,-0.058905877,0.0052442085,-0.6776023,0.7099781,4.161214
376,1778416230640,370.0,1.4722201,-0.13836174,-0.03469715,-0.89873546,0.91614515,4.256662
377,1778416230650,371.0,1.455024,-0.1422644,-0.067199044,-1.119716,1.0778717,4.3852487
378,1778416230660,372.0,1.4528286,0.037075333,-0.085309856,-1.2299771,1.1241448,4.2432227
379,1778416230670,373.0,1.428681,0.1062867,-0.07250423,-1.290911,1.1510228,3.9526036
380,1778416230680,374.0,1.1637874,0.15433827,-0.05427146,-1.244638,1.1976013,3.2204816
381,1778416230690,375.0,1.0264013,0.14506944,-0.119397216,-1.244638,1.1976013,3.2204816
382,1778416230700,,,,,,,
383,1778416230710,376.0,0.8565744,0.117140986,-0.24361177,-0.8210029,0.86101454,2.5905268
384,1778416230720,377.0,0.8565744,0.117140986,-0.24361177,-0.8210029,0.86101454,2.5905268
385,1778416230730,378.0,0.76681304,0.14574021,-0.35434994,-0.58276546,0.34330627,2.213012
386,1778416230740,379.0,0.7136392,0.18086421,-0.37965629,-0.4821254,-0.039553523,1.9495764
387,1778416230750,380.0,0.65089166,0.18970619,-0.35904533,-0.44150287,-0.68035114,1.5309811
388,1778416230760,381.0,0.6402203,0.13506886,-0.14317909,-1.0267117,-1.4179709,1.061073
389,1778416230770,382.0,0.7189444,0.078114316,-0.08183405,-1.4784466,-1.4372132,1.0288498
390,1778416230780,383.0,0.84273213,0.04439283,-0.073845774,-1.9602666,-1.4068227,1.108415
391,1778416230790,384.0,0.9938995,0.059881546,-0.05744238,-2.3461807,-1.4372132,1.2247849
392,1778416230800,385.0,1.2172662,0.17586392,0.0056710625,-2.798679,-1.5059355,1.3846788
393,1778416230810,386.0,1.2172662,0.17586392,0.0056710625,-3.2262847,-1.5891659,1.5001323
394,1778416230820,387.0,1.8316923,0.5105786,0.2037314,-3.5631769,-1.6126842,1.5377005
395,1778416230830,388.0,2.2064703,0.7596785,0.36526522,-3.975511,-1.462106,1.3451253
396,1778416230840,389.0,2.3733091,0.9586535,0.48405263,-4.2499423,-1.1194105,0.8761335
397,1778416230850,390.0,2.3733091,0.9586535,0.48405263,-4.2499423,-1.1194105,0.8761335
398,1778416230860,391.0,2.4699612,1.0406095,0.5688137,-4.4669523,-0.5166393,0.044593163
399,1778416230870,392.0,2.4791691,0.74510443,0.500517,-4.301713,0.73884153,-1.0294607
400,1778416230880,393.0,2.4799008,0.66430706,0.31422567,-3.9866593,0.9469938,-1.0580186
401,1778416230890,394.0,2.4799008,0.66430706,0.31422567,-3.9866593,0.9469938,-1.0580186
402,1778416230900,395.0,2.473681,0.76967907,0.112689495,-3.1639764,0.4166101,-1.2224941
403,1778416230910,396.0,2.3896518,0.8029737,0.1507405,-2.6945267,0.10644327,-1.5248724
404,1778416230920,397.0,2.2583025,0.7861435,0.2087317,-2.3695462,0.062308256,-1.8781052
405,1778416230930,398.0,2.0775602,0.7410189,0.23842856,-2.2592852,0.15332718,-2.068848
406,1778416230940,399.0,1.7991294,0.6642461,0.24184339,-2.2527182,0.4437936,-2.3058636
407,1778416230950,400.0,1.7991294,0.6642461,0.24184339,-2.2527182,0.4437936,-2.3058636
408,1778416230960,401.0,1.2627566,0.51832294,0.17226616,-2.6891816,1.2687671,-2.5179865
409,1778416230970,402.0,1.2627566,0.51832294,0.17226616,-2.6891816,1.2687671,-2.5179865
410,1778416230980,403.0,0.9296274,0.46667355,0.062442668,-2.944676,1.7899879,-2.4205534
411,1778416230990,404.0,0.8319388,0.4564291,0.022501312,-2.8373163,1.8713857,-2.4055874
412,1778416231000,405.0,0.76138586,0.45197758,-0.042441502,-2.5308146,1.8504635,-2.4281893
413,1778416231010,406.0,0.69607717,0.47136897,-0.13421515,-2.096184,1.6345227,-2.511267
414,1778416231020,407.0,0.66070926,0.45911217,-0.17879093,-1.7093537,1.3562735,-2.6122124
415,1778416231030,408.0,0.6342443,0.43081784,-0.19507235,-1.341002,1.0442741,-2.7032313
416,1778416231040,409.0,0.59088814,0.40648714,-0.18549863,-0.945314,0.6947065,-2.8397598
417,1778416231050,410.0,0.5458855,0.36313096,-0.19574313,-0.6041457,0.43951756,-3.0271428
418,1778416231060,411.0,0.5458855,0.36313096,-0.19574313,-0.6041457,0.43951756,-3.0271428
419,1778416231070,412.0,0.48728454,0.24916087,-0.17537609,-0.24281894,-0.006414085,-3.2748485
420,1778416231080,413.0,0.4818574,0.20434119,-0.17025384,-0.18112154,-0.11530081,-3.3527339
421,1778416231090,414.0,0.5213109,0.17458336,-0.15610667,-0.15454891,-0.25305092,-3.4009922
422,1778416231100,415.0,0.5570447,0.181474,-0.13342242,-0.15806139,-0.37598756,-3.4353535
423,1778416231110,416.0,0.61271864,0.19604802,-0.12299499,-0.13744467,-0.48701233,-3.492011
424,1778416231120,417.0,0.6694293,0.21312219,-0.091224834,-0.09850202,-0.5873469,-3.5451565
425,1778416231130,418.0,0.7174199,0.23897736,-0.06238169,-0.029474247,-0.6421721,-3.6511416
426,1778416231140,419.0,0.7732768,0.29891986,-0.03518498,0.09697486,-0.6356053,-3.8566978
427,1778416231150,420.0,0.76565444,0.37740007,-0.031770147,0.2284636,-0.59666264,-4.0807323
428,1778416231160,421.0,0.766935,0.44069642,-0.0866514,0.35537085,-0.6432411,-4.2190933
429,1778416231170,422.0,0.82565796,0.4926507,-0.16013129,0.41874814,-0.9063713,-4.161367
430,1778416231180,423.0,0.90645534,0.55442256,-0.19677977,0.41630468,-1.3454307,-4.0199513
431,1778416231190,424.0,0.9948142,0.6474158,-0.20647547,0.38056904,-1.6888897,-4.0054436
432,1778416231200,425.0,1.0334749,0.649855,-0.18714507,0.22831088,-2.0463986,-4.0900483
433,1778416231210,426.0,1.0093882,0.51655453,-0.082626775,-0.09682214,-2.2605069,-4.0908117
434,1778416231220,427.0,0.968898,0.3141037,0.07585809,-0.54443365,-2.171015,-3.7864482
435,1778416231230,428.0,0.8737705,0.20671937,0.19653587,-0.9083566,-1.907274,-3.3260086
436,1778416231240,429.0,0.7322988,0.1636071,0.2833702,-1.2000448,-1.5219707,-2.7524061
437,1778416231250,430.0,0.6062549,0.120921694,0.3298363,-1.3814718,-1.0913107,-2.1087067
438,1778416231260,431.0,0.4374036,0.08933448,0.30928633,-1.4650075,-0.5345071,-1.0818423
439,1778416231270,432.0,0.2973954,0.09793254,0.19104773,-1.3878858,-0.3213151,-0.2771801
440,1778416231280,433.0,0.20348747,0.053417753,0.05793021,-1.2538009,-0.42424592,0.32452217
441,1778416231290,434.0,0.116836086,-0.040307228,-0.055978876,-1.0407617,-0.84131414,1.01312
442,1778416231300,435.0,0.11775078,-0.17690057,-0.102384016,-0.80741113,-1.3683381,1.6059648
443,1778416231310,436.0,0.14622805,-0.30660325,-0.1094576,-0.5991061,-1.8504635,2.1022928
444,1778416231320,437.0,0.21556135,-0.48454046,-0.10183521,-0.5004513,-2.1789563,2.461787
445,1778416231330,438.0,0.3202016,-0.6775395,-0.05780825,-0.46731192,-2.4853053,2.9236012
446,1778416231340,439.0,0.42685416,-0.8276703,-0.014513042,-0.5160284,-2.6236663,3.3411274
447,1778416231350,440.0,0.57552135,-0.9543849,0.039209604,-0.68325275,-2.69865,3.896862
448,1778416231360,441.0,0.72796935,-0.94225013,0.100859545,-0.9112582,-2.6742153,4.372726
449,1778416231370,442.0,0.89328384,-0.7442508,0.2215983,-1.426065,-2.2817345,4.6966376
450,1778416231380,,,,,,,
451,1778416231390,443.0,0.90737003,-0.66863656,0.26294217,-1.7275269,-1.8810068,4.648837
452,1778416231400,444.0,0.9122484,-0.57997286,0.23318435,-1.9859229,-1.4585935,4.5236096
453,1778416231410,445.0,0.9122484,-0.57997286,0.23318435,-2.0937407,-1.2530373,4.414876
454,1778416231420,446.0,0.883954,-0.500578,0.19440159,-2.0937407,-1.2530373,4.414876
455,1778416231430,447.0,0.8091326,-0.39508402,0.026708877,-2.182316,-1.0584768,4.0587416
456,1778416231440,448.0,0.8091326,-0.39508402,0.026708877,-2.182316,-1.0584768,4.0587416
457,1778416231450,449.0,0.8242554,-0.27934557,-0.11122601,-2.0923662,-1.3799446,3.7783542
458,1778416231460,450.0,0.92657846,-0.008415125,-0.13122717,-2.031127,-2.3900104,2.973692
459,1778416231470,451.0,0.9568241,0.019940188,-0.051710334,-2.1545217,-2.7501154,2.6109908
460,1778416231480,452.0,1.027682,0.009390792,0.072565205,-2.3382394,-2.8733573,2.5050056
461,1778416231490,453.0,1.1426886,0.07622396,0.1340322,-2.5686884,-2.8214338,2.4706445
462,1778416231500,454.0,1.2928803,0.15647253,0.1188484,-2.7102563,-2.7495046,2.4648414
463,1778416231510,455.0,1.5050877,0.29129747,0.102688916,-2.8614454,-2.8041768,2.540894
464,1778416231520,456.0,1.7016847,0.47191778,0.05512517,-2.9170341,-2.957046,2.5399778
465,1778416231530,457.0,1.7016847,0.47191778,0.05512517,-2.9170341,-2.957046,2.5399778
466,1778416231540,458.0,1.7016847,0.47191778,0.05512517,-2.9170341,-2.957046,2.5399778
467,1778416231550,459.0,2.51472,0.94298184,0.23800169,-3.4518468,-3.8539488,2.0986276
468,1778416231560,460.0,2.7479043,0.99139935,0.44014767,-4.158923,-3.3834298,2.0819814
469,1778416231570,461.0,2.8330312,1.0335358,0.56509393,-4.887686,-2.6569583,2.0572414
470,1778416231580,462.0,2.8166888,1.1170774,0.66967326,-5.8114667,-1.4301883,1.8823812
471,1778416231590,463.0,2.8166888,1.1170774,0.66967326,-6.4823494,-0.060170226,1.559539
472,1778416231600,464.0,2.748941,1.097808,0.76004434,-6.69096,1.264033,1.266171
473,1778416231610,465.0,2.7169878,1.1103697,0.7027239,-6.575812,1.8965839,1.1398746
474,1778416231620,466.0,2.5986881,1.2037288,0.5177131,-5.819408,2.6702447,0.8727737
475,1778416231630,467.0,2.5986881,1.2037288,0.5177131,-5.819408,2.6702447,0.8727737
476,1778416231640,468.0,2.5191712,1.2508047,0.39904767,-5.2151093,2.8008173,0.6907359
477,1778416231650,469.0,2.087561,1.2628785,-0.09848136,-2.3648121,1.9540052,-0.3203988
478,1778416231660,470.0,1.896696,1.1940941,-0.21751268,-1.3906348,1.2718215,-0.7593055
479,1778416231670,471.0,1.604118,1.0440853,-0.27093044,-0.27046058,0.27412578,-1.3373368
480,1778416231680,472.0,1.4621586,0.95548254,-0.25336844,0.19456059,-0.23014349,-1.6094772
481,1778416231690,473.0,1.1959845,0.7720573,-0.19531627,0.47067168,-0.6020077,-1.8048013
482,1778416231700,474.0,1.0288405,0.679186,-0.14988679,0.50823987,-0.68783426,-1.8774943
483,1778416231710,475.0,1.0288405,0.679186,-0.14988679,0.3811799,-0.60994893,-1.8907807
484,1778416231720,476.0,0.840171,0.57704586,-0.122751065,0.3811799,-0.60994893,-1.8907807
485,1778416231730,477.0,0.5833877,0.45045313,-0.14488651,-0.15286903,-0.1740966,-1.8150333
486,1778416231740,478.0,0.5833877,0.45045313,-0.14488651,-0.15286903,-0.1740966,-1.8150333
487,1778416231750,479.0,0.40740183,0.4012429,-0.22123243,-0.5510005,0.043982297,-1.7250835
488,1778416231760,480.0,0.3234335,0.3963646,-0.24135554,-0.8428413,0.06001751,-1.6904168
489,1778416231770,481.0,0.28977302,0.40319425,-0.24659975,-1.0300715,0.022449298,-1.703245
490,1778416231780,482.0,0.2845288,0.41203624,-0.2388554,-1.2495248,-0.095753126,-1.7476854
491,1778416231790,483.0,0.29349273,0.41502422,-0.20293866,-1.4173601,-0.24205536,-1.8318322
492,1778416231800,484.0,0.30696914,0.40727988,-0.14354497,-1.5241088,-0.34025195,-1.8897116
493,1778416231810,485.0,0.31861615,0.39819396,-0.05939371,-1.6391041,-0.37827832,-1.9570595
494,1778416231820,486.0,0.3272752,0.40563342,0.010061563,-1.745242,-0.31749722,-2.0563252
495,1778416231830,487.0,0.33672696,0.3969134,0.05195425,-1.8223637,-0.23869559,-2.1679606
496,1778416231840,488.0,0.33672696,0.3969134,0.05195425,-1.8223637,-0.23869559,-2.1679606
497,1778416231850,489.0,0.4050846,0.35209373,0.08793196,-1.8692477,-0.039553523,-2.3776402
498,1778416231860,490.0,0.48746744,0.34959355,0.09299323,-1.8672624,-0.056352317,-2.4071145
499,1778416231870,491.0,0.5579594,0.38910806,0.1343371,-1.8521434,-0.07696902,-2.4610233
500,1778416231880,492.0,0.5924126,0.45155072,0.16592431,-1.8205311,-0.036193766,-2.5909848
501,1778416231890,493.0,0.63509804,0.4861869,0.20739016,-1.7327193,0.06811147,-2.8524354
502,1778416231900,494.0,0.6522332,0.47893035,0.22635466,-1.5926784,0.17959438,-2.993087
503,1778416231910,495.0,0.6721124,0.48472342,0.20629252,-1.3833044,0.23869559,-3.072194
504,1778416231920,496.0,0.7015653,0.46850294,0.15275282,-0.98899084,0.20265454,-3.164282
505,1778416231930,497.0,0.7838872,0.41026786,0.08713923,-0.63132924,0.039095376,-3.2171218
506,1778416231940,498.0,0.7838872,0.41026786,0.08713923,-0.63132924,0.039095376,-3.2171218
507,1778416231950,499.0,0.58540004,0.34282488,-0.090737,-0.2753475,-0.17516561,-3.2699616
508,1778416231960,500.0,0.58540004,0.34282488,-0.090737,0.2771801,-0.9222538,-3.143207
509,1778416231970,501.0,0.58564395,0.19958481,-0.076711796,0.21395555,-1.3981178,-2.7479773
510,1778416231980,502.0,0.6018034,0.123299874,0.052076213,-0.100029185,-1.8651243,-1.2502885
511,1778416231990,503.0,0.6452206,0.17604686,0.13287361,-0.20311269,-1.9740111,-0.20204368
512,1778416232000,,,,,,,
513,1778416232010,504.0,0.6452206,0.17604686,0.13287361,-0.20311269,-1.9740111,-0.20204368
514,1778416232020,505.0,0.77248406,0.18086421,0.40471873,-0.13133603,-1.4588989,1.4680619
515,1778416232030,506.0,0.819499,0.16677801,0.4494165,-0.03481932,-0.75243324,2.0885482
516,1778416232040,507.0,0.819499,0.16677801,0.4494165,-0.03481932,-0.75243324,2.0885482
517,1778416232050,508.0,0.819499,0.16677801,0.4494165,-0.03481932,-0.75243324,2.0885482
518,1778416232060,509.0,0.7839482,0.10787215,0.2051949,0.15134187,0.31902438,2.724459
519,1778416232070,510.0,0.59741294,-0.14592315,-0.28434587,0.48502702,0.39553526,2.8238773
520,1778416232080,511.0,0.4996633,-0.3675824,-0.5175912,0.7338019,-0.22678372,2.948952
521,1778416232090,512.0,0.45179462,-0.60759646,-0.6278415,0.892016,-1.1815661,3.3119586
522,1778416232100,513.0,0.5057612,-0.78785086,-0.5719846,0.9016371,-1.9787452,3.7694967
523,1778416232110,514.0,0.6807714,-0.94011587,-0.32947046,0.7837401,-2.664136,4.5246787
524,1778416232120,515.0,0.85407424,-0.97487396,-0.09012721,0.5448918,-2.7554605,5.31972
525,1778416232130,516.0,1.089088,-0.8857224,0.2426361,0.15149458,-2.245388,5.9521184
526,1778416232140,517.0,1.1728123,-0.8094985,0.37130213,-0.15958855,-1.6995798,6.19341
527,1778416232150,518.0,1.1728123,-0.8094985,0.37130213,-0.15958855,-1.6995798,6.19341
528,1778416232160,519.0,1.2747085,-0.65820915,0.5003341,-0.764956,-0.552833,6.356511
529,1778416232170,520.0,1.3205649,-0.24422157,0.3430078,-2.0622811,1.497078,5.84033
530,1778416232180,521.0,1.2099487,-0.112994395,0.11494574,-2.5060747,1.8865047,5.144249
531,1778416232190,522.0,1.1046985,-0.07622396,-0.07165052,-2.5955665,1.7263051,4.529413
532,1778416232200,523.0,0.97798395,-0.04524654,-0.25135612,-2.2881484,0.9260717,3.830125
533,1778416232210,524.0,0.86566025,-0.069638215,-0.28385803,-1.5968018,-0.21533,3.2795827
534,1778416232220,525.0,0.8495008,-0.12695862,-0.1905599,-0.97494096,-1.100321,3.0260737
535,1778416232230,526.0,0.8859663,-0.19141361,0.0013415418,-0.4034765,-1.8790215,3.0069842
536,1778416232240,527.0,0.97463006,-0.16196068,0.15988737,-0.22342396,-2.1670444,3.2275066
537,1778416232250,528.0,0.97463006,-0.16196068,0.15988737,-0.22342396,-2.1670444,3.2275066
538,1778416232260,529.0,1.1214069,0.012683666,0.27800402,-0.33185256,-2.0832033,3.3767104
539,1778416232270,530.0,1.568933,0.34904477,0.24800226,-1.3365731,-1.1997393,3.1848986
540,1778416232280,531.0,1.568933,0.34904477,0.24800226,-1.3365731,-1.1997393,3.1848986
541,1778416232290,532.0,2.0078,0.62040204,0.0910419,-2.6387851,-0.57650405,2.2763894
542,1778416232300,533.0,2.1118915,0.7193103,0.10464026,-3.0822732,-0.43188173,2.0069978
543,1778416232310,534.0,2.2376306,0.8328535,0.1501917,-3.6164749,-0.22036964,1.8290832
544,1778416232320,535.0,2.3731263,0.9244442,0.1972676,-4.1480803,0.056199603,1.6427693
545,1778416232330,536.0,2.3731263,0.9244442,0.1972676,-4.1480803,0.056199603,1.6427693
546,1778416232340,537.0,2.3731263,0.9244442,0.1972676,-4.1480803,0.056199603,1.6427693
547,1778416232350,538.0,2.3731263,0.9244442,0.1972676,-4.1480803,0.056199603,1.6427693
548,1778416232360,539.0,2.3731263,0.9244442,0.1972676,-4.1480803,0.056199603,1.6427693
549,1778416232370,540.0,2.3731263,0.9244442,0.1972676,-4.1480803,0.056199603,1.6427693
550,1778416232380,541.0,2.3731263,0.9244442,0.1972676,-4.1480803,0.056199603,1.6427693
551,1778416232390,542.0,2.5536246,0.84321994,0.35520366,-3.5553885,1.3762794,-1.4996742
552,1778416232400,543.0,2.3672724,0.8374879,0.32818988,-3.0079005,1.5409076,-1.6812539
553,1778416232410,544.0,2.1964695,0.819499,0.2939196,-2.4251351,1.636508,-1.926669
554,1778416232420,545.0,2.0559127,0.769862,0.2742843,-1.9237673,1.7061466,-2.1690297
555,1778416232430,546.0,2.0559127,0.769862,0.2742843,-1.9237673,1.7061466,-2.1690297
556,1778416232440,547.0,2.0559127,0.769862,0.2742843,-1.9237673,1.7061466,-2.1690297
557,1778416232450,548.0,2.0559127,0.769862,0.2742843,-1.9237673,1.7061466,-2.1690297
558,1778416232460,549.0,2.0559127,0.769862,0.2742843,-1.9237673,1.7061466,-2.1690297
559,1778416232470,550.0,2.0559127,0.769862,0.2742843,-1.9237673,1.7061466,-2.1690297
560,1778416232480,551.0,0.96688575,0.45466065,-0.07530928,0.71944654,1.30435,-2.8017335
561,1778416232490,552.0,0.875173,0.45618513,-0.0910419,0.7287622,1.2066116,-2.7774515
562,1778416232500,553.0,0.8120596,0.48362577,-0.05689356,0.72341716,1.1053606,-2.7629435
563,1778416232510,554.0,0.74510443,0.5183839,-0.0062808543,0.77121735,1.1375839,-2.8539624
564,1778416232520,555.0,0.7197981,0.50423676,-0.00073175,0.8700248,1.2298244,-2.9721649
565,1778416232530,556.0,0.69680893,0.49063838,-0.007866313,0.98944896,1.2846496,-3.078608
566,1778416232540,557.0,0.69680893,0.49063838,-0.007866313,0.98944896,1.2846496,-3.078608
567,1778416232550,558.0,0.69680893,0.49063838,-0.007866313,0.98944896,1.2846496,-3.078608
568,1778416232560,559.0,0.69680893,0.49063838,-0.007866313,0.98944896,1.2846496,-3.078608
569,1778416232570,560.0,0.69680893,0.49063838,-0.007866313,0.98944896,1.2846496,-3.078608
570,1778416232580,561.0,0.6769907,0.16354613,-0.025306353,1.6418531,1.3544409,-3.8657079
571,1778416232590,,,,,,,
572,1778416232600,562.0,0.6769907,0.16354613,-0.025306353,1.6418531,1.3544409,-3.8657079
573,1778416232610,563.0,0.6489403,-0.020671938,-0.00219525,1.672549,1.4471397,-3.8951821
574,1778416232620,564.0,0.6489403,-0.020671938,-0.00219525,1.7081319,1.4676038,-3.615406
575,1778416232630,565.0,0.6279025,-0.084456146,-0.00073175,1.765706,1.4178182,-3.2966871
576,1778416232640,566.0,0.6279025,-0.084456146,-0.00073175,1.765706,1.4178182,-3.2966871
577,1778416232650,567.0,0.6279025,-0.084456146,-0.00073175,1.765706,1.4178182,-3.2966871
578,1778416232660,568.0,0.6279025,-0.084456146,-0.00073175,1.765706,1.4178182,-3.2966871
579,1778416232670,569.0,0.6279025,-0.084456146,-0.00073175,1.765706,1.4178182,-3.2966871
580,1778416232680,570.0,0.6279025,-0.084456146,-0.00073175,1.765706,1.4178182,-3.2966871
581,1778416232690,571.0,0.58143634,0.32300666,-0.005427146,2.8327348,0.35063666,-3.323565
582,1778416232700,572.0,0.38862023,0.30459094,-0.045002624,3.085633,-0.49128836,-3.0176742
583,1778416232710,573.0,0.43984273,0.113299295,0.12281204,2.7936394,-1.391551,-2.31747
584,1778416232720,574.0,0.51905465,-0.0078053335,0.29983455,2.4478898,-1.6609426,-1.8078557
585,1778416232730,575.0,0.60924286,-0.073845774,0.6890646,1.5908458,-1.4616479,-0.65133506
586,1778416232740,576.0,0.60924286,-0.073845774,0.6890646,1.5908458,-1.4616479,-0.65133506
587,1778416232750,577.0,0.60924286,-0.073845774,0.6890646,1.5908458,-1.4616479,-0.65133506
588,1778416232760,578.0,0.60924286,-0.073845774,0.6890646,1.5908458,-1.4616479,-0.65133506
589,1778416232770,579.0,0.60924286,-0.073845774,0.6890646,1.5908458,-1.4616479,-0.65133506
590,1778416232780,580.0,0.60924286,-0.073845774,0.6890646,1.5908458,-1.4616479,-0.65133506
591,1778416232790,581.0,0.62217045,-0.4786255,0.35483778,0.37720928,1.7336355,2.6532931
592,1778416232800,582.0,0.59058326,-0.822609,-0.11098208,0.5288566,1.4146112,3.206737
593,1778416232810,583.0,0.6246706,-0.92773706,-0.25684425,0.68783426,0.9121745,3.8675406
594,1778416232820,584.0,0.6945527,-0.96651983,-0.38337603,0.76083267,0.42470407,4.4290786
595,1778416232830,585.0,0.8451712,-0.8911496,-0.41356072,0.6953174,-0.2078469,5.0356674
596,1778416232840,586.0,0.8451712,-0.8911496,-0.41356072,0.6953174,-0.2078469,5.0356674
597,1778416232850,587.0,0.8451712,-0.8911496,-0.41356072,0.6953174,-0.2078469,5.0356674
598,1778416232860,588.0,0.8451712,-0.8911496,-0.41356072,0.6953174,-0.2078469,5.0356674
599,1778416232870,589.0,0.8451712,-0.8911496,-0.41356072,0.6953174,-0.2078469,5.0356674
600,1778416232880,590.0,0.8451712,-0.8911496,-0.41356072,0.6953174,-0.2078469,5.0356674
601,1778416232890,591.0,1.2495241,-0.5216158,0.03164819,-1.329701,1.2432635,5.3675203
602,1778416232900,592.0,1.2181809,-0.41856104,-0.12836114,-1.7663169,2.0355556,5.0341406
603,1778416232910,593.0,1.2027531,-0.32825086,-0.3108108,-1.6742289,1.8167132,4.785824
604,1778416232920,594.0,1.2070826,-0.20281671,-0.45850238,-1.3170254,1.052368,4.4312167
605,1778416232930,595.0,1.2450726,-0.122507155,-0.49704117,-0.86758137,0.22602014,4.1366267
606,1778416232940,596.0,1.2450726,-0.122507155,-0.49704117,-0.86758137,0.22602014,4.1366267
607,1778416232950,597.0,1.2450726,-0.122507155,-0.49704117,-0.86758137,0.22602014,4.1366267
608,1778416232960,598.0,1.2450726,-0.122507155,-0.49704117,-0.86758137,0.22602014,4.1366267
609,1778416232970,599.0,1.2450726,-0.122507155,-0.49704117,-0.86758137,0.22602014,4.1366267
610,1778416232980,600.0,1.2450726,-0.122507155,-0.49704117,-0.86758137,0.22602014,4.1366267
611,1778416232990,601.0,1.6464374,0.30404213,0.18183987,-0.17944166,-1.1869112,2.4318545
612,1778416233000,602.0,1.8398634,0.45283127,0.10031073,-0.9767735,-0.72189003,2.254551
613,1778416233010,603.0,2.0298135,0.5686307,0.03872177,-1.6371188,-0.5193882,2.081676
614,1778416233020,604.0,2.2087874,0.6552211,0.029757833,-2.228742,-0.47876564,1.8576412
615,1778416233030,605.0,2.4133725,0.76297134,0.14360595,-2.7925704,-0.5169447,1.4202617
616,1778416233040,606.0,2.4133725,0.76297134,0.14360595,-2.7925704,-0.5169447,1.4202617
617,1778416233050,607.0,2.4133725,0.76297134,0.14360595,-2.7925704,-0.5169447,1.4202617
618,1778416233060,608.0,2.4133725,0.76297134,0.14360595,-2.7925704,-0.5169447,1.4202617
619,1778416233070,609.0,2.4133725,0.76297134,0.14360595,-2.7925704,-0.5169447,1.4202617
620,1778416233080,610.0,2.4133725,0.76297134,0.14360595,-2.7925704,-0.5169447,1.4202617
621,1778416233090,611.0,2.291536,0.81657207,0.564972,-1.7628044,1.2267702,-0.9550878
622,1778416233100,,,,,,,
623,1778416233110,612.0,2.291536,0.81657207,0.564972,-1.7628044,1.2267702,-0.9550878
624,1778416233120,613.0,2.0796945,0.8040713,0.33678794,-0.6973027,1.2220359,-1.6424639
625,1778416233130,614.0,2.0796945,0.8040713,0.33678794,-0.6973027,1.2220359,-1.6424639
626,1778416233140,615.0,1.9457842,0.7782161,0.27855286,0.029932396,0.9078985,-2.1200078
627,1778416233150,616.0,1.9457842,0.7782161,0.27855286,0.029932396,0.9078985,-2.1200078
628,1778416233160,617.0,1.9457842,0.7782161,0.27855286,0.029932396,0.9078985,-2.1200078
629,1778416233170,618.0,1.9457842,0.7782161,0.27855286,0.029932396,0.9078985,-2.1200078
630,1778416233180,619.0,1.9457842,0.7782161,0.27855286,0.029932396,0.9078985,-2.1200078
631,1778416233190,620.0,1.9457842,0.7782161,0.27855286,0.029932396,0.9078985,-2.1200078
632,1778416233200,621.0,0.9267614,0.40727988,0.360021,0.8749117,1.7014124,-3.1343496
633,1778416233210,622.0,0.8241334,0.34721538,0.24355079,1.2618948,1.9839376,-3.300505
634,1778416233220,623.0,0.7408969,0.29434645,0.11134796,1.5338826,2.0173824,-3.4072535
635,1778416233230,624.0,0.6749174,0.2464778,0.0078053335,1.8231273,1.9036088,-3.5387423
636,1778416233240,625.0,0.6749174,0.2464778,0.0078053335,1.8231273,1.9036088,-3.5387423
637,1778416233250,626.0,0.6749174,0.2464778,0.0078053335,1.8231273,1.9036088,-3.5387423
638,1778416233260,627.0,0.6749174,0.2464778,0.0078053335,1.8231273,1.9036088,-3.5387423
639,1778416233270,628.0,0.6749174,0.2464778,0.0078053335,1.8231273,1.9036088,-3.5387423
640,1778416233280,629.0,0.6749174,0.2464778,0.0078053335,1.8231273,1.9036088,-3.5387423
641,1778416233290,630.0,0.6749174,0.2464778,0.0078053335,1.8231273,1.9036088,-3.5387423
642,1778416233300,631.0,0.44148916,-0.0746385,-0.038051,2.0089831,1.1643091,-3.922213
643,1778416233310,632.0,0.4786255,-0.08976133,-0.017683959,1.9521726,1.132086,-3.7589593
644,1778416233320,633.0,0.5334458,-0.06488183,0.019452354,1.922393,1.1093313,-3.5752416
645,1778416233330,634.0,0.5751555,0.0014025208,0.04323423,1.9259053,1.1166617,-3.4724634
646,1778416233340,635.0,0.5751555,0.0014025208,0.04323423,1.9259053,1.1166617,-3.4724634
647,1778416233350,636.0,0.5751555,0.0014025208,0.04323423,1.9259053,1.1166617,-3.4724634
648,1778416233360,637.0,0.5751555,0.0014025208,0.04323423,1.9259053,1.1166617,-3.4724634
649,1778416233370,638.0,0.5751555,0.0014025208,0.04323423,1.9259053,1.1166617,-3.4724634
650,1778416233380,639.0,0.5751555,0.0014025208,0.04323423,1.9259053,1.1166617,-3.4724634
651,1778416233390,640.0,0.5751555,0.0014025208,0.04323423,1.9259053,1.1166617,-3.4724634
652,1778416233400,641.0,0.5184449,0.3167258,-0.026099084,3.2673655,0.7838928,-2.9297097
653,1778416233410,642.0,0.5468002,0.45697787,-0.05963763,3.346167,0.043066,-2.2597432
654,1778416233420,643.0,0.70400447,0.41850004,-0.0001829375,3.4261904,-0.8002335,-1.6438384
655,1778416233430,644.0,0.8244993,0.35867947,0.13159303,3.4231362,-1.3041973,-1.048703
656,1778416233440,645.0,0.8818197,0.38862023,0.2610518,3.2817209,-1.5829046,-0.2180789
657,1778416233450,646.0,0.8818197,0.38862023,0.2610518,3.2817209,-1.5829046,-0.2180789
658,1778416233460,647.0,0.8818197,0.38862023,0.2610518,3.2817209,-1.5829046,-0.2180789
659,1778416233470,648.0,0.8818197,0.38862023,0.2610518,3.2817209,-1.5829046,-0.2180789
660,1778416233480,649.0,0.8818197,0.38862023,0.2610518,3.2817209,-1.5829046,-0.2180789
661,1778416233490,650.0,0.8818197,0.38862023,0.2610518,3.2817209,-1.5829046,-0.2180789
662,1778416233500,651.0,0.8551108,-0.16513158,0.4911872,0.018936822,1.0334313,1.9289597
663,1778416233510,652.0,0.8551108,-0.16513158,0.4911872,0.018936822,1.0334313,1.9289597
664,1778416233520,653.0,0.8551108,-0.16513158,0.4911872,0.018936822,1.0334313,1.9289597
665,1778416233530,,,,,,,
666,1778416233540,654.0,0.8551108,-0.16513158,0.4911872,0.018936822,1.0334313,1.9289597
667,1778416233550,655.0,0.6886987,-0.6580262,0.11628727,-1.370629,1.5757269,3.2591188
668,1778416233560,656.0,0.76138586,-0.6211948,0.018049834,-1.4618006,0.72127914,3.853338
669,1778416233570,657.0,0.8862102,-0.6574774,0.22696446,-1.3571899,0.19624045,4.080427
670,1778416233580,658.0,0.8862102,-0.6574774,0.22696446,-1.225243,-0.07941248,4.21329
671,1778416233590,659.0,0.9253589,-0.68211293,0.34904477,-1.0989466,-0.051159963,4.3233986
672,1778416233600,660.0,0.9253589,-0.68211293,0.34904477,-1.0989466,-0.051159963,4.3233986
673,1778416233610,661.0,0.9253589,-0.68211293,0.34904477,-1.0989466,-0.051159963,4.3233986
674,1778416233620,662.0,0.9253589,-0.68211293,0.34904477,-1.0989466,-0.051159963,4.3233986
675,1778416233630,663.0,1.0005461,-0.5509468,0.41026786,-0.17180584,1.3416128,4.1485386
676,1778416233640,664.0,0.919017,-0.254649,-0.1759249,0.6247624,0.90392786,3.399618
677,1778416233650,665.0,0.8854785,-0.22361061,-0.25721014,0.89904094,0.5224425,3.1430545
678,1778416233660,666.0,0.8854785,-0.22361061,-0.25721014,0.89904094,0.5224425,3.1430545
679,1778416233670,667.0,0.82834107,-0.18708408,-0.29129747,1.2589933,-0.3239113,2.755155
680,1778416233680,668.0,0.8082179,-0.2093415,-0.21763465,1.2305881,-0.82543164,2.637258
681,1778416233690,669.0,0.8082179,-0.2093415,-0.21763465,1.2305881,-0.82543164,2.637258
682,1778416233700,670.0,0.8082179,-0.2093415,-0.21763465,1.2305881,-0.82543164,2.637258
683,1778416233710,671.0,0.8082179,-0.2093415,-0.21763465,1.2305881,-0.82543164,2.637258
684,1778416233720,672.0,1.3808733,0.119946025,-0.08994427,-1.382999,-0.48808134,2.6126707
685,1778416233730,673.0,1.6231436,0.23178181,-0.13092227,-1.9970711,-0.32559118,2.3730588
686,1778416233740,674.0,1.8673042,0.3670336,-0.18129106,-2.5335636,-0.3022256,2.2120957
687,1778416233750,675.0,2.0213985,0.4599049,-0.20964637,-2.797152,-0.40210205,2.2267566
688,1778416233760,676.0,2.0213985,0.4599049,-0.20964637,-2.797152,-0.40210205,2.2267566
689,1778416233770,677.0,2.0213985,0.4599049,-0.20964637,-2.797152,-0.40210205,2.2267566
690,1778416233780,678.0,2.0213985,0.4599049,-0.20964637,-2.797152,-0.40210205,2.2267566
691,1778416233790,679.0,2.0213985,0.4599049,-0.20964637,-2.797152,-0.40210205,2.2267566
692,1778416233800,680.0,3.3008022,1.326175,0.6043645,-3.6771033,-0.5844453,1.5575536
693,1778416233810,681.0,3.284521,1.2715377,0.5886929,-3.317762,1.188591,0.18371773
694,1778416233820,682.0,3.0846312,1.2815381,0.39484012,-2.9458976,2.0257819,-0.49296826
695,1778416233830,683.0,2.8904736,1.2496461,0.20409729,-2.579684,2.317928,-1.0395399
696,1778416233840,684.0,2.7415624,1.1851912,0.0892735,-2.272877,2.3330472,-1.4182764
697,1778416233850,685.0,2.7415624,1.1851912,0.0892735,-2.272877,2.3330472,-1.4182764
698,1778416233860,686.0,2.7415624,1.1851912,0.0892735,-2.272877,2.3330472,-1.4182764
699,1778416233870,687.0,2.7415624,1.1851912,0.0892735,-2.272877,2.3330472,-1.4182764
700,1778416233880,688.0,2.7415624,1.1851912,0.0892735,-2.272877,2.3330472,-1.4182764
701,1778416233890,689.0,1.3676407,0.64503765,-0.040978,-0.5367978,1.1145236,-3.0036244
702,1778416233900,690.0,1.1593969,0.54576355,-0.021586625,-0.49174652,1.1769847,-3.1409163
703,1778416233910,691.0,0.9613366,0.44795296,-0.014452063,-0.45066583,1.3118331,-3.2378912
704,1778416233920,692.0,0.81632805,0.3793514,-0.03195308,-0.38744128,1.4332426,-3.2884402
705,1778416233930,693.0,0.6535747,0.30184686,-0.08244383,-0.24648413,1.5325081,-3.3228016
706,1778416233940,694.0,0.6535747,0.30184686,-0.08244383,-0.24648413,1.5325081,-3.3228016
707,1778416233950,695.0,0.6535747,0.30184686,-0.08244383,-0.24648413,1.5325081,-3.3228016
708,1778416233960,696.0,0.6535747,0.30184686,-0.08244383,-0.24648413,1.5325081,-3.3228016
709,1778416233970,697.0,0.6535747,0.30184686,-0.08244383,-0.24648413,1.5325081,-3.3228016
710,1778416233980,698.0,0.16757075,0.083175585,-0.18537667,0.754724,1.006095,-3.3336444
711,1778416233990,699.0,0.15061855,0.0646989,-0.1662292,0.8052731,0.9092729,-3.3257031
712,1778416234000,700.0,0.16196068,0.011220166,-0.11872645,0.80649483,0.8248208,-3.2743905
713,1778416234010,701.0,0.20171909,-0.045734376,-0.040734082,0.7495316,0.8240572,-3.14168
714,1778416234020,702.0,0.21458568,-0.050063897,-0.012500729,0.72418076,0.8761335,-3.0471485
715,1778416234030,703.0,0.25403923,-0.0009146876,-0.03195308,0.73960507,0.9242391,-2.855184
716,1778416234040,704.0,0.31605503,0.07311402,-0.038965687,0.83031857,0.82970774,-2.7105618
717,1778416234050,705.0,0.37282664,0.12573905,-0.020489,0.9034697,0.75228053,-2.6282477
718,1778416234060,706.0,0.46258798,0.27446723,0.02201348,1.0670289,0.64644814,-2.5932758
719,1778416234070,707.0,0.46941763,0.45045313,0.046710044,1.2942708,0.61376685,-2.771801
720,1778416234080,708.0,0.49283364,0.538568,0.022257395,1.5625933,0.5193882,-3.0586023
721,1778416234090,709.0,0.51582277,0.5410682,0.03433127,1.7948748,0.26465738,-3.2215507
722,1778416234100,710.0,0.6043645,0.42984214,0.047807667,1.8793269,0.08933904,-3.1601586
723,1778416234110,711.0,0.71248055,0.35325232,0.059515666,1.8897116,-0.15897769,-2.9404
724,1778416234120,712.0,0.7578491,0.354228,0.06421106,1.8819231,-0.3145956,-2.790127
725,1778416234130,713.0,0.78474087,0.33087295,0.08567573,1.7928895,-0.67103547,-2.4972172
726,1778416234140,714.0,0.83504874,0.21982989,0.15232596,1.6455183,-0.91965765,-2.1755965
727,1778416234150,715.0,0.8455981,0.11518965,0.24678269,1.513266,-0.97433007,-1.8941404
728,1778416234160,,,,,,,
729,1778416234170,716.0,0.81852335,0.04177073,0.32270175,1.2417363,-0.92927873,-1.297936
730,1778416234180,717.0,0.7585198,-0.1515942,0.38392484,0.86086184,-0.44073927,-0.0013744468
731,1778416234190,718.0,0.7585198,-0.1515942,0.38392484,0.86086184,-0.44073927,-0.0013744468
732,1778416234200,719.0,0.7449825,-0.31977475,0.3811198,0.68829244,-0.056046885,0.72036284
733,1778416234210,720.0,0.6426595,-0.5529591,0.21751268,0.48991394,0.3359759,1.3972015
734,1778416234220,721.0,0.6485744,-0.670222,0.095615335,0.3501785,0.70738196,2.4904976
735,1778416234230,722.0,0.6485744,-0.670222,0.095615335,0.3501785,0.70738196,2.4904976
736,1778416234240,723.0,0.81077904,-0.8449273,-0.21671996,0.38087448,0.18173242,3.8108828
737,1778416234250,724.0,0.962922,-0.8149866,-0.30306646,0.4082107,-0.39950588,4.4619126
738,1778416234260,725.0,1.0343287,-0.7662642,-0.27739424,0.41080686,-0.7334964,4.795445
739,1778416234270,726.0,1.1525673,-0.67253923,-0.16891229,0.41080686,-0.7334964,4.795445
740,1778416234280,727.0,1.2194004,-0.5782654,-0.024330689,0.3407101,-1.1128438,5.5309267
741,1778416234290,728.0,1.2748305,-0.49277264,0.096591,0.28160888,-0.7673995,5.7289996
742,1778416234300,729.0,1.302454,-0.36800927,0.11226265,0.28389964,-0.31642818,5.8103976
743,1778416234310,730.0,1.3263578,-0.178547,0.0395145,0.3277292,0.28405234,5.714186
744,1778416234320,731.0,1.3469689,0.013720313,-0.10183521,0.43142357,0.7790059,5.364008
745,1778416234330,732.0,1.3469689,0.013720313,-0.10183521,0.43142357,0.7790059,5.364008
746,1778416234340,733.0,1.2915388,0.2222081,-0.41904885,0.7545713,0.9615019,4.45672
747,1778416234350,734.0,1.2236079,0.29465136,-0.5690576,1.0147998,0.5233588,3.807523
748,1778416234360,735.0,1.1773858,0.34873986,-0.5774727,1.1281154,0.14508049,3.466813
749,1778416234370,736.0,1.1132356,0.42825672,-0.57527745,1.142318,-0.2929099,3.073263
750,1778416234380,737.0,1.0489026,0.47374716,-0.50185853,0.9447031,-0.7069238,2.7333164
751,1778416234390,738.0,1.0305479,0.46380752,-0.38008317,0.519999,-0.9868528,2.5071437
752,1778416234400,739.0,1.0540249,0.48295498,-0.28202865,-0.0852157,-1.1355985,2.3649647
753,1778416234410,740.0,1.1207361,0.56021565,-0.14415476,-0.7603745,-1.1572843,2.1820107
754,1778416234420,741.0,1.2065948,0.6544894,0.012073875,-1.3093897,-1.0325149,1.9173533
755,1778416234430,742.0,1.2664763,0.7297987,0.14811839,-1.9845484,-0.6721045,1.3972015
756,1778416234440,743.0,1.3284922,0.6869303,0.18409611,-2.4414756,-0.28023443,0.8445212
757,1778416234450,744.0,1.3818489,0.5835096,0.1694611,-2.7853928,0.07727446,0.33460143
758,1778416234460,745.0,1.4477674,0.34258097,0.10842097,-3.1294627,0.37583485,-0.03726278
759,1778416234470,746.0,1.5242963,0.24544115,0.06543065,-3.2646165,0.37782016,0.022907447
760,1778416234480,747.0,1.6705854,0.3529474,0.029696856,-3.3234124,0.089949906,0.2677117
761,1778416234490,748.0,1.8364487,0.57954603,0.057381395,-3.1986432,-0.36300668,0.2658791
762,1778416234500,749.0,1.9340153,0.71845657,0.115006715,-3.0129402,-0.65484756,-0.034972034
763,1778416234510,750.0,2.0163372,0.804925,0.25135612,-2.8550315,-0.8126035,-0.5323691
764,1778416234520,751.0,2.1119523,0.7880338,0.3591063,-2.826168,-0.75625116,-0.8396343
765,1778416234530,752.0,2.3628209,0.63887876,0.48216227,-2.8081474,-0.32589662,-1.1120802
766,1778416234540,753.0,2.4709368,0.55161756,0.49685827,-2.7881417,0.13118331,-1.1899655
767,1778416234550,754.0,2.5097806,0.53399456,0.4797841,-2.7673724,0.5868888,-1.2090551
768,1778416234560,755.0,2.4881332,0.6250365,0.4024625,-2.7006352,1.0279335,-1.2127203
769,1778416234570,756.0,2.3668454,0.7541904,0.36514327,-2.5230262,1.3368785,-1.3437508
770,1778416234580,757.0,2.1947622,0.81864536,0.3357513,-2.1930063,1.6125315,-1.6281086
771,1778416234590,758.0,2.040546,0.80309564,0.30428603,-1.8232801,1.7901406,-1.8726074
772,1778416234600,759.0,1.7916899,0.72461545,0.19775544,-1.135904,1.9888245,-2.1533
773,1778416234610,760.0,1.6355222,0.6635753,0.096042186,-0.6722572,2.0152445,-2.2679899
774,1778416234620,761.0,1.4655123,0.5966811,-0.03670946,-0.12904528,1.9326249,-2.371379
775,1778416234630,762.0,1.3498348,0.564911,-0.14500846,0.2611449,1.7821994,-2.4440718
776,1778416234640,763.0,1.2428774,0.54234874,-0.26562527,0.6568329,1.491733,-2.496148
777,1778416234650,764.0,1.1201264,0.5558861,-0.34404445,0.94042706,1.1693488,-2.579073
778,1778416234660,765.0,1.024328,0.5403364,-0.38301015,1.0821478,0.9586003,-2.7091873
779,1778416234670,766.0,0.78791183,0.4487457,-0.4413672,1.189202,0.7360926,-2.9126055
780,1778416234680,767.0,0.78791183,0.4487457,-0.4413672,1.2373075,0.5560401,-3.0931163
781,1778416234690,768.0,0.67314905,0.363009,-0.45649004,1.1806498,0.38866302,-3.2102497
782,1778416234700,769.0,0.5950957,0.30367625,-0.44368443,1.0485502,0.2771801,-3.2556064
783,1778416234710,770.0,0.52112794,0.24678269,-0.39441326,0.7893906,0.19181168,-3.2739322
784,1778416234720,771.0,0.5068588,0.18312044,-0.3137378,0.46105054,0.20326541,-3.2461379
785,1778416234730,772.0,0.5236891,0.1583629,-0.24842913,0.1853976,0.2759584,-3.1955888
786,1778416234740,,,,,,,
787,1778416234750,773.0,0.5104566,0.14293517,-0.16269243,-0.13713925,0.49113566,-3.1786373
788,1778416234760,774.0,0.4877114,0.11372615,-0.13323948,-0.23335053,0.6617198,-3.207959
789,1778416234770,775.0,0.45350206,0.07329696,-0.1358006,-0.044898596,0.88025683,-3.2792773
790,1778416234780,776.0,0.45350206,0.07329696,-0.1358006,-0.044898596,0.88025683,-3.2792773
791,1778416234790,777.0,0.42746398,0.016281437,-0.1445816,0.6574437,0.660498,-3.2792773
792,1778416234800,778.0,0.39355955,0.034880083,-0.11634825,0.6574437,0.660498,-3.2792773
793,1778416234810,779.0,0.34642264,0.0646989,-0.10079856,1.4026994,0.39828414,-3.3287575
794,1778416234820,780.0,0.30020046,0.07695571,-0.09342009,1.7556267,0.26374108,-3.3728924
795,1778416234830,781.0,0.23452587,0.078480184,-0.06786981,1.7556267,0.26374108,-3.3728924
796,1778416234840,782.0,0.23452587,0.078480184,-0.06786981,2.0100522,0.11881329,-3.327841
797,1778416234850,783.0,0.18988912,-0.011159187,-0.081773065,2.2365303,-0.13194689,-2.8533516
798,1778416234860,784.0,0.18988912,-0.011159187,-0.081773065,2.2365303,-0.13194689,-2.8533516
799,1778416234870,785.0,0.061223082,0.06390616,-0.11384811,2.0073032,-0.50793445,-2.0244074
800,1778416234880,786.0,0.061223082,0.06390616,-0.11384811,2.0073032,-0.50793445,-2.0244074
801,1778416234890,787.0,0.14848427,0.0693943,-0.01689123,1.3542882,-1.109484,-0.7328856
802,1778416234900,788.0,0.22659859,0.10464026,0.081346214,1.0569496,-1.1426234,-0.11804971
803,1778416234910,789.0,0.34312975,0.1387886,0.16439983,0.70829827,-1.0030408,0.60994893
804,1778416234920,790.0,0.49161404,0.08860273,0.23611133,0.3471242,-0.74388117,1.3370314
805,1778416234930,791.0,0.6306466,0.03158721,0.27824792,-0.058337633,-0.40622538,2.0732768
806,1778416234940,792.0,0.7866922,0.043661084,0.29751736,-0.38438696,-0.10277808,2.5358543
807,1778416234950,793.0,0.8863932,0.052259143,0.24653877,-0.7338019,0.25503623,2.809064
808,1778416234960,794.0,0.9579827,-0.008354146,0.15232596,-0.9998337,0.42546764,2.9184086
809,1778416234970,795.0,0.9579827,-0.008354146,0.15232596,-0.9998337,0.42546764,2.9184086
810,1778416234980,796.0,0.9840818,-0.29373667,0.06726002,-1.2861768,0.259465,3.3750305
811,1778416234990,797.0,1.0043269,-0.383437,0.060918186,-1.3642148,0.08750644,3.80004
812,1778416235000,798.0,1.0905514,-0.42496383,0.06280854,-1.4172074,-0.037415497,4.1479278
813,1778416235010,799.0,1.1967162,-0.43429363,0.056161813,-1.5234979,-0.15012014,4.5086436
814,1778416235020,800.0,1.284953,-0.41441444,0.04744179,-1.6053538,-0.25809056,4.7563496
815,1778416235030,801.0,1.3358096,-0.37544873,0.05866196,-1.6780468,-0.33857206,4.9307513
816,1778416235040,802.0,1.3545913,-0.31837222,0.08549279,-1.764637,-0.3753767,5.03185
817,1778416235050,803.0,1.3721533,-0.24464841,0.15500905,-1.9083431,-0.30711251,5.059186
818,1778416235060,804.0,1.3500178,-0.13378829,0.24495333,-1.9990565,-0.08353582,4.946634
819,1778416235070,805.0,1.299649,-0.050856624,0.27965048,-2.0199788,0.17715092,4.772232
820,1778416235080,806.0,1.2169613,0.020854875,0.275138,-1.8979583,0.5514586,4.5011606
821,1778416235090,807.0,1.1289073,0.040307228,0.2125734,-1.6148223,0.883922,4.2320743
822,1778416235100,808.0,1.0384142,0.063967146,0.055186145,-1.2370021,1.0155635,3.9665008
823,1778416235110,809.0,0.9856063,0.12561709,-0.082626775,-0.9213375,0.8895725,3.702607
824,1778416235120,810.0,0.9505433,0.22440335,-0.20617057,-0.52687126,0.4531093,3.2453744
825,1778416235130,811.0,0.88011235,0.28763872,-0.2748941,-0.22235495,-0.04795292,2.8243356
826,1778416235140,812.0,0.8612088,0.29013887,-0.25684425,0.0580322,-0.710589,2.365423
827,1778416235150,813.0,0.8631601,0.32831186,-0.18116911,0.16890424,-1.2938126,2.0305161
828,1778416235160,814.0,0.87633157,0.34258097,-0.09713981,0.16218472,-1.5338826,1.8577939
829,1778416235170,815.0,0.95157987,0.32916555,0.027684543,0.054519724,-1.640784,1.5980235
830,1778416235180,816.0,1.050671,0.24873403,0.08713923,-0.18906279,-1.5019649,1.4074335
831,1778416235190,817.0,1.196838,0.19360885,0.1039085,-0.54137933,-1.2347114,1.3306172
832,1778416235200,818.0,1.3716043,0.26446667,0.03524596,-0.92347556,-0.9793697,1.2968669
833,1778416235210,819.0,1.6107037,0.43124464,-0.07561417,-1.3206906,-1.0001391,1.2518156
834,1778416235220,820.0,1.8913908,0.6221095,-0.065674566,-1.733941,-1.2258538,1.1823297
835,1778416235230,821.0,2.1179285,0.74595815,0.04317325,-2.1482604,-1.3298537,1.0615311
836,1778416235240,822.0,2.3437953,0.8451103,0.2222081,-2.783102,-1.1430815,0.7829765
837,1778416235250,823.0,2.4756932,0.89346683,0.34642264,-3.2850807,-0.75579304,0.45952338
838,1778416235260,824.0,2.6210067,0.89060074,0.4542948,-3.7832413,0.03313944,-0.07269296
839,1778416235270,825.0,2.733513,0.8271825,0.45722178,-3.854865,0.41218132,-0.30390546
840,1778416235280,826.0,2.8576667,0.73431116,0.38002217,-3.69772,0.86467975,-0.6339254
841,1778416235290,827.0,2.9174263,0.7189444,0.2543441,-3.3095152,0.9433287,-0.91919947
842,1778416235300,828.0,2.871448,0.7608371,0.21732976,-2.8617508,0.73456544,-1.258077
843,1778416235310,829.0,2.55521,0.6886987,0.348313,-2.2110267,0.5871942,-1.975691
844,1778416235320,830.0,2.303976,0.61156005,0.42221975,-2.2110267,0.5871942,-1.975691
845,1778416235330,831.0,2.303976,0.61156005,0.42221975,-2.0163136,0.8394816,-2.1876612
846,1778416235340,832.0,2.0231059,0.5542397,0.4279518,-1.9123137,1.2403619,-2.3386977
847,1778416235350,833.0,1.5411875,0.4608196,0.30776188,-1.7214183,1.844813,-2.518292
848,1778416235360,,,,,,,
849,1778416235370,834.0,1.5411875,0.4608196,0.30776188,-1.7214183,1.844813,-2.518292
850,1778416235380,835.0,1.3408709,0.44179407,0.22787915,-1.5393804,1.9474384,-2.5677722
851,1778416235390,836.0,0.942372,0.3989867,0.099274084,-1.1640037,1.8826867,-2.6070201
852,1778416235400,837.0,0.78815573,0.40978,0.059881546,0.019547688,1.397507,-2.606104
853,1778416235410,838.0,0.6846131,0.40538952,0.02774552,0.68798697,1.0838276,-2.6574166
854,1778416235420,839.0,0.579607,0.386364,-0.010183521,1.1516337,0.8352055,-2.7259862
855,1778416235430,840.0,0.48868704,0.3561793,-0.040795065,1.616044,0.5564982,-2.8264735
856,1778416235440,841.0,0.42709813,0.32160413,-0.0617719,1.9062049,0.3173445,-2.912911
857,1778416235450,842.0,0.34843495,0.24946578,-0.071772486,2.0103576,0.17684549,-2.9582677
858,1778416235460,843.0,0.29428545,0.18812074,-0.05512517,2.0218112,0.08750644,-2.981786
859,1778416235470,844.0,0.22196417,0.11067719,-0.058296088,1.9685133,0.06001751,-2.9581149
860,1778416235480,845.0,0.22196417,0.11067719,-0.058296088,1.9685133,0.06001751,-2.9581149
861,1778416235490,846.0,0.12494631,0.0016464376,-0.01689123,1.744173,0.08659015,-2.8394544
862,1778416235500,847.0,0.10787215,-0.046527103,-0.0019513334,1.6082555,0.17547104,-2.784171
863,1778416235510,848.0,0.10738432,-0.09232246,0.009024917,1.4625641,0.279929,-2.7275133
864,1778416235520,849.0,0.12738548,-0.11915329,0.026647896,1.2974777,0.44135013,-2.7159069
865,1778416235530,850.0,0.14836231,-0.12451946,0.033416584,1.1682798,0.6072,-2.7571404
866,1778416235540,851.0,0.16708292,-0.15531394,-0.0102445,1.0713049,0.77411896,-2.847701
867,1778416235550,852.0,0.16689998,-0.1636071,-0.035489876,1.0708468,0.82604253,-2.9136746
868,1778416235560,853.0,0.14019111,-0.17982757,-0.09903017,1.144456,0.8231409,-2.9535334
869,1778416235570,854.0,0.09067602,-0.2373919,-0.13500789,1.2345587,0.7128797,-2.86282
870,1778416235580,855.0,0.10384752,-0.33300725,-0.18604743,1.2402092,0.46089783,-2.5121834
871,1778416235590,856.0,0.1583629,-0.34867886,-0.18708408,1.106277,0.050549097,-1.9521726
872,1778416235600,857.0,0.24220926,-0.2277572,-0.1516552,0.87857693,-0.3930918,-1.4146112
873,1778416235610,858.0,0.41173133,-0.03225798,-0.064942814,0.589485,-0.7724391,-1.1100949
874,1778416235620,859.0,0.5642402,0.10817704,0.05232013,0.21303925,-0.95371336,-1.0392345
875,1778416235630,860.0,0.65113556,0.088846646,0.16836348,-0.15393804,-0.9637926,-0.96959585
876,1778416235640,861.0,0.70473623,0.008171208,0.2883095,-0.6079636,-0.7405214,-0.64904433
877,1778416235650,862.0,0.77815515,-0.14378887,0.4027674,-0.9633345,-0.3210097,0.07467828
878,1778416235660,863.0,0.87535596,-0.21001224,0.46508813,-1.128879,-0.034055736,0.7130325
879,1778416235670,864.0,1.0366459,-0.13952033,0.43972078,-1.2675453,0.58093286,2.003638
880,1778416235680,865.0,1.1537868,-0.050124876,0.3405077,-1.2469287,0.9007208,2.6731462
881,1778416235690,866.0,1.1537868,-0.050124876,0.3405077,-1.1174252,1.044885,3.1688635
882,1778416235700,867.0,1.3607501,0.12427554,-0.11903133,-0.8353582,0.7466301,3.2782083
883,1778416235710,868.0,1.3564816,0.06799178,-0.24812423,-0.4908302,0.22617286,3.2189543
884,1778416235720,869.0,1.3218454,-0.11238461,-0.27410138,0.020158553,-0.513585,3.2053626
885,1778416235730,870.0,1.2549512,-0.28184572,-0.22763525,0.5331327,-1.0832168,3.4061847
886,1778416235740,871.0,1.2361088,-0.42691517,-0.14543532,0.8697194,-1.3272575,3.7242928
887,1778416235750,872.0,1.2197663,-0.5705211,-0.047197875,1.0929906,-1.2896893,4.308127
888,1778416235760,873.0,1.2197663,-0.5705211,-0.047197875,1.0929906,-1.2896893,4.308127
889,1778416235770,874.0,1.2197663,-0.5705211,-0.047197875,1.0929906,-1.2896893,4.308127
890,1778416235780,875.0,1.2197663,-0.5705211,-0.047197875,1.0929906,-1.2896893,4.308127
891,1778416235790,876.0,1.3570304,-0.3259946,-0.08713923,0.4111123,-0.26633725,5.8960714
892,1778416235800,877.0,1.4363643,-0.107750185,-0.10531103,0.3199407,-0.27550024,5.757558
893,1778416235810,878.0,1.3888005,0.21501255,-0.09781059,0.3107777,-0.36132678,5.0013065
894,1778416235820,879.0,1.3888005,0.21501255,-0.09781059,0.3107777,-0.36132678,5.0013065
895,1778416235830,880.0,1.3888005,0.21501255,-0.09781059,0.3107777,-0.36132678,5.0013065
896,1778416235840,881.0,0.90236974,0.22903776,0.15878975,0.129198,-0.33200526,3.199712
897,1778416235850,882.0,0.7290669,0.17061971,0.13598356,0.059864793,-0.17486018,2.9743028
898,1778416235860,883.0,0.6135724,0.10970152,0.075980045,0.04596761,-0.051923547,2.837469
899,1778416235870,884.0,0.57588726,0.09354204,0.049454104,0.021685716,-0.020463986,2.8182268
900,1778416235880,885.0,0.6261341,0.16933915,-0.061101127,-0.15836681,-0.08093964,2.8101327
901,1778416235890,886.0,0.7265058,0.33873928,-0.13842271,-0.4512767,-0.35323283,2.6670377
902,1778416235900,887.0,0.91596806,0.462466,-0.11897036,-0.8185594,-0.65041876,2.3889413
903,1778416235910,888.0,1.085795,0.53009194,-0.112201676,-1.1948525,-0.7870999,1.9532416
904,1778416235920,889.0,1.3304435,0.52064013,-0.10915271,-1.5070046,-0.8567385,1.5879441
905,1778416235930,890.0,1.5357603,0.44209895,-0.05646671,-1.9375118,-0.84604836,1.238682
906,1778416235940,891.0,1.6879644,0.40112096,-0.020793896,-2.4007003,-0.66996646,1.0294607
907,1778416235950,,,,,,,
908,1778416235960,892.0,1.797178,0.41075566,-0.007622396,-2.7983737,-0.5025894,0.95172805
909,1778416235970,893.0,1.8885249,0.46484417,0.0014635,-3.225063,-0.35185838,0.8865182
910,1778416235980,894.0,2.0979884,0.5889978,0.01695221,-3.6807685,-0.20952678,0.7284568
911,1778416235990,895.0,2.2962925,0.67571014,0.06768687,-4.3250785,-0.0143553335,0.23609942
912,1778416236000,896.0,2.2962925,0.67571014,0.06768687,-4.3250785,-0.0143553335,0.23609942
913,1778416236010,897.0,2.2962925,0.67571014,0.06768687,-4.3250785,-0.0143553335,0.23609942
914,1778416236020,898.0,2.640581,0.25592956,0.16720487,-4.705953,0.8761335,-1.1389582
915,1778416236030,899.0,2.654606,0.17683959,0.089822315,-3.6482399,0.93660915,-1.4199562
916,1778416236040,900.0,2.6164942,0.24842913,0.05110054,-3.1111367,0.6768387,-1.428203
917,1778416236050,901.0,2.5612469,0.36544815,0.06274756,-2.6151142,0.36285394,-1.4947872
918,1778416236060,902.0,2.4989872,0.4538679,0.1364104,-2.2354615,0.1375974,-1.6151277
919,1778416236070,903.0,2.3921518,0.52198166,0.2774552,-1.993406,0.13988814,-1.7863227
920,1778416236080,904.0,2.3921518,0.52198166,0.2774552,-1.993406,0.13988814,-1.7863227
921,1778416236090,905.0,2.2203734,0.5394217,0.40496266,-1.9822577,0.5342017,-1.990199
922,1778416236100,906.0,2.2203734,0.5394217,0.40496266,-1.9822577,0.5342017,-1.990199
923,1778416236110,907.0,1.56314,0.47624728,0.21373199,-1.9350684,2.2186625,-2.5120306
924,1778416236120,908.0,1.3293458,0.45466065,0.070248,-1.9350684,2.2186625,-2.5120306
925,1778416236130,909.0,1.1264071,0.4346595,-0.040246252,-1.0477866,2.1788037,-2.6836836
926,1778416236140,910.0,0.9754838,0.44051352,-0.10348164,-0.5209153,1.9249891,-2.730873
927,1778416236150,911.0,0.9754838,0.44051352,-0.10348164,-0.5209153,1.9249891,-2.730873
928,1778416236160,912.0,0.8305972,0.46002686,-0.13610551,0.14920384,1.5486962,-2.8312078
929,1778416236170,913.0,0.6361347,0.47484478,-0.13500789,1.0202976,0.99265605,-3.0928106
930,1778416236180,914.0,0.5528981,0.47246656,-0.11567748,1.1879802,0.86742866,-3.2452216
931,1778416236190,915.0,0.46185625,0.43947688,-0.08793196,1.2049317,0.81061816,-3.4497087
932,1778416236200,916.0,0.46185625,0.43947688,-0.08793196,1.2049317,0.81061816,-3.4497087
933,1778416236210,917.0,0.46185625,0.43947688,-0.08793196,1.2049317,0.81061816,-3.4497087
934,1778416236220,918.0,0.46185625,0.43947688,-0.08793196,1.2049317,0.81061816,-3.4497087
935,1778416236230,919.0,0.28812656,0.20964637,-0.03286777,0.6945538,1.1293371,-3.7304013
936,1778416236240,920.0,0.30520073,0.17068069,-0.015671646,0.6220135,1.0778717,-3.6784778
937,1778416236250,921.0,0.30520073,0.17068069,-0.015671646,0.6220135,1.0778717,-3.6784778
938,1778416236260,922.0,0.3795953,0.13567865,0.06982114,0.61422503,0.94882643,-3.520722
939,1778416236270,923.0,0.40026724,0.16202165,0.0851879,0.63621616,0.91981035,-3.491553
940,1778416236280,924.0,0.41971964,0.18196183,0.072870106,0.70341134,0.80970186,-3.5010214
941,1778416236290,925.0,0.45777062,0.17122951,0.08104131,0.73884153,0.6105598,-3.4857497
942,1778416236300,926.0,0.5152739,0.13659334,0.08835881,0.73945236,0.3753767,-3.411377
943,1778416236310,927.0,0.6390617,0.063418336,0.11897036,0.6976081,0.064446285,-3.1618385
944,1778416236320,928.0,0.76114196,0.039087646,0.17019285,0.6348417,-0.20647246,-2.855795
945,1778416236330,929.0,0.8537083,0.07421165,0.23434295,0.5821546,-0.3182608,-2.7183504
946,1778416236340,930.0,0.8537083,0.07421165,0.23434295,0.5821546,-0.3182608,-2.7183504
947,1778416236350,931.0,0.8537083,0.07421165,0.23434295,0.5821546,-0.3182608,-2.7183504
948,1778416236360,932.0,0.8240725,-0.029818814,0.377583,0.12370021,0.24480425,-3.275765
949,1778416236370,933.0,0.76089805,-0.14378887,0.37270468,0.06414085,0.4804455,-3.187953
950,1778416236380,934.0,0.76089805,-0.14378887,0.37270468,0.06414085,0.4804455,-3.187953
951,1778416236390,935.0,0.76089805,-0.14378887,0.37270468,0.06414085,0.4804455,-3.187953
952,1778416236400,936.0,0.76089805,-0.14378887,0.37270468,0.06414085,0.4804455,-3.187953
953,1778416236410,937.0,0.28227258,-0.25275865,-0.21098791,0.6951646,0.3538437,0.19486602
954,1778416236420,938.0,0.28593132,-0.21842737,-0.35520366,0.88086766,-0.14630222,1.1001683
955,1778416236430,939.0,0.35282546,-0.2040363,-0.42703712,0.96761054,-0.73746705,1.9927951
956,1778416236440,940.0,0.35282546,-0.2040363,-0.42703712,0.96761054,-0.73746705,1.9927951
957,1778416236450,941.0,0.5686307,-0.1501917,-0.47197875,0.93279123,-1.6462818,3.176194
958,1778416236460,942.0,0.66229475,-0.15458219,-0.45722178,0.8242099,-1.9953914,3.4362698
959,1778416236470,943.0,0.7052851,-0.21501255,-0.41374367,0.6595817,-2.140319,3.5575266
960,1778416236480,944.0,0.7777893,-0.368802,-0.28026026,0.3827071,-2.113441,3.7635407
961,1778416236490,,,,,,,
962,1778416236500,945.0,0.7777893,-0.368802,-0.28026026,0.3827071,-2.113441,3.7635407
963,1778416236510,946.0,0.7777893,-0.368802,-0.28026026,0.3827071,-2.113441,3.7635407
964,1778416236520,947.0,1.0751237,-0.5277747,0.06488183,-1.7550159,-0.59498274,5.1477613
965,1778416236530,948.0,1.1866546,-0.34672755,-0.034819108,-2.6719246,0.27855456,5.5069504
966,1778416236540,949.0,1.1866546,-0.34672755,-0.034819108,-2.6719246,0.27855456,5.5069504
967,1778416236550,950.0,1.1866546,-0.34672755,-0.034819108,-2.6719246,0.27855456,5.5069504
968,1778416236560,951.0,1.1866546,-0.34672755,-0.034819108,-2.6719246,0.27855456,5.5069504
969,1778416236570,952.0,1.1518356,0.17812014,-0.09768862,-1.3358096,-1.6143641,3.9955168
970,1778416236580,953.0,1.1015887,0.18141302,0.06250364,-1.1195632,-1.9834795,3.5181258
971,1778416236590,954.0,1.1015887,0.18141302,0.06250364,-1.1195632,-1.9834795,3.5181258
972,1778416236600,955.0,0.8616966,0.19769447,0.31434762,-1.0943651,-1.9656117,3.2291863
973,1778416236610,956.0,0.8616966,0.19769447,0.31434762,-1.1870639,-1.7311921,2.9159653
974,1778416236620,957.0,0.6964431,0.18659624,0.31014004,-1.3355042,-1.2530373,2.4825563
975,1778416236630,958.0,0.7061388,0.24891695,0.2815408,-1.4393512,-1.0341948,2.2795963
976,1778416236640,959.0,0.78352135,0.31404272,0.22537899,-1.6401732,-0.8257371,1.9650007
977,1778416236650,960.0,0.9098702,0.2646496,0.18287653,-1.9624046,-0.5731443,1.623527
978,1778416236660,961.0,1.0366459,0.18842563,0.12890996,-2.2869267,-0.4111123,1.4569136
979,1778416236670,962.0,1.1248827,0.15263085,0.056283772,-2.5784621,-0.3275765,1.3632985
980,1778416236680,963.0,1.1248827,0.15263085,0.056283772,-2.5784621,-0.3275765,1.3632985
981,1778416236690,964.0,1.3498958,0.10183521,-0.13250773,-2.888629,-0.8721629,1.2395983
982,1778416236700,965.0,1.3498958,0.10183521,-0.13250773,-2.888629,-0.8721629,1.2395983
983,1778416236710,966.0,1.5786287,0.120738745,-0.10866488,-2.8951957,-1.4341589,1.2744176
984,1778416236720,967.0,1.9626755,0.31806734,0.25013652,-3.1685581,-1.9307923,1.284955
985,1778416236730,968.0,2.1112208,0.39032766,0.38240036,-3.348916,-1.6730071,1.1672108
986,1778416236740,969.0,2.259949,0.447892,0.45935607,-3.5227072,-1.1933253,0.9763154
987,1778416236750,970.0,2.4578874,0.39758417,0.49051642,-3.4839172,-0.7134906,0.8164214
988,1778416236760,971.0,2.6497276,0.31068885,0.48838213,-3.223994,-0.38331795,0.7799222
989,1778416236770,972.0,2.7947361,0.29050475,0.45100194,-2.673299,-0.099265605,0.8483391
990,1778416236780,973.0,2.7947361,0.29050475,0.45100194,-2.673299,-0.099265605,0.8483391
991,1778416236790,974.0,2.880351,0.6220485,0.2900779,-1.4784466,-0.1563815,0.75426584
992,1778416236800,975.0,2.7892482,0.793278,0.31617698,-0.9486737,-0.2678644,0.42577308
993,1778416236810,976.0,2.6445446,0.87444127,0.3901447,-0.64858615,-0.19486602,0.066737026
994,1778416236820,977.0,2.28928,0.887064,0.48234522,-0.39080104,0.3173445,-0.538325
995,1778416236830,978.0,2.007739,0.8214504,0.45124584,-0.279929,0.79779,-0.90087354
996,1778416236840,979.0,1.6633897,0.71717596,0.35245958,-0.12385293,1.302212,-1.2321151
997,1778416236850,980.0,1.4277052,0.62802446,0.25806385,0.13087788,1.6276505,-1.420109
998,1778416236860,981.0,1.1817153,0.5509468,0.13147108,0.38453966,1.7238617,-1.4689782
999,1778416236870,982.0,0.9768863,0.5479588,0.02426971,0.7415904,1.6568192,-1.5070046
1000,1778416236880,983.0,0.86492854,0.5683868,-0.047868647,1.1180362,1.4569136,-1.6003143
1001,1778416236890,984.0,0.77547204,0.6014985,-0.10756725,1.3800973,1.2383766,-1.7098118
1002,1778416236900,985.0,0.69607717,0.6361347,-0.115250625,1.591304,0.9815077,-1.9043725
1003,1778416236910,986.0,0.6225363,0.646928,-0.10677453,1.6424639,0.83276206,-2.160783
1004,1778416236920,987.0,0.5864976,0.61924344,-0.09287128,1.5758796,0.77396625,-2.3608415
1005,1778416236930,988.0,0.55576414,0.5749116,-0.07012604,1.4172074,0.77839506,-2.58564
1006,1778416236940,989.0,0.53442144,0.5335677,-0.04256346,1.2631166,0.82253003,-2.7369816
1007,1778416236950,990.0,0.5281406,0.47612533,-0.009573729,0.9963212,0.95188075,-2.9213104
1008,1778416236960,991.0,0.5392388,0.4346595,-0.010854292,0.81245077,1.0456486,-3.0514245
1009,1778416236970,992.0,0.54844666,0.41807315,-0.017562,0.65500027,1.082606,-3.1746666
1010,1778416236980,993.0,0.5848512,0.3995355,-0.028782167,0.53221637,1.0410671,-3.2884402
1011,1778416236990,994.0,0.6171092,0.40002334,-0.014330104,0.43600506,0.88239485,-3.4773505
1012,1778416237000,995.0,0.6436351,0.4078287,0.015671646,0.44868052,0.72173727,-3.6882517
1013,1778416237010,996.0,0.67455155,0.39618164,0.06378421,0.47418416,0.5925393,-3.8623483
1014,1778416237020,997.0,0.6968699,0.36660674,0.13781293,0.49586987,0.54534996,-4.0975313
1015,1778416237030,998.0,0.7222373,0.27647954,0.1806203,0.5174029,0.6053675,-4.2788057
1016,1778416237040,999.0,0.73168904,0.19988972,0.15866779,0.600786,0.6713409,-4.350582
