id,timestamp,acc_x,acc_y,acc_z,gyro_x,gyro_y,gyro_z
0,1778360675.5111425,0.62259,0.36462155,0.68580085,-0.48070022,-0.8760462,-1.2399669
1,1778360675.5212817,0.6406503,0.336799,0.6784792,-0.5233108,-0.9932252,-1.3390363
2,1778360675.53152,0.6562699,0.2997023,0.6823841,-0.5595297,-1.1253179,-1.4242575
3,1778360675.5420346,0.65090066,0.2626056,0.71996886,-0.5478118,-1.347958,-1.5297186
4,1778360675.552498,0.62063754,0.21135357,0.7873287,-0.40826228,-1.6259918,-1.6074828
5,1778360675.5626886,0.56596875,0.18011424,0.81417495,-0.21118851,-1.9274614,-1.6532892
6,1778360675.5730007,0.5210622,0.16791138,0.818568,-0.031158961,-2.1959078,-1.6682029
7,1778360675.5832477,0.38390204,0.18060236,0.7404697,0.37151068,-2.9884639,-1.6277229
8,1778360675.5935354,0.33704305,0.19085276,0.7106947,0.50147283,-3.3378704,-1.5499586
9,1778360675.603822,0.33704305,0.19085276,0.7106947,0.50147283,-3.3378704,-1.5499586
10,1778360675.6142726,0.2975058,0.20451997,0.70093244,0.61865187,-3.6894073,-1.4647375
11,1778360675.6245992,0.28042176,0.22111587,0.7058135,0.70706874,-3.9717023,-1.3954954
12,1778360675.6349766,0.22672918,0.28554696,0.7311955,1.0149299,-4.7312355,-1.3518195
13,1778360675.6452599,0.1803583,0.353883,0.707766,1.1150647,-5.0145955,-1.2793816
14,1778360675.6556811,0.1803583,0.353883,0.707766,1.1150647,-5.0145955,-1.2793816
15,1778360675.666077,0.061258372,0.43295756,0.6487042,1.0873679,-5.339501,-0.99176043
16,1778360675.676155,0.0690682,0.47932845,0.63943,1.0117341,-5.2947598,-0.7446193
17,1778360675.6865664,0.12861817,0.59013045,0.65260905,0.76778877,-5.069989,-0.48256442
18,1778360675.6966786,0.18572757,0.6984919,0.65944266,0.5153213,-4.6641235,-0.3366233
19,1778360675.7067049,0.18572757,0.6984919,0.65944266,0.5153213,-4.6641235,-0.3366233
20,1778360675.717102,0.23014598,0.9025237,0.7385172,0.023169484,-3.7043211,-0.2631201
21,1778360675.72725,0.24771811,1.0299215,0.7907455,-0.1792306,-3.3186958,-0.30253488
22,1778360675.7374103,0.2677308,1.1973449,0.9005712,-0.49454865,-2.713626,-0.45806336
23,1778360675.7476058,0.26675457,1.2998489,1.0138137,-0.62877184,-2.3652847,-0.60506976
24,1778360675.7576346,0.2711476,1.3764828,1.0899596,-0.69375294,-2.1192088,-0.70094347
25,1778360675.7680786,0.35949633,1.4614148,1.1992973,-0.7352982,-1.7815202,-0.8181225
26,1778360675.778471,0.46736962,1.5199885,1.3393861,-0.67883927,-1.4725938,-0.94808465
27,1778360675.7889953,0.579636,1.59467,1.6283499,-0.38482648,-0.9633978,-1.1877689
28,1778360675.7990203,0.6118515,1.6205401,1.734759,0.075367406,-0.48829022,-1.3539501
29,1778360675.8091397,0.6118515,1.6205401,1.734759,0.075367406,-0.48829022,-1.3539501
30,1778360675.819186,0.7665838,1.6400647,1.7406163,1.2205259,0.31278804,-1.6437018
31,1778360675.8294275,0.85493255,1.6639824,1.679602,1.681785,0.4107923,-1.7811208
32,1778360675.839769,0.9989263,1.6986383,1.5419537,2.235722,0.349007,-2.0495672
33,1778360675.8500695,1.0755602,1.7025435,1.4248062,2.5414526,0.25632906,-2.2849905
34,1778360675.8605022,1.1482893,1.6913167,1.3501247,2.736396,0.211588,-2.4884558
35,1778360675.8710337,1.2327331,1.6532438,1.3589108,2.8216171,0.2605901,-2.6045697
36,1778360675.8811102,1.3303561,1.5785623,1.3842927,2.9313393,0.37137753,-2.7217486
37,1778360675.891157,1.4113832,1.4316398,1.3559821,3.1720889,0.6185187,-2.9028435
38,1778360675.901407,1.398692,1.2593354,1.2568948,3.4064467,0.81985354,-3.0157614
39,1778360675.9119134,1.3108315,1.0836142,1.0860548,3.6194994,0.9412936,-3.066894
40,1778360675.9223862,1.0311419,0.7497439,0.66188323,3.7537227,0.95940304,-3.0317404
41,1778360675.9331877,0.8495633,0.6213697,0.47054234,3.7569184,0.5514071,-2.8059044
42,1778360675.9436007,0.69385475,0.50715095,0.33142975,3.6503923,0.18602167,-2.6280055
43,1778360675.9537072,0.5708499,0.39878955,0.24454537,3.5278869,-0.2049301,-2.440519
44,1778360675.9641643,0.5708499,0.39878955,0.24454537,3.5278869,-0.2049301,-2.440519
45,1778360675.9741867,0.37316352,0.16937573,0.16595893,3.3691626,-0.7407577,-2.081525
46,1778360675.9845102,0.25992095,0.0302631,0.05662128,3.2551794,-1.0017473,-1.7715335
47,1778360675.9946404,0.25992095,0.0302631,0.05662128,3.2551794,-1.0017473,-1.7715335
48,1778360676.0049157,0.22233616,-0.2689511,-0.13618395,2.788594,-1.287238,-1.1685942
49,1778360676.0151453,0.23893206,-0.3909797,-0.13911264,2.5595622,-1.4076128,-0.92145306
50,1778360676.0254154,0.24186075,-0.6145361,-0.076633975,2.239983,-1.550358,-0.49428234
51,1778360676.0359302,0.2272173,-0.77024466,-0.067359805,2.061019,-1.5130738,-0.2077264
52,1778360676.0460234,0.21208574,-0.9859913,-0.018060237,1.8777934,-1.2680632,0.2109222
53,1778360676.0562847,0.20915705,-1.1675699,0.04344219,1.823465,-0.8984167,0.62211394
54,1778360676.0667741,0.16571487,-1.287646,0.017084008,1.8490313,-0.53196603,1.0226531
55,1778360676.076796,0.11299851,-1.363792,-0.062478654,1.8543577,-0.31358698,1.3518195
56,1778360676.0871456,-0.03099527,-1.4028411,-0.25723633,1.7478313,-0.17723323,1.8844514
57,1778360676.0971665,-0.06711575,-1.394055,-0.49104318,1.4538186,-0.33595753,2.3584938
58,1778360676.1076128,0.036852647,-1.3193735,-0.6794554,0.9712541,-0.66299343,2.743054
59,1778360676.1177082,0.1466784,-1.2188219,-0.76243484,0.50147283,-0.9367662,2.9752812
60,1778360676.127889,0.24820623,-1.0557917,-0.82100856,-0.42743704,-1.2435621,3.3587763
61,1778360676.137915,0.31019676,-0.9313224,-0.84053314,-1.0122668,-1.2797811,3.6538544
62,1778360676.1479838,0.41074833,-0.79318607,-0.80636513,-1.8005619,-1.2776506,4.1108522
63,1778360676.1582398,0.635281,-0.60086894,-0.6711574,-2.56116,-1.3490232,4.594482
64,1778360676.1687338,0.9183875,-0.4217309,-0.47493544,-3.0788782,-1.5045518,4.933236
65,1778360676.1787796,0.9183875,-0.4217309,-0.47493544,-3.0788782,-1.5045518,4.933236
66,1778360676.1890643,1.7911361,0.1581491,0.21672285,-3.595531,-1.933853,5.350819
67,1778360676.199376,2.2870605,0.5437595,0.5544981,-3.4080448,-2.1064258,5.4445624
68,1778360676.209536,2.6653492,0.85224795,0.7643873,-3.0639646,-2.1181436,5.3838425
69,1778360676.2196841,2.9142876,1.0904478,0.8712844,-2.7145581,-2.0819247,5.192095
70,1778360676.2297335,3.0748773,1.3457316,0.8854397,-2.2437115,-2.0286615,4.804339
71,1778360676.2402442,3.0792704,1.5463467,0.7883049,-1.9081535,-1.9466362,4.4666505
72,1778360676.2504673,2.962123,1.6947334,0.5793919,-1.6098797,-1.7431707,3.9329534
73,1778360676.2606995,2.6746233,1.7616051,0.23966423,-1.6674039,-1.3735243,3.479151
74,1778360676.2709801,2.4881637,1.7586764,0.048323333,-1.8985661,-1.1274484,3.2075088
75,1778360676.281417,2.242642,1.7215798,-0.1010397,-2.3204105,-0.863263,2.8378623
76,1778360676.2924793,2.0029778,1.6512914,-0.14887492,-2.7838001,-0.6800377,2.4671507
77,1778360676.302789,1.6051645,1.5224291,-0.08151512,-3.2450593,-0.61292607,2.0921779
78,1778360676.313406,1.2952118,1.4126034,0.07175283,-3.4229584,-0.65447134,1.8972346
79,1778360676.3240159,0.88958865,1.2476206,0.39830142,-3.3537164,-0.939962,1.5989608
80,1778360676.334269,0.88958865,1.2476206,0.39830142,-3.3537164,-0.939962,1.5989608
81,1778360676.3447359,0.63186425,1.1685461,0.61209553,-2.7273412,-1.1966906,1.1611373
82,1778360676.3549278,0.63186425,1.1685461,0.61209553,-2.7273412,-1.1966906,1.1611373
83,1778360676.365371,0.2711476,1.1690342,0.6135599,-2.1670125,-1.0283788,0.8223835
84,1778360676.375392,0.15400012,1.1949043,0.6291796,-1.9720693,-0.82704407,0.7467498
85,1778360676.3858836,0.08908089,1.2627522,0.6487042,-1.5949659,-0.3806986,0.50919604
86,1778360676.3959339,0.03636453,1.2822767,0.61111933,-1.3584775,-0.13036163,0.25566328
87,1778360676.406101,-0.08664032,1.2764194,0.53253293,-1.3584775,-0.13036163,0.25566328
88,1778360676.4162755,-0.08664032,1.2764194,0.53253293,-1.0314416,0.20413114,-0.16085482
89,1778360676.4265463,-0.29116032,1.2129645,0.3900035,-0.6724477,0.63769346,-0.61572236
90,1778360676.4365673,-0.3785328,1.1651293,0.3231318,-0.54035497,0.81346196,-0.77231616
91,1778360676.44685,-0.3619369,1.1304731,0.35974038,-0.35073805,1.0094705,-0.91825724
92,1778360676.4573033,-0.2945771,1.1246158,0.43588626,-0.15792534,1.1213231,-1.0077394
93,1778360676.4677892,-0.14374973,1.1270564,0.528628,0.16484955,1.27046,-1.1440932
94,1778360676.478216,-0.0017084008,1.1324255,0.5701177,0.46418864,1.4025527,-1.2815121
95,1778360676.4883451,0.2203837,1.1670818,0.56865335,0.90627307,1.5708644,-1.5286534
96,1778360676.498371,0.36291313,1.2525018,0.52423495,1.25781,1.662477,-1.7150744
97,1778360676.508414,0.47713193,1.3530535,0.5193538,1.4250565,1.6816518,-1.7630113
98,1778360676.518912,0.6816519,1.5282865,0.6067263,1.6231955,1.6560855,-1.7022913
99,1778360676.5289388,1.0306537,1.7235322,0.7883049,1.8128124,1.5793865,-1.5893734
100,1778360676.5394518,1.5402453,1.854347,1.0538392,2.3805978,1.3279843,-1.4370407
101,1778360676.5494912,2.148924,1.9187781,1.2978964,2.857836,1.16926,-1.4317143
102,1778360676.5595155,2.148924,1.9187781,1.2978964,2.857836,1.16926,-1.4317143
103,1778360676.5696394,3.2095969,1.8958366,1.291551,4.2416134,0.8028093,-2.0261314
104,1778360676.5796633,3.4263198,1.7879633,1.044565,4.612325,0.71119666,-2.456498
105,1778360676.5897973,3.3350422,1.5053451,0.46029195,4.7508097,0.60360503,-3.1382668
106,1778360676.600259,3.1642022,1.3223021,0.15277983,4.5398874,0.542885,-3.3971257
107,1778360676.6102812,2.8850007,1.0772687,-0.15668476,4.0807586,0.49175233,-3.6091132
108,1778360676.6205058,2.5750482,0.84199744,-0.3226437,3.491668,0.486426,-3.6879427
109,1778360676.6305904,2.2690003,0.6369894,-0.38561043,2.901512,0.50560075,-3.6197658
110,1778360676.6409075,2.067897,0.49397188,-0.38463423,2.4604926,0.49494812,-3.483412
111,1778360676.6513407,1.6988826,0.15961345,-0.1683995,1.6743281,0.24887222,-3.147854
112,1778360676.661847,1.6988826,0.15961345,-0.1683995,1.6743281,0.24887222,-3.147854
113,1778360676.6718774,1.5202327,0.00976229,-0.04002539,1.544366,0.0038615807,-3.0636983
114,1778360676.682095,1.1560992,-0.27383223,0.11373068,1.4911028,-0.35513225,-2.8836687
115,1778360676.6923742,0.98330665,-0.42026657,0.12690976,1.4761891,-0.38389438,-2.7739465
116,1778360676.7033136,0.8095379,-0.5637722,0.110801995,1.4666017,-0.35300174,-2.6525064
117,1778360676.713459,0.8095379,-0.5637722,0.110801995,1.4666017,-0.35300174,-2.6525064
118,1778360676.7237096,0.60941094,-0.7048373,0.041977845,1.4239912,-0.31571752,-2.4831295
119,1778360676.7339914,0.311173,-0.9371798,-0.07028849,1.1757847,-0.39454702,-1.9430408
120,1778360676.7442055,0.25699228,-1.0284572,-0.060038086,1.0692583,-0.55753237,-1.6586155
121,1778360676.754419,0.19890666,-1.1089962,-0.08590815,0.98829836,-0.73010504,-1.4050827
122,1778360676.7644978,0.1330112,-1.1861182,-0.15229172,0.98829836,-0.73010504,-1.4050827
123,1778360676.7745807,0.1330112,-1.1861182,-0.15229172,0.7816372,-0.9570062,-1.0077394
124,1778360676.7846153,-0.13496366,-1.2739788,-0.36315718,0.56219286,-1.0741853,-0.70520455
125,1778360676.7949214,-0.19451363,-1.2822767,-0.4412555,0.18722008,-1.2243874,-0.2428801
126,1778360676.8053684,-0.20915705,-1.2607998,-0.46419686,-0.17710008,-1.3234569,0.19174746
127,1778360676.815504,-0.20915705,-1.2607998,-0.46419686,-0.17710008,-1.3234569,0.19174746
128,1778360676.825761,-0.11299851,-1.1446284,-0.42319524,-0.7619298,-1.4033517,0.95980257
129,1778360676.8362744,-0.08615221,-1.0216236,-0.47884035,-1.1187931,-1.4480928,1.4370407
130,1778360676.8466022,-0.10470056,-0.8854397,-0.5725583,-1.5044186,-1.5290529,1.9142787
131,1778360676.8568175,-0.041733786,-0.7072779,-0.6452874,-1.9912441,-1.6813855,2.5001738
132,1778360676.867101,-0.041733786,-0.7072779,-0.6452874,-1.9912441,-1.6813855,2.5001738
133,1778360676.8776314,0.3443648,-0.25772443,-0.5183776,-2.9457202,-2.16395,3.7486627
134,1778360676.8876517,0.86664724,-0.021477038,-0.2591888,-3.3143015,-2.4462447,4.3345575
135,1778360676.897935,1.5968665,0.3265486,0.09615856,-3.4080448,-2.657167,4.581699
136,1778360676.9084315,2.1054819,0.6731099,0.30848834,-3.231211,-2.668885,4.381429
137,1778360676.9185617,2.2787626,0.9781815,0.38902727,-2.9755476,-2.495247,3.984086
138,1778360676.92899,2.2055452,1.1695224,0.37682438,-2.798714,-2.309891,3.7188354
139,1778360676.9390337,2.0639923,1.3110756,0.36413342,-2.604836,-2.1447752,3.5707638
140,1778360676.9490623,1.9063311,1.4887493,0.40903994,-2.314019,-2.0840552,3.531349
141,1778360676.9591033,1.8492217,1.5839316,0.46273252,-1.9987009,-2.0616846,3.4780858
142,1778360676.9694507,1.8087083,1.6517794,0.4846977,-1.7110797,-2.0137477,3.4333446
143,1778360676.9795377,1.768683,1.7162106,0.464685,-1.3680649,-1.857154,3.3353405
144,1778360676.9897134,1.6564165,1.7152344,0.35974038,-1.0719216,-1.5024213,3.1137657
145,1778360676.9997833,1.5163277,1.6908286,0.25333142,-0.9579383,-1.1892337,2.8772771
146,1778360677.0100713,1.4050376,1.671304,0.19378147,-0.9227846,-0.9783115,2.651441
147,1778360677.020401,1.4050376,1.671304,0.19378147,-0.9227846,-0.9783115,2.651441
148,1778360677.0308976,1.1092402,1.5473229,0.15961345,-0.932372,-0.67258084,2.0559587
149,1778360677.0412636,0.8847075,1.461903,0.22404456,-0.9238499,-0.604404,1.7257271
150,1778360677.0516257,0.5850052,1.3457316,0.34070393,-0.8183888,-0.5159871,1.3401017
151,1778360677.0620127,0.39464056,1.257383,0.37584817,-0.71612346,-0.36045858,1.0940257
152,1778360677.0722742,0.23258655,1.2036903,0.39146784,-0.6436856,-0.16338481,0.92358357
153,1778360677.0825734,0.09396204,1.1646413,0.3968371,-0.59574866,0.068842664,0.7957519
154,1778360677.0929952,-0.10958171,1.0611609,0.4544346,-0.4189149,0.70160925,0.44741073
155,1778360677.10304,-0.10958171,1.0611609,0.4544346,-0.4189149,0.70160925,0.44741073
156,1778360677.113206,-0.08908089,1.0460293,0.5701177,-0.121706374,0.76339453,0.17470324
157,1778360677.12345,-0.076389916,1.0426126,0.6203935,0.18508956,0.68776083,-0.025566328
158,1778360677.1334686,-0.016351834,1.0294335,0.6169767,0.509995,0.6217145,-0.22903168
159,1778360677.1435835,0.12715383,0.93522733,0.5213063,1.2418311,0.9104009,-0.74035823
160,1778360677.153676,0.12715383,0.93522733,0.5213063,1.2418311,0.9104009,-0.74035823
161,1778360677.163939,0.30629185,0.93327487,0.45297024,1.7808545,1.7743298,-1.0418278
162,1778360677.174006,0.30629185,0.93327487,0.45297024,1.7808545,1.7743298,-1.0418278
163,1778360677.1840715,0.40293851,0.98159826,0.42368335,2.0482357,2.038515,-1.1685942
164,1778360677.194369,0.7148437,1.1656175,0.19378147,2.8748803,2.2409153,-1.503087
165,1778360677.2049322,0.8744571,1.2822767,0.051740136,3.1252172,2.1929784,-1.5808512
166,1778360677.2150893,0.8744571,1.2822767,0.051740136,3.1252172,2.1929784,-1.5808512
167,1778360677.2252798,1.3323085,1.4863087,-0.12056428,3.273289,2.0672772,-1.6074828
168,1778360677.235713,1.6725243,1.6639824,-0.24161668,3.3190951,1.520797,-1.5606112
169,1778360677.2460973,1.9058431,1.8406798,-0.30067852,3.1220214,1.2353064,-1.5371754
170,1778360677.2565055,2.2484994,2.0066388,-0.25430766,2.7225475,0.97964305,-1.5456976
171,1778360677.2667491,2.2484994,2.0066388,-0.25430766,2.7225475,0.97964305,-1.5456976
172,1778360677.276785,2.9582179,1.930981,-0.06833603,1.8937725,1.1660643,-2.1113524
173,1778360677.2871177,3.0407093,1.666911,0.13081467,1.4080123,1.6156055,-2.876212
174,1778360677.297145,2.8459516,1.4736177,0.24015234,1.2833763,1.8382455,-3.2011173
175,1778360677.3076777,2.4891398,1.2432276,0.3231318,1.3036164,1.9714035,-3.3917994
176,1778360677.3177018,2.1821158,1.0416363,0.33191785,1.4442312,1.9138793,-3.4131048
177,1778360677.327727,2.0005372,0.88836837,0.28749946,1.5720628,1.750894,-3.4045825
178,1778360677.3381038,1.7813739,0.6794554,0.14252943,1.677524,1.4643381,-3.381147
179,1778360677.3482614,1.6051645,0.5271637,0.002928687,1.6338481,1.2363716,-3.3641026
180,1778360677.3583565,1.4353007,0.37096703,-0.13032657,1.4325132,1.0531462,-3.3225572
181,1778360677.368378,1.2742229,0.21769907,-0.24600971,1.1108036,0.98923045,-3.25225
182,1778360677.3785775,1.1668377,0.08786061,-0.29726174,0.7795067,1.0307758,-3.188334
183,1778360677.3891044,1.0809295,-0.08102701,-0.28994003,0.3629886,1.1128011,-3.1265488
184,1778360677.3991272,0.99355704,-0.3109289,-0.19622204,0.008255793,1.1863042,-3.1020477
185,1778360677.4093702,0.87396896,-0.50568664,-0.094206095,-0.09614004,1.1458242,-3.098852
186,1778360677.4194155,0.7353445,-0.68336034,-0.00976229,-0.01624527,1.0062747,-3.046654
187,1778360677.4296877,0.6367454,-0.82491344,0.06687169,0.20000325,0.75487244,-2.977412
188,1778360677.4398203,0.4702983,-1.0001466,0.07028849,0.728374,0.23395853,-2.8101654
189,1778360677.4498372,0.33362624,-1.1129011,-0.061502427,1.1651322,-0.24221432,-2.593917
190,1778360677.4603672,0.18768002,-1.1841658,-0.28505886,1.4026859,-0.73330086,-2.295643
191,1778360677.4708278,0.057841565,-1.2085714,-0.5188657,1.3409007,-1.1359705,-1.906822
192,1778360677.481136,-0.029042812,-1.1983211,-0.6570021,1.0863026,-1.3564801,-1.5350449
193,1778360677.4915535,-0.05686534,-1.1319375,-0.74242216,0.50147283,-1.5386401,-0.9108004
194,1778360677.5019462,0.031483386,-1.073852,-0.7038611,0.03701791,-1.5908381,-0.46445495
195,1778360677.5123982,0.061746486,-1.0143019,-0.6433349,-0.26764748,-1.5674022,-0.09587373
196,1778360677.5225267,-0.016839951,-0.912286,-0.626739,-0.4466118,-1.6206654,0.3046654
197,1778360677.5330827,-0.05344854,-0.8151512,-0.64187056,-0.7352982,-2.301369,1.3550154
198,1778360677.543458,0.07004443,-0.511544,-0.71313524,-0.91213197,-2.69019,1.8237313
199,1778360677.553873,0.07004443,-0.511544,-0.71313524,-0.91213197,-2.69019,1.8237313
200,1778360677.5639853,0.26968327,-0.29091623,-0.6965394,-1.2892354,-3.2249525,2.5406537
201,1778360677.5743155,0.8217408,0.16595893,-0.55791485,-1.9795262,-3.49766,3.5547848
202,1778360677.5844216,0.8217408,0.16595893,-0.55791485,-1.9795262,-3.49766,3.5547848
203,1778360677.594503,1.6056527,0.6901939,-0.21965154,-2.6122928,-3.105643,4.1087217
204,1778360677.6049824,1.8350664,0.94352525,-0.08151512,-2.7806044,-2.786064,4.0021954
205,1778360677.6153705,1.8350664,0.94352525,-0.08151512,-2.7806044,-2.786064,4.0021954
206,1778360677.6256697,1.897057,1.1446284,0.002928687,-2.9158928,-2.4313312,3.817905
207,1778360677.6358862,1.777957,1.2969202,0.077122085,-3.0565076,-1.9157435,3.587808
208,1778360677.6460905,1.5993071,1.3862451,0.2328306,-2.9414592,-1.8560888,3.5963302
209,1778360677.656533,1.5993071,1.3862451,0.2328306,-2.669817,-1.9913772,3.620831
210,1778360677.6665545,1.5226732,1.4174845,0.39634898,-2.3640864,-2.1234698,3.5782206
211,1778360677.6770825,1.415288,1.3657444,0.41294485,-1.9369156,-2.236388,3.458911
212,1778360677.6871746,1.244936,1.3032657,0.3162982,-1.5172018,-2.2140174,3.2863383
213,1778360677.697199,1.1024066,1.2515256,0.19963883,-1.3307806,-2.0244005,3.123353
214,1778360677.707244,0.9623177,1.2061309,0.10348027,-1.2860395,-1.8411751,2.9848688
215,1778360677.7172635,0.7831797,1.1456047,0.0043930304,-1.364869,-1.6217307,2.8304055
216,1778360677.727651,0.7831797,1.1456047,0.0043930304,-1.538507,-1.4097433,2.6684854
217,1778360677.737984,0.53131264,1.0108851,-0.014643434,-1.7025576,-1.2595412,2.5172179
218,1778360677.7481627,0.3482697,0.94303715,0.08005078,-1.9443724,-1.0166609,2.2615547
219,1778360677.758313,0.2272173,0.9132622,0.19719826,-2.0402462,-0.82491356,2.137984
220,1778360677.7687864,0.18084641,0.91423845,0.302631,-2.0381157,-0.6512756,2.0421104
221,1778360677.7788277,0.15253578,0.93327487,0.44418418,-1.9251977,-0.41691756,1.874864
222,1778360677.7891538,0.11543907,0.97085977,0.58036816,-1.6684692,-0.1932122,1.6309186
223,1778360677.7993083,0.073949344,1.0099089,0.65114474,-1.4500902,-0.071772136,1.4572806
224,1778360677.8093672,0.03734076,1.0723876,0.69214636,-0.8578035,0.1732385,1.0077394
225,1778360677.819396,-0.018792408,1.1065556,0.6784792,-0.3997402,0.31811434,0.68283397
226,1778360677.829448,-0.09689073,1.129985,0.61941725,0.02210422,0.42570597,0.40799597
227,1778360677.8394825,-0.12568948,1.1421878,0.5789038,0.3299654,0.5002744,0.23222747
228,1778360677.8495042,-0.025626011,1.1778203,0.52960426,0.74967927,0.6387587,-0.020240009
229,1778360677.8600056,0.11592719,1.2241911,0.44808912,1.0362352,0.8113314,-0.29401276
230,1778360677.8701766,0.25650415,1.274955,0.33533466,1.213069,1.0126662,-0.6167877
231,1778360677.8803296,0.34631723,1.3291358,0.25674823,1.2663321,1.1831084,-0.8681899
232,1778360677.8906837,0.55913514,1.4501882,0.21428227,1.2610059,1.4558159,-1.2751206
233,1778360677.9008093,0.6645679,1.5678238,0.25870067,1.2950943,1.5868434,-1.5723292
234,1778360677.9108887,0.84809893,1.7035197,0.36852646,1.4282522,1.5943002,-1.7694029
235,1778360677.9209883,1.0838583,1.8743596,0.49885303,1.7233303,1.4685991,-1.8791251
236,1778360677.9314146,1.428467,2.0061505,0.53302103,2.0141473,1.302418,-1.9781946
237,1778360677.9419134,1.9570951,2.1169527,0.42026657,2.316682,1.0765821,-2.2679462
238,1778360677.9519932,2.6126328,2.2658274,0.127886,2.3507705,1.0329063,-2.6024392
239,1778360677.962025,2.6126328,2.2658274,0.127886,2.1856546,1.0595379,-2.9838035
240,1778360677.9725492,2.8615713,2.2023726,0.017084008,1.9140124,1.1277148,-3.4535847
241,1778360677.9825811,2.894275,2.0788796,-0.07809832,1.641305,1.1479547,-3.8487976
242,1778360677.99262,2.7785916,1.8753358,-0.16058967,1.2695279,1.1543463,-4.2365537
243,1778360678.0028894,2.4496026,1.5702643,-0.16303024,0.8668583,1.2395674,-4.432562
244,1778360678.0129569,2.1586864,1.3149804,-0.15229172,0.5994771,1.3929653,-4.3526673
245,1778360678.0231419,1.9087718,1.1099724,-0.1244692,0.39814228,1.5623423,-4.1566586
246,1778360678.0332196,1.6163912,0.82149667,-0.08151512,0.29694223,1.6678034,-3.7667723
247,1778360678.043645,1.377215,0.588178,-0.102992155,0.32037804,1.581517,-3.4290836
248,1778360678.053989,1.377215,0.588178,-0.102992155,0.34700963,1.4472938,-3.2139003
249,1778360678.064076,1.1902672,0.4378387,-0.11665936,0.34700963,1.4472938,-3.2139003
250,1778360678.07426,0.9374239,0.14204131,-0.13520771,0.3597928,1.2203927,-2.796317
251,1778360678.0844936,0.8324793,0.006833603,-0.127886,0.35872754,1.185239,-2.6088307
252,1778360678.0950453,0.6621273,-0.2020794,-0.056133166,0.42264336,1.1117358,-2.2903168
253,1778360678.1052914,0.57377857,-0.34607318,-0.006345488,0.5462139,1.0701904,-2.0580893
254,1778360678.1157827,0.5352176,-0.4978768,0.0302631,0.5462139,1.0701904,-2.0580893
255,1778360678.1258204,0.5352176,-0.4978768,0.0302631,0.7368961,1.0446242,-1.8461019
256,1778360678.1362433,0.5435155,-0.614048,0.065407336,0.93823093,0.99136096,-1.7065524
257,1778360678.1462626,0.5474204,-0.87616557,0.024405725,1.7563534,0.63769346,-1.4988259
258,1778360678.156286,0.46639338,-0.9776934,-0.13179092,2.0109515,0.43209755,-1.4572806
259,1778360678.1667595,0.32337585,-1.0562798,-0.3338703,2.1558273,0.08269109,-1.3124048
260,1778360678.177028,0.17547716,-1.0884954,-0.48665017,2.0588882,-0.13249217,-1.1217226
261,1778360678.1872325,0.044662476,-1.091424,-0.6145361,1.8287914,-0.3476754,-0.8703204
262,1778360678.197632,-0.09005712,-1.0650659,-0.7214332,1.2109385,-0.66618925,-0.30040434
263,1778360678.207653,-0.136428,-0.9957536,-0.733148,0.7123951,-0.8376967,0.13528848
264,1778360678.2180717,-0.16473864,-0.9371798,-0.7326599,0.23302642,-0.9165262,0.5592634
265,1778360678.228328,-0.19256116,-0.8771418,-0.72826684,-0.14514217,-0.9719199,0.90760463
266,1778360678.2383626,-0.20134723,-0.8000197,-0.69214636,-0.4924181,-1.077381,1.2772511
267,1778360678.2485642,-0.17938207,-0.6555378,-0.5964759,-0.9376983,-1.3660674,1.9792598
268,1778360678.2585897,-0.18475133,-0.5447358,-0.5447358,-1.1124016,-1.5748591,2.4799337
269,1778360678.268701,-0.09298581,-0.2962855,-0.47639978,-1.2966921,-1.8880466,3.2714245
270,1778360678.2792172,0.24869433,0.029774986,-0.366574,-1.4479597,-2.1501014,4.0948734
271,1778360678.2895126,0.70264083,0.32459614,-0.25089085,-1.5076144,-2.2704763,4.621114
272,1778360678.2995343,1.6593453,0.9283937,-0.010738519,-1.4500902,-2.1916468,4.9524107
273,1778360678.3100593,2.063504,1.2974083,0.062478654,-1.360608,-1.8656762,4.7777076
274,1778360678.3205268,2.3861477,1.6820425,0.062478654,-1.3488901,-1.5642065,4.509261
275,1778360678.3306072,2.3861477,1.6820425,0.062478654,-1.3488901,-1.5642065,4.509261
276,1778360678.3410013,2.511593,1.9514818,0.030751213,-1.4341111,-1.2371706,4.1044607
277,1778360678.351027,2.511593,1.9514818,0.030751213,-1.4341111,-1.2371706,4.1044607
278,1778360678.3614237,1.9854058,2.1467276,0.038561042,-1.6120102,-0.822783,2.9923255
279,1778360678.3719184,1.9854058,2.1467276,0.038561042,-1.6120102,-0.822783,2.9923255
280,1778360678.3823657,1.9854058,2.1467276,0.038561042,-1.6120102,-0.822783,2.9923255
281,1778360678.3924031,1.9854058,2.1467276,0.038561042,-1.6120102,-0.822783,2.9923255
282,1778360678.4029086,1.1102165,1.5692881,0.0156196635,-1.3680649,-0.8920251,2.0495672
283,1778360678.41341,0.76756,1.3330406,-0.07468152,-1.5097449,-0.74182296,1.8077524
284,1778360678.423602,0.76756,1.3330406,-0.07468152,-1.5097449,-0.74182296,1.8077524
285,1778360678.433668,0.50495446,1.2671453,-0.03904916,-1.6897744,-0.57244605,1.5776554
286,1778360678.4439085,0.13838045,1.1036268,0.174745,-1.7632776,-0.5063997,1.438106
287,1778360678.4539416,0.05296042,1.0352908,0.3436326,-1.5257238,-0.624644,1.4498239
288,1778360678.4640102,0.05296042,1.0352908,0.3436326,-1.5257238,-0.624644,1.4498239
289,1778360678.4740417,0.023673553,0.98794377,0.4544346,-1.090031,-0.7641935,1.4540849
290,1778360678.4844022,0.1164153,0.8776299,0.43491003,0.02210422,-0.8291746,1.228249
291,1778360678.4949164,0.20915705,0.8278422,0.32508424,0.64741397,-0.89522094,0.8383625
292,1778360678.505361,0.22135992,0.7873287,0.1952458,0.95207936,-0.96446306,0.45273703
293,1778360678.5153766,0.076389916,0.74193406,-0.026358182,1.1331742,-0.899482,-0.045806337
294,1778360678.5255196,-0.18426323,0.71167094,-0.25528386,1.1331742,-0.899482,-0.045806337
295,1778360678.5357828,-0.18426323,0.71167094,-0.25528386,0.72943926,-0.3050649,-0.5006739
296,1778360678.5462806,-0.45760733,0.68433654,-0.44955346,0.17550218,0.23076274,-0.4719118
297,1778360678.5563207,-0.45760733,0.68433654,-0.44955346,0.17550218,0.23076274,-0.4719118
298,1778360678.5667212,-0.17450093,0.79611474,-0.12202863,-0.3294328,0.73995876,-0.5081307
299,1778360678.5768907,-0.17450093,0.79611474,-0.12202863,-0.3294328,0.73995876,-0.5081307
300,1778360678.5869153,0.2506468,0.9947773,0.13325526,-0.10253163,0.81346196,-1.0109352
301,1778360678.596949,0.41514137,1.1158297,0.22062775,0.14247902,0.8656599,-1.5084133
302,1778360678.6072814,0.41514137,1.1158297,0.22062775,0.14247902,0.8656599,-1.5084133
303,1778360678.6176376,0.29262465,1.3789234,0.28749946,0.48655918,1.4931002,-1.8940388
304,1778360678.627771,0.3053156,1.5453705,0.37536004,0.6548708,1.791374,-1.6980302
305,1778360678.6378052,0.48006064,1.734759,0.5208182,0.9403615,1.9298582,-1.3763206
306,1778360678.6482146,1.168302,2.025675,0.78537625,1.7957681,1.6326497,-0.9715204
307,1778360678.658368,1.8160299,2.182848,0.85859346,2.5308,1.2022831,-1.0641984
308,1778360678.6684127,2.3114662,2.2731493,0.72875494,3.1348045,0.84861565,-1.4136049
309,1778360678.6789114,2.5926201,2.298531,0.45199403,3.371293,0.69521767,-1.8407756
310,1778360678.689278,2.6951241,2.276566,0.26748675,3.2999206,0.7048051,-2.0868514
311,1778360678.6993206,2.8029974,2.0920587,-0.02831064,2.6703496,0.9434241,-2.6365275
312,1778360678.7095895,2.7312446,1.8753358,-0.025870068,2.0684757,1.2182621,-3.0328057
313,1778360678.7201173,2.5228198,1.602968,0.07175283,1.5251912,1.5239928,-3.3843427
314,1778360678.7304056,2.2665596,1.3320644,0.15180361,1.17685,1.7594161,-3.5973954
315,1778360678.7409027,1.9414753,1.0816617,0.23429495,0.9190562,1.965012,-3.6953995
316,1778360678.7509274,1.1975889,0.5789038,0.47688788,0.74541825,2.126932,-3.6133742
317,1778360678.761115,1.0199152,0.36803833,0.5530337,0.7613972,2.1493025,-3.325753
318,1778360678.7712622,1.0199152,0.36803833,0.5530337,0.9606015,2.053429,-2.9838035
319,1778360678.7812881,0.9442575,0.25381953,0.5588911,1.160871,1.9564898,-2.7686203
320,1778360678.7917645,0.8988628,0.14497001,0.5183776,1.3558143,1.8744645,-2.561959
321,1778360678.8022628,0.8510276,-0.13520771,0.23673552,1.6242608,1.775395,-2.190182
322,1778360678.8124104,0.7895252,-0.30116665,0.06980037,1.5507575,1.8009614,-2.1060262
323,1778360678.8225138,0.7895252,-0.30116665,0.06980037,1.5507575,1.8009614,-2.1060262
324,1778360678.832961,0.7285109,-0.4217309,-0.0043930304,1.4570143,1.8148098,-2.068742
325,1778360678.842981,0.39464056,-0.75364876,-0.0873725,1.3057469,1.541037,-1.9494325
326,1778360678.8534827,0.21794313,-0.8815348,-0.11861181,1.3185301,1.2289147,-1.7651418
327,1778360678.863528,0.21794313,-0.8815348,-0.11861181,1.3185301,1.2289147,-1.7651418
328,1778360678.873927,-0.071020655,-1.0723876,-0.21916342,1.3547491,0.583365,-1.2420974
329,1778360678.884385,-0.21306199,-1.1226633,-0.30800024,1.3366395,0.34687647,-0.93849725
330,1778360678.8944156,-0.32679266,-1.1490215,-0.4583395,1.1257174,0.092278466,-0.33768857
331,1778360678.904833,-0.38341394,-1.1314493,-0.55108124,0.8977509,0.010253162,-0.0010652636
332,1778360678.9150066,-0.43173727,-1.0855666,-0.6462636,0.53982234,-0.06644582,0.40586546
333,1778360678.9252043,-0.43173727,-1.0855666,-0.6462636,0.53982234,-0.06644582,0.40586546
334,1778360678.935271,-0.53180075,-0.99038434,-0.780007,-0.24208117,-0.2954775,1.1387669
335,1778360678.9454129,-0.6152683,-0.9098454,-0.79318607,-0.69375294,-0.5298355,1.640506
336,1778360678.955431,-0.6621273,-0.780007,-0.72777873,-1.1795132,-0.9655283,2.5065653
337,1778360678.965508,-0.6621273,-0.780007,-0.72777873,-1.1795132,-0.9655283,2.5065653
338,1778360678.9758728,-0.46932206,-0.5549862,-0.51349646,-1.5289197,-1.33624,3.729488
339,1778360678.986102,0.55767083,-0.119588055,-0.06980037,-1.5001575,-1.6717981,5.090895
340,1778360678.996291,1.6471423,0.42856455,0.17669745,-1.0165278,-1.6664718,5.421127
341,1778360679.006425,2.0952315,0.76341105,0.17132819,-0.70227504,-1.5311834,5.23364
342,1778360679.0168476,2.3754091,1.1914874,-0.020012695,-0.43382862,-1.2819116,4.771316
343,1778360679.0270648,2.3724804,1.4023529,-0.15473229,-0.4221107,-1.1434274,4.512457
344,1778360679.0374708,2.2919416,1.5648952,-0.24161668,-0.4988097,-1.0198568,4.350537
345,1778360679.047773,2.2138433,1.7440331,-0.25333142,-0.6330329,-0.8366314,4.250402
346,1778360679.0577948,2.2397132,1.8431203,-0.17376876,-0.6628603,-0.7269093,4.158789
347,1778360679.068274,2.247523,1.8811932,-0.11617125,-0.57124764,-0.649145,3.915909
348,1778360679.0782986,2.1474595,1.8933961,-0.12739788,-0.43382862,-0.61079556,3.5824816
349,1778360679.0887332,2.0088353,1.8850981,-0.16254212,-0.34754226,-0.59907764,3.3204267
350,1778360679.098973,1.7530633,1.7977256,-0.26455808,-0.30173594,-0.5617934,2.9166918
351,1778360679.1095006,1.5143752,1.6839949,-0.33191785,-0.37097806,-0.5032039,2.58646
352,1778360679.1198983,1.2566508,1.5692881,-0.3499781,-0.37097806,-0.5032039,2.58646
353,1778360679.1301887,1.0335824,1.4599504,-0.32898918,-0.64901185,-0.48189864,2.0378494
354,1778360679.1404054,0.8603018,1.3618395,-0.29140437,-0.754473,-0.5127913,1.8397104
355,1778360679.150447,0.6142921,1.227608,-0.21477039,-0.9068057,-0.55220604,1.5744597
356,1778360679.1605647,0.44052333,1.1324255,-0.12398108,-1.0005488,-0.53196603,1.3646027
357,1778360679.170909,0.2975058,1.065554,-0.0,-1.0357026,-0.49361655,1.13131
358,1778360679.1813731,0.16913168,1.0211354,0.13667206,-0.97178674,-0.44567966,0.87138563
359,1778360679.1914234,0.04807928,0.9952655,0.24600971,-0.85141194,-0.41052598,0.6860298
360,1778360679.2018018,-0.11006982,0.97330034,0.37243137,-0.5233108,-0.3423491,0.4431497
361,1778360679.2119305,-0.1632743,0.95377576,0.4471129,-0.29214856,-0.2635196,0.34088436
362,1778360679.2222474,-0.12178457,0.9454777,0.5022698,0.02210422,-0.12290479,0.19387798
363,1778360679.2324202,-0.084687866,0.94938266,0.5266756,0.34274858,0.05286371,0.009587373
364,1778360679.2427218,-0.054424766,0.9581688,0.5086153,0.58669394,0.22437115,-0.15552849
365,1778360679.2527647,-0.003172744,0.9679311,0.49201941,0.7901593,0.3990744,-0.32916647
366,1778360679.2630432,0.13886857,0.9972179,0.48713827,1.1022816,0.68989134,-0.723314
367,1778360679.2730799,0.2608972,1.0391958,0.47103047,1.2855068,0.858203,-1.1132005
368,1778360679.2834918,0.37072295,1.159272,0.46663743,1.3984249,1.0201231,-1.4444975
369,1778360679.2935245,0.36632994,1.2593354,0.5100796,1.6114776,1.8531593,-2.081525
370,1778360679.3040516,0.36632994,1.2593354,0.5100796,1.6114776,1.8531593,-2.081525
371,1778360679.3144956,0.413677,1.4711771,0.64772797,1.8522272,2.2228057,-2.1102872
372,1778360679.3246171,0.5879339,1.6703278,0.7844,2.2857895,2.377269,-1.9867167
373,1778360679.3350093,1.2639725,1.9666133,0.82149667,3.3127036,1.9437066,-1.6863123
374,1778360679.3452454,1.5954022,2.1662521,0.733148,3.7153733,1.581517,-1.5584807
375,1778360679.3554616,2.3905408,2.4400845,0.44955346,3.714308,1.4089444,-1.6458323
376,1778360679.3655913,2.877191,2.4493585,0.26406994,3.4096427,1.5229275,-1.9728682
377,1778360679.3756092,2.877191,2.4493585,0.26406994,2.8003118,1.852094,-2.593917
378,1778360679.3856475,3.3091724,2.1638114,0.10152781,2.8003118,1.852094,-2.593917
379,1778360679.3960824,3.0089817,1.7996782,0.26065314,1.4548838,2.566886,-3.7529237
380,1778360679.4064841,2.6531463,1.4409139,0.45248213,1.1747195,2.6425197,-3.9862165
381,1778360679.416958,2.3090258,1.0626253,0.5857374,1.1267827,2.6222796,-4.0352187
382,1778360679.4269834,2.0454438,0.7643873,0.6428468,1.2151995,2.571147,-4.0064564
383,1778360679.4370172,1.7130377,0.4417436,0.65846646,1.4527533,2.4571638,-3.863711
384,1778360679.4475234,1.3791674,0.15961345,0.5930591,1.8287914,2.2174795,-3.5441322
385,1778360679.4580448,1.2088156,-0.0014643435,0.47639978,2.1100209,1.9479678,-3.2394667
386,1778360679.468291,1.1297411,-0.097134784,0.366574,2.2602232,1.6667382,-3.0242834
387,1778360679.4783266,1.0838583,-0.208913,0.23331872,2.3134863,1.3290496,-2.8357317
388,1778360679.4887621,1.0609169,-0.3192269,0.123004854,2.231461,1.0733863,-2.715357
389,1778360679.4991503,1.0252845,-0.46224442,0.0078098318,2.0109515,0.9008136,-2.6194832
390,1778360679.5095909,0.9696394,-0.5891542,-0.065407336,1.7531576,0.88696516,-2.533197
391,1778360679.5201137,0.90081537,-0.686289,-0.08932495,1.5550185,0.93383676,-2.4650202
392,1778360679.5303872,0.78708464,-0.7995315,-0.099575356,1.3526185,0.96046835,-2.3457105
393,1778360679.5406067,0.6616392,-0.9025237,-0.10640897,1.2311784,0.878443,-2.2082915
394,1778360679.5509412,0.5679212,-0.98208636,-0.119099945,1.1906984,0.7026745,-2.0921779
395,1778360679.5614157,0.25650415,-1.1285207,-0.24747404,1.2141342,0.30000487,-1.8961693
396,1778360679.57176,0.25650415,-1.1285207,-0.24747404,1.2215911,-0.070706874,-1.6788555
397,1778360679.5819082,0.1295944,-1.1436522,-0.35974038,1.1225215,-0.354067,-1.4082786
398,1778360679.5922046,-0.09493827,-1.0933765,-0.5725583,0.509995,-0.5596629,-0.66046345
399,1778360679.60257,-0.14521407,-1.0450531,-0.609655,0.509995,-0.5596629,-0.66046345
400,1778360679.6126263,-0.14521407,-1.0450531,-0.609655,0.14674006,-0.57457656,-0.28549066
401,1778360679.623058,-0.18133454,-0.98403883,-0.6238103,-0.19520956,-0.6054692,0.07243793
402,1778360679.6335585,-0.22526483,-0.9386441,-0.6365013,-0.43808967,-0.6502103,0.3430149
403,1778360679.6436434,-0.27944556,-0.88885653,-0.6496804,-0.67351294,-0.7492798,0.63809294
404,1778360679.6541154,-0.31703037,-0.77610207,-0.6487042,-1.0729868,-1.0699241,1.2719247
405,1778360679.6645377,-0.32581642,-0.51398456,-0.53350914,-1.5257238,-1.5919033,2.3989737
406,1778360679.6747649,-0.32581642,-0.51398456,-0.53350914,-1.5257238,-1.5919033,2.3989737
407,1778360679.6850016,-0.1867038,-0.31825066,-0.383658,-1.6727302,-1.8486319,3.256511
408,1778360679.695331,0.6211257,0.08395569,-0.119588055,-1.6546208,-1.9796593,4.599808
409,1778360679.7053752,1.2527459,0.45248213,0.0039049159,-1.5161365,-1.8006951,5.0088696
410,1778360679.7154865,1.6759411,0.79660285,0.033679903,-1.4191974,-1.5333139,5.1058087
411,1778360679.725696,1.6759411,0.79660285,0.033679903,-1.4191974,-1.5333139,5.1058087
412,1778360679.7361014,2.1333044,1.2895985,-0.09859913,-1.518267,-1.0379663,5.0525455
413,1778360679.7461517,2.2948701,1.466296,-0.088348724,-1.6908398,-0.8004125,4.949215
414,1778360679.7562773,2.2948701,1.466296,-0.088348724,-1.6908398,-0.8004125,4.949215
415,1778360679.7664475,2.4613175,1.6595892,0.07907455,-1.7249281,-0.6470145,4.743619
416,1778360679.7768366,2.5809054,1.7459855,0.25479576,-1.5523554,-0.6608629,4.505
417,1778360679.7868574,2.3998148,1.8006544,0.35485923,-0.85886884,-0.64807975,3.7230964
418,1778360679.7969677,2.3998148,1.8006544,0.35485923,-0.85886884,-0.64807975,3.7230964
419,1778360679.8070388,2.1674724,1.7454975,0.26114124,-0.504136,-0.6033387,3.3406668
420,1778360679.817494,1.5436621,1.5248697,-0.055645052,-0.2058622,-0.37856805,2.5971127
421,1778360679.8275125,1.2459122,1.4218775,-0.16693515,-0.28149593,-0.28802067,2.3531673
422,1778360679.8379047,1.0423685,1.3403623,-0.2255089,-0.40719703,-0.22197431,2.1891167
423,1778360679.8481386,0.8744571,1.2686096,-0.24845028,-0.57124764,-0.14847112,2.0431757
424,1778360679.8581636,0.6240544,1.1504859,-0.21477039,-0.87484777,0.011318427,1.7811208
425,1778360679.8684654,0.4702983,1.0924002,-0.1210524,-1.0335721,0.114649,1.5829818
426,1778360679.8785949,0.34387666,1.0465174,-0.008297946,-1.0793784,0.19773956,1.3635374
427,1778360679.8887873,0.23893206,1.0260166,0.07468152,-1.0463552,0.24141537,1.1930953
428,1778360679.898806,0.14374973,1.0172306,0.15668476,-0.9440899,0.2573943,1.0279794
429,1778360679.9092073,-0.018304294,1.0225998,0.268463,-0.6255761,0.2233059,0.7765772
430,1778360679.9196618,-0.08127106,1.0333383,0.31141704,-0.3954791,0.21265325,0.7084003
431,1778360679.929806,-0.05344854,1.0494461,0.36413342,-0.0023968432,0.26485118,0.6103961
432,1778360679.940215,0.022697324,1.0660421,0.3841461,0.28096327,0.33622384,0.4857602
433,1778360679.9506981,0.12813005,1.0972813,0.38121742,0.70280766,0.43635863,0.20346536
434,1778360679.9607363,0.21062139,1.1373067,0.32508424,1.0127994,0.5695166,-0.07563372
435,1778360679.971257,0.26626647,1.1656175,0.2362474,1.213069,0.7452851,-0.36538544
436,1778360679.9817927,0.34778157,1.1929518,0.16449459,1.3004206,0.9412936,-0.65407187
437,1778360679.9918513,0.41074833,1.2183337,0.14204131,1.2993553,1.1074747,-0.90121305
438,1778360680.0018966,0.4966565,1.274955,0.2806658,1.2801806,1.2853737,-1.1622026
439,1778360680.0124142,0.4937278,1.3135161,0.4300289,1.5390396,1.868073,-1.5307839
440,1778360680.0225303,0.4937278,1.3135161,0.4300289,1.5390396,1.868073,-1.5307839
441,1778360680.0327158,0.532777,1.3315763,0.592571,1.9544924,1.9543593,-1.3124048
442,1778360680.0430317,1.1790406,1.5209647,0.90398806,3.4469268,1.177782,-0.38029912
443,1778360680.0532322,1.1790406,1.5209647,0.90398806,3.4469268,1.177782,-0.38029912
444,1778360680.0635657,2.7122083,1.7498904,0.6867771,4.1254997,0.6824345,-0.21518326
445,1778360680.0735967,3.100259,1.7581885,0.4373506,5.066128,-0.277368,-1.1579416
446,1778360680.083997,3.2681708,1.6932691,0.08590815,4.9010115,-0.41052598,-1.9792598
447,1778360680.0944624,3.1754289,1.6024799,-0.18353106,4.4834285,-0.29760802,-2.5257401
448,1778360680.1045375,2.8103192,1.4038173,-0.45638704,3.342531,0.1615206,-3.1308098
449,1778360680.1149254,2.5472255,1.227608,-0.43198135,2.4402528,0.4896218,-3.366233
450,1778360680.125217,2.5472255,1.227608,-0.43198135,2.4402528,0.4896218,-3.366233
451,1778360680.1352355,2.19139,0.83809257,-0.0976229,1.2695279,1.0179926,-3.6474626
452,1778360680.1455944,1.9497733,0.6252747,0.08005078,0.9819068,1.1873695,-3.7486627
453,1778360680.1557817,1.7130377,0.3904916,0.21037734,0.88603306,1.2171968,-3.7380102
454,1778360680.165817,1.5036367,0.26651052,0.24600971,0.90627307,1.1351715,-3.6463974
455,1778360680.1762676,1.5036367,0.26651052,0.24600971,0.90627307,1.1351715,-3.6463974
456,1778360680.1862855,1.2288283,0.07028849,0.2757847,0.9361004,0.8816388,-3.4216268
457,1778360680.1967158,1.155611,-0.011714748,0.29042813,0.93503517,0.7825693,-3.308709
458,1778360680.2069998,1.155611,-0.011714748,0.29042813,0.93503517,0.7825693,-3.308709
459,1778360680.2172725,1.0926442,-0.20842488,0.29823795,0.9243825,0.67497766,-3.1169615
460,1778360680.2276678,1.0457853,-0.2860351,0.29140437,0.93183935,0.700544,-3.1020477
461,1778360680.2381642,0.94962674,-0.36852646,0.2757847,0.9467531,0.7431545,-3.079677
462,1778360680.2482972,0.86615914,-0.42856455,0.25674823,0.97658044,0.77511245,-3.0541108
463,1778360680.2584693,0.72655845,-0.53009236,0.21721096,1.0373005,0.7825693,-2.985934
464,1778360680.2687297,0.58988637,-0.6033095,0.18157859,1.1001511,0.72611034,-2.8900602
465,1778360680.2788603,0.4698102,-0.6472398,0.15082738,1.1661974,0.5918871,-2.7451844
466,1778360680.2891572,0.37169918,-0.68140787,0.1181237,1.2237216,0.40653124,-2.5395885
467,1778360680.2994828,0.33020946,-0.7063017,0.08786061,1.2546142,0.24248064,-2.3116221
468,1778360680.3098376,0.3145898,-0.72582626,0.035632357,1.2610059,0.14873743,-2.1465063
469,1778360680.3203511,0.30238694,-0.72729063,-0.020012695,1.2141342,0.09653952,-1.9185398
470,1778360680.3304274,0.28920785,-0.7311955,-0.107873306,1.1246521,0.1647164,-1.7694029
471,1778360680.34053,0.2638259,-0.7380291,-0.18255483,1.0010815,0.27763432,-1.6650071
472,1778360680.3510277,-0.046614934,-0.716064,-0.42905265,0.7592667,0.5290366,-1.4764555
473,1778360680.3615375,-0.31507793,-0.6770148,-0.5530337,0.19574219,1.0339715,-0.89908254
474,1778360680.3717022,-0.31507793,-0.6770148,-0.5530337,0.19574219,1.0339715,-0.89908254
475,1778360680.3821778,-0.5864696,-0.6228341,-0.6892177,-0.18668745,1.2022831,-0.34408015
476,1778360680.392342,-0.7670719,-0.5749989,-0.7912336,-0.5744434,1.2353064,0.25885907
477,1778360680.402411,-0.7480355,-0.47395915,-0.8576172,-1.8666083,0.98709995,2.3169484
478,1778360680.4126997,-0.7480355,-0.47395915,-0.8576172,-1.8666083,0.98709995,2.3169484
479,1778360680.4230165,-0.55864704,-0.36803833,-0.7560893,-2.3683474,0.8454199,3.1904645
480,1778360680.4334288,-0.18816814,-0.19622204,-0.4881145,-2.710297,0.5897566,4.068242
481,1778360680.4436035,0.23209843,-0.1044565,-0.26162934,-2.811497,0.28296065,4.8299055
482,1778360680.4540021,0.6045298,-0.02831064,-0.07028849,-2.674078,0.10506163,5.21127
483,1778360680.4640768,0.6045298,-0.02831064,-0.07028849,-2.674078,0.10506163,5.21127
484,1778360680.4743338,0.6045298,-0.02831064,-0.07028849,-2.674078,0.10506163,5.21127
485,1778360680.4845288,1.4870408,0.20061506,0.36218095,-2.0743346,0.09334373,5.325253
486,1778360680.4946306,1.8384832,0.3704789,0.48128092,-1.3339764,0.3106575,5.106874
487,1778360680.5047643,1.8384832,0.3704789,0.48128092,-1.3339764,0.3106575,5.106874
488,1778360680.514847,1.8965688,0.54864067,0.31190515,-0.65540344,0.62597555,4.848015
489,1778360680.5250335,1.8399476,0.6726217,0.045394648,-0.37736964,0.8070704,4.7105956
490,1778360680.535351,1.5763657,1.0611609,0.2723679,-1.1038795,0.3575291,4.4101915
491,1778360680.5456197,1.5763657,1.0611609,0.2723679,-0.82478034,0.12743217,4.3271008
492,1778360680.5559373,1.641285,1.1138773,0.469078,-0.29108328,-0.14953639,4.144941
493,1778360680.566065,1.5919853,1.2124764,0.43637437,1.0500836,-0.24754064,3.3598416
494,1778360680.5761569,1.4533609,1.2593354,0.29726174,1.4325132,-0.2251701,3.0370667
495,1778360680.5862725,1.4533609,1.2593354,0.29726174,1.4325132,-0.2251701,3.0370667
496,1778360680.5966,1.205887,1.2988727,0.14887492,1.7552881,-0.12503532,2.614157
497,1778360680.606625,1.0467615,1.330112,0.11568313,1.9076209,0.016644744,2.3457105
498,1778360680.6170905,1.0140579,1.334505,0.13179092,2.0162778,0.14234586,2.1475716
499,1778360680.6274889,1.0179628,1.325719,0.15863721,2.1313262,0.22863221,1.9441061
500,1778360680.6375294,1.0101529,1.3159567,0.16547081,2.303899,0.31917962,1.6330491
501,1778360680.6476562,1.0140579,1.3154685,0.15668476,2.4434485,0.37350807,1.3677986
502,1778360680.657947,0.9886759,1.2861817,0.11665936,2.659697,0.46938178,0.8905604
503,1778360680.6680424,0.92278045,1.2412751,0.07272906,2.772615,0.5514071,0.54008865
504,1778360680.678574,0.83150303,1.1866064,0.028798755,2.8269434,0.64621556,0.22690116
505,1778360680.6889112,0.75389284,1.1343781,0.011226633,2.8418572,0.7335672,0.020240009
506,1778360680.6989365,0.68311626,1.0958171,0.013179091,2.8471835,0.87737775,-0.18109483
507,1778360680.7090573,0.6035536,1.0543274,0.04490653,2.8418572,1.0755168,-0.3600591
508,1778360680.71908,0.6118515,1.057256,0.12495731,2.8887286,1.1831084,-0.45273703
509,1778360680.7293966,0.6919023,1.0899596,0.22453266,3.0176256,1.1884347,-0.54434973
510,1778360680.7396073,0.7817154,1.1202227,0.3162982,3.184872,1.1191926,-0.6295708
511,1778360680.7500029,0.93107843,1.1475571,0.41977844,3.410708,0.9721862,-0.7211835
512,1778360680.760114,1.2000295,1.1953924,0.5422952,3.7814195,0.6451503,-0.90973514
513,1778360680.7704108,1.5509838,1.2539662,0.61941725,4.3598576,0.134889,-1.2207922
514,1778360680.780992,1.7589207,1.326207,0.588178,4.6538706,-0.24434485,-1.3582112
515,1778360680.7913089,1.9678336,1.4072341,0.5462001,4.748679,-0.5383576,-1.390169
516,1778360680.8016667,2.818617,1.5268221,0.44906533,4.7220473,-0.79508615,-1.4370407
517,1778360680.8117952,3.1280818,1.487773,0.41050428,4.0370827,-1.0656631,-2.1347883
518,1778360680.821825,3.1280818,1.487773,0.41050428,4.0370827,-1.0656631,-2.1347883
519,1778360680.8319194,3.3555434,1.3628157,0.35827604,3.5193648,-0.8984167,-2.812296
520,1778360680.8423965,3.2969692,1.1578076,0.2894519,2.9047077,-0.6033387,-3.5388057
521,1778360680.852693,3.0387568,0.97037166,0.23868799,2.377402,-0.2986733,-3.9947386
522,1778360680.863143,2.285108,0.45004156,0.27187976,0.97444993,0.30959225,-4.5316315
523,1778360680.8736591,2.0493488,0.27139166,0.4271002,0.5472792,0.40333545,-4.557198
524,1778360680.884029,2.0493488,0.27139166,0.4271002,0.5472792,0.40333545,-4.557198
525,1778360680.8940496,1.8858303,0.11519502,0.61502427,0.3683149,0.29361328,-4.5231094
526,1778360680.9041035,1.6861916,-0.11226633,0.8683557,0.55367076,0.122105844,-4.530566
527,1778360680.9148786,1.5529363,-0.30116665,0.8937377,0.84129196,0.036884755,-4.5753074
528,1778360680.9252193,1.5529363,-0.30116665,0.8937377,0.84129196,0.036884755,-4.5753074
529,1778360680.9352796,1.4440868,-0.4036707,0.8468786,1.0277131,0.05286371,-4.5923514
530,1778360680.9456124,1.2927712,-0.5120321,0.750232,1.213069,0.14873743,-4.542284
531,1778360680.955776,1.0101529,-0.66920495,0.5427833,1.4144038,0.486426,-4.286621
532,1778360680.9660125,0.86274236,-0.7180164,0.44906533,1.4708627,0.6632598,-4.093808
533,1778360680.9760292,0.74413055,-0.7570656,0.36413342,1.5134733,0.7559377,-3.8818207
534,1778360680.9863648,0.63918597,-0.801484,0.30214286,1.5550185,0.7783083,-3.673029
535,1778360680.9965086,0.5503491,-0.8390688,0.25674823,1.600825,0.7708514,-3.4866078
536,1778360681.0065467,0.42441553,-0.88104665,0.17718557,1.6764586,0.73463243,-3.131875
537,1778360681.0165706,0.3219115,-0.9191196,0.11324256,1.6998944,0.7335672,-2.9060392
538,1778360681.026908,0.18914436,-0.9479183,0.04490653,1.7105471,0.8006788,-2.5811338
539,1778360681.0370872,0.041733786,-0.9518233,-0.037584815,1.7041556,0.93383676,-2.1571589
540,1778360681.0471435,-0.06028214,-0.93229866,-0.1147069,1.681785,1.0680599,-1.7534239
541,1778360681.0572443,-0.1901206,-0.88739216,-0.23722363,1.6072165,1.2832432,-1.0940257
542,1778360681.0674815,-0.28969595,-0.8439499,-0.36022848,1.4974943,1.4781865,-0.5273055
543,1778360681.077828,-0.38975942,-0.80294836,-0.4983649,1.2918985,1.6358454,0.056458972
544,1778360681.0880036,-0.38975942,-0.80294836,-0.4983649,1.2918985,1.6358454,0.056458972
545,1778360681.0985417,-0.46200037,-0.70337296,-0.673598,0.7177214,1.7562202,1.1366363
546,1778360681.108566,-0.48152497,-0.6530972,-0.7228975,0.28096327,1.7498287,1.9323882
547,1778360681.1188636,-0.44784504,-0.5876899,-0.71264714,-0.069508456,1.7317193,2.6887255
548,1778360681.1289113,-0.35022214,-0.49934113,-0.6467517,-0.38802227,1.7050877,3.5590458
549,1778360681.1391923,-0.045638707,-0.4217309,-0.53936654,-0.62983716,1.7242624,4.4666505
550,1778360681.149212,0.36974674,-0.3499781,-0.44223174,-0.7597993,1.7562202,5.0525455
551,1778360681.159254,0.95987713,-0.19573392,-0.28457075,-0.7597993,1.7615466,5.4882383
552,1778360681.1696787,1.5495194,0.06199054,-0.093717985,-0.5659213,1.714675,5.4498887
553,1778360681.1797144,1.803339,0.26406994,-0.005857374,-0.25486434,1.6006918,5.159072
554,1778360681.1897883,1.803339,0.26406994,-0.005857374,-0.25486434,1.6006918,5.159072
555,1778360681.1998076,1.7247525,0.4407674,0.01415532,0.29481173,1.1980221,4.568916
556,1778360681.2101107,1.5592817,0.53009236,0.08005078,0.60267293,0.81559247,4.468781
557,1778360681.2201686,1.5373166,0.6379657,0.19817449,1.0287783,0.42357546,4.5156527
558,1778360681.2306752,1.615415,0.70239675,0.23722363,1.3835112,0.3372891,4.5188484
559,1778360681.2408416,1.7228,0.7385172,0.26065314,1.6306523,0.3841607,4.4346924
560,1778360681.2509186,1.79016,0.8009959,0.28554696,1.9576882,0.5183839,4.202465
561,1778360681.261457,1.7335385,0.8717725,0.24161668,2.3284,0.70160925,3.8093827
562,1778360681.271907,1.6705719,0.9000831,0.17425688,2.549975,0.8070704,3.4418669
563,1778360681.28194,1.58564,0.9376679,0.09127741,2.683133,0.9093357,3.0413277
564,1778360681.292004,1.4606826,0.9693954,0.035632357,2.7534401,0.96472937,2.6940517
565,1778360681.3024743,1.2600676,0.993313,0.0102504045,2.81416,1.0030788,2.2988389
566,1778360681.3126771,0.8851956,1.0421244,0.006345488,2.8514445,0.99775255,2.0453062
567,1778360681.322963,0.84565836,1.0416363,0.021965152,2.873815,0.9849694,1.8002956
568,1778360681.3329868,0.84565836,1.0416363,0.021965152,2.853575,1.0829736,1.6106787
569,1778360681.343068,0.87396896,1.0411482,0.067847915,2.8567708,1.20974,1.430649
570,1778360681.353163,0.92961407,1.0494461,0.20842488,3.0357351,1.4962959,0.9001478
571,1778360681.3636339,0.89007676,1.0108851,0.21623473,3.2924635,1.6337149,0.46445495
572,1778360681.3738055,0.89007676,1.0108851,0.21623473,3.2924635,1.6337149,0.46445495
573,1778360681.3840106,0.8305268,0.9440134,0.17279254,3.576889,1.6848476,-0.053263184
574,1778360681.3943977,0.8139309,0.9313224,0.1718163,3.6759584,1.6795213,-0.25672853
575,1778360681.4047658,0.8295506,0.92448884,0.21232979,3.851727,1.6560855,-0.56885076
576,1778360681.4147818,0.84663457,0.9288819,0.2362474,3.9507966,1.6518245,-0.7105309
577,1778360681.4248333,0.9261973,0.9615856,0.30897647,4.0924764,1.5985613,-0.8415583
578,1778360681.435377,0.9261973,0.9615856,0.30897647,4.0924764,1.5985613,-0.8415583
579,1778360681.445801,1.274711,1.0074683,0.3904916,4.2810283,1.4259886,-0.99176043
580,1778360681.4560742,1.5251138,1.0182068,0.3533949,4.685828,0.7420893,-1.4551501
581,1778360681.4662724,1.6124862,1.0557917,0.30019042,4.676241,0.40227017,-1.5691334
582,1778360681.4764068,1.8301853,1.206619,0.32947728,4.5036683,-0.07603319,-1.5968302
583,1778360681.4864495,2.1416023,1.2910628,0.43881494,4.236287,-0.51918286,-1.5893734
584,1778360681.4964733,2.506224,1.3252308,0.55401,3.989146,-0.70453876,-1.6596807
585,1778360681.5064962,3.0328994,1.3823403,0.76292294,3.6546533,-0.7386272,-1.9451714
586,1778360681.5167842,3.4502373,1.3364575,0.93181056,3.4820805,-0.68429875,-2.3851254
587,1778360681.527049,3.4502373,1.3364575,0.93181056,3.4820805,-0.68429875,-2.3851254
588,1778360681.5375705,3.6259587,0.96402615,0.8717725,3.371293,-0.5649892,-3.1553109
589,1778360681.5479991,3.3682342,0.79318607,0.7311955,3.063432,-0.43502703,-4.0693073
590,1778360681.5581868,3.090009,0.61941725,0.60086894,2.785398,-0.3689807,-4.274903
591,1778360681.5682065,2.7561386,0.30848834,0.4612682,2.2122862,-0.20812589,-4.3942127
592,1778360681.5786772,2.7561386,0.30848834,0.4612682,1.8117472,-0.04087949,-4.436823
593,1778360681.5889282,2.3837073,-0.043930303,0.4846977,1.677524,0.037950017,-4.4389534
594,1778360681.5991051,2.2314155,-0.15180361,0.536926,1.589107,0.0560595,-4.4464107
595,1778360681.6095667,1.9370824,-0.25772443,0.58232063,1.5954986,-0.22303957,-4.455998
596,1778360681.6197622,1.8345783,-0.30848834,0.575487,1.5709976,-0.42330915,-4.4496064
597,1778360681.6298728,1.7725879,-0.43246946,0.54034275,1.4346439,-0.56392395,-4.48476
598,1778360681.6399786,1.683263,-0.56816524,0.54034275,1.2428963,-0.50107336,-4.534827
599,1778360681.6504052,1.5846636,-0.66822875,0.55693865,1.1054773,-0.36152384,-4.5476103
600,1778360681.6609032,1.4787428,-0.7682922,0.57402265,0.9840373,-0.13568796,-4.505
601,1778360681.6709561,1.2556745,-0.9200958,0.5608435,0.94781834,0.13701953,-4.3739724
602,1778360681.681164,1.0750722,-1.0352908,0.5422952,1.003212,0.28828698,-4.1907473
603,1778360681.6911852,0.9003272,-1.1124129,0.5227706,1.1427616,0.29467857,-3.9766293
604,1778360681.701408,0.77097684,-1.142676,0.48909074,1.3036164,0.211588,-3.790208
605,1778360681.7117796,0.45516676,-1.2417632,0.20842488,1.645566,-0.15060164,-3.2586415
606,1778360681.722298,0.45516676,-1.2417632,0.20842488,1.645566,-0.15060164,-3.2586415
607,1778360681.7326567,0.27212384,-1.2564068,-0.0,1.5954986,-0.24754064,-2.9326708
608,1778360681.74301,0.08517598,-1.2222387,-0.20696054,1.3803153,-0.23795326,-2.5300012
609,1778360681.7532163,-0.18377511,-1.1207108,-0.4612682,0.6697845,-0.033422645,-1.5851123
610,1778360681.7637143,-0.3082443,-0.9952655,-0.56718904,0.11158637,0.14128059,-0.85221094
611,1778360681.7737331,-0.32581642,-0.9200958,-0.6106312,-0.31451908,0.252068,-0.26418537
612,1778360681.7840097,-0.32581642,-0.9200958,-0.6106312,-0.31451908,0.252068,-0.26418537
613,1778360681.794191,-0.32337585,-0.77854264,-0.6467517,-0.72251505,0.28828698,0.26525065
614,1778360681.8043575,-0.28920785,-0.6999562,-0.6047739,-1.4735259,0.14554164,1.3550154
615,1778360681.8147295,-0.25308737,-0.63454884,-0.5339973,-1.6407723,0.034754228,1.7875124
616,1778360681.824748,-0.153512,-0.53936654,-0.45199403,-1.7387766,-0.12503532,2.3499715
617,1778360681.8349102,-0.153512,-0.53936654,-0.45199403,-1.7387766,-0.12503532,2.3499715
618,1778360681.8450582,0.11543907,-0.22404456,-0.30019042,-1.6908398,-0.50533444,3.418431
619,1778360681.855085,0.50544256,0.047347106,-0.18792409,-1.6024228,-0.74821454,4.07996
620,1778360681.865112,0.97452056,0.24698594,-0.08102701,-1.5044186,-0.8259788,4.364385
621,1778360681.8751333,1.4177285,0.47005424,0.033191785,-1.3616732,-0.76845455,4.2962084
622,1778360681.8853755,1.4177285,0.47005424,0.033191785,-1.3616732,-0.76845455,4.2962084
623,1778360681.8955328,1.6481185,0.66188323,0.08590815,-1.1720563,-0.6139913,3.9702375
624,1778360681.9056299,1.462147,0.9054524,-0.00097622897,-0.968591,-0.51066077,3.458911
625,1778360681.915658,1.240543,0.9689073,-0.05515694,-0.9867005,-0.55433655,3.3310795
626,1778360681.9261491,1.1312053,1.0108851,-0.029286869,-1.0527468,-0.5894903,3.450389
627,1778360681.936172,1.1312053,1.0108851,-0.029286869,-1.0527468,-0.5894903,3.450389
628,1778360681.9463058,1.163909,0.99917036,0.0976229,-1.0793784,-0.50107336,3.61657
629,1778360681.9564188,1.1858741,0.98794377,0.15424417,-1.0410289,-0.39880806,3.6187005
630,1778360681.9667556,1.1892909,0.9850151,0.17376876,-0.93876356,-0.20279956,3.543067
631,1778360681.9767783,1.1585398,0.9894081,0.17620933,-0.8823046,-0.094142675,3.4418669
632,1778360681.987039,1.1585398,0.9894081,0.17620933,-0.83649826,0.023036325,3.281012
633,1778360681.9972076,1.1282767,1.01479,0.18011424,-0.83649826,0.023036325,3.281012
634,1778360682.0075114,1.091668,1.0748281,0.20159128,-0.79921407,0.12956269,3.1041782
635,1778360682.017853,1.091668,1.0748281,0.20159128,-0.79921407,0.12956269,3.1041782
636,1778360682.0280476,0.9349833,1.1436522,0.2596769,-0.79921407,0.12956269,3.1041782
637,1778360682.0385578,0.91106576,1.1543908,0.26553428,-0.71186244,0.48536074,2.480999
638,1778360682.0486817,0.8358961,1.2032022,0.2894519,-0.657534,0.65260714,2.1923125
639,1778360682.0587363,0.81295466,1.2344415,0.3104408,-0.61172765,0.7335672,2.0016303
640,1778360682.068871,0.81295466,1.2344415,0.3104408,-0.46578652,0.9370325,1.4317143
641,1778360682.0788987,0.6718896,1.2734908,0.30555966,-0.4135886,1.0243841,1.1600721
642,1778360682.0889187,0.22477673,1.2612879,0.3031191,-0.12703268,1.3759211,0.26525065
643,1778360682.0989542,0.25601605,1.2651927,0.35193056,0.023169484,1.395096,0.103330575
644,1778360682.108981,0.33313814,1.2778838,0.4275883,0.28415906,1.4164011,-0.14168006
645,1778360682.1193812,0.49421594,1.2793481,0.4651731,0.7379614,1.4888391,-0.5432845
646,1778360682.129735,0.5625519,1.2827649,0.47005424,0.9403615,1.5346454,-0.7169224
647,1778360682.1398447,0.67091334,1.3096112,0.44662476,0.9403615,1.5346454,-0.7169224
648,1778360682.1498618,0.79831123,1.3354812,0.4271002,1.5901723,1.698696,-1.1100047
649,1778360682.160154,0.9906283,1.3735542,0.40659937,1.8298566,1.7636771,-1.2144005
650,1778360682.1702626,1.3069266,1.4165082,0.37633628,2.0961726,1.7998961,-1.3667332
651,1778360682.18039,1.667155,1.4492118,0.3436326,2.3497052,1.7476982,-1.5616765
652,1778360682.1905622,1.667155,1.4492118,0.3436326,2.3497052,1.7476982,-1.5616765
653,1778360682.201069,2.1152442,1.4487238,0.3270367,2.7097645,1.520797,-1.8354492
654,1778360682.211238,3.1568806,1.7157224,0.31678632,3.5949984,0.5684513,-2.28286
655,1778360682.2214427,3.1568806,1.7157224,0.31678632,3.5949984,0.5684513,-2.28286
656,1778360682.2319117,3.479036,1.6527556,0.06931226,3.5428007,0.6068008,-2.6620939
657,1778360682.2419393,3.6059456,1.4726415,-0.19817449,3.2157645,0.78683037,-3.163833
658,1778360682.2522135,3.141749,1.0382195,-0.50763905,2.2101557,1.1458242,-3.9201703
659,1778360682.2627206,2.660468,0.7614586,-0.5022698,1.6274565,1.221458,-4.057589
660,1778360682.2727652,2.3451462,0.56474847,-0.40903994,1.6274565,1.221458,-4.057589
661,1778360682.2828512,2.1162202,0.4075756,-0.28505886,0.70493823,1.0840389,-3.9372144
662,1778360682.2932422,2.1162202,0.4075756,-0.28505886,0.70493823,1.0840389,-3.9372144
663,1778360682.3035553,1.9546545,0.2860351,-0.19817449,0.52916974,1.0179926,-3.8775597
664,1778360682.3139374,1.4738617,-0.027822526,-0.08639627,0.30546436,0.8475504,-3.7380102
665,1778360682.324043,1.4738617,-0.027822526,-0.08639627,0.30546436,0.8475504,-3.7380102
666,1778360682.3340693,1.2298045,-0.12398108,-0.051252022,0.27457172,0.7069356,-3.645332
667,1778360682.3441126,1.2298045,-0.12398108,-0.051252022,0.27457172,0.7069356,-3.645332
668,1778360682.354249,1.0091767,-0.22355644,-0.01952458,0.31505173,0.308527,-3.3523846
669,1778360682.364652,0.7128912,-0.35583547,0.050763905,0.37683702,0.10506163,-3.179812
670,1778360682.3746974,0.5610876,-0.48957884,0.024405725,0.48655918,-0.21877852,-2.7856643
671,1778360682.3850622,0.5293602,-0.5432714,0.011226633,0.4972118,-0.28802067,-2.642919
672,1778360682.3952377,0.46785772,-0.6135599,-0.029774986,0.47271073,-0.36471963,-2.3574286
673,1778360682.4053364,0.47078642,-0.7834238,-0.053204484,0.37470648,-0.16445008,-2.004826
674,1778360682.4153566,0.45223808,-0.8917852,-0.01513155,0.41731703,-0.093077414,-1.8993651
675,1778360682.4256563,0.43515408,-0.97476465,-0.020012695,0.5355613,-0.1431448,-1.8439714
676,1778360682.4361162,0.43515408,-0.97476465,-0.020012695,0.66232765,-0.28482488,-1.822666
677,1778360682.4463558,0.29311275,-1.1177822,-0.1986626,0.7145256,-0.43609232,-1.7992303
678,1778360682.456726,0.07980672,-1.1700104,-0.37194324,0.7145256,-0.43609232,-1.7992303
679,1778360682.466749,-0.082735404,-1.1841658,-0.49299565,0.37257597,-0.8675241,-1.3422322
680,1778360682.4770103,-0.2169669,-1.1665937,-0.60184515,-0.011984216,-1.0081389,-0.9310404
681,1778360682.4872444,-0.26968327,-1.1460928,-0.6540734,-0.4870918,-1.0795115,-0.45593283
682,1778360682.497271,-0.28627914,-1.1104605,-0.6496804,-1.0399636,-1.0880337,0.13635375
683,1778360682.5072913,-0.2882316,-1.0865428,-0.6540734,-1.3669996,-1.1359705,0.53582764
684,1778360682.5173647,-0.3048275,-1.0372432,-0.6545615,-1.7334503,-1.3330443,1.0737858
685,1778360682.527385,-0.33020946,-0.98062205,-0.6472398,-1.9923093,-1.6654066,1.5712639
686,1778360682.5375464,-0.33020946,-0.98062205,-0.6472398,-1.9923093,-1.6654066,1.5712639
687,1778360682.5476155,-0.11299851,-0.76194674,-0.4876264,-2.4503727,-2.981007,3.0743508
688,1778360682.5578563,0.14960709,-0.6282034,-0.38609856,-2.536659,-3.6414707,3.8338838
689,1778360682.5681145,0.14960709,-0.6282034,-0.38609856,-2.536659,-3.6414707,3.8338838
690,1778360682.5783541,1.2244352,-0.15619664,-0.08102701,-2.386457,-4.3765025,5.087699
691,1778360682.5886579,1.6207842,-0.00048811449,-0.033191785,-2.386457,-4.3765025,5.087699
692,1778360682.5989933,2.4730322,0.56816524,-0.107385196,-2.3395853,-3.3858073,5.3486886
693,1778360682.6090386,2.5896914,0.6740861,-0.15082738,-2.3960443,-3.247323,5.3199267
694,1778360682.619241,2.716113,0.9508471,-0.21184167,-3.0341372,-1.9487667,5.028044
695,1778360682.629284,2.6414316,1.0601847,-0.082491346,-3.380348,-1.3234569,4.95028
696,1778360682.6393049,2.6414316,1.0601847,-0.082491346,-3.380348,-1.3234569,4.95028
697,1778360682.6498036,2.6106803,1.0997219,0.06980037,-3.4858088,-1.1008168,4.904474
698,1778360682.6603284,2.625812,1.1690342,0.36950266,-3.1864698,-1.2797811,4.7659893
699,1778360682.6704786,2.647289,1.2163813,0.52472305,-2.3289325,-1.6909729,4.2322927
700,1778360682.6806884,2.5184267,1.2217506,0.4876264,-1.9070883,-1.7943034,3.8583848
701,1778360682.6912365,2.211891,1.1905112,0.3533949,-1.482048,-1.7421055,3.3321447
702,1778360682.7012877,1.7642899,1.1031388,0.13667206,-1.3584775,-1.5524886,3.0519803
703,1778360682.7118094,1.462635,1.0562798,0.06589546,-1.3638037,-1.2627369,2.7590327
704,1778360682.722038,1.462635,1.0562798,0.06589546,-1.538507,-0.98896414,2.4820642
705,1778360682.7324085,1.2522577,1.006004,0.05418071,-1.7675387,-0.8099998,2.3180137
706,1778360682.742476,1.1121689,0.9679311,0.0873725,-1.9699388,-0.6885598,2.2029653
707,1778360682.752667,0.9784255,0.9449896,0.17962612,-2.180861,-0.6054692,2.052763
708,1778360682.7629943,0.77146494,0.9235126,0.45687518,-2.2927136,-0.5042692,1.6106787
709,1778360682.7731876,0.77146494,0.9235126,0.45687518,-2.224537,-0.4211786,1.4050827
710,1778360682.783226,0.7050814,0.9196077,0.5344854,-2.224537,-0.4211786,1.4050827
711,1778360682.7937107,0.5703618,0.91375035,0.6145361,-2.0775304,-0.26245433,1.1334405
712,1778360682.8041553,0.47176263,0.9098454,0.6530972,-1.8729998,-0.094142675,0.8468846
713,1778360682.8142397,0.37706846,0.90838104,0.6740861,-1.6684692,0.027297381,0.6210487
714,1778360682.8242826,0.27358818,0.90447617,0.67555046,-1.4405028,0.13062796,0.4101265
715,1778360682.8343048,0.10177187,0.9034999,0.63064396,-1.0325068,0.2467417,0.10972215
716,1778360682.8445807,0.026114125,0.91619086,0.5706058,-0.7832351,0.308527,-0.057524238
717,1778360682.854623,0.026114125,0.91619086,0.5706058,-0.7832351,0.308527,-0.057524238
718,1778360682.8650665,-0.0012202862,0.950359,0.51496077,-0.5542034,0.39800912,-0.25885907
719,1778360682.8750901,0.020256752,0.9952655,0.42563587,-0.38908756,0.61745346,-0.64341927
720,1778360682.8854852,0.010494461,1.0099089,0.42807645,-0.3294328,0.71971875,-0.9001478
721,1778360682.8958678,0.029530926,1.065554,0.5095915,0.0071905297,0.6962829,-1.3134701
722,1778360682.905908,0.10958171,1.1006982,0.5701177,0.34061804,0.50560075,-1.341167
723,1778360682.9163792,0.10958171,1.1006982,0.5701177,0.34061804,0.50560075,-1.341167
724,1778360682.9267948,0.485918,1.3008251,0.7507201,0.95314467,0.13275848,-1.2133353
725,1778360682.9368417,0.485918,1.3008251,0.7507201,0.95314467,0.13275848,-1.2133353
726,1778360682.9471908,1.5446383,1.5800266,0.7556012,1.6402397,-0.2518017,-1.0194573
727,1778360682.9576774,2.0225024,1.6610537,0.53643787,2.381663,-0.22623536,-1.17179
728,1778360682.9676998,2.8025093,1.7723436,0.090789296,2.2889853,0.38522595,-1.6117439
729,1778360682.9777205,3.295505,1.7547716,-0.15912533,1.9129472,1.0265146,-2.0623505
730,1778360682.9877667,3.530288,1.6551963,-0.30507156,1.4389049,1.6337149,-2.528936
731,1778360682.9978468,3.5722659,1.5331676,-0.3065359,1.120391,1.9969698,-2.848515
732,1778360683.0078905,3.5629916,1.3140042,-0.20354374,0.92757833,2.1791298,-3.1009824
733,1778360683.0179641,3.4097238,0.97330034,-0.07516963,0.9978857,2.211088,-3.5015216
734,1778360683.028077,3.1559043,0.67555046,-0.05222825,1.25781,2.1120183,-3.689008
735,1778360683.0384905,2.8381417,0.3841461,-0.14741059,1.4825807,2.0289278,-3.7731638
736,1778360683.048541,2.5428324,0.18597162,-0.27334413,1.6604797,1.9543593,-3.8125787
737,1778360683.0588522,2.2236056,0.037584815,-0.3807293,1.7094818,1.9000309,-3.7593155
738,1778360683.0691574,1.735491,-0.09859913,-0.5091034,1.6040207,1.7977655,-3.4919343
739,1778360683.0791905,1.5353642,-0.1444819,-0.55108124,1.3600754,1.6443676,-3.1489193
740,1778360683.0892143,1.2625082,-0.19280522,-0.5872018,1.0745847,1.4728601,-2.8879297
741,1778360683.0994399,1.0897156,-0.21525851,-0.5872018,0.80294245,1.306679,-2.6887255
742,1778360683.109949,0.9340071,-0.23429495,-0.56426036,0.51638657,1.1468894,-2.4905863
743,1778360683.1201782,0.7133793,-0.29530928,-0.45785138,0.07749793,0.9274452,-2.1475716
744,1778360683.130488,0.4756676,-0.4046469,-0.20012695,-0.15792534,0.5918871,-1.7097481
745,1778360683.1409123,0.4756676,-0.4046469,-0.20012695,-0.15792534,0.5918871,-1.7097481
746,1778360683.1513958,0.39708114,-0.43246946,-0.077122085,-0.076965295,0.3777691,-1.5542196
747,1778360683.1614459,0.29262465,-0.53253293,0.06443111,0.514256,-0.07603319,-1.1483542
748,1778360683.1717913,0.25894472,-0.6042857,0.037584815,0.514256,-0.07603319,-1.1483542
749,1778360683.181819,0.21891935,-0.66920495,0.030751213,0.9574057,-0.2635196,-0.933171
750,1778360683.1918662,0.21891935,-0.66920495,0.030751213,0.9574057,-0.2635196,-0.933171
751,1778360683.2020943,0.12666571,-0.77561396,-0.084931925,1.3899027,-0.68323344,-0.800013
752,1778360683.2123673,0.022209208,-0.82149667,-0.24649782,1.4325132,-0.97085464,-0.7062698
753,1778360683.2224402,-0.06272271,-0.83809257,-0.35193056,1.3281175,-1.1306442,-0.60506976
754,1778360683.2326066,-0.1901206,-0.8502955,-0.48957884,1.0628668,-1.2787158,-0.39734334
755,1778360683.2429838,-0.1901206,-0.8502955,-0.48957884,1.0628668,-1.2787158,-0.39734334
756,1778360683.253258,-0.25552794,-0.8537123,-0.5520575,0.68256766,-1.3820465,-0.10759163
757,1778360683.2634947,-0.39659303,-0.8600578,-0.6238103,-0.3496728,-1.6206654,0.9044088
758,1778360683.2738829,-0.39415246,-0.8498074,-0.6321083,-0.67564344,-1.8038908,1.329449
759,1778360683.2839293,-0.39415246,-0.8498074,-0.6321083,-0.67564344,-1.8038908,1.329449
760,1778360683.2942045,-0.3785328,-0.801484,-0.6062382,-1.0442247,-2.1405141,1.9185398
761,1778360683.3042588,-0.28579104,-0.75657743,-0.5623079,-1.2924311,-2.4824638,2.4501064
762,1778360683.3150659,0.27212384,-0.4949481,-0.26699865,-1.6130755,-3.328283,4.149202
763,1778360683.3250868,0.7753699,-0.3392396,-0.12935033,-1.4607427,-3.67982,4.856537
764,1778360683.3353875,1.5226732,-0.08639627,0.010738519,-1.1273153,-3.8438706,5.1825075
765,1778360683.345957,2.1762586,0.22062775,0.06199054,-0.8002793,-3.7373443,5.171855
766,1778360683.3562713,2.523796,0.49885303,-0.0019524579,-0.56272554,-3.4209611,4.997152
767,1778360683.3662934,2.7351494,0.85908157,-0.27871338,-0.57657397,-2.7807376,4.6498756
768,1778360683.3763177,2.8278913,1.0801975,-0.51398456,-1.0687257,-2.0212047,4.316448
769,1778360683.3865995,2.8064144,1.2285842,-0.65065664,-1.5246586,-1.4917686,4.0959387
770,1778360683.3967307,2.7156248,1.3213259,-0.6374775,-2.099901,-0.99748623,3.8487976
771,1778360683.406896,2.7156248,1.3213259,-0.6374775,-2.4780695,-0.8004125,3.6421363
772,1778360683.4169147,2.4779134,1.3252308,-0.2806658,-2.8573034,-0.65766716,3.1340055
773,1778360683.4270332,2.2992635,1.2725145,-0.110801995,-2.9276109,-0.62783974,2.715357
774,1778360683.4375024,2.0156689,1.2202863,-0.00976229,-2.912697,-0.59694713,2.4106917
775,1778360683.4478812,1.7208476,1.147069,0.077122085,-2.8626297,-0.5426187,2.1145484
776,1778360683.4579072,1.4943625,1.0958171,0.13081467,-2.8083012,-0.51066077,1.9398451
777,1778360683.4684262,1.194172,1.0294335,0.22160399,-2.710297,-0.53196603,1.7502282
778,1778360683.478637,1.0028312,0.97134787,0.31678632,-2.5920527,-0.59481657,1.6373103
779,1778360683.4891043,0.8329674,0.9191196,0.38561043,-2.428002,-0.61931765,1.5254575
780,1778360683.4992366,0.665056,0.87030816,0.42319524,-2.2682126,-0.5820334,1.4253228
781,1778360683.5097764,0.49763274,0.8336995,0.45394647,-2.1457074,-0.52557445,1.3443627
782,1778360683.5199475,0.32923323,0.8049008,0.46761367,-1.9294587,-0.39667755,1.2591416
783,1778360683.5304108,0.19256116,0.7678041,0.46956614,-1.7984314,-0.27949855,1.2314447
784,1778360683.5409007,0.04759116,0.7414459,0.44808912,-1.5555513,-0.092012145,1.2186615
785,1778360683.5510464,-0.054912884,0.74583894,0.3904916,-1.2615385,0.078430034,1.2357059
786,1778360683.5615368,-0.024161667,0.8258897,0.1444819,-0.661795,0.058190025,1.0578068
787,1778360683.5717883,-0.024161667,0.8258897,0.1444819,-0.661795,0.058190025,1.0578068
788,1778360683.5822198,0.017816179,0.8751893,-0.0034168016,-0.4902876,-0.05792371,0.8436888
789,1778360683.592402,0.107629254,0.9108216,-0.13764828,-0.4519381,-0.104795314,0.6306361
790,1778360683.6024442,0.18621568,0.967443,-0.21916342,-0.5371592,-0.115447946,0.31744856
791,1778360683.612664,0.41465324,1.1348661,-0.13667206,-0.7246456,-0.12290479,-0.045806337
792,1778360683.6229973,0.41465324,1.1348661,-0.13667206,-0.9792436,-0.005725792,-0.49108654
793,1778360683.6335344,0.7309515,1.2388345,0.10592084,-1.2295805,0.5961482,-1.2325101
794,1778360683.6440313,0.7309515,1.2388345,0.10592084,-1.2295805,0.5961482,-1.2325101
795,1778360683.6543195,1.0672623,1.3564702,0.4617563,-1.2199932,0.98070836,-1.5339797
796,1778360683.6647925,1.4187049,1.4726415,0.80246025,-1.0772479,1.2395674,-1.7204008
797,1778360683.6753047,1.8443406,1.5482991,1.0357789,0.26498434,1.3759211,-2.0261314
798,1778360683.6853192,2.323181,1.5751455,1.0938646,1.1938943,1.2800474,-2.2764685
799,1778360683.6954575,2.323181,1.5751455,1.0938646,1.1938943,1.2800474,-2.2764685
800,1778360683.7054992,2.8976917,1.4765464,0.8288184,2.6224127,0.99988306,-3.0306752
801,1778360683.715892,3.018744,1.3247427,0.5520575,3.1337392,0.77724296,-3.564372
802,1778360683.7261567,2.9962907,1.1153417,0.31727442,3.2445266,0.6621945,-3.9361491
803,1778360683.736271,2.873286,0.93571544,0.18157859,3.1720889,0.70160925,-4.133223
804,1778360683.7463586,2.873286,0.93571544,0.18157859,3.1720889,0.70160925,-4.133223
805,1778360683.7566042,2.4574125,0.545712,0.031239327,2.9675581,0.9679252,-4.1918125
806,1778360683.7670577,2.4574125,0.545712,0.031239327,2.817356,1.1831084,-4.118309
807,1778360683.777548,2.0361695,0.26065314,-0.051740136,2.4381223,1.5271885,-3.846667
808,1778360683.7876258,2.0361695,0.26065314,-0.051740136,2.4381223,1.5271885,-3.846667
809,1778360683.7979393,1.8145657,0.15082738,-0.06199054,2.2218735,1.5090791,-3.5739596
810,1778360683.807959,1.381608,-0.0043930304,-0.073217176,2.1398482,1.4302496,-3.3491888
811,1778360683.8179832,1.1643971,-0.06931226,-0.099087246,2.086585,1.3290496,-3.1169615
812,1778360683.8280194,0.98574716,-0.114218794,-0.14594623,1.9853851,1.1298453,-2.7526412
813,1778360683.8381128,0.7987994,-0.1581491,-0.20012695,1.8255956,0.91572726,-2.400039
814,1778360683.8483977,0.70117646,-0.18548352,-0.22502078,1.6700671,0.7420893,-2.1752684
815,1778360683.8586962,0.60306543,-0.22111587,-0.22453266,1.4293175,0.57910395,-1.911083
816,1778360683.8689284,0.5469323,-0.268463,-0.20500809,1.1544795,0.50773126,-1.6703334
817,1778360683.8794365,0.5015376,-0.33533466,-0.15766099,0.8082688,0.53542817,-1.4242575
818,1778360683.889729,0.4634647,-0.40952805,-0.0707766,0.58882445,0.6270408,-1.2697942
819,1778360683.9000063,0.38927132,-0.48176903,0.011714748,0.5089297,0.6408892,-1.1440932
820,1778360683.9104152,0.31312546,-0.54864067,0.099575356,0.5281044,0.55247235,-1.002413
821,1778360683.920853,0.24869433,-0.6389419,0.18938842,0.70067716,0.29893962,-0.7904256
822,1778360683.9314077,0.2111095,-0.75657743,0.18938842,1.2801806,-0.16445008,-0.54008865
823,1778360683.9419127,0.20183535,-0.8151512,0.1210524,1.2801806,-0.16445008,-0.54008865
824,1778360683.952336,0.14765464,-0.85273606,-0.020012695,1.4197301,-0.3274354,-0.48469496
825,1778360683.9626667,0.08419975,-0.8717725,-0.1513155,1.415469,-0.40946072,-0.43249702
826,1778360683.9731739,-0.17254847,-0.9098454,-0.4807928,0.77418035,-0.41159123,-0.024501063
827,1778360683.9834309,-0.26968327,-0.9010593,-0.541319,0.31398645,-0.333827,0.31744856
828,1778360683.993559,-0.28969595,-0.88007045,-0.5706058,-0.07163898,-0.24327959,0.5922866
829,1778360684.0038943,-0.2877435,-0.8649389,-0.5618198,-0.44235072,-0.1697764,0.8703204
830,1778360684.0139465,-0.26675457,-0.85127175,-0.54668826,-0.8641951,-0.13888375,1.2229227
831,1778360684.024435,-0.18182266,-0.83760446,-0.52472305,-1.315867,-0.18469009,1.656485
832,1778360684.0348022,-0.119343996,-0.7878168,-0.4583395,-1.6343807,-0.32956594,2.0783293
833,1778360684.045064,-0.119343996,-0.7878168,-0.4583395,-1.6343807,-0.32956594,2.0783293
834,1778360684.055147,0.102259986,-0.59842837,-0.26358184,-1.9251977,-0.7386272,3.1265488
835,1778360684.0651703,0.6142921,-0.36022848,-0.084931925,-1.8612819,-1.0880337,4.1918125
836,1778360684.0751863,1.0687267,-0.174745,-0.005857374,-1.7334503,-1.2030821,4.699943
837,1778360684.085366,1.7481819,0.117147475,0.093717985,-1.5054839,-1.2297137,5.079177
838,1778360684.0954835,1.7481819,0.117147475,0.093717985,-1.5054839,-1.2297137,5.079177
839,1778360684.10551,2.3773615,0.45687518,0.1581491,-1.2199932,-1.1434274,5.111135
840,1778360684.115826,2.9694445,0.89861876,0.053692598,-0.8471509,-0.80360824,4.598743
841,1778360684.1259992,3.0504715,1.1597601,-0.10006347,-0.7981488,-0.5063997,3.9872818
842,1778360684.1360464,2.9958029,1.3066825,-0.12056428,-0.7779088,-0.40946072,3.6112437
843,1778360684.1464443,2.8459516,1.3906382,-0.13911264,-0.7129277,-0.3956123,3.2266836
844,1778360684.1565917,2.8459516,1.3906382,-0.13911264,-0.7129277,-0.3956123,3.2266836
845,1778360684.1667297,2.8459516,1.3906382,-0.13911264,-0.7129277,-0.3956123,3.2266836
846,1778360684.1769614,2.0581348,1.3306,-0.29384494,-0.7150582,-0.66299343,2.1262662
847,1778360684.1870134,1.744277,1.274467,-0.3270367,-0.8663257,-0.68323344,1.9132135
848,1778360684.1973062,1.4723973,1.2427394,-0.3065359,-1.0665952,-0.6512756,1.8152093
849,1778360684.207418,1.3293798,1.2197981,-0.26699865,-1.2381027,-0.5777724,1.7843165
850,1778360684.2177444,1.23615,1.1909994,-0.20451997,-1.4191974,-0.45526704,1.7118787
851,1778360684.2277894,1.0760484,1.1368186,-0.07272906,-1.5608776,-0.30826068,1.5393059
852,1778360684.2378407,1.0760484,1.1368186,-0.07272906,-1.5608776,-0.30826068,1.5393059
853,1778360684.2480245,0.7700006,1.0723876,0.119588055,-1.5821828,-0.12929638,1.1611373
854,1778360684.2582948,0.6450433,1.0592085,0.18645974,-1.5267891,-0.052597392,0.99495625
855,1778360684.2683468,0.48640612,1.0499343,0.25870067,-1.4341111,0.010253162,0.82557935
856,1778360684.2783935,0.3048275,1.0601847,0.33240595,-1.2082753,0.07203846,0.5475455
857,1778360684.2887158,0.2208718,1.0762925,0.3943965,-1.0037447,0.068842664,0.3398191
858,1778360684.298733,0.17157225,1.0919122,0.45297024,-0.7640603,0.069907926,0.12250532
859,1778360684.3089898,0.14765464,1.0972813,0.48225713,-0.55313814,0.10506163,-0.056458972
860,1778360684.3190172,0.15009521,1.091424,0.49641246,-0.3549991,0.18389113,-0.22157484
861,1778360684.3290453,0.21013328,1.0884954,0.5008055,-0.026897907,0.42677125,-0.5326318
862,1778360684.339088,0.24088451,1.0865428,0.5100796,0.17017587,0.59721345,-0.7914909
863,1778360684.3495991,0.2853029,1.0689708,0.5603554,0.37470648,0.7601988,-1.0695246
864,1778360684.3596578,0.36242503,1.0621371,0.60867876,0.574976,0.8922915,-1.2910995
865,1778360684.3696768,0.49763274,1.0640897,0.65065664,0.7901593,0.99775255,-1.5648723
866,1778360684.3801994,0.6801876,1.0811737,0.6667644,1.1672627,1.1799127,-2.129462
867,1778360684.3904097,0.77634615,1.1275444,0.6770148,1.427187,1.3173317,-2.5150874
868,1778360684.4005198,0.7499879,1.1827015,0.6794554,1.6721976,1.5037528,-2.7057695
869,1778360684.4107702,0.81197846,1.2695858,0.70142055,2.1963074,1.9351846,-2.5502412
870,1778360684.4208112,1.4162643,1.5697763,0.7311955,2.1963074,1.9351846,-2.5502412
871,1778360684.4312532,1.6700838,1.6386005,0.6491923,2.639457,2.0896478,-2.5768728
872,1778360684.4417868,1.6700838,1.6386005,0.6491923,2.639457,2.0896478,-2.5768728
873,1778360684.4521868,1.9570951,1.6605655,0.5427833,2.711895,1.9192057,-2.8357317
874,1778360684.462259,2.0693614,1.6015036,0.511544,2.7108297,1.7338498,-3.0189571
875,1778360684.4725423,2.1860206,1.4692247,0.5037342,2.6362612,1.1255842,-2.969955
876,1778360684.4830027,2.32855,1.3945432,0.48909074,2.6362612,1.1255842,-2.969955
877,1778360684.4931633,2.32855,1.3945432,0.48909074,2.5574317,0.9327715,-2.8431888
878,1778360684.50357,2.5599165,1.2085714,0.4334457,2.3710105,0.8496809,-2.7856643
879,1778360684.5136557,2.5594285,0.71313524,0.27187976,1.8895113,1.2001526,-3.147854
880,1778360684.5237556,2.2914536,0.4510178,0.19475769,1.5795196,1.4675338,-3.3204267
881,1778360684.5337722,1.9971205,0.26211748,0.16547081,1.3600754,1.6390413,-3.357711
882,1778360684.5438044,1.9971205,0.26211748,0.16547081,1.3600754,1.6390413,-3.357711
883,1778360684.5542912,1.3674527,-0.0605262,0.16254212,1.0958899,1.7540897,-3.0636983
884,1778360684.5646994,1.3674527,-0.0605262,0.16254212,1.0958899,1.7540897,-3.0636983
885,1778360684.574977,1.3674527,-0.0605262,0.16254212,1.0958899,1.7540897,-3.0636983
886,1778360684.5849946,1.1365746,-0.18304294,0.16449459,1.0628668,1.6496938,-2.7750118
887,1778360684.595073,0.97500867,-0.29433304,0.16254212,1.0926942,1.4291843,-2.4490411
888,1778360684.6055183,0.97500867,-0.29433304,0.16254212,1.0926942,1.4291843,-2.4490411
889,1778360684.6159468,0.97500867,-0.29433304,0.16254212,1.0926942,1.4291843,-2.4490411
890,1778360684.6263003,0.97500867,-0.29433304,0.16254212,1.0926942,1.4291843,-2.4490411
891,1778360684.6363306,0.97500867,-0.29433304,0.16254212,1.0926942,1.4291843,-2.4490411
892,1778360684.6466594,0.91106576,-0.41343296,0.13618395,1.1512836,1.2512853,-2.1987042
893,1778360684.656678,0.8744571,-0.49885303,0.122516744,1.1512836,1.2512853,-2.1987042
894,1778360684.6667018,0.8744571,-0.49885303,0.122516744,1.2045468,1.1937611,-2.0932431
895,1778360684.6769156,0.67481834,-0.6550496,0.042465962,1.4282522,0.9434241,-1.8833861
896,1778360684.6870198,0.5108118,-0.7648754,-0.111290105,1.5326481,0.6962829,-1.701226
897,1778360684.697163,0.5108118,-0.7648754,-0.111290105,1.5326481,0.6962829,-1.701226
898,1778360684.707423,0.5108118,-0.7648754,-0.111290105,1.5326481,0.6962829,-1.701226
899,1778360684.7177846,-0.1969542,-0.844438,-0.4651731,0.31824753,-0.26884592,-0.21305273
900,1778360684.7280343,-0.2818861,-0.8156393,-0.49982923,0.11797795,-0.29973856,0.057524238
901,1778360684.738102,-0.3687705,-0.7477914,-0.54034275,-0.16964324,-0.42863545,0.46445495
902,1778360684.748375,-0.42392743,-0.6721336,-0.5432714,-0.47963494,-0.6470145,0.973651
903,1778360684.7583945,-0.42392743,-0.6721336,-0.5432714,-0.47963494,-0.6470145,0.973651
904,1778360684.768905,-0.33704305,-0.4656612,-0.4148973,-0.96646047,-1.077381,2.26262
905,1778360684.7789314,-0.06662763,-0.21916342,-0.28554696,-1.1656648,-1.4108086,3.4205616
906,1778360684.7889485,0.5767073,0.009274175,-0.14887492,-1.2476901,-1.6185349,4.4623895
907,1778360684.799444,1.1316935,0.22160399,-0.041977845,-1.223189,-1.6409055,4.8991475
908,1778360684.8095372,1.7174308,0.47395915,0.051252022,-1.1390332,-1.5705981,5.0397625
909,1778360684.819575,2.3192759,0.77024466,0.10006347,-0.98137414,-1.3820465,4.8224487
910,1778360684.8301103,2.5428324,1.0880072,-0.11665936,-0.92811096,-1.0720547,4.351602
911,1778360684.8406293,2.2533808,1.1827015,-0.056133166,-1.1081405,-0.61931765,3.7816858
912,1778360684.85104,2.2533808,1.1827015,-0.056133166,-1.2732564,-0.31465223,3.5409362
913,1778360684.8614054,1.9092598,1.2139407,0.17132819,-1.0910963,-0.2805638,3.55585
914,1778360684.8719094,1.9092598,1.2139407,0.17132819,-0.8183888,-0.45846283,3.522827
915,1778360684.8820395,1.9058431,1.227608,0.23429495,-0.8183888,-0.45846283,3.522827
916,1778360684.892405,1.7447653,1.2197981,0.15424417,0.060453713,-0.83343565,3.0935256
917,1778360684.9024572,1.7447653,1.2197981,0.15424417,0.060453713,-0.83343565,3.0935256
918,1778360684.9129117,1.4387175,1.2197981,-0.01952458,0.33103067,-0.79508615,2.771816
919,1778360684.9229996,1.4387175,1.2197981,-0.01952458,0.33103067,-0.79508615,2.771816
920,1778360684.9333758,1.091668,1.2651927,-0.18157859,0.09241162,-0.37963334,2.3499715
921,1778360684.9435382,1.091668,1.2651927,-0.18157859,0.09241162,-0.37963334,2.3499715
922,1778360684.9535544,0.9530435,1.2798362,-0.17816179,-0.09614004,-0.26565012,2.0996346
923,1778360684.9640715,0.6958072,1.27886,-0.09615856,-0.35606438,-0.17190692,1.6373103
924,1778360684.9742231,0.6958072,1.27886,-0.09615856,-0.4199802,-0.16125429,1.2452931
925,1778360684.9845405,0.3824377,1.253478,0.16644704,-0.35926017,-0.13994901,0.97045517
926,1778360684.9946778,0.29604146,1.228096,0.24552159,-0.23888537,-0.105860576,0.7084003
927,1778360685.0048752,0.29604146,1.228096,0.24552159,-0.10785794,-0.0494016,0.5006739
928,1778360685.0148911,0.19793043,1.2032022,0.33435842,0.043409493,0.025166854,0.30786118
929,1778360685.0251987,0.17742962,1.171963,0.3734076,0.30546436,0.15406376,0.026631592
930,1778360685.035698,0.17742962,1.171963,0.3734076,0.30546436,0.15406376,0.026631592
931,1778360685.0459416,0.2111095,1.1373067,0.40171823,0.63569605,0.3021354,-0.3281012
932,1778360685.0561554,0.2677308,1.1226633,0.33826336,0.9265131,0.48536074,-0.779773
933,1778360685.0662668,0.3219115,1.1358424,0.26943922,0.9265131,0.48536074,-0.779773
934,1778360685.076696,0.4283205,1.1675699,0.23819989,0.9094688,0.898683,-1.4146701
935,1778360685.0867329,0.47225076,1.1988091,0.25430766,0.84129196,1.1213231,-1.6181355
936,1778360685.0972455,0.6074585,1.2686096,0.30555966,0.7699193,1.480317,-1.8311882
937,1778360685.1072638,0.72118914,1.3325526,0.38658667,0.80720353,1.7018918,-1.9430408
938,1778360685.117298,0.8422416,1.4052817,0.4842096,0.9648625,1.8446372,-1.9909778
939,1778360685.1277633,1.1858741,1.5204766,0.5774395,1.451688,1.7881782,-1.9536935
940,1778360685.137877,1.5983309,1.6224926,0.5588911,1.8692714,1.5101444,-1.8791251
941,1778360685.148308,1.9683217,1.7494024,0.4915313,2.1760674,1.185239,-1.874864
942,1778360685.1587365,2.4281254,1.8309175,0.34704942,2.4189475,0.70587033,-2.0367842
943,1778360685.169217,2.4281254,1.8309175,0.34704942,2.4189475,0.70587033,-2.0367842
944,1778360685.1797402,2.9596822,1.7035197,-0.018060237,2.190981,0.3021354,-2.8431888
945,1778360685.1898766,2.8684049,1.4667841,-0.21818718,1.6498271,0.583365,-3.31297
946,1778360685.1999257,2.6282525,1.2168695,-0.31776255,1.0820415,0.9317062,-3.5409362
947,1778360685.2100832,2.3988385,1.0118613,-0.34070393,0.61332554,1.1916305,-3.6304185
948,1778360685.2201135,2.1337924,0.8263778,-0.32947728,0.18828535,1.4217275,-3.660246
949,1778360685.2302923,1.6998588,0.53009236,-0.2255089,-0.36032543,1.6773908,-3.547328
950,1778360685.2404134,1.449456,0.366574,-0.12739788,-0.580835,1.6805866,-3.381147
951,1778360685.2504418,1.2986286,0.25479576,-0.047347106,-0.682035,1.5921696,-3.236271
952,1778360685.2605479,1.1517061,0.13227904,0.04344219,-0.7086666,1.4611422,-3.0594373
953,1778360685.270965,1.048714,0.038561042,0.099087246,-0.6596645,1.3897696,-2.9284098
954,1778360685.2814274,0.90130347,-0.09322987,0.1342315,-0.51798445,1.3343759,-2.7142918
955,1778360685.2918112,0.78806084,-0.20403185,0.123004854,-0.36884755,1.3354411,-2.5193486
956,1778360685.3019414,0.66993713,-0.29872608,0.10689708,-0.19947061,1.3556812,-2.3073611
957,1778360685.3124058,0.55571836,-0.36315718,0.08932495,-0.003462107,1.2970916,-2.1060262
958,1778360685.3226185,0.473227,-0.40952805,0.061014313,0.3917507,0.894422,-1.6756597
959,1778360685.332981,0.40342662,-0.49592432,-0.012202863,0.3917507,0.894422,-1.6756597
960,1778360685.343055,0.41465324,-0.5847612,-0.102504045,0.52277815,0.69947875,-1.4881734
961,1778360685.3533528,0.44784504,-0.6716455,-0.19134088,0.5877592,0.5492766,-1.3667332
962,1778360685.3634672,0.5015376,-0.8459024,-0.37487194,0.5174518,0.37457332,-1.3017522
963,1778360685.3735094,0.4527262,-0.88739216,-0.4612682,0.37683702,0.28828698,-1.3113395
964,1778360685.3839905,0.34241232,-0.91521466,-0.5437595,0.16804534,0.20519641,-1.2953606
965,1778360685.3942425,0.20232345,-0.93229866,-0.6062382,-0.11638005,0.14341111,-1.1707247
966,1778360685.4044247,0.20232345,-0.93229866,-0.6062382,-0.11638005,0.14341111,-1.1707247
967,1778360685.414566,-0.0061014313,-0.9191196,-0.66822875,-0.7480814,0.037950017,-0.6913561
968,1778360685.4248848,-0.088104665,-0.9005712,-0.6740861,-1.1070752,-0.092012145,-0.25885907
969,1778360685.435109,-0.15741692,-0.81417495,-0.60770255,-1.493766,-0.29654276,0.4601939
970,1778360685.4455035,-0.13154685,-0.6980037,-0.545712,-1.7558208,-0.52877027,1.1973563
971,1778360685.4555318,-0.13154685,-0.6980037,-0.545712,-1.7558208,-0.52877027,1.1973563
972,1778360685.4656863,0.17157225,-0.33826336,-0.307024,-2.0157452,-1.1594063,2.7696855
973,1778360685.4757533,0.8105141,0.06443111,-0.08005078,-1.9891136,-1.6760591,3.7571847
974,1778360685.486256,1.569044,0.41733786,0.119588055,-1.8580861,-1.901895,4.1342883
975,1778360685.4964297,2.2226293,0.77854264,0.28115395,-1.6301197,-1.7974992,3.9862165
976,1778360685.506812,2.5042715,1.0660421,0.3226437,-1.4628733,-1.5173349,3.6250923
977,1778360685.5170002,2.498902,1.3540297,0.24405725,-1.4181322,-1.1189263,3.1212225
978,1778360685.5272214,2.2050574,1.551716,0.1147069,-1.619467,-0.8526104,2.7526412
979,1778360685.5377016,2.0254312,1.6166352,0.10592084,-1.837846,-0.8323704,2.6716812
980,1778360685.5478723,1.9258556,1.5785623,0.22794947,-2.063682,-0.976181,2.5406537
981,1778360685.558222,1.8526386,1.5112025,0.36803833,-2.0647473,-1.1285137,2.3659506
982,1778360685.5687325,1.6612977,1.4257824,0.5120321,-1.8815219,-1.3298485,2.1528978
983,1778360685.5787556,1.377215,1.3276714,0.56767714,-1.4969617,-1.5397054,2.0410452
984,1778360685.5890281,1.1395032,1.2686096,0.4949481,-1.1837742,-1.6686023,2.0218704
985,1778360685.5992947,0.9545079,1.1875826,0.35290676,-1.0069405,-1.7527581,1.9952388
986,1778360685.6096227,0.8158834,1.1207108,0.25137895,-0.97498256,-1.780455,1.9600852
987,1778360685.6198537,0.6460195,1.0553036,0.174745,-1.0271804,-1.7857814,1.9281272
988,1778360685.6298985,0.5181335,0.99819416,0.14204131,-1.1347721,-1.7985646,1.8823209
989,1778360685.6399236,0.43759465,0.95328766,0.16888762,-1.2785827,-1.7793897,1.7662071
990,1778360685.650395,0.4097721,0.9488945,0.22843759,-1.3478248,-1.7474319,1.6234618
991,1778360685.6604197,0.33948365,0.9479183,0.319715,-1.3861743,-1.6579497,1.3954954
992,1778360685.6709,0.26577836,0.9620737,0.38609856,-1.356347,-1.5120085,1.2112048
993,1778360685.68113,0.12666571,0.98794377,0.46663743,-1.2466248,-1.1615368,0.9640636
994,1778360685.6914134,0.08419975,1.0133257,0.5208182,-1.1028142,-0.8877641,0.77870774
995,1778360685.701715,0.06028214,1.0304097,0.5657247,-0.9089362,-0.6384924,0.5677855
996,1778360685.7119262,0.06613952,1.0416363,0.5920829,-0.71399295,-0.43822283,0.3600591
997,1778360685.7221155,0.06613952,1.0416363,0.5920829,-0.43915492,-0.22197431,0.08522109
998,1778360685.732193,0.079318605,1.0689708,0.6164886,0.09986847,0.07416898,-0.45486757
999,1778360685.7424295,0.14179726,1.0611609,0.6203935,0.09986847,0.07416898,-0.45486757
