id,timestamp,acc_x,acc_y,acc_z,gyro_x,gyro_y,gyro_z
0,1778360568.1332211,0.17791773,0.33191785,0.7844,-0.017044218,-1.797366,-1.3752553
1,1778360568.1434147,0.12178457,0.33582276,0.7043492,-0.017044218,-2.0338547,-1.3209269
2,1778360568.1537895,0.12178457,0.33582276,0.7043492,-0.017044218,-2.0338547,-1.3209269
3,1778360568.1638238,0.036852647,0.34753752,0.5530337,-0.19281273,-2.3289325,-0.9864341
4,1778360568.1739562,0.00707766,0.35827604,0.49299565,-0.35686332,-2.519615,-0.79894775
5,1778360568.1842782,-0.0021965152,0.32557237,0.528628,-0.6189182,-2.7880614,-0.5262402
6,1778360568.1943324,-0.070532545,0.3031191,0.6125837,-0.6764424,-2.8210845,-0.30679592
7,1778360568.2047057,-0.037828874,0.2762728,0.6452874,-0.7105309,-2.5664864,-0.11398321
8,1778360568.2151713,0.07541369,0.2762728,0.6496804,-0.74568456,-2.2000358,-0.10865689
9,1778360568.2255378,0.07541369,0.2762728,0.6496804,-0.7968172,-1.9486336,-0.22370537
10,1778360568.235933,0.16034561,0.39634898,0.66871685,-0.8820383,-1.7739303,-0.3749728
11,1778360568.2464862,0.082247294,0.44271985,0.71118283,-1.0695246,-1.7867135,-0.58696026
12,1778360568.2565317,0.021232981,0.39146784,0.7487676,-1.1483542,-2.0732694,-0.65833294
13,1778360568.2670655,-0.10030753,0.37926495,0.8107582,-1.1845732,-2.4290674,-0.7020087
14,1778360568.2770889,-0.136428,0.40562314,0.9005712,-1.1547458,-2.637859,-0.6593982
15,1778360568.287197,-0.055400997,0.44613665,1.0553036,-1.0322405,-2.835998,-0.5273055
16,1778360568.2975454,0.0021965152,0.41684976,1.1968567,-0.87245095,-2.9467854,-0.36751595
17,1778360568.3075736,0.08419975,0.42905265,1.3584226,-0.56885076,-3.4027183,-0.11611374
18,1778360568.3179007,0.17742962,0.4886026,1.475082,-0.18002956,-3.6605122,-0.018109482
19,1778360568.3279216,0.25748038,0.53887844,1.4194369,0.019174745,-3.1779478,-0.05006739
20,1778360568.3381364,0.2403964,0.56474847,1.3764828,-0.08735162,-1.6162713,-0.30040434
21,1778360568.3481576,0.25162303,0.6208816,1.415044,-0.08735162,-0.96113414,-0.53582764
22,1778360568.3584428,0.17840585,0.6545615,1.5199885,0.0074568456,-0.58509606,-0.7680551
23,1778360568.3685672,0.111046046,0.61941725,1.4975352,0.16724639,-0.17710008,-0.8681899
24,1778360568.3786063,0.0353883,0.5872018,1.4936304,0.28229487,0.17017587,-0.8234488
25,1778360568.388881,-0.0622346,0.59013045,1.39796,0.35473278,0.8902941,-0.585895
26,1778360568.398905,-0.019768637,0.5891542,1.3720899,0.33342752,1.2269174,-0.45060652
27,1778360568.4089375,-0.03099527,0.6028214,1.3408505,0.27164224,1.5624754,-0.29401276
28,1778360568.4190593,-0.04368625,0.63308454,1.411627,0.2609896,1.7904419,-0.1640506
29,1778360568.4291651,-0.079318605,0.66090703,1.5448823,0.33555806,1.7542229,-0.060720026
30,1778360568.4393153,-0.04271002,0.70190865,1.7059602,0.5305013,1.568867,0.03728423
31,1778360568.4494526,0.20769271,0.77854264,2.007615,1.1430279,1.0096036,0.041545283
32,1778360568.4594724,0.41074833,0.8117344,2.203837,1.7076176,0.574976,-0.1288969
33,1778360568.469541,0.41074833,0.8117344,2.203837,1.7076176,0.574976,-0.1288969
34,1778360568.4799132,0.77732235,0.8912971,2.4928007,2.7451844,0.019973693,-0.6593982
35,1778360568.490038,0.96622264,0.9127741,2.6016502,3.285273,-0.011984216,-0.95234567
36,1778360568.5001872,1.1399914,0.88104665,2.6631527,3.8711681,0.30866015,-1.1888342
37,1778360568.5104058,1.163909,0.8361401,2.6162937,4.3260355,0.8349004,-1.2271837
38,1778360568.520681,1.1785524,0.801484,2.5064678,4.682899,1.2716584,-1.2218574
39,1778360568.5309036,1.2434716,0.7214332,2.25997,5.1004825,1.6231955,-1.3102742
40,1778360568.54139,1.2542102,0.5354616,1.7015672,5.890908,1.5305176,-1.7747293
41,1778360568.5515316,1.2542102,0.5354616,1.7015672,5.890908,1.5305176,-1.7747293
42,1778360568.5617495,1.0897156,0.39781332,1.3891739,6.359624,0.9691236,-2.1347883
43,1778360568.5721507,0.86664724,0.2865232,1.0694588,6.6568327,0.44394863,-2.330797
44,1778360568.5822985,0.4458926,0.011226633,0.469078,6.7218137,-0.7597993,-2.319079
45,1778360568.592882,0.28627914,-0.05662128,0.3065359,6.7218137,-0.7597993,-2.319079
46,1778360568.6031704,0.16229807,-0.12398108,0.08444381,6.449106,-2.051964,-2.1220052
47,1778360568.613537,0.16229807,-0.12398108,0.08444381,6.449106,-2.051964,-2.1220052
48,1778360568.6238644,0.13886857,-0.18548352,-0.122516744,6.0613503,-2.5856612,-2.0921779
49,1778360568.633884,0.05051985,-0.29042813,-0.38268176,5.1377664,-2.8136275,-1.9984345
50,1778360568.6439207,0.03929322,-0.3743838,-0.42514774,4.215248,-2.681535,-1.6223965
51,1778360568.654429,0.15692882,-0.41050428,-0.3802412,3.7252269,-2.6037707,-1.462607
52,1778360568.6645992,0.15692882,-0.41050428,-0.3802412,3.7252269,-2.6037707,-1.462607
53,1778360568.6746202,0.2818861,-0.44027928,-0.3499781,3.1723552,-2.4546337,-1.3241227
54,1778360568.68493,0.3077562,-0.6233222,-0.2860351,2.3180137,-1.9326546,-1.0013478
55,1778360568.695178,0.25796852,-0.73510045,-0.24015234,1.911083,-1.5086796,-0.7020087
56,1778360568.705583,0.24967057,-0.82344913,-0.22209209,1.7033565,-1.2253195,-0.42397493
57,1778360568.7156012,0.20769271,-0.8561529,-0.24112856,1.7033565,-1.2253195,-0.42397493
58,1778360568.7256265,0.20769271,-0.8561529,-0.24112856,1.5915039,-1.0985532,-0.16085482
59,1778360568.7359705,0.050031736,-0.8498074,-0.366574,1.438106,-0.96539515,0.23222747
60,1778360568.7462187,-0.15936938,-0.8117344,-0.45345837,1.3582112,-0.9504815,0.56245923
61,1778360568.7562423,-0.3360668,-0.75657743,-0.5422952,1.288969,-1.1369026,0.89908254
62,1778360568.7664576,-0.4937278,-0.7224094,-0.7185045,1.11107,-1.4905702,1.385908
63,1778360568.7766669,-0.4937278,-0.7224094,-0.7185045,1.11107,-1.4905702,1.385908
64,1778360568.786991,-0.46102414,-0.6282034,-0.97378844,0.24181485,-2.1254673,2.6557024
65,1778360568.7971396,-0.27944556,-0.43930307,-1.0323621,-0.6530066,-2.2117536,3.5931342
66,1778360568.8071618,-0.032459613,-0.20256752,-0.98403883,-1.4849775,-2.1414464,4.429366
67,1778360568.8176107,0.36388937,0.06833603,-0.86933196,-2.335058,-1.9752651,5.23364
68,1778360568.82779,0.8027043,0.3104408,-0.72045696,-2.9635634,-1.8016272,5.7279224
69,1778360568.8380065,1.4255384,0.64040625,-0.45736328,-3.6133742,-1.6141407,6.048567
70,1778360568.848229,2.2826674,1.1207108,0.06931226,-4.060785,-1.5598123,5.849363
71,1778360568.858325,2.5447848,1.4165082,0.4183141,-3.9936733,-1.6311849,5.3359056
72,1778360568.8683534,2.5447848,1.4165082,0.4183141,-3.9936733,-1.6311849,5.3359056
73,1778360568.878474,2.600918,1.952458,1.0997219,-3.0210876,-2.0082884,4.137484
74,1778360568.8889837,2.3788261,2.1120715,1.2329772,-2.048502,-2.120141,3.389669
75,1778360568.8990757,2.067409,2.126227,1.125592,-1.3347753,-2.039181,2.893256
76,1778360568.9093766,2.067409,2.126227,1.125592,-1.3347753,-2.039181,2.893256
77,1778360568.9196382,1.7145022,2.0735104,0.89666635,-0.8681899,-1.9017619,2.5342622
78,1778360568.9296646,1.4226097,2.0012693,0.6784792,-0.63596237,-1.7036229,2.2839253
79,1778360568.9402125,1.4226097,2.0012693,0.6784792,-0.63596237,-1.7036229,2.2839253
80,1778360568.950546,1.0330943,1.8221315,0.41294485,-0.63809294,-1.437307,1.8844514
81,1778360568.9605756,1.0330943,1.8221315,0.41294485,-0.779773,-1.3595427,1.616005
82,1778360568.9707804,1.0330943,1.8221315,0.41294485,-0.779773,-1.3595427,1.616005
83,1778360568.9821484,0.52301466,1.5214529,0.3704789,-0.82131827,-1.4106754,1.4476932
84,1778360568.9923615,0.1300825,1.0928884,0.3909797,-0.66685504,-1.2828437,0.8532762
85,1778360569.0030735,0.1300825,1.0928884,0.3909797,-0.69561714,-1.0442247,0.7179877
86,1778360569.0131927,-0.016351834,1.0387076,0.36901456,-0.7371624,-0.7661909,0.5592634
87,1778360569.023345,-0.016351834,1.0387076,0.36901456,-0.7371624,-0.7661909,0.5592634
88,1778360569.0337722,-0.06272271,1.0294335,0.35193056,-0.8436888,-0.20905799,0.28762117
89,1778360569.0437944,-0.107629254,0.9947773,0.33094162,-0.9086699,0.24367906,-0.049002126
90,1778360569.0539544,-0.107629254,0.9947773,0.33094162,-0.9086699,0.24367906,-0.049002126
91,1778360569.0639954,-0.12764193,0.9650024,0.34851375,-0.9203878,0.49188548,-0.35260227
92,1778360569.0740135,-0.17498904,0.96353805,0.42563587,-0.8436888,0.63569605,-0.5922866
93,1778360569.084225,-0.15204766,0.9454777,0.4837215,-0.5155876,0.8732499,-1.0258489
94,1778360569.0942516,-0.1598575,0.9196077,0.49690056,-0.27377275,1.0618016,-1.2378364
95,1778360569.1045902,-0.07541369,0.9117979,0.44418418,-0.056458972,1.3994901,-1.4764555
96,1778360569.1149187,-0.07541369,0.9117979,0.44418418,-0.056458972,1.3994901,-1.4764555
97,1778360569.125225,0.022697324,1.0001466,0.4046469,0.16085482,1.900164,-1.9760641
98,1778360569.1353204,-0.008542004,1.2271198,0.41636166,0.21198747,2.0152125,-2.0666115
99,1778360569.1453652,0.08615221,1.6044323,0.5549862,0.33023173,2.0716715,-2.016544
100,1778360569.1554787,0.08615221,1.6044323,0.5549862,0.33023173,2.0716715,-2.016544
101,1778360569.1658154,0.24771811,1.8660617,0.759018,0.48256442,2.008821,-1.9142787
102,1778360569.1760335,1.2127205,2.3859036,1.2783719,0.94808465,1.8000293,-1.7907082
103,1778360569.186421,1.7071804,2.5352666,1.3730661,1.8482324,1.8458356,-2.0250661
104,1778360569.1964493,2.3163474,2.6236155,1.3862451,2.6322665,2.159023,-2.6152222
105,1778360569.2065468,2.4535077,2.592376,1.3506129,3.0956562,2.2804632,-2.945454
106,1778360569.216954,2.575536,2.4532633,1.150974,3.7848818,2.2772675,-3.3396015
107,1778360569.2274683,2.575536,2.4532633,1.150974,3.7848818,2.2772675,-3.3396015
108,1778360569.2377822,2.5496662,1.9822329,0.2865232,4.0991344,2.263419,-3.923366
109,1778360569.2479594,2.2885249,1.7230443,-0.12056428,3.7167048,2.198438,-4.093808
110,1778360569.2581286,2.0586228,1.5341438,-0.36364532,3.1989868,2.0961726,-4.114048
111,1778360569.2684517,1.7984579,1.2690977,-0.51496077,2.4266706,1.956623,-4.0597196
112,1778360569.2787988,1.5456146,0.9752528,-0.49201941,1.6703334,1.7638103,-3.9382796
113,1778360569.2891922,1.3401184,0.76243484,-0.4036707,1.1771163,1.5582144,-3.8072522
114,1778360569.2995203,1.0101529,0.417826,-0.16986385,0.5901561,1.1438268,-3.5004563
115,1778360569.3097227,0.83101493,0.24747404,-0.020012695,0.4218444,0.8572709,-3.2234879
116,1778360569.3200486,0.635281,0.06882414,0.13960074,0.42290968,0.6506098,-2.9486496
117,1778360569.3305037,0.5210622,-0.08932495,0.24112856,0.53795815,0.50679916,-2.577938
118,1778360569.3409152,0.47762007,-0.20403185,0.26211748,0.66259396,0.509995,-2.2935126
119,1778360569.351412,0.42392743,-0.3778006,0.23575929,0.85647196,0.65167505,-1.8919082
120,1778360569.361487,0.37023485,-0.5047104,0.1718163,1.0194573,0.76246244,-1.5851123
121,1778360569.3718352,0.3082443,-0.6369894,0.082003236,1.1579416,0.7613972,-1.2836426
122,1778360569.3822193,0.264314,-0.7136234,-0.0053692595,1.288969,0.45779705,-0.7467498
123,1778360569.392702,0.21452633,-0.81319875,-0.10982577,1.2761859,0.14034848,-0.32703593
124,1778360569.4029102,0.18768002,-0.98794377,-0.35241866,1.1771163,0.002929475,-0.0937432
125,1778360569.413316,0.18084641,-0.9942892,-0.469078,1.0088047,-0.043942124,0.057524238
126,1778360569.4233477,0.18084641,-0.9942892,-0.469078,1.0088047,-0.043942124,0.057524238
127,1778360569.433614,0.12324891,-0.9952655,-0.575487,0.6881603,-0.09294425,0.21731378
128,1778360569.4439137,-0.09445015,-0.89813066,-0.686289,-0.17896429,-0.29427907,0.72544456
129,1778360569.4542413,-0.11495096,-0.8502955,-0.6369894,-0.59335184,-0.40293598,1.0396973
130,1778360569.4643385,-0.18426323,-0.7643873,-0.5749989,-0.8841688,-0.5701824,1.3358406
131,1778360569.4744086,-0.18426323,-0.7643873,-0.5749989,-1.0567415,-0.78110456,1.6479628
132,1778360569.4847028,-0.3922,-0.5603554,-0.6203935,-1.208009,-1.0101362,2.0176094
133,1778360569.4949517,-0.3922,-0.5603554,-0.6203935,-1.208009,-1.0101362,2.0176094
134,1778360569.504984,-0.30970863,0.005857374,-0.7487676,-2.1486368,-1.6940355,3.769968
135,1778360569.5153985,0.21989559,0.28164205,-0.61746484,-2.784599,-1.922002,4.6157875
136,1778360569.5256414,0.21989559,0.28164205,-0.61746484,-2.784599,-1.922002,4.6157875
137,1778360569.535934,1.6749649,0.9894081,0.064919226,-3.664507,-1.9827219,5.183573
138,1778360569.5464325,2.4291017,1.4702009,0.5784157,-3.7081828,-1.7281239,4.4879556
139,1778360569.556454,2.468151,1.6415291,0.69312257,-3.5494585,-1.4852438,3.7316186
140,1778360569.5665128,2.1001127,1.9368384,0.9279056,-3.3076437,-1.3510206,3.208574
141,1778360569.5765364,2.1001127,1.9368384,0.9279056,-3.3076437,-1.3510206,3.208574
142,1778360569.5865571,1.8833898,2.0744865,1.0421244,-3.002978,-1.3659343,3.0093699
143,1778360569.5966005,1.6168793,2.1428227,1.0294335,-1.9611504,-1.5448986,2.514022
144,1778360569.6066253,1.4445748,2.1457515,0.91570276,-1.6266576,-1.4319806,2.314818
145,1778360569.6167717,1.2478647,2.076439,0.8073414,-1.6266576,-1.4319806,2.314818
146,1778360569.6267965,1.2478647,2.076439,0.8073414,-1.3773859,-1.2572774,2.1486368
147,1778360569.6368363,0.8705522,1.8133454,0.65993077,-0.9108004,-0.9707215,1.9036261
148,1778360569.6473196,0.6489482,1.616147,0.5276518,-0.6040045,-0.78962666,1.7097481
149,1778360569.6574726,0.6489482,1.616147,0.5276518,-0.6040045,-0.78962666,1.7097481
150,1778360569.6677403,0.18426323,1.3076587,0.31825066,-0.17683376,-0.64475083,1.4349102
151,1778360569.677786,0.009518232,1.2046666,0.272856,-0.03834949,-0.6159887,1.4157354
152,1778360569.6881626,-0.14716652,1.0977695,0.23331872,0.11611374,-0.6064013,1.4487586
153,1778360569.6985238,-0.1969542,1.002099,0.17913802,0.21305273,-0.58935714,1.4743248
154,1778360569.7085533,-0.16815543,0.9030118,0.1552204,0.34408015,-0.54035497,1.4104091
155,1778360569.719088,-0.13740423,0.8581053,0.15326795,0.45486757,-0.5190497,1.2612722
156,1778360569.7293992,-0.114462845,0.8293065,0.14545812,0.56245923,-0.5169192,1.0780468
157,1778360569.7394564,-0.11202228,0.80636513,0.12495731,0.6764424,-0.5573992,0.8490151
158,1778360569.7496364,-0.15448824,0.7746377,0.09518232,0.87138563,-0.67564344,0.37710333
159,1778360569.75966,-0.19500175,0.7585299,0.065407336,0.97471625,-0.6799045,0.015978955
160,1778360569.7700298,-0.2774931,0.74437463,0.0039049159,1.0002825,-0.59574866,-0.33236226
161,1778360569.7805183,-0.36730617,0.7438865,-0.05759751,0.93636674,-0.45832968,-0.53369707
162,1778360569.7909558,-0.44394013,0.74632704,-0.114218794,0.79255617,-0.27830014,-0.6391582
163,1778360569.8014102,-0.507395,0.7560893,-0.082003236,0.41971388,0.13821796,-0.6636593
164,1778360569.811921,-0.43613032,0.8009959,0.028798755,0.18322535,0.5281044,-0.646615
165,1778360569.8221216,-0.25259924,0.8498074,0.10884953,-0.006391582,0.92118675,-0.7211835
166,1778360569.8326595,-0.0012202862,0.9659786,0.22453266,-0.12144005,1.5241259,-1.2101395
167,1778360569.8431337,-0.073949344,1.0162543,0.20256752,-0.053263184,1.8447703,-1.7768598
168,1778360569.8532214,-0.25406358,1.0152781,0.107385196,0.05006739,1.7574186,-2.173138
169,1778360569.8632734,-0.5171573,1.027481,-0.005857374,0.05006739,1.7574186,-2.173138
170,1778360569.8733504,-0.5171573,1.027481,-0.005857374,0.051132657,1.3760543,-2.2924473
171,1778360569.883435,-0.6299118,1.2695858,0.3402158,-0.13635375,0.8892288,-1.3486238
172,1778360569.8936417,-0.6299118,1.2695858,0.3402158,-0.12783164,0.95953625,-0.9289099
173,1778360569.9036613,0.53912246,2.0530095,0.8776299,-0.049002126,1.2716584,-0.14274533
174,1778360569.9137666,1.1536586,2.4395962,1.0987457,0.028762119,1.3494227,0.1842906
175,1778360569.9238415,2.1206133,2.8945189,1.3252308,0.112917945,1.3483574,0.32703593
176,1778360569.9342425,2.9250262,3.1322308,1.539025,0.24501064,1.3046817,0.0585895
177,1778360569.944479,3.7504277,3.3147855,1.8724071,0.9619331,1.5635407,-1.21227
178,1778360569.9546413,3.7504277,3.3147855,1.8724071,0.9619331,1.5635407,-1.21227
179,1778360569.9647675,3.678675,2.7510133,1.7557478,2.3467758,1.819204,-2.751576
180,1778360569.974962,3.678675,2.7510133,1.7557478,2.3467758,1.819204,-2.751576
181,1778360569.98511,3.2735398,2.2819352,1.4033291,3.23201,1.8884461,-3.6016564
182,1778360569.9954495,2.3339193,1.4169964,0.55693865,3.2298794,1.8170735,-3.7433364
183,1778360570.005589,1.876068,1.048958,0.18060236,2.9880645,1.6189344,-3.8051217
184,1778360570.0160167,1.4943625,0.81466305,-0.065407336,2.4799337,1.2652669,-3.6144395
185,1778360570.0260494,1.3235224,0.6560259,-0.16010156,2.1060262,1.0511489,-3.43441
186,1778360570.0367038,1.2883781,0.536926,-0.17718557,1.7619461,0.88283724,-3.3076437
187,1778360570.0469506,1.2381024,0.3226437,-0.17620933,1.309209,0.7113298,-3.2384014
188,1778360570.056974,1.120955,0.1313028,-0.14301755,1.0056089,0.59628135,-3.1979215
189,1778360570.0669973,0.9872115,-0.04881145,-0.07224095,0.80107826,0.41944757,-3.1116352
190,1778360570.077215,0.90423214,-0.2328306,0.025870068,0.7201182,0.19574219,-3.0115004
191,1778360570.0876908,0.8534682,-0.38512233,0.10543273,0.7510109,0.03062633,-2.9273446
192,1778360570.0979974,0.8105141,-0.59159476,0.208913,0.96299833,-0.14620744,-2.8112307
193,1778360570.1080203,0.7753699,-0.7580418,0.23575929,1.2548805,-0.26232117,-2.7302706
194,1778360570.118053,0.6884855,-0.93278676,0.19573392,1.5691334,-0.3315633,-2.6354623
195,1778360570.1280935,0.56548065,-1.0938646,0.09176553,1.8290577,-0.36565176,-2.4703465
196,1778360570.1384327,0.44491637,-1.206619,-0.017572122,1.9441061,-0.37417385,-2.275403
197,1778360570.1484544,0.29701766,-1.3198615,-0.20500809,1.9185398,-0.40400124,-1.9121482
198,1778360570.1588821,0.12471326,-1.3413386,-0.37145513,1.7235966,-0.41465387,-1.5520891
199,1778360570.1690133,-0.045638707,-1.3349931,-0.50031734,1.3976259,-0.44980758,-1.0833731
200,1778360570.179206,-0.1432616,-1.3013133,-0.59159476,1.0183921,-0.5137234,-0.55606765
201,1778360570.1897204,-0.16766733,-1.270562,-0.64040625,0.69029087,-0.57124764,-0.15020217
202,1778360570.1998756,-0.24088451,-1.2017379,-0.6653,0.22050957,-0.6767087,0.3749728
203,1778360570.2099648,-0.40049794,-1.1280326,-0.6960513,-0.13635375,-0.83117193,0.83410144
204,1778360570.2203476,-0.528384,-1.0611609,-0.6867771,-0.48149917,-1.090031,1.3933648
205,1778360570.230401,-0.6772589,-0.95621634,-0.733148,-0.8468846,-1.4330459,2.1560936
206,1778360570.2407155,-0.70312893,-0.82442534,-0.716064,-1.1483542,-1.7600819,2.9166918
207,1778360570.2507508,-0.5532778,-0.5100796,-0.60184515,-1.5350449,-2.2724736,4.215248
208,1778360570.2609057,-0.15400012,-0.12544543,-0.4617563,-1.7704681,-2.6144233,5.345493
209,1778360570.271338,0.5352176,0.3265486,-0.31532198,-1.9568893,-2.7518423,6.268011
210,1778360570.281477,1.2869139,0.74583894,-0.1786499,-2.0634158,-2.7347982,6.6696157
211,1778360570.291908,2.289989,1.3823403,0.032703668,-2.0868514,-2.5899222,6.5353923
212,1778360570.3024201,2.822034,2.4708354,0.23819989,-1.8759292,-2.108423,4.9076695
213,1778360570.3126893,2.822034,2.4708354,0.23819989,-1.8759292,-2.108423,4.9076695
214,1778360570.3227623,2.4291017,2.6338658,0.15424417,-1.8556893,-1.9326546,4.1726375
215,1778360570.333198,2.123542,2.66901,0.073217176,-1.9302577,-1.9188061,3.891408
216,1778360570.3432178,1.679358,2.4732761,0.0873725,-2.2551632,-2.0050924,3.3449278
217,1778360570.3537347,1.427979,2.2467911,0.2020794,-2.3052306,-1.8879135,2.9784772
218,1778360570.3638208,1.427979,2.2467911,0.2020794,-2.3052306,-1.8879135,2.9784772
219,1778360570.3740842,1.1346222,2.0442235,0.2626056,-2.254098,-1.793105,2.699378
220,1778360570.3844385,0.87348086,1.8489777,0.31873876,-2.1347883,-1.7643429,2.5236096
221,1778360570.394579,0.32386398,1.4228537,0.41684976,-1.5712639,-1.8932399,2.3616896
222,1778360570.404813,0.20183535,1.2305366,0.35827604,-1.5712639,-1.8932399,2.3616896
223,1778360570.4148333,0.15253578,1.0997219,0.27822527,-0.84581935,-2.03492,2.2125525
224,1778360570.4248552,0.15253578,1.0997219,0.27822527,-0.84581935,-2.03492,2.2125525
225,1778360570.434876,0.09396204,1.0035634,0.22209209,-0.7680551,-2.0072231,2.0676768
226,1778360570.444932,0.016839951,0.9054524,0.1849954,-0.77870774,-1.9209367,1.8461019
227,1778360570.4552658,-0.0993313,0.8293065,0.19280522,-0.86286354,-1.7675387,1.5946996
228,1778360570.4656856,-0.44540447,0.71996886,0.27432033,-1.0759163,-1.2785827,1.0716553
229,1778360570.476008,-0.44540447,0.71996886,0.27432033,-1.0759163,-1.2785827,1.0716553
230,1778360570.4862797,-0.67579454,0.69507504,0.336799,-1.1387669,-1.0623342,0.87671196
231,1778360570.4966013,-0.690438,0.6897058,0.3568117,-1.1462237,-1.049551,0.84262353
232,1778360570.50683,-0.56596875,0.7106947,0.3660859,-1.1685942,-1.1635342,0.74035823
233,1778360570.5169182,-0.32679266,0.7541369,0.4041588,-1.2016174,-1.1230541,0.5539371
234,1778360570.5271401,-0.17206036,0.80636513,0.4617563,-1.2197269,-0.90787095,0.32384014
235,1778360570.537449,-0.017328065,0.8449261,0.52033,-1.2197269,-0.5254413,0.06498108
236,1778360570.5479147,0.16278619,0.89764255,0.63113207,-1.17179,0.30013803,-0.36218965
237,1778360570.557955,0.19841854,0.92546505,0.6901939,-1.014131,1.2045468,-0.759533
238,1778360570.5680382,0.20525214,0.99038434,0.716064,-0.80320877,1.8053555,-1.0354363
239,1778360570.5780578,0.20525214,0.99038434,0.716064,-0.59548235,2.0993683,-1.1930953
240,1778360570.5882113,0.2042759,1.2256554,0.7311955,-0.3632549,2.2527664,-1.3166659
241,1778360570.5985677,0.27212384,1.5590377,0.7560893,-0.013848428,2.2815285,-1.3880385
242,1778360570.608597,0.6279593,2.007615,0.85566473,0.36432016,2.1728716,-1.3848428
243,1778360570.6188571,1.0897156,2.370284,0.96402615,0.7329014,2.0674105,-1.442367
244,1778360570.6288784,1.5622104,2.6099484,1.0050278,1.0151962,1.9821893,-1.568068
245,1778360570.6394014,2.0683851,2.7422273,1.0030752,1.2314447,1.9278609,-1.7843165
246,1778360570.649634,2.668278,2.8418026,1.0670183,1.4732596,1.9757978,-2.2019
247,1778360570.6599903,3.0236251,2.9281988,1.1543908,1.7449019,2.1568925,-2.5150874
248,1778360570.6702187,3.307708,2.8271592,1.0484699,2.0655463,2.4530358,-2.9582372
249,1778360570.6805048,3.3838537,2.6143413,0.88007045,2.210422,2.6820676,-3.3097742
250,1778360570.69099,3.2974577,2.3258655,0.6994681,2.3073611,2.849314,-3.6634417
251,1778360570.701231,2.369552,1.3491484,0.20061506,2.4266706,3.0740845,-4.2173786
252,1778360570.7112837,2.369552,1.3491484,0.20061506,2.4266706,3.0740845,-4.2173786
253,1778360570.72216,1.7154784,0.9684192,-0.07858644,2.3073611,3.136935,-4.014979
254,1778360570.7326603,1.406502,0.81368685,-0.19329333,2.1507673,3.063432,-3.7209659
255,1778360570.7429392,1.2254114,0.69898,-0.24552159,1.9739336,2.869554,-3.3960605
256,1778360570.7535388,1.0623811,0.3392396,-0.23087814,1.5456976,2.1696758,-2.8623633
257,1778360570.7637455,0.98379475,0.13471961,-0.17279254,1.4413017,1.9757978,-2.7707508
258,1778360570.7741847,0.98379475,0.13471961,-0.17279254,1.4413017,1.9757978,-2.7707508
259,1778360570.7846794,0.8607899,-0.082003236,-0.09274176,1.4476932,1.8309219,-2.7164223
260,1778360570.7947037,0.5400987,-0.48713827,0.059549972,1.854624,1.4836459,-2.4703465
261,1778360570.804744,0.40342662,-0.65846646,0.055645052,2.1848557,1.2705932,-2.218944
262,1778360570.815162,0.40342662,-0.65846646,0.055645052,2.1848557,1.2705932,-2.218944
263,1778360570.8256614,0.2809099,-0.90691674,-0.12544543,2.7228138,0.6900245,-1.6181355
264,1778360570.8358865,0.27505252,-0.9898962,-0.23185438,2.787795,0.46099284,-1.422127
265,1778360570.846261,0.29164842,-1.0855666,-0.36315718,2.7355971,0.22343905,-1.2420974
266,1778360570.8562815,0.25845662,-1.1582958,-0.54668826,2.476738,0.026365275,-1.0396973
267,1778360570.8664405,0.17645338,-1.1953924,-0.7038611,2.0666115,-0.07483477,-0.8756467
268,1778360570.8765855,0.049543623,-1.2173575,-0.81271064,1.5137396,-0.22290641,-0.67857295
269,1778360570.8866067,-0.07736614,-1.1953924,-0.84150934,1.0226531,-0.39760965,-0.45806336
270,1778360570.8968873,-0.23746772,-1.1490215,-0.78684056,0.32170963,-0.6799045,-0.022370536
271,1778360570.906911,-0.31605414,-1.0943527,-0.6994681,-0.14487585,-0.92598045,0.42077914
272,1778360570.9170003,-0.36974674,-1.0001466,-0.6028214,-0.46125916,-1.1592731,0.9203878
273,1778360570.9270191,-0.39756927,-0.8683557,-0.54864067,-0.65833294,-1.4181322,1.4839122
274,1778360570.9374251,-0.34387666,-0.7302193,-0.5339973,-0.7850993,-1.6439681,2.0037608
275,1778360570.9478035,-0.17303659,-0.43246946,-0.5427833,-1.002413,-1.9869831,2.8644938
276,1778360570.9578238,0.09542638,-0.09469421,-0.53009236,-1.2506195,-2.25756,3.6059175
277,1778360570.9682014,0.5288721,0.26455808,-0.47786412,-1.5318491,-2.428002,4.2685113
278,1778360570.9784055,0.5288721,0.26455808,-0.47786412,-1.5318491,-2.428002,4.2685113
279,1778360570.9884808,1.6095576,0.950359,-0.36755022,-2.0591545,-2.2234716,4.853341
280,1778360570.9985378,2.0932791,1.347196,-0.32606047,-2.3403842,-1.9315892,4.7553368
281,1778360571.0090125,2.0932791,1.347196,-0.32606047,-2.3403842,-1.9315892,4.7553368
282,1778360571.0193467,2.2816913,1.7489142,-0.3162982,-3.0477192,-1.3062795,4.3047304
283,1778360571.029441,2.2816913,1.7489142,-0.3162982,-3.0477192,-1.3062795,4.3047304
284,1778360571.0394862,1.9990729,2.0910823,0.10884953,-4.731901,-0.5307676,3.6772902
285,1778360571.049616,1.8345783,2.0203059,0.6657882,-4.8160567,-0.52437603,3.4972606
286,1778360571.059642,1.7145022,1.9055991,1.0396838,-4.34308,-0.7331677,3.3427973
287,1778360571.070059,1.4948506,1.7869871,1.3052181,-3.4738247,-1.1241194,3.1702247
288,1778360571.080389,1.2776396,1.6800901,1.3779472,-2.582199,-1.4277196,3.0732856
289,1778360571.0908964,1.0550594,1.5195004,1.2568948,-1.438106,-1.5992271,3.0328057
290,1778360571.101431,0.8891005,1.3579346,0.9484064,-0.29188225,-1.493766,2.9838035
291,1778360571.1119099,0.7309515,1.2588474,0.6389419,0.33129698,-1.3627385,2.8623633
292,1778360571.1219506,0.51618105,1.1802609,0.34607318,0.6391582,-1.3350416,2.6876602
293,1778360571.1321049,0.340948,1.1314493,0.16400647,0.7126614,-1.396827,2.553437
294,1778360571.1423492,0.2272173,1.108508,0.043930303,0.6966824,-1.5150713,2.4341273
295,1778360571.152674,0.13691612,1.0977695,-0.0605262,0.62317926,-1.6663387,2.2477062
296,1778360571.1627135,0.041245673,1.069947,-0.0605262,0.47723812,-1.8996314,1.8844514
297,1778360571.1731465,0.041245673,1.069947,-0.0605262,0.47723812,-1.8996314,1.8844514
298,1778360571.1831644,0.041245673,1.069947,-0.0605262,0.47723812,-1.8996314,1.8844514
299,1778360571.193458,0.041245673,1.069947,-0.0605262,0.47723812,-1.8996314,1.8844514
300,1778360571.2039135,-0.17498904,0.97037166,-0.036608588,-0.049002126,-1.7813871,0.8383625
301,1778360571.2144828,-0.23893206,0.9127741,-0.051252022,-0.4186486,-1.30841,0.57630765
302,1778360571.2249167,-0.26187342,0.86201024,0.020500809,-0.7946867,-0.7576688,0.3281012
303,1778360571.2350388,-0.19353738,0.8258897,0.24405725,-1.0311753,-0.19201377,-0.04474107
304,1778360571.2453725,-0.19353738,0.8258897,0.24405725,-1.0311753,-0.19201377,-0.04474107
305,1778360571.2556212,-0.14277348,0.82149667,0.38316986,-0.9257141,0.0039947387,-0.33342752
306,1778360571.2658417,-0.057841565,0.82003236,0.4685899,-0.7126614,0.059388448,-0.53795815
307,1778360571.2763882,0.057841565,0.86152214,0.53106856,-0.41438755,0.054062128,-0.7669898
308,1778360571.2865224,0.2545517,1.010397,0.57451075,0.21411799,0.316117,-1.13131
309,1778360571.2970037,0.29652956,1.1241276,0.54034275,0.47510758,0.6846982,-1.2495543
310,1778360571.307368,0.5039782,1.380876,0.44271985,0.6775077,1.2780501,-1.2793816
311,1778360571.3177414,0.5039782,1.380876,0.44271985,0.6775077,1.2780501,-1.2793816
312,1778360571.32782,1.0457853,1.9021822,0.4085518,1.0375668,1.9598188,-1.2964258
313,1778360571.3382967,1.3947871,2.0954754,0.39634898,1.1749858,2.008821,-1.4210618
314,1778360571.3487935,1.8941283,2.3297706,0.3968371,1.3912343,1.900164,-1.9845861
315,1778360571.3588245,2.1079226,2.4278815,0.353883,1.4317143,1.9054903,-2.3531673
316,1778360571.368856,2.238737,2.5118372,0.28261828,1.264468,2.1089556,-2.7270749
317,1778360571.378876,2.392005,2.523552,0.18597162,0.8181225,2.6053686,-3.0083046
318,1778360571.3891838,2.5374632,2.4430132,0.16644704,0.33236226,3.19659,-3.2288141
319,1778360571.399213,2.6389909,2.277054,0.2421048,-0.15552849,3.8218997,-3.5217617
320,1778360571.409737,2.362718,1.8768003,0.5886661,-0.56458974,4.5217776,-4.032023
321,1778360571.4197583,1.8755801,1.5512279,0.8947139,-0.3462107,4.4216433,-4.117244
322,1778360571.4298007,1.462635,1.2100358,1.0089327,0.14594112,4.048801,-3.9340186
323,1778360571.439821,1.2376143,0.9376679,1.0123495,0.58269924,3.7238953,-3.693269
324,1778360571.4503522,1.0067362,0.5876899,0.96353805,1.2058785,3.2594404,-3.3108394
325,1778360571.460473,0.85493255,0.3436326,0.8683557,1.6426365,2.9728844,-2.9646287
326,1778360571.4704967,0.7314396,0.119588055,0.77414954,2.004826,2.7470486,-2.6120265
327,1778360571.4808292,0.64260274,-0.0776102,0.65114474,2.2967083,2.5680842,-2.2604895
328,1778360571.4912488,0.5976962,-0.23331872,0.5227706,2.4437149,2.4636884,-1.9909778
329,1778360571.5014954,0.545468,-0.38170552,0.38756293,2.492717,2.3465095,-1.737445
330,1778360571.5118997,0.42002252,-0.56474847,0.2323425,2.3819294,2.102564,-1.2964258
331,1778360571.5222602,0.34729347,-0.6452874,0.16937573,2.2817948,1.9310566,-0.9725857
332,1778360571.5326278,0.25943285,-0.8009959,0.01513155,2.2019,1.7947029,-0.6743119
333,1778360571.542675,0.25943285,-0.8009959,0.01513155,2.1422453,1.6636755,-0.4399539
334,1778360571.5528378,0.1769415,-0.882511,-0.22453266,2.0453062,1.0532794,-0.0
335,1778360571.562937,0.1261776,-0.9342511,-0.3900035,2.0453062,1.0532794,-0.0
336,1778360571.573122,0.048567392,-0.97085977,-0.5696296,1.782186,0.4119907,0.28868645
337,1778360571.5832338,0.048567392,-0.97085977,-0.5696296,1.782186,0.4119907,0.28868645
338,1778360571.5940468,-0.11006982,-0.9601213,-0.8005078,1.1781815,0.0071905297,0.59122133
339,1778360571.6042416,-0.11006982,-0.9601213,-0.8005078,1.1781815,0.0071905297,0.59122133
340,1778360571.6145377,-0.24478942,-0.84102124,-0.9020356,0.10439584,-0.4902876,1.17179
341,1778360571.6246192,-0.24478942,-0.84102124,-0.9020356,0.10439584,-0.4902876,1.17179
342,1778360571.6348224,-0.26919514,-0.7721971,-0.88641596,-0.31744856,-0.682035,1.4391712
343,1778360571.6451383,-0.35559142,-0.575487,-0.8766537,-1.0556762,-1.2104058,2.0623505
344,1778360571.6554089,-0.3521746,-0.43832684,-0.77854264,-1.4050827,-1.6333154,2.509761
345,1778360571.6658206,-0.23697957,-0.3031191,-0.6325964,-1.6319839,-2.0157452,2.9763467
346,1778360571.675944,0.08956901,-0.088836834,-0.3577879,-1.6319839,-2.0157452,2.9763467
347,1778360571.6863966,0.5972081,0.17523311,-0.07175283,-1.773664,-2.6975138,4.0703726
348,1778360571.6965268,1.2932593,0.5725583,0.22013964,-1.6053523,-2.7230802,4.3579936
349,1778360571.7066796,1.7706354,0.9869675,0.3939084,-1.3752553,-2.5547686,4.372907
350,1778360571.7170508,2.0576468,1.3208379,0.46322066,-1.1898994,-2.3821957,4.286621
351,1778360571.727217,2.352468,1.7586764,0.3968371,-1.0492847,-2.1755347,4.093808
352,1778360571.7372866,2.515498,1.9700302,0.31385764,-1.0897647,-2.0604863,3.943606
353,1778360571.7477212,2.7302682,2.2140872,0.26943922,-1.2101395,-1.8197366,3.6155047
354,1778360571.757841,2.792747,2.3307467,0.23868799,-1.341167,-1.5662038,3.217096
355,1778360571.7681396,2.7468643,2.3380685,0.22502078,-1.4402364,-1.3424985,2.808035
356,1778360571.7783535,2.5252602,2.2672918,0.21232979,-1.5627418,-1.0548773,2.24238
357,1778360571.7884464,2.5252602,2.2672918,0.21232979,-1.5627418,-1.0548773,2.24238
358,1778360571.7989557,1.7838144,1.986626,0.17084008,-1.6596807,-0.6522077,1.4242575
359,1778360571.8094685,1.2717823,1.7606289,0.14350566,-1.6650071,-0.59361815,1.1366363
360,1778360571.8198507,0.8876362,1.5507398,0.18987654,-1.579786,-0.7001445,1.0002825
361,1778360571.830226,0.6884855,1.415532,0.24747404,-1.4359754,-0.8088014,0.95234567
362,1778360571.8405788,0.49860895,1.2773956,0.32166746,-1.1590068,-0.95900357,0.9310404
363,1778360571.850751,0.36632994,1.1885588,0.34753752,-0.51984864,-1.1145321,0.93210566
364,1778360571.861188,0.22282428,1.0694588,0.336799,-0.51984864,-1.1145321,0.93210566
365,1778360571.8712406,-0.009030119,0.9342511,0.2933568,0.009587373,-1.0910963,0.83197093
366,1778360571.8814828,-0.009030119,0.9342511,0.2933568,0.009587373,-1.0910963,0.83197093
367,1778360571.8916934,-0.110557936,0.89666635,0.26553428,0.16937692,-1.0570078,0.77231616
368,1778360571.9019012,-0.3482697,0.8351639,0.2323425,0.31744856,-0.968591,0.68283397
369,1778360571.9124084,-0.37999713,0.8122225,0.2523552,0.42717072,-0.815193,0.606135
370,1778360571.9226773,-0.37999713,0.8122225,0.2523552,0.48256442,-0.657534,0.545415
371,1778360571.9331908,-0.3917119,0.8092938,0.31385764,0.56245923,-0.4551339,0.46125916
372,1778360571.9432216,-0.37267542,0.8049008,0.38609856,0.6711161,-0.27190855,0.3664507
373,1778360571.9533405,-0.34192422,0.79269797,0.57988006,1.2261184,0.22237378,0.035153702
374,1778360571.963779,-0.298482,0.77073276,0.6365013,1.5755249,0.44075283,-0.10972215
375,1778360571.9742818,-0.234539,0.7824476,0.68433654,1.9611504,0.6612624,-0.22477064
376,1778360571.984387,-0.234539,0.7824476,0.68433654,1.9611504,0.6612624,-0.22477064
377,1778360571.994818,-0.09054524,0.82100856,0.6799435,2.295643,0.8434225,-0.3163833
378,1778360572.004906,0.008542004,0.921072,0.6233222,3.2075088,1.2205259,-0.45486757
379,1778360572.0151973,0.09737884,1.0494461,0.5339973,3.5633068,1.2833763,-0.4665855
380,1778360572.0254126,0.22477673,1.2251674,0.42563587,3.5633068,1.2833763,-0.4665855
381,1778360572.0355513,0.37316352,1.4062579,0.35974038,3.9862165,1.2887027,-0.3483412
382,1778360572.04561,0.8236932,1.7054721,0.36169282,4.1726375,1.1555448,-0.23222747
383,1778360572.055685,1.2991167,1.9065753,0.37096703,4.4506717,0.7795067,-0.32490543
384,1778360572.0658624,1.7086449,2.0159128,0.36364532,4.679703,0.3416833,-0.5944171
385,1778360572.0763829,2.0698495,2.0822964,0.3499781,4.8863645,-0.07376951,-0.90973514
386,1778360572.086539,2.3036563,2.088642,0.2923806,4.9875646,-0.31025803,-1.1185268
387,1778360572.0969229,2.5657737,2.0691173,0.20451997,4.9907603,-0.52011496,-1.2921648
388,1778360572.107143,2.9733496,1.9675895,-0.013667206,4.695682,-0.8439551,-1.5478281
389,1778360572.117651,3.1656666,1.8699666,-0.17669745,4.237619,-0.9803089,-1.7662071
390,1778360572.127841,3.1656666,1.8699666,-0.17669745,4.237619,-0.9803089,-1.7662071
391,1778360572.1379263,3.2281451,1.5766098,-0.3699908,2.9230835,-0.89934886,-2.4426496
392,1778360572.1483476,3.0704844,1.380876,-0.39244407,2.2082915,-0.6564687,-2.8357317
393,1778360572.158865,2.6155615,0.9191196,-0.38805103,0.7914909,-0.014114743,-3.4450626
394,1778360572.168899,2.1850445,0.58232063,-0.26406994,-0.21411799,0.52916974,-3.736945
395,1778360572.1794012,1.7935767,0.30116665,-0.01513155,-1.0205226,0.9957552,-3.7955344
396,1778360572.189473,1.5670916,0.10055158,0.22697324,-1.4210618,1.2918985,-3.7252269
397,1778360572.199726,1.3933228,-0.08444381,0.47005424,-1.5776554,1.5198649,-3.587808
398,1778360572.2098713,1.1292529,-0.34753752,0.8459024,-1.2772511,1.4942986,-3.4237573
399,1778360572.220159,0.94913864,-0.49006698,0.9952655,-0.6817687,1.253549,-3.2384014
400,1778360572.230678,0.8222289,-0.6321083,1.0011228,0.056458972,0.97444993,-3.0328057
401,1778360572.2412055,0.73388016,-0.73558855,0.9196077,0.63170135,0.7880288,-2.8581023
402,1778360572.2515478,0.62356627,-0.856641,0.7038611,1.3017522,0.6378266,-2.630136
403,1778360572.2617202,0.43613032,-1.0416363,0.26553428,1.717205,0.6644582,-2.2551632
404,1778360572.2720594,0.43613032,-1.0416363,0.26553428,1.717205,0.6644582,-2.2551632
405,1778360572.2824507,0.32923323,-1.1412116,0.035144243,1.600026,0.8040077,-2.0612853
406,1778360572.2932441,0.23112221,-1.2261436,-0.119588055,1.3539501,0.962732,-1.8567545
407,1778360572.303576,-0.12324891,-1.3842927,-0.27041543,0.5347623,1.4261217,-0.99176043
408,1778360572.3138678,-0.29116032,-1.4209013,-0.2518671,0.2929475,1.5709976,-0.45486757
409,1778360572.3243518,-0.29116032,-1.4209013,-0.2518671,0.2929475,1.5709976,-0.45486757
410,1778360572.3344276,-0.48689422,-1.4013767,-0.23527117,0.19174746,1.6732628,0.6966824
411,1778360572.3448539,-0.5771954,-1.3589108,-0.30897647,0.21837905,1.6935029,1.3464932
412,1778360572.3552675,-0.6489482,-1.2983845,-0.4339338,0.17150745,1.6903071,2.1827252
413,1778360572.3657134,-0.626495,-1.228096,-0.58232063,0.053263184,1.6594144,2.7537065
414,1778360572.3761132,-0.626495,-1.228096,-0.58232063,0.053263184,1.6594144,2.7537065
415,1778360572.3864384,-0.48396555,-0.97427654,-0.8288184,-0.56032866,1.3142691,4.1683764
416,1778360572.3965843,-0.33704305,-0.81368685,-0.83077085,-0.8884299,0.982972,5.037632
417,1778360572.4070926,0.36632994,-0.5047104,-0.64138246,-1.3028175,0.18722008,6.007022
418,1778360572.4174907,1.1438963,-0.1889003,-0.44613665,-1.3560807,-0.4167844,6.481064
419,1778360572.427561,1.7882075,0.14252943,-0.32166746,-1.2623374,-0.7502119,6.5641546
420,1778360572.4380815,2.5257485,0.6125837,-0.25381953,-1.0929605,-0.7821698,6.3127522
421,1778360572.4482033,2.5257485,0.6125837,-0.25381953,-1.0929605,-0.7821698,6.3127522
422,1778360572.4585612,3.223264,1.4091865,-0.5598673,-1.430649,0.4087949,4.9960866
423,1778360572.4689791,3.223264,1.4091865,-0.5598673,-1.430649,0.4087949,4.9960866
424,1778360572.4794018,3.1764052,1.5243815,-0.64089435,-1.7970997,0.8839025,4.4964776
425,1778360572.4894302,2.7971401,1.6600775,-0.44906533,-2.3499715,1.1789806,3.7465322
426,1778360572.4997787,2.7180655,1.6961979,-0.26211748,-2.2391841,0.8775109,3.57609
427,1778360572.509807,2.6731591,1.7118175,-0.14545812,-1.7278576,0.11797795,3.0093699
428,1778360572.5199127,2.4808419,1.6761851,-0.18060236,-1.3432975,-0.31878015,2.4618242
429,1778360572.529956,2.229951,1.6063848,-0.27090356,-1.1632679,-0.50946236,2.0708725
430,1778360572.5404036,1.9038906,1.5209647,-0.35095432,-1.1078742,-0.5787045,1.7363797
431,1778360572.5508113,1.6320108,1.4379853,-0.39537275,-1.1398321,-0.53502864,1.5414364
432,1778360572.560903,1.3918585,1.347684,-0.42514774,-1.2815121,-0.3901528,1.2357059
433,1778360572.5713928,1.1448725,1.2500613,-0.42954078,-1.4530196,-0.26338643,0.9608678
434,1778360572.5814755,0.8759214,1.1543908,-0.39488465,-1.640506,-0.13768533,0.6913561
435,1778360572.591851,0.6045298,1.0792211,-0.3162982,-1.7832513,-0.054594763,0.46445495
436,1778360572.6019957,0.15839316,0.9606094,-0.15375607,-1.8610156,0.01890843,0.32384014
437,1778360572.6120892,0.15839316,0.9606094,-0.15375607,-1.8461019,0.24048327,0.05006739
438,1778360572.622313,-0.114462845,0.9176552,0.04783522,-1.8461019,0.24048327,0.05006739
439,1778360572.6323771,-0.114462845,0.9176552,0.04783522,-1.701226,0.27989802,-0.049002126
440,1778360572.642407,-0.17889395,0.9269294,0.13960074,-1.4945649,0.25859275,-0.13954954
441,1778360572.6525557,-0.23990828,0.9498709,0.2328306,-1.167529,0.19574219,-0.2311622
442,1778360572.6632762,-0.12324891,0.9693954,0.319715,-0.37816858,0.14034848,-0.49428234
443,1778360572.673792,-0.12324891,0.9693954,0.319715,-0.37816858,0.14034848,-0.49428234
444,1778360572.6838293,-0.044662476,0.97378844,0.3328941,-0.07669898,0.24261379,-0.70733505
445,1778360572.694247,0.14082102,1.0338265,0.3436326,0.3685812,0.6506098,-1.1526153
446,1778360572.7045538,0.2853029,1.0640897,0.32508424,0.5432845,1.043692,-1.4317143
447,1778360572.7148776,0.41074833,1.1070436,0.3436326,0.6412887,1.4058816,-1.6948345
448,1778360572.72523,0.50690687,1.1827015,0.3943965,0.77231616,1.7531576,-1.9270619
449,1778360572.7356172,0.5801241,1.2822767,0.47395915,0.9289099,1.9012293,-2.0250661
450,1778360572.74613,0.8295506,1.4653198,0.6428468,1.2420974,1.8916419,-1.9792598
451,1778360572.7565303,1.2366381,1.581979,0.8254016,1.7321187,1.6828502,-1.9121482
452,1778360572.766759,1.713526,1.6693515,0.9518233,2.5214791,1.3355743,-1.8908429
453,1778360572.776786,2.080588,1.7215798,0.9469421,3.1744857,1.1001511,-1.9654114
454,1778360572.7868216,2.4622936,1.8035831,0.8092938,3.5665026,0.95953625,-2.0602198
455,1778360572.7971852,2.7351494,1.8431203,0.64479923,3.7593155,0.8146604,-2.1912472
456,1778360572.8076136,3.15444,1.7967494,0.33435842,3.624027,0.590955,-2.609896
457,1778360572.8176544,3.3008742,1.7220681,0.17620933,3.2149656,0.5281044,-3.0658288
458,1778360572.827697,3.3443165,1.5824672,0.051740136,2.755837,0.55367076,-3.4961953
459,1778360572.8381999,3.2052038,1.3686731,0.03807293,2.12094,0.63995713,-4.036284
460,1778360572.8482826,2.9050133,1.0963051,0.0776102,1.6266576,0.7901593,-4.335623
461,1778360572.8584077,2.565286,0.7438865,0.12935033,0.8586025,1.1896331,-4.481564
462,1778360572.8684402,2.31049,0.49982923,0.21477039,0.47297704,1.5102775,-4.4357576
463,1778360572.8784592,2.0683851,0.2962855,0.30946457,0.29401276,1.6849808,-4.38569
464,1778360572.8889737,1.8824136,0.15326795,0.3577879,0.1960085,1.7851156,-4.3441453
465,1778360572.8992755,1.6949776,0.011226633,0.3734076,0.17789903,1.798964,-4.3292313
466,1778360572.909479,1.3552499,-0.2328306,0.36559775,0.20133483,1.7915071,-4.2812943
467,1778360572.9195988,1.1150976,-0.3900035,0.3612047,0.2428801,1.7712672,-4.182225
468,1778360572.929663,0.89154106,-0.5261874,0.36266908,0.3163833,1.7659408,-4.00113
469,1778360572.9400237,0.7485236,-0.6208816,0.36901456,0.42077914,1.7776587,-3.813644
470,1778360572.9500475,0.62600684,-0.71167094,0.38316986,0.5880255,1.7744629,-3.599526
471,1778360572.9604416,0.4087959,-0.83077085,0.3900035,1.0535457,1.686046,-3.1744857
472,1778360572.9704635,0.31312546,-0.88055855,0.3607166,1.3752553,1.5550185,-2.9198875
473,1778360572.9808996,0.20866893,-0.96256185,0.27724904,1.8737987,1.2599406,-2.5395885
474,1778360572.9914134,0.20866893,-0.96256185,0.27724904,1.8737987,1.2599406,-2.5395885
475,1778360573.0019026,0.14228538,-1.027481,0.06687169,2.3702116,0.79228985,-2.0836556
476,1778360573.0119548,0.10665302,-1.0577441,-0.1786499,2.4575632,0.50253814,-1.7502282
477,1778360573.0221105,0.06760386,-1.0650659,-0.32459614,2.3126874,0.42903492,-1.5755249
478,1778360573.0322466,-0.024649782,-1.0665302,-0.511544,1.9494325,0.43436125,-1.3475585
479,1778360573.0423994,-0.088104665,-1.0543274,-0.5876899,1.4604764,0.54301816,-1.0759163
480,1778360573.052678,-0.088104665,-1.0543274,-0.5876899,1.4604764,0.54301816,-1.0759163
481,1778360573.0628052,-0.088104665,-1.0543274,-0.5876899,1.0567415,0.6708498,-0.82557935
482,1778360573.072861,-0.17450093,-1.0352908,-0.60916686,1.0567415,0.6708498,-0.82557935
483,1778360573.0831337,-0.5015376,-0.9303462,-0.70971847,-0.17257272,1.0905637,0.5305013
484,1778360573.0935774,-0.6289356,-0.878118,-0.7643873,-0.17257272,1.0905637,0.5305013
485,1778360573.1036453,-0.7094744,-0.8073414,-0.8122225,-0.6838993,0.9371657,1.6990955
486,1778360573.1138468,-0.48542988,-0.42514774,-0.78488815,-1.4679333,-0.15686007,3.955324
487,1778360573.1238627,-0.48542988,-0.42514774,-0.78488815,-1.4679333,-0.15686007,3.955324
488,1778360573.1340444,0.2403964,-0.21574661,-0.6028214,-1.8098829,-0.7267761,4.839493
489,1778360573.144267,1.7062042,0.39634898,-0.20256752,-2.0154788,-1.0399636,5.15055
490,1778360573.15439,1.7062042,0.39634898,-0.20256752,-2.1038957,-1.0793784,5.063198
491,1778360573.1647804,2.2323916,0.9679311,0.16547081,-2.295643,-0.1909485,4.4432144
492,1778360573.174915,2.1303756,1.1251038,0.38609856,-2.1614199,0.27244118,4.377168
493,1778360573.1851377,2.1303756,1.1251038,0.38609856,-2.1614199,0.27244118,4.377168
494,1778360573.1954331,2.0991364,1.461903,0.7394935,-1.2452931,0.20213377,4.748945
495,1778360573.2056663,2.0991364,1.461903,0.7394935,-1.2452931,0.20213377,4.748945
496,1778360573.2160285,2.5394156,1.6922929,0.6252747,0.16937692,-0.423176,4.4346924
497,1778360573.226446,2.5086644,1.7523311,0.45248213,0.5741771,-0.47963494,3.9009955
498,1778360573.2368438,2.2821794,1.7494024,0.24161668,0.739293,-0.28682223,3.3598416
499,1778360573.2469635,2.05423,1.6966859,0.07858644,0.70520455,-0.025832644,2.9752812
500,1778360573.2573555,1.6739886,1.6068729,-0.08395569,0.49641284,0.3448791,2.4692812
501,1778360573.2675858,1.3318204,1.5331676,-0.12398108,0.31212226,0.47058022,2.1262662
502,1778360573.2779267,1.0047837,1.4448189,-0.111290105,0.19281273,0.42477387,1.8674072
503,1778360573.2881517,0.71045065,1.3842927,-0.06199054,0.14913692,0.2777675,1.7214661
504,1778360573.2986116,0.53765815,1.3525653,-0.014643434,0.16298534,0.12863058,1.6575502
505,1778360573.308877,0.4053791,1.3100992,0.059549972,0.22796641,-0.040746335,1.5883081
506,1778360573.319041,0.4053791,1.3100992,0.059549972,0.22796641,-0.040746335,1.5883081
507,1778360573.3292823,0.4053791,1.3100992,0.059549972,0.22796641,-0.040746335,1.5883081
508,1778360573.339748,0.277005,1.2315128,0.26504618,0.6210487,-0.047137916,1.1856384
509,1778360573.350087,0.26675457,1.2095478,0.32459614,0.79255617,0.035952646,1.0109352
510,1778360573.3604114,0.27212384,1.202226,0.38756293,1.0450237,0.11265163,0.75633717
511,1778360573.3704417,0.21989559,1.1675699,0.44027928,1.3784511,0.19680746,0.42717072
512,1778360573.3809044,0.15790504,1.1158297,0.4373506,1.6021565,0.3214433,0.20559588
513,1778360573.391049,0.11543907,1.0689708,0.45736328,1.7864472,0.4833634,0.045806337
514,1778360573.4011664,0.12715383,1.0357789,0.50715095,1.9377146,0.60693395,-0.061785292
515,1778360573.4113555,0.18865626,0.9786696,0.6262509,2.2157483,0.748614,-0.23755379
516,1778360573.4217458,0.3053156,0.9401085,0.7438865,2.4980433,0.8689888,-0.40906125
517,1778360573.43199,0.40733153,0.92448884,0.86884385,2.8453193,1.0383657,-0.61359185
518,1778360573.4424753,0.48542988,0.92595315,0.94303715,3.1489193,1.1917636,-0.76059824
519,1778360573.452517,0.5869577,0.9391323,1.0211354,3.5462627,1.3899027,-0.9289099
520,1778360573.463179,0.7480355,0.98452693,1.1334019,4.092743,1.5411701,-1.0045437
521,1778360573.473398,1.0140579,1.0987457,1.274467,4.634962,1.5166692,-0.96512884
522,1778360573.483792,1.325963,1.2232149,1.3676969,5.1739855,1.4005554,-0.8884299
523,1778360573.494304,1.9658812,1.4096746,1.3633038,5.992108,1.1949595,-0.89482147
524,1778360573.5048394,2.7390544,1.6205401,1.0523748,6.62594,0.9190562,-1.3603417
525,1778360573.5148594,3.2754922,1.7816179,0.7668279,6.4629545,0.77204984,-1.8780597
526,1778360573.5249112,3.2754922,1.7816179,0.7668279,6.4629545,0.77204984,-1.8780597
527,1778360573.5354168,3.6508524,1.6273737,0.4075756,5.569198,0.7731151,-3.0967214
528,1778360573.54585,3.4312007,1.3784354,0.24015234,4.7670546,0.89242464,-3.8477323
529,1778360573.556075,2.941622,1.0474937,0.19768637,3.6400058,1.15661,-4.4357576
530,1778360573.5662766,2.6336217,0.81319875,0.26992732,2.9060392,1.3270522,-4.6370926
531,1778360573.5764012,2.2494757,0.48128092,0.5008055,2.0389147,1.5763239,-4.7627935
532,1778360573.5864763,2.02836,0.29726174,0.6745742,1.6618112,1.6966987,-4.7574673
533,1778360573.5968163,1.8399476,0.13716017,0.84883106,1.4583459,1.7595493,-4.7169876
534,1778360573.6070313,1.6100457,-0.14497001,1.0645777,1.4860427,1.8010945,-4.622179
535,1778360573.617055,1.4572659,-0.34656128,1.0977695,1.6799208,1.8298566,-4.5401535
536,1778360573.6275752,1.3191295,-0.48128092,1.0582323,2.0101526,1.8458356,-4.4623895
537,1778360573.6380723,1.159516,-0.6125837,0.9513352,2.3425148,1.8330524,-4.3271008
538,1778360573.6483998,1.0140579,-0.71996886,0.80441266,2.618418,1.7978988,-4.177964
539,1778360573.6584592,0.88275504,-0.8019721,0.63357264,2.8059044,1.7297218,-4.000065
540,1778360573.668873,0.76511943,-0.8683557,0.4720067,2.884734,1.6636755,-3.8115134
541,1778360573.6789668,0.6616392,-0.9313224,0.34265637,2.868755,1.6093471,-3.6144395
542,1778360573.6891732,0.5635282,-0.976229,0.24552159,2.808035,1.5954986,-3.402452
543,1778360573.6994665,0.4834774,-1.0055158,0.18060236,2.7462497,1.6029555,-3.2213573
544,1778360573.7099571,0.35412705,-1.0411482,0.07516963,2.557698,1.7286565,-2.711096
545,1778360573.7202163,0.27310005,-1.048958,0.008297946,2.557698,1.7286565,-2.711096
546,1778360573.730293,0.14716652,-1.0294335,-0.08297946,2.476738,1.8277261,-2.460759
547,1778360573.7404187,0.0061014313,-0.99087244,-0.18548352,2.3755379,1.9108167,-2.1784642
548,1778360573.7506368,-0.08908089,-0.96402615,-0.28213018,2.2455757,1.9512967,-1.9270619
549,1778360573.7608552,-0.2272173,-0.9283937,-0.4217309,1.9409103,1.9662104,-1.5201312
550,1778360573.7711444,-0.34778157,-0.8932495,-0.51544887,1.6053523,1.9289261,-1.1046784
551,1778360573.7816033,-0.46151224,-0.86249834,-0.5603554,1.2410321,1.8724672,-0.6189182
552,1778360573.7918003,-0.6074585,-0.7804951,-0.5847612,0.6178529,1.8969682,0.51132655
553,1778360573.8018403,-0.6074585,-0.7804951,-0.5847612,0.6178529,1.8969682,0.51132655
554,1778360573.8119862,-0.5523015,-0.61795294,-0.63015586,-0.021305272,1.9481009,2.1923125
555,1778360573.8221776,-0.5523015,-0.61795294,-0.63015586,-0.021305272,1.9481009,2.1923125
556,1778360573.8324523,-0.36291313,-0.50568664,-0.6272271,-0.32170963,1.7616798,3.0413277
557,1778360573.8426442,0.38439015,-0.28798756,-0.48713827,-0.7648593,1.2482227,4.1438756
558,1778360573.8528442,0.8251576,-0.1313028,-0.3660859,-0.88523406,1.0500836,4.3878207
559,1778360573.86311,0.8251576,-0.1313028,-0.3660859,-0.88523406,1.0500836,4.3878207
560,1778360573.8733835,1.5290186,0.22990192,-0.08151512,-0.83942777,0.7816372,4.6860948
561,1778360573.8834443,1.5290186,0.22990192,-0.08151512,-0.83942777,0.7816372,4.6860948
562,1778360573.893802,1.7828381,0.46078008,0.06296677,-0.44954127,0.97444993,4.830971
563,1778360573.9042604,1.9077955,0.63015586,0.084931925,-0.13741902,1.0926942,4.839493
564,1778360573.9143245,2.0176213,0.76975656,0.08346757,0.12250532,1.0522141,4.7862296
565,1778360573.9244382,2.0879097,0.89032084,0.067847915,0.38136438,0.92331725,4.671181
566,1778360573.934818,2.0879097,0.89032084,0.067847915,0.38136438,0.92331725,4.671181
567,1778360573.9450314,2.1215897,0.9772052,-0.014643434,0.79894775,0.667654,4.2972736
568,1778360573.9552546,2.088398,0.9938011,-0.041977845,0.9960215,0.52277815,4.053328
569,1778360573.9657662,2.1269588,1.0470055,-0.08297946,1.228249,0.37896755,3.7060523
570,1778360573.9761553,2.0766833,1.0679946,-0.15717287,1.228249,0.37896755,3.7060523
571,1778360573.9864745,1.8985213,1.0787331,-0.24503349,1.426388,0.30013803,2.9230835
572,1778360573.9969018,1.7501346,1.0670183,-0.30604777,1.3837775,0.3065296,2.690856
573,1778360574.0070884,1.5290186,1.0382195,-0.353883,1.2399669,0.40559912,2.420279
574,1778360574.017376,1.3669646,1.0279691,-0.31776255,1.1206573,0.48655918,2.287121
575,1778360574.0275319,1.3240106,1.0240642,-0.25381953,1.0514152,0.5323655,2.1763337
576,1778360574.0379126,1.3220581,1.027481,-0.21037734,1.05035,0.5920203,1.9291924
577,1778360574.0481694,1.2551864,1.0460293,-0.1849954,1.0695246,0.65167505,1.6820513
578,1778360574.0582352,1.1233956,1.0792211,-0.13520771,1.11107,0.6964161,1.3251879
579,1778360574.0683138,1.0247964,1.0967933,-0.08590815,1.1877689,0.708134,1.0226531
580,1778360574.0786736,0.916435,1.0967933,-0.052716363,1.2868385,0.70706874,0.703074
581,1778360574.088916,0.78806084,1.0704352,-0.039537273,1.3731248,0.703873,0.40160438
582,1778360574.0989358,0.6884855,1.0343146,-0.03807293,1.4178659,0.7315698,0.1757685
583,1778360574.108963,0.57280236,0.9864794,-0.035632357,1.4253228,0.8167909,-0.09054741
584,1778360574.1189907,0.45370242,0.92497694,0.018060237,1.4199964,0.94781834,-0.35366753
585,1778360574.12952,0.3790209,0.88934463,0.07272906,1.4658028,1.0564752,-0.50919604
586,1778360574.140037,0.36681804,0.86298645,0.11861181,1.5265228,1.1310437,-0.59654766
587,1778360574.150466,0.45760733,0.8171036,0.24308102,1.8439714,1.2887027,-0.9001478
588,1778360574.1609004,0.45760733,0.8171036,0.24308102,1.8439714,1.2887027,-0.9001478
589,1778360574.171405,0.5464442,0.8166155,0.2660224,2.0346537,1.334509,-1.079112
590,1778360574.1819034,0.5464442,0.8166155,0.2660224,2.1720726,1.3654016,-1.216531
591,1778360574.192261,0.6157564,0.8439499,0.29140437,2.3212094,1.374989,-1.3709943
592,1778360574.202712,0.88275504,0.9952655,0.5227706,2.8431888,1.3547491,-1.676725
593,1778360574.21287,1.078489,1.0884954,0.6457755,3.2501194,1.3323785,-1.7406408
594,1778360574.2228997,1.078489,1.0884954,0.6457755,3.2501194,1.3323785,-1.7406408
595,1778360574.232956,1.346952,1.1465809,0.6711574,3.624027,1.3611406,-1.7864472
596,1778360574.2432191,1.9541665,1.3061944,0.5091034,4.2962084,1.471928,-1.8418409
597,1778360574.2535024,2.4315424,1.5385369,0.3431445,4.3792987,1.2812458,-1.9526283
598,1778360574.263752,2.975302,1.6649586,0.20549619,4.0543933,0.9190562,-2.3446453
599,1778360574.273843,3.304779,1.6591012,0.19134088,3.5728943,0.728374,-2.9166918
600,1778360574.2841818,3.304779,1.6591012,0.19134088,3.5728943,0.728374,-2.9166918
601,1778360574.294458,3.4092357,1.5790504,0.24600971,3.1510499,0.7219824,-3.4258878
602,1778360574.3047907,3.0929375,1.1485333,0.4002539,2.206161,1.0660626,-4.2248354
603,1778360574.3152053,2.7766392,0.84102124,0.46712556,1.7949692,1.3217258,-4.3654504
604,1778360574.325247,2.5345345,0.66871685,0.50568664,1.6021565,1.411208,-4.3835597
605,1778360574.335499,2.2704647,0.4983649,0.55108124,1.4168006,1.3856417,-4.335623
606,1778360574.3456397,2.2704647,0.4983649,0.55108124,1.2942953,1.3313133,-4.2780986
607,1778360574.355662,1.9937036,0.18206671,0.6145361,1.2101395,1.3153343,-4.205661
608,1778360574.3658547,1.7940649,-0.023429496,0.6067263,1.1909647,1.3398353,-4.157724
609,1778360574.3759005,1.5578175,-0.1615659,0.5857374,1.208009,1.3409007,-4.132158
610,1778360574.386341,1.3054622,-0.27871338,0.5349735,1.2250532,1.3227911,-4.0437407
611,1778360574.3964338,1.1307173,-0.3612047,0.4846977,1.2378364,1.3291827,-3.9254966
612,1778360574.4069183,0.88324314,-0.48128092,0.400742,1.2389016,1.3238564,-3.6538544
613,1778360574.4170582,0.77097684,-0.5374141,0.353883,1.2431626,1.3142691,-3.5015216
614,1778360574.4273734,0.63918597,-0.58329684,0.30360723,1.2634027,1.2844416,-3.293795
615,1778360574.4375799,0.5361938,-0.6164886,0.23331872,1.3134701,1.2588753,-3.0860689
616,1778360574.448047,0.46248847,-0.6433349,0.16644704,1.3528848,1.2546142,-2.9188223
617,1778360574.4580731,0.37218732,-0.6667644,0.067359805,1.4008217,1.2354395,-2.7132266
618,1778360574.4684274,0.27456442,-0.6887296,-0.06199054,1.4082786,1.1534142,-2.4831295
619,1778360574.4784703,0.17987019,-0.70923036,-0.16107778,1.3763206,1.0564752,-2.2935126
620,1778360574.4885123,0.06955632,-0.71948075,-0.24698594,1.3273185,0.9488836,-2.064481
621,1778360574.4985309,-0.009030119,-0.72631437,-0.3104408,1.2825774,0.82957405,-1.834384
622,1778360574.5085788,-0.08029483,-0.72875494,-0.36755022,1.2250532,0.69215506,-1.5712639
623,1778360574.518889,-0.13252309,-0.7150877,-0.43588626,1.1238531,0.453536,-1.1014826
624,1778360574.5290377,-0.10421244,-0.6867771,-0.47786412,1.0205226,0.19361167,-0.63809294
625,1778360574.5393565,-0.05296042,-0.6740861,-0.5222825,0.9086699,-0.032224227,-0.31105697
626,1778360574.549377,-0.035876416,-0.6662763,-0.5520575,0.7904256,-0.21118851,-0.09800425
627,1778360574.5597727,-0.05588911,-0.6550496,-0.58183247,0.62317926,-0.40080544,0.1288969
628,1778360574.5697925,-0.09396204,-0.6242984,-0.6033095,0.18855166,-0.67883927,0.60187393
629,1778360574.579902,-0.06955632,-0.59110665,-0.5559624,-0.18642114,-0.7779088,0.9821731
630,1778360574.5903885,-0.046614934,-0.54083085,-0.46419686,-0.18642114,-0.7779088,0.9821731
631,1778360574.600907,-0.011470691,-0.49543622,-0.37096703,-0.78083825,-0.7661909,1.7544892
632,1778360574.610955,0.04515059,-0.45004156,-0.26553428,-0.9672594,-0.7033403,2.1358535
633,1778360574.6214108,0.19500175,-0.36266908,-0.07565775,-1.1046784,-0.5510076,2.8186877
634,1778360574.631696,0.3995217,-0.27041543,0.023429496,-1.0610026,-0.463656,3.3310795
635,1778360574.6422045,0.6113634,-0.11373068,0.1010397,-0.95980257,-0.48496127,3.6101785
636,1778360574.6529698,1.1775762,0.26797485,0.255772,-0.4655202,-0.8301067,4.230162
637,1778360574.6634274,1.1775762,0.26797485,0.255772,-0.4655202,-0.8301067,4.230162
638,1778360574.6736746,1.7271931,0.6574902,0.3577879,0.2109222,-1.00481,4.489021
639,1778360574.6841743,1.7271931,0.6574902,0.3577879,0.2109222,-1.00481,4.489021
640,1778360574.694581,2.0225024,0.9127741,0.3841461,0.56885076,-0.9781783,4.542284
641,1778360574.7047749,2.4339828,1.228096,0.24356914,1.0439584,-0.62664133,4.2077913
642,1778360574.71504,2.5374632,1.4360328,-0.010738519,1.0226531,-0.2761696,3.7603807
643,1778360574.7255678,2.5052476,1.5229172,-0.18548352,0.75633717,-0.034354754,3.2618372
644,1778360574.7360141,2.5052476,1.5229172,-0.18548352,0.75633717,-0.034354754,3.2618372
645,1778360574.74624,2.0527656,1.521941,-0.3065359,-0.030892646,0.2862896,2.4234748
646,1778360574.756381,1.7242645,1.4672722,-0.25284332,-0.49960864,0.40559912,2.137984
647,1778360574.7667036,1.517304,1.4243181,-0.16010156,-0.75633717,0.4620581,2.0133483
648,1778360574.7772045,1.517304,1.4243181,-0.16010156,-0.8958867,0.4620581,1.9100177
649,1778360574.7875621,1.2742229,1.3452435,-0.027334413,-0.953411,0.42903492,1.7949692
650,1778360574.7975879,1.1673259,1.2944796,0.011714748,-0.97045517,0.4119907,1.6799208
651,1778360574.8076146,1.0482259,1.2427394,0.035632357,-0.9725857,0.40559912,1.5329144
652,1778360574.8180823,0.88421935,1.1831895,0.043930303,-0.97897726,0.44394863,1.2325101
653,1778360574.8281054,0.728999,1.1294969,0.043930303,-0.993891,0.5089297,1.0013478
654,1778360574.8382835,0.728999,1.1294969,0.043930303,-0.993891,0.5089297,1.0013478
655,1778360574.8485365,0.46151224,1.0279691,0.07907455,-0.97045517,0.6548708,0.58269924
656,1778360574.8588395,0.3448529,0.993313,0.09225364,-0.9108004,0.7166561,0.40160438
657,1778360574.8688846,0.18377511,0.94254905,0.08590815,-0.7765772,0.81892145,0.14487585
658,1778360574.878951,0.047103047,0.88836837,0.055645052,-0.6274403,0.88816357,-0.10972215
659,1778360574.8890007,0.047103047,0.88836837,0.055645052,-0.5081307,0.90627307,-0.31425276
660,1778360574.8990986,-0.10030753,0.8112463,-0.025381953,-0.4452802,0.8753804,-0.44101915
661,1778360574.9091253,-0.12471326,0.7682922,-0.06589546,-0.39414755,0.83916146,-0.5805687
662,1778360574.9194036,-0.13447554,0.7512082,-0.07614586,-0.36218965,0.8551404,-0.7041393
663,1778360574.9297988,-0.09493827,0.76243484,-0.056133166,-0.31851384,0.9648625,-0.83197093
664,1778360574.939821,-0.023673553,0.7814713,-0.053204484,-0.26738116,1.0745847,-0.92145306
665,1778360574.9501016,0.0924977,0.83077085,-0.06687169,-0.21624851,1.2950943,-1.0886995
666,1778360574.9604073,0.22233616,0.87958235,-0.08932495,-0.2109222,1.5624754,-1.2761859
667,1778360574.970641,0.5103237,0.9684192,-0.082003236,-0.2109222,2.1515663,-1.7044219
668,1778360574.9808986,0.62551874,1.057256,-0.029286869,-0.15978955,2.4722106,-2.0197399
669,1778360574.9911907,0.5605995,1.210524,0.08151512,0.017044218,2.6501095,-2.1742032
670,1778360575.0014133,0.67091334,1.3833165,0.24064046,0.3430149,2.4807327,-1.9590198
671,1778360575.0117977,1.4157761,1.5853959,0.45589894,1.2985563,1.6988292,-1.2847079
672,1778360575.0218654,1.4157761,1.5853959,0.45589894,1.2985563,1.6988292,-1.2847079
673,1778360575.0320091,1.9287844,1.7464737,0.48957884,1.7108134,1.2599406,-1.0801773
674,1778360575.0426726,2.4945092,1.9090158,0.50715095,1.9909778,0.8135951,-1.1792469
675,1778360575.0529695,2.9733496,1.9793042,0.49885303,2.1017652,0.5057339,-1.6426365
676,1778360575.0631807,3.1637142,1.7337828,0.36950266,1.8812556,0.49508128,-2.7164223
677,1778360575.0733151,3.1637142,1.7337828,0.36950266,1.8812556,0.49508128,-2.7164223
678,1778360575.0834072,2.9587061,1.4780107,0.2767609,1.6298534,0.73370034,-3.0274792
679,1778360575.0939157,2.6873143,1.2075952,0.2020794,1.3752553,1.0127994,-3.17129
680,1778360575.1041787,1.9878463,0.74339837,0.062478654,0.89482147,1.3259869,-3.236271
681,1778360575.1142783,1.9878463,0.74339837,0.062478654,0.89482147,1.3259869,-3.236271
682,1778360575.124754,1.5714846,0.5095915,0.099087246,0.7020087,1.1789806,-3.0519803
683,1778360575.134835,1.5714846,0.5095915,0.099087246,0.7020087,1.1789806,-3.0519803
684,1778360575.1448936,1.4265146,0.39878955,0.1483868,0.72224873,0.9691236,-2.9433234
685,1778360575.1554084,1.3191295,0.32117933,0.19768637,0.81599194,0.78270245,-2.876212
686,1778360575.1657236,0.9999026,0.13764828,0.1444819,1.2538153,0.27137592,-2.690856
687,1778360575.1760588,0.86371857,0.06589546,0.0370967,1.3102742,0.15313165,-2.5971127
688,1778360575.1865375,0.86371857,0.06589546,0.0370967,1.3102742,0.15313165,-2.5971127
689,1778360575.196814,0.67042524,-0.033679903,-0.12593354,1.1611373,-0.089748465,-2.3861907
690,1778360575.206947,0.60892284,-0.13227904,-0.16303024,0.8532762,-0.24740748,-2.2434452
691,1778360575.2174442,0.59672,-0.20159128,-0.14204131,0.68283397,-0.33262858,-2.1869862
692,1778360575.2274723,0.58939826,-0.2967736,-0.06443111,0.53156656,-0.48070022,-2.1433105
693,1778360575.2374926,0.5879339,-0.3900035,0.01415532,0.47830337,-0.6340982,-2.109222
694,1778360575.248107,0.59672,-0.4837215,0.046858992,0.48789075,-0.7044056,-2.0868514
695,1778360575.2581298,0.6045298,-0.6242984,0.053692598,0.48789075,-0.7044056,-2.0868514
696,1778360575.26852,0.48542988,-0.77805454,0.023429496,0.6008087,-0.5882918,-2.0911126
697,1778360575.2785754,0.48542988,-0.77805454,0.023429496,0.6008087,-0.5882918,-2.0911126
698,1778360575.288997,0.31703037,-0.8639627,-0.05759751,0.6977477,-0.48176548,-1.9813904
699,1778360575.29902,0.078830495,-0.9488945,-0.24161668,0.68496454,-0.69694877,-1.5467628
700,1778360575.309547,0.028066583,-0.95621634,-0.34070393,0.5539371,-0.9334373,-1.2740554
701,1778360575.3200226,0.014887493,-0.92156017,-0.4881145,0.11824426,-1.272191,-0.8266446
702,1778360575.330351,-0.0056133163,-0.8834872,-0.5613316,-0.29827383,-1.3520858,-0.53156656
703,1778360575.3404763,-0.030507157,-0.8395569,-0.6057501,-0.7765772,-1.3861743,-0.18002956
704,1778360575.3507004,-0.00024405724,-0.79269797,-0.614048,-1.1792469,-1.4383723,0.12783164
705,1778360575.3610742,0.010006348,-0.71167094,-0.5930591,-1.6511587,-1.529985,0.55500233
706,1778360575.3714828,-0.027090356,-0.47884035,-0.5276518,-2.1710074,-1.671665,1.2495543
707,1778360575.3815424,0.08517598,-0.24991462,-0.47591165,-2.6216137,-1.8367808,2.0037608
708,1778360575.391714,0.44052333,0.05515694,-0.32410803,-2.985934,-1.9656777,2.6152222
709,1778360575.4017687,0.86567104,0.32069123,-0.11324256,-3.337471,-2.0817914,3.2256184
710,1778360575.4118454,1.3205938,0.59110665,0.12544543,-3.4738247,-2.0594208,3.47489
711,1778360575.4218702,1.910236,1.0440769,0.4949481,-3.4205616,-1.8026924,3.4376059
712,1778360575.4321933,2.0439794,1.3608632,0.6428468,-3.2256184,-1.538507,3.2469237
713,1778360575.4425569,2.0395863,1.5619664,0.69458693,-3.046654,-1.3211932,3.1201572
714,1778360575.452956,1.8965688,1.7796655,0.67799103,-2.6194832,-1.0122668,2.965694
715,1778360575.4631946,1.7276812,1.8582519,0.6975156,-2.1720726,-1.0783131,2.8708856
716,1778360575.473709,1.6539761,1.8768003,0.66871685,-1.8737987,-1.2125363,2.8048391
717,1778360575.4837441,1.6100457,1.8514184,0.60819066,-1.5148048,-1.380848,2.6397233
718,1778360575.4939096,1.6100457,1.8514184,0.60819066,-1.2463585,-1.4692649,2.4074957
719,1778360575.5039895,1.5080298,1.7894278,0.4729829,-1.2463585,-1.4692649,2.4074957
720,1778360575.5143423,1.0892274,1.5238935,0.12544543,-1.1941606,-1.3009533,1.9046913
721,1778360575.5247166,0.83736044,1.3759948,0.034168016,-1.3976259,-1.10601,1.6895081
722,1778360575.5350118,0.6445552,1.2715383,0.021965152,-1.5361102,-1.0058752,1.6117439
723,1778360575.5455468,0.4556549,1.1407236,0.05418071,-1.6586155,-0.9472857,1.5531543
724,1778360575.5555995,0.34582913,1.0455412,0.10055158,-1.6831166,-0.94515514,1.5148048
725,1778360575.565929,0.20964517,0.9220483,0.16888762,-1.5978955,-1.0229194,1.438106
726,1778360575.5764253,0.1466784,0.8336995,0.22990192,-1.4359754,-1.0932268,1.3379711
727,1778360575.5869522,0.11836776,0.7980672,0.26455808,-1.2729901,-1.1582079,1.2090743
728,1778360575.5974011,0.052472305,0.77414954,0.29384494,-1.0439584,-1.2370374,0.998152
729,1778360575.607425,-0.0134231495,0.76194674,0.30360723,-0.8596678,-1.2871048,0.83197093
730,1778360575.617784,-0.078830495,0.7487676,0.2962855,-0.606135,-1.2711258,0.60187393
731,1778360575.6281018,-0.12520137,0.7482795,0.27480847,-0.42930126,-1.150751,0.3952128
732,1778360575.638531,-0.1632743,0.7409578,0.22209209,-0.29827383,-0.9696562,0.18642114
733,1778360575.6487796,-0.14374973,0.75267255,0.14985114,-0.23542327,-0.78962666,-0.05006739
734,1778360575.6592906,-0.122760795,0.7814713,0.10348027,-0.22370537,-0.6990793,-0.26844645
735,1778360575.669485,-0.04905551,0.8454143,0.060038086,-0.21731378,-0.621315,-0.64022344
736,1778360575.6795578,0.0017084008,0.9220483,0.036608588,-0.234358,-0.5946834,-0.95021516
737,1778360575.6898165,0.0017084008,0.9220483,0.036608588,-0.2727075,-0.53609395,-1.2335753
738,1778360575.699961,0.17352471,1.0841023,0.05759751,-0.31212226,-0.4221107,-1.5062828
739,1778360575.7104042,0.25601605,1.1685461,0.09811102,-0.33342752,-0.27830014,-1.7257271
740,1778360575.7208512,0.2975058,1.2925272,0.1986626,-0.30786118,-0.015180007,-1.9824556
741,1778360575.7313697,0.41758195,1.4672722,0.38170552,-0.06711161,0.17656745,-2.1262662
742,1778360575.7415395,0.52252656,1.6063848,0.4471129,0.2226401,0.23196116,-2.2285316
743,1778360575.7516973,0.6460195,1.7733198,0.4368625,0.5741771,0.25859275,-2.32334
744,1778360575.7620196,0.77048874,1.9090158,0.3904916,0.78083825,0.27350643,-2.356363
745,1778360575.7722373,1.3464638,2.220921,0.39195594,1.0524805,0.29055065,-2.3499715
746,1778360575.7824218,1.6588572,2.2140872,0.4471129,1.0524805,0.29055065,-2.3499715
747,1778360575.7924416,1.6588572,2.2140872,0.4471129,1.1856384,0.38109806,-2.4309316
748,1778360575.8027837,1.888271,2.1560016,0.45004156,1.3720596,0.51106024,-2.5449147
749,1778360575.8132987,2.0825405,1.8987653,0.2689511,1.6682029,0.66339296,-2.8048391
750,1778360575.8237476,2.0620399,1.7572123,0.16058967,1.6490281,0.66019714,-2.8794076
751,1778360575.833871,2.0620399,1.7572123,0.16058967,1.6490281,0.66019714,-2.8794076
752,1778360575.8439074,1.9590476,1.5648952,0.059549972,1.5116091,0.7166561,-2.957172
753,1778360575.8539565,1.6461661,1.1661055,-0.033679903,1.0897647,1.0948247,-2.9060392
754,1778360575.8642027,1.364036,0.9264413,-0.0102504045,0.9044088,1.2961595,-2.7217486
755,1778360575.8742456,1.2219946,0.82491344,0.022941383,0.8596678,1.3526185,-2.5470455
756,1778360575.8844671,1.1019185,0.71118283,0.049787678,0.87671196,1.3590101,-2.3403842
757,1778360575.8949668,1.1019185,0.71118283,0.049787678,0.87671196,1.3590101,-2.3403842
758,1778360575.9049845,0.9413288,0.562796,0.045882765,0.9960215,1.233309,-2.0495672
759,1778360575.9151974,0.80368054,0.47591165,0.019036464,1.1334405,1.0532794,-1.818405
760,1778360575.9257202,0.7250941,0.37145513,-0.041977845,1.2101395,0.9606015,-1.6724639
761,1778360575.9360795,0.6772589,0.30458343,-0.11373068,1.2112048,0.9190562,-1.5478281
762,1778360575.9464316,0.6772589,0.30458343,-0.11373068,1.2112048,0.9190562,-1.5478281
763,1778360575.9567673,0.59086263,0.14350566,-0.24991462,1.0247836,0.86792356,-1.4104091
764,1778360575.9669275,0.5786598,-0.019036464,-0.2933568,0.7105309,0.75394034,-1.3273185
765,1778360575.977439,0.5859815,-0.14399378,-0.25528386,0.5273055,0.6303698,-1.3102742
766,1778360575.9879675,0.5767073,-0.23331872,-0.16693515,0.44741073,0.4418181,-1.3060132
767,1778360575.998233,0.5981843,-0.2923806,-0.09811102,0.45486757,0.2830938,-1.3177311
768,1778360576.0083017,0.63918597,-0.36169282,-0.07565775,0.5081307,0.17337166,-1.3560807
769,1778360576.0185177,0.57329047,-0.447601,-0.15570852,0.5986782,0.11371689,-1.4839122
770,1778360576.0286305,0.40733153,-0.4549227,-0.22258021,0.5816339,0.08921583,-1.5254575
771,1778360576.03892,0.19353738,-0.41538543,-0.30165476,0.4836297,-0.030093698,-1.4732596
772,1778360576.0491226,0.038316987,-0.35583547,-0.3612047,0.351537,-0.24314642,-1.3486238
773,1778360576.0592341,-0.07785426,-0.27432033,-0.38219365,0.1757685,-0.57976973,-1.1440932
774,1778360576.069754,-0.019280521,0.09176553,-0.3236199,-0.10865689,-1.1496857,-0.779773
775,1778360576.0799088,-0.019280521,0.09176553,-0.3236199,-0.3632549,-1.4927007,-0.47723812
776,1778360576.0900466,0.09835507,0.26211748,-0.27920148,-0.69881296,-1.7504945,-0.17683376
777,1778360576.1002717,0.1598575,0.3802412,-0.26358184,-0.9608678,-1.8676735,-0.010652636
778,1778360576.1103919,0.3214234,0.63113207,-0.033191785,-1.7598156,-2.0285282,0.4101265
779,1778360576.120895,0.3214234,0.63113207,-0.033191785,-1.7598156,-2.0285282,0.4101265
780,1778360576.1312158,0.35656762,0.80294836,0.2362474,-2.0538282,-1.8804567,0.82984036
781,1778360576.1414142,0.35656762,0.80294836,0.2362474,-2.0538282,-1.8804567,0.82984036
782,1778360576.151649,0.3526627,0.8751893,0.3236199,-2.0112178,-1.8112144,1.0237184
783,1778360576.1618166,0.31068486,1.1197346,0.4886026,-1.3134701,-1.7377113,1.6628765
784,1778360576.1721253,0.40489095,1.2593354,0.42661208,-0.6860298,-1.8506292,2.1113524
785,1778360576.1826212,0.5962319,1.3969837,0.30360723,-0.28762117,-1.9933746,2.3265357
786,1778360576.1927552,0.5962319,1.3969837,0.30360723,-0.28762117,-1.9933746,2.3265357
787,1778360576.203273,0.8095379,1.551716,0.10201593,0.10439584,-2.2991052,2.391517
788,1778360576.2135506,0.9476743,1.6234688,-0.08005078,0.24501064,-2.6708822,2.2892516
789,1778360576.2236853,0.86664724,1.5370725,-0.5130083,-0.35366753,-3.461308,1.7704681
790,1778360576.2338672,0.694831,1.4223657,-0.5623079,-0.9800426,-3.4463942,1.6149397
791,1778360576.243924,0.694831,1.4223657,-0.5623079,-0.9800426,-3.4463942,1.6149397
792,1778360576.2542834,0.37755656,1.129985,-0.35241866,-2.129462,-3.2695603,1.579786
793,1778360576.2643094,0.21647878,0.9669548,-0.049787678,-2.5086958,-3.280213,1.7033565
794,1778360576.274527,0.11836776,0.80343646,0.14545812,-2.5150874,-3.3537164,1.8492976
795,1778360576.2847424,0.11836776,0.80343646,0.14545812,-2.5150874,-3.3537164,1.8492976
796,1778360576.2947676,-0.060770255,0.5735345,0.38463423,-1.9132135,-3.6946006,2.2732725
797,1778360576.3048432,-0.06272271,0.49592432,0.39878955,-1.4700638,-3.8032575,2.4959128
798,1778360576.3152716,0.037828874,0.42807645,0.36315718,-1.038632,-3.760647,2.64718
799,1778360576.3256989,0.14716652,0.4275883,0.28994003,-0.6636593,-3.5997922,2.6290708
800,1778360576.336122,0.12080834,0.44906533,0.14643435,-0.4069307,-3.3824785,2.5086958
801,1778360576.3462732,0.048567392,0.45785138,-0.0102504045,-0.3131875,-3.093792,2.3829947
802,1778360576.356293,-0.015375607,0.46419686,-0.117635585,-0.35047174,-2.875413,2.3180137
803,1778360576.3664563,-0.107629254,0.53009236,-0.21574661,-0.5539371,-2.5462465,2.22214
804,1778360576.3764794,-0.14277348,0.5964759,-0.20598431,-0.71372664,-2.379,2.1401145
805,1778360576.3865135,-0.16132185,0.681896,-0.11519502,-0.8937562,-2.1212063,2.0112178
806,1778360576.3966908,-0.16132185,0.681896,-0.11519502,-0.8937562,-2.1212063,2.0112178
807,1778360576.4067066,-0.093473926,0.81368685,0.17132819,-1.0056089,-1.570465,1.6905735
808,1778360576.4170513,0.012446919,0.9308343,0.44027928,-0.82557935,-1.1219889,1.3763206
809,1778360576.4270732,0.0959145,1.0299215,0.64821607,-0.47510758,-0.67883927,1.0641984
810,1778360576.4374664,0.17254847,1.1070436,0.7726852,-0.0,-0.14088112,0.71585715
811,1778360576.4482427,0.23209843,1.2075952,0.8122225,0.4900213,0.39707702,0.3664507
812,1778360576.4582934,0.25601605,1.3183973,0.788793,0.86286354,0.78909403,0.09800425
813,1778360576.468315,0.29213652,1.4379853,0.72777873,1.25275,1.1736542,-0.1960085
814,1778360576.4784105,0.38683072,1.7113295,0.6804316,1.6692681,1.503886,-0.4420844
815,1778360576.4888818,0.5703618,1.9295166,0.6867771,2.0602198,1.5944333,-0.55606765
816,1778360576.499048,0.5703618,1.9295166,0.6867771,2.0602198,1.5944333,-0.55606765
817,1778360576.5092533,1.1473131,2.3048768,0.5095915,2.7079003,1.5678017,-0.91186565
818,1778360576.5193303,1.5324354,2.4879196,0.28554696,2.808035,1.4985596,-1.2804469
819,1778360576.5293672,1.7813739,2.5899355,0.12202863,2.6194832,1.4889723,-1.5563502
820,1778360576.5394611,2.0220141,2.6548548,0.11177822,2.3382537,1.552888,-1.8088176
821,1778360576.5494807,2.2768102,2.6406994,0.18548352,2.1433105,1.625326,-2.0985694
822,1778360576.559982,2.416899,2.55772,0.20305562,2.0463715,1.6636755,-2.368081
823,1778360576.5700006,2.463758,2.3429496,0.18011424,1.9217356,1.686046,-2.7696855
824,1778360576.5803893,2.3758974,2.1198812,0.17425688,1.8535588,1.6551534,-3.0519803
825,1778360576.5908983,2.2201886,1.8636211,0.13569583,1.7843165,1.6018902,-3.2543805
826,1778360576.6014013,2.0644803,1.6210282,0.058085624,1.6777903,1.5944333,-3.406713
827,1778360576.6118848,1.8233517,1.3013133,-0.052716363,1.4540849,1.6615449,-3.5611763
828,1778360576.6221917,1.8233517,1.3013133,-0.052716363,1.4540849,1.6615449,-3.5611763
829,1778360576.6324043,0.95011485,0.4724948,-0.14789869,0.392017,2.1430442,-3.4003215
830,1778360576.6424587,0.95011485,0.4724948,-0.14789869,0.392017,2.1430442,-3.4003215
831,1778360576.6527286,0.7060576,0.16400647,-0.0034168016,0.16298534,2.114282,-2.9411929
832,1778360576.6632154,0.6577343,-0.033679903,0.102504045,0.25885907,1.8948377,-2.6525064
833,1778360576.6735098,0.66115105,-0.17084008,0.15619664,0.40906125,1.718004,-2.5172179
834,1778360576.683659,0.66115105,-0.17084008,0.15619664,0.40906125,1.718004,-2.5172179
835,1778360576.6939015,0.6445552,-0.3841461,0.21818718,0.7478151,1.4570143,-2.3787336
836,1778360576.7039342,0.6357691,-0.51740134,0.2489384,1.0247836,1.2972248,-2.3052306
837,1778360576.7142034,0.5625519,-0.9196077,0.08053889,1.8397104,1.233309,-2.1220052
838,1778360576.7242265,0.4971446,-1.0919122,-0.10689708,2.032523,1.2769848,-2.0144136
839,1778360576.7342646,0.37023485,-1.2290722,-0.31581008,2.0346537,1.2428963,-1.8993651
840,1778360576.7447982,0.37023485,-1.2290722,-0.31581008,2.0346537,1.2428963,-1.8993651
841,1778360576.7548232,-0.017328065,-1.3183973,-0.60916686,1.6692681,0.95847094,-1.5382407
842,1778360576.7651706,-0.36096066,-1.3027775,-0.7726852,1.0780468,0.5643234,-0.8756467
843,1778360576.7751937,-0.49177536,-1.2676333,-0.81368685,0.6860298,0.35553175,-0.34727594
844,1778360576.7856193,-0.52399087,-1.2158931,-0.79709095,0.10972215,0.063649505,0.50493497
845,1778360576.7957084,-0.52399087,-1.2158931,-0.79709095,-0.20666115,-0.099335834,1.054611
846,1778360576.8060107,-0.43076107,-1.069947,-0.7243619,-0.45912862,-0.24208117,1.5563502
847,1778360576.8164294,-0.33704305,-0.8815348,-0.71118283,-0.84794986,-0.6458161,2.4138875
848,1778360576.8267024,-0.23697957,-0.66969305,-0.69556314,-1.1440932,-1.08577,3.1382668
849,1778360576.83673,-0.016351834,-0.47835222,-0.64040625,-1.3827122,-1.4436985,3.7348144
850,1778360576.8472168,0.42929673,-0.19963883,-0.5042223,-1.6255924,-1.837846,4.3494716
851,1778360576.857243,0.42929673,-0.19963883,-0.5042223,-1.6255924,-1.837846,4.3494716
852,1778360576.8674765,1.3786794,0.38121742,-0.260165,-1.8279924,-2.1755347,4.792621
853,1778360576.8774989,1.8394594,0.78684056,-0.20110317,-1.9036261,-1.9251977,4.6008735
854,1778360576.8880186,1.9624643,1.1744035,-0.16058967,-2.0793946,-1.4756565,4.3452106
855,1778360576.898158,1.9663693,1.394055,-0.08444381,-2.194443,-1.2050794,4.254663
856,1778360576.908677,1.9688098,1.560502,0.03904916,-2.2125525,-1.0165278,4.2173786
857,1778360576.9188058,2.0146925,1.7171869,0.21818718,-2.0580893,-0.93450254,4.2035303
858,1778360576.9292018,2.136233,1.9197543,0.45394647,-1.4849775,-0.9739173,4.109787
859,1778360576.9396741,2.2089622,2.024211,0.5091034,-0.9161267,-1.0197237,3.9169743
860,1778360576.94984,2.2240937,2.0603313,0.4471129,-0.4857602,-0.9909615,3.6570501
861,1778360576.9600365,2.1542933,2.0437355,0.2933568,-0.16724639,-0.8652604,3.3278837
862,1778360576.9700952,1.9448922,1.9924834,0.03172744,-0.006391582,-0.60853183,2.8879297
863,1778360576.9803882,1.667155,1.91829,-0.1381364,-0.092677936,-0.27510434,2.379799
864,1778360576.9909034,1.2815446,1.7830821,-0.24356914,-0.28868645,-0.05033371,2.0208051
865,1778360577.0011222,1.044321,1.6786258,-0.25089085,-0.51345706,0.083889514,1.7566197
866,1778360577.0111747,0.8295506,1.5785623,-0.22111587,-0.6615287,0.12330426,1.5893734
867,1778360577.021687,0.65041256,1.4755701,-0.16254212,-0.7701856,0.08602004,1.4349102
868,1778360577.031919,0.42197496,1.3247427,-0.013179091,-0.7446193,-0.02476738,1.2783164
869,1778360577.042342,0.42197496,1.3247427,-0.013179091,-0.61359185,-0.111053735,1.1483542
870,1778360577.052488,0.42197496,1.3247427,-0.013179091,-0.61359185,-0.111053735,1.1483542
871,1778360577.0628355,0.15058333,1.1114367,0.1381364,-0.27164224,-0.12490216,0.86286354
872,1778360577.0729864,-0.031483386,1.0201592,0.12495731,0.057524238,0.059388448,0.35686332
873,1778360577.0834227,-0.11836776,1.0040516,0.12690976,0.057524238,0.059388448,0.35686332
874,1778360577.0936923,-0.11836776,1.0040516,0.12690976,0.14807165,0.17443693,0.10439584
875,1778360577.10403,-0.2443013,0.94254905,0.14936304,0.2663159,0.433296,-0.28229487
876,1778360577.114603,-0.28969595,0.90496427,0.20305562,0.38029912,0.60480344,-0.4953476
877,1778360577.1250114,-0.29652956,0.88739216,0.25674823,0.5155876,0.7400919,-0.6285055
878,1778360577.1350455,-0.24527754,0.87323684,0.3109289,0.6796382,0.8732499,-0.75207615
879,1778360577.145685,-0.24527754,0.87323684,0.3109289,0.86605936,1.0341047,-0.8692551
880,1778360577.1557446,-0.17840585,0.87323684,0.36266908,0.86605936,1.0341047,-0.8692551
881,1778360577.1662002,-0.17840585,0.87323684,0.36266908,0.86605936,1.0341047,-0.8692551
882,1778360577.1764338,-0.021721095,0.9015475,0.3900035,1.1984216,1.4410354,-1.0897647
883,1778360577.186464,-0.021721095,0.9015475,0.3900035,1.1984216,1.4410354,-1.0897647
884,1778360577.1969304,0.13447554,0.96402615,0.40903994,1.3827122,1.7680713,-1.2708595
885,1778360577.2073047,0.13447554,0.96402615,0.40903994,1.3827122,1.7680713,-1.2708595
886,1778360577.2178063,0.3951287,1.3662325,0.7658516,2.0612853,1.8330524,-1.6468976
887,1778360577.228037,0.5742667,1.6434816,0.8854397,3.4152353,1.1949595,-1.8407756
888,1778360577.238195,1.1150976,1.9514818,0.66139513,4.372907,0.9403615,-1.8439714
889,1778360577.2482984,1.1150976,1.9514818,0.66139513,4.3665156,1.0745847,-1.8716682
890,1778360577.2585905,1.6324989,2.2594821,0.2884757,4.1215053,1.2290479,-1.9345188
891,1778360577.268612,1.9199983,2.358081,0.21428227,3.7380102,1.3313133,-2.064481
892,1778360577.2791297,2.3080494,2.434227,0.35437113,3.1382668,1.3004206,-2.4511716
893,1778360577.2892165,2.4803538,2.4142144,0.49543622,2.9358666,1.208808,-2.6919212
894,1778360577.2992353,2.676576,2.1794312,0.6272271,2.8346665,1.1150647,-3.0839381
895,1778360577.3096912,2.6643732,1.9470887,0.61844105,2.8176224,1.1406311,-3.328949
896,1778360577.319849,2.4998784,1.6844832,0.52472305,2.784599,1.2567447,-3.5377405
897,1778360577.3299577,2.0513012,1.0953289,0.08590815,2.2562284,1.5060165,-3.8093827
898,1778360577.340023,2.0513012,1.0953289,0.08590815,2.2562284,1.5060165,-3.8093827
899,1778360577.3502111,1.6881441,0.788793,-0.08297946,1.6500934,1.6785892,-3.855189
900,1778360577.360493,1.4689806,0.6233222,-0.102504045,1.2218574,1.7574186,-3.782751
901,1778360577.3709376,1.308879,0.4837215,-0.053204484,0.85434145,1.8042903,-3.6581154
902,1778360577.381416,1.0804414,0.0741934,0.19719826,0.41225702,1.5709976,-3.2224226
903,1778360577.3918695,1.0804414,0.0741934,0.19719826,0.41225702,1.5709976,-3.2224226
904,1778360577.4020133,1.0247964,-0.022941383,0.2562601,0.4431497,1.415469,-3.075416
905,1778360577.41224,0.96329397,-0.2860351,0.2626056,0.6562024,1.0373005,-2.7355971
906,1778360577.4224167,0.9188756,-0.4041588,0.22013964,0.7297056,0.99468994,-2.6418538
907,1778360577.4326959,0.85493255,-0.47835222,0.16303024,0.7488803,1.0149299,-2.5683506
908,1778360577.4432013,0.85493255,-0.47835222,0.16303024,0.7488803,1.0149299,-2.5683506
909,1778360577.4534016,0.8090498,-0.6042857,0.073217176,0.74568456,1.0681931,-2.4426496
910,1778360577.463719,0.77146494,-0.76341105,-0.034168016,0.7169224,1.1171952,-2.2945778
911,1778360577.4739375,0.6919023,-0.9000831,-0.15570852,0.66259396,1.0607363,-2.0953736
912,1778360577.4843285,0.54253924,-0.98794377,-0.34119204,0.49641284,0.7102645,-1.8002956
913,1778360577.4943612,0.54253924,-0.98794377,-0.34119204,0.49641284,0.7102645,-1.8002956
914,1778360577.5048902,0.40635532,-1.0074683,-0.4378387,0.2961433,0.44927493,-1.5946996
915,1778360577.5151782,0.19597797,-0.98062205,-0.5344854,-0.3281012,0.11265163,-0.9342362
916,1778360577.525413,0.10665302,-0.9689073,-0.5720702,-0.55180657,0.071106344,-0.65407187
917,1778360577.5357718,0.10665302,-0.9689073,-0.5720702,-0.8351667,0.01890843,-0.20346536
918,1778360577.5457993,-0.079318605,-0.8844635,-0.6277153,-0.8351667,0.01890843,-0.20346536
919,1778360577.5561388,-0.25259924,-0.75169635,-0.68433654,-1.115331,-0.11957584,0.39414755
920,1778360577.5661829,-0.2550398,-0.51691324,-0.73461235,-1.7385103,-0.79921407,1.8791251
921,1778360577.576273,-0.011470691,-0.27432033,-0.6228341,-2.0261314,-1.2008184,2.6375928
922,1778360577.5867758,0.28627914,-0.016595893,-0.50568664,-2.2732725,-1.4298501,3.3449278
923,1778360577.5970535,0.5957437,0.2562601,-0.41050428,-2.5193486,-1.3659343,3.9254966
924,1778360577.607267,0.5957437,0.2562601,-0.41050428,-2.5193486,-1.3659343,3.9254966
925,1778360577.6177702,1.0765365,0.75657743,-0.1342315,-2.8453193,-0.80986667,4.599808
926,1778360577.627793,1.3176651,1.1290088,0.13325526,-2.7579675,-0.54674655,4.759598
927,1778360577.637848,1.4977793,1.3691611,0.36901456,-2.379799,-0.61385816,4.690356
928,1778360577.648138,1.5910091,1.5492754,0.5261874,-1.7140092,-0.972852,4.5358925
929,1778360577.658188,1.6095576,1.6239569,0.5344854,-1.0855037,-1.3382374,4.392082
930,1778360577.6687067,1.5910091,1.6498269,0.3943965,-0.35473278,-1.732385,4.2248354
931,1778360577.678731,1.4597064,1.6649586,0.071264714,0.15978955,-1.9752651,4.048002
932,1778360577.6892416,1.346952,1.6400647,-0.20988922,0.2077264,-1.9880483,3.9425406
933,1778360577.6993,1.2127205,1.5868602,-0.44516042,-0.051132657,-1.8623471,3.8285575
934,1778360577.7098148,1.1009423,1.5321914,-0.54668826,-0.4101265,-1.7536902,3.749728
935,1778360577.7200353,1.0096649,1.4994878,-0.5515694,-0.8127962,-1.6620775,3.6836817
936,1778360577.7304215,0.9276616,1.4101628,-0.42270714,-1.4615418,-1.5544859,3.580351
937,1778360577.7409058,0.9091133,1.3579346,-0.21965154,-1.870603,-1.5310502,3.4173658
938,1778360577.7512288,0.9183875,1.3579346,-0.08297946,-2.0271966,-1.538507,3.2394667
939,1778360577.7616558,0.9076489,1.3642801,0.04148973,-2.1102872,-1.5448986,2.9667592
940,1778360577.771751,0.6289356,1.3745304,0.34704942,-2.1326578,-1.5502249,2.6418538
941,1778360577.7820027,0.6289356,1.3745304,0.34704942,-2.1177442,-1.5917702,2.0314577
942,1778360577.7920523,0.45760733,1.3642801,0.5383903,-2.0293272,-1.5129406,1.5808512
943,1778360577.8024306,0.34631723,1.3325526,0.64431113,-1.858885,-1.30841,1.1387669
944,1778360577.8126402,0.08859278,1.2349297,0.7839119,-1.3060132,-0.74701613,0.45806336
945,1778360577.8231194,-0.11690342,1.1866064,0.76292294,-0.7850993,-0.38802227,0.15552849
946,1778360577.8334134,-0.1871919,1.1456047,0.63015586,-0.3888212,-0.13235901,-0.05219792
947,1778360577.8436944,-0.1871919,1.1456047,0.63015586,-0.3888212,-0.13235901,-0.05219792
948,1778360577.8540642,-0.22672918,1.1089962,0.46370876,-0.10972215,0.058323186,-0.28868645
949,1778360577.864471,-0.25748038,1.090936,0.23039004,0.059654765,0.30226856,-0.64874554
950,1778360577.8749537,-0.20525214,1.0899596,0.07028849,-0.003195791,0.5174518,-0.9065394
951,1778360577.8852391,-0.07150877,1.1036268,0.03172744,-0.17789903,0.7347656,-1.1952258
952,1778360577.8955576,-0.07150877,1.1036268,0.03172744,-0.17789903,0.7347656,-1.1952258
953,1778360577.9059489,0.13203497,1.1963686,0.07468152,-0.39734334,1.1438268,-1.6170702
954,1778360577.9161508,0.29262465,1.2432276,0.107385196,-0.43569282,1.374989,-1.7896429
955,1778360577.9264283,0.46541715,1.4291992,0.26065314,-0.27803382,1.6615449,-2.004826
956,1778360577.9368753,0.6572462,1.6366479,0.3773125,0.056458972,1.7318524,-1.9749988
957,1778360577.9471734,1.0091767,1.8177384,0.4075756,0.49321705,1.7297218,-1.9504977
958,1778360577.957255,1.2913069,1.9251237,0.3807293,0.49321705,1.7297218,-1.9504977
959,1778360577.9675133,1.5758777,2.0544739,0.34168017,1.248489,1.6104124,-2.125201
960,1778360577.9779618,1.8253042,2.160395,0.24942651,1.6660724,1.4250565,-2.3265357
961,1778360577.9881732,1.964905,2.1896815,0.17523311,1.858885,1.3110732,-2.4873905
962,1778360577.998681,2.1274471,2.1345246,0.0707766,2.016544,1.1661974,-2.7366624
963,1778360578.0090408,2.1411142,2.0261633,-0.01415532,2.1038957,1.0213215,-2.985934
964,1778360578.019567,2.1015768,1.8865626,-0.11665936,2.1177442,0.92544776,-3.1041782
965,1778360578.0300543,1.9771078,1.6386005,-0.30555966,2.0218704,0.83916146,-3.1254835
966,1778360578.040164,1.8692344,1.4843562,-0.4549227,1.7960345,0.74541825,-3.0839381
967,1778360578.0503263,1.7725879,1.3179091,-0.56865335,1.422127,0.6303698,-3.0487845
968,1778360578.0604086,1.6876558,1.1675699,-0.6252747,1.0365015,0.5739108,-3.042393
969,1778360578.0709271,1.5246257,0.91570276,-0.6164886,0.37816858,0.5728455,-3.0434582
970,1778360578.0809615,1.1956364,0.5383903,-0.45297024,-0.16618113,0.64208764,-3.017892
971,1778360578.0910008,1.1956364,0.5383903,-0.45297024,-0.5571329,0.7262435,-2.9465191
972,1778360578.1012182,1.1956364,0.5383903,-0.45297024,-0.5571329,0.7262435,-2.9465191
973,1778360578.1115866,0.86225426,0.22404456,-0.18255483,-1.1888342,0.9179909,-2.5598285
974,1778360578.1220994,0.7963588,0.097134784,-0.099087246,-1.3145354,1.0053426,-2.3329275
975,1778360578.132603,0.67091334,-0.19817449,0.26651052,-1.0333058,1.0426267,-1.7789903
976,1778360578.142709,0.67091334,-0.19817449,0.26651052,-1.0333058,1.0426267,-1.7789903
977,1778360578.1527946,0.63381666,-0.30507156,0.4144092,-0.5209139,0.8753804,-1.5329144
978,1778360578.162843,0.6240544,-0.4217309,0.47737598,0.15872428,0.6442182,-1.3187964
979,1778360578.172941,0.5879339,-0.6667644,0.30848834,1.5968302,0.2127864,-1.0918952
980,1778360578.1831472,0.49860895,-0.76243484,0.12007617,2.0975041,-0.03968107,-1.0396973
981,1778360578.1935465,0.49860895,-0.76243484,0.12007617,2.0975041,-0.03968107,-1.0396973
982,1778360578.2040303,0.375116,-0.83223516,-0.107385196,2.3489063,-0.28682223,-0.9608678
983,1778360578.2140644,0.12032023,-0.9127741,-0.536926,2.073003,-0.57124764,-0.7020087
984,1778360578.2244585,-0.05344854,-0.94157284,-0.77366143,1.2974911,-0.69588345,-0.35686332
985,1778360578.2344818,-0.1295944,-0.9498709,-0.8263778,0.74035823,-0.8013446,-0.09906952
986,1778360578.2445126,-0.21745501,-0.9371798,-0.8019721,0.0585895,-1.0207889,0.28762117
987,1778360578.254542,-0.21745501,-0.9371798,-0.8019721,0.0585895,-1.0207889,0.28762117
988,1778360578.264713,-0.23844394,-0.9279056,-0.7165521,-0.52837074,-1.2924311,0.7147919
989,1778360578.2747595,-0.18231077,-0.8605459,-0.5730464,-1.1707247,-1.6748607,1.4444975
990,1778360578.2847757,-0.16522676,-0.7038611,-0.5715821,-1.6117439,-1.9880483,2.2114873
991,1778360578.2948992,-0.049543623,-0.5193538,-0.5530337,-1.6117439,-1.9880483,2.2114873
992,1778360578.3051229,-0.049543623,-0.5193538,-0.5530337,-1.6117439,-1.9880483,2.2114873
993,1778360578.3153164,0.49763274,-0.008786061,-0.21965154,-2.433062,-2.8626297,4.319644
994,1778360578.3254418,1.2224828,0.40123013,0.13520771,-2.3318622,-3.2663646,5.0514803
995,1778360578.3355887,1.9629525,0.76389915,0.4036707,-1.987782,-3.3356068,5.207009
996,1778360578.3458388,2.5589402,1.1524384,0.55010504,-1.4753902,-3.0714214,4.8725157
997,1778360578.3561938,2.7454,1.4228537,0.5222825,-1.4753902,-3.0714214,4.8725157
998,1778360578.3664663,2.656075,1.6376241,0.39976576,-0.8841688,-2.2799306,3.9766293
999,1778360578.3766665,2.2138433,1.8177384,0.12739788,-0.8586025,-1.7057534,3.6559849
