id,timestamp,acc_x,acc_y,acc_z,gyro_x,gyro_y,gyro_z
0,1778360596.143188,-0.06809197,0.49055508,0.61795294,-0.81918776,-2.7017748,-1.264468
1,1778360596.1537135,-0.06809197,0.49055508,0.61795294,-0.81918776,-2.7017748,-1.264468
2,1778360596.1638534,0.011958805,0.3900035,0.70239675,-1.3145354,-3.1843393,-1.1835079
3,1778360596.1741261,-0.08127106,0.39878955,0.86884385,-1.3145354,-3.1843393,-1.1835079
4,1778360596.1843903,-0.08127106,0.39878955,0.86884385,-1.462607,-3.1172278,-1.1952258
5,1778360596.1948636,-0.24332508,0.58329684,1.1685461,-1.4753902,-2.2437115,-0.42610547
6,1778360596.2052422,-0.24332508,0.58329684,1.1685461,-1.4753902,-2.2437115,-0.42610547
7,1778360596.2153342,0.15058333,0.5339973,1.3208379,-1.2506195,-1.6535555,-0.45273703
8,1778360596.2255127,0.18377511,0.60038084,1.3740423,-1.1845732,-1.5715302,-0.7105309
9,1778360596.2360158,0.14765464,0.6794554,1.3696493,-1.1078742,-1.558747,-1.0460889
10,1778360596.2462986,0.032459613,0.7404697,1.4374971,-0.95234567,-1.4650038,-1.3187964
11,1778360596.2565002,-0.017816179,0.78635246,1.5243815,-0.779773,-1.1997532,-1.4615418
12,1778360596.2667763,0.009030119,0.7829357,1.5419537,-0.59335184,-0.92598045,-1.5542196
13,1778360596.277094,-0.059305906,0.7809832,1.5932057,-0.46125916,-0.68736136,-1.5893734
14,1778360596.2871497,-0.21062139,0.8112463,1.7293897,-0.22583589,-0.34221596,-1.4753902
15,1778360596.297628,-0.2818861,0.8712844,1.934886,0.23222747,-0.025832644,-1.0535457
16,1778360596.3076527,-0.18816814,0.93620354,2.1359892,0.7499456,0.35127068,-0.5805687
17,1778360596.3181217,-0.18816814,0.93620354,2.1359892,0.7499456,0.35127068,-0.5805687
18,1778360596.3282986,-0.18816814,0.93620354,2.1359892,0.7499456,0.35127068,-0.5805687
19,1778360596.3386765,0.83150303,0.51593703,2.4420369,2.1710074,0.6953508,-0.16085482
20,1778360596.3490078,0.9691513,0.5198419,2.4015234,2.368081,0.7997467,-0.468716
21,1778360596.359064,1.0467615,0.5227706,2.3624742,2.7047043,1.023452,-0.8639288
22,1778360596.3695712,1.0711672,0.45931572,2.2287307,3.1467888,1.3558143,-1.1941606
23,1778360596.3799465,1.0321181,0.3968371,2.0622838,3.5175006,1.5475618,-1.3965607
24,1778360596.3902206,0.9794017,0.32898918,1.7767367,4.012848,1.6466312,-1.6149397
25,1778360596.4002903,0.93059033,0.2831064,1.517548,4.3026,1.5166692,-1.793904
26,1778360596.4104035,0.85493255,0.23136626,1.2593354,4.46452,1.2279826,-1.951563
27,1778360596.4209025,0.78806084,0.14936304,1.0177187,4.46452,0.768854,-2.0996346
28,1778360596.4314106,0.70264083,0.12593354,0.8459024,4.3707767,0.39068544,-2.194443
29,1778360596.44147,0.55962324,0.11617125,0.64772797,4.146006,-0.17496955,-2.2764685
30,1778360596.4517727,0.45174995,0.1147069,0.5091034,4.146006,-0.17496955,-2.2764685
31,1778360596.461906,0.3526627,0.11031388,0.39586085,3.6485279,-0.89189196,-2.0559587
32,1778360596.4722304,0.2672427,0.094206095,0.29384494,3.4780858,-0.968591,-1.8727335
33,1778360596.4826176,0.122272685,-0.09274176,0.16449459,2.9678245,-0.92811096,-1.2815121
34,1778360596.4928515,0.122272685,-0.09274176,0.16449459,2.6333318,-1.3467596,-0.89908254
35,1778360596.5031412,0.16620298,-0.23819989,0.19134088,2.433062,-1.6844481,-0.58909076
36,1778360596.5133493,0.16620298,-0.23819989,0.19134088,2.4021695,-1.9933746,-0.28549066
37,1778360596.5238218,0.31312546,-0.30897647,0.22062775,2.4884558,-2.1872525,-0.12996216
38,1778360596.5339036,0.47810817,-0.417826,0.14936304,2.6770074,-2.305497,-0.1523327
39,1778360596.544205,0.5440036,-0.52472305,0.0302631,2.7995129,-2.1574252,-0.27803382
40,1778360596.554611,0.50544256,-0.5701177,-0.08102701,2.8538413,-1.8634124,-0.37390754
41,1778360596.5647314,0.50544256,-0.5701177,-0.08102701,2.8538413,-1.8634124,-0.37390754
42,1778360596.574928,0.23258655,-0.5359497,-0.2801777,2.755837,-1.6141407,-0.32064435
43,1778360596.5850348,0.119343996,-0.5125202,-0.37633628,2.618418,-1.6610123,-0.17896429
44,1778360596.5951223,0.018792408,-0.50031734,-0.50763905,2.3222747,-1.8442377,0.10972215
45,1778360596.6051471,-0.06418706,-0.48713827,-0.56474847,2.113483,-2.0125494,0.31425276
46,1778360596.6154613,-0.19548985,-0.47005424,-0.6360132,1.911083,-2.270343,0.5677855
47,1778360596.625693,-0.35656762,-0.45931572,-0.71215904,1.7097481,-2.5643559,0.8671246
48,1778360596.6357133,-0.35656762,-0.45931572,-0.71215904,1.7097481,-2.5643559,0.8671246
49,1778360596.6460063,-0.6020892,-0.31239328,-0.77024466,0.86499405,-4.11538,2.359559
50,1778360596.6562288,-0.4698102,-0.16205402,-0.69458693,0.42077914,-4.8376284,3.3427973
51,1778360596.6662476,-0.4698102,-0.16205402,-0.69458693,0.42077914,-4.8376284,3.3427973
52,1778360596.6764412,0.38975942,0.13764828,-0.5037342,-0.606135,-4.6629252,5.2698593
53,1778360596.6866276,1.0179628,0.32166746,-0.42856455,-1.1696595,-4.268778,5.792904
54,1778360596.6968286,1.9375705,0.6487042,-0.16937573,-2.492717,-2.7390592,5.5052824
55,1778360596.7068837,2.1372094,0.8268659,0.09469421,-3.325753,-2.1105535,4.8426886
56,1778360596.7172163,2.033241,0.97134787,0.3904916,-3.7390754,-1.837846,4.485825
57,1778360596.7274535,1.7950411,1.0758044,0.86884385,-3.9009955,-1.7547555,4.2876863
58,1778360596.7376685,1.6979064,1.0943527,1.2417632,-3.592069,-1.9337199,4.3217745
59,1778360596.7481687,1.6979064,1.0943527,1.2417632,-3.592069,-1.9337199,4.3217745
60,1778360596.7583864,1.9287844,1.2656809,1.4248062,-2.400039,-1.9571556,4.3100567
61,1778360596.7689216,2.0366576,1.363792,1.4213893,-1.906822,-1.890044,4.023501
62,1778360596.7789462,2.1049938,1.4389615,1.3828284,-1.462607,-1.7792566,3.564372
63,1778360596.7891164,2.0566704,1.4955828,1.2398108,-0.8351667,-1.3733912,2.5800686
64,1778360596.7995014,1.8257922,1.5238935,0.9938011,-0.62211394,-0.952612,2.0218704
65,1778360596.8097312,1.5797825,1.5033927,0.84150934,-0.56032866,-0.4050665,1.3156006
66,1778360596.81975,1.2010058,1.4907017,0.690682,-0.61998343,-0.21544957,0.97897726
67,1778360596.8297987,0.8261338,1.453605,0.6155124,-0.71372664,-0.090813726,0.7382277
68,1778360596.8399668,0.5640163,1.39796,0.6023333,-0.77231616,-0.112119,0.5592634
69,1778360596.850368,0.3692586,1.3720899,0.59159476,-0.76912034,-0.19520956,0.45060652
70,1778360596.8608413,0.25601605,1.3423148,0.55791485,-0.7350319,-0.29214856,0.3131875
71,1778360596.8712962,0.25601605,1.3423148,0.55791485,-0.71585715,-0.2932138,0.21518326
72,1778360596.8816488,0.1871919,1.3022895,0.5339973,-0.71585715,-0.2932138,0.21518326
73,1778360596.8918753,0.1871919,1.3022895,0.5339973,-0.71585715,-0.2932138,0.21518326
74,1778360596.9019096,0.1871919,1.3022895,0.5339973,-0.71585715,-0.2932138,0.21518326
75,1778360596.9123714,0.1871919,1.3022895,0.5339973,-0.71585715,-0.2932138,0.21518326
76,1778360596.9227588,0.1871919,1.3022895,0.5339973,-0.71585715,-0.2932138,0.21518326
77,1778360596.9328244,0.1871919,1.3022895,0.5339973,-0.71585715,-0.2932138,0.21518326
78,1778360596.9432018,0.1871919,1.3022895,0.5339973,-0.71585715,-0.2932138,0.21518326
79,1778360596.9537375,-0.05735345,1.1709867,0.61844105,0.31212226,0.80294245,-0.8681899
80,1778360596.963906,0.08956901,1.0396838,0.48128092,0.84475404,1.5944333,-1.4689986
81,1778360596.9740593,0.14716652,1.0167425,0.5603554,1.1781815,1.855423,-1.7523587
82,1778360596.9847934,0.20476402,1.0626253,0.6535853,1.5318491,1.7765934,-1.8503629
83,1778360596.994859,0.28627914,1.1392592,0.6960513,1.8333187,1.6711323,-1.8801904
84,1778360597.0053701,0.4327135,1.2651927,0.71899265,2.0548935,1.6104124,-1.8759292
85,1778360597.0156977,0.63332856,1.4248062,0.70142055,2.0548935,1.6104124,-1.8759292
86,1778360597.0261805,0.84809893,1.560014,0.7614586,1.9984345,1.9012293,-1.8013608
87,1778360597.0363796,1.2307807,1.7376877,1.0357789,1.9291924,2.1845894,-1.7704681
88,1778360597.0468285,1.6061407,1.7967494,1.2647047,2.0367842,2.320943,-1.8258619
89,1778360597.0572214,1.9058431,1.8011425,1.5131549,2.3457105,2.2687452,-1.9398451
90,1778360597.0677626,1.9058431,1.8011425,1.5131549,2.3457105,2.2687452,-1.9398451
91,1778360597.0781722,2.3314788,1.7620933,1.6415291,3.285273,1.8511618,-2.1933777
92,1778360597.0882454,2.5218437,1.6464102,1.4804512,3.7976649,1.6104124,-2.476738
93,1778360597.0984282,2.541856,1.4418901,1.1182703,3.9542587,1.5518228,-2.7451844
94,1778360597.108454,2.3778498,1.2295604,0.76292294,3.8072522,1.6029555,-2.9635634
95,1778360597.1185973,2.0986483,0.9781815,0.45589894,3.8072522,1.6029555,-2.9635634
96,1778360597.1289153,1.8336021,0.77756643,0.27432033,2.9976518,1.8490313,-3.0690246
97,1778360597.139244,1.4611707,0.5037342,0.13667206,2.36382,1.9683409,-2.9145613
98,1778360597.1492662,1.2205303,0.2997023,0.13276714,1.9430408,1.936383,-2.7068348
99,1778360597.159296,1.040416,0.10640897,0.19378147,1.7065524,1.7126776,-2.5044348
100,1778360597.169546,0.8866599,-0.0707766,0.26553428,1.6458323,1.3664669,-2.356363
101,1778360597.179771,0.76219076,-0.1986626,0.29433304,1.7065524,1.0809762,-2.2434452
102,1778360597.1899369,0.45760733,-0.528628,0.21086545,1.9835209,0.5568666,-1.8652767
103,1778360597.200451,0.3214234,-0.64821607,0.11031388,2.0410452,0.4322307,-1.6660724
104,1778360597.210734,0.3214234,-0.64821607,0.11031388,2.0410452,0.4322307,-1.6660724
105,1778360597.2209105,0.28335047,-0.7575537,-0.014643434,1.996304,0.30333382,-1.3518195
106,1778360597.230954,0.2638259,-0.8180799,-0.0976229,1.8844514,0.24794011,-1.1707247
107,1778360597.2414207,0.25552794,-0.87958235,-0.1849954,1.6596807,0.1893506,-0.93210566
108,1778360597.2517748,0.2677308,-0.93571544,-0.2596769,1.4359754,0.15526217,-0.78296876
109,1778360597.2619078,0.26284966,-1.0001466,-0.34607318,1.1856384,0.11371689,-0.6775077
110,1778360597.2720108,0.20525214,-1.0294335,-0.41929033,0.953411,0.062584236,-0.5901561
111,1778360597.2825384,-0.003172744,-1.0518868,-0.5720702,0.30253488,-0.25486434,-0.27164224
112,1778360597.2928514,-0.14472595,-1.0543274,-0.6277153,-0.13102743,-0.52011496,0.0585895
113,1778360597.3029313,-0.15204766,-1.023088,-0.64772797,-0.46978128,-0.7928225,0.4133223
114,1778360597.313342,-0.15204766,-1.023088,-0.64772797,-0.46978128,-0.7928225,0.4133223
115,1778360597.323672,-0.039781332,-0.9508471,-0.64772797,-0.74568456,-1.1454247,0.68496454
116,1778360597.333707,-0.08615221,-0.8112463,-0.6901939,-1.1068089,-1.8602166,1.1206573
117,1778360597.344179,-0.21647878,-0.65163285,-0.6452874,-1.4018869,-2.5292022,1.9430408
118,1778360597.3545363,-0.1432616,-0.4837215,-0.51788944,-1.5148048,-3.0426593,2.812296
119,1778360597.3648689,0.16425052,-0.28749946,-0.36852646,-1.5148048,-3.0426593,2.812296
120,1778360597.3748946,0.16425052,-0.28749946,-0.36852646,-1.5542196,-3.6669037,4.3942127
121,1778360597.3849113,0.5405868,-0.07224095,-0.24308102,-1.5542196,-3.6669037,4.3942127
122,1778360597.395037,1.0448091,0.20110317,-0.1244692,-1.5446323,-3.6935353,4.9066043
123,1778360597.4051623,2.3690639,1.129985,0.15229172,-1.6671376,-2.892457,5.216596
124,1778360597.4152083,2.3690639,1.129985,0.15229172,-1.6671376,-2.892457,5.216596
125,1778360597.4252236,2.6184902,1.5844196,0.260165,-1.8386451,-2.2362547,4.966259
126,1778360597.435726,2.753698,2.0388544,0.4080637,-1.9984345,-1.538507,4.337754
127,1778360597.4461174,2.6907313,2.1472156,0.50617474,-1.9536935,-1.4277196,3.955324
128,1778360597.4566162,2.4959733,2.2106707,0.61892915,-1.9536935,-1.4277196,3.955324
129,1778360597.4668994,2.4959733,2.2106707,0.61892915,-1.7694029,-1.4021533,3.5068479
130,1778360597.4770396,2.2358084,2.1843123,0.67018116,-1.4775207,-1.3627385,3.0881994
131,1778360597.4871855,1.6193199,1.9919952,0.56865335,-0.8351667,-1.1411637,2.3606243
132,1778360597.4973106,1.1868503,1.8494658,0.49348375,-0.63809294,-1.1049447,2.194443
133,1778360597.507332,0.8685997,1.7254847,0.39146784,-0.39947388,-1.1177279,1.9867167
134,1778360597.5174465,0.70996255,1.6551963,0.31385764,-0.32064435,-1.1241194,1.818405
135,1778360597.5275028,0.55718267,1.6098017,0.26748675,-0.29507804,-1.0964226,1.6234618
136,1778360597.5375297,0.3277689,1.5429299,0.2626056,-0.32490543,-0.9579383,1.3337101
137,1778360597.5479405,0.18182266,1.5024164,0.31434575,-0.35686332,-0.7917572,1.1206573
138,1778360597.5580392,0.106164895,1.4780107,0.39976576,-0.3685812,-0.560595,0.8692551
139,1778360597.5684772,0.046614934,1.4594624,0.4949481,-0.31851384,-0.28575698,0.5720466
140,1778360597.578763,-0.0061014313,1.4316398,0.55693865,-0.23542327,-0.03968107,0.29188225
141,1778360597.5887964,-0.113974735,1.3911263,0.61502427,-0.0468716,0.31931278,-0.124635845
142,1778360597.5992799,-0.22575295,1.3315763,0.6711574,0.16085482,0.574976,-0.40799597
143,1778360597.609373,-0.24967057,1.2627522,0.7004443,0.41758335,0.82105196,-0.66685504
144,1778360597.6193912,-0.21794313,1.2041785,0.70190865,0.72224873,1.0287783,-0.9203878
145,1778360597.6297576,-0.18084641,1.1651293,0.681896,0.96299833,1.1406311,-1.1238531
146,1778360597.6398542,-0.08517598,1.1006982,0.6242984,1.3187964,1.2833763,-1.4647375
147,1778360597.649879,0.020256752,1.0611609,0.5764632,1.4658028,1.3962944,-1.6479628
148,1778360597.6600206,0.12764193,1.0518868,0.5320448,1.5776554,1.5901723,-1.8567545
149,1778360597.6701598,0.16717921,1.0767806,0.47054234,1.5840471,1.8490313,-1.9611504
150,1778360597.6803162,0.20134723,1.1006982,0.45004156,1.5329144,2.1078904,-1.9409103
151,1778360597.6903949,0.27846932,1.1700104,0.47688788,1.478586,2.36888,-1.866342
152,1778360597.7005887,0.4600479,1.3242546,0.57402265,1.4647375,2.6618276,-1.7449019
153,1778360597.7109091,0.8871481,1.5663594,0.75950617,1.600026,2.7917898,-1.7108134
154,1778360597.7209384,1.2874019,1.756236,0.93327487,1.8759292,2.582998,-1.8109481
155,1778360597.7314372,1.6486067,1.9002297,1.0670183,2.1955085,2.2868547,-1.9270619
156,1778360597.7419055,2.0181093,1.9978526,1.1617125,2.6610286,1.8916419,-2.1145484
157,1778360597.752032,2.4832826,2.06326,1.1153417,3.1531804,1.5954986,-2.3616896
158,1778360597.7624118,2.724411,2.0862012,0.9723241,3.3630373,1.5006901,-2.5204139
159,1778360597.772605,2.954801,1.97784,0.7658516,3.3747551,1.5166692,-2.7100308
160,1778360597.7828414,3.0158153,1.8231077,0.5715821,3.2394667,1.5539533,-2.9198875
161,1778360597.7929287,2.6048229,1.2061309,0.127886,2.4341273,1.6572839,-3.4567804
162,1778360597.8032515,2.2172601,0.87616557,-0.041977845,1.9824556,1.7148081,-3.5153701
163,1778360597.8136952,2.2172601,0.87616557,-0.041977845,1.9824556,1.7148081,-3.5153701
164,1778360597.8237123,1.8736275,0.6472398,-0.1513155,1.5883081,1.722265,-3.4471931
165,1778360597.833911,1.5085179,0.42075467,-0.18548352,1.1036131,1.6327828,-3.2256184
166,1778360597.8442376,1.2068632,0.099575356,0.002928687,0.7701856,1.4921681,-2.9646287
167,1778360597.8546414,1.1482893,-0.03807293,0.07614586,0.3696465,1.0096036,-2.3925822
168,1778360597.8646812,1.1482893,-0.03807293,0.07614586,0.3696465,1.0096036,-2.3925822
169,1778360597.875045,0.99209267,-0.23966423,0.051740136,0.46765074,0.6442182,-2.1241357
170,1778360597.885104,0.90130347,-0.31239328,-0.002928687,0.49108654,0.4567318,-1.9824556
171,1778360597.8954344,0.8002637,-0.41294485,-0.07272906,0.44954127,0.3299654,-1.8610156
172,1778360597.905921,0.7597502,-0.5276518,-0.07809832,0.37390754,0.18295904,-1.6841818
173,1778360597.9159813,0.7597502,-0.5276518,-0.07809832,0.37390754,0.18295904,-1.6841818
174,1778360597.9261258,0.73436826,-0.72045696,-0.07272906,0.49854338,0.043409493,-1.5691334
175,1778360597.936429,0.6718896,-0.84053314,-0.12935033,0.6913561,-0.079095826,-1.5116091
176,1778360597.9467702,0.54790854,-0.96304995,-0.30165476,0.92358357,-0.2559296,-1.3677986
177,1778360597.9568505,0.42636803,-1.0211354,-0.5222825,0.9512804,-0.48602653,-1.1845732
178,1778360597.9669032,0.31995904,-1.0440769,-0.6936107,0.79894775,-0.71399295,-1.0098699
179,1778360597.976923,0.21159762,-1.0631135,-0.85273606,0.4367581,-0.9675257,-0.7488803
180,1778360597.987257,0.14374973,-1.087031,-0.90691674,0.06604634,-1.0985532,-0.50493497
181,1778360597.997329,0.06955632,-1.1070436,-0.84785485,-0.53369707,-1.2508858,0.042610545
182,1778360598.0078323,0.09884319,-1.0928884,-0.7804951,-0.7169224,-1.3904353,0.42930126
183,1778360598.0179188,0.15497635,-1.0152781,-0.7326599,-0.7169224,-1.3904353,0.42930126
184,1778360598.02795,0.13105874,-0.9269294,-0.82491344,-0.7020087,-2.0082884,0.9150615
185,1778360598.038077,0.093473926,-0.7214332,-1.010397,-0.8596678,-2.6719475,1.2239879
186,1778360598.0484037,-0.025626011,-0.3734076,-1.261776,-1.3976259,-3.559312,1.7832513
187,1778360598.0588384,0.21452633,-0.122516744,-1.1900232,-2.3126874,-4.4818306,2.5395885
188,1778360598.0693018,0.75535715,0.14692247,-0.7438865,-2.3126874,-4.4818306,2.5395885
189,1778360598.0798323,1.3698933,0.4085518,-0.1415532,-3.8242965,-5.1795783,3.5771554
190,1778360598.090349,1.9292725,0.7228975,0.5603554,-4.1396146,-4.536159,3.8029912
191,1778360598.1006637,1.7662423,1.2027141,1.0543274,-3.8818207,-3.3260193,3.891408
192,1778360598.110712,1.7662423,1.2027141,1.0543274,-3.8818207,-3.3260193,3.891408
193,1778360598.1207876,1.5353642,1.4135796,1.1431642,-3.4770205,-3.1598382,4.1215053
194,1778360598.1312983,1.6032121,1.6561725,1.3183973,-3.0775466,-3.332411,4.2535977
195,1778360598.1414285,1.6032121,1.6561725,1.3183973,-2.3180137,-3.6349459,4.275968
196,1778360598.1516986,1.5914973,1.649339,1.2695858,-1.7768598,-3.667969,4.205661
197,1778360598.1619542,1.5441502,1.6459221,1.0513986,-1.2708595,-3.5071142,4.1087217
198,1778360598.172458,1.4362769,1.6273737,0.7746377,-1.0162615,-3.170491,3.9606502
199,1778360598.1826847,1.342559,1.5810028,0.5271637,-1.0002825,-2.7838001,3.753989
200,1778360598.1931098,1.2464004,1.5619664,0.40903994,-1.0886995,-2.4972444,3.5494585
201,1778360598.2034082,1.0047837,1.4711771,0.32215557,-1.3539501,-1.890044,2.8985825
202,1778360598.213919,1.0047837,1.4711771,0.32215557,-1.3539501,-1.890044,2.8985825
203,1778360598.223964,1.0047837,1.4711771,0.32215557,-1.3539501,-1.890044,2.8985825
204,1778360598.2340126,0.43124917,1.2476206,0.34753752,-1.5254575,-1.4160017,2.0378494
205,1778360598.2442656,0.234539,1.1656175,0.40513504,-1.4753902,-1.2711258,1.8727335
206,1778360598.254288,0.234539,1.1656175,0.40513504,-1.4753902,-1.2711258,1.8727335
207,1778360598.2643154,0.036852647,1.1065556,0.5208182,-1.0844384,-1.0325068,1.579786
208,1778360598.2743378,-0.04515059,1.1094842,0.5130083,-0.8415583,-0.85460776,1.3784511
209,1778360598.2844841,-0.14863087,1.121687,0.47688788,-0.6040045,-0.55633396,1.1206573
210,1778360598.2945023,-0.18475133,1.142676,0.44369608,-0.49321705,-0.34221596,0.9342362
211,1778360598.305034,-0.21843125,1.1578076,0.4148973,-0.3930823,-0.07590003,0.6679203
212,1778360598.3151202,-0.21843125,1.1578076,0.4148973,-0.3930823,-0.07590003,0.6679203
213,1778360598.32536,-0.20232345,1.1690342,0.44320798,-0.20666115,0.39068544,0.2194443
214,1778360598.3353992,-0.1432616,1.1665937,0.464685,-0.053263184,0.6484792,-0.059654765
215,1778360598.3458035,-0.03099527,1.1578076,0.4656612,0.16724639,0.9819068,-0.42290968
216,1778360598.3558283,0.054424766,1.1456047,0.4378387,0.34408015,1.2503532,-0.76059824
217,1778360598.3659854,0.054424766,1.1456047,0.4378387,0.34408015,1.2503532,-0.76059824
218,1778360598.3764687,0.119343996,1.1402354,0.38902727,0.46765074,1.4868417,-1.0993521
219,1778360598.3864937,0.13789235,1.176356,0.40513504,0.5411539,1.6732628,-1.3358406
220,1778360598.396831,0.17840585,1.3115636,0.53350914,1.0290446,1.8650103,-1.660746
221,1778360598.4072816,0.36242503,1.4950947,0.65163285,1.3571459,1.7904419,-1.5925691
222,1778360598.417699,0.77146494,1.6659348,0.7307074,1.8269272,1.6828502,-1.5414364
223,1778360598.4280093,1.1717188,1.778201,0.74583894,2.2029653,1.5997597,-1.6138744
224,1778360598.4382281,1.5319474,1.8797289,0.74291027,2.561959,1.4655365,-1.7566197
225,1778360598.4486837,2.0122519,2.0642362,0.63406074,3.0956562,1.1800458,-2.0474367
226,1778360598.4587338,2.3461223,2.1901696,0.45589894,3.17129,1.0980206,-2.173138
227,1778360598.4687622,2.3461223,2.1901696,0.45589894,3.17129,1.0980206,-2.173138
228,1778360598.4792995,2.8796315,2.204325,0.18304294,2.8037739,1.1395658,-2.7142918
229,1778360598.489322,2.9440625,2.0988922,0.123004854,2.460759,1.2855068,-3.0402625
230,1778360598.4996672,2.8483922,1.8768003,0.12690976,2.0943084,1.5028207,-3.3151004
231,1778360598.5097039,2.6389909,1.6078491,0.111290105,1.9142787,1.6306523,-3.4237573
232,1778360598.5197463,2.3802903,1.3349931,0.045394648,1.692704,1.7691365,-3.446128
233,1778360598.5299175,2.1674724,1.1260802,-0.020988923,1.5393059,1.7819197,-3.3992562
234,1778360598.5404034,1.9248794,0.88836837,-0.06296677,1.3954954,1.7499619,-3.3342752
235,1778360598.5504375,1.6505592,0.6530972,-0.065407336,1.1930953,1.589107,-3.1403973
236,1778360598.56089,1.4763023,0.47737598,-0.01513155,1.1291795,1.4239912,-2.9891298
237,1778360598.5712426,1.3235224,0.31385764,0.082003236,1.1962911,1.1470226,-2.876212
238,1778360598.5814278,1.1956364,0.17718557,0.15766099,1.3507543,0.8625972,-2.7835338
239,1778360598.5918436,1.0750722,0.056133166,0.20061506,1.9206704,0.27137592,-2.4735422
240,1778360598.6019275,0.81441903,-0.29384494,0.022453265,2.0016303,0.2277001,-2.3403842
241,1778360598.6120868,0.81441903,-0.29384494,0.022453265,1.9483672,0.24900538,-2.133723
242,1778360598.6225688,0.70410514,-0.43149322,-0.08151512,1.9483672,0.24900538,-2.133723
243,1778360598.6328259,0.6211257,-0.55840296,-0.11275445,1.8610156,0.28202856,-2.0016303
244,1778360598.6432428,0.45907167,-0.82003236,-0.17279254,1.7022913,0.25859275,-1.7278576
245,1778360598.6532986,0.33265,-0.9454777,-0.2523552,1.5776554,0.18189377,-1.5808512
246,1778360598.6635654,0.15155955,-1.0787331,-0.336799,1.3507543,0.01890843,-1.3251879
247,1778360598.6738355,0.15155955,-1.0787331,-0.336799,1.3507543,0.01890843,-1.3251879
248,1778360598.6839206,-0.047103047,-1.1817253,-0.3909797,1.0034784,-0.30386645,-0.82557935
249,1778360598.6939404,-0.15253578,-1.2197981,-0.43832684,0.6945519,-0.5371592,-0.37710333
250,1778360598.7040205,-0.19109683,-1.210524,-0.45394647,0.34940648,-0.7864309,0.12783164
251,1778360598.7143688,-0.1701079,-1.193928,-0.45785138,0.11185268,-0.9440899,0.43782336
252,1778360598.7246976,-0.1701079,-1.193928,-0.45785138,0.11185268,-0.9440899,0.43782336
253,1778360598.7347183,-0.15839316,-1.1290088,-0.45980385,-0.17683376,-1.101749,0.804274
254,1778360598.7449236,-0.16717921,-1.0553036,-0.50666285,-0.7701856,-1.3904353,1.7278576
255,1778360598.7549455,-0.16717921,-1.0553036,-0.50666285,-0.7701856,-1.3904353,1.7278576
256,1778360598.7650476,-0.17498904,-0.80392456,-0.5281399,-1.3134701,-1.8708693,3.114831
257,1778360598.7750697,-0.17498904,-0.80392456,-0.5281399,-1.3134701,-1.8708693,3.114831
258,1778360598.7851624,0.06662763,-0.5632841,-0.46029195,-1.4903039,-2.0668778,3.8189702
259,1778360598.7953975,1.1399914,0.012690976,-0.27432033,-1.7651418,-2.3331938,5.1164613
260,1778360598.805575,1.8018748,0.39488465,-0.18743597,-1.8152093,-2.3523684,5.2751856
261,1778360598.815594,2.362718,0.818568,-0.14301755,-1.8322535,-2.2692778,5.106874
262,1778360598.8259697,2.6619325,1.202226,-0.17620933,-1.9078872,-2.0626168,4.7372274
263,1778360598.8359911,2.7156248,1.4531169,-0.23478307,-2.0719378,-1.8357155,4.447476
264,1778360598.8462555,2.7156248,1.4531169,-0.23478307,-2.0719378,-1.8357155,4.447476
265,1778360598.8564074,2.6389909,1.7655101,-0.26748675,-2.4863253,-1.3701954,4.0916777
266,1778360598.866434,2.5106168,1.9080396,-0.065407336,-2.8506455,-0.9643299,3.701791
267,1778360598.876535,2.5106168,1.9080396,-0.065407336,-2.8506455,-0.9643299,3.701791
268,1778360598.8867333,2.5106168,1.9080396,-0.065407336,-2.8506455,-0.9643299,3.701791
269,1778360598.8968837,2.5106168,1.9080396,-0.065407336,-2.8506455,-0.9643299,3.701791
270,1778360598.9073968,2.5106168,1.9080396,-0.065407336,-2.8506455,-0.9643299,3.701791
271,1778360598.9176276,2.5106168,1.9080396,-0.065407336,-2.8506455,-0.9643299,3.701791
272,1778360598.9276485,1.3230344,1.7860109,0.117635585,-1.636245,-1.0378331,1.6511587
273,1778360598.9380324,1.0716554,1.692781,0.07272906,-1.6149397,-0.9845699,1.4732596
274,1778360598.9480536,0.7426662,1.5556209,0.05027579,-1.6532892,-0.8908267,1.2942953
275,1778360598.9584012,0.54790854,1.466296,0.088348724,-1.680986,-0.84502035,1.1803122
276,1778360598.968653,0.54790854,1.466296,0.088348724,-1.680986,-0.84502035,1.1803122
277,1778360598.978958,0.29945824,1.291551,0.23819989,-1.5542196,-0.79601824,0.9289099
278,1778360598.9890053,0.29945824,1.291551,0.23819989,-1.422127,-0.76299506,0.7733814
279,1778360598.9990342,0.19207305,1.1685461,0.3265486,-1.2144005,-0.71612346,0.5145223
280,1778360599.0090747,0.06467517,1.0621371,0.34168017,-0.92784464,-0.677774,0.14381059
281,1778360599.0191178,-0.058817793,0.9869675,0.30946457,-0.71585715,-0.6127929,-0.14168006
282,1778360599.0294771,-0.17547716,0.8947139,0.2630937,-0.54967606,-0.5052013,-0.37284228
283,1778360599.0394993,-0.2545517,0.8263778,0.23771177,-0.4420844,-0.41145808,-0.5273055
284,1778360599.0495198,-0.32532832,0.7292431,0.20696054,-0.2993391,-0.27190855,-0.7201182
285,1778360599.059545,-0.34631723,0.6882414,0.19719826,-0.17789903,-0.15686007,-0.8692551
286,1778360599.0696838,-0.37267542,0.66090703,0.19671014,-0.04367581,-0.053529497,-0.9693899
287,1778360599.0802083,-0.34631723,0.6560259,0.20256752,0.06604634,0.03062633,-1.014131
288,1778360599.090387,-0.27554062,0.67750293,0.21037734,0.16618113,0.12650006,-1.0610026
289,1778360599.1005971,-0.07004443,0.7512082,0.23673552,0.35366753,0.35553175,-1.2431626
290,1778360599.1111076,0.020256752,0.8151512,0.24405725,0.44421494,0.50253814,-1.3976259
291,1778360599.1214108,0.061746486,0.88934463,0.24161668,0.5635245,0.7773761,-1.6074828
292,1778360599.1316972,0.082247294,0.9786696,0.24991462,0.64235395,0.9552752,-1.6863123
293,1778360599.1417992,0.14228538,1.1319375,0.27432033,0.77870774,1.1598058,-1.6841818
294,1778360599.1518898,0.3184947,1.3667207,0.33484653,1.0173268,1.3366395,-1.5755249
295,1778360599.162118,0.54839665,1.5536685,0.4148973,1.0173268,1.3366395,-1.5755249
296,1778360599.1725004,0.54839665,1.5536685,0.4148973,1.2431626,1.37925,-1.442367
297,1778360599.1826725,0.54839665,1.5536685,0.4148973,1.2431626,1.37925,-1.442367
298,1778360599.1935031,1.965393,2.1154883,0.545712,2.480999,1.2066774,-1.6650071
299,1778360599.2036955,2.247523,2.1384296,0.36022848,2.7505107,1.1097383,-2.173138
300,1778360599.2137349,2.3212285,1.9890665,0.035144243,2.4479759,1.201351,-2.8666244
301,1778360599.2237675,2.3212285,1.9890665,0.035144243,2.4479759,1.201351,-2.8666244
302,1778360599.2339466,2.2860842,1.8675259,-0.019036464,2.1550283,1.3622059,-3.0732856
303,1778360599.2444475,1.9990729,1.4135796,0.04002539,1.3720596,1.9246651,-3.4866078
304,1778360599.254975,1.9990729,1.4135796,0.04002539,1.3720596,1.9246651,-3.4866078
305,1778360599.2653167,1.7174308,1.155367,0.053692598,1.1504847,2.0833893,-3.5132394
306,1778360599.2753348,1.4182167,0.91472656,0.08542004,0.93636674,2.2506359,-3.3672984
307,1778360599.285651,1.0277251,0.61502427,0.20305562,0.9310404,2.14624,-2.888995
308,1778360599.2958994,0.9686632,0.45297024,0.24552159,1.1036131,1.879924,-2.468216
309,1778360599.3064075,0.9823304,0.35095432,0.24161668,1.2389016,1.7201345,-2.3031
310,1778360599.3167143,0.97744924,0.20451997,0.1615659,1.4029522,1.5102775,-2.149702
311,1778360599.3271325,0.9515792,0.11275445,0.08151512,1.4444975,1.3952291,-2.0911126
312,1778360599.3375118,0.9017916,0.01854835,-0.00976229,1.4136049,1.2791153,-2.048502
313,1778360599.3476815,0.8363842,-0.13471961,-0.14057697,1.2548805,1.1331742,-1.9845861
314,1778360599.3577516,0.8188121,-0.26455808,-0.22453266,1.042893,1.0159951,-1.9494325
315,1778360599.3681633,0.8402891,-0.36559775,-0.27139166,0.800013,0.88603306,-1.9771293
316,1778360599.3784316,0.8105141,-0.4373506,-0.29530928,0.5837645,0.78270245,-2.0602198
317,1778360599.388458,0.7700006,-0.49446,-0.33582276,0.4367581,0.72730875,-2.1060262
318,1778360599.3985581,0.55718267,-0.6037976,-0.44857723,0.19387798,0.6644582,-2.0335884
319,1778360599.4085813,0.35949633,-0.64138246,-0.49982923,0.054328445,0.61545604,-1.8311882
320,1778360599.4186196,0.1295944,-0.6643238,-0.54961693,-0.08415583,0.51106024,-1.4082786
321,1778360599.4287944,0.024649782,-0.6472398,-0.5779276,-0.20026956,0.28096327,-0.8980172
322,1778360599.439104,0.030019043,-0.6037976,-0.58378494,-0.27590328,0.04234423,-0.525175
323,1778360599.449127,0.0656514,-0.5022698,-0.6164886,-0.40053913,-0.39121807,-0.11930953
324,1778360599.4591525,0.05735345,-0.39927766,-0.6721336,-0.62211394,-0.7299719,0.13741902
325,1778360599.469199,0.05735345,-0.39927766,-0.6721336,-0.62211394,-0.7299719,0.13741902
326,1778360599.4794726,-0.032459613,-0.18694785,-0.6872652,-1.5265228,-0.9739173,0.64874554
327,1778360599.4899728,-0.09396204,-0.10543273,-0.59159476,-1.9419756,-0.92598045,0.9470194
328,1778360599.5004096,-0.091033354,0.025870068,-0.27529657,-2.3446453,-1.0570078,1.487108
329,1778360599.5108986,0.15302388,0.38121742,0.28261828,-2.3180137,-1.3883048,1.9387798
330,1778360599.5212862,0.15302388,0.38121742,0.28261828,-2.0410452,-1.7355808,2.379799
331,1778360599.5316994,0.3321619,0.575487,0.3533949,-1.7086829,-1.9443724,2.8112307
332,1778360599.5419078,0.788549,0.971836,0.38658667,-1.1824427,-2.1542294,3.4919343
333,1778360599.5524206,0.788549,0.971836,0.38658667,-0.95447624,-2.361956,3.6059175
334,1778360599.5624616,1.2971642,1.3872215,0.5091034,-0.95447624,-2.361956,3.6059175
335,1778360599.572996,1.2971642,1.3872215,0.5091034,-0.70733505,-2.5547686,3.5249574
336,1778360599.5830429,1.3820962,1.496071,0.4915313,-0.49747813,-2.6122928,3.3438625
337,1778360599.5932524,1.2844733,1.6078491,0.3431445,-0.38136438,-2.3363895,3.163833
338,1778360599.6035357,1.2844733,1.6078491,0.3431445,-0.38136438,-2.3363895,3.163833
339,1778360599.6140556,1.2395668,1.5917413,0.2757847,-0.4420844,-2.104162,3.1372013
340,1778360599.6245637,1.1775762,1.564407,0.27139166,-0.4569981,-1.8868482,3.0892646
341,1778360599.6350694,1.0609169,1.5268221,0.24259292,-0.4420844,-1.7334503,3.0530455
342,1778360599.645229,0.9091133,1.4301754,0.14057697,-0.3685812,-1.5246586,2.998717
343,1778360599.6556487,0.9091133,1.4301754,0.14057697,-0.3685812,-1.5246586,2.998717
344,1778360599.6658275,0.7294871,1.3452435,-0.06443111,-0.33023173,-1.3925658,2.6929865
345,1778360599.6763048,0.7294871,1.3452435,-0.06443111,-0.41119176,-1.3094753,2.496978
346,1778360599.686387,0.59867245,1.2368821,-0.19134088,-0.5209139,-1.218928,2.2977736
347,1778360599.696658,0.47127452,1.1866064,-0.16303024,-0.7084003,-1.06553,1.9888473
348,1778360599.7068152,0.38780698,1.1143653,-0.071264714,-0.8234488,-0.8940225,1.7449019
349,1778360599.716884,0.33362624,1.052863,0.04637088,-0.84475404,-0.657534,1.4796512
350,1778360599.7271733,0.27554062,1.0265048,0.18645974,-0.7499456,-0.43595913,1.1494194
351,1778360599.7374513,0.20964517,1.0084445,0.26162934,-0.5816339,-0.26658222,0.83942777
352,1778360599.747647,0.061258372,0.97037166,0.30360723,-0.23968431,0.021038957,0.32490543
353,1778360599.7577229,-0.17596528,0.9298581,0.2894519,0.008522109,0.09986847,0.16511586
354,1778360599.767741,-0.36388937,0.9371798,0.24552159,0.32703593,0.14780533,-0.027696855
355,1778360599.7781124,-0.41758195,0.9508471,0.23380683,0.5006739,0.14247902,-0.10226531
356,1778360599.7883565,-0.3619369,0.959145,0.25772443,0.62530977,0.16804534,-0.17683376
357,1778360599.7984064,-0.2716357,0.96451426,0.29042813,0.743554,0.26391906,-0.30253488
358,1778360599.8087327,-0.12715383,0.9776934,0.3328941,0.9353015,0.61545604,-0.5635245
359,1778360599.8187528,-0.0026846298,0.9767171,0.34168017,1.0620679,0.9574057,-0.779773
360,1778360599.8287683,0.06613952,0.9776934,0.34070393,1.1622026,1.2141342,-0.97045517
361,1778360599.8391402,0.12422514,1.0177187,0.34851375,1.2793816,1.4389049,-1.2058785
362,1778360599.8494837,0.15839316,1.0553036,0.3743838,1.4082786,1.5976292,-1.4753902
363,1778360599.8598757,0.11348662,1.0967933,0.42368335,1.5435671,1.6913724,-1.608548
364,1778360599.870094,0.07199689,1.150974,0.47395915,1.6703334,1.7233303,-1.6032218
365,1778360599.8806038,0.07199689,1.150974,0.47395915,1.6703334,1.7233303,-1.6032218
366,1778360599.890695,0.13935669,1.4355447,0.7053254,2.7856643,1.3941638,-0.468716
367,1778360599.9009044,0.6572462,1.6449459,0.8473667,2.7856643,1.3941638,-0.468716
368,1778360599.9114408,1.1678139,1.7523311,0.9088692,3.2192268,1.0841721,-0.4335623
369,1778360599.921858,1.6388444,1.9202425,0.87274873,3.7348144,0.590955,-0.64235395
370,1778360599.9319024,2.0986483,2.0486166,0.59842837,4.00113,0.12969585,-0.9960215
371,1778360599.9420288,2.634598,1.9988288,0.05418071,3.224553,0.25007063,-1.9483672
372,1778360599.9523978,2.6834095,1.9280523,-0.046858992,2.6077654,0.76246244,-2.1369188
373,1778360599.9628901,2.681945,1.7801535,-0.0053692595,1.8780597,1.5816501,-2.246641
374,1778360599.9733007,2.681945,1.7801535,-0.0053692595,1.8780597,1.5816501,-2.246641
375,1778360599.9836433,2.4998784,1.4140676,0.29091623,1.1909647,2.7225475,-2.2679462
376,1778360599.9936984,2.4998784,1.4140676,0.29091623,1.1909647,2.7225475,-2.2679462
377,1778360600.0039258,2.1630795,0.87226063,0.4144092,1.4072132,2.7608972,-2.489521
378,1778360600.014349,1.888271,0.6325964,0.31581008,1.5670028,2.5563664,-2.64718
379,1778360600.0243945,1.888271,0.6325964,0.31581008,1.5670028,2.5563664,-2.64718
380,1778360600.0345259,1.3010693,0.30019042,0.07809832,1.6128092,2.3752716,-2.6919212
381,1778360600.0447092,1.0667742,0.16351835,0.0053692595,1.3688638,2.1739368,-2.4501064
382,1778360600.0547283,1.0667742,0.16351835,0.0053692595,1.3688638,2.1739368,-2.4501064
383,1778360600.0648465,0.83443177,-0.08297946,0.10396838,1.0769815,1.904425,-2.0250661
384,1778360600.0748737,0.7909895,-0.16595893,0.15717287,1.09083,1.7393092,-1.8897777
385,1778360600.0850828,0.76756,-0.23966423,0.17084008,1.1462237,1.6114776,-1.8162745
386,1778360600.0951517,0.7143555,-0.3612047,0.15424417,1.2580763,1.4538186,-1.7502282
387,1778360600.1053383,0.64016217,-0.46078008,0.111290105,1.3432975,1.3313133,-1.7204008
388,1778360600.115609,0.5112999,-0.5657247,0.049299564,1.4327796,1.1704584,-1.6628765
389,1778360600.1260915,0.41074833,-0.6242984,-0.010738519,1.4434322,1.0586058,-1.5861776
390,1778360600.1363933,0.30433938,-0.681896,-0.08688438,1.4146701,0.97871095,-1.4796512
391,1778360600.146728,0.16473864,-0.76194674,-0.20793676,1.248489,0.88816357,-1.2410321
392,1778360600.1571455,0.07687803,-0.8112463,-0.28408262,1.0237184,0.83916146,-0.9906952
393,1778360600.1675408,-0.00024405724,-0.8327233,-0.3270367,0.7648593,0.8157256,-0.7105309
394,1778360600.177996,-0.04905551,-0.8371163,-0.3499781,0.7648593,0.8157256,-0.7105309
395,1778360600.1881223,-0.087616555,-0.8351639,-0.35485923,0.32384014,0.805073,-0.1842906
396,1778360600.1984448,-0.12568948,-0.82247293,-0.36510965,0.18002956,0.79442036,0.045806337
397,1778360600.2084665,-0.21891935,-0.7878168,-0.42075467,-0.03834949,0.7507445,0.5070655
398,1778360600.2186353,-0.3053156,-0.750232,-0.48713827,-0.21731378,0.65806663,0.9044088
399,1778360600.2287154,-0.37804466,-0.69556314,-0.5632841,-0.43569282,0.4588623,1.3986912
400,1778360600.238983,-0.41807005,-0.6355251,-0.6277153,-0.6551371,0.22556958,1.8695377
401,1778360600.249131,-0.47810817,-0.5603554,-0.67750293,-0.8958867,-0.112119,2.4149528
402,1778360600.2596457,-0.37755656,-0.39342028,-0.69165826,-1.3869733,-0.8684562,3.6517239
403,1778360600.2696707,0.041245673,-0.26992732,-0.5701177,-1.6671376,-1.4074796,4.509261
404,1778360600.2797198,0.68604493,-0.0873725,-0.41733786,-1.8066871,-1.8367808,5.1015477
405,1778360600.289742,1.2327331,0.11324256,-0.30604777,-1.8311882,-1.9848524,5.284773
406,1778360600.3000886,1.7828381,0.4217309,-0.23478307,-1.8556893,-1.8559556,5.2091393
407,1778360600.3103235,2.1821158,0.7912336,-0.24405725,-2.0559587,-1.2061448,4.9556065
408,1778360600.3203847,2.324157,1.0138137,-0.2806658,-2.3254704,-0.5009402,4.812861
409,1778360600.330663,2.3671112,1.1802609,-0.20696054,-2.787795,0.6122603,4.674377
410,1778360600.340907,2.3558846,1.291551,-0.0302631,-2.9731507,1.071389,4.598743
411,1778360600.3509781,2.4954853,1.5097381,0.54717636,-2.4501064,0.6697845,4.053328
412,1778360600.3610013,2.4954853,1.5097381,0.54717636,-2.4501064,0.6697845,4.053328
413,1778360600.3714328,2.506712,1.5883245,0.73412424,-1.7363797,0.11371689,3.5281532
414,1778360600.381905,2.4232442,1.6298143,0.78684056,-0.8958867,-0.366717,2.937997
415,1778360600.3924072,1.9619763,1.5805148,0.52033,-0.25672853,-0.5371592,2.48526
416,1778360600.4024415,1.512911,1.4843562,0.16742326,0.6657898,-0.3230412,1.733184
417,1778360600.4133637,1.3171769,1.4213893,0.006345488,0.69348663,-0.15579481,1.5499586
418,1778360600.4236214,1.3171769,1.4213893,0.006345488,0.69348663,-0.15579481,1.5499586
419,1778360600.4336443,1.0980135,1.3188853,-0.1483868,0.57311183,-0.04607265,1.3603417
420,1778360600.4441528,0.7807391,1.1773322,-0.19622204,0.26738116,0.03062633,0.9906952
421,1778360600.4541936,0.58256465,1.0855666,-0.16937573,0.091612674,0.07962846,0.76059824
422,1778360600.4642124,0.4356422,1.0245523,-0.13716017,-0.026631592,0.14460954,0.5677855
423,1778360600.4744701,0.3287451,0.9869675,-0.088348724,-0.07563372,0.2159822,0.40906125
424,1778360600.484627,0.3287451,0.9869675,-0.088348724,-0.07563372,0.2159822,0.40906125
425,1778360600.4948704,0.07541369,0.916679,0.061502427,-0.006391582,0.34807488,-0.008522109
426,1778360600.5053153,0.0134231495,0.89617825,0.110801995,0.08628636,0.36085805,-0.1523327
427,1778360600.5158184,-0.011470691,0.882511,0.14204131,0.23968431,0.32037804,-0.32384014
428,1778360600.5261524,-0.011470691,0.882511,0.14204131,0.23968431,0.32037804,-0.32384014
429,1778360600.536565,0.0046370877,0.8439499,0.18450728,0.5677855,0.23728748,-0.6636593
430,1778360600.5466201,0.031483386,0.84102124,0.19817449,0.7211835,0.27244118,-0.81918776
431,1778360600.5568335,0.09884319,0.8454143,0.2294138,0.8586025,0.37577176,-0.9757815
432,1778360600.5672204,0.19451363,0.86201024,0.260165,0.99708676,0.5834982,-1.17179
433,1778360600.5774267,0.27212384,0.88836837,0.27724904,1.074851,0.7550056,-1.2996217
434,1778360600.587736,0.27212384,0.88836837,0.27724904,1.1419626,0.9467531,-1.4455627
435,1778360600.5981436,0.42099872,0.9859913,0.32459614,1.2591416,1.2652669,-1.6905735
436,1778360600.6082828,0.42099872,1.0338265,0.38463423,1.3677986,1.3803153,-1.7406408
437,1778360600.618686,0.53228885,1.2036903,0.62478656,1.7662071,1.2418311,-1.5467628
438,1778360600.629054,0.7743936,1.3286476,0.83028275,2.2636852,0.8977509,-1.2921648
439,1778360600.639086,1.2634844,1.4165082,0.976229,3.0700898,0.30226856,-1.0205226
440,1778360600.6491094,1.7306099,1.4306636,0.97037166,3.8860817,-0.229298,-0.9203878
441,1778360600.6591341,2.3588133,1.4946066,0.7614586,4.5412188,-0.56485605,-1.054611
442,1778360600.669625,2.7478404,1.5546447,0.4300289,4.818187,-0.7438203,-1.4327796
443,1778360600.6798286,2.9284427,1.5551329,0.025381953,4.6275053,-0.8194541,-1.9760641
444,1778360600.6903439,2.9343002,1.5282865,-0.27432033,4.157724,-0.76086456,-2.416018
445,1778360600.7003891,2.7942114,1.4501882,-0.50763905,3.3151004,-0.5020055,-2.8421235
446,1778360600.7109046,2.5233078,1.2837411,-0.54815257,2.197639,0.0061252657,-3.167029
447,1778360600.7213988,2.233856,1.052863,-0.36706212,1.2548805,0.4791023,-3.2682288
448,1778360600.731887,2.0644803,0.8937377,-0.2323425,0.804274,0.744353,-3.2256184
449,1778360600.7419224,1.7520871,0.5994046,0.008786061,0.49428234,0.9936247,-3.1329403
450,1778360600.7522619,1.5890567,0.43491003,0.11373068,0.21305273,1.3014859,-2.896452
451,1778360600.762784,1.4675162,0.307024,0.174745,0.23755379,1.1906984,-2.8495803
452,1778360600.7732797,1.4675162,0.307024,0.174745,0.23755379,1.1906984,-2.8495803
453,1778360600.7836356,1.3493925,0.19231711,0.21281794,0.29188225,1.0543447,-2.841058
454,1778360600.7938037,1.1365746,-0.0156196635,0.23771177,0.40053913,0.9084036,-2.8091002
455,1778360600.8041613,1.0194272,-0.12202863,0.2362474,0.40053913,0.9084036,-2.8091002
456,1778360600.8143363,1.0194272,-0.12202863,0.2362474,0.4655202,0.9094688,-2.7174876
457,1778360600.8243616,0.9056965,-0.23087814,0.22599702,0.5305013,0.95847094,-2.6130917
458,1778360600.834631,0.81978834,-0.3162982,0.21037734,0.5922866,1.03517,-2.5076306
459,1778360600.844727,0.68653303,-0.43051702,0.17523311,0.723314,1.0969552,-2.3361232
460,1778360600.8547528,0.5864696,-0.5183776,0.13227904,0.8617983,1.0639321,-2.2008348
461,1778360600.8651395,0.5864696,-0.5183776,0.13227904,0.8617983,1.0639321,-2.2008348
462,1778360600.8756633,0.48835856,-0.5847612,0.062478654,0.957672,1.019191,-2.1028304
463,1778360600.8860302,0.35559142,-0.66969305,-0.051740136,0.9821731,0.96805835,-2.028262
464,1778360600.8964672,0.2677308,-0.70971847,-0.11665936,0.9310404,0.85833615,-1.7853819
465,1778360600.9064891,0.15936938,-0.7238738,-0.18694785,0.8085351,0.7912246,-1.5616765
466,1778360600.9166765,0.08664032,-0.72338563,-0.23673552,0.6551371,0.7571361,-1.3635374
467,1778360600.9271808,0.015375607,-0.70923036,-0.26553428,0.6551371,0.7571361,-1.3635374
468,1778360600.9372022,-0.04515059,-0.6828722,-0.2796896,0.3483412,0.7230477,-0.973651
469,1778360600.9473934,-0.1330112,-0.6545615,-0.29433304,0.23968431,0.7507445,-0.79255617
470,1778360600.957418,-0.23112221,-0.614048,-0.3436326,0.0937432,0.89242464,-0.4069307
471,1778360600.9675272,-0.31947094,-0.5862255,-0.41294485,-0.0010652636,1.0522141,-0.08628636
472,1778360600.9775484,-0.31947094,-0.5862255,-0.41294485,-0.0010652636,1.0522141,-0.08628636
473,1778360600.9879596,-0.45321432,-0.5554743,-0.50031734,-0.115048476,1.1640668,0.31425276
474,1778360600.9980364,-0.78366786,-0.43832684,-0.72485006,-0.56672025,0.7699193,1.7619461
475,1778360601.00806,-0.78366786,-0.43832684,-0.72485006,-0.56672025,0.7699193,1.7619461
476,1778360601.0184898,-0.7753699,-0.3236199,-0.84883106,-1.0034784,0.26072326,2.815492
477,1778360601.028613,-0.3824377,-0.20403185,-0.77414954,-1.4924344,-0.2729738,3.8807554
478,1778360601.0387874,0.25601605,-0.021965152,-0.511544,-1.8120135,-0.76938665,4.6765075
479,1778360601.048808,1.5295068,0.44857723,-0.14008886,-1.906822,-1.0570078,4.982238
480,1778360601.0589335,2.285108,0.71020657,0.04002539,-1.8130788,-0.4700476,4.3750377
481,1778360601.0689585,2.3261096,0.84883106,0.09030118,-1.717205,0.21811274,3.8679724
482,1778360601.0793505,2.1045055,0.9601213,0.1313028,-1.616005,0.728374,3.652789
483,1778360601.0898142,1.9414753,1.0089327,0.15326795,-1.430649,1.0586058,3.628288
484,1778360601.099963,1.8614246,1.0435888,0.1683995,-1.2175963,1.0468879,3.7337492
485,1778360601.1104028,1.9453802,1.0748281,0.20403185,-0.73609716,0.574976,3.8200355
486,1778360601.1204443,2.028848,1.1187584,0.27139166,-0.24820642,0.07217161,3.684747
487,1778360601.1304855,2.0498369,1.154879,0.29433304,0.20879167,-0.31238857,3.5121741
488,1778360601.1409092,1.9878463,1.1534146,0.22843759,0.7616635,-0.60533607,3.2597067
489,1778360601.1511714,1.8951045,1.138283,0.10592084,1.1036131,-0.67351294,3.0594373
490,1778360601.1614256,1.7696592,1.142676,-0.097134784,1.3752553,-0.64688134,2.784599
491,1778360601.1718123,1.6149268,1.1641531,-0.27139166,1.385908,-0.5478118,2.4479759
492,1778360601.1819012,1.4811834,1.2007617,-0.38316986,1.2229227,-0.46152547,2.1550283
493,1778360601.1924427,1.3576905,1.2290722,-0.43539813,1.0013478,-0.3816307,1.9334536
494,1778360601.202942,1.2254114,1.249085,-0.4544346,0.25459802,-0.020506324,1.4295838
495,1778360601.2133493,1.0335824,1.2476206,-0.4002539,0.25459802,-0.020506324,1.4295838
496,1778360601.2236414,0.91204196,1.2398108,-0.29530928,-0.0010652636,0.1691106,1.2218574
497,1778360601.2339497,0.81295466,1.2383465,-0.18792409,-0.12144005,0.30120328,1.0460889
498,1778360601.2443354,0.81295466,1.2383465,-0.18792409,-0.12144005,0.30120328,1.0460889
499,1778360601.2548506,0.81295466,1.2383465,-0.18792409,-0.12144005,0.30120328,1.0460889
500,1778360601.2653613,0.32093528,1.2032022,0.25284332,0.3046654,0.6218476,0.35366753
501,1778360601.275455,0.29018408,1.1856301,0.3704789,0.6732466,0.57604134,0.22370537
502,1778360601.2856383,0.29506522,1.1787965,0.45931572,1.1419626,0.4854939,0.07882951
503,1778360601.295746,0.3214234,1.1636649,0.48909074,1.7363797,0.37470648,-0.12250532
504,1778360601.3060193,0.345341,1.138771,0.47103047,2.1550283,0.3800328,-0.28336012
505,1778360601.3165176,0.3648656,1.1197346,0.45297024,2.420279,0.4418181,-0.4069307
506,1778360601.3265426,0.3648656,1.1197346,0.45297024,2.420279,0.4418181,-0.4069307
507,1778360601.336911,0.43320164,1.0611609,0.46761367,2.8698204,0.6388919,-0.6210487
508,1778360601.3473902,0.54790854,1.0172306,0.51349646,3.1286793,0.7795067,-0.7478151
509,1778360601.3577242,0.6665203,1.0069802,0.5720702,3.3726246,0.84555304,-0.840493
510,1778360601.3677616,0.8095379,1.0157663,0.6228341,3.641071,0.8402267,-0.9150615
511,1778360601.3782322,0.97403246,1.0050278,0.65993077,3.9105828,0.784833,-0.97897726
512,1778360601.3886201,1.1097283,1.001611,0.7067898,4.1257663,0.70919925,-1.0333058
513,1778360601.398889,1.351345,1.0079564,0.7883049,4.455998,0.5653887,-1.1174616
514,1778360601.4089108,1.6266416,1.0245523,0.84785485,4.7372274,0.4556665,-1.2197269
515,1778360601.4194407,1.8921759,1.048958,0.87616557,5.0035434,0.37151068,-1.3912343
516,1778360601.42995,2.0791237,1.090936,0.818568,5.183573,0.28202856,-1.6032218
517,1778360601.4401329,2.2279985,1.1495095,0.7243619,5.188899,0.14034848,-1.8258619
518,1778360601.4503644,2.3431935,1.1905112,0.6643238,5.066394,0.041278966,-1.9994998
519,1778360601.4603922,2.5501542,1.2095478,0.61209553,4.6850295,0.073236875,-2.2551632
520,1778360601.4704266,2.7336853,1.1568314,0.6028214,4.1726375,0.38429385,-2.5992434
521,1778360601.4807181,2.8254507,1.069947,0.61795294,3.813644,0.687894,-2.9039087
522,1778360601.490848,2.8254507,1.069947,0.61795294,3.813644,0.687894,-2.9039087
523,1778360601.5008984,2.6243474,0.78537625,0.6291796,3.0210876,1.3717933,-3.6378753
524,1778360601.511301,2.2943823,0.541319,0.6716455,2.5438495,1.7254608,-4.052263
525,1778360601.521762,1.995656,0.353883,0.7326599,2.3979084,1.8021598,-4.1566586
526,1778360601.5319037,1.7452533,0.21428227,0.81417495,2.3297315,1.7510271,-4.1683764
527,1778360601.5424252,1.6212723,0.12349297,0.873725,2.3712769,1.6263913,-4.1396146
528,1778360601.5529094,1.5212089,0.011226633,0.89715445,2.715357,1.2524837,-4.067177
529,1778360601.5634263,1.4401819,-0.107873306,0.83760446,2.715357,1.2524837,-4.067177
530,1778360601.5736237,1.3132721,-0.23722363,0.6369894,2.8346665,1.0255826,-3.9904776
531,1778360601.5841217,1.3132721,-0.23722363,0.6369894,2.784599,0.9371657,-3.9744987
532,1778360601.5944731,1.2639725,-0.3099527,0.47981656,2.6844645,0.8892288,-3.9851513
533,1778360601.604797,1.1888028,-0.38170552,0.37877685,2.4138875,0.8998815,-4.0501323
534,1778360601.615064,1.0941086,-0.45297024,0.32850105,2.2050958,0.96805835,-4.092743
535,1778360601.625588,1.0941086,-0.45297024,0.32850105,2.2050958,0.96805835,-4.092743
536,1778360601.6356666,0.9642702,-0.52911615,0.2801777,2.004826,1.1044121,-4.071438
537,1778360601.6456888,0.7133793,-0.6155124,0.21721096,1.7150744,1.3685975,-3.8338838
538,1778360601.6561894,0.5137405,-0.6384538,0.1889003,1.559546,1.5369091,-3.4514542
539,1778360601.666211,0.5137405,-0.6384538,0.1889003,1.559546,1.5369091,-3.4514542
540,1778360601.676273,0.3585201,-0.626739,0.14936304,1.5318491,1.5859113,-2.7728813
541,1778360601.6863875,0.3214234,-0.6203935,0.111290105,1.5542196,1.5912375,-2.5225444
542,1778360601.696415,0.23844394,-0.5964759,0.051740136,1.5712639,1.6114776,-2.2636852
543,1778360601.7069085,0.18084641,-0.5559624,-0.034168016,1.5733944,1.6647408,-1.7246618
544,1778360601.7170806,0.14716652,-0.5252112,-0.12739788,1.5393059,1.7712672,-1.3390363
545,1778360601.7273874,0.11251039,-0.48616204,-0.20451997,1.4551501,1.8756629,-0.9257141
546,1778360601.7377317,0.11251039,-0.48616204,-0.20451997,1.4551501,1.8756629,-0.9257141
547,1778360601.748057,0.10714114,-0.43149322,-0.28505886,1.3464932,2.037583,-0.24181485
548,1778360601.758597,0.053936653,-0.37291947,-0.37243137,1.2783164,2.1941767,0.27057695
549,1778360601.7690487,0.010982576,-0.31385764,-0.4724948,1.1803122,2.2975073,0.7286403
550,1778360601.7793987,0.0012202862,-0.2801777,-0.54034275,1.0226531,2.3752716,1.2207922
551,1778360601.789709,0.015375607,-0.26065314,-0.6169767,0.80746984,2.4572968,1.7299881
552,1778360601.7997327,0.042221904,-0.24845028,-0.6667644,0.62530977,2.5041685,2.1390493
553,1778360601.810172,0.12422514,-0.21721096,-0.71948075,0.3696465,2.542518,2.6695507
554,1778360601.8202188,0.21891935,-0.16351835,-0.7165521,0.060720026,2.493516,3.3204267
555,1778360601.8304656,0.21891935,-0.16351835,-0.7165521,-0.18322535,2.2378526,3.9989996
556,1778360601.8409293,0.694831,-0.016107777,-0.49006698,-0.2194443,1.9630146,4.3271008
557,1778360601.8509467,0.9242448,0.044418417,-0.35193056,-0.11398321,1.6359786,4.517783
558,1778360601.8613396,1.2112561,0.19036464,-0.17767367,0.27909908,1.1257174,4.598743
559,1778360601.8717263,1.5495194,0.33094162,-0.1986626,1.115331,0.74967927,4.3302965
560,1778360601.8819008,1.5495194,0.33094162,-0.1986626,1.115331,0.74967927,4.3302965
561,1778360601.8920853,1.5338998,0.38561043,-0.33875147,1.3422322,0.8327699,4.144941
562,1778360601.902501,1.4811834,0.43588626,-0.4554108,1.3518195,0.9158604,4.0703726
563,1778360601.9130907,1.5060773,0.53936654,-0.5710939,0.93956256,1.0404962,4.044806
564,1778360601.9233143,1.5060773,0.53936654,-0.5710939,0.93956256,1.0404962,4.044806
565,1778360601.9335244,1.5597699,0.609655,-0.4407674,0.81918776,0.9488836,4.0458713
566,1778360601.9437096,1.7130377,0.68384844,-0.24942651,0.90760463,0.7635277,3.984086
567,1778360601.9538095,1.9239032,0.83125895,-0.05027579,1.5616765,0.5941508,3.3108394
568,1778360601.9642007,1.8794849,0.8932495,-0.10689708,1.8311882,0.6303698,2.917757
569,1778360601.9742315,1.7208476,0.9225364,-0.23331872,2.0474367,0.77098453,2.3584938
570,1778360601.9843388,1.7208476,0.9225364,-0.23331872,2.0474367,0.77098453,2.3584938
571,1778360601.9943538,1.3376778,0.9488945,-0.37243137,1.9813904,1.0618016,1.7598156
572,1778360602.0046718,1.1443844,0.9752528,-0.38561043,1.8098829,1.2407658,1.5148048
573,1778360602.0148387,1.0501783,1.0045396,-0.3236199,1.7054871,1.3238564,1.2964258
574,1778360602.0250697,1.0501783,1.0045396,-0.3236199,1.7054871,1.3238564,1.2964258
575,1778360602.035595,0.9545079,1.040172,-0.23673552,1.7033565,1.3217258,1.0002825
576,1778360602.0459123,0.8402891,1.07434,-0.16400647,1.7704681,1.2460922,0.6476803
577,1778360602.056391,0.63332856,1.0689708,-0.10152781,1.9238662,1.0724542,-0.025566328
578,1778360602.066823,0.54253924,1.0431006,-0.053204484,1.9771293,1.039431,-0.31851384
579,1778360602.077037,0.53180075,1.0201592,0.006345488,2.0186746,1.0245173,-0.4623244
580,1778360602.087136,0.5845171,1.0045396,0.13179092,2.0186746,1.0245173,-0.4623244
581,1778360602.09755,0.68653303,1.0143019,0.24015234,2.3616896,0.8998815,-0.8862994
582,1778360602.107882,0.780251,1.019183,0.32947728,2.7206833,0.83916146,-1.3326448
583,1778360602.1184042,0.8305268,1.0143019,0.2997023,2.9497151,0.88816357,-1.7246618
584,1778360602.1286762,0.8305268,1.0143019,0.2997023,2.9497151,0.88816357,-1.7246618
585,1778360602.1391737,0.93937635,1.0806855,0.19475769,2.981673,1.2301131,-2.4096262
586,1778360602.149679,1.0252845,1.1192465,0.19768637,2.8996477,1.4282522,-2.6802034
587,1778360602.1597033,1.1229074,1.1768441,0.31532198,2.857037,1.6711323,-3.0083046
588,1778360602.1697674,1.1878266,1.2315128,0.49934113,3.0434582,1.6711323,-3.1265488
589,1778360602.1799064,1.4113832,1.3100992,0.6789673,3.4567804,1.4101428,-3.1606371
590,1778360602.190394,1.7086449,1.3667207,0.74535084,3.8679724,1.1054773,-3.2426624
591,1778360602.2008657,2.0991364,1.4575099,0.71167094,4.360124,0.77418035,-3.4258878
592,1778360602.2108905,2.5032952,1.6537318,0.48665017,4.6445494,0.40772966,-3.6517239
593,1778360602.2213986,2.8776789,1.7825942,0.28164205,4.5358925,0.16271903,-3.907387
594,1778360602.231906,3.1890962,1.8138335,0.11373068,4.1641154,0.052996866,-4.2493367
595,1778360602.2423468,3.3491976,1.7733198,0.020012695,3.7262921,0.061518975,-4.58596
596,1778360602.2525914,3.4116762,1.6600775,0.020500809,3.1127005,0.13502216,-5.0120654
597,1778360602.2626517,3.3008742,1.48338,0.08786061,2.5481107,0.24474432,-5.365733
598,1778360602.27285,3.055841,1.1856301,0.15375607,1.9845861,0.37896755,-5.648028
599,1778360602.2829363,2.7449117,0.94157284,0.17767367,1.5744597,0.4801676,-5.73751
600,1778360602.2932682,2.5096407,0.77512586,0.20305562,1.2900343,0.5653887,-5.7066174
601,1778360602.3033595,2.2607024,0.58280873,0.23429495,1.014131,0.60480344,-5.5862427
602,1778360602.3138156,1.9395229,0.1683995,0.2626056,0.5017392,0.49401602,-5.289034
603,1778360602.324179,1.9395229,0.1683995,0.2626056,0.5017392,0.49401602,-5.289034
604,1778360602.3342037,1.7725879,0.0019524579,0.2997023,0.31212226,0.48655918,-5.2102046
605,1778360602.3446364,1.6007715,-0.12349297,0.32557237,0.18216008,0.49082023,-5.1335053
606,1778360602.354819,1.2424954,-0.34460884,0.35144243,-0.035153702,0.59628135,-4.791556
607,1778360602.365095,0.9364477,-0.50617474,0.3773125,-0.09906952,0.8114646,-4.3984737
608,1778360602.3753097,0.7743936,-0.5774395,0.37633628,-0.059654765,1.019191,-4.048002
609,1778360602.3857822,0.7743936,-0.5774395,0.37633628,-0.059654765,1.019191,-4.048002
610,1778360602.3959289,0.59086263,-0.6535853,0.36755022,0.1757685,1.3004206,-3.4152353
611,1778360602.4063518,0.49470404,-0.69165826,0.30604777,0.6040045,1.3579448,-2.8293402
612,1778360602.4168365,0.47469133,-0.70239675,0.24600971,0.8372972,1.273789,-2.5907211
613,1778360602.4273663,0.44735694,-0.71313524,0.16595893,1.0482194,1.1267827,-2.3989737
614,1778360602.437707,0.3917119,-0.7238738,0.058085624,1.2175963,0.91692567,-2.1923125
615,1778360602.448048,0.3380193,-0.7307074,-0.03807293,1.2804469,0.74967927,-2.0335884
616,1778360602.4583127,0.28335047,-0.737541,-0.13179092,1.2602069,0.6016076,-1.858885
617,1778360602.4683506,0.17889395,-0.7507201,-0.26211748,1.0769815,0.49827707,-1.5148048
618,1778360602.4784184,0.110557936,-0.7477914,-0.33045352,0.8777772,0.5408876,-1.2229227
619,1778360602.4887652,0.057841565,-0.7438865,-0.3904916,0.6476803,0.63569605,-0.89269096
620,1778360602.498784,0.057841565,-0.7438865,-0.3904916,0.6476803,0.63569605,-0.89269096
621,1778360602.5088255,-0.076389916,-0.7038611,-0.5266756,0.056458972,0.8466183,-0.16831166
622,1778360602.518951,-0.14911897,-0.6897058,-0.5623079,-0.18961693,0.8444877,0.10865689
623,1778360602.5289738,-0.23014598,-0.6633476,-0.5872018,-0.51345706,0.744353,0.4868255
624,1778360602.539238,-0.30287504,-0.61941725,-0.575487,-0.80320877,0.57178026,0.9001478
625,1778360602.549815,-0.33899552,-0.58232063,-0.5549862,-0.998152,0.3832286,1.2655332
626,1778360602.5603397,-0.33997175,-0.5559624,-0.5383903,-1.2058785,0.13502216,1.7640766
627,1778360602.5705068,-0.2506468,-0.5227706,-0.49250755,-1.4125396,-0.15792534,2.4074957
628,1778360602.5809093,-0.14716652,-0.45785138,-0.42661208,-1.5201312,-0.40719703,2.9518456
629,1778360602.5909686,-0.030019043,-0.37145513,-0.35241866,-1.5361102,-0.6532729,3.5292184
630,1778360602.601411,0.1598575,-0.2865232,-0.3031191,-1.4998912,-0.8482162,3.9851513
631,1778360602.6118722,0.5859815,-0.12007617,-0.24161668,-1.3965607,-1.1230541,4.5316315
632,1778360602.6218944,0.97696114,0.048323333,-0.20500809,-1.13131,-1.4383723,4.78836
633,1778360602.6320736,1.3020455,0.23185438,-0.20451997,-1.13131,-1.4383723,4.78836
634,1778360602.6424193,1.4680043,0.41977844,-0.23136626,-1.0631331,-1.4873743,4.7627935
635,1778360602.6528544,1.6549523,0.74193406,-0.23819989,-1.2005521,-1.4277196,4.9641285
636,1778360602.6631372,1.7803977,0.87958235,-0.1718163,-1.2740554,-1.3574122,5.079177
637,1778360602.6735094,1.7803977,0.87958235,-0.1718163,-1.2740554,-1.3574122,5.079177
638,1778360602.6836126,1.9287844,1.0562798,-0.0776102,-1.2516848,-1.30841,5.171855
639,1778360602.69371,2.2909653,1.3369455,0.02831064,-1.1856384,-1.2988226,5.1771812
640,1778360602.7041075,2.396398,1.4160202,0.012690976,-1.0088047,-1.1049447,4.7372274
641,1778360602.714244,2.3119543,1.4721533,-0.025381953,-0.98856467,-0.7661909,4.210987
642,1778360602.7243938,2.3119543,1.4721533,-0.025381953,-0.98856467,-0.7661909,4.210987
643,1778360602.7344267,2.1162202,1.50925,-0.030751213,-1.0375668,-0.53502864,3.850928
644,1778360602.7444413,1.7281694,1.4526287,-0.005857374,-1.135571,-0.29427907,3.4152353
645,1778360602.7545943,1.5670916,1.4296874,0.06687169,-1.0993521,-0.29001802,3.2224226
646,1778360602.7648628,1.5031487,1.4126034,0.111290105,-1.0013478,-0.31451908,3.0168266
647,1778360602.775289,1.4157761,1.3842927,0.08688438,-0.90334356,-0.31025803,2.7355971
648,1778360602.7857006,1.2942356,1.363792,0.049299564,-0.8586025,-0.29747486,2.4277358
649,1778360602.7961595,1.1648853,1.343291,0.027334413,-0.8735162,-0.28362644,2.1848557
650,1778360602.806391,0.95646036,1.2969202,0.0024405725,-0.95660675,-0.20479694,1.8684725
651,1778360602.8168046,0.8251576,1.2456682,0.0043930304,-1.0684594,-0.079095826,1.6192007
652,1778360602.8268282,0.7080101,1.1973449,0.033191785,-1.1739205,0.063649505,1.341167
653,1778360602.8368526,0.7080101,1.1973449,0.033191785,-1.1739205,0.063649505,1.341167
654,1778360602.8470707,0.44491637,1.1089962,0.09859913,-1.2815121,0.26818013,0.8309056
655,1778360602.857095,0.28286234,1.0689708,0.14204131,-1.3028175,0.3832286,0.5720466
656,1778360602.8674812,0.11202228,1.0313859,0.20842488,-1.2559458,0.50679916,0.29720855
657,1778360602.8775043,0.015375607,1.0138137,0.25528386,-1.1472889,0.5643234,0.12144005
658,1778360602.887851,0.015375607,1.0138137,0.25528386,-1.1472889,0.5643234,0.12144005
659,1778360602.8980596,0.0026846298,0.9938011,0.28798756,-0.8383625,0.60267293,-0.15978955
660,1778360602.9085553,0.070532545,0.99965847,0.29482117,-0.6764424,0.62504345,-0.3163833
661,1778360602.918705,0.20183535,1.0504224,0.29774985,-0.35792857,0.69215506,-0.64874554
662,1778360602.928808,0.25943285,1.0767806,0.25284332,-0.14913692,0.80081195,-0.8777772
663,1778360602.9390614,0.3619369,1.0860548,0.19573392,-0.026631592,0.91159934,-1.0471542
664,1778360602.9490943,0.48494175,1.1129011,0.13081467,0.08415583,1.03517,-1.2655332
665,1778360602.9595625,0.613804,1.185142,0.04002539,0.17044218,1.1171952,-1.466868
666,1778360602.9696958,0.7412019,1.2393227,0.01513155,0.21518326,1.07565,-1.5904386
667,1778360602.9800467,1.0116173,1.3359693,0.036120474,0.29720855,0.9606015,-1.7363797
668,1778360602.9900706,1.1800168,1.4018649,0.07224095,0.40906125,0.8103993,-1.8429061
669,1778360603.0003047,1.4445748,1.4555575,0.14399378,0.6040045,0.58882445,-1.9228009
670,1778360603.0106988,1.8253042,1.4858205,0.21623473,0.820253,0.4269044,-2.0133483
671,1778360603.0209086,2.1723535,1.4989996,0.25870067,1.2452931,0.22876537,-2.2775338
672,1778360603.030933,2.4764488,1.5561091,0.20500809,1.6958997,0.15952323,-2.618418
673,1778360603.041061,2.6238594,1.5595258,0.10396838,1.9387798,0.19574219,-2.868755
674,1778360603.0510783,2.6868262,1.5292627,-0.09322987,2.0719378,0.29800752,-3.1808772
675,1778360603.061604,2.5643096,1.3564702,-0.4515059,1.8940388,0.45247072,-3.4780858
676,1778360603.0716836,2.5643096,1.3564702,-0.4515059,1.5957649,0.54195285,-3.6176353
677,1778360603.0819044,2.4603412,1.1753798,-0.4837215,1.0780468,0.66232765,-3.7380102
678,1778360603.0921838,2.374433,1.0611609,-0.43979117,0.8117309,0.78909403,-3.7720985
679,1778360603.1022725,2.2528925,0.946454,-0.37096703,0.6455498,0.8839025,-3.7752943
680,1778360603.1126688,1.8487337,0.72533816,-0.20598431,0.5070655,0.80081195,-3.704987
681,1778360603.1228766,1.8487337,0.72533816,-0.20598431,0.4857602,0.6932203,-3.6815512
682,1778360603.1332052,1.6427493,0.56767714,-0.16205402,0.4857602,0.6932203,-3.6815512
683,1778360603.143658,1.4987555,0.43198135,-0.1513155,0.5070655,0.63143504,-3.6432016
684,1778360603.1537745,1.1355984,0.17523311,-0.20354374,0.5187834,0.574976,-3.4716942
685,1778360603.1641061,0.937912,0.09567044,-0.21818718,0.42077914,0.4801676,-3.2788815
686,1778360603.1743658,0.937912,0.09567044,-0.21818718,0.42077914,0.4801676,-3.2788815
687,1778360603.1844735,0.690438,-0.060038086,-0.19036464,0.18216008,0.22130851,-2.8836687
688,1778360603.1947975,0.60599416,-0.13667206,-0.15375607,0.18216008,0.22130851,-2.8836687
689,1778360603.2051084,0.5508372,-0.21965154,-0.110801995,-0.005326318,0.01890843,-2.553437
690,1778360603.2151415,0.5122762,-0.31776255,-0.08786061,-0.09906952,-0.07483477,-2.3510368
691,1778360603.2251632,0.45809543,-0.40659937,-0.062478654,-0.17363797,-0.05672529,-2.1837904
692,1778360603.2354412,0.4170938,-0.4807928,-0.020988923,-0.21411799,0.002929475,-2.0208051
693,1778360603.2459018,0.38829508,-0.5554743,0.021965152,-0.19813904,0.04554002,-1.9057567
694,1778360603.256003,0.26187342,-0.67750293,0.10055158,0.003195791,0.03914844,-1.660746
695,1778360603.2663946,0.17938207,-0.73558855,0.10982577,0.21411799,-0.018375797,-1.4615418
696,1778360603.2767534,0.10665302,-0.8019721,0.07468152,0.5155876,-0.12703268,-1.1664637
697,1778360603.2869518,0.053936653,-0.84150934,-0.0039049159,0.7904256,-0.27403906,-0.85434145
698,1778360603.2973807,0.032459613,-0.84785485,-0.10152781,0.93956256,-0.45939493,-0.6189182
699,1778360603.3074117,0.00024405724,-0.83858067,-0.26358184,0.9608678,-0.80986667,-0.234358
700,1778360603.3179173,-0.022697324,-0.8327233,-0.38219365,0.84475404,-0.952612,0.0021305273
701,1778360603.328126,-0.034900185,-0.82393724,-0.48567393,0.58696026,-1.0474205,0.32490543
702,1778360603.3384166,-0.087616555,-0.8049008,-0.5593792,0.24927169,-1.0516815,0.6913561
703,1778360603.3487005,-0.12129646,-0.7726852,-0.5954997,-0.03728423,-1.0516815,1.0290446
704,1778360603.3587658,-0.13593988,-0.74339837,-0.6238103,-0.40373492,-1.0910963,1.4998912
705,1778360603.3688185,-0.1261776,-0.67555046,-0.6360132,-0.85221094,-1.2455595,2.18166
706,1778360603.3793027,-0.05588911,-0.5603554,-0.5920829,-1.2175963,-1.5022881,2.8591676
707,1778360603.3898156,0.18377511,-0.4217309,-0.4807928,-1.4956301,-1.7877787,3.5771554
708,1778360603.3998363,0.5127643,-0.2928687,-0.37145513,-1.6064175,-1.9848524,4.060785
709,1778360603.4099646,0.86225426,-0.1044565,-0.2630937,-1.6128092,-2.2170799,4.546545
710,1778360603.4203885,1.5783182,0.3441207,-0.11324256,-1.5062828,-2.3065622,4.678638
711,1778360603.4307451,1.9707624,0.65993077,-0.08102701,-1.3795164,-2.2256021,4.5433493
712,1778360603.440896,2.1201253,0.91619086,-0.15863721,-1.3688638,-1.9539598,4.3004694
713,1778360603.451126,2.1381855,1.0958171,-0.19915071,-1.4764555,-1.7259934,4.1886168
714,1778360603.4614494,2.1669843,1.2329772,-0.16107778,-1.616005,-1.3148017,4.150267
715,1778360603.4714825,2.2367847,1.5888127,0.042465962,-1.5254575,-1.2924311,4.098069
716,1778360603.4815536,2.2367847,1.5888127,0.042465962,-1.5254575,-1.2924311,4.098069
717,1778360603.4919245,2.2914536,1.6283499,0.022941383,-1.4359754,-1.2732564,3.8839512
718,1778360603.5024061,2.0347052,1.6688635,-0.02831064,-1.4093438,-1.231711,3.6293533
719,1778360603.5133038,1.8482454,1.6512914,-0.036608588,-1.4913691,-1.009071,2.9358666
720,1778360603.5233464,1.6783818,1.6088253,-0.049787678,-1.5648723,-0.8375635,2.6354623
721,1778360603.5338342,1.6783818,1.6088253,-0.049787678,-1.5648723,-0.8375635,2.6354623
722,1778360603.5438569,1.3552499,1.5155954,0.043930303,-1.6255924,-0.6862961,2.0943084
723,1778360603.5542529,1.2127205,1.4658079,0.09274176,-1.5755249,-0.7097319,1.8919082
724,1778360603.5646172,1.0448091,1.3930788,0.15229172,-1.430649,-0.7725825,1.6277229
725,1778360603.5747368,0.9100895,1.3198615,0.20549619,-1.2410321,-0.8503467,1.3997564
726,1778360603.585046,0.9100895,1.3198615,0.20549619,-1.2410321,-0.8503467,1.3997564
727,1778360603.595426,0.8007518,1.2632403,0.22111587,-1.0673941,-0.8737825,1.2186615
728,1778360603.6056874,0.69971216,1.2261436,0.20305562,-0.8575372,-0.7640603,0.8862994
729,1778360603.6158938,0.39073566,1.1373067,0.08542004,-0.8937562,-0.6340982,0.68922555
730,1778360603.6263862,0.2706595,1.1114367,0.08053889,-0.9640636,-0.5307676,0.5635245
731,1778360603.6368532,0.19939478,1.0967933,0.11275445,-0.9640636,-0.5307676,0.5635245
732,1778360603.646917,0.15888128,1.0611609,0.19768637,-1.0620679,-0.3347591,0.26844645
733,1778360603.656938,0.15302388,1.0357789,0.27432033,-0.9874994,-0.2527338,0.13741902
734,1778360603.6670702,0.16034561,1.0216236,0.35534734,-0.75846773,-0.13448954,-0.061785292
735,1778360603.6770928,0.21062139,1.0113733,0.35437113,-0.43249702,0.021038957,-0.29401276
736,1778360603.687273,0.21062139,1.0113733,0.35437113,-0.43249702,0.021038957,-0.29401276
737,1778360603.697738,0.22331238,1.001611,0.22258021,0.017044218,0.259658,-0.65833294
738,1778360603.7077749,0.22575295,1.0099089,0.14789869,0.15978955,0.33209595,-0.80533934
739,1778360603.7180648,0.23649146,1.0186949,0.032215554,0.27696854,0.3683149,-0.9874994
740,1778360603.7283218,0.25699228,1.0318741,-0.059549972,0.35366753,0.37364122,-1.2016174
741,1778360603.73847,0.33948365,1.0548154,-0.090789296,0.3749728,0.35127068,-1.2815121
742,1778360603.7489014,0.4166057,1.0704352,-0.10640897,0.39627808,0.3448791,-1.3752553
743,1778360603.758916,0.60941094,1.0982577,-0.15473229,0.38136438,0.39601177,-1.6096134
744,1778360603.7692132,0.7148437,1.1099724,-0.16547081,0.34194964,0.4886897,-1.7651418
745,1778360603.779732,0.8236932,1.1290088,-0.15277983,0.2695117,0.6751108,-1.9441061
746,1778360603.7899077,0.9003272,1.1334019,-0.13960074,0.20559588,0.9073383,-2.1145484
747,1778360603.80042,0.9515792,1.1334019,-0.0976229,0.16085482,1.0916289,-2.2722073
748,1778360603.81082,0.9906283,1.1524384,-0.027334413,0.17470324,1.1544795,-2.391517
749,1778360603.8208773,1.0775127,1.189047,0.09322987,0.29507804,1.1193258,-2.557698
750,1778360603.830903,1.1673259,1.2041785,0.18792409,0.51132655,1.0362352,-2.7185528
751,1778360603.8414078,1.2439598,1.1958805,0.22502078,0.6924214,0.99042886,-2.7931213
752,1778360603.8517604,1.3225462,1.1460928,0.2255089,0.8937562,0.942492,-2.8250792
753,1778360603.8622832,1.4699568,1.1651293,0.04783522,1.2634027,0.9286436,-2.4351926
754,1778360603.8724163,1.4699568,1.1651293,0.04783522,1.2634027,0.9286436,-2.4351926
755,1778360603.8829153,1.6212723,1.1988091,-0.03904916,1.2847079,0.8530099,-2.2445104
756,1778360603.8929372,1.79016,1.1973449,-0.12202863,1.1600721,0.6548708,-2.249837
757,1778360603.9030821,1.8716751,1.1363305,-0.11031388,0.9203878,0.4322307,-2.4575632
758,1778360603.9133499,1.6466542,0.88836837,-0.016595893,0.5241097,0.4599276,-2.7547717
759,1778360603.9236352,1.4914337,0.71020657,-0.013667206,0.43782336,0.6325003,-2.6961823
760,1778360603.9338222,1.3220581,0.56718904,-0.059549972,0.4165181,0.78909403,-2.5406537
761,1778360603.944208,1.3220581,0.56718904,-0.059549972,0.4165181,0.78909403,-2.5406537
762,1778360603.954421,1.2053988,0.47591165,-0.11373068,0.3888212,0.861532,-2.3670158
763,1778360603.9647956,1.0799533,0.13862452,-0.21379416,0.20346536,0.91692567,-1.9994998
764,1778360603.9749837,0.9886759,-0.10933765,-0.20354374,0.070307404,1.2098732,-1.7502282
765,1778360603.9853268,0.9886759,-0.10933765,-0.20354374,0.06391582,1.5571492,-1.5499586
766,1778360603.9953876,0.83784854,-0.25674823,-0.20744865,0.06391582,1.5571492,-1.5499586
767,1778360604.0054586,0.5186216,-0.42905265,-0.3236199,0.15765902,1.9853851,-1.0599374
768,1778360604.0158858,0.2545517,-0.4368625,-0.4183141,0.22050957,1.7765934,-0.51132655
769,1778360604.026382,0.10421244,-0.34460884,-0.464685,0.24501064,1.0671278,-0.13422322
770,1778360604.0363967,0.10421244,-0.34460884,-0.464685,0.24501064,1.0671278,-0.13422322
771,1778360604.046607,0.05588911,-0.260165,-0.43295756,0.21518326,0.14247902,0.1842906
772,1778360604.0566373,0.24088451,-0.18792409,-0.26065314,0.071372665,-1.5598123,0.4218444
773,1778360604.0666654,0.30385128,-0.14643435,-0.15912533,-0.0074568456,-1.8815219,0.42077914
774,1778360604.077146,0.32630453,-0.10592084,-0.11275445,-0.14700638,-2.0711389,0.40053913
775,1778360604.0873525,0.32630453,-0.10592084,-0.11275445,-0.14700638,-2.0711389,0.40053913
776,1778360604.0975778,0.33118567,-0.033191785,-0.099087246,-0.64981085,-2.0604863,0.41119176
777,1778360604.1078415,0.46688148,0.020500809,-0.007321717,-0.9044088,-2.0178757,0.3898865
778,1778360604.117936,0.5854933,0.0707766,0.12593354,-1.2325101,-1.9454377,0.30892646
779,1778360604.1280475,0.6040417,0.10543273,0.22111587,-1.288969,-1.9390461,0.23648852
780,1778360604.1382978,0.6040417,0.10543273,0.22111587,-1.288969,-1.9390461,0.23648852
781,1778360604.1487489,0.47127452,0.21086545,0.13520771,-1.1419626,-1.9518293,0.27164224
782,1778360604.1591446,0.3961049,0.2723679,0.026846299,-1.1004174,-2.0242672,0.39627808
783,1778360604.1695566,0.27212384,0.42563587,-0.15668476,-1.1984216,-2.4130886,0.8064046
784,1778360604.1795864,0.29994637,0.51691324,-0.21379416,-1.3699291,-2.7497118,1.1803122
785,1778360604.1897361,0.43515408,0.65212095,-0.24845028,-1.5733944,-3.0341372,1.5425018
786,1778360604.1999207,0.56987363,0.74242216,-0.25821257,-1.7502282,-3.1374676,1.7928387
787,1778360604.20997,0.7128912,0.82149667,-0.2923806,-1.9419756,-3.1481204,2.0176094
788,1778360604.22007,0.8529801,0.9659786,-0.3939084,-2.3414495,-2.916958,2.3212094
789,1778360604.230423,0.8788501,1.0440769,-0.43881494,-2.6940517,-2.7156234,2.524675
790,1778360604.2406943,0.9535317,1.0894716,-0.4144092,-3.0434582,-2.6580992,2.711096
791,1778360604.251171,1.0238202,1.0845904,-0.31434575,-3.2330751,-2.7614298,2.8069696
792,1778360604.261344,1.0677505,1.0865428,-0.14887492,-3.2874036,-2.9989834,2.8421235
793,1778360604.271866,1.0853225,1.0948408,0.22404456,-2.9390624,-3.5838132,2.913496
794,1778360604.2823842,1.1194906,1.1119248,0.42319524,-2.3467758,-3.9758303,2.9912603
795,1778360604.2929046,1.1546348,1.1739154,0.5954997,-1.559546,-4.1697083,3.042393
796,1778360604.3033006,1.1560992,1.2266316,0.5872018,-0.896952,-4.112184,3.0445235
797,1778360604.3137374,1.0164984,1.2432276,0.2894519,0.2631201,-3.5007226,2.8975172
798,1778360604.3241303,0.8876362,1.2271198,0.114218794,0.48789075,-3.126815,2.787795
799,1778360604.3343391,0.758774,1.202226,-0.021477038,0.52837074,-2.710297,2.6620939
800,1778360604.3446372,0.6587105,1.168058,-0.0976229,0.4250402,-2.2852569,2.5055
801,1778360604.3547876,0.59037447,1.1495095,-0.1244692,0.2194443,-1.8953704,2.295643
802,1778360604.3650806,0.52399087,1.1275444,-0.11373068,0.019174745,-1.5992271,2.0825903
803,1778360604.375497,0.43466598,1.1329137,-0.06589546,-0.28016433,-1.1369026,1.7214661
804,1778360604.3857129,0.36242503,1.1392592,-0.010738519,-0.50919604,-0.7736477,1.4402364
805,1778360604.3960052,0.36242503,1.1392592,-0.010738519,-0.50919604,-0.7736477,1.4402364
806,1778360604.40634,0.2809099,1.1460928,0.102504045,-0.8266446,-0.15153375,0.957672
807,1778360604.4167645,0.23405088,1.1373067,0.17767367,-0.937432,0.18189377,0.63809294
808,1778360604.4268782,0.14228538,1.138283,0.34851375,-0.94808465,0.5174518,0.19813904
809,1778360604.4373143,0.1261776,1.1207108,0.47493544,-0.8500804,0.6325003,-0.047936864
810,1778360604.4476516,0.14814276,1.0933765,0.5793919,-0.6125266,0.744353,-0.35473278
811,1778360604.457924,0.18231077,1.0714114,0.6379657,-0.33449277,0.8114646,-0.5944171
812,1778360604.4682653,0.2238005,1.0523748,0.6706693,0.14168006,0.92970884,-0.9470194
813,1778360604.4783869,0.30336314,1.0435888,0.60819066,0.5368929,1.1353047,-1.2964258
814,1778360604.4886684,0.42929673,1.0484699,0.49397188,0.5368929,1.1353047,-1.2964258
815,1778360604.498801,0.53033644,1.0880072,0.37877685,0.7286403,1.6136081,-1.9547588
816,1778360604.5088427,0.5981843,1.1524384,0.31141704,0.68070346,1.8905766,-2.2732725
817,1778360604.519034,0.5981843,1.1524384,0.31141704,0.68070346,1.8905766,-2.2732725
818,1778360604.5294359,0.6313761,1.3750186,0.32166746,0.4868255,2.7417223,-2.8389275
819,1778360604.539686,0.6772589,1.5321914,0.39488465,0.5187834,3.038931,-2.9017782
820,1778360604.550213,0.80172807,1.670816,0.50715095,0.6711161,3.157175,-2.8794076
821,1778360604.560646,1.201982,1.9251237,0.7390053,1.2175963,2.9206865,-2.8431888
822,1778360604.5709202,1.4484798,2.0178654,0.8297946,1.644767,2.6415875,-2.8879297
823,1778360604.5814073,1.7315861,2.1042616,0.84199744,2.1933777,2.2985725,-2.933736
824,1778360604.5916877,2.0142045,2.1555138,0.7902574,2.6482453,2.013082,-2.990195
825,1778360604.601779,2.259238,2.140382,0.73461235,2.9358666,1.8170735,-3.0956562
826,1778360604.6118116,2.5906677,1.9070634,0.40171823,3.3310795,1.6221302,-3.5483932
827,1778360604.6218917,2.5228198,1.666911,0.082003236,3.208574,1.7009597,-3.8083174
828,1778360604.6319187,2.3143947,1.4316398,-0.13618395,2.9017782,1.8213345,-3.9744987
829,1778360604.6419382,2.3143947,1.4316398,-0.13618395,2.9017782,1.8213345,-3.9744987
830,1778360604.6521614,2.0073707,1.1949043,-0.2928687,2.4778032,1.9875157,-4.0256314
831,1778360604.6623957,1.7389079,1.0045396,-0.39537275,2.0825903,2.1473053,-3.9521282
832,1778360604.6728156,1.1258361,0.5442477,-0.4807928,0.93636674,2.4264042,-3.426953
833,1778360604.6831036,1.1258361,0.5442477,-0.4807928,0.93636674,2.4264042,-3.426953
834,1778360604.6933296,0.9418169,0.39146784,-0.40659937,0.51771814,2.3710105,-3.1127005
835,1778360604.703611,0.7465711,0.14204131,-0.18157859,0.27696854,2.2431788,-2.8783424
836,1778360604.713932,0.6723777,-0.029774986,-0.05515694,0.08415583,1.6594144,-2.3403842
837,1778360604.7240984,0.6347929,-0.18450728,0.021477038,0.14700638,1.4538186,-2.133723
838,1778360604.7346234,0.6035536,-0.33094162,0.10543273,0.27483803,1.2918985,-1.9355841
839,1778360604.744989,0.5786598,-0.43246946,0.16058967,0.27483803,1.2918985,-1.9355841
840,1778360604.755011,0.5537659,-0.5271637,0.17669745,0.6636593,1.1512836,-1.6500934
841,1778360604.7653818,0.48787045,-0.6867771,0.13179092,1.0855037,1.1683279,-1.3965607
842,1778360604.7757454,0.4356422,-0.78488815,0.053204484,1.3709943,1.1534142,-1.208009
843,1778360604.7857633,0.40049794,-0.8468786,-0.03807293,1.5712639,1.0820415,-1.0972215
844,1778360604.7960255,0.33704305,-0.89764255,-0.17572121,1.7385103,0.94142675,-0.9960215
845,1778360604.806187,0.2545517,-0.9269294,-0.30165476,1.7789903,0.7731151,-0.9225183
846,1778360604.8163857,0.03734076,-0.9581688,-0.51544887,1.6074828,0.3629886,-0.6977477
847,1778360604.8268867,-0.08712844,-0.9498709,-0.61502427,1.3731248,0.10626005,-0.47617283
848,1778360604.8373556,-0.22477673,-0.91472656,-0.7063017,0.9757815,-0.17710008,-0.11078742
849,1778360604.8478353,-0.29116032,-0.8756774,-0.7336361,0.53582764,-0.36778226,0.31531805
850,1778360604.8578625,-0.33509058,-0.83028275,-0.73510045,0.19174746,-0.45726442,0.6796382
851,1778360604.8679318,-0.37121108,-0.74486274,-0.7302193,-0.28016433,-0.57657397,1.248489
852,1778360604.8779511,-0.3824377,-0.68482465,-0.7302193,-0.6391582,-0.73210245,1.7566197
853,1778360604.8880866,-0.3961049,-0.5857374,-0.72485006,-0.977912,-1.0175931,2.3584938
854,1778360604.898109,-0.31068486,-0.43539813,-0.68140787,-1.2900343,-1.4160017,3.0860689
855,1778360604.9081645,-0.0993313,-0.29921418,-0.6203935,-1.4934996,-1.7739303,3.7028563
856,1778360604.9185884,0.45370242,0.016595893,-0.46712556,-1.7108134,-2.29804,4.6402884
857,1778360604.9286327,0.8407772,0.23819989,-0.3900035,-1.777925,-2.4365242,5.053611
858,1778360604.9389062,1.5241375,0.60135704,-0.31434575,-1.866342,-2.3118885,5.398756
859,1778360604.9491124,1.9356179,0.86201024,-0.28749946,-1.9622157,-2.0306587,5.3721247
860,1778360604.959144,2.233368,1.0894716,-0.27920148,-2.1230705,-1.6535555,5.1739855
861,1778360604.9691749,2.4408164,1.3916144,-0.1889003,-2.4383886,-1.0197237,4.6722465
862,1778360604.9794853,2.4144583,1.5360963,-0.027334413,-2.4788685,-0.84928143,4.425105
863,1778360604.9895298,2.2777863,1.7127937,0.18401916,-2.2881863,-0.8396941,4.2525325
864,1778360604.9998424,2.2011523,1.8397036,0.30800024,-1.9238662,-0.9643299,4.18116
865,1778360605.0099626,2.2094502,1.8933961,0.35046622,-1.5765902,-1.0751173,4.068242
866,1778360605.0203934,2.1855328,1.9383026,0.35241866,-0.9821731,-1.1891005,3.6655722
867,1778360605.0305092,2.054718,1.9124327,0.2933568,-0.69561714,-1.1656648,3.3715594
868,1778360605.0409105,1.8101726,1.8157859,0.16644704,-0.45912862,-0.9973531,2.985934
869,1778360605.0513492,1.6095576,1.7430568,0.102504045,-0.3281012,-0.7885614,2.6024392
870,1778360605.0614169,0.9803779,1.5502517,0.007321717,-0.2428801,-0.54248554,2.0144136
871,1778360605.0714812,0.7319277,1.4501882,-0.01415532,-0.2428801,-0.54248554,2.0144136
872,1778360605.0819,0.7319277,1.4501882,-0.01415532,-0.22903168,-0.5542034,1.8098829
873,1778360605.0920892,0.7319277,1.4501882,-0.01415532,-0.22903168,-0.5542034,1.8098829
874,1778360605.1030278,0.38146147,1.2925272,0.0102504045,-0.19813904,-0.7001445,1.4807165
875,1778360605.113345,0.17450093,1.1992973,0.06980037,-0.15339796,-0.78110456,1.17179
876,1778360605.1235785,0.061746486,1.1582958,0.12593354,-0.1288969,-0.7193193,0.90760463
877,1778360605.133786,-0.012935034,1.1338899,0.18694785,-0.10226531,-0.60320556,0.6838993
878,1778360605.143811,-0.012935034,1.1338899,0.18694785,-0.10226531,-0.60320556,0.6838993
879,1778360605.153924,-0.061746486,1.1138773,0.2562601,-0.059654765,-0.4285023,0.4420844
880,1778360605.1644247,-0.13398743,1.0801975,0.40513504,0.16724639,0.00079894776,-0.14487585
881,1778360605.174863,-0.12471326,1.056768,0.43881494,0.28868645,0.15845796,-0.36218965
882,1778360605.184881,-0.09396204,1.01479,0.46761367,0.4569981,0.34061804,-0.6593982
883,1778360605.1949208,-0.09396204,1.01479,0.46761367,0.4569981,0.34061804,-0.6593982
884,1778360605.2050161,0.010006348,0.9874556,0.51349646,0.8127962,0.56006235,-1.1803122
885,1778360605.215323,0.12373702,1.0030752,0.53643787,1.0812426,0.6751108,-1.5009564
886,1778360605.225721,0.21794313,1.0338265,0.5315567,1.2910995,0.8327699,-1.7161397
887,1778360605.2357469,0.3487578,1.0972813,0.49690056,1.430649,1.0767152,-1.8972346
888,1778360605.2461467,0.3487578,1.0972813,0.49690056,1.430649,1.0767152,-1.8972346
889,1778360605.2564213,0.46590528,1.2539662,0.4139211,1.4892386,1.7765934,-2.2274663
890,1778360605.266491,0.473227,1.3589108,0.4373506,1.4807165,2.1494358,-2.2647505
891,1778360605.2767768,0.6445552,1.526334,0.60867876,1.6713986,2.2900505,-2.1880515
892,1778360605.2867932,0.8891005,1.6942455,0.7804951,2.0634158,2.1760674,-2.1614199
893,1778360605.2969127,1.227852,1.8006544,0.8673795,2.4735422,1.9715366,-2.2338579
894,1778360605.3073893,1.6188318,1.9016942,0.8537123,2.9752812,1.7382439,-2.5065653
895,1778360605.3178868,1.8472692,1.9553868,0.70288485,3.265033,1.6732628,-2.9156265
896,1778360605.3281076,1.9043787,2.004198,0.4846977,3.2373362,1.7797892,-3.3119047
897,1778360605.3382082,1.8868065,2.0373898,0.33826336,2.9507804,1.9630146,-3.4653027
898,1778360605.3484716,1.9370824,2.0237226,0.28505886,2.9507804,1.9630146,-3.4653027
899,1778360605.3585558,2.0181093,1.8963249,0.35095432,2.3254704,2.263419,-3.5910037
900,1778360605.3687444,2.0181093,1.8963249,0.35095432,2.3254704,2.263419,-3.5910037
901,1778360605.3790045,1.9980967,1.6464102,0.609655,2.391517,1.6476965,-3.5153701
902,1778360605.3891153,2.0371459,1.4950947,0.5227706,2.472477,1.4133385,-3.47489
903,1778360605.3996296,2.0371459,1.4950947,0.5227706,2.472477,1.4133385,-3.47489
904,1778360605.4096477,1.9946798,1.1768441,0.19329333,2.2125525,1.4570143,-3.5814164
905,1778360605.4196851,1.824816,0.93473923,0.01952458,1.8461019,1.7371787,-3.7199006
906,1778360605.4297085,1.5695322,0.69214636,-0.09567044,1.4029522,1.9417093,-3.745467
907,1778360605.4400902,1.2546983,0.44223174,-0.14008886,0.8841688,2.20696,-3.6155047
908,1778360605.450432,1.0853225,0.30019042,-0.1147069,0.6210487,2.2953768,-3.4471931
909,1778360605.4609165,0.7900133,-0.024893839,-0.041001618,0.25885907,2.1100209,-2.8474498
910,1778360605.4714205,0.7324158,-0.13081467,-0.0156196635,0.23329274,1.9726019,-2.6535718
911,1778360605.4815047,0.65919864,-0.26992732,0.0078098318,0.26525065,1.762745,-2.3979084
912,1778360605.4916964,0.65919864,-0.26992732,0.0078098318,0.26525065,1.762745,-2.3979084
913,1778360605.501837,0.61673266,-0.35583547,0.0102504045,0.31531805,1.637044,-2.2530327
914,1778360605.511915,0.5776835,-0.4417436,0.0034168016,0.38029912,1.5219954,-2.1262662
915,1778360605.522394,0.50837123,-0.5632841,-0.036120474,0.5102613,1.3643364,-1.8919082
916,1778360605.5326817,0.4429639,-0.72631437,-0.14692247,0.585895,1.3142691,-1.7608808
917,1778360605.543158,0.4429639,-0.72631437,-0.14692247,0.66046345,1.2343743,-1.5606112
918,1778360605.5531821,0.40147418,-0.7824476,-0.21086545,0.69561714,1.1704584,-1.4274533
919,1778360605.563396,0.27944556,-0.84004503,-0.36510965,0.69561714,0.9392962,-1.0567415
920,1778360605.5735786,0.20183535,-0.8551766,-0.45004156,0.6125266,0.66339296,-0.7297056
921,1778360605.5838258,0.17157225,-0.83223516,-0.50666285,0.46445495,0.36405385,-0.33875385
922,1778360605.5942812,0.17157225,-0.83223516,-0.50666285,0.46445495,0.36405385,-0.33875385
923,1778360605.6043787,0.16815543,-0.7985553,-0.5232587,0.22157484,0.023169484,0.16831166
924,1778360605.6147814,0.17157225,-0.7136234,-0.5418071,0.05539371,-0.13662006,0.51132655
925,1778360605.624968,0.10177187,-0.596964,-0.605262,-0.124635845,-0.26871276,0.8799078
926,1778360605.6353815,0.023673553,-0.48957884,-0.6867771,-0.3462107,-0.42104545,1.228249
927,1778360605.645671,0.023673553,-0.48957884,-0.6867771,-0.5986782,-0.6159887,1.5691334
928,1778360605.6558557,-0.03734076,-0.39195594,-0.74339837,-0.5986782,-0.6159887,1.5691334
929,1778360605.6658802,-0.06321083,-0.10933765,-0.72729063,-1.257011,-1.1358373,2.4884558
930,1778360605.6759233,0.122272685,0.23966423,-0.5008055,-1.7907082,-1.772865,3.7582502
931,1778360605.6863961,0.122272685,0.23966423,-0.5008055,-1.7907082,-1.772865,3.7582502
932,1778360605.6964223,0.4127008,0.4373506,-0.33826336,-1.9419756,-1.9827219,4.3974085
933,1778360605.706667,1.445551,0.9342511,0.0019524579,-2.0602198,-1.9965703,5.2144656
934,1778360605.7168586,2.2621667,1.4819156,0.24064046,-1.9334536,-1.6993618,4.8501453
935,1778360605.726901,2.431054,1.722556,0.3031191,-1.818405,-1.4852438,4.406996
936,1778360605.7373848,2.3841953,1.9046228,0.3372871,-1.6756597,-1.2626038,3.870103
937,1778360605.7474065,2.1499002,2.020794,0.38805103,-1.4860427,-1.1592731,3.5196311
938,1778360605.7574759,1.9815009,2.0866895,0.42368335,-1.2804469,-1.182709,3.3513193
939,1778360605.7674992,1.8082201,2.0901062,0.39342028,-0.93849725,-1.2903006,3.0956562
940,1778360605.7779193,1.6573927,2.0466642,0.30800024,-0.719053,-1.344629,2.8591676
941,1778360605.7884398,1.4865527,1.973935,0.21135357,-0.626375,-1.3169322,2.6525064
942,1778360605.798468,1.3039979,1.8826576,0.1210524,-0.6242445,-1.1933616,2.4788685
943,1778360605.8087342,1.168302,1.79919,0.06638357,-0.66898555,-1.0772479,2.3371885
944,1778360605.818854,0.95597225,1.6698397,0.008786061,-0.7648593,-0.9398289,2.133723
945,1778360605.8288953,0.77195305,1.5570853,-0.013179091,-0.83623195,-0.89615303,1.9792598
946,1778360605.8390965,0.60989904,1.4482356,-0.020988923,-0.90973514,-0.9504815,1.8535588
947,1778360605.8492055,0.48835856,1.3403623,-0.006345488,-0.9491499,-1.0665952,1.7353145
948,1778360605.8596659,0.40684342,1.2554306,0.01415532,-0.9800426,-1.1496857,1.6351796
949,1778360605.8699489,0.33362624,1.172451,0.021477038,-1.0247836,-1.1645994,1.5126743
950,1778360605.8803613,0.20525214,1.0338265,0.01415532,-1.1302447,-1.0687257,1.3486238
951,1778360605.8904629,0.122760795,0.94254905,0.030751213,-1.2612722,-0.92811096,1.2037479
952,1778360605.9008214,0.05051985,0.8561529,0.08346757,-1.3699291,-0.754473,1.0460889
953,1778360605.9112837,-0.00073217176,0.79660285,0.1415532,-1.4093438,-0.60959715,0.9150615
954,1778360605.9213674,-0.06760386,0.70971847,0.21037734,-1.2761859,-0.24740748,0.47297704
955,1778360605.931442,-0.110557936,0.6662763,0.22599702,-1.2761859,-0.24740748,0.47297704
956,1778360605.9418898,-0.17791773,0.6213697,0.20696054,-1.1440932,-0.13022847,0.2663159
957,1778360605.9520261,-0.2604091,0.58134437,0.15473229,-1.0056089,-0.026897907,0.08628636
958,1778360605.96246,-0.2979939,0.5598673,0.10152781,-0.9161267,0.04447476,-0.017044218
959,1778360605.9726963,-0.31995904,0.5549862,0.046858992,-0.84794986,0.084954776,-0.10439584
960,1778360605.9830759,-0.21403822,0.6208816,-0.084931925,-0.80533934,0.24367906,-0.43036652
961,1778360605.9936163,-0.21403822,0.6208816,-0.084931925,-0.80533934,0.24367906,-0.43036652
962,1778360606.0038128,-0.035876416,0.77561396,-0.12398108,-0.8905604,0.52490866,-0.7446193
963,1778360606.0142965,0.046614934,0.882511,-0.14741059,-0.8905604,0.52490866,-0.7446193
964,1778360606.0246809,0.119343996,1.023576,-0.14301755,-1.1078742,1.1576753,-1.3113395
965,1778360606.0350156,0.16913168,1.2056428,-0.122516744,-1.2420974,1.5635407,-1.4839122
966,1778360606.0454404,0.16913168,1.2056428,-0.122516744,-1.2420974,1.5635407,-1.4839122
967,1778360606.0558925,0.183287,1.4741058,-0.0741934,-1.349689,1.976863,-1.5520891
968,1778360606.0660186,0.4195344,1.8841219,0.107873306,-1.3954954,2.3560967,-1.5382407
969,1778360606.076383,0.7563334,2.2472792,0.5320448,-0.957672,2.1441095,-1.7427713
970,1778360606.0865424,1.0164984,2.468395,0.77073276,-0.35047174,1.8000293,-1.9867167
971,1778360606.0965638,1.1927078,2.6158056,0.85566473,0.17044218,1.4985596,-2.2072263
972,1778360606.1065874,1.3840486,2.7656567,0.8332114,0.7105309,1.2279826,-2.4618242
973,1778360606.117105,1.5587937,2.8017771,0.7819594,1.0130657,1.1416963,-2.6684854
974,1778360606.1274822,1.7184072,2.7388103,0.71996886,1.4136049,1.0500836,-2.9284098
975,1778360606.137738,1.8126132,2.6753557,0.673598,1.5765902,0.92757833,-2.990195
976,1778360606.1481535,1.9897987,2.545029,0.5994046,1.7022913,0.7699193,-3.1116352
977,1778360606.1582105,2.123542,2.3566167,0.5051985,1.7204008,0.66019714,-3.3353405
978,1778360606.1684358,2.0952315,2.1691809,0.4217309,1.6543545,0.6282392,-3.518566
979,1778360606.178456,1.9331775,1.8240839,0.31678632,1.4338448,0.703873,-3.6985953
980,1778360606.1886137,1.7105973,1.4086984,0.24454537,1.2026826,0.91159934,-3.7465322
981,1778360606.1986291,1.5319474,1.1392592,0.21769907,1.002413,1.1640668,-3.7188354
982,1778360606.2086802,1.2893544,0.8395569,0.1952458,0.82557935,1.3515532,-3.5973954
983,1778360606.2189171,1.1146095,0.6160005,0.18645974,0.73183614,1.4580796,-3.4408016
984,1778360606.229389,0.86225426,0.34265637,0.19915071,0.6615287,1.5773891,-3.1308098
985,1778360606.2397966,0.70361704,0.13471961,0.24454537,0.7084003,1.5795196,-2.7441192
986,1778360606.2502334,0.65138876,0.0039049159,0.28359452,0.82451403,1.5251912,-2.5023043
987,1778360606.2602577,0.61673266,-0.11324256,0.3109289,0.99708676,1.427187,-2.28286
988,1778360606.270407,0.6211257,-0.28505886,0.30458343,1.3038827,1.2386353,-2.024001
989,1778360606.2805278,0.6411384,-0.42807645,0.2933568,1.5946996,1.079911,-1.8674072
990,1778360606.2906988,0.6796995,-0.5427833,0.29042813,1.9323882,0.90520775,-1.7619461
991,1778360606.3009896,0.71874857,-0.64235866,0.21623473,2.28286,0.7613972,-1.717205
992,1778360606.3114061,0.75047606,-0.7438865,0.10494461,2.5033696,0.65380555,-1.7214661
993,1778360606.3219063,0.6801876,-0.86298645,-0.09859913,2.9209528,0.1254348,-1.8919082
994,1778360606.3324146,0.54839665,-0.85322416,-0.23478307,2.9880645,-0.07376951,-1.8791251
995,1778360606.3425002,0.54839665,-0.85322416,-0.23478307,2.9880645,-0.07376951,-1.8791251
996,1778360606.352781,0.3141017,-0.8005078,-0.5091034,2.8336012,-0.22716747,-1.680986
997,1778360606.3632205,0.1769415,-0.7682922,-0.68482465,2.601374,-0.30386645,-1.5073481
998,1778360606.373251,-0.059305906,-0.6365013,-1.121199,0.87671196,-0.85673827,-0.56885076
999,1778360606.3835144,-0.06321083,-0.5964759,-1.073852,0.017044218,-1.1390332,-0.18855166
