id,timestamp,acc_x,acc_y,acc_z,gyro_x,gyro_y,gyro_z
0,0,0.083121,-0.141363,0.563773,-0.9074305000000001,-0.2931975,-1.424866
1,10,0.103145,-0.122315,0.578669,-0.9079645,-0.48385649999999997,-1.3418199999999998
2,20,0.103145,-0.122315,0.578669,-2.040367,-0.834332,-1.605511
3,30,0.172438,-0.063279,0.620397,-0.850954,-0.9930805,-1.0569
4,40,0.214441,-0.005189,0.658218,0.05394,-1.014309,-0.379314
5,50,0.200765,-0.028358,0.619665,-1.519394,-1.392555,-1.612988
6,60,0.200765,-0.028358,0.619665,-1.519394,-1.392555,-1.612988
7,70,0.200765,-0.028358,0.619665,-1.519394,-1.392555,-1.612988
8,80,0.244203,0.012637,0.444174,-1.1567025,-0.48385599999999995,-1.0185145
9,90,0.14670499999999997,0.14198850000000002,0.7304715,-1.3282015,-0.657492,-0.989208
10,100,0.133396,0.158579,0.726076,-0.832329,-1.165581,-1.593761
11,110,0.106808,0.295272,0.721436,-0.707693,-1.269989,-1.5468975
12,120,0.106808,0.295272,0.721436,-0.527649,-1.723804,-1.422195
13,130,0.071536,0.3500495,0.6960545,-0.527649,-1.723804,-1.422195
14,140,-0.016453,0.462429,0.665789,-0.821648,-1.069717,-1.59483
15,150,-0.016453,0.462429,0.665789,-0.821648,-1.069717,-1.59483
16,160,-0.2947985,0.6833104999999999,0.7979485,-1.118851,-0.4204365,-1.6603185
17,170,-0.786944,1.041342,1.157308,-1.416054,0.228844,-1.725807
18,180,-0.786944,1.041342,1.157308,-1.707449,-0.7075595,-1.0414125
19,190,-0.786944,1.041342,1.157308,-1.998844,-1.643963,-0.357018
20,200,-0.935327,1.132369,1.491927,-1.743164,-1.115513,-0.775585
21,210,-0.935327,1.132369,1.491927,-0.03231049999999991,-0.019960499999999937,0.543671
22,220,-1.060054,1.176295,1.98369,0.4976750000000001,-0.05400649999999996,1.0337355
23,230,-1.067105,0.950071,2.566266,-1.227531,-2.449322,0.468636
24,240,-0.746299,0.7640804999999999,2.496699,-0.6038184999999999,-1.3589765,1.12319
25,250,-0.565818,0.719666,2.383694,0.019894,-0.268631,1.777744
26,260,-0.36789150000000004,0.739309,2.1717415,0.2814485,0.467434,1.9322205000000001
27,270,-0.05696,0.773604,1.81284,0.543003,1.203499,2.086697
28,280,-0.05696,0.773604,1.81284,0.543003,1.203499,2.086697
29,290,-0.05696,0.773604,1.81284,1.269455,-0.952625,1.99297
30,300,-0.05696,0.773604,1.81284,1.269455,-0.952625,1.99297
31,310,0.491916,0.24876600000000001,1.0354044999999998,1.057968,0.773716,1.1263945
32,320,0.257634,0.625464,0.821254,0.19459750000000003,0.8871365,0.17877599999999996
33,330,0.228574,-0.268013,0.744849,1.046753,1.483746,0.831795
34,340,0.1525505,0.0796405,0.827466,1.00523,1.626472,0.649681
35,350,0.0466275,0.3279645,0.9181414999999999,1.3067055,1.693563,0.751953
36,360,0.016728,0.228635,0.9262,1.608181,1.760654,0.854225
37,370,0.016728,0.228635,0.9262,-0.14946949999999992,0.969715,-0.32183649999999997
38,380,0.0328455,0.1831215,0.8887305000000001,-1.90712,0.178776,-1.497898
39,390,0.140966,-0.187731,0.56768,2.410335,1.672268,1.256905
40,400,0.140966,-0.187731,0.56768,0.48272099999999996,0.32844550000000006,-0.09012200000000004
41,410,0.072376,0.0424,0.781968,2.591381,1.569996,1.343155
42,420,0.057250499999999996,0.01946,0.806373,2.744856,1.3153839999999999,1.4512345
43,430,0.042125,-0.00348,0.830778,2.77256,1.266384,1.473064
44,440,0.222225,0.043377,0.486391,-0.809898,-1.175194,-1.80151
45,450,0.107541,0.167859,0.611606,3.058014,1.329269,1.6712
46,460,0.107541,0.167859,0.611606,3.0889225,1.49703,1.7191985
47,470,-0.000824,-0.095239,1.077514,3.067627,1.65411,1.77988
48,480,-0.0097375,0.2115405,0.8939805000000001,3.067627,1.65411,1.77988
49,490,-0.018651,0.51832,0.710447,3.067627,1.65411,1.77988
50,500,-0.069903,-0.086692,1.214909,2.287903,0.379047,1.991901
51,510,0.038217999999999995,-0.08046500000000001,1.401129,1.838293,-0.5802535,1.99831
52,520,0.1814885,-0.092431,1.6145625,1.4777375,-1.2396145,1.906185
53,530,0.216638,-0.110624,1.641776,0.222301,0.742207,2.069607
54,540,0.216638,-0.110624,1.641776,0.222301,0.742207,2.069607
55,550,0.4675265,-0.29634,1.345008,1.0079004999999999,-0.7826615,1.3415525000000001
56,560,0.096063,0.663041,0.968173,0.43005,1.39843,1.223793
57,570,0.029807999999999998,0.536498,0.897888,0.668106,1.152897,1.0933495
58,580,0.04542199999999999,0.3360075,0.7834175,0.906162,0.907364,0.962906
59,590,0.127291,0.26206,0.739232,1.942635,1.270657,1.272793
60,600,-1.060054,1.176295,1.98369,0.7532884999999999,0.7465459999999999,0.7215785
61,610,-0.039134,-0.025672,0.865669,-1.336212,-0.185585,-0.41563
62,620,0.288129,0.658646,0.858342,0.4156305,0.6608295,0.35668350000000004
63,630,0.2728815,-0.0627755,0.9502395,2.881241,1.528473,1.736221
64,640,0.334497,-0.25974,0.818568,2.881241,1.528473,1.736221
65,650,0.1231545,-0.07205500000000001,1.180507,2.0385645,0.36249149999999997,1.4869495000000001
66,660,0.079458,-0.226529,0.692864,-0.746546,-0.3080845,-0.4033470000000001
67,670,0.079458,-0.226529,0.692864,0.774116,-0.936604,1.310177
68,680,0.215402,-0.2272765,1.0130755,0.774116,-0.936604,1.310177
69,690,0.0221,-0.199208,0.621863,-1.795368,0.451412,-1.822739
70,700,0.017964,-0.1619825,0.5763495000000001,-1.878414,0.1798435,-1.9569874999999999
71,710,0.130954,-0.073261,0.557179,-1.97855,-0.223904,-1.832352
72,720,-0.06917,-0.102565,0.510567,-1.870937,-1.140079,-1.463852
73,730,0.189654,-0.0335015,0.589277,-1.7718695,-1.3643165000000002,-1.422262
74,740,0.209068,-0.00812,0.613804,-1.672802,-1.588554,-1.380672
75,750,0.2072365,0.044491,0.689827,-1.581745,-1.7168619999999999,-1.3503645
76,760,0.200277,0.093408,0.788287,-1.48428,-1.689758,-1.3274
77,770,0.193439,0.137852,0.900315,-1.278667,-1.525669,-1.305103
78,780,0.193439,0.137852,0.900315,-1.278667,-1.525669,-1.305103
79,790,0.028205,0.152474,0.638438,-1.019783,-1.4501,-1.320057
80,800,0.1236425,0.1505205,0.7925605,-1.019783,-1.4501,-1.320057
81,810,0.21908,0.148567,0.946683,-1.019783,-1.4501,-1.320057
82,820,0.067736,0.173964,0.806114,-0.735397,-1.086807,-1.661987
83,830,0.37135650000000003,-0.11634749999999999,1.0787205,-0.851488,-0.8508205,-1.7051125
84,840,-0.811822,0.801932,2.38809,-0.967579,-0.614834,-1.748238
85,850,-0.811822,0.801932,2.38809,-0.967579,-0.614834,-1.748238
86,860,-0.6359805000000001,0.716995,1.5905085,-1.3979625,-0.50622,-1.5708639999999998
87,870,-0.857946,1.118937,1.221991,-2.1686745,-0.3102205,-1.4862155000000001
88,880,-0.96509,1.147265,1.689609,-2.115936,-1.586418,-0.777721
89,890,-0.581325,0.9560385,1.859101,-1.115112,-0.3070165,0.421772
90,900,-0.491504,0.9577485,1.846051,-0.114288,0.972385,1.621265
91,910,-0.982428,1.119426,2.099381,-0.114288,0.972385,1.621265
92,920,-0.9766895,1.1202805,2.2488635,-1.225395,-2.023144,0.511227
93,930,-0.970951,1.121135,2.398346,0.1285745,0.1909925,0.842476
94,940,-0.679311,1.034016,2.313669,-0.264492,-1.104965,1.299496
95,950,-0.4396415,0.9865490000000001,2.059103,0.16475700000000001,-0.21642699999999998,1.529608
96,960,0.005525,0.924918,1.479472,1.89477,1.255169,1.5850165
97,970,0.005525,0.924918,1.479472,3.023968,1.340885,1.667061
98,980,0.005525,0.924918,1.479472,3.123035,1.770268,1.77988
99,990,0.1595105,0.821941,0.8437055,1.5874864999999998,1.0091014999999999,1.5029050000000002
100,1000,0.118988,0.801932,0.746314,2.135563,0.290527,2.078152
101,1010,0.005753999999999995,0.748604,0.80941,1.4425565,0.6298539999999999,1.1615085
102,1020,-0.10748,0.695276,0.872506,0.74955,0.969181,0.244865
103,1030,-0.10748,0.695276,0.872506,0.74955,0.969181,0.244865
104,1040,-0.1736285,0.528699,1.0971575,0.9274580000000001,0.931864,0.521841
105,1050,-0.239777,0.362122,1.321809,1.105366,0.894547,0.798817
106,1060,0.69204,-0.207511,0.670184,1.980019,1.911926,1.354904
107,1070,0.309115,-0.027274000000000007,1.0204015,0.011949499999999946,1.035738,-0.3575514999999999
108,1080,-0.07381,0.152963,1.370619,-1.95612,0.15955,-2.070007
109,1090,-0.07381,0.152963,1.370619,-1.95612,0.15955,-2.070007
110,1100,-0.0278085,0.1076935,1.1676865,0.5727764999999999,1.1593054999999999,-0.27450549999999996
111,1110,-0.010348,0.010928,0.9509715000000001,3.3621600000000003,1.632881,1.5163229999999999
112,1120,-0.038889,-0.040568,0.937189,3.410626,1.431541,1.517925
113,1130,-0.038889,-0.040568,0.937189,3.410626,1.431541,1.517925
114,1140,-0.09270550000000001,-0.1071895,1.022477,1.2390805,0.14573099999999994,-0.0518035
115,1150,-0.152871,-0.2035885,1.1178995,1.3083075,0.43705949999999993,0.19640000000000002
116,1160,-0.162395,-0.277537,1.112405,3.523579,2.164402,2.233696
117,1170,-0.157877,-0.287427,1.1106955,3.491602,2.1420385,2.294979
118,1180,-0.153359,-0.297317,1.108986,3.2700345,1.7196655,2.5373075
119,1190,-0.153359,-0.297317,1.108986,3.080444,1.319656,2.718353
120,1200,0.1741625,-0.26448649999999996,1.0512625,1.015911,0.46689949999999997,0.496807
121,1210,0.418472,-0.237274,1.196624,1.505909,-1.637554,2.606602
122,1220,0.418472,-0.237274,1.196624,-0.05948050000000005,-0.753889,0.540533
123,1230,0.418472,-0.237274,1.196624,-1.6818810000000002,-0.136585,-1.3604455
124,1240,-0.34312050000000005,0.42485150000000005,1.760748,-0.789204,-0.826387,0.193195
125,1250,0.81286,-0.555775,1.335728,0.160484,-1.249828,1.581745
126,1260,0.858495,-0.560659,1.294245,0.160484,-1.249828,1.581745
127,1270,0.868752,-0.469144,1.085573,0.656891,1.488953,2.067471
128,1280,0.868752,-0.469144,1.085573,0.656891,1.488953,2.067471
129,1290,0.5288975,0.174437,1.0705545,-0.38919449999999994,0.6197735,0.43552350000000006
130,1300,0.275186,0.766522,1.297663,0.959434,1.801109,1.687221
131,1310,0.6076075,-0.427874,0.930474,0.959434,1.801109,1.687221
132,1320,0.149513,0.511483,0.850528,-1.039009,-0.075836,-0.20895
133,1330,0.51072,-0.426897,0.986732,-2.701798,-0.330448,-1.996441
134,1340,0.054579,0.014591,0.809288,-2.701798,-0.330448,-1.996441
135,1350,0.227353,-0.371005,0.986976,-2.754002,0.239391,-2.553596
136,1360,0.144873,-0.319997,0.924491,-2.6017285,0.42644499999999996,-2.7202895
137,1370,0.082388,-0.2095715,0.9875714999999999,-2.550659,0.390797,-2.729302
138,1380,0.019903,-0.099146,1.050652,-2.550659,0.390797,-2.729302
139,1390,-0.0500005,-0.12147549999999999,1.074584,-2.4435805,-0.0071430000000000105,-2.6345065
140,1400,0.015751,-0.120361,0.73096,-0.5622960000000001,-0.8667754999999999,-0.48372250000000006
141,1410,0.076771,-0.095483,0.699458,-1.916733,-1.380806,-2.060394
142,1420,0.27520100000000003,-0.127092,0.8661570000000001,-1.87521,-1.388817,-2.0385645
143,1430,0.559774,-0.170881,0.694818,0.323505,0.483456,0.602818
144,1440,0.108273,-0.02787,0.686759,-1.681347,-1.358375,-1.945305
145,1450,0.113875,0.0626685,0.6961765,-1.7937660000000002,-0.711832,-1.533079
146,1460,0.073352,0.125887,0.755594,-2.170277,0.352345,-2.173214
147,1470,0.073352,0.125887,0.755594,-2.170277,0.352345,-2.173214
148,1480,-0.00522,-0.139898,0.529371,-1.581745,-0.9440805000000001,-1.7679305
149,1490,-0.039866,0.309161,0.782701,-1.014442,-1.4991,-1.638489
150,1500,-0.043163,0.324668,0.7809915000000001,-1.4075755,-1.4303395,-1.5170569999999999
151,1510,-0.04646,0.340175,0.779282,-1.200962,-1.028194,-1.700306
152,1520,-0.19582,0.510018,0.824429,-1.238213,-0.836468,-1.727943
153,1530,-0.19582,0.510018,0.824429,-1.238213,-0.836468,-1.727943
154,1540,-0.19582,0.510018,0.824429,-1.238213,-0.836468,-1.727943
155,1550,-0.709318,1.026934,0.959381,-1.190815,-1.0031605,-1.506977
156,1560,-0.8495360000000001,1.143724,1.145479,-1.719732,-1.060171,-1.4201925000000002
157,1570,-0.989754,1.260514,1.331577,-1.23394,-0.267563,-1.691761
158,1580,-0.8833425,1.1497069999999998,1.2130775,-1.3069055,-0.21642699999999998,-1.6635225
159,1590,-0.776931,1.0389,1.094578,-1.947708,-2.259598,-0.41029
160,1600,-1.204286,1.272205,2.09987,-1.725006,-2.2421075,-0.0139525
161,1610,-1.204286,1.272205,2.09987,-1.7943,-1.999779,-0.143929
162,1620,-0.9646165,1.066464,2.3063435,-0.309286,-0.48332200000000003,1.3416195
163,1630,-0.970951,1.121135,2.398346,-0.030174,0.169163,1.566925
164,1640,-0.970951,1.121135,2.398346,-0.030174,0.169163,1.566925
165,1650,-0.118957,0.870247,1.789915,0.878525,1.827812,1.86306
166,1660,-0.118957,0.870247,1.789915,1.045685,2.027016,1.80872
167,1670,-0.118957,0.870247,1.789915,1.045685,2.027016,1.80872
168,1680,-0.0818535,0.6658645000000001,1.130827,1.407909,2.12822,1.323929
169,1690,-0.24463,0.536147,1.100439,0.778389,0.644207,0.42284
170,1700,-0.1525195,0.444495,1.0995995,1.2678525,1.609917,0.9506224999999999
171,1710,-0.08602,0.582027,0.834197,1.24382,1.525269,1.025658
172,1720,-0.08602,0.582027,0.834197,2.731037,2.276287,1.50938
173,1730,-0.191424,0.336267,1.095555,2.731037,2.276287,1.50938
174,1740,-0.194843,0.238403,1.16732,1.817532,1.539087,1.3916205000000001
175,1750,-0.194843,0.238403,1.16732,1.90218,1.533813,1.445427
176,1760,-0.194843,0.238403,1.16732,1.90218,1.533813,1.445427
177,1770,-0.09063,-0.011264,1.167564,2.690449,0.352345,2.82917
178,1780,-0.09063,-0.011264,1.167564,2.690449,0.352345,2.82917
179,1790,0.081167,-0.114256,1.081177,3.031378,0.8540920000000001,2.5410459999999997
180,1800,0.143286,-0.179062,1.041754,3.545876,1.475201,2.235832
181,1810,0.137791,-0.255589,1.052117,3.605557,1.601906,2.212467
182,1820,0.478622,-0.3380685,0.9544969999999999,3.70676,2.13356,2.183628
183,1830,0.819453,-0.420548,0.856877,3.70676,2.13356,2.183628
184,1840,0.454217,-0.3783315,0.923636,0.502481,0.901556,0.09359350000000011
185,1850,0.095697,-0.34759249999999997,0.9858775,3.476715,1.72554,2.349854
186,1860,0.151223,-0.32073,0.986976,2.90781,0.716705,2.365875
187,1870,0.1105785,-0.299011,0.9307179999999999,2.90781,0.716705,2.365875
188,1880,0.0317465,-0.2473925,0.8510314999999999,0.20574549999999991,0.484991,-0.17323500000000003
189,1890,-0.006441,-0.217493,0.827603,-2.496319,0.253277,-2.712345
190,1900,0.124986,-0.241181,1.0450504999999999,-1.8821525000000001,-0.560026,-2.269678
191,1910,0.474364,-0.436177,1.472635,-1.267986,-1.373329,-1.827011
192,1920,0.6019905000000001,-0.5041565,1.4775185,0.5871295000000001,-0.0955965,1.675005
193,1930,0.65251,-0.473036,1.3789064999999998,0.541334,0.5552865,1.3660525
194,1940,0.653243,-0.426897,1.303494,0.303211,0.851955,0.896816
195,1950,0.2581075,0.01837649999999999,1.061275,0.303211,0.851955,0.896816
196,1960,0.309115,0.114409,0.697153,-0.392399,0.427446,0.3646945
197,1970,0.755258,-0.234832,0.57525,-1.088009,0.002937,-0.167427
198,1980,0.755258,-0.234832,0.57525,-1.088009,0.002937,-0.167427
199,1990,0.755258,-0.234832,0.57525,-1.088009,0.002937,-0.167427
200,2000,-0.031090000000000007,0.45365249999999996,0.7984365,-1.9231415,-0.107813,-0.9093665
201,2010,0.457026,-0.338801,0.859563,-2.758274,-0.218563,-1.651306
202,2020,0.457026,-0.338801,0.859563,-3.11409,0.312958,-2.713413
203,2030,-0.48492599999999997,0.38982399999999995,1.7257360000000002,-3.11409,0.312958,-2.713413
204,2040,-1.19867,1.174097,2.465228,-3.11409,0.312958,-2.713413
205,2050,-0.094537,-0.357849,0.830778,-2.590046,0.353413,-2.898731
206,2060,-0.10577,-0.330254,0.818079,-2.399387,-0.350742,-2.619553
207,2070,-0.159464,0.439748,0.988441,-0.42597799999999997,0.35501499999999997,-0.631256
208,2080,-0.159464,0.439748,0.988441,1.439819,1.55077,1.159973
209,2090,-0.195088,0.144171,1.215642,-2.224617,-1.261444,-2.264938
210,2100,-0.038645,-0.012729,0.691399,-2.208595,-1.741962,-2.017803
211,2110,-0.038645,-0.012729,0.691399,-2.208595,-1.741962,-2.017803
212,2120,0.017842000000000004,0.0087455,0.7713300000000001,-2.1111294999999997,-1.858587,-1.8744755
213,2130,0.074329,0.03022,0.851261,-2.013664,-1.975212,-1.731148
214,2140,0.0768935,0.0453455,0.8860445,-2.013664,-1.975212,-1.731148
215,2150,0.076771,0.075123,0.957916,-1.852779,-1.797371,-1.668396
216,2160,0.052382,0.135166,1.010145,-1.1774635,-1.0585689999999999,-1.427536
217,2170,0.3600165,-0.096445,1.030643,-1.133804,-1.061773,-1.4137175
218,2180,0.667651,-0.328056,1.051141,-0.896282,-0.94408,-1.351967
219,2190,-0.102352,0.451439,0.845888,-0.817375,-1.326466,-1.275196
220,2200,-0.102352,0.451439,0.845888,-0.817375,-1.326466,-1.275196
221,2210,0.755258,-0.234832,0.57525,-0.965443,-1.494827,-1.315784
222,2220,-0.19473649999999998,0.5844535,0.8167365,-1.266918,-1.192284,-1.411648
223,2230,-0.283443,0.29879750000000005,0.8872655,-1.266918,-1.192284,-1.411648
224,2240,-0.465267,0.853184,1.013076,-1.266918,-1.192284,-1.411648
225,2250,-0.652937,1.024248,1.265429,-1.9635965,-1.1070345000000001,-1.2470245
226,2260,-0.73618,1.027911,1.875081,-1.755848,-1.663055,-1.624603
227,2270,-0.734959,1.014724,2.013239,-1.831551,-1.787758,-0.644608
228,2280,-0.050611,0.305009,0.942776,-1.831551,-1.787758,-0.644608
229,2290,-0.739843,0.962983,2.28119,-1.264782,-1.886826,-0.221767
230,2300,-0.41195499999999996,0.6959935,1.5134015,-0.797215,-1.090012,-1.296558
231,2310,-0.6684595,0.874414,2.141476,-0.610695,-1.294556,0.328979
232,2320,-0.583645,0.854649,2.04642,-1.653576,-0.904694,-1.420193
233,2330,-0.6466035,0.956176,1.7349999999999999,-1.653576,-0.904694,-1.420193
234,2340,-0.3591,0.837555,1.973678,-0.110016,0.404549,1.068382
235,2350,-0.233427,0.792896,1.877767,-0.408421,-0.630856,0.625114
236,2360,-0.167523,0.751656,1.714243,-0.05207099999999998,0.11589050000000001,0.8738515
237,2370,-0.116515,0.711851,1.533166,0.304279,0.862637,1.122589
238,2380,-0.094293,0.68795,1.442628,1.015377,0.969715,1.117849
239,2390,-0.094293,0.68795,1.442628,1.104298,0.938339,1.110973
240,2400,-0.052565,0.607394,1.222479,1.320591,1.049023,1.08427
241,2410,0.07091,0.391915,0.937922,1.470795,1.465588,1.005497
242,2420,0.07091,0.391915,0.937922,1.470795,1.465588,1.005497
243,2430,0.085074,0.354796,0.919851,1.530476,1.642361,0.984135
244,2440,0.087516,0.24521,0.903978,1.530476,1.642361,0.984135
245,2450,-0.015110499999999999,0.116729,0.8876315,2.0726775,2.2085955,0.917578
246,2460,-0.074055,0.045574,0.87739,2.466812,2.136764,1.093884
247,2470,-0.10748,-0.020299,0.900559,2.666016,1.986561,1.289883
248,2480,-0.10748,-0.020299,0.900559,2.7714920000000003,1.929016,1.4039039999999998
249,2490,-0.099177,-0.080831,0.919118,2.876968,1.871471,1.517925
250,2500,-0.077473,-0.120117,0.95816,3.061218,1.795769,1.740494
251,2510,-0.071124,-0.128176,0.980627,3.061218,1.795769,1.740494
252,2520,-0.04011,-0.142584,1.06506,3.307285,1.948109,2.085628
253,2530,-0.034768,-0.154061,1.090457,3.374443,2.076016,2.157059
254,2540,-0.018163,-0.151131,1.153889,3.526783,2.325287,2.365875
255,2550,0.047253,-0.155282,1.13536,3.441467,2.187901,2.51915
256,2560,0.0473605,-0.1265885,1.1781869999999999,3.007412,1.5993025,2.53891
257,2570,0.024787,-0.08718,1.218328,2.573357,1.010704,2.55867
258,2580,0.024787,-0.08718,1.218328,2.573357,1.010704,2.55867
259,2590,0.007723,-0.009829,1.362072,2.573357,1.010704,2.55867
260,2600,0.035669,-0.037637500000000004,1.4462760000000001,1.770067,-0.37731149999999997,2.4366380000000003
261,2610,0.107052,-0.150154,1.618088,1.256638,-1.134739,2.299786
262,2620,0.254215,-0.428362,1.762809,0.916843,-1.311512,2.082424
263,2630,0.254215,-0.428362,1.762809,0.916843,-1.311512,2.082424
264,2640,0.430407,-0.494267,1.49388,0.811367,-0.776787,1.689358
265,2650,0.55489,-0.436665,1.267138,0.567436,-0.561562,1.444359
266,2660,0.592711,-0.424348,1.212223,0.36129,-0.5030155000000001,1.25103
267,2670,0.630532,-0.412031,1.157308,0.155144,-0.444469,1.057701
268,2680,0.788943,-0.30452049999999997,0.7073945,-0.606556,-0.197334,0.11282
269,2690,0.6532425,-0.25534450000000003,0.594527,-1.3702585,0.470638,-1.228399
270,2700,0.580745,-0.2446,0.565238,-1.465054,0.564365,-1.407375
271,2710,0.5485405,-0.2475305,0.5488765,-1.807585,0.8232495,-2.0790195000000002
272,2720,0.516336,-0.250461,0.532515,-2.150116,1.082134,-2.750664
273,2730,0.335718,-0.279246,0.495182,-2.150116,1.082134,-2.750664
274,2740,0.1680575,-0.300354,0.5026305,-2.312002,0.9058284999999999,-3.0451965000000003
275,2750,0.000397,-0.321462,0.510079,-2.423821,0.986271,-3.292866
276,2760,-0.014865999999999999,-0.3204855,0.513864,-2.452059,0.7763865,-3.304081
277,2770,-0.06331,-0.313434,0.5584,-2.458935,-0.056744,-3.086186
278,2780,-0.06331,-0.313434,0.5584,-2.458935,-0.056744,-3.086186
279,2790,-0.035119500000000005,-0.24691950000000001,0.632348,-2.3737525,-0.542469,-2.8379825
280,2800,-0.006929,-0.180405,0.706296,-2.28857,-1.028194,-2.589779
281,2810,0.005037,-0.088401,0.79024,-1.72287,-2.031689,-2.030487
282,2820,0.005037,-0.088401,0.79024,-1.72287,-2.031689,-2.030487
283,2830,0.005037,-0.088401,0.79024,-1.72287,-2.031689,-2.030487
284,2840,-0.0050975000000000005,-0.0596005,0.7929265000000001,-1.53595,-2.2761535,-1.7822835000000001
285,2850,-0.022802,0.024115,0.851016,-1.207237,-2.594185,-1.318989
286,2860,-0.003022,0.088066,0.912769,-1.045418,-2.718754,-1.130333
287,2870,-0.003022,0.088066,0.912769,-0.952759,-2.767754,-1.047287
288,2880,-0.003022,0.088066,0.912769,-0.952759,-2.767754,-1.047287
289,2890,-0.003022,0.088066,0.912769,-0.727921,-2.669754,-0.885334
290,2900,0.142187,0.201773,0.844179,-0.748215,-1.847439,-1.011105
291,2910,0.1219335,0.2780555,0.7637594999999999,-0.748215,-1.847439,-1.011105
292,2920,0.058731,0.318196,0.737767,-0.986805,-0.901489,-1.39883
293,2930,0.058731,0.318196,0.737767,-0.986805,-0.901489,-1.39883
294,2940,-0.503592,0.7225965000000001,0.906542,-1.4565755,-0.2596185,-1.692829
295,2950,-0.573632,0.784105,0.949613,-1.496029,-0.299606,-1.68108
296,2960,-0.573632,0.784105,0.949613,-1.496029,-0.299606,-1.68108
297,2970,-0.806205,0.97324,1.097508,-1.729279,-1.29776,-1.211376
298,2980,-0.8793135,1.016815,1.2400465,-1.769733,-1.545963,-1.038742
299,2990,-1.023668,1.100164,1.727918,-1.820335,-1.8319509999999999,-0.7468795
300,3000,-1.036122,1.069151,2.023465,-1.896572,-2.380028,-0.026703
301,3010,-0.8909130000000001,0.962877,2.2620354999999996,-1.4853475,-1.6487025,0.4196355
302,3020,-0.745704,0.856603,2.500606,-1.074123,-0.917377,0.865974
303,3030,-0.745704,0.856603,2.500606,-1.074123,-0.917377,0.865974
304,3040,-0.538742,0.820216,2.297308,-0.3689,0.733795,1.262245
305,3050,-0.4163355,0.8225359999999999,2.0288375,-0.050935499999999995,1.3622475,1.344223
306,3060,-0.394021,0.818751,2.026639,0.428982,1.943836,1.408176
307,3070,-0.394021,0.818751,2.026639,0.45294749999999995,1.8506429999999998,1.407108
308,3080,-0.223659,0.788745,1.484356,0.476913,1.75745,1.40604
309,3090,-0.223659,0.788745,1.484356,0.476913,1.75745,1.40604
310,3100,-0.194599,0.716262,1.3365835,0.698414,0.668774,1.46986
311,3110,-0.1460485,0.539078,1.3652465,0.841141,0.547276,1.548767
312,3120,-0.071368,0.440481,1.368421,1.075592,0.698547,1.665993
313,3130,-0.071368,0.440481,1.368421,1.075592,0.698547,1.665993
314,3140,-0.071368,0.440481,1.368421,1.075592,0.698547,1.665993
315,3150,0.134128,0.285259,1.216374,2.104588,1.510315,1.777744
316,3160,0.1841595,0.225689,1.090335,2.6217555,1.7005065,1.6260050000000001
317,3170,0.166119,0.181534,0.986488,2.93972,1.7202,1.493359
318,3180,0.11584349999999999,0.1385695,0.9412035000000001,2.93972,1.7202,1.493359
319,3190,0.065568,0.095605,0.895919,3.172035,1.602974,1.362381
320,3200,-0.017918,0.022894,0.948881,3.196468,1.588154,1.377201
321,3210,-0.051099,-0.026649,1.01332,3.2455350000000003,1.6834159999999998,1.489687
322,3220,-0.184617,-0.180893,1.335484,3.421307,1.878948,1.77988
323,3230,-0.184617,-0.180893,1.335484,3.421307,1.878948,1.77988
324,3240,-0.193027,-0.2154325,1.4072339999999999,3.6982825000000004,2.0797535,2.1537875
325,3250,-0.201437,-0.249972,1.478984,3.975258,2.280559,2.527695
326,3260,0.00015249999999999986,-0.331368,1.369642,4.02586,2.2634695,2.6172165
327,3270,0.261785,-0.416183,1.201722,3.76751,1.344089,2.733307
328,3280,0.261785,-0.416183,1.201722,3.76751,1.344089,2.733307
329,3290,0.3064445,-0.2200725,1.0632285,3.1198315,0.33478700000000006,2.4350354999999997
330,3300,0.294967,-0.161632,1.080933,3.112354,0.100937,2.464943
331,3310,0.34048,-0.276453,1.1927015,2.1168705,-0.6809235,1.955185
332,3320,0.435047,-0.484254,1.348671,0.860367,-1.302032,1.309109
333,3330,0.435047,-0.484254,1.348671,0.860367,-1.302032,1.309109
334,3340,0.435047,-0.484254,1.348671,0.860367,-1.302032,1.309109
335,3350,0.541703,-0.649244,1.411859,0.318165,-0.428448,0.887203
336,3360,0.546831,-0.643871,1.399191,-0.357285,-0.040722,-0.116291
337,3370,0.546465,-0.5350174999999999,1.0892365000000002,-0.645409,-0.1056765,-0.48218700000000003
338,3380,0.546099,-0.426164,0.779282,0.21162,-0.188789,0.735931
339,3390,0.552692,-0.478271,0.9997820000000001,-0.469637,-0.1642895,-0.18338249999999995
340,3400,0.3718445,-0.40446099999999996,0.6451534999999999,-0.918045,0.11161800000000001,-0.7431409999999999
341,3410,0.506568,-0.414473,0.722657,-2.036095,0.434456,-2.059326
342,3420,0.28934950000000004,-0.38701549999999996,0.6613925,-2.148447,0.5329895,-2.2244165000000002
343,3430,0.072131,-0.359558,0.600128,-2.260799,0.631523,-2.389507
344,3440,0.072131,-0.359558,0.600128,-2.260799,0.631523,-2.389507
345,3450,0.0191695,-0.32147749999999997,0.566932,-2.2656055,0.6027505,-2.4070644999999997
346,3460,-0.0411025,-0.267173,0.524105,-2.273617,0.186253,-2.429962
347,3470,-0.048413,-0.250949,0.514474,-2.273617,0.186253,-2.429962
348,3480,-0.036936,-0.234832,0.50202,-2.292843,-0.670242,-2.240372
349,3490,0.028205,-0.228726,0.583523,-2.301321,-1.398363,-1.9927025
350,3500,0.061905,-0.197011,0.656509,-2.280025,-1.53635,-1.948509
351,3510,0.038706000000000004,-0.138921,0.731922,-2.134628,-1.630077,-1.880884
352,3520,0.000641,-0.061814,0.835906,-1.898708,-1.728077,-1.766396
353,3530,-0.003022,-0.0286175,0.866279,-1.737289,-1.6721345,-1.6768745
354,3540,0.006013,0.024359,0.901047,-1.5109155,-1.591692,-1.5601825
355,3550,0.006013,0.024359,0.901047,-1.445961,-1.567192,-1.533012
356,3560,0.0185745,0.051939,0.8939805000000001,-1.193485,-1.505508,-1.446762
357,3570,0.09020249999999999,0.18860100000000002,0.8157595,-1.028328,-1.4910885,-1.4419555000000002
358,3580,0.098505,0.202261,0.803183,-0.863171,-1.476669,-1.437149
359,3590,0.12668000000000001,0.3068565,0.704464,-0.831261,-1.3930225,-1.5021705
360,3600,0.122162,0.343838,0.686515,-0.799351,-1.309376,-1.567192
361,3610,0.076527,0.390206,0.6883465,-0.907898,-1.109104,-1.839829
362,3620,0.030892,0.436574,0.690178,-0.907898,-1.109104,-1.839829
363,3630,0.030892,0.436574,0.690178,-0.907898,-1.109104,-1.839829
364,3640,-0.3423875,0.7188265,0.844682,-1.3916205000000001,-0.7341955,-2.4757575000000003
365,3650,-0.8366085,1.0009415,1.1909925000000001,-1.5684605,-0.873718,-2.3985195
366,3660,-1.155232,1.07843,1.738175,-2.017937,-1.274261,-1.954918
367,3670,-1.155232,1.07843,1.738175,-2.017937,-1.274261,-1.954918
368,3680,-1.155232,1.07843,1.738175,-2.017937,-1.274261,-1.954918
369,3690,-1.155232,1.07843,1.738175,-2.017937,-1.274261,-1.954918
370,3700,-1.3225265,1.007535,2.456192,-1.0000895,-1.73502,-0.138054
371,3710,-1.299953,0.990334,2.452773,-0.886669,-1.675873,0.012684
372,3720,-1.057368,0.91515,2.260952,-0.3199,-0.757694,0.897884
373,3730,-1.057368,0.91515,2.260952,-0.3199,-0.757694,0.897884
374,3740,-0.6224580000000001,0.8693925,2.0068894999999998,-0.0030040000000000067,0.16749399999999998,1.309576
375,3750,-0.466488,0.868294,1.943427,0.313892,1.092682,1.721268
376,3760,0.023198999999999997,0.8048470000000001,1.509479,0.539198,1.3084410000000002,1.507244
377,3770,0.129244,0.798757,1.360851,0.539198,1.3084410000000002,1.507244
378,3780,0.129244,0.798757,1.360851,0.660095,1.360111,1.352768
379,3790,0.1364485,0.729571,1.0612750000000002,0.7069585,1.2002945,0.930929
380,3800,0.096796,0.705044,1.045036,0.753822,1.040478,0.50909
381,3810,0.06347749999999999,0.6850195,1.057124,0.748482,1.032066,0.433388
382,3820,-0.158503,0.502096,1.170739,0.90189,1.160908,0.43232
383,3830,-0.177047,0.476348,1.185635,0.992413,1.229134,0.482388
384,3840,-0.177047,0.476348,1.185635,1.196957,1.3207244999999999,0.6565575
385,3850,-0.227078,0.345059,1.183193,1.401501,1.412315,0.830727
386,3860,-0.142126,0.206657,1.143419,1.401501,1.412315,0.830727
387,3870,-0.0495275,0.14467449999999998,1.1569414999999998,2.298517,1.8890285,1.6483690000000002
388,3880,-0.03428,0.132968,1.162192,2.382698,1.886425,1.68829
389,3890,0.037729,-0.006899,1.106544,2.950401,1.775608,1.795902
390,3900,0.037729,-0.006899,1.106544,2.950401,1.775608,1.795902
391,3910,0.022345,-0.089622,1.069456,3.436127,1.697769,1.818333
392,3920,-0.075276,-0.237762,1.069456,3.783398,1.895905,2.022743
393,3930,-0.075276,-0.237762,1.069456,3.783398,1.895905,2.022743
394,3940,-0.075276,-0.237762,1.069456,3.783398,1.895905,2.022743
395,3950,-0.07979349999999999,-0.24899549999999998,1.0692115,3.7983515,1.9806195,2.0643330000000004
396,3960,-0.1034505,-0.188952,1.085451,3.868713,2.787647,2.681103
397,3970,-0.116027,-0.114012,1.079224,3.868713,2.787647,2.681103
398,3980,-0.116027,-0.114012,1.079224,3.868713,2.787647,2.681103
399,3990,-0.060379,0.008623499999999992,0.9780629999999999,3.7078284999999997,2.216606,2.7268985
400,4000,-0.004731,0.131259,0.876902,3.546944,1.645565,2.772694
401,4010,0.033456,0.15542,0.9507275,2.9536059999999997,0.4871275,2.606535
402,4020,0.1658595,0.015201999999999993,1.2124825000000001,1.3983635,-1.0809325,2.1911045
403,4030,0.260076,-0.149177,1.400412,0.856628,-1.3584425,2.0334245
404,4040,0.314014,-0.246553,1.517293,0.146599,-0.613766,1.611652
405,4050,0.355376,-0.30342199999999997,1.5946595000000001,0.146599,-0.613766,1.611652
406,4060,0.396738,-0.360291,1.672026,0.146599,-0.613766,1.611652
407,4070,0.47972099999999995,-0.2865875,1.4312725,0.196133,-0.3853225,1.4864825000000002
408,4080,0.47764549999999995,-0.30879449999999997,1.4777784999999999,0.245667,-0.156879,1.361313
409,4090,0.509987,-0.264624,1.34916,0.245667,-0.156879,1.361313
410,4100,0.623587,-0.189196,1.045173,-0.502081,0.15954949999999998,0.012684
411,4110,0.6479925,-0.119522,0.454553,-1.72821,0.553684,-1.589489
412,4120,0.529493,-0.140386,0.436604,-1.904983,0.629387,-1.847305
413,4130,0.529493,-0.140386,0.436604,-1.904983,0.629387,-1.847305
414,4140,0.529493,-0.140386,0.436604,-1.904983,0.629387,-1.847305
415,4150,0.136082,-0.23812850000000002,0.512643,-2.3284915,0.5244445,-2.686243
416,4160,0.03138,-0.250705,0.516672,-2.346115,0.257549,-2.696323
417,4170,-0.017186,-0.249972,0.543016,-2.335434,-0.115223,-2.543983
418,4180,-0.017186,-0.249972,0.543016,-2.335434,-0.115223,-2.543983
419,4190,0.0502905,-0.227765,0.63479,-2.2283549999999996,-1.2455555,-2.0816895
420,4200,0.121674,-0.198476,0.691643,-2.127686,-1.905918,-1.854782
421,4210,0.235412,-0.132816,0.711912,-1.873074,-2.381096,-1.690693
422,4220,0.2483545,-0.12378049999999999,0.7144765,-1.8278124999999998,-2.400255,-1.6869545000000001
423,4230,0.261297,-0.114745,0.717041,-1.782551,-2.419414,-1.683216
424,4240,0.261297,-0.114745,0.717041,-1.782551,-2.419414,-1.683216
425,4250,0.294112,-0.059738,0.7265645000000001,-1.52153,-2.26387,-1.785488
426,4260,0.291792,-0.060837,0.729495,-1.475735,-2.173348,-1.810055
427,4270,0.268867,-0.064225,0.703121,-1.235008,-1.811123,-1.840897
428,4280,0.23823500000000003,-0.033120000000000004,0.7182615,-1.183338,-1.746702,-1.8398284999999999
429,4290,0.207603,-0.002015,0.733402,-1.131668,-1.682281,-1.83876
430,4300,0.168042,0.064622,0.742407,-1.117783,-1.629009,-1.834488
431,4310,0.1113105,0.1399125,0.7701089999999999,-1.1982249999999999,-1.5192605000000001,-1.8776795
432,4320,0.073352,0.179336,0.795613,-1.368122,-1.438351,-1.967735
433,4330,0.048459,0.1942175,0.805625,-1.46719,-1.3872149999999999,-2.016735
434,4340,-0.342525,0.444877,1.032368,-1.7180635,-1.312113,-2.098179
435,4350,-0.342525,0.444877,1.032368,-1.869869,-1.288147,-2.130623
436,4360,-0.528119,0.5928785000000001,1.1945335,-2.0083905,-1.4489649999999998,-2.028885
437,4370,-0.435017,0.527356,1.117289,-2.146912,-1.609783,-1.927147
438,4380,-0.888959,0.830229,1.670805,-2.298183,-1.935825,-1.248627
439,4390,-1.069303,0.982275,1.988086,-2.207527,-2.373619,-0.509357
440,4400,-1.0807805,0.9944855,2.045321,-2.207527,-2.373619,-0.509357
441,4410,-1.092258,1.006696,2.102556,-2.207527,-2.373619,-0.509357
442,4420,-1.092258,1.006696,2.102556,-1.8555165,-3.0825804999999997,0.7753844999999999
443,4430,-0.967776,0.99302,2.29975,-1.791096,-2.997932,0.907497
444,4440,-0.871377,0.983496,2.328535,-1.791096,-2.997932,0.907497
445,4450,-0.498693,1.011305,2.324628,-1.083736,-0.647945,1.620197
446,4460,-0.090874,1.032062,2.126946,-0.7455445,0.3683665,1.3868140000000002
447,4470,0.170973,1.001567,1.743303,-0.391331,1.057568,1.008701
448,4480,0.170973,1.001567,1.743303,-0.391331,1.057568,1.008701
449,4490,0.176101,0.95056,1.410394,0.025234,1.070385,0.469704
450,4500,0.080694,0.902345,1.15743,0.278177,0.846615,0.0925255
451,4510,-0.166058,0.804618,0.983069,0.391598,0.508957,-0.166359
452,4520,-0.166058,0.804618,0.983069,0.391598,0.508957,-0.166359
453,4530,-0.166058,0.804618,0.983069,0.391598,0.508957,-0.166359
454,4540,-0.166058,0.804618,0.983069,0.391598,0.508957,-0.166359
455,4550,-0.22133950000000002,0.6504955,1.034199,0.5689715,0.881796,0.13992300000000002
456,4560,-0.227811,0.438039,1.160726,1.011639,1.677609,0.663567
457,4570,-0.180954,0.39338,1.221014,1.412182,1.948109,0.834999
458,4580,-0.180954,0.39338,1.221014,1.412182,1.948109,0.834999
459,4590,-0.180954,0.39338,1.221014,1.412182,1.948109,0.834999
460,4600,-0.149208,0.318441,1.163413,2.599926,1.882153,1.070385
461,4610,-0.168012,0.25278,1.08191,2.599926,1.882153,1.070385
462,4620,-0.215601,0.1384475,1.0597029999999998,2.8678895,1.7958355,1.293621
463,4630,-0.26319,0.024115,1.037496,3.135853,1.709518,1.516857
464,4640,-0.26319,0.024115,1.037496,3.135853,1.709518,1.516857
465,4650,-0.235244,-0.0299455,1.097524,3.213024,1.8272110000000001,1.81406
466,4660,-0.171675,-0.101833,1.2132,3.338661,2.0487785,2.2731495
467,4670,-0.171675,-0.101833,1.2132,3.387127,2.152653,2.435036
468,4680,-0.0032664999999999916,-0.12782500000000002,1.3713515,3.5086250000000003,2.164936,2.48724
469,4690,0.165142,-0.153817,1.529503,3.538399,2.21981,2.540512
470,4700,0.223827,-0.170652,1.482403,3.65242,1.8997095,2.423353
471,4710,-0.083334,-0.126222,1.471902,2.958946,-0.379448,2.144241
472,4720,-0.143347,-0.225063,1.618576,2.394314,-1.018581,2.257195
473,4730,-0.143347,-0.225063,1.618576,2.394314,-1.018581,2.257195
474,4740,0.117538,-0.5485709999999999,1.8612985,1.6944979999999998,-1.035671,2.6177505
475,4750,0.346951,-0.691216,1.822364,1.625271,-0.830059,2.689648
476,4760,0.618596,-0.629219,1.421627,1.677475,-0.14833449999999998,2.608738
477,4770,0.618596,-0.629219,1.421627,1.722202,0.242596,2.506466
478,4780,0.618596,-0.629219,1.421627,1.722202,0.242596,2.506466
479,4790,0.7799075,-0.43910699999999997,1.001247,1.3093755,0.073767,1.931219
480,4800,0.950743,-0.193958,0.4717695,0.5535505000000001,-0.2585505,0.957031
481,4810,0.745734,-0.060349,0.192066,-0.901623,-0.321903,-0.677586
482,4820,0.745734,-0.060349,0.192066,-0.901623,-0.321903,-0.677586
483,4830,0.745734,-0.060349,0.192066,-0.901623,-0.321903,-0.677586
484,4840,0.745734,-0.060349,0.192066,-0.901623,-0.321903,-0.677586
485,4850,0.403576,-0.171858,0.366091,-2.218208,0.527115,-1.995373
486,4860,0.005525,-0.245821,0.50202,-2.399387,0.836067,-2.372417
487,4870,0.005525,-0.245821,0.50202,-2.399387,0.836067,-2.372417
488,4880,0.005525,-0.245821,0.50202,-2.371616,0.827522,-2.383099
489,4890,-0.115783,-0.263647,0.448814,-2.371616,0.827522,-2.383099
490,4900,-0.10224450000000002,-0.245943,0.461253,-2.250252,-0.428448,-1.63208
491,4910,0.04823,-0.193348,0.520335,-2.193775,-1.046352,-1.341286
492,4920,0.077153,-0.1807715,0.5198465,-2.1612644999999997,-1.1661815,-1.2922859999999998
493,4930,0.106076,-0.168195,0.519358,-2.128754,-1.286011,-1.243286
494,4940,0.106076,-0.168195,0.519358,-2.128754,-1.286011,-1.243286
495,4950,0.2949665,-0.0993905,0.4947095,-1.7117215,-1.618395,-1.278467
496,4960,0.3581845,-0.0737495,0.48115600000000003,-1.595564,-1.2412835,-1.438284
497,4970,0.36258,-0.064958,0.506416,-1.515122,-0.948353,-1.554375
498,4980,0.36258,-0.064958,0.506416,-1.515122,-0.948353,-1.554375
499,4990,0.33352,-0.014438,0.578913,-1.515122,-0.948353,-1.554375
500,5000,0.271523,0.03022,0.603059,-1.292553,-1.180534,-1.847305
501,5010,0.172926,0.067797,0.609897,-1.292553,-1.180534,-1.847305
502,5020,0.172926,0.067797,0.609897,-1.292553,-1.180534,-1.847305
503,5030,0.027229,0.148567,0.67922,-1.351166,-1.567192,-1.893101
504,5040,-0.060012499999999996,0.22275850000000003,0.8684765000000001,-1.732483,-1.238079,-1.65451
505,5050,-0.065263,0.247652,0.932305,-1.732483,-1.238079,-1.65451
506,5060,-0.10284,0.346249,1.063106,-1.975346,-0.793877,-1.641693
507,5070,-0.283214,0.597412,1.318878,-1.993971,-0.751753,-1.6448975
508,5080,-0.283214,0.597412,1.318878,-2.012596,-0.709629,-1.648102
509,5090,-0.283214,0.597412,1.318878,-2.012596,-0.709629,-1.648102
510,5100,-0.4810185,0.784349,1.5811215,-2.022743,-0.736799,-1.5858175
511,5110,-0.803794,0.997904,1.919251,-1.671734,-1.098556,-0.83313
512,5120,-0.854771,0.996928,1.964398,-1.627007,-1.201897,-0.644608
513,5130,-0.854771,0.996928,1.964398,-1.627007,-1.201897,-0.644608
514,5140,-0.917745,0.924918,2.048618,-1.627007,-1.201897,-0.644608
515,5150,-0.7726580000000001,0.8520695,2.0027225,-1.280804,-1.325464,0.4717735
516,5160,-0.725435,0.839997,1.984911,-1.127396,-1.157169,0.858498
517,5170,-0.084067,0.775802,1.688632,-0.818443,0.067959,1.457176
518,5180,0.024176000000000003,0.772383,1.623094,-0.70075,0.501013,1.4001655
519,5190,0.132419,0.768964,1.557556,-0.583057,0.934067,1.343155
520,5200,0.252994,0.787768,1.410638,-0.384922,1.275997,1.035271
521,5210,0.2725,0.804862,1.328158,-0.295467,1.365452,0.855293
522,5220,0.204413,0.8166755,1.115213,-0.088787,1.2317369999999999,0.2299785
523,5230,0.172438,0.813623,1.094822,-0.07597,1.167316,0.152206
524,5240,0.172438,0.813623,1.094822,-0.07597,1.167316,0.152206
525,5250,-0.141638,0.733097,1.096043,0.040188,0.446072,0.032845
526,5260,-0.3855805,0.4192355,1.329013,-0.041924,0.684795,-0.090656
527,5270,-0.344936,0.369693,1.360851,0.860367,0.938339,1.094952
528,5280,-0.344936,0.369693,1.360851,0.860367,0.938339,1.094952
529,5290,-0.2778265,0.344067,1.3615835,0.860367,0.938339,1.094952
530,5300,-0.055755,0.3344355,1.2673975,2.330961,1.8437670000000002,1.5428925
531,5310,-0.030129,0.338709,1.24226,2.75547,1.920471,1.510449
532,5320,0.0184375,0.3103815,0.9651205,2.515812,1.868801,1.5301420000000001
533,5330,0.017705,0.30159,0.928887,2.874832,1.874676,1.464653
534,5340,0.017705,0.30159,0.928887,2.874832,1.874676,1.464653
535,5350,-0.169233,0.129305,0.860052,3.00581,1.712723,1.422062
536,5360,-0.336664,-0.036173,1.193938,3.048401,1.686153,1.778812
537,5370,-0.349958,-0.053129499999999996,1.2388409999999999,3.086252,1.6951654999999999,1.845436
538,5380,-0.3359165,-0.11950649999999999,1.3530514999999999,3.331785,1.8373585000000001,2.1298885
539,5390,-0.308581,-0.168927,1.422359,3.539467,1.970539,2.347717
540,5400,-0.243058,-0.1883415,1.4068675,3.763237,2.053585,2.552261
541,5410,-0.0463525,-0.181153,1.2821565,3.763237,2.053585,2.552261
542,5420,0.08483,-0.15455,1.172937,3.460693,1.245022,2.540512
543,5430,0.097162,-0.05583099999999999,1.2064995,3.460693,1.245022,2.540512
544,5440,0.109494,0.042888,1.240062,3.460693,1.245022,2.540512
545,5450,0.174391,-0.069354,1.353525,1.640091,-1.267853,1.780949
546,5460,0.2428595,-0.275583,1.5343725,1.0617065,-0.7027534999999999,1.4150524999999998
547,5470,0.311328,-0.481812,1.71522,0.76664,-0.190926,1.194019
548,5480,0.2876555,-0.5045075,1.675201,0.7777885,0.6687735,0.9985539999999999
549,5490,0.2462785,-0.4826665,1.50461,0.809231,1.632347,0.7647035
550,5500,0.228574,-0.43813,1.374038,0.829525,1.736221,0.726318
551,5510,0.289838,-0.410688,1.074462,0.6345270000000001,1.458111,0.664034
552,5520,0.3730655,-0.40763550000000004,0.863593,0.498142,1.266384,0.629387
553,5530,0.409925,-0.40788,0.800009,0.498142,1.266384,0.629387
554,5540,0.609805,-0.275094,0.422227,0.304279,1.023521,0.566635
555,5550,0.609683,-0.24289,0.39135050000000005,-0.665035,0.125504,-0.0737
556,5560,0.5891850000000001,-0.241425,0.37730850000000005,-1.3063715,0.041323,-0.640402
557,5570,0.568809,-0.272164,0.394143,-2.154255,0.02964,-1.408443
558,5580,0.568809,-0.272164,0.394143,-2.154255,0.02964,-1.408443
559,5590,0.454828,-0.371982,0.585476,-2.601795,0.263958,-2.107258
560,5600,0.4131,-0.395914,0.65602,-2.617683,0.293732,-2.245712
561,5610,0.2620295,-0.424104,0.7042200000000001,-2.5021265,0.17931,-2.5035285
562,5620,0.202963,-0.441061,0.724367,-2.437706,0.086117,-2.547188
563,5630,0.202963,-0.441061,0.724367,-2.437706,0.086117,-2.547188
564,5640,0.11679,-0.369784,0.737279,-1.818733,-0.879059,-2.019939
565,5650,0.125581,-0.320486,0.721436,-1.72287,-0.969582,-1.939964
566,5660,0.149269,-0.223354,0.650404,-1.457577,-1.077194,-1.776943
567,5670,0.149269,-0.223354,0.650404,-1.457577,-1.077194,-1.776943
568,5680,0.149269,-0.223354,0.650404,-1.457577,-1.077194,-1.776943
569,5690,0.17317,-0.116454,0.595733,-1.229668,-1.39576,-1.639557
570,5700,0.16769099999999998,-0.0998635,0.601594,-1.2019635,-1.534214,-1.6219999999999999
571,5710,0.09875,-0.037149,0.653823,-1.188145,-2.125416,-1.512852
572,5720,0.094354,-0.031532500000000005,0.6709015,-1.204634,-2.1749495000000003,-1.48675
573,5730,0.089958,-0.025916,0.68798,-1.221123,-2.224483,-1.460648
574,5740,0.089958,-0.025916,0.68798,-1.353302,-2.277756,-1.372127
575,5750,0.139257,-0.057907,0.829069,-1.353302,-2.277756,-1.372127
576,5760,0.0382175,0.013370499999999999,0.9636549999999999,-1.4922905,-1.7818165,-1.4659885
577,5770,-0.029396,0.051924,0.993051,-1.59296,-1.405239,-1.512852
578,5780,-0.097712,0.099024,1.030658,-1.59296,-1.405239,-1.512852
579,5790,-0.097712,0.099024,1.030658,-1.59296,-1.405239,-1.512852
580,5800,-0.6296465,0.7257705,1.2887345,-1.921005,-0.491333,-1.422195
581,5810,-0.7827919999999999,0.8567089999999999,1.4152770000000001,-2.125549,-1.0857395,-1.1772635
582,5820,-0.893355,0.938349,1.5212,-2.260799,-1.521397,-1.003628
583,5830,-0.893355,0.938349,1.5212,-2.260799,-1.521397,-1.003628
584,5840,-0.893355,0.938349,1.5212,-2.260799,-1.521397,-1.003628
585,5850,-0.744483,0.901017,2.913065,-1.48428,-2.871094,1.310177
586,5860,-0.744483,0.901017,2.913065,-2.513275,-3.358955,-0.084248
587,5870,-0.593413,0.891981,2.879151,-1.144486,-2.250118,1.525269
588,5880,-0.593413,0.891981,2.879151,-1.144486,-2.250118,1.525269
589,5890,-0.065996,0.980566,2.3311145,-0.025368,0.3379915,1.7143915
590,5900,0.0891035,1.023637,1.9734485,0.3267095,1.142282,1.4949605
591,5910,0.146339,1.034748,1.790159,0.4673,1.422996,1.345291
592,5920,0.177444,1.004727,1.5026565,0.516834,1.4916895000000001,1.2558365
593,5930,0.177078,1.025713,1.631031,0.566368,1.560383,1.166382
594,5940,-0.14408,0.744819,1.034077,0.965843,0.951023,0.33432
595,5950,-0.13774550000000002,0.7410185,1.0616415,1.026592,0.8269215,0.38332
596,5960,-0.303208,0.560781,0.989663,1.16291,0.62191,0.532455
597,5970,-0.3257815,0.4891535,0.9906245,1.16291,0.62191,0.532455
598,5980,-0.3010105,0.3844515,1.016983,1.418591,0.503616,0.968246
599,5990,-0.253666,0.351377,1.04238,1.570931,0.556889,1.281338
600,6000,-0.119202,0.289167,1.112649,1.6753390000000001,0.649548,1.4070415
601,6010,0.02381,0.236694,1.154133,2.119541,0.989475,1.689358
602,6020,0.165875,0.117584,1.054071,2.962151,1.38895,1.63929
603,6030,0.165875,0.117584,1.054071,2.7560045,1.3223265,1.6787435
604,6040,0.165875,0.117584,1.054071,3.281784,1.410179,1.556244
605,6050,0.0672475,0.025336,0.9166765,3.477783,1.412315,1.547699
606,6060,-0.018407,-0.090843,0.954253,3.545876,1.479406,1.6292095
607,6070,-0.018407,-0.090843,0.954253,3.545876,1.514587,1.667061
608,6080,-0.025733,-0.134281,1.001354,3.556557,1.59977,1.712856
609,6090,-0.025733,-0.134281,1.001354,3.687534,2.233696,1.887493
610,6100,-0.061478000000000005,-0.3856575,1.0861835,3.7498855,2.690649,2.064333
611,6110,-0.079427,-0.397623,1.189298,3.457489,2.281628,2.335968
612,6120,-0.069537,-0.3872445,1.2143134999999998,3.3770464999999996,2.07922,2.3812295
613,6130,-0.059647,-0.376866,1.239329,3.296604,1.876812,2.426491
614,6140,0.05751,-0.131106,1.554382,2.29311,-1.048489,2.564011
615,6150,0.109006,-0.140875,1.63738,2.1738150000000003,-1.3004305,2.5347045
616,6160,0.339137,-0.405682,1.843121,1.472931,-2.087097,2.185764
617,6170,0.426744,-0.511361,1.874837,1.379204,-1.909123,2.050514
618,6180,0.426744,-0.511361,1.874837,1.379204,-1.909123,2.050514
619,6190,0.6335995,-0.6008,1.5747725,1.429272,-0.026836,1.156769
620,6200,0.640056,-0.547961,1.439209,1.429272,-0.026836,1.156769
621,6210,0.637247,-0.39444900000000005,1.129621,1.353569,0.190525,0.952225
622,6220,0.6472595,-0.299622,0.844194,0.6841275,0.328913,0.298672
623,6230,0.654708,-0.269234,0.71582,0.38105,0.295868,0.06382
624,6240,0.631509,-0.216303,0.503729,0.38105,0.295868,0.06382
625,6250,0.553913,-0.191638,0.47934,-1.396961,0.153141,-1.215649
626,6260,0.44994350000000005,-0.1971325,0.5248375,-1.396961,0.153141,-1.215649
627,6270,0.396005,-0.208732,0.552051,-1.670666,0.23098,-1.461716
628,6280,0.293501,-0.25217,0.591093,-1.670666,0.23098,-1.461716
629,6290,0.181229,-0.2954855,0.608187,-2.469616,0.67091,-2.603664
630,6300,0.068957,-0.338801,0.625281,-2.436638,0.575047,-2.687778
631,6310,0.068957,-0.338801,0.625281,-2.436638,0.575047,-2.687778
632,6320,0.0511455,-0.3445395,0.6234495,-2.3567295,0.1915265,-2.620153
633,6330,0.033334,-0.350278,0.621618,-2.276821,-0.191994,-2.552528
634,6340,-0.1095555,-0.318303,0.5281345,-2.267208,-0.438595,-2.389507
635,6350,-0.095514,-0.300003,0.54326,-2.267208,-0.98774,-1.95385
636,6360,0.046032,-0.214837,0.578181,-2.259731,-1.117649,-1.827011
637,6370,0.046032,-0.214837,0.578181,-2.128754,-1.259308,-1.560783
638,6380,0.083853,-0.191394,0.580134,-2.046776,-1.229534,-1.522465
639,6390,0.16573749999999998,-0.085486,0.5053165,-1.6275404999999998,-0.9754560000000001,-1.5272044999999999
640,6400,0.180008,-0.059616,0.471769,-1.519394,-0.914173,-1.55117
641,6410,0.180008,-0.059616,0.471769,-1.519394,-0.914173,-1.55117
642,6420,0.165875,-0.013462,0.433185,-1.223259,-0.916309,-1.683216
643,6430,0.165875,-0.013462,0.433185,-1.223259,-0.916309,-1.683216
644,6440,0.1061825,0.07877100000000001,0.4295375,-1.2525655,-1.068716,-1.761589
645,6450,0.07726,0.101955,0.467862,-1.326599,-1.085739,-1.765327
646,6460,0.022954999999999996,0.1574805,0.6386970000000001,-1.6115855,-1.026058,-1.7061805
647,6470,-0.03135,0.213006,0.809532,-1.896572,-0.966377,-1.647034
648,6480,-0.03135,0.213006,0.809532,-1.896572,-0.966377,-1.647034
649,6490,-0.068194,0.404095,1.526573,-1.896572,-0.966377,-1.647034
650,6500,-0.198018,0.583981,1.779659,-1.620598,-0.212154,-1.912327
651,6510,-0.198018,0.583981,1.779659,-1.620598,-0.212154,-1.912327
652,6520,-0.702999,0.981787,1.816747,-1.004963,-0.404015,-2.146645
653,6530,-0.702999,0.981787,1.816747,-1.004963,-0.404015,-2.146645
654,6540,-0.702999,0.981787,1.816747,-1.004963,-0.404015,-2.146645
655,6550,-1.15572,0.953734,2.267546,-1.1711215,-1.044216,-1.2044335
656,6560,-1.105445,0.779465,2.502072,-0.536194,-1.181602,0.087185
657,6570,-1.105445,0.779465,2.502072,-0.536194,-1.181602,0.087185
658,6580,-1.105445,0.779465,2.502072,-0.536194,-1.181602,0.087185
659,6590,-0.9143410000000001,0.7620195,2.227878,0.309153,-0.39967549999999996,1.215849
660,6600,-0.60779,0.742132,1.793822,0.3438,-0.278244,1.299496
661,6610,-0.49651,0.7201690000000001,1.6663025,0.35601649999999996,-0.05667699999999999,1.4017680000000001
662,6620,-0.201574,0.668795,1.406013,0.368233,0.16489,1.50404
663,6630,-0.017918,0.639384,1.273243,0.384254,0.573978,1.50938
664,6640,0.06579750000000001,0.6141245,1.1386414999999999,0.4678345,0.6022164999999999,1.3420865
665,6650,0.149513,0.588865,1.00404,0.551415,0.630455,1.174793
666,6660,0.06885000000000001,0.5119865,0.9339995000000001,0.588732,0.7295225000000001,0.8807944999999999
667,6670,-0.055495,0.404095,0.867134,0.6371975,0.866375,0.589466
668,6680,-0.166791,0.305986,0.910816,0.794277,1.055431,0.773182
669,6690,-0.185838,0.283794,0.941097,0.863571,1.068249,0.888271
670,6700,-0.185838,0.283794,0.941097,0.863571,1.068249,0.888271
671,6710,-0.104305,0.175673,0.997447,1.339817,1.158772,1.407108
672,6720,-0.104305,0.175673,0.997447,1.512318,1.235542,1.513653
673,6730,-0.104305,0.175673,0.997447,1.512318,1.235542,1.513653
674,6740,0.057983,0.169324,0.899338,2.2824955,1.4953615,1.6430284999999998
675,6750,0.079458,0.176162,0.855412,2.602062,1.531677,1.556244
676,6760,0.061905,0.176894,0.833953,2.602062,1.531677,1.556244
677,6770,-0.058914,0.134922,0.875681,2.746925,1.393089,1.451836
678,6780,-0.058914,0.134922,0.875681,2.746925,1.393089,1.451836
679,6790,-0.058914,0.134922,0.875681,2.7858445,1.3195895,1.4997675
680,6800,-0.17691,-0.0592345,1.180736,2.9333785,1.3718605,1.7043115000000002
681,6810,-0.202658,-0.144538,1.299831,3.00581,1.484814,1.800175
682,6820,-0.247561,-0.202139,1.394062,3.004742,1.533813,1.931152
683,6830,-0.266364,-0.217982,1.454075,2.934513,1.483746,2.005787
684,6840,-0.249514,-0.251926,1.720836,2.549858,0.96384,2.255058
685,6850,-0.249514,-0.251926,1.720836,2.259064,0.151005,2.388172
686,6860,-0.05525100000000001,-0.3110995,1.897532,2.2420405,0.030107500000000002,2.3817635
687,6870,0.139012,-0.370273,2.074228,2.237701,-0.477448,2.113399
688,6880,0.139012,-0.370273,2.074228,2.237701,-0.477448,2.113399
689,6890,0.288373,-0.530866,1.752094,2.131224,-0.18605249999999998,1.6451645
690,6900,0.343777,-0.525006,1.47117,2.043839,-0.061951,1.548767
691,6910,0.343777,-0.525006,1.47117,2.043839,-0.061951,1.548767
692,6920,0.438955,-0.345883,1.03774,1.220455,0.020027,1.123657
693,6930,0.4620165,-0.331124,0.9972175000000001,1.0814665,-0.0178245,1.05443
694,6940,0.594664,-0.283642,0.766339,0.942478,-0.055676,0.985203
695,6950,0.571358,-0.2505675,0.705319,0.007677000000000045,-0.0716305,0.21021850000000003
696,6960,0.470701,-0.182114,0.604036,-1.262646,0.125504,-1.011105
697,6970,0.470701,-0.182114,0.604036,-1.394825,0.23098,-1.212444
698,6980,0.434559,-0.168927,0.581813,-1.394825,0.23098,-1.212444
699,6990,0.2921585,-0.147468,0.478592,-1.6094495,0.39233199999999996,-1.5964315
700,7000,0.255925,-0.14698,0.455652,-1.824074,0.553684,-1.980419
701,7010,0.219569,-0.14698,0.43172,-1.877346,0.570774,-2.07201
702,7020,0.124604,-0.135746,0.401469,-1.99564,0.458889,-2.208462
703,7030,0.124604,-0.135746,0.401469,-2.019005,0.345936,-2.208462
704,7040,0.1054495,-0.109021,0.43454349999999997,-2.0089245,-0.058279,-2.082758
705,7050,0.086295,-0.082296,0.467618,-1.998844,-0.462494,-1.957054
706,7060,0.107297,-0.008608,0.540085,-1.687756,-0.984535,-1.704578
707,7070,0.1121655,0.0033580000000000007,0.5419165,-1.630211,-1.0410115,-1.684351
708,7080,0.117034,0.015324,0.543748,-1.572666,-1.097488,-1.664124
709,7090,0.117034,0.015324,0.543748,-1.572666,-1.097488,-1.664124
710,7100,0.1474375,0.1001235,0.5257075,-1.028862,-1.1645794999999999,-1.555443
711,7110,0.159281,0.12307850000000001,0.5311865,-0.9005544999999999,-1.075659,-1.5842155
712,7120,0.167584,0.139318,0.534468,-0.734329,-0.947285,-1.648102
713,7130,0.165875,0.149055,0.540329,-0.734329,-0.947285,-1.648102
714,7140,0.074222,0.1794585,0.5922069999999999,-0.504751,-1.0127735,-1.757317
715,7150,0.045055,0.178115,0.605745,-0.461559,-1.075058,-1.767464
716,7160,0.011386,0.168836,0.630165,-0.38225200000000004,-1.2178515,-1.723204
717,7170,-0.0594025,0.155771,0.697275,-0.342331,-1.293487,-1.688557
718,7180,-0.130191,0.142706,0.764385,-0.342331,-1.293487,-1.688557
719,7190,-0.333489,0.185197,0.954986,-0.438194,-1.316853,-1.441421
720,7200,-0.406689,0.226437,1.035298,-0.571375,-1.1320685,-1.2209225
721,7210,-0.406689,0.226437,1.035298,-0.600147,-1.07933,-1.173992
722,7220,-0.48297199999999996,0.424241,1.118876,-0.867977,-0.805559,-0.8736515
723,7230,-0.527264,0.574212,1.172448,-0.918579,-0.798149,-0.839539
724,7240,-0.527264,0.574212,1.172448,-0.918579,-0.798149,-0.839539
725,7250,-0.506263,1.045005,1.540248,-1.47253,-1.054897,-0.732994
726,7260,-0.51017,1.041098,1.630786,-1.584415,-0.973854,-0.689335
727,7270,-0.620245,0.98545,1.988574,-1.584415,-0.973854,-0.689335
728,7280,-0.620245,0.98545,1.988574,-1.560917,-0.909901,-0.639267
729,7290,-0.620245,0.98545,1.988574,-1.560917,-0.909901,-0.639267
730,7300,-0.6882095,0.980566,2.0820425,-1.4741325,-0.7362655,-0.4895975
731,7310,-0.730319,0.920767,2.16846,-1.011238,0.058346,0.185184
732,7320,-0.6095,0.866096,2.00811,-0.69067,0.622978,0.528183
733,7330,-0.6095,0.866096,2.00811,-0.547409,0.8871365,0.656023
734,7340,-0.37118850000000003,0.836944,1.5436670000000001,-0.268831,1.3627815,0.887203
735,7350,-0.278819,0.825833,1.347694,-0.133514,1.574268,0.990543
736,7360,-0.18716649999999999,0.8022825,1.2141915,-0.133514,1.574268,0.990543
737,7370,-0.04403300000000001,0.725893,0.9809785,0.341663,1.063976,0.923386
738,7380,-0.155069,0.792896,1.155843,0.341663,1.063976,0.923386
739,7390,0.079702,0.608859,0.741186,0.452347,0.915909,0.864906
740,7400,0.079213,0.58105,0.724367,0.505619,0.844479,0.842476
741,7410,0.079213,0.58105,0.724367,0.505619,0.844479,0.842476
742,7420,-0.032433500000000004,0.44315150000000003,0.81637,0.945616,0.502615,0.89201
743,7430,-0.04646,0.427782,0.829801,1.00523,0.485592,0.908566
744,7440,-0.094537,0.359436,0.847353,1.284409,0.533524,1.022587
745,7450,-0.094537,0.359436,0.847353,1.581612,0.711365,1.184406
746,7460,-0.066118,0.25438299999999997,0.844438,1.735487,0.831194,1.2643145
747,7470,-0.045727,0.219355,0.835662,1.889362,0.951023,1.344223
748,7480,-0.0134005,0.1992235,0.8072275,2.110462,1.078329,1.412916
749,7490,0.015018,0.184465,0.736791,2.695789,1.101227,1.511517
750,7500,0.015018,0.184465,0.736791,2.764015,0.998955,1.50938
751,7510,-0.029396,0.174208,0.789508,2.764015,0.998955,1.50938
752,7520,-0.0338985,0.170423,0.8046485,2.738447,1.1843395,1.472597
753,7530,-0.038401,0.166638,0.819789,2.799129,1.022453,1.506176
754,7540,-0.0901415,0.1255205,0.9718355000000001,2.6420495,1.147623,1.444893
755,7550,-0.141882,0.084403,1.123882,2.48497,1.272793,1.38361
756,7560,-0.141882,0.084403,1.123882,2.48497,1.272793,1.38361
757,7570,-0.25989300000000004,0.0476655,1.375747,2.1307565,0.7422735,1.478939
758,7580,-0.35240000000000005,-0.031410499999999994,1.9372,1.5171245,-0.68573,1.8310165
759,7590,0.095331,-0.417892,2.361991,1.412182,-1.865463,2.279491
760,7600,0.095331,-0.417892,2.361991,1.412182,-1.865463,2.279491
761,7610,0.221248,-0.495976,2.244834,1.46492,-1.7264745000000001,2.2646045
762,7620,0.221248,-0.495976,2.244834,1.517658,-1.587486,2.249718
763,7630,0.439321,-0.3324515,1.6265125,1.552305,-0.960035,2.0270825
764,7640,0.690819,-0.120606,0.875681,0.684662,0.065823,0.919247
765,7650,0.690819,-0.120606,0.875681,0.684662,0.065823,0.919247
766,7660,0.6581265000000001,-0.0825405,0.764874,0.346403,0.045595500000000004,0.612965
767,7670,0.588086,-0.042887999999999996,0.6549214999999999,-0.7625675000000001,0.068493,-0.498676
768,7680,0.550738,-0.041301,0.655776,-0.89201,0.100937,-0.649948
769,7690,0.2855645,-0.0763135,0.6833560000000001,-1.4469625000000002,0.440264,-1.5117165
770,7700,0.230283,-0.082052,0.680685,-1.517258,0.499344,-1.675739
771,7710,0.230283,-0.082052,0.680685,-1.517258,0.499344,-1.675739
772,7720,-0.035608,-0.011035,0.5592550000000001,-1.6163925,0.3588195,-1.9762135
773,7730,-0.073322,-0.00641,0.526929,-1.627007,0.377979,-2.036896
774,7740,-0.0947965,-0.0128665,0.4728685,-1.6195300000000001,0.0743675,-1.886692
775,7750,-0.116271,-0.019323,0.418808,-1.6025065,-0.30648200000000003,-1.6906925
776,7760,-0.058426,0.009219,0.414168,-1.542893,-0.723515,-1.465988
777,7770,-0.06367600000000001,0.0025179999999999994,0.425264,-1.5242005,-0.8177760000000001,-1.42333
778,7780,-0.021093,0.020696,0.443198,-1.505508,-0.912037,-1.380672
779,7790,-0.021093,0.020696,0.443198,-1.505508,-0.912037,-1.380672
780,7800,0.12059049999999999,0.057799500000000004,0.439794,-1.3473605000000002,-1.191683,-1.284809
781,7810,0.16573749999999998,0.0953765,0.40708599999999995,-0.8888054999999999,-1.346159,-1.19215
782,7820,0.180252,0.128817,0.410993,-0.851555,-1.185875,-1.211376
783,7830,0.180252,0.128817,0.410993,-0.851555,-1.185875,-1.211376
784,7840,0.1569465,0.16883599999999999,0.5267915,-0.7988165,-0.955763,-1.2843415
785,7850,0.141699,0.177383,0.562796,-0.746078,-0.725651,-1.357307
786,7860,0.1110665,0.2029935,0.6334470000000001,-0.576181,-0.750685,-1.3589095
787,7870,0.083609,0.233763,0.637217,-0.267696,-0.968514,-1.331673
788,7880,0.083609,0.233763,0.637217,-0.267696,-0.968514,-1.331673
789,7890,0.0158885,0.3531025,0.599396,-0.259218,-1.039343,-1.3130475000000001
790,7900,-0.04269,0.4409545,0.6172075,-0.460024,-1.023388,-1.285877
791,7910,-0.222194,0.684287,0.860784,-0.992146,-0.667038,-1.276264
792,7920,-0.222194,0.684287,0.860784,-1.0672475000000001,-0.5866625000000001,-1.276264
793,7930,-0.222194,0.684287,0.860784,-1.142349,-0.506287,-1.276264
794,7940,-0.380712,0.8776955,1.1922135,-1.2914845000000001,-0.3150275,-1.2821385
795,7950,-0.53923,1.071104,1.523643,-1.466122,-0.333653,-1.268921
796,7960,-0.6425890000000001,1.068784,1.657756,-1.4059735,-0.5605605,-1.132536
797,7970,-0.745948,1.066464,1.791869,-1.345825,-0.787468,-0.996151
798,7980,-0.745948,1.066464,1.791869,-1.345825,-0.787468,-0.996151
799,7990,-0.881633,0.780686,2.151854,-1.3702585,-1.1619095000000002,-0.571108
800,8000,-0.881633,0.780686,2.151854,-1.323395,-1.193352,-0.392132
801,8010,-0.881633,0.780686,2.151854,-1.323395,-1.193352,-0.392132
802,8020,-0.637705,0.595687,1.8829105,-0.6123635000000001,-0.16802799999999998,0.8115675
803,8030,-0.531904,0.571526,1.750873,-0.478649,0.165958,1.038475
804,8040,-0.32421,0.577387,1.465797,-0.2676965,1.101761,1.395893
805,8050,0.083731,0.6331565,0.947064,-0.199537,1.3201905,1.358108
806,8060,0.201498,0.638651,0.773909,-0.175037,1.274929,1.265449
807,8070,0.201498,0.638651,0.773909,-0.1941965,1.255169,1.3027
808,8080,0.201498,0.638651,0.773909,-0.164356,1.144886,1.154633
809,8090,0.201498,0.638651,0.773909,-0.164356,1.144886,1.154633
810,8100,0.117782,0.6181535,0.6643235000000001,-0.192661,0.2165605,0.7476805
811,8110,0.022833,0.573236,0.805381,-0.1474,0.002937,0.770111
812,8120,0.015507,0.569573,0.860784,-0.03231,0.053005,0.811634
813,8130,0.015507,0.569573,0.860784,-0.03231,0.053005,0.811634
814,8140,0.007967,0.503424,0.99476,0.36396,0.537796,0.869179
815,8150,0.0003970000000000002,0.39727250000000003,0.9917229999999999,0.8065605,1.0757255000000001,0.929861
816,8160,-0.013889,0.38117,0.9463315,1.742363,1.852245,1.056633
817,8170,-0.021093,0.376774,0.910327,1.742363,1.852245,1.056633
818,8180,-0.021093,0.376774,0.910327,1.742363,1.852245,1.056633
819,8190,-0.10894499999999999,0.32344649999999997,0.6152535,2.1045875,1.8005749999999998,1.105633
820,8200,-0.14872,0.309893,0.590116,2.466812,1.748905,1.154633
821,8210,-0.193134,0.296249,0.571343,2.5887775,1.283407,1.3665865
822,8220,-0.273935,0.268654,0.616978,2.492313,1.286678,1.647835
823,8230,-0.312,0.253025,0.75242,2.492313,1.286678,1.647835
824,8240,-0.312,0.253025,0.75242,2.492313,1.286678,1.647835
825,8250,-0.382788,0.250598,1.288872,2.3677444999999997,1.404839,2.031355
826,8260,-0.385718,0.238403,1.346229,2.351723,1.320725,2.065468
827,8270,-0.341533,0.112089,1.608457,2.170677,-0.228243,2.4031255
828,8280,-0.323966,0.105129,1.643485,2.085495,-0.701218,2.501125
829,8290,-0.2784525,0.1239175,1.6849690000000002,2.085495,-0.701218,2.501125
830,8300,0.014423499999999999,0.054747,1.8887559999999999,1.3041019999999999,-2.1233465,2.6289654999999996
831,8310,0.45556,-0.238739,1.96684,1.230068,-2.14571,2.599125
832,8320,0.4983875,-0.267906,1.9426795000000001,1.1310004999999999,-1.541691,2.293911
833,8330,0.5756319999999999,-0.2696155,1.760504,1.009569,-0.440731,1.656847
834,8340,0.610049,-0.242158,1.602489,0.987205,0.05621,1.324997
835,8350,0.576624,-0.08718,1.328402,0.792141,0.352345,0.892544
836,8360,0.56246,-0.039591,1.199769,0.629253,0.401344,0.684795
837,8370,0.550738,-0.020055,0.980871,-0.316696,0.160618,-0.184383
838,8380,0.550738,-0.020055,0.980871,-0.316696,0.160618,-0.184383
839,8390,0.2521395,-0.0702235,0.8197890000000001,-1.1018275,0.14833449999999998,-0.8843325
840,8400,0.1993,-0.083029,0.827115,-1.225395,0.193596,-1.001491
841,8410,0.161479,-0.097193,0.824429,-1.28828,0.242596,-1.086674
842,8420,0.078603,-0.10134399999999999,0.737416,-1.353302,0.3102875,-1.272593
843,8430,0.06798,-0.096704,0.716552,-1.353836,0.2612875,-1.299229
844,8440,0.034799,-0.070086,0.600128,-1.35437,0.212822,-1.309376
845,8450,0.035776,-0.0521675,0.5156955000000001,-1.358509,0.139389,-1.301899
846,8460,0.061661,-0.033731,0.460536,-1.379871,-0.051403,-1.279468
847,8470,0.061661,-0.033731,0.460536,-1.411781,-0.369835,-1.218853
848,8480,0.095819,-0.021536,0.4748065,-1.411781,-0.369835,-1.218853
849,8490,0.129977,-0.009341,0.489077,-1.34903,-0.856628,-1.116581
850,8500,0.158793,0.000672,0.490542,-1.235008,-0.997353,-1.092014
851,8510,0.158793,0.000672,0.490542,-1.235008,-0.997353,-1.092014
852,8520,0.181962,0.012882,0.496403,-0.901623,-0.885467,-1.054764
853,8530,0.181962,0.012882,0.496403,-0.901623,-0.885467,-1.054764
854,8540,0.181962,0.012882,0.496403,-0.901623,-0.885467,-1.054764
855,8550,0.17573450000000002,0.0614475,0.47822549999999997,-0.7269194999999999,-0.781593,-1.0526275
856,8560,0.1688965,0.1201475,0.4573615,-0.48612600000000006,-0.6894685,-1.0456845000000001
857,8570,0.168286,0.130282,0.454675,-0.391331,-0.798149,-1.01965
858,8580,0.155481,0.23912049999999999,0.5931690000000001,-0.392933,-0.9094335,-1.0180475
859,8590,0.102168,0.349912,0.732914,-0.442467,-1.037807,-1.000423
860,8600,0.08019,0.389961,0.769025,-0.463696,-0.999489,-0.997219
861,8610,-0.018163,0.559804,0.848819,-0.461559,-0.590401,-1.075993
862,8620,-0.018163,0.559804,0.848819,-0.461559,-0.590401,-1.075993
863,8630,-0.018163,0.559804,0.848819,-0.461559,-0.590401,-1.075993
864,8640,-0.308092,0.926628,0.854679,-0.628853,0.018959,-1.2071035
865,8650,-0.480896,1.125287,0.926445,-0.688534,0.008278,-1.201763
866,8660,-0.557164,1.1903359999999998,1.0867784999999999,-1.012373,-0.3416635,-1.0451505
867,8670,-0.574121,1.1804459999999999,1.2305380000000001,-1.3932225,-0.775719,-0.8304595
868,8680,-0.571923,1.165794,1.282523,-1.450233,-0.859833,-0.772381
869,8690,-0.6037764999999999,1.0766140000000002,1.783566,-1.6030405,-1.3041019999999999,-0.4309845
870,8700,-0.5089494999999999,0.914677,2.0451985,-1.522064,-1.5794755,0.2278425
871,8710,-0.578028,0.955199,2.145017,-1.618462,-1.779213,0.225773
872,8720,-0.492481,0.865989,2.157349,-1.3553715,-1.4287375,0.4590225
873,8730,-0.406934,0.776779,2.169681,-1.092281,-1.078262,0.692272
874,8740,-0.1021225,0.6823334999999999,1.57552,-0.43445599999999995,0.6532859999999999,1.0688495
875,8750,-0.03428,0.680624,1.344031,-0.326309,1.06184,1.112041
876,8760,0.100566,0.6664755,1.1263245,-0.22831,1.714859,0.9830665
877,8770,0.235412,0.652327,0.908618,-0.210152,1.8437,0.892544
878,8780,0.235412,0.652327,0.908618,-0.210152,1.8437,0.892544
879,8790,0.25175749999999997,0.6226565,0.6919029999999999,-0.173435,1.38361,0.552683
880,8800,0.226864,0.611057,0.665789,-0.165424,1.189747,0.475979
881,8810,0.155969,0.556508,0.6726265,-0.1441285,0.9755900000000001,0.4376605
882,8820,0.050672,0.479034,0.702633,-0.039787,0.402412,0.4175
883,8830,0.050672,0.479034,0.702633,-0.039787,0.402412,0.4175
884,8840,-0.019628,0.343349,0.774642,0.453415,0.24052600000000002,0.7610319999999999
885,8850,-0.019628,0.343349,0.774642,0.589733,0.327911,0.855293
886,8860,0.011737000000000001,0.338465,0.7508475,0.9088324999999999,0.624046,1.0092349999999999
887,8870,0.051893,0.350156,0.696283,1.395092,0.987339,1.187611
888,8880,0.053846500000000005,0.367861,0.6488160000000001,1.596966,0.9452149999999999,1.1844065000000001
889,8890,0.029671,0.371402,0.557912,1.970406,0.678387,1.149292
890,8900,0.029671,0.371402,0.557912,1.970406,0.678387,1.149292
891,8910,-0.0581815,0.3583375,0.658829,2.0763495,0.288992,1.1338045
892,8920,-0.113341,0.341396,0.801474,2.097111,0.178776,1.14502
893,8930,-0.113341,0.341396,0.801474,2.127018,0.151005,1.174793
894,8940,-0.140417,0.319661,1.122173,2.383165,0.528183,1.2930875
895,8950,-0.165081,0.31551,1.299342,2.459335,0.722046,1.306973
896,8960,-0.205588,0.2843895,1.405265,2.5456519999999996,1.1326695,1.3719275
897,8970,-0.246095,0.253269,1.511188,2.631969,1.543293,1.436882
898,8980,-0.258061,0.252292,1.556335,2.596722,1.493225,1.502972
899,8990,-0.235381,0.276468,1.647636,2.596722,1.493225,1.502972
900,9000,-0.178512,0.257909,1.702308,2.339039,0.515366,1.760788
901,9010,-0.178512,0.257909,1.702308,1.879883,-0.879059,1.954651
902,9020,0.071399,-0.042278,1.847517,1.369591,-1.636486,2.011128
903,9030,0.148781,-0.138432,1.874837,1.249161,-1.699371,2.001514
904,9040,0.148781,-0.138432,1.874837,1.249161,-1.699371,2.001514
905,9050,0.436757,-0.351988,1.767448,0.916843,-0.808697,1.655312
906,9060,0.6166275,-0.28791500000000003,1.4411475,0.625515,-0.3570845,1.2792685
907,9070,0.828489,-0.185289,1.009412,0.123234,0.21389,0.634728
908,9080,0.828489,-0.185289,1.009412,0.123234,0.21389,0.634728
909,9090,0.7636835,-0.14234,0.8321054999999999,-0.4648305,0.306549,-0.17109850000000004
910,9100,0.698878,-0.099391,0.654799,-1.264782,0.441799,-1.269989
911,9110,0.401134,-0.161143,0.603792,-1.5135195000000001,0.49774149999999995,-1.608181
912,9120,0.325706,-0.181626,0.628456,-1.873074,0.573978,-2.11153
913,9130,0.325706,-0.181626,0.628456,-1.873074,0.573978,-2.11153
914,9140,0.0427355,-0.201895,0.623435,-1.9556525,0.5484100000000001,-2.253723
915,9150,-0.059891,-0.195057,0.597198,-2.0648,0.331116,-2.343712
916,9160,-0.091378,-0.1874865,0.5687635,-2.05739,0.170765,-2.198849
917,9170,-0.1238415,-0.1733225,0.5308204999999999,-2.0446395,-0.058279,-1.994305
918,9180,-0.124818,-0.166729,0.521312,-2.039299,-0.126972,-1.934624
919,9190,-0.050381999999999996,-0.118896,0.5255855,-1.9892310000000002,-0.534458,-1.6347505
920,9200,0.024054,-0.071063,0.529859,-1.939163,-0.941944,-1.334877
921,9210,0.10825850000000001,-0.019459999999999998,0.5430155000000001,-1.707916,-1.291351,-1.149559
922,9220,0.218348,0.075856,0.56304,-1.394825,-1.400032,-1.135674
923,9230,0.218348,0.075856,0.56304,-1.394825,-1.400032,-1.135674
924,9240,0.2354115,0.1256425,0.5701225,-1.2728595,-1.3526345,-1.1900140000000001
925,9250,0.236388,0.146125,0.59964,-1.1338045,-1.2583065,-1.261911
926,9260,0.2123495,0.159556,0.65077,-1.0714535,-1.0606385,-1.3146495
927,9270,0.188311,0.172987,0.7019,-1.026192,-0.909901,-1.349831
928,9280,0.188311,0.172987,0.7019,-1.026192,-0.909901,-1.349831
929,9290,0.105099,0.279399,0.908129,-0.810967,-0.920582,-1.297627
930,9300,0.057266,0.315266,0.97672,-0.65649,-1.043148,-1.261444
931,9310,0.057266,0.315266,0.97672,-0.65649,-1.043148,-1.261444
932,9320,-0.010837,0.416061,1.051385,-0.522308,-1.1107735,-1.2241265000000001
933,9330,-0.010837,0.416061,1.051385,-0.460491,-1.132603,-1.202831
934,9340,-0.130435,0.629616,1.027239,-0.460491,-1.132603,-1.202831
935,9350,-0.256123,0.8701255,1.0091679999999998,-0.433922,-0.469971,-1.235809
936,9360,-0.422318,1.046333,1.1043615,-0.7657050000000001,-0.1046085,-1.2310695
937,9370,-0.516275,1.166038,1.191985,-0.971851,-0.278244,-1.19215
938,9380,-0.516275,1.166038,1.191985,-0.971851,-0.278244,-1.19215
939,9390,-0.516275,1.166038,1.191985,-0.971851,-0.278244,-1.19215
940,9400,-0.5689925,1.1032015,1.3707565000000002,-1.1524295,-1.0484215,-0.7186410000000001
941,9410,-0.655379,0.948117,1.74428,-1.028328,-1.276398,-0.416698
942,9420,-0.611453,0.847567,1.836527,-0.823784,-1.140079,0.013752
943,9430,-0.611453,0.847567,1.836527,-0.823784,-1.140079,0.013752
944,9440,-0.453912,0.733219,1.713403,-0.5473425,-0.31983350000000005,0.4595565
945,9450,-0.2603815,0.6109344999999999,1.5400040000000002,-0.2096845,0.6474115,0.9516905
946,9460,0.002106,0.61008,1.143419,-0.148468,0.794411,0.99802
947,9470,0.002106,0.61008,1.143419,0.104542,1.2211224999999999,1.1109735
948,9480,0.002106,0.61008,1.143419,0.146599,1.26852,1.116314
949,9490,0.002106,0.61008,1.143419,0.146599,1.26852,1.116314
950,9500,0.194538,0.5922835,0.56768,0.239859,1.038408,0.8067610000000001
951,9510,0.176345,0.592772,0.519114,0.181847,0.816841,0.690136
952,9520,0.084586,0.491489,0.656265,-0.150604,-0.079041,0.604954
953,9530,0.084586,0.491489,0.656265,-0.150604,-0.079041,0.604954
954,9540,0.084586,0.491489,0.656265,-0.150604,-0.079041,0.604954
955,9550,0.030159,0.426561,0.908862,-0.143127,-0.132313,0.620976
956,9560,-0.0145,0.380682,1.065793,0.227642,0.099869,0.731659
957,9570,-0.041331,0.31551,1.125104,0.63139,0.532455,0.879726
958,9580,-0.032815,0.28062,1.152912,0.864639,0.798683,0.967178
959,9590,-0.032815,0.28062,1.152912,0.864639,0.798683,0.967178
960,9600,0.002839,0.27598,1.045768,0.864639,0.798683,0.967178
961,9610,-0.010592,0.266212,0.98136,2.343178,1.42086,1.297359
962,9620,-0.023779,0.202749,0.904466,2.649994,1.119385,1.394291
963,9630,-0.023779,0.202749,0.904466,2.788448,0.969181,1.497631
964,9640,-0.043650999999999995,0.135151,0.9773149999999999,2.812414,1.0240555,1.546097
965,9650,-0.039866,0.121735,1.006726,2.83638,1.07893,1.594563
966,9660,-0.018651,0.089042,1.097997,2.83638,1.07893,1.594563
967,9670,-0.044994,0.052412,1.314239,2.6606750000000003,1.455441,1.7330835
968,9680,-0.044994,0.052412,1.314239,2.619152,1.455975,1.751175
969,9690,-0.0147435,0.0369205,1.538646,2.51688,1.26318,1.852913
970,9700,0.015507,0.021429,1.763053,2.3016550000000002,-0.017290500000000014,2.0920375
971,9710,0.053603,0.03022,1.7716,2.250519,-0.436993,2.104855
972,9720,0.1952705,-0.0497105,1.7279179999999998,1.9410995,-1.2257955,1.9897655
973,9730,0.228818,-0.080343,1.718394,1.861725,-1.315784,1.952515
974,9740,0.3451195,-0.2056645,1.641516,1.5469645,-0.8849335,1.692028
975,9750,0.461421,-0.330986,1.564638,1.232204,-0.454083,1.431541
976,9760,0.4944805,-0.2147005,1.3155815,0.9242535000000001,0.1222325,1.0571
977,9770,0.515848,-0.143317,1.1570635,0.7085605,0.2655605,0.859499
978,9780,0.524395,-0.124025,1.102881,0.620708,0.289593,0.790272
979,9790,0.524395,-0.124025,1.102881,0.620708,0.289593,0.790272
980,9800,0.524395,-0.124025,1.102881,0.620708,0.289593,0.790272
981,9810,0.416518,-0.053999,0.621618,-1.2642475,0.231514,-0.7144360000000001
982,9820,0.37880400000000003,-0.061432,0.620031,-1.3404175,0.2618215,-0.8033565
983,9830,0.34109,-0.068865,0.618444,-1.606712,0.342731,-1.086674
984,9840,0.22248400000000002,-0.102428,0.59294,-1.968937,0.5835250000000001,-1.6368865000000001
985,9850,0.162563,-0.11743100000000001,0.572564,-2.029686,0.6548885,-1.7663285
986,9860,0.061661,-0.130618,0.508613,-2.072277,0.631523,-1.849441
987,9870,0.049207,-0.13074000000000002,0.500188,-2.0770835,0.5478765,-1.837692
988,9880,0.036753,-0.130862,0.491763,-2.08189,0.46423,-1.825943
989,9890,0.010409,-0.115722,0.469327,-2.08189,0.46423,-1.825943
990,9900,0.029808,-0.1053585,0.48750499999999997,-2.062664,-0.170631,-1.576672
991,9910,0.0937435,-0.0822965,0.5292335,-1.9385625,-0.611696,-1.350365
992,9920,0.167798,-0.055709,0.5816,-1.715393,-1.135807,-1.066513
993,9930,0.167798,-0.055709,0.5816,-1.715393,-1.135807,-1.066513
994,9940,0.258122,0.034616,0.617467,-1.066647,-1.063309,-1.010037
995,9950,0.2633725,0.044613,0.6066,-1.010771,-1.023388,-1.0159115
996,9960,0.268623,0.05461,0.595733,-0.954895,-0.983467,-1.021786
997,9970,0.295699,0.130038,0.525463,-0.954895,-0.983467,-1.021786
998,9980,0.2670205,0.211541,0.532408,-0.695944,-0.575447,-1.1980244999999998
999,9990,0.239563,0.258886,0.545702,-0.682125,-0.540333,-1.26358
