id,timestamp,acc_x,acc_y,acc_z,gyro_x,gyro_y,gyro_z
0,0,-0.043407,0.487337,0.9415695,-0.1708315,-0.0630855,0.1362515
1,10,-0.036936,0.487337,0.932305,-0.079174,-0.157948,0.257683
2,20,0.041148,0.49564,0.938899,-0.079174,-0.046062,0.251274
3,30,0.048474,0.496495,0.9448665,-0.079174,-0.046062,0.251274
4,40,0.0558,0.49735,0.950834,-0.079174,-0.046062,0.251274
5,50,0.0558,0.49735,0.950834,-0.079174,-0.046062,0.251274
6,60,0.093621,0.516855,0.931084,-0.023766,0.178776,0.145798
7,70,0.054091,0.511971,0.950834,-0.023766,0.178776,0.145798
8,80,0.043224,0.5050265,0.937174,0.014553000000000002,0.204344,0.0733665
9,90,0.018697,0.497838,0.894225,0.0737,0.2245045,0.0168895
10,100,-0.035715,0.506843,0.841981,0.12537,0.143528,-0.00761
11,110,-0.035715,0.506843,0.841981,0.12537,0.143528,-0.00761
12,120,-0.03428,0.486849,0.859319,0.12537,0.143528,-0.00761
13,130,-0.03428,0.486849,0.859319,0.12537,0.143528,-0.00761
14,140,-0.03428,0.486849,0.859319,0.052872,-0.082245,0.123367
15,150,-0.03428,0.486849,0.859319,0.052872,-0.082245,0.123367
16,160,0.053603,0.486849,0.801718,0.10294,0.045528,0.166092
17,170,0.053603,0.486849,0.801718,-0.005741,0.070095,0.12764
18,180,0.035776,0.488802,0.823208,-0.045128,0.05621,0.120296
19,190,0.035776,0.488802,0.823208,-0.045128,0.05621,0.120296
20,200,0.035776,0.488802,0.823208,-0.045128,0.05621,0.120296
21,210,0.028938,0.465115,0.885693,-0.091991,0.006142,0.117092
22,220,0.028938,0.465115,0.885693,-0.091991,0.006142,0.117092
23,230,0.024787,0.472929,0.892989,-0.090923,0.050869,0.143661
24,240,0.024787,0.472929,0.892989,-0.090923,0.050869,0.143661
25,250,0.0401715,0.4660915,0.9110594999999999,-0.09359400000000001,0.1126865,0.1516725
26,260,0.038462,0.467801,0.917897,-0.094128,0.148869,0.149002
27,270,0.031258,0.455728,0.9310689999999999,-0.004673,0.282116,0.160751
28,280,0.021368,0.43462,0.928398,0.03912,0.287457,0.175571
29,290,0.021368,0.43462,0.928398,0.03912,0.287457,0.175571
30,300,0.021368,0.43462,0.928398,0.03912,0.287457,0.175571
31,310,-0.016942,0.486605,0.809044,0.063553,0.113754,0.247002
32,320,-0.001557,0.473418,0.811486,-0.028038,0.04446,0.283184
33,330,-0.001557,0.473418,0.811486,-0.077038,0.04446,0.294933
34,340,-0.001557,0.473418,0.811486,-0.077038,0.04446,0.294933
35,350,0.036264,0.462184,0.902024,-0.102673,0.096664,0.294933
36,360,0.036997,0.456812,0.923514,-0.102673,0.096664,0.294933
37,370,0.036997,0.456812,0.923514,-0.044594,0.14306049999999998,0.2821825
38,380,0.052855,0.4182585,0.965364,0.040655,0.195265,0.267296
39,390,0.080923,0.288434,0.880565,0.249939,0.229912,0.275707
40,400,0.080923,0.288434,0.880565,0.352211,0.163822,0.316296
41,410,0.092156,0.296951,0.810753,0.342731,-0.00761,0.354614
42,420,0.174147,0.234252,0.795613,0.265961,-0.141926,0.390797
43,430,0.174147,0.234252,0.795613,0.190258,-0.166359,0.396137
44,440,0.174147,0.234252,0.795613,0.190258,-0.166359,0.396137
45,450,0.220759,0.117584,0.846865,0.189323,-0.19413,0.342865
46,460,0.233946,0.081716,0.83615,0.214825,-0.212154,0.341797
47,470,0.233946,0.081716,0.83615,0.214825,-0.212154,0.341797
48,480,0.233946,0.081716,0.83615,0.237255,-0.277176,0.284252
49,490,0.233946,0.081716,0.83615,0.237255,-0.277176,0.284252
50,500,0.364778,-0.090843,0.629677,0.05928,-0.286789,0.173569
51,510,0.364778,-0.090843,0.629677,0.05928,-0.286789,0.173569
52,520,0.364778,-0.090843,0.629677,0.05928,-0.286789,0.173569
53,530,0.364778,-0.090843,0.629677,0.05928,-0.286789,0.173569
54,540,0.364778,-0.090843,0.629677,0.05928,-0.286789,0.173569
55,550,0.42357,-0.244355,0.671161,-0.492535,-0.898285,0.190525
56,560,0.42357,-0.244355,0.671161,-0.492535,-0.898285,0.190525
57,570,0.500097,-0.2287415,0.740591,-0.492535,-0.898285,0.190525
58,580,0.646405,-0.242158,0.890302,-1.117783,-0.82365,-0.085316
59,590,0.646405,-0.242158,0.890302,-1.117783,-0.82365,-0.085316
60,600,0.581859,-0.21702,0.8456435,-1.4033695000000002,-0.39440149999999996,-0.411291
61,610,0.517313,-0.191882,0.800985,-1.603641,-0.104675,-0.630722
62,620,0.517313,-0.191882,0.800985,-1.603641,-0.104675,-0.630722
63,630,0.41493100000000005,-0.1217195,0.820262,-1.603641,-0.104675,-0.630722
64,640,0.250674,-0.008836999999999998,0.878718,-1.603641,-0.104675,-0.630722
65,650,-0.027931,0.198842,1.24519,-3.093929,-0.229244,-0.641403
66,660,-0.112364,0.319173,1.460669,-3.01075,-0.76931,-0.3442
67,670,-0.112364,0.319173,1.460669,-3.01075,-0.76931,-0.3442
68,680,-0.150673,0.4573,1.482158,-2.914887,-1.017513,-0.242996
69,690,-0.16471449999999999,0.48829849999999997,1.4764195,-2.668819,-1.911259,0.061684
70,700,-0.162395,0.675496,1.404288,-2.668819,-1.911259,0.061684
71,710,0.063371,0.730899,1.366712,-2.746658,-2.381096,0.630455
72,720,0.10033700000000001,0.7317535,1.373183,-2.7892495,-2.092905,0.656023
73,730,0.177215,0.755426,1.3985645,-2.824364,-1.4595794999999998,0.6443405
74,740,0.23883,0.808983,1.43286,-2.816887,-1.114445,0.60709
75,750,0.23883,0.808983,1.43286,-2.395115,-0.333653,0.134048
76,760,0.19173,0.97153,1.377701,-2.270412,-0.26329,-0.006542
77,770,0.08019,1.058192,1.269824,-2.270412,-0.26329,-0.006542
78,780,0.08019,1.058192,1.269824,-2.115936,-0.04385950000000001,-0.2041435
79,790,0.08019,1.058192,1.269824,-1.96146,0.175571,-0.401745
80,800,0.08019,1.058192,1.269824,-1.96146,0.175571,-0.401745
81,810,-0.293471,1.076721,1.473856,-1.864529,0.283184,-0.429382
82,820,-0.293471,1.076721,1.473856,-1.864529,0.283184,-0.429382
83,830,-0.518473,1.067441,1.339392,0.237255,-0.197334,0.318432
84,840,-0.518473,1.067441,1.339392,0.237255,-0.197334,0.318432
85,850,-0.518473,1.067441,1.339392,0.364561,-0.25481200000000004,0.394602
86,860,-0.518473,1.067441,1.339392,0.491867,-0.31229,0.470772
87,870,-0.518473,1.067441,1.339392,0.491867,-0.31229,0.470772
88,880,-0.518473,1.067441,1.339392,0.491867,-0.31229,0.470772
89,890,-0.518473,1.067441,1.339392,0.491867,-0.31229,0.470772
90,900,-0.3798575,0.55286,1.3957565,2.749062,1.675472,1.367722
91,910,-0.382788,0.534926,1.402823,2.749062,1.675472,1.367722
92,920,-0.417678,0.484895,1.410149,3.582191,2.113266,1.880016
93,930,-0.417678,0.484895,1.410149,3.655691,2.0680045,1.980686
94,940,-0.4597725,0.5266235,1.523398,3.744612,1.7159270000000002,2.224684
95,950,-0.472594,0.51246,1.872883,3.734531,1.056499,2.459602
96,960,-0.472594,0.51246,1.872883,3.734531,1.056499,2.459602
97,970,-0.472594,0.51246,1.872883,3.734531,1.056499,2.459602
98,980,-0.228055,0.191302,2.309518,3.525715,-0.765038,2.621422
99,990,0.1574495,-0.21115899999999999,2.6106655,3.388262,-0.9642409999999999,2.5766945
100,1000,0.310595,-0.372226,2.691695,3.250809,-1.163444,2.531967
101,1010,0.310595,-0.372226,2.691695,3.193264,-0.896149,2.503262
102,1020,0.817866,-0.4797515,2.3518565000000002,2.912083,0.19473100000000002,2.1405030000000003
103,1030,0.920248,-0.456934,2.213607,2.851334,0.320435,1.984425
104,1040,1.022859,-0.386405,1.821524,2.851334,0.320435,1.984425
105,1050,1.046165,-0.355895,1.58393,2.851334,0.320435,1.984425
106,1060,1.046165,-0.355895,1.58393,2.851334,0.320435,1.984425
107,1070,0.916936,-0.348447,1.316192,2.851334,0.320435,1.984425
108,1080,0.787707,-0.340999,1.048454,2.3847675,0.653887,0.9213165000000001
109,1090,0.787707,-0.340999,1.048454,1.918201,0.987339,-0.141792
110,1100,0.787707,-0.340999,1.048454,1.918201,0.987339,-0.141792
111,1110,0.420426,-0.287549,0.619665,0.701618,1.291885,-0.865173
112,1120,0.420426,-0.287549,0.619665,0.701618,1.291885,-0.865173
113,1130,0.203696,-0.322439,0.462245,0.304279,0.919113,-0.868378
114,1140,0.203696,-0.322439,0.462245,0.171165,0.575047,-0.828857
115,1150,0.315724,-0.35272,0.320944,-0.06422,0.170231,-0.804424
116,1160,0.315724,-0.35272,0.320944,-0.06422,0.170231,-0.804424
117,1170,0.315724,-0.35272,0.320944,-0.06422,0.170231,-0.804424
118,1180,0.3534225,-0.3507665,0.298477,-0.40141099999999996,0.3598215,-0.9785935
119,1190,0.358673,-0.358581,0.363649,-0.738602,0.549412,-1.152763
120,1200,0.34316599999999997,-0.38860300000000003,0.425264,-0.8637714999999999,0.892477,-1.346092
121,1210,0.327659,-0.418625,0.486879,-0.988941,1.235542,-1.539421
122,1220,0.327659,-0.418625,0.486879,-0.712967,1.303635,-1.616192
123,1230,0.1989185,0.03215849999999998,0.6647965,-0.3811835,0.6745815000000001,-0.837469
124,1240,0.070178,0.482942,0.842714,-0.0494,0.045528,-0.058746
125,1250,0.357696,-0.373691,0.280406,-0.177174,0.507889,-1.693897
126,1260,0.088737,0.495884,0.820766,-0.157013,0.31189,-1.697102
127,1270,0.2461565,0.077687,0.5122765,-0.3108885,-0.331516,-1.682215
128,1280,0.403576,-0.34051,0.203787,-0.464764,-0.974922,-1.667328
129,1290,0.3647625,-0.320867,0.33484800000000003,-0.576649,-1.181602,-1.643829
130,1300,0.346951,-0.309771,0.403179,-0.790806,-1.519794,-1.550636
131,1310,0.346951,-0.309771,0.403179,-1.004963,-1.857986,-1.457443
132,1320,0.424302,-0.30855,0.668719,-1.1716555,-2.147245,-1.286478
133,1330,0.5011805,-0.3261175,0.671283,-1.3745305,-2.4481865,-0.995617
134,1340,0.712309,-0.289258,0.440267,-1.57053,-1.866531,-0.873718
135,1350,0.060684,0.50318,0.927666,-1.8970395,-1.53368,-1.108036
136,1360,0.060684,0.50318,0.927666,0.003872,0.073299,-0.028839
137,1370,0.060684,0.50318,0.927666,-3.007545,-1.265717,-1.705647
138,1380,-0.229764,0.7495655,0.6416125,-4.2480945000000006,-1.8266105,-1.8312835
139,1390,-0.389137,0.835601,0.84369,-4.610786,-2.086029,-1.773739
140,1400,-0.615361,0.765057,1.670561,-5.03376,-2.768822,-1.462784
141,1410,0.060929,0.493687,0.870308,-5.115738,-3.196068,-1.2784
142,1420,0.060929,0.493687,0.870308,-0.007877,0.010414,-0.003338
143,1430,-1.033436,0.913441,2.676585,-0.018425,-0.032177,0.000935
144,1440,-0.422929,0.6961155,1.832254,-2.479162,-3.621645,1.911993
145,1450,0.059219,0.480988,0.878123,-1.904983,-3.248272,2.339172
146,1460,0.059219,0.480988,0.878123,-1.904983,-3.248272,2.339172
147,1470,0.019903,1.444521,1.185391,2.46788,0.600548,0.87225
148,1480,0.019903,1.444521,1.185391,2.46788,0.600548,0.87225
149,1490,0.065813,0.491245,0.876902,2.46788,0.600548,0.87225
150,1500,0.1326785,1.0328105,1.3469465,-1.0576344999999998,-0.080643,0.2630235
151,1510,0.213464,1.574132,1.803346,-0.036583,0.02964,-0.040588
152,1520,-0.0387825,1.5020005,2.044466,-0.5558875000000001,-0.09880050000000001,0.037184
153,1530,-0.438191,1.307615,2.298773,-0.135651,-0.020428,0.19907
154,1540,-0.438191,1.307615,2.298773,-0.135651,-0.020428,0.19907
155,1550,-0.518962,1.080384,1.620774,1.730747,1.719132,0.745544
156,1560,-0.518962,1.080384,1.620774,1.730747,1.719132,0.745544
157,1570,-0.518962,1.080384,1.620774,0.062485,0.083981,-0.035248
158,1580,-0.3429985,0.750542,1.619935,2.706471,2.326355,1.250496
159,1590,-0.310779,0.710386,1.633473,2.706471,2.326355,1.250496
160,1600,-0.115538,0.359436,1.4846,3.9118385,1.690893,1.3154505
161,1610,-0.115538,0.359436,1.4846,4.02853,1.657314,1.287746
162,1620,-0.0775805,0.3275985,1.1456015,4.40237,1.749973,1.164246
163,1630,-0.025351499999999996,0.215814,1.237864,2.2244165000000002,0.9990215000000001,0.7034875
164,1640,-0.178512,-0.317097,1.714487,4.646301,2.736511,1.499767
165,1650,-0.1983995,-0.36187800000000003,1.7469505,0.095463,0.041256,0.022297
166,1660,-0.218287,-0.406659,1.779414,4.645233,2.799263,1.719265
167,1670,-0.218287,-0.406659,1.779414,4.645233,2.799263,1.719265
168,1680,0.08568450000000001,-0.10352650000000002,1.3913765,4.467392,1.641293,2.550125
169,1690,0.283977,-0.683402,1.825538,4.394894,1.28027,2.53624
170,1700,0.06799499999999999,0.20203200000000004,1.62578,4.2409514999999995,0.9271240000000001,2.4260235
171,1710,0.703518,-0.654616,1.53976,3.588467,0.112686,1.82354
172,1720,0.703518,-0.654616,1.53976,3.588467,0.112686,1.82354
173,1730,0.034799,0.480988,0.84369,2.133427,0.737,0.211887
174,1740,0.84946,-0.852543,1.421382,1.822338,0.876522,-0.317631
175,1750,0.7440249999999999,-0.7646755000000001,1.1597495,1.6748045,0.7034205,-0.4401305
176,1760,0.63859,-0.676808,0.898117,-0.595808,-0.863638,1.488018
177,1770,0.63859,-0.676808,0.898117,-0.086651,0.027504,0.128708
178,1780,0.3358395,-0.1035265,0.8936145,0.13545049999999997,-0.166893,-0.4859255
179,1790,0.033089,0.469755,0.889112,0.357552,-0.36129,-1.100559
180,1800,0.398692,-0.698786,0.457361,-1.140213,-0.170631,-1.582012
181,1810,0.398692,-0.698786,0.457361,-0.09306,0.11589,0.152206
182,1820,0.398692,-0.698786,0.457361,-0.09306,0.11589,0.152206
183,1830,0.077015,-0.553577,0.788287,-2.009392,0.129776,-1.829147
184,1840,0.025046,-0.006639000000000006,0.7599899999999999,-1.903915,0.225639,-1.846237
185,1850,0.003327,0.444144,0.868111,-0.901022,0.2101515,-0.817175
186,1860,0.003327,0.444144,0.868111,0.089188,0.158482,0.23098
187,1870,-0.015476,0.476837,0.816614,-2.14798,-0.515766,-1.719532
188,1880,0.014774,0.467801,0.842225,-2.14798,-0.515766,-1.719532
189,1890,0.014774,0.467801,0.842225,-2.253323,-1.185875,-1.463852
190,1900,-0.010241499999999997,0.12745850000000003,0.7393545,-2.253323,-1.185875,-1.463852
191,1910,0.0085625,0.10366399999999999,0.816477,-0.087719,0.139389,0.287457
192,1920,0.052382,0.420212,0.99647,-0.087719,0.139389,0.287457
193,1930,0.078236,0.331383,0.966952,-1.85812,-1.507511,-1.089878
194,1940,0.1019085,0.13747099999999998,0.840409,-1.74737,-1.438284,-1.0334015
195,1950,0.125581,-0.056441,0.713866,-1.63662,-1.369057,-0.976925
196,1960,0.214929,0.039744,0.680929,-1.584415,-1.343555,-0.95356
197,1970,0.314259,0.151986,0.642101,-1.460781,-1.405239,-0.963173
198,1980,0.298874,-0.02323,0.758525,-0.5958080000000001,-0.836401,-0.3223705
199,1990,0.312305,-0.048627,0.707028,-1.536484,-1.597099,-1.24115
200,2000,0.40089,0.337488,0.640636,-1.915665,-1.523533,-1.610851
201,2010,0.36722,-0.139165,0.622839,-1.915665,-1.523533,-1.610851
202,2020,0.272011,0.368227,0.82394,-2.131424,-0.948286,-1.9021795
203,2030,-0.188036,0.690636,1.035054,-0.246468,-0.689468,0.116024
204,2040,-0.441488,0.9006505,1.1211965,-0.246468,-0.689468,0.116024
205,2050,-0.69494,1.110665,1.207339,-0.596943,-0.97599,0.196934
206,2060,-0.69494,1.110665,1.207339,-0.596943,-0.97599,0.196934
207,2070,-0.883831,1.2285385,1.335591,-1.4549735,-0.856695,-0.6531525
208,2080,-1.072722,1.346412,1.463843,-2.183094,-1.308308,-0.88213
209,2090,-1.246503,1.444277,2.317088,-1.951981,-2.088165,0.537796
210,2100,-1.246503,1.444277,2.317088,-1.951981,-2.088165,0.537796
211,2110,-1.246503,1.444277,2.317088,-1.951981,-2.088165,0.537796
212,2120,-1.246503,1.444277,2.317088,-1.951981,-2.088165,0.537796
213,2130,-0.17287999999999998,1.4384155,2.245689,-1.470928,-1.5086465,1.3378145
214,2140,-0.099909,1.452091,2.177465,0.351143,0.177708,2.203922
215,2150,-0.099909,1.452091,2.177465,0.824184,0.668774,1.906719
216,2160,0.263968,1.1749515,1.3148490000000002,1.0548305,0.8743855,1.2350085
217,2170,-0.027442,1.103095,1.332798,1.126728,0.921249,0.790272
218,2180,-0.0862495,1.142625,1.3315615,0.8902075,0.7678415000000001,-0.07523550000000001
219,2190,-0.400828,0.85416,1.61296,-1.549301,0.506821,-0.416698
220,2200,-0.400828,0.85416,1.61296,-1.104031,0.491867,-0.293064
221,2210,-0.400828,0.85416,1.61296,-1.104031,0.491867,-0.293064
222,2220,-0.472838,0.228147,1.666654,1.680679,1.55611,0.269432
223,2230,-0.47369249999999996,0.6324245,1.4100275,2.201519,2.010994,0.805225
224,2240,-0.414992,0.175673,1.598826,2.705402,2.291107,1.338882
225,2250,-0.414992,0.175673,1.598826,2.705402,2.291107,1.338882
226,2260,-0.379125,0.752633,1.290093,3.31583,2.348652,1.856651
227,2270,-0.379125,0.752633,1.290093,2.938652,1.824608,1.45504
228,2280,-0.221828,0.29965200000000003,1.201249,3.6743165,2.049313,2.037764
229,2290,-0.064531,-0.153329,1.112405,3.71851,1.999245,2.063332
230,2300,-0.129702,-0.384436,1.264452,3.923054,1.912994,2.345581
231,2310,-0.129702,-0.384436,1.264452,3.923054,1.912994,2.345581
232,2320,-0.106259,-0.422013,1.255172,4.232006,1.836224,2.67149
233,2330,-0.029884,-0.414717,1.194182,4.409847,1.801109,2.890987
234,2340,0.013935,-0.401042,1.1264465000000001,4.256973,1.4565085,2.922964
235,2350,0.12584099999999998,-0.35162150000000003,1.0189365,3.9757249999999997,0.931864,2.9165555
236,2360,0.193928,-0.315876,0.979162,2.775765,0.397072,1.750107
237,2370,0.237976,-0.2738885,1.022966,2.780037,-0.0540735,2.1027185
238,2380,0.3026435,-0.22019450000000002,1.1734255,2.6260944999999998,0.0476645,1.66379
239,2390,0.323263,-0.208488,1.280081,2.46788,0.600548,0.87225
240,2400,0.421143,-0.3833525,1.7679520000000002,0.665436,-0.85556,1.044884
241,2410,0.477508,-0.511605,1.961254,1.028728,1.302566,-0.761833
242,2420,0.460933,-0.63508,1.865313,1.028728,1.302566,-0.761833
243,2430,0.3609925,-0.454858,1.426877,0.4673,1.160908,-0.892811
244,2440,0.351835,-0.413496,1.325472,1.028728,1.311111,0.219364
245,2450,0.443106,-0.216791,0.666765,0.7394695,1.1609075,0.011081500000000008
246,2460,0.3533005,-0.3496675,0.27651400000000004,0.450211,1.010704,-0.197201
247,2470,0.4350625,-0.21286850000000002,0.2975,0.029439999999999994,0.7054900000000001,-0.504551
248,2480,0.329124,-0.44912,0.501776,-0.391331,0.400276,-0.811901
249,2490,0.329124,-0.44912,0.501776,-0.391331,0.400276,-0.811901
250,2500,0.160991,-0.26728,0.498601,-1.2392805,0.690069,-1.810522
251,2510,0.160991,-0.26728,0.498601,-2.187366,0.530319,-1.944237
252,2520,0.099482,-0.251926,0.670428,-2.1948429999999997,0.4733085,-2.0347595
253,2530,0.393075,-0.33587,0.228665,-2.20232,0.416298,-2.125282
254,2540,0.1135085,-0.196141,0.5873235,-2.0136640000000003,0.186253,-2.108793
255,2550,0.131686,-0.174056,0.520824,-0.855694,-1.620464,-1.536217
256,2560,0.131686,-0.174056,0.520824,-0.855694,-1.620464,-1.536217
257,2570,0.338404,-0.301468,0.484682,-1.804981,-0.888672,-1.942101
258,2580,0.3087485,-0.16552350000000002,0.4546755,-1.8007084999999998,-0.9536264999999999,-1.93676
259,2590,0.546831,0.043132,0.264807,-1.835823,-1.272125,-1.975079
260,2600,0.29228,0.350401,0.267005,-1.835823,-1.272125,-1.975079
261,2610,0.29228,0.350401,0.267005,-1.835823,-1.272125,-1.975079
262,2620,-0.982428,0.884899,2.493769,-3.336792,-2.839651,-1.1852075
263,2630,-0.982428,0.884899,2.493769,-4.837761,-4.407177,-0.395336
264,2640,-0.982428,0.884899,2.493769,-4.837761,-4.407177,-0.395336
265,2650,-0.670032,1.05868,2.378078,-1.861324,-1.393623,-2.031555
266,2660,-0.670032,1.05868,2.378078,-1.192417,-2.502594,2.820625
267,2670,-0.670032,1.05868,2.378078,-1.192417,-2.502594,2.820625
268,2680,0.173903,0.285992,0.826627,-0.907898,-1.945438,-1.627808
269,2690,0.173903,0.285992,0.826627,-1.780415,-0.709629,2.149582
270,2700,0.475554,1.613173,0.902024,-1.597233,-0.850353,-1.884556
271,2710,0.475554,1.613173,0.902024,-1.850777,-0.685196,-1.832352
272,2720,-0.17985550000000003,1.277837,0.9718355000000001,-1.95138,-0.7880020000000001,-1.7039775000000001
273,2730,-0.835265,0.942501,1.041647,-2.051983,-0.890808,-1.575603
274,2740,-0.6879805,1.065625,1.437744,-2.199049,-1.398897,-1.1351390000000001
275,2750,-1.05517,1.221197,1.693272,-2.30339,-2.273483,-0.231247
276,2760,-0.472594,0.944699,1.555603,-2.30339,-2.273483,-0.231247
277,2770,-0.7173765,1.0891755,1.8401755,-2.30339,-2.273483,-0.231247
278,2780,-0.962159,1.233652,2.124748,-2.30339,-2.273483,-0.231247
279,2790,-0.962159,1.233652,2.124748,-2.30339,-2.273483,-0.231247
280,2800,-0.23463299999999998,0.622168,1.3413295,1.7509080000000001,0.340128,1.2211895
281,2810,0.183671,0.004823,0.688957,4.499302,2.037563,1.168518
282,2820,-0.21010600000000001,1.2431755,1.4412850000000001,-0.549011,0.282116,1.264381
283,2830,-0.154092,1.220465,1.34745,-0.549011,0.282116,1.264381
284,2840,-0.154092,1.220465,1.34745,-0.480785,0.934067,0.879726
285,2850,0.11924750000000003,0.22533799999999998,1.5595094999999999,-0.447807,0.511093,0.58466
286,2860,0.20039900000000002,0.1870135,1.3027609999999998,-0.447807,0.511093,0.58466
287,2870,0.704983,-0.753213,1.150226,-0.447807,0.511093,0.58466
288,2880,0.704983,-0.753213,1.150226,-0.447807,0.511093,0.58466
289,2890,-0.503577,0.896377,1.632252,-0.447807,0.511093,0.58466
290,2900,-0.25684,0.523449,1.383562,1.296024,0.255413,1.619129
291,2910,-0.25684,0.523449,1.383562,1.296024,0.255413,1.619129
292,2920,-0.103084,0.477569,1.237376,1.567726,0.734863,1.761856
293,2930,-0.103084,0.477569,1.237376,1.567726,0.734863,1.761856
294,2940,0.147804,-0.598724,0.729739,2.090702,1.427269,1.537018
295,2950,0.042369,0.210075,1.154133,2.090702,1.427269,1.537018
296,2960,0.044323,-0.427141,0.593779,2.090702,1.427269,1.537018
297,2970,-0.028159499999999997,-0.1728345,0.8350365,2.6888465,1.429405,1.4294055
298,2980,-0.004609,-0.30940500000000004,0.5062935,3.322239,1.494293,1.424065
299,2990,-0.035257,-0.212884,0.636484,3.322239,1.494293,1.424065
300,3000,-0.035257,-0.212884,0.636484,3.370171,1.721268,1.680813
301,3010,-0.200216,-0.075214,1.168053,3.407421,1.858654,1.82354
302,3020,-0.200216,-0.075214,1.168053,3.493204,2.002449,2.0105269999999997
303,3030,-0.11407350000000001,-0.1020615,1.1701285000000001,1.067047,0.3225039999999999,0.5644325
304,3040,-0.027931,-0.128909,1.172204,3.391399,1.369724,2.345581
305,3050,0.0936215,0.18886,1.0844745,2.8092765,0.127106,2.2081280000000003
306,3060,0.080923,0.491,0.92791,0.1407909999999999,-0.034313,-0.05287149999999996
307,3070,0.080923,0.491,0.92791,-2.390842,0.050869,-2.276554
308,3080,0.360382,-0.363954,1.919495,1.219387,-1.164513,1.554108
309,3090,0.360382,-0.363954,1.919495,1.20183,-1.0542965,1.4838125
310,3100,0.360382,-0.363954,1.919495,1.184273,-0.94408,1.413517
311,3110,0.537307,-0.676808,1.773554,1.468658,0.218163,0.913906
312,3120,0.537307,-0.676808,1.773554,1.468658,0.218163,0.913906
313,3130,0.537307,-0.676808,1.773554,1.468658,0.218163,0.913906
314,3140,-0.43805400000000005,0.601792,1.1545144999999999,-0.617104,0.288525,-0.593472
315,3150,0.407239,-0.315144,0.407819,-0.96117,0.217094,-0.781994
316,3160,0.407239,-0.315144,0.407819,-1.798572,-2.023144,0.940475
317,3170,-0.2821,1.440629,2.0753424999999996,-1.6882225,0.45361550000000006,-1.2459565000000001
318,3180,0.17575000000000002,0.584469,1.110574,-1.801176,0.577717,-1.3610455
319,3190,0.104855,-0.29634,0.582058,-2.089367,0.824318,-1.603374
320,3200,0.1033895,-0.28351950000000004,0.5740145,-2.0920375,0.8125685,-1.603374
321,3210,0.101924,-0.270699,0.565971,3.139992,2.3839,1.730881
322,3220,0.101924,-0.270699,0.565971,3.139992,2.3839,1.730881
323,3230,0.036386499999999995,-0.2203165,0.7999015,-2.056255,0.544071,-1.559715
324,3240,-0.067705,-0.252658,1.121929,-2.056255,0.544071,-1.559715
325,3250,0.024557499999999996,-0.19298099999999999,0.780625,0.9173775,0.47704700000000005,0.38552300000000006
326,3260,-0.118225,-0.359558,1.239085,-2.088299,-0.9589,-1.574535
327,3270,0.18709,-0.030312,0.441,-2.200117,-1.1555,-1.5607165
328,3280,0.176116,-0.027625499999999997,0.5034855,-0.1712990000000001,-1.2434195,0.25180800000000003
329,3290,0.1413325,0.0055709999999999996,0.7924530000000001,-2.480297,-1.355305,-1.472397
330,3300,0.125826,0.02558,0.925223,0.672913,1.219521,-0.049133
331,3310,0.12362799999999999,0.0398505,0.9643870000000001,-0.7402035,0.16969700000000004,-0.6100270000000001
332,3320,0.1258255,0.1408895,1.045661,-1.7319485000000001,-0.2846525,-1.304569
333,3330,0.130221,0.227658,1.087771,-2.042503,0.478115,-1.853714
334,3340,0.164043,0.3623665,0.8048925,-0.551081,-1.1293985,-0.9082315000000001
335,3350,0.166363,0.42705,0.658218,-0.424309,-1.310444,-0.939674
336,3360,0.091668,-0.233122,0.675312,-0.424309,-1.310444,-0.939674
337,3370,0.116439,-0.196278,0.5796305,-0.424309,-1.310444,-0.939674
338,3380,0.044811,0.539322,0.735356,-1.05917,-1.331806,-1.235809
339,3390,0.044811,0.539322,0.735356,-1.1796,-1.19976,-1.284809
340,3400,-0.42647,0.737981,1.104346,-1.315918,-0.414562,-1.239014
341,3410,0.342067,-0.02323,0.457606,-1.315918,-0.414562,-1.239014
342,3420,-0.75741,1.188871,1.3630485,-1.2014295,-0.465765,-0.7053564999999999
343,3430,-0.77571,1.286369,1.415033,-1.187077,-0.603218,-0.55088
344,3440,-0.77571,1.286369,1.415033,-1.180668,-0.739536,-0.418835
345,3450,0.079824,0.3474855,0.7862264999999999,-1.2062355,-0.9786604999999999,-0.1082805
346,3460,-1.052972,1.249281,1.961987,-1.218986,-1.029262,-0.011883
347,3470,-0.8953085000000001,1.2430535,2.0127505,-1.060238,-1.086807,0.284252
348,3480,-0.7006635,1.164466,2.235189,-0.893078,-1.003761,0.382252
349,3490,-0.693719,1.149707,2.246056,-0.45208,-0.695877,0.563431
350,3500,-0.738256,1.163489,2.117681,-0.6970785,-0.9711835,0.8254525
351,3510,-0.893111,1.218755,2.145749,-1.649437,-2.515278,0.87225
352,3520,-0.365694,0.984229,1.661037,-1.649437,-2.515278,0.87225
353,3530,-0.265632,0.896133,1.442872,0.778389,1.578541,0.999088
354,3540,-0.231474,0.846102,1.348915,-0.447807,0.511093,0.58466
355,3550,-0.183641,0.710874,1.152668,0.853958,1.736221,0.896816
356,3560,-0.19034099999999998,0.6136205,1.1210740000000001,0.097599,-0.235653,0.690136
357,3570,-0.197041,0.516367,1.08948,0.932865,1.437817,0.952225
358,3580,-0.188769,0.456079,1.080201,0.922184,-0.121632,1.31979
359,3590,-0.150185,0.345059,1.079224,1.127796,1.120453,1.175861
360,3600,-0.064531,0.226681,1.08191,1.5778065,0.639534,1.539154
361,3610,0.093621,0.424852,1.149005,1.713657,0.591068,1.603107
362,3620,0.056777,0.142248,1.046745,2.410335,1.463451,1.360245
363,3630,0.118255,0.302812,1.165611,2.577562,1.427736,1.2899495
364,3640,0.094842,0.092675,1.048454,2.588177,1.352634,1.508312
365,3650,-0.18242,-0.024695,1.08655,2.588177,1.352634,1.508312
366,3660,0.056655,-0.0859595,1.1030185000000001,2.707539,1.44743,1.502972
367,3670,0.054579,-0.142584,1.16439,2.707539,1.44743,1.502972
368,3680,-0.0241305,-0.054488,0.9108155,1.803112,-1.078262,1.914196
369,3690,-0.040355,-0.052046,0.890302,2.518482,0.20481149999999992,1.8491745000000002
370,3700,0.433338,-0.463039,1.975387,3.233852,1.487885,1.784153
371,3710,0.433338,-0.463039,1.975387,1.468658,0.218163,0.913906
372,3720,0.433338,-0.463039,1.975387,1.468658,0.218163,0.913906
373,3730,0.033822,-0.164562,0.968417,1.327,1.130066,0.371704
374,3740,0.201254,-0.116943,1.294,0.825253,1.052227,0.126572
375,3750,0.201254,-0.116943,1.294,0.825253,1.052227,0.126572
376,3760,0.146827,-0.33587,0.581111,1.848907,-0.363426,1.77988
377,3770,0.1427975,-0.269493,1.567828,1.848907,-0.363426,1.77988
378,3780,0.078725,-0.376133,1.603711,-2.041435,-0.741672,-1.579876
379,3790,0.054091,-0.452538,1.552947,1.007433,0.2341845,0.5394645
380,3800,0.07068150000000001,-0.499639,1.3148645,0.871048,0.2602865,0.5772495
381,3810,0.087272,-0.54674,1.076782,0.808163,0.232048,0.594273
382,3820,0.2573745,-0.44374749999999996,0.8609065,0.808163,0.232048,0.594273
383,3830,0.427477,-0.340755,0.645031,-0.8898735,-1.004229,-1.1367414999999998
384,3840,0.427477,-0.340755,0.645031,-0.448875,-1.396828,-0.971584
385,3850,0.205756,0.10928050000000003,0.7276480000000001,-1.2387465,-1.2412835,-0.742073
386,3860,-0.015965,0.559316,0.810265,-2.028618,-1.085739,-0.512562
387,3870,-0.015965,0.559316,0.810265,-2.028618,-1.085739,-0.512562
388,3880,0.190997,-0.288281,0.9994,-2.854137,-0.219631,-1.683216
389,3890,0.190997,-0.288281,0.9994,-2.9250335,0.13030999999999998,-2.0272825
390,3900,-0.734226,1.311033,1.572697,-2.928772,0.438728,-2.37669
391,3910,-0.7323945000000001,1.3040734999999999,1.624315,-2.928772,0.438728,-2.37669
392,3920,-0.124086,-0.067156,0.909106,0.161552,0.085049,0.84034
393,3930,-0.129702,0.016545,0.802939,-2.480297,-0.523243,-1.886692
394,3940,0.007707499999999999,0.10978450000000001,0.7150715000000001,-2.480297,-0.523243,-1.886692
395,3950,0.107037,0.14577400000000001,0.6898120000000001,-2.269945,-1.6386219999999998,-1.2438205
396,3960,-0.183641,0.710874,1.152668,-2.248115,-1.723804,-1.195355
397,3970,0.053343,0.4626725,0.9108155,-2.1793555,-1.798906,-1.16498
398,3980,0.344509,0.271584,0.710203,-2.061596,-1.816464,-1.210308
399,3990,0.3227905,0.31318999999999997,0.771101,-1.8992425,-1.635885,-1.367455
400,4000,0.155252,0.147712,0.896423,-1.7410275,-1.5352155,-1.4372159999999998
401,4010,0.009432,-0.059372,0.960847,3.023968,1.628609,1.538086
402,4020,0.0673845,0.19566750000000002,0.907397,3.1059455,1.6674615,1.5833475
403,4030,-0.033792,-0.060837,0.87739,-0.981932,-1.819134,-1.388216
404,4040,0.017216,0.519053,0.802939,2.482834,-0.033245,2.050514
405,4050,-0.091851,0.628639,0.873727,2.052383,-0.289993,1.927948
406,4060,-0.119934,0.66353,0.891279,1.2833405,-0.12537,0.8781245
407,4070,0.067247,-0.563101,1.206362,-0.751419,-1.532078,-1.225128
408,4080,-0.0568535,0.08841700000000002,1.073241,-0.333252,-0.9237865000000001,-0.2962685
409,4090,-0.5002949999999999,1.130537,1.0408995,-0.656023,-0.7880020000000001,-0.33618950000000003
410,4100,0.503882,-0.304887,0.631631,-0.658627,-0.761833,-0.890675
411,4110,0.503882,-0.304887,0.631631,-0.658627,-0.761833,-0.890675
412,4120,0.503882,-0.304887,0.631631,-0.658627,-0.761833,-0.890675
413,4130,0.049207,-0.23532,1.019913,-0.654354,-1.173058,-0.584927
414,4140,-0.817683,1.347145,1.607832,-0.654354,-1.173058,-0.584927
415,4150,-0.7964525,1.2266914999999998,1.910475,-0.332718,-0.7454105,-0.06936049999999999
416,4160,-0.785967,1.177271,2.005912,-0.23365,-0.545673,0.034981
417,4170,-0.7182465,1.0745230000000001,2.0054239999999997,0.1796435,0.26342400000000005,0.33538850000000003
418,4180,-0.615132,0.959824,1.9642914999999999,0.592937,1.072521,0.635796
419,4190,-0.579738,0.947873,1.923647,0.762367,1.38895,0.755158
420,4200,-0.1445835,0.6968635,1.1928239999999999,0.08431450000000007,-0.011415500000000023,-0.20681349999999998
421,4210,-0.332513,0.894668,1.579534,-0.845146,-1.917667,-1.339149
422,4220,-0.332513,0.894668,1.579534,-0.845146,-1.917667,-1.339149
423,4230,-0.812066,1.415735,1.267138,-0.845146,-1.917667,-1.339149
424,4240,-0.812066,1.415735,1.267138,1.149025,2.19738,0.819111
425,4250,0.056533,0.5814165,0.9309624999999999,0.20047149999999997,0.24479850000000003,0.1351165
426,4260,0.058731,0.562979,0.931329,0.966911,1.662655,0.642204
427,4270,-0.753976,1.075011,2.094741,0.966911,1.662655,0.642204
428,4280,-0.3708065,0.69929,1.638723,0.9631725,1.651974,0.650215
429,4290,0.00699,0.092431,1.286674,1.134739,2.2294235000000002,0.9655765000000001
430,4300,0.00699,0.092431,1.286674,1.18,2.375355,0.961838
431,4310,0.0113705,0.3987375,1.1654885,1.172524,2.306061,0.87225
432,4320,0.015751,0.705044,1.044303,1.172524,2.306061,0.87225
433,4330,0.213708,0.016056,1.056513,2.1370985,1.4027025,1.179066
434,4340,0.246645,0.027534,0.941799,2.740517,1.158772,1.424065
435,4350,0.246645,0.027534,0.941799,3.0042745,1.250963,1.1854740000000001
436,4360,0.211266,-0.007631,0.92791,3.033581,1.324997,1.125793
437,4370,0.167798,-0.076435,0.945462,3.097401,1.437817,1.087475
438,4380,0.127047,-0.131351,0.961579,3.157082,1.399498,1.126862
439,4390,0.12167449999999999,-0.138799,0.9596255,3.175173,1.1657145,1.2462235000000002
440,4400,0.145362,-0.191882,0.922781,3.165627,1.0075,1.324997
441,4410,0.145362,-0.191882,0.922781,3.165627,1.0075,1.324997
442,4420,0.2155245,-0.267295,0.9280314999999999,2.7661515000000003,0.6000805,1.2856100000000001
443,4430,0.300583,-0.350523,0.991341,2.134495,0.045528,1.169586
444,4440,0.29692,-0.342708,1.191496,2.134495,0.045528,1.169586
445,4450,0.288617,-0.342464,1.2350555,1.7392254999999999,-0.20688099999999998,1.0140419999999999
446,4460,0.280314,-0.34222,1.278615,1.343956,-0.45929,0.858498
447,4470,0.280314,-0.34222,1.278615,1.343956,-0.45929,0.858498
448,4480,0.2119835,-0.5887275000000001,1.4466424999999998,0.49340249999999997,-0.5983449999999999,0.4387955
449,4490,0.317433,-0.554798,0.8925,0.39693849999999997,-0.5248455,0.486727
450,4500,0.317433,-0.554798,0.8925,0.298939,-0.468903,0.514431
451,4510,0.350614,-0.452294,0.767316,0.031643,-0.551014,0.475979
452,4520,0.350614,-0.452294,0.767316,0.031643,-0.551014,0.475979
453,4530,0.4473795,-0.1322055,0.690804,-2.378025,-1.005764,-0.337791
454,4540,0.448723,-0.091576,0.805137,-3.1327154999999998,-0.592537,-0.9476855
455,4550,0.322775,-0.202872,1.194915,-3.45068,-0.283585,-1.318989
456,4560,0.068713,-0.12842,1.268603,-3.086453,0.275707,-1.965599
457,4570,0.026373999999999998,-0.073627,1.170861,-2.9729655,0.2709005,-2.0385645
458,4580,-0.015965,-0.018834,1.073119,-2.859478,0.266094,-2.11153
459,4590,-0.1482465,0.1111275,0.8934925,-2.7892495000000004,0.008344500000000005,-2.1807575
460,4600,-0.237579,0.190814,0.810021,-2.780705,-0.206814,-2.197781
461,4610,-0.258199,0.2368155,0.79952,-2.7903175,-0.7608320000000001,-1.935692
462,4620,-0.168012,0.306963,0.803916,-2.667751,-1.493759,-1.465988
463,4630,-0.168012,0.306963,0.803916,-2.667751,-1.493759,-1.465988
464,4640,-0.132129,0.3186845,0.807579,-2.6272965,-1.568327,-1.4180565
465,4650,-9.15000000000013e-05,0.39189949999999996,0.8129515,-2.362003,-1.837826,-1.30724
466,4660,0.096063,0.453393,0.814661,-2.362003,-1.837826,-1.30724
467,4670,0.12864899999999999,0.48317049999999995,0.839188,-2.2134015,-1.543293,-1.4590455
468,4680,0.161235,0.512948,0.863715,-1.757984,-0.838604,-1.764259
469,4690,-0.008638500000000007,0.5589495,0.861395,-1.332407,-0.7150365000000001,-1.751976
470,4700,-0.178512,0.604951,0.859075,-0.90683,-0.591469,-1.739693
471,4710,-0.178512,0.604951,0.859075,-0.90683,-0.591469,-1.739693
472,4720,-0.2215835,0.668902,0.7627980000000001,-0.90683,-0.591469,-1.739693
473,4730,-0.33518349999999997,0.867454,0.6001285000000001,-0.205412,-0.806627,-1.3141155
474,4740,-0.349332,0.8954,0.592314,-0.120697,-0.884399,-1.179333
475,4750,-0.408887,1.054285,0.609164,-0.071163,-0.8412740000000001,-1.035004
476,4760,-0.408887,1.054285,0.609164,-0.057812,-0.860901,-0.984402
477,4770,-0.408887,1.054285,0.609164,0.129642,-0.422039,-0.649948
478,4780,-0.558492,1.550444,0.784166,0.215893,-0.156879,-0.509357
479,4790,-0.562399,1.607068,0.859563,0.110416,-0.453014,-0.558357
480,4800,-0.537521,1.647331,1.256393,0.110416,-0.453014,-0.558357
481,4810,-0.537521,1.647331,1.256393,0.110416,-0.453014,-0.558357
482,4820,-0.537521,1.647331,1.256393,0.110416,-0.453014,-0.558357
483,4830,-0.739599,1.532373,1.800172,0.559959,-0.157948,-0.566902
484,4840,-0.827817,1.349572,1.9850335000000001,0.853424,0.3219695,-0.3250405
485,4850,-0.916035,1.166771,2.169895,1.146889,0.801887,-0.083179
486,4860,-0.916035,1.166771,2.169895,0.662231,-0.012951,-0.482655
487,4870,-0.916035,1.166771,2.169895,1.146889,0.801887,-0.083179
488,4880,-0.76521,0.964449,1.677887,1.739292,2.196312,0.498409
489,4890,-0.76521,0.964449,1.677887,1.739292,2.196312,0.498409
490,4900,-0.76521,0.964449,1.677887,1.739292,2.196312,0.498409
491,4910,-0.76521,0.964449,1.677887,1.739292,2.196312,0.498409
492,4920,-0.3739965,0.635721,1.090564,1.117115,1.355839,1.1152455
493,4930,-0.242188,0.407269,1.186124,1.46225,2.437038,0.958633
494,4940,-0.242188,0.407269,1.186124,1.46225,2.437038,0.958633
495,4950,-0.094049,0.12784,1.275929,1.0425475,0.47224049999999995,1.4432909999999999
496,4960,-0.094049,0.12784,1.275929,0.932865,0.467434,1.240883
497,4970,-0.094049,0.12784,1.275929,0.932865,0.467434,1.240883
498,4980,0.041148,-0.021032,1.216619,0.932865,0.467434,1.240883
499,4990,0.041148,-0.021032,1.216619,1.342888,0.98093,1.615925
500,5000,0.041148,-0.021032,1.216619,1.342888,0.98093,1.615925
501,5010,0.179031,-0.150643,1.08948,1.8558504999999998,1.558781,1.610518
502,5020,0.179031,-0.150643,1.08948,2.297382,1.675472,1.428337
503,5030,0.112913,-0.160655,1.026995,2.463608,1.742496,1.312313
504,5040,0.234679,-0.152596,1.058711,2.394314,1.7708015000000001,1.533814
505,5050,0.234679,-0.152596,1.058711,2.047043,1.6712,1.58495
506,5060,0.212731,-0.146247,1.031879,2.813015,1.852245,1.591358
507,5070,-0.002534,-0.303422,0.864692,3.10915,1.385746,2.226219
508,5080,0.0379735,-0.30610800000000005,0.7892790000000001,3.10915,1.385746,2.226219
509,5090,0.209068,-0.291456,0.545458,2.999401,0.959568,2.425423
510,5100,0.441152,-0.154794,0.441732,2.999401,0.959568,2.425423
511,5110,0.441152,-0.154794,0.441732,2.451859,0.111618,2.436104
512,5120,0.632241,0.008974,0.503485,1.437817,-0.95583,1.962128
513,5130,0.635309,0.025565,0.8315105,0.692005,-1.246624,1.435814
514,5140,0.603456,0.007509,0.98429,0.055008,-1.133671,0.861702
515,5150,0.407483,-0.176742,1.409172,-0.1441955,-0.881729,0.5522155
516,5160,0.407483,-0.176742,1.409172,-0.343399,-0.629787,0.242729
517,5170,0.407483,-0.176742,1.409172,-0.183582,-0.294266,0.117092
518,5180,0.201498,-0.299759,0.895431,-0.17931,-0.080109,0.203342
519,5190,0.227109,-0.005922,0.432697,-0.17931,-0.080109,0.203342
520,5200,0.202475,-0.164318,0.612094,-1.391621,-0.966377,0.183048
521,5210,0.249331,0.0529,0.37244,-1.88055,-1.38401,0.098934
522,5220,0.249331,0.0529,0.37244,-1.88055,-1.38401,0.098934
523,5230,0.385016,-0.098658,0.746803,-3.771381,-1.9661335000000002,-0.498676
524,5240,0.383795,-0.160167,0.89885,-3.390064,-2.053986,-0.311222
525,5250,0.285443,-0.180893,1.279104,-4.573536,-0.995216,-1.428604
526,5260,0.25615350000000003,-0.1628375,1.3091255,-4.5143889999999995,-0.8785244999999999,-1.50424
527,5270,0.226864,-0.144782,1.339147,-4.455242,-0.761833,-1.579876
528,5280,-0.089409,0.125398,1.070432,-3.929062,-0.419903,-1.896305
529,5290,-0.089409,0.125398,1.070432,-3.726654,-0.529652,-1.913862
530,5300,-0.118469,0.246187,0.866157,-3.223839,-1.616192,-1.547966
531,5310,-0.118469,0.246187,0.866157,-3.223839,-1.616192,-1.547966
532,5320,0.20394,0.337977,0.771956,-3.0491355,-2.546253,-1.1692520000000002
533,5330,0.20394,0.337977,0.771956,-3.020363,-2.645321,-1.12606
534,5340,0.20394,0.337977,0.771956,-3.020363,-2.645321,-1.12606
535,5350,0.255192,0.35504,0.788775,-3.044929,-2.087097,-1.331673
536,5360,0.336206,0.401897,0.911792,-2.994862,-1.758919,-1.414852
537,5370,0.332543,0.397776,0.987709,-2.457867,-0.949421,-1.63208
538,5380,0.0267555,0.5009975,1.2019815,-1.8805505,-0.9296605,-1.6673275
539,5390,-0.045971,0.531996,1.177332,-1.581211,-0.984535,-1.661987
540,5400,-0.163616,0.632546,0.969394,-0.890942,-1.340351,-1.475468
541,5410,-0.163616,0.632546,0.969394,-0.890942,-1.340351,-1.475468
542,5420,-0.259771,0.831205,0.749245,-0.691738,-1.305237,-1.219921
543,5430,-0.330559,0.949094,0.781235,-0.80883,-0.998421,-1.099491
544,5440,-0.330559,0.949094,0.781235,-0.80883,-0.998421,-1.099491
545,5450,-0.411818,1.122356,1.023332,-0.837669,-0.413494,-0.865173
546,5460,-0.469419,1.264177,1.173669,-0.708694,-0.088654,-0.709629
547,5470,-0.49663250000000003,1.3879115,1.2861855,-0.708694,-0.088654,-0.709629
548,5480,-0.523113,1.637075,1.520712,-0.178242,0.152073,-0.396404
549,5490,-0.630257,1.664425,1.858017,0.065689,-0.317631,-0.368767
550,5500,-0.630257,1.664425,1.858017,0.065689,-0.317631,-0.368767
551,5510,-0.630257,1.664425,1.858017,0.065689,-0.317631,-0.368767
552,5520,-0.666506,1.5333645,2.0707025,0.065689,-0.317631,-0.368767
553,5530,-0.702755,1.402304,2.283388,0.422573,-0.212154,-0.083179
554,5540,-0.650648,1.193999,2.296819,1.252966,0.9303285000000001,0.486126
555,5550,-0.598541,0.985694,2.31025,1.583748,1.468792,0.689068
556,5560,-0.598541,0.985694,2.31025,1.583748,1.468792,0.689068
557,5570,-0.346158,0.797048,1.71815,1.583748,1.468792,0.689068
558,5580,-0.206321,0.671588,1.430907,2.110462,2.4046615,1.1386105
559,5590,-0.1788635,0.6501135,1.366956,2.0156665,2.1346285,1.1695194999999998
560,5600,0.009921,0.457545,1.020401,1.900043,1.885357,1.14502
561,5610,0.009921,0.457545,1.020401,1.900043,1.885357,1.14502
562,5620,0.009921,0.457545,1.020401,1.900043,1.885357,1.14502
563,5630,0.018682,0.078786,1.083864,1.187477,1.364384,1.01511
564,5640,0.006975500000000001,0.008974499999999996,1.1855129999999998,1.166115,1.365986,1.0348035
565,5650,-0.004731,-0.060837,1.287162,1.207638,1.397362,1.190815
566,5660,0.0074635,-0.109403,1.3066835,1.2555695,1.4213274999999999,1.2307359999999998
567,5670,0.04823,-0.23239,1.307401,1.303501,1.445293,1.270657
568,5680,0.118011,-0.274362,1.247357,1.303501,1.445293,1.270657
569,5690,0.197713,-0.2712025,1.0109995,2.066269,1.615791,1.687221
570,5700,0.20394,-0.262915,0.900803,2.6308344999999997,1.5764045,1.758051
571,5710,0.20394,-0.262915,0.900803,2.844925,1.577473,1.730881
572,5720,0.208824,-0.316365,0.743872,2.9173565,1.5993024999999998,1.6930964999999998
573,5730,0.244935,-0.369052,0.719727,3.032513,1.730881,1.652107
574,5740,0.266669,-0.409589,0.643566,3.104878,1.911926,1.641426
575,5750,0.266669,-0.409589,0.643566,3.104878,1.911926,1.641426
576,5760,0.309374,-0.327079,0.548144,2.965355,1.742496,1.727676
577,5770,0.309374,-0.327079,0.548144,2.965355,1.742496,1.727676
578,5780,0.3451195,-0.28645,0.5513185,2.7821065000000003,1.4468955000000001,1.7671295
579,5790,0.380865,-0.245821,0.554493,2.598858,1.151295,1.806583
580,5800,0.380865,-0.245821,0.554493,2.598858,1.151295,1.806583
581,5810,0.380865,-0.245821,0.554493,2.598858,1.151295,1.806583
582,5820,0.40382,-0.21093,0.570122,1.825542,-0.242062,1.497631
583,5830,0.4426175,-0.130984,0.5691455,0.411892,-0.7374,0.958633
584,5840,0.35586450000000003,-0.1774745,0.7249615,0.2478695,-0.694275,0.9218500000000001
585,5850,0.35501,-0.189196,0.764385,0.083847,-0.65115,0.885067
586,5860,0.335718,-0.264869,1.02382,-0.691738,-0.471039,0.731659
587,5870,0.335718,-0.264869,1.02382,-0.691738,-0.471039,0.731659
588,5880,0.411131,-0.26985950000000003,0.8754365,-0.870714,-0.328312,0.6693745
589,5890,0.486544,-0.27485,0.727053,-1.04969,-0.185585,0.60709
590,5900,0.486544,-0.27485,0.727053,-1.04969,-0.185585,0.60709
591,5910,0.5339039999999999,-0.165524,0.8075785,-2.690115,-1.3088419999999998,-0.290995
592,5920,0.316212,-0.355407,1.203432,-3.1764415,-1.217251,-0.725651
593,5930,0.316212,-0.355407,1.203432,-4.602241,-1.067581,-1.971874
594,5940,0.2828935,-0.357971,1.2244329999999999,-4.6379565,-0.820446,-2.133827
595,5950,0.039195,-0.268989,1.264696,-4.673672,-0.573311,-2.29578
596,5960,0.039195,-0.268989,1.264696,-4.429741,-0.200539,-2.527962
597,5970,0.039195,-0.268989,1.264696,-4.2512989999999995,-0.36936800000000003,-2.477894
598,5980,-0.114562,-0.118896,1.115091,-4.072857,-0.538197,-2.427826
599,5990,-0.081869,-0.034219,0.981115,-3.660564,-1.476669,-1.968803
600,6000,-0.035485499999999996,0.0012975,0.975132,-3.6243819999999998,-1.7509744999999999,-1.85585
601,6010,0.073352,0.073413,0.976476,-3.570042,-2.247982,-1.655579
602,6020,0.073352,0.073413,0.976476,-3.570042,-2.247982,-1.655579
603,6030,0.227597,0.25742,1.224433,-3.35268,-2.393913,-1.591625
604,6040,0.22369,0.299637,1.307157,-3.053341,-2.095642,-1.609783
605,6050,0.22369,0.299637,1.307157,-2.595387,-1.735554,-1.605511
606,6060,0.154153,0.375065,1.274464,-2.342911,-1.594963,-1.587353
607,6070,0.154153,0.375065,1.274464,-2.342911,-1.594963,-1.587353
608,6080,0.11643900000000001,0.456827,1.126691,-1.9242095,-1.5033055,-1.5340805
609,6090,-0.012058,0.766278,0.832976,-1.312714,-1.411648,-1.607647
610,6100,-0.040614,0.7764125,0.8513980000000001,-1.3207244999999999,-1.4042379999999999,-1.6310785
611,6110,-0.06917,0.786547,0.86982,-1.328735,-1.396828,-1.65451
612,6120,-0.06917,0.786547,0.86982,-1.328735,-1.396828,-1.65451
613,6130,-0.189852,0.809731,0.960236,-1.2727925,-1.321726,-1.652908
614,6140,-0.557759,1.007428,1.212711,-1.025124,-1.173058,-1.432877
615,6150,-0.561178,1.117716,1.288872,-1.025124,-1.173058,-1.432877
616,6160,-0.5538675,1.145296,1.313155,-0.671444,-0.926991,-0.743675
617,6170,-0.457941,1.372267,1.545376,-0.482922,-0.485992,-0.262222
618,6180,-0.458674,1.4520754999999999,1.6866780000000001,-0.4296495,-0.440731,-0.2409265
619,6190,-0.459407,1.531884,1.82798,-0.29974,-0.407085,-0.207882
620,6200,-0.496525,1.54556,2.092788,-0.077038,-0.561562,-0.15995
621,6210,-0.538009,1.483319,2.368828,0.218029,-0.908833,-0.068359
622,6220,-0.50408,1.3697185,2.4692565,0.218029,-0.908833,-0.068359
623,6230,-0.366426,1.131392,2.54673,0.844345,-0.925922,0.165024
624,6240,-0.33860250000000003,1.1061320000000001,2.5178075,1.3743975,-0.12750650000000002,0.3641605
625,6250,-0.183885,0.941036,2.236776,1.926746,1.557179,0.614567
626,6260,-0.1639825,0.9184625,2.1838145,1.984224,1.7494395,0.641203
627,6270,-0.08966850000000001,0.782884,1.849455,2.041702,1.9417,0.667839
628,6280,-0.035257,0.669879,1.568057,2.041702,1.9417,0.667839
629,6290,-0.035257,0.669879,1.568057,2.282562,2.607536,0.721111
630,6300,-0.089058,0.5394289999999999,1.5007025,2.211666,2.2379015,0.751953
631,6310,-0.142859,0.408979,1.433348,2.14077,1.868267,0.782795
632,6320,-0.126146,0.22350699999999998,1.4765415000000002,2.1541215,1.5337465,1.0581685
633,6330,-0.211205,0.21789,1.495834,2.167473,1.199226,1.333542
634,6340,-0.211205,0.21789,1.495834,2.353325,1.2935539999999999,1.5764715
635,6350,0.119965,-0.101588,1.550016,2.539177,1.387882,1.819401
636,6360,0.005266,-0.0317765,1.5348755,2.3836995,1.311178,1.641493
637,6370,0.119965,-0.101588,1.550016,2.228222,1.234474,1.463585
638,6380,0.4968,-0.250705,1.37013,3.785534,1.901245,1.448631
639,6390,0.499975,-0.278269,1.086794,3.913441,1.982288,1.284542
640,6400,0.40113350000000003,-0.32489650000000003,0.9082665,4.00877,2.1132660000000003,0.9388730000000001
641,6410,0.364778,-0.352232,0.879832,4.000759,2.149448,0.847816
642,6420,0.364778,-0.352232,0.879832,4.000759,2.149448,0.847816
643,6430,0.056777,-0.46597,0.984778,3.948555,2.187901,0.704021
644,6440,0.056777,-0.46597,0.984778,4.055099,2.31781,0.944748
645,6450,-0.125551,-0.561392,0.871285,4.24469,2.482967,1.562653
646,6460,-0.125551,-0.561392,0.871285,4.24469,2.482967,1.562653
647,6470,-0.125551,-0.561392,0.871285,4.24469,2.482967,1.562653
648,6480,0.176589,-0.41716,0.489566,4.124394,2.164402,2.506466
649,6490,0.400401,-0.265708,0.380972,3.321104,0.7752515,2.690182
650,6500,0.624213,-0.114256,0.272378,2.653198,-0.359287,2.708874
651,6510,0.624213,-0.114256,0.272378,3.1160925,0.37470849999999994,2.793522
652,6520,0.6735115,-0.007249499999999999,0.3388775,1.7248055,-0.8609675000000001,2.1325589999999996
653,6530,0.72281,0.099757,0.405377,0.796413,-1.362648,1.556244
654,6540,0.610049,-0.001038,0.829313,-0.168629,-1.318989,0.983067
655,6550,0.5091325,-0.2049475,1.0679905,-0.5473425,-1.0607055,0.73967
656,6560,0.4333535,-0.39554750000000005,1.295572,-0.986805,-0.239925,0.335388
657,6570,0.458491,-0.382238,1.284476,-0.986805,-0.239925,0.335388
658,6580,0.31399900000000003,-0.23068,1.0629845,-1.166849,-0.1040745,0.3295135
659,6590,0.449211,-0.14063,0.815393,-1.607313,-0.061483499999999996,0.256548
660,6600,0.525341,-0.162609,0.722901,-2.507935,-0.203743,-0.127907
661,6610,0.540238,-0.180405,0.749733,-3.100204,-0.037518,-0.54554
662,6620,0.540238,-0.180405,0.749733,-3.100204,-0.037518,-0.54554
663,6630,0.47995,-0.176742,0.853947,-3.50502,0.225639,-1.006832
664,6640,0.47995,-0.176742,0.853947,-3.50502,0.225639,-1.006832
665,6650,0.233946,-0.170393,0.880321,-3.502884,0.636864,-2.037964
666,6660,0.233946,-0.170393,0.880321,-3.502884,0.636864,-2.037964
667,6670,0.165875,-0.156748,0.701656,-3.4544185,0.5138305,-2.1509169999999997
668,6680,0.160747,-0.130374,0.69433,-3.395405,0.226707,-2.277622
669,6690,0.1425535,-0.042262,0.7222759999999999,-3.3319855,-0.7256505,-2.2686095
670,6700,0.137303,-0.012973,0.741675,-3.298473,-1.180534,-2.257461
671,6710,0.137303,-0.012973,0.741675,-3.298473,-1.180534,-2.257461
672,6720,0.137303,-0.012973,0.741675,-3.263226,-1.923008,-2.122212
673,6730,0.197102,0.005556,0.861761,-3.236656,-1.962395,-2.090168
674,6740,0.2477435,0.110761,1.0521325,-2.9586125,-1.918802,-2.014532
675,6750,0.254093,0.1529775,1.0922735000000001,-2.825432,-1.903915,-1.994305
676,6760,0.251285,0.168103,1.095311,-2.65173,-1.888962,-1.977215
677,6770,0.251285,0.168103,1.095311,-2.13089,-1.902847,-1.916599
678,6780,0.20319199999999998,0.3674945,0.9772084999999999,-1.9737434999999999,-1.9145295,-1.917667
679,6790,0.178543,0.458521,0.916921,-1.816597,-1.926212,-1.918735
680,6800,0.067736,0.5642,0.913502,-1.782551,-1.763191,-1.95385
681,6810,0.067736,0.5642,0.913502,-1.772938,-1.619396,-1.978283
682,6820,0.067736,0.5642,0.913502,-1.772938,-1.619396,-1.978283
683,6830,0.067736,0.5642,0.913502,-1.772938,-1.619396,-1.978283
684,6840,0.067736,0.5642,0.913502,-1.772938,-1.619396,-1.978283
685,6850,-0.6464814999999999,1.2406115,1.0388235000000001,-1.5348815,-1.2055685,-1.9123269999999999
686,6860,-0.76057,1.436218,1.102637,-1.394825,-1.195488,-1.8186
687,6870,-0.76057,1.436218,1.102637,-1.6014385,-1.581545,-1.3658519999999998
688,6880,-0.8638064999999999,1.5550834999999998,1.650918,-1.5556429999999999,-1.8761445,-0.7985495
689,6890,-0.907732,1.553618,2.516724,-0.449944,-1.934757,0.113888
690,6900,-0.907732,1.553618,2.516724,-0.449944,-1.934757,0.113888
691,6910,-0.907732,1.553618,2.516724,-0.449944,-1.934757,0.113888
692,6920,-0.659287,1.39742,2.391265,-0.449944,-1.934757,0.113888
693,6930,-0.310779,1.339575,2.105975,0.994549,0.070095,0.935135
694,6940,-0.191669,1.320527,2.00811,1.304569,0.960636,1.054497
695,6950,-0.002778,1.244152,1.800172,1.542091,1.602974,0.929794
696,6960,0.071155,1.193633,1.702308,1.639023,1.813927,0.81377
697,6970,0.135594,1.1211505,1.548185,1.707783,1.934824,0.5889985
698,6980,0.17952,0.940791,1.282034,1.713657,2.052517,0.030708
699,6990,0.062501,0.8108295000000001,1.2780049999999998,1.6156575,2.0487785,-0.1434615
700,7000,-0.120178,0.610812,1.30618,1.517658,2.04504,-0.317631
701,7010,-0.20047500000000001,0.5195415,1.3552339999999998,1.517658,2.04504,-0.317631
702,7020,-0.280772,0.428271,1.404288,1.517658,2.04504,-0.317631
703,7030,-0.303208,0.295028,1.441163,1.89043,1.808586,0.271435
704,7040,-0.274423,0.226437,1.455052,2.020474,1.727676,0.473843
705,7050,-0.274423,0.226437,1.455052,2.020474,1.727676,0.473843
706,7060,-0.274423,0.226437,1.455052,2.020474,1.727676,0.473843
707,7070,-0.274423,0.226437,1.455052,2.020474,1.727676,0.473843
708,7080,-0.274423,0.226437,1.455052,2.470016,1.427269,1.097088
709,7090,0.3572075,-0.084616,1.0605425,3.526182,1.4602469999999999,1.176996
710,7100,0.348172,-0.12378,0.9994,3.600216,1.850109,0.910702
711,7110,0.301072,-0.143561,0.99476,3.600216,1.850109,0.910702
712,7120,0.082037,-0.2702255,0.9979500000000001,3.77759,2.2379015,0.824919
713,7130,0.001618,-0.307573,0.97965,3.846283,2.284832,0.859566
714,7140,-0.048291,-0.313907,0.9155774999999999,3.9192485,2.2086620000000003,1.1285305
715,7150,-0.0982,-0.320241,0.851505,3.992214,2.132492,1.397495
716,7160,-0.102107,-0.32073,0.799764,3.968849,2.012062,1.579609
717,7170,-0.052931,-0.34464649999999997,0.7060515,3.8218495,1.689825,1.8304825
718,7180,0.15598499999999998,-0.37456100000000003,0.52032,2.9967975,0.44720650000000006,2.3216155
719,7190,0.197591,-0.362244,0.503241,2.824764,0.256481,2.349854
720,7200,0.43578,-0.244844,0.620397,1.544228,-0.619106,2.266808
721,7210,0.548296,-0.158701,0.848819,0.666504,-0.971718,2.017536
722,7220,0.610049,-0.165264,1.123394,0.666504,-0.971718,2.017536
723,7230,0.626884,-0.234587,1.2423665000000002,0.3405285,-0.9850695,1.8151285000000001
724,7240,0.635416,-0.383948,1.401602,0.014553,-0.998421,1.612721
725,7250,0.635416,-0.383948,1.401602,0.014553,-0.998421,1.612721
726,7260,0.542802,-0.415557,1.297892,-0.1745035,-0.627184,1.0422135000000001
727,7270,0.3353515,-0.2566875,1.0033075,-1.4309405,-0.6047535,0.261421
728,7280,0.321554,-0.213372,0.99647,-1.9172669999999998,-0.8215140000000001,0.19166
729,7290,0.321554,-0.213372,0.99647,-2.079754,-0.880127,0.163956
730,7300,0.3523085,-0.2320385,1.062008,-2.4919795000000002,-0.7224465,-0.040054000000000006
731,7310,0.397715,-0.27192,1.168297,-2.904205,-0.564766,-0.244064
732,7320,0.397715,-0.27192,1.168297,-2.903137,0.032845,-0.731926
733,7330,0.326927,-0.18187,0.999156,-2.80941,0.3438,-1.046219
734,7340,0.298385,-0.150398,0.920095,-2.790318,0.426979,-1.191082
735,7350,0.219813,-0.086692,0.770246,-2.841387,0.408287,-1.536751
736,7360,0.143408,-0.026649,0.690423,-2.876568,0.356617,-1.629944
737,7370,0.143408,-0.026649,0.690423,-2.876568,0.356617,-1.629944
738,7380,0.0377295,0.066576,0.693353,-3.0773735,-0.2995395,-1.6709995000000002
739,7390,0.029915,0.072925,0.697016,-2.966022,-1.015377,-1.44783
740,7400,0.0819,0.113188,0.883495,-2.922363,-1.1107065,-1.4163875
741,7410,0.10168,0.114897,0.895919,-2.878704,-1.206036,-1.384945
742,7420,0.135349,0.15223,0.890547,-2.564411,-1.493759,-1.184673
743,7430,0.150856,0.182862,0.8811605,-2.47282,-1.4958955,-1.099491
744,7440,0.187578,0.25278,0.859563,-2.1873665,-1.405306,-0.868845
745,7450,0.256413,0.368716,0.847353,-2.075481,-1.351032,-0.806561
746,7460,0.256413,0.368716,0.847353,-2.075481,-1.351032,-0.806561
747,7470,0.287045,0.4316895,0.8593189999999999,-2.075481,-1.351032,-0.806561
748,7480,0.317677,0.494663,0.871285,-2.075481,-1.351032,-0.806561
749,7490,0.317677,0.494663,0.871285,-1.815529,-1.507511,-0.85556
750,7500,0.19405,0.5593315,0.9330229999999999,-1.512985,-1.426601,-1.396694
751,7510,0.067492,0.578364,0.967196,-1.471462,-1.32967,-1.438217
752,7520,0.067492,0.578364,0.967196,-1.471462,-1.32967,-1.438217
753,7530,-0.31981400000000004,0.936396,0.9326559999999999,-1.396961,-0.977058,-1.350899
754,7540,-0.461116,1.181179,0.942531,-1.713257,-1.112308,-0.451813
755,7550,-0.461116,1.181179,0.942531,-1.713257,-1.112308,-0.451813
756,7560,-0.510903,1.436218,1.064816,-1.713257,-1.112308,-0.451813
757,7570,-0.386451,1.652459,1.642997,-1.8720055,-1.460648,0.0345135
758,7580,-0.36838,1.609266,2.142574,-1.398029,-1.377602,0.17664
759,7590,-0.373386,1.5659505,2.2326240000000004,-0.9052945,-1.2087729999999999,0.3023435
760,7600,-0.378392,1.522635,2.322674,-0.41256,-1.039944,0.428047
761,7610,-0.378392,1.522635,2.322674,-0.41256,-1.039944,0.428047
762,7620,-0.292006,1.402304,2.075205,-0.41256,-1.039944,0.428047
763,7630,-0.1888755,1.314086,1.867526,0.927525,0.065823,0.89468
764,7640,-0.134586,1.26784,1.760153,1.244888,0.645275,1.02459
765,7650,-0.022314,1.100653,1.444582,1.517658,1.239681,1.059837
766,7660,0.027717,0.972751,1.320099,1.603908,1.42086,1.045952
767,7670,0.027717,0.972751,1.320099,1.603908,1.42086,1.045952
768,7680,0.027717,0.972751,1.320099,1.603908,1.42086,1.045952
769,7690,0.027717,0.972751,1.320099,1.635952,1.406975,1.048088
770,7700,0.1105785,0.6845155,1.1059489999999998,1.987429,1.1188505,0.350342
771,7710,0.181717,0.826077,1.230538,1.798372,1.2072375000000002,0.9537599999999999
772,7720,0.181717,0.826077,1.230538,1.864929,1.160908,0.875454
773,7730,0.108136,0.5754334999999999,1.0789795,1.8867585,1.2946225,0.562296
774,7740,0.034555,0.32479,0.927421,1.88736,1.6222,0.440865
775,7750,-0.055251,0.116363,1.153401,1.88736,1.6222,0.440865
776,7760,-0.0376835,0.15699200000000002,1.107643,2.074814,1.847439,0.88727
777,7770,0.020284,0.0638895,1.2692135000000002,2.4748229999999998,1.7201995,1.148224
778,7780,0.081167,0.03022,1.324739,2.823696,1.581745,1.346359
779,7790,0.1392565,-0.040080000000000005,1.1698840000000001,2.9371165,1.535349,1.371393
780,7800,0.184037,-0.11427200000000001,0.9804895,3.3450699999999998,1.355305,1.3740635
781,7810,0.170728,-0.118164,0.94595,3.639603,1.221657,1.3517
782,7820,0.080679,-0.144049,0.853458,3.856964,1.163044,1.164246
783,7830,0.026496,-0.188219,0.834197,3.806896,1.459179,1.191883
784,7840,-0.00351,-0.228238,0.853947,3.76751,1.837292,1.275997
785,7850,-0.030113,-0.224575,0.843217,3.76751,1.837292,1.275997
786,7860,-0.056716,-0.220912,0.832487,3.76751,1.837292,1.275997
787,7870,-0.0476805,-0.237518,0.798192,3.7488845,1.9907,1.337814
788,7880,-0.065019,-0.225552,0.813928,3.646011,2.224083,1.58495
789,7890,-0.065019,-0.225552,0.813928,3.646011,2.224083,1.58495
790,7900,0.0006260000000000016,-0.1773525,0.77452,2.243576,0.17129899999999987,1.8220045
791,7910,0.236755,-0.1040155,1.03017,1.4750005,-1.19442,2.1043205
792,7920,0.226376,0.007509,1.046256,0.162621,-2.018871,1.878948
793,7930,0.4095435,-0.13476950000000001,1.305447,0.162621,-2.018871,1.878948
794,7940,0.634195,-0.379308,1.36256,-0.187855,-1.502304,1.610584
795,7950,0.634195,-0.379308,1.36256,-0.227242,-0.645809,1.262245
796,7960,0.634195,-0.379308,1.36256,-0.220833,-0.17917599999999997,1.004429
797,7970,0.634195,-0.379308,1.36256,-0.214424,0.287457,0.746613
798,7980,0.6733739999999999,-0.25899249999999996,1.1278965,-0.7705115,0.2597525,0.383921
799,7990,0.6972905,-0.1407525,0.8805495000000001,-1.4821435,0.1915265,-0.0943945
800,8000,0.62519,-0.152352,0.905687,-2.631569,0.367298,-1.41058
801,8010,0.62519,-0.152352,0.905687,-2.631569,0.367298,-1.41058
802,8020,0.279093,-0.217249,0.967928,-2.953205,0.692139,-2.148781
803,8030,0.279093,-0.217249,0.967928,-3.012886,0.840206,-2.47055
804,8040,0.20746549999999997,-0.207618,0.9515819999999999,-3.012886,0.878658,-2.660141
805,8050,-0.013279,-0.133304,0.792682,-2.951202,0.70816,-2.667618
806,8060,-0.013279,-0.133304,0.792682,-2.97884,0.788135,-2.700596
807,8070,-0.0274275,-0.1104865,0.768033,-2.9244995,0.514297,-2.5695515
808,8080,0.000397,-0.043499,0.7019,-2.8265,-0.255947,-2.232895
809,8090,0.02845,-0.018102,0.706051,-2.812681,-0.3853225,-2.1854975000000003
810,8100,0.109494,0.052656,0.7356,-2.681637,-1.277466,-1.910191
811,8110,0.109494,0.052656,0.7356,-2.635841,-1.486282,-1.847305
812,8120,0.2273685,0.1147755,0.7667055,-2.5484565,-1.8867585,-1.6699315000000001
813,8130,0.2494535,0.14650649999999998,0.792698,-2.5255585,-1.90011,-1.6273404999999999
814,8140,0.254948,0.160777,0.803672,-2.514343,-1.882553,-1.614056
815,8150,0.26496,0.244478,0.910816,-2.3620035,-1.7201330000000001,-1.5586470000000001
816,8160,0.26496,0.244478,0.910816,-2.318344,-1.694031,-1.547966
817,8170,0.26496,0.244478,0.910816,-2.318344,-1.694031,-1.547966
818,8180,0.236388,0.334558,0.98429,-1.5636535,-1.642361,-1.4526365
819,8190,0.172438,0.494663,0.789508,-1.289349,-1.475601,-1.558647
820,8200,0.086539,0.571282,0.733891,-1.2946895,-1.3940905,-1.5895555
821,8210,0.086539,0.571282,0.733891,-1.30003,-1.31258,-1.620464
822,8220,-0.057205,0.680135,0.697993,-1.449165,-0.610561,-1.840897
823,8230,-0.3530105,0.9271165,0.7592570000000001,-1.545029,-0.13979,-1.931419
824,8240,-0.6467255,1.1937555,0.8900735,-1.620064,-0.19513149999999999,-1.7897604999999999
825,8250,-0.866737,1.396688,1.002819,-1.662121,-0.370903,-1.648102
826,8260,-0.969241,1.492842,1.097264,-1.706848,-0.775719,-1.469192
827,8270,-0.969241,1.492842,1.097264,-1.7553805,-1.4942265000000001,-1.11124
828,8280,-1.171807,1.623918,1.526329,-1.693096,-2.955208,-0.135384
829,8290,-0.951445,1.352517,2.643129,-1.517258,-3.138523,0.190525
830,8300,-0.951445,1.352517,2.643129,-0.547943,-2.724094,1.098156
831,8310,-0.862585,1.311522,2.682415,-0.154877,-2.327824,1.361313
832,8320,-0.862585,1.311522,2.682415,-0.154877,-2.327824,1.361313
833,8330,-0.237823,1.222174,2.229694,1.460114,0.242596,2.244377
834,8340,0.075428,1.1955710000000002,1.9219374999999999,1.8068505,0.8189110000000001,2.1122645
835,8350,0.388679,1.168968,1.614181,2.153587,1.395226,1.980152
836,8360,0.388679,1.168968,1.614181,2.153587,1.395226,1.980152
837,8370,0.388679,1.168968,1.614181,2.153587,1.395226,1.980152
838,8380,0.3547655,1.0606185,1.439805,2.1743485,1.3265325,1.429405
839,8390,0.320852,0.952269,1.265429,2.19511,1.257839,0.878658
840,8400,0.320852,0.952269,1.265429,2.19511,1.257839,0.878658
841,8410,-0.033547,0.595947,1.334507,2.247314,0.833931,-0.023632
842,8420,-0.18535,0.297683,1.274464,2.451859,1.406975,0.271435
843,8430,-0.153848,0.156381,1.229317,2.49979,1.95879,0.564499
844,8440,-0.120178,0.101466,1.242016,2.49979,1.95879,0.564499
845,8450,0.09411,-0.010562,1.352548,2.696858,2.26347,1.265449
846,8460,0.164028,-0.0482605,1.3034935,3.0957990000000004,2.122879,1.3634490000000001
847,8470,0.23724299999999998,-0.09279699999999999,1.2215025000000002,3.5703755,1.9135285,1.436949
848,8480,0.24054,-0.099635,1.188566,3.646011,1.844769,1.412449
849,8490,0.2434705,-0.1150045,1.1124205,3.7355325,1.761189,1.3352110000000001
850,8500,0.231993,-0.199208,0.953765,3.8175775,1.7287445,1.2440875
851,8510,0.231993,-0.199208,0.953765,3.810101,1.77988,1.230202
852,8520,0.231993,-0.199208,0.953765,3.810101,1.77988,1.230202
853,8530,0.231993,-0.199208,0.953765,3.810101,1.77988,1.230202
854,8540,0.163433,-0.299515,1.03774,4.170189,2.213402,1.407108
855,8550,0.163433,-0.299515,1.03774,4.1755295,2.1595955,1.4374825
856,8560,0.149025,-0.314411,1.058711,4.18087,2.105789,1.467857
857,8570,0.137303,-0.32147749999999997,1.070555,4.064712,2.346516,1.279202
858,8580,0.191486,-0.356384,0.989907,3.161354,1.545429,1.655312
859,8590,0.191486,-0.356384,0.989907,2.791653,1.364384,1.659584
860,8600,0.23907499999999998,-0.37285199999999996,0.8667674999999999,1.473999,0.390797,1.448631
861,8610,0.43262049999999996,-0.221416,0.636866,0.617504,-0.261154,1.147156
862,8620,0.497044,-0.100856,0.717041,-0.13031,-0.635128,0.505886
863,8630,0.555867,-0.36664,1.477275,0.290527,-0.440197,0.978794
864,8640,0.5456105,-0.43704699999999996,1.3357285,0.16902899999999998,-0.303278,0.616102
865,8650,0.553913,-0.450829,1.45142,0.047531,-0.166359,0.25341
866,8660,0.520244,-0.12842,0.593779,-1.107101,-0.123768,-0.084248
867,8670,0.520244,-0.12842,0.593779,-1.107101,-0.123768,-0.084248
868,8680,0.584179,-0.026282,0.5258295,-1.7627905,-0.3644945,-0.3287125
869,8690,0.597351,-0.021276,0.530347,-2.41848,-0.605221,-0.573177
870,8700,0.611026,-0.05986,0.65016,-3.157749,-0.554218,-1.061173
871,8710,0.594664,-0.103298,0.743872,-3.43586,-0.450878,-1.333809
872,8720,0.438222,-0.21093,0.980627,-3.43586,-0.450878,-1.333809
873,8730,0.40052299999999996,-0.21494400000000002,1.0032005,-3.8518239999999997,-0.0391195,-2.1822925
874,8740,0.258977,-0.202978,1.0363815,-3.7735174999999996,0.0216295,-2.4752235000000002
875,8750,0.15513,-0.186998,1.046989,-3.688335,0.033913,-2.671757
876,8760,0.0672625,-0.1602735,0.9946535,-3.688335,0.033913,-2.671757
877,8770,0.005387999999999999,-0.1189115,0.912525,-3.586063,-0.130177,-2.676029
878,8780,0.007479,-0.039347,0.827359,-3.367634,-0.895081,-2.256393
879,8790,0.051893,-0.021765,0.84369,-3.201542,-1.292419,-2.034759
880,8800,0.132068,0.0048379999999999986,0.8428355000000001,-3.1045435,-1.392555,-2.031555
881,8810,0.212243,0.031441,0.841981,-3.007545,-1.492691,-2.028351
882,8820,0.203696,0.0493745,0.845522,-2.840385,-1.759987,-2.0401
883,8830,0.195149,0.067308,0.849063,-2.840385,-1.759987,-2.0401
884,8840,0.02845,0.282329,0.953032,-2.729569,-2.050915,-1.986828
885,8850,0.02845,0.282329,0.953032,-2.5586035000000003,-2.163267,-1.8489075000000001
886,8860,0.02845,0.282329,0.953032,-2.387638,-2.275619,-1.710987
887,8870,0.02845,0.282329,0.953032,-2.387638,-2.275619,-1.710987
888,8880,0.0171095,0.3950745,1.0645715,-2.0670029999999997,-1.9640635,-1.5191935
889,8890,0.005769,0.50782,1.176111,-1.52153,-1.563988,-1.339149
890,8900,-0.0747715,0.665117,1.1242334999999999,-1.4533710000000002,-1.5932944999999998,-1.3434214999999998
891,8910,-0.111875,0.71527,1.096776,-1.385212,-1.622601,-1.347694
892,8920,-0.169721,0.775558,1.058467,-1.346893,-1.716328,-1.341286
893,8930,-0.321768,0.8918440000000001,1.0700664999999998,-1.376667,-1.716328,-1.338081
894,8940,-0.50579,1.04792,1.1847805,-1.478939,-1.6119865,-1.2363435
895,8950,-0.6882245,1.2006995,1.3338965,-1.566858,-1.541157,-1.0946845
896,8960,-0.727144,1.2295,1.383073,-1.583347,-1.533146,-1.041946
897,8970,-0.727144,1.2295,1.383073,-1.583347,-1.533146,-1.041946
898,8980,-0.859548,1.299678,1.7342675,-1.5508365,-1.5400885,-0.8326625000000001
899,8990,-0.991952,1.369856,2.085462,-0.990009,-1.522465,-0.029907
900,9000,-0.8400274999999999,1.358256,2.2034725,-0.217628,-1.445828,0.618839
901,9010,-0.792805,1.356913,2.196757,0.023098,-1.385078,0.800953
902,9020,-0.792805,1.356913,2.196757,0.3144265,-1.0510920000000001,0.9415435
903,9030,-0.3311695,1.269168,2.0272495,0.605755,-0.717106,1.082134
904,9040,-0.12433,1.214879,1.938299,1.041412,0.371571,1.038475
905,9050,-0.026221499999999995,1.157766,1.8190819999999999,1.2348080000000001,0.8322624999999999,0.885067
906,9060,0.10925,1.053308,1.58857,1.547432,1.546497,0.60709
907,9070,0.10925,1.053308,1.58857,1.547432,1.546497,0.60709
908,9080,0.125352,0.9686155,1.3307225,1.6688635,1.808586,0.412693
909,9090,-0.168744,0.7694525,1.0598095,1.716261,1.9678689999999999,0.0366495
910,9100,-0.330803,0.664506,1.171716,1.513386,1.225929,0.036049
911,9110,-0.330803,0.664506,1.171716,1.513386,1.225929,0.036049
912,9120,-0.36374,0.47586,1.331577,1.6939639999999998,0.87759,0.8211805000000001
913,9130,-0.26148,0.353575,1.395283,1.8132595,0.9926125,1.1199854999999999
914,9140,0.053114,0.157602,1.500474,2.228222,1.625404,1.677609
915,9150,0.096796,0.1469945,1.505465,2.228222,1.625404,1.677609
916,9160,0.140478,0.136387,1.510456,2.228222,1.625404,1.677609
917,9170,0.140478,0.136387,1.510456,2.228222,1.625404,1.677609
918,9180,0.361115,0.011661,1.2088195,3.4526825,2.043438,1.477871
919,9190,0.3449975,-0.051678999999999996,1.092518,3.6247825000000002,2.044506,1.283474
920,9200,0.28471,-0.130862,0.987953,3.765373,2.099381,1.067314
921,9210,0.28471,-0.130862,0.987953,3.765373,2.099381,1.067314
922,9220,0.28471,-0.130862,0.987953,3.765373,2.099381,1.067314
923,9230,0.037974,-0.303178,1.09119,3.967247,2.149515,1.1535644999999999
924,9240,-0.029396,-0.39567,0.987709,4.209576,2.181492,1.567993
925,9250,-0.029396,-0.39567,0.987709,4.209576,2.181492,1.567993
926,9260,-0.029396,-0.39567,0.987709,4.209576,2.181492,1.567993
927,9270,-0.029396,-0.39567,0.987709,4.209576,2.181492,1.567993
928,9280,0.223583,-0.258626,0.6512735000000001,3.867645,1.9817545,2.220945
929,9290,0.434559,-0.051802,0.541794,2.323017,0.387592,2.068539
930,9300,0.434559,-0.051802,0.541794,2.323017,0.387592,2.068539
931,9310,0.434559,-0.051802,0.541794,2.323017,0.387592,2.068539
932,9320,0.5492885000000001,-0.032403,0.9923335,1.6896915,-0.15467650000000002,1.8278124999999998
933,9330,0.576624,-0.107938,1.12779,1.056366,-0.696945,1.587086
934,9340,0.5586595,-0.266563,1.2756850000000002,0.35007499999999997,-0.3102205,1.0304645
935,9350,0.5052095,-0.31708250000000004,1.3260825,-0.356216,0.076504,0.473843
936,9360,0.480194,-0.301713,1.313018,-0.356216,0.076504,0.473843
937,9370,0.4321165,-0.215555,1.201127,-0.356216,0.076504,0.473843
938,9380,0.3961275,-0.10719000000000001,0.9868540000000001,-1.061907,0.26075400000000004,-0.038518500000000004
939,9390,0.408216,-0.084983,0.884472,-1.40337,0.169163,-0.170631
940,9400,0.476531,-0.14234,0.854191,-2.240639,-0.020428,-0.574245
941,9410,0.476531,-0.14234,0.854191,-2.240639,-0.020428,-0.574245
942,9420,0.476531,-0.14234,0.854191,-2.727432,0.033913,-1.162376
943,9430,0.4217535,-0.163341,0.9272994999999999,-2.828636,0.350208,-1.822739
944,9440,0.25407749999999996,-0.166134,0.8438125000000001,-2.8808404999999997,0.4530145,-2.170076
945,9450,0.183915,-0.167462,0.79659,-2.918091,0.49614,-2.338371
946,9460,0.183915,-0.167462,0.79659,-2.918091,0.49614,-2.338371
947,9470,0.183915,-0.167462,0.79659,-2.918091,0.49614,-2.338371
948,9480,0.040782,-0.1358685,0.7364394999999999,-2.946329,0.2671625,-2.3564625
949,9490,0.015751,-0.124269,0.729007,-2.956409,-0.695877,-2.157326
950,9500,0.050779,-0.0909655,0.763531,-2.9196925,-1.085739,-2.0028495
951,9510,0.085807,-0.057662,0.798055,-2.882976,-1.475601,-1.848373
952,9520,0.085807,-0.057662,0.798055,-2.882976,-1.475601,-1.848373
953,9530,0.085807,-0.057662,0.798055,-2.882976,-1.475601,-1.848373
954,9540,0.215662,0.040965,0.898361,-2.360935,-1.776009,-1.531944
955,9550,0.268867,0.17201,0.969394,-2.135162,-1.298828,-1.458511
956,9560,0.268867,0.17201,0.969394,-2.135162,-1.298828,-1.458511
957,9570,0.23432750000000002,0.217157,0.9923335,-1.9418335,-1.2972260000000002,-1.4547729999999999
958,9580,0.1052055,0.383475,0.9372965,-1.3719275,-1.8095875000000001,-1.402569
959,9590,0.0520155,0.42849950000000003,0.903871,-1.342621,-1.897507,-1.39349
960,9600,-0.023535,0.462184,0.854924,-1.404438,-2.380028,-1.371059
961,9610,-0.023535,0.462184,0.854924,-1.404438,-2.380028,-1.371059
962,9620,-0.0325555,0.46487049999999996,0.8496735,-1.404438,-2.380028,-1.371059
963,9630,-0.075031,0.498571,0.841004,-1.629143,-1.022854,-1.381741
964,9640,-0.282237,0.796071,0.852726,-1.672802,-0.8923435,-1.350899
965,9650,-0.601197,1.228035,0.958405,-1.716461,-0.761833,-1.320057
966,9660,-0.601197,1.228035,0.958405,-1.764393,-0.796013,-1.235809
967,9670,-0.601197,1.228035,0.958405,-1.764393,-0.796013,-1.235809
968,9680,-0.896774,1.464546,1.496078,-1.973209,-2.14571,-0.481586
969,9690,-0.9230105,1.4585625,1.5735665,-1.9487095,-2.2058584999999997,-0.3841205
970,9700,-1.046623,1.434508,2.022244,-1.70578,-2.471619,0.189457
971,9710,-0.929222,1.352517,2.417883,-1.020851,-2.242641,0.987339
972,9720,-0.929222,1.352517,2.417883,-1.020851,-2.242641,0.987339
973,9730,-0.875406,1.3314089999999998,2.437648,-0.8663749999999999,-2.063131,1.1008265
974,9740,-0.333978,1.277822,2.248498,0.416164,0.296936,1.777744
975,9750,-0.701045,1.281241,2.446424,0.827389,1.126862,1.777744
976,9760,0.12436,1.193633,1.809451,1.209774,1.59977,1.559448
977,9770,0.12436,1.193633,1.809451,1.3679885,1.6205314999999998,1.389551
978,9780,0.1797635,1.1719140000000001,1.7031619999999998,1.526203,1.641293,1.219654
979,9790,0.164165,0.996683,1.177577,1.526203,1.641293,1.219654
980,9800,0.068117,0.84659,1.197098,1.6135215,1.3595774999999999,0.7157705
981,9810,-0.027931,0.696497,1.216619,1.70084,1.077862,0.211887
982,9820,-0.027931,0.696497,1.216619,1.806316,1.394157,0.137253
983,9830,-0.06440850000000001,0.6144905,1.2637195,1.9400309999999998,1.5065765,0.21235500000000002
984,9840,-0.147499,0.3736,1.351327,2.073746,1.618996,0.287457
985,9850,-0.1322515,0.175307,1.2250435,2.413006,1.82621,0.552216
986,9860,-0.0750165,0.093789,1.0985005,2.8572085,2.098379,0.935202
987,9870,-0.039134,0.069506,1.03774,2.962151,2.163334,1.053429
988,9880,-0.039134,0.069506,1.03774,2.962151,2.163334,1.053429
989,9890,0.154153,0.01044,1.023576,3.22958,2.087631,1.364517
990,9900,0.154153,0.01044,1.023576,3.22958,2.087631,1.364517
991,9910,0.242005,-0.094751,1.108742,3.56617,2.003517,1.225929
992,9920,0.1547485,-0.1194,1.1106954999999998,3.6902714999999997,2.0594595,1.1801335000000002
993,9930,0.067492,-0.144049,1.112649,3.9571,2.286835,1.189747
994,9940,0.040416,-0.150154,1.106544,4.013577,2.375355,1.245155
995,9950,-0.009615,-0.127932,0.953765,4.116917,2.485104,1.482678
996,9960,-0.013279,-0.129153,0.894454,4.090214,2.424355,1.571198
997,9970,-0.013279,-0.129153,0.894454,4.090214,2.424355,1.571198
998,9980,0.055556,-0.133548,0.684562,3.050537,1.118317,2.022743
999,9990,0.095331,-0.01859,0.717285,2.65213,0.620842,2.022743
