id,timestamp,acc_x,acc_y,acc_z,gyro_x,gyro_y,gyro_z
0,0,0.040904,0.1611435,1.0179595,0.0774385,-0.382652,0.283718
1,10,0.072376,0.179336,0.970126,-0.035515,-0.477448,0.291729
2,20,0.072376,0.179336,0.970126,-0.173969,-0.223904,0.244865
3,30,0.109983,0.143194,1.119243,-0.189991,0.006142,0.207615
4,40,0.118499,0.120514,1.110696,0.065689,0.083981,0.159683
5,50,0.118499,0.120514,1.110696,0.065689,0.083981,0.159683
6,60,0.118499,0.120514,1.110696,0.065689,0.083981,0.159683
7,70,0.118499,0.120514,1.110696,0.065689,0.083981,0.159683
8,80,0.1572055,0.09878,1.002224,0.1514055,-0.208483,0.08030899999999999
9,90,0.134128,0.055342,0.951323,0.012416499999999997,-0.238323,0.039252999999999996
10,100,0.157083,0.073169,0.950346,-0.051537,-0.228176,0.031776
11,110,0.119369,0.040095,1.0388235000000001,-0.127106,-0.218563,0.032845
12,120,0.10461,0.024848,1.126324,-0.293331,-0.173836,0.090389
13,130,0.10461,0.024848,1.126324,-0.24700149999999998,-0.065756,0.1212975
14,140,0.148048,-0.016881,1.215397,-0.080242,0.134048,0.151138
15,150,0.206382,-0.033486,1.218816,-0.012016,0.154209,0.125504
16,160,0.206382,-0.033486,1.218816,-0.012016,0.154209,0.125504
17,170,0.204673,-0.042766,1.079956,0.150871,0.095596,-0.026703
18,180,0.204673,-0.042766,1.079956,0.150871,0.095596,-0.026703
19,190,0.1628065,-0.063508,1.077377,0.063553,-0.0455285,-0.0635525
20,200,0.140233,-0.063981,1.096776,0.030575,-0.088654,-0.067291
21,210,0.115813,-0.061814,1.129255,0.018826,-0.119495,-0.057678
22,220,0.089958,-0.080099,1.1766,0.053473,-0.074234,-0.011348500000000001
23,230,0.089958,-0.080099,1.1766,0.08812,-0.028973,0.034981
24,240,0.11265349999999999,-0.0774125,1.1563465000000002,0.08812,-0.028973,0.034981
25,250,0.172926,-0.027381,1.069456,0.246735,0.16489,0.198002
26,260,0.172926,-0.027381,1.069456,0.271301,0.146732,0.241661
27,270,0.16439399999999998,-0.003098,1.0540865,0.20154,0.030641500000000002,0.22310249999999998
28,280,0.155862,0.021185,1.038717,0.189323,0.006142,0.2215
29,290,0.1825725,0.0172775,0.983924,0.076904,-0.1909255,0.132513
30,300,0.1627,-0.002259,1.008191,0.035915,-0.234585,0.10107
31,310,0.1627,-0.002259,1.008191,-0.003605,-0.266495,0.07864
32,320,0.156595,-0.046063,1.048225,-0.003605,-0.266495,0.07864
33,330,0.15049,-0.089867,1.088259,-0.055676,-0.314426,0.054207
34,340,0.1778255,-0.1448885,1.1158234999999999,-0.055676,-0.281448,0.054207
35,350,0.1792755,-0.1394095,1.163535,0.0337125,-0.047064,0.018492
36,360,0.169263,-0.127688,1.169274,0.044327,-0.021496,0.00948
37,370,0.12191849999999999,-0.0406905,1.1631685,0.16902899999999998,0.202675,0.029707
38,380,0.13412849999999998,-0.031655,1.1425485000000002,0.25421150000000003,0.270367,0.042458
39,390,0.152199,-0.038859,1.087527,0.401211,0.255413,0.006275
40,400,0.142676,-0.052046,1.027483,0.440731,0.219231,-0.018291
41,410,0.142676,-0.052046,1.027483,0.440731,0.219231,-0.018291
42,420,0.142676,-0.052046,1.027483,0.440731,0.219231,-0.018291
43,430,0.059326000000000004,-4.55000000000004e-05,0.9286270000000001,0.4002095,0.0988675,-0.054941000000000004
44,440,0.056777,0.085868,0.904955,0.252075,0.191593,0.031776
45,450,0.066896,0.098551,0.90874,0.2222345,0.197401,0.038185
46,460,0.077015,0.111234,0.912525,0.192394,0.203209,0.044594
47,470,0.077015,0.111234,0.912525,0.192394,0.203209,0.044594
48,480,0.172926,0.099757,0.990395,0.069962,0.151005,-0.016155
49,490,0.172926,0.099757,0.990395,0.069962,0.151005,-0.016155
50,500,0.115569,0.088554,1.018204,0.131779,0.016823,-0.168495
51,510,0.1014205,0.0876995,1.0189365000000001,0.192461,-0.0641535,-0.2227685
52,520,0.087272,0.086845,1.019669,0.253143,-0.14513,-0.277042
53,530,0.087272,0.086845,1.019669,0.253143,-0.14513,-0.277042
54,540,0.038218,0.072925,0.98136,0.354347,-0.135517,-0.175838
55,550,0.0354095,0.1224675,0.929497,0.3421305,-0.061483499999999996,-0.125837
56,560,0.032601,0.17201,0.877634,0.329914,0.01255,-0.075836
57,570,0.0678735,0.211907,0.9322900000000001,0.24466500000000002,0.1228335,-0.12743949999999998
58,580,0.080679,0.199575,1.021134,0.210552,0.186253,-0.190792
59,590,0.102901,0.255711,1.038228,0.247803,0.136185,-0.133247
60,600,0.10522100000000001,0.279872,1.043097,0.2776435,0.13351449999999998,-0.1114175
61,610,0.107541,0.304033,1.047966,0.307484,0.130844,-0.089588
62,620,0.107541,0.304033,1.047966,0.307484,0.130844,-0.089588
63,630,0.152688,0.33613000000000004,1.0289335,0.3905965,0.09673099999999998,-0.08111
64,640,0.141943,0.39348700000000003,0.9056875,0.515232,0.12496949999999998,-0.3410625
65,650,0.086051,0.418747,0.801474,0.556755,0.187321,-0.609493
66,660,0.013584,0.424852,0.780503,0.524845,0.327911,-0.675449
67,670,-0.17556650000000001,0.4039725,0.7371719999999999,0.384254,0.618706,-0.612698
68,680,-0.190692,0.400432,0.751687,0.25528,0.57291,-0.372906
69,690,0.023321,0.446586,0.861029,0.195599,0.458889,-0.220699
70,700,0.104122,0.460231,0.913746,0.049667,-0.193062,0.239525
71,710,0.104122,0.460231,0.913746,0.049667,-0.193062,0.239525
72,720,0.300583,0.488802,1.05749,0.049667,-0.193062,0.239525
73,730,0.300583,0.488802,1.05749,0.111485,-0.473175,0.122433
74,740,0.3223015,0.518931,1.0687229999999999,0.306416,-0.3325845,-0.12263299999999999
75,750,0.310595,0.517832,1.056513,0.501347,-0.191994,-0.367699
76,760,0.310595,0.517832,1.056513,0.501347,-0.191994,-0.367699
77,770,0.060929,0.515146,0.766339,0.590801,0.521774,-0.618038
78,780,0.022589,0.526379,0.743872,0.474777,0.700684,-0.539131
79,790,0.022589,0.526379,0.743872,0.474777,0.700684,-0.539131
80,800,0.024787,0.591062,0.791461,0.3591535,0.430651,-0.4172325
81,810,0.022711000000000002,0.596908,0.8052585,0.38472150000000005,0.039186499999999985,-0.4428005
82,820,0.020635,0.602754,0.819056,0.404415,-0.276108,-0.471039
83,830,0.023321,0.584713,0.800741,0.42304050000000004,-0.427914,-0.4944705
84,840,0.038218,0.578364,0.734623,0.454483,-0.543537,-0.526447
85,850,0.047742,0.62522,0.708249,0.388527,-0.313358,-0.521107
86,860,0.047742,0.62522,0.708249,0.388527,-0.313358,-0.521107
87,870,0.047742,0.62522,0.708249,0.388527,-0.313358,-0.521107
88,880,0.054824,0.69088,0.748024,0.311823,0.13725300000000001,-0.5620959999999999
89,890,0.035776,0.680135,0.716552,0.276642,0.641003,-0.679722
90,900,0.035776,0.680135,0.716552,0.2558805,0.484457,-0.6185055
91,910,0.035776,0.680135,0.716552,0.276642,0.641003,-0.679722
92,920,0.035776,0.680135,0.716552,0.204144,0.172367,-0.781994
93,930,-0.08319649999999999,0.6941615000000001,0.732532,0.15728,-0.006609000000000004,-0.7687094999999999
94,940,-0.1991325,0.7009995,0.7532895,0.0790405,-0.41516300000000006,-0.62171
95,950,-0.22024,0.682333,0.799276,0.075302,-0.573311,-0.437927
96,960,-0.22024,0.682333,0.799276,0.075302,-0.573311,-0.437927
97,970,-0.22024,0.682333,0.799276,0.075302,-0.573311,-0.437927
98,980,0.007112,0.711378,0.8172095,0.0342465,-0.420437,-0.277109
99,990,0.06508,0.768232,0.854924,0.028371999999999998,-0.24039299999999997,-0.1859855
100,1000,0.06508,0.768232,0.854924,0.012417,0.038185,-0.226974
101,1010,0.06508,0.768232,0.854924,0.012417,0.038185,-0.226974
102,1020,-0.0036325000000000038,0.7597,0.836746,0.0614165,0.1010035,-0.301008
103,1030,-0.072345,0.751168,0.818568,0.110416,0.163822,-0.375042
104,1040,-0.120423,0.732853,0.785143,0.1046085,-0.035915499999999996,-0.2355195
105,1050,-0.169233,0.723573,0.754129,0.074234,-0.148335,-0.140724
106,1060,-0.169233,0.723573,0.754129,0.074234,-0.148335,-0.140724
107,1070,-0.1396995,0.7247939999999999,0.757548,-0.053673,-0.35181,0.205479
108,1080,-0.019384,0.752145,0.780259,-0.095196,-0.416698,0.339661
109,1090,0.053587,0.7786255,0.784273,-0.0984,-0.419903,0.3685
110,1100,0.126558,0.805106,0.788287,-0.077038,-0.368767,0.326843
111,1110,0.126558,0.805106,0.788287,-0.077038,-0.368767,0.326843
112,1120,0.201986,0.80706,0.748756,-0.116425,-0.005608,0.114956
113,1130,0.1219335,0.7954605,0.766705,-0.154276,0.1936625,0.026502500000000002
114,1140,0.041881,0.783861,0.784654,-0.16222,0.274639,-0.005474
115,1150,0.024558,0.7749475,0.785875,-0.208082,0.392332,-0.073099
116,1160,0.007235,0.766034,0.787096,-0.253944,0.510025,-0.140724
117,1170,0.007235,0.766034,0.787096,-0.253944,0.510025,-0.140724
118,1180,-0.1423855,0.7348065,0.7839214999999999,-0.231514,0.123367,-0.022564
119,1190,-0.072345,0.736027,0.804648,-0.268765,-0.320835,0.229912
120,1200,-0.072345,0.736027,0.804648,-0.275173,-0.38372,0.464363
121,1210,-0.033166,0.7524955,0.8235585000000001,-0.28051349999999997,-0.2249715,0.50375
122,1220,0.070178,0.789477,0.849795,-0.253944,0.241528,0.50909
123,1230,0.0794575,0.792041,0.843812,-0.22250150000000002,0.3864575,0.458488
124,1240,0.053114,0.762859,0.779526,-0.120697,0.72525,0.245934
125,1250,0.053114,0.762859,0.779526,-0.120697,0.72525,0.245934
126,1260,0.053114,0.762859,0.779526,-0.120697,0.72525,0.245934
127,1270,-0.003755,0.716003,0.71582,-0.120697,0.72525,0.245934
128,1280,-0.117004,0.696131,0.685172,-0.1601505,-0.076437,0.161285
129,1290,-0.187059,0.61008,0.75071,-0.180378,-0.193062,0.171432
130,1300,-0.187059,0.61008,0.75071,-0.286922,-0.615902,0.268364
131,1310,-0.18693700000000002,0.5883609999999999,0.7998865,-0.32470699999999997,-0.716038,0.44573799999999997
132,1320,-0.186815,0.566642,0.849063,-0.362492,-0.816174,0.623112
133,1330,-0.122132,0.560781,0.898605,-0.339127,-0.693741,0.802021
134,1340,0.012607,0.562246,0.946683,-0.283718,-0.493469,0.938339
135,1350,0.17342950000000001,0.5839805,0.9455835,-0.17931,-0.221767,0.945816
136,1360,0.198567,0.591551,0.943752,-0.116425,-0.092926,0.898953
137,1370,0.259588,0.579097,0.77977,0.064621,0.031776,0.455818
138,1380,0.259588,0.579097,0.77977,0.064621,0.031776,0.455818
139,1390,0.246645,0.5636049999999999,0.7496265,-0.0471975,-0.028972499999999998,0.2656935
140,1400,0.145362,0.519541,0.705319,-0.195332,0.074368,0.17664
141,1410,0.145362,0.519541,0.705319,-0.195332,0.074368,0.17664
142,1420,0.098139,0.4940375,0.7690255,-0.315695,0.2394585,0.1665595
143,1430,0.050916,0.468534,0.832732,-0.436058,0.404549,0.156479
144,1440,-0.056472,0.383612,0.979894,-0.230446,0.827522,0.501614
145,1450,0.036997,0.355773,0.988197,-0.082378,0.598412,0.700817
146,1460,0.036997,0.355773,0.988197,-0.082378,0.598412,0.700817
147,1470,0.110334,0.375065,0.966585,0.0002004999999999993,0.43118500000000004,0.760498
148,1480,0.183671,0.394357,0.944973,0.082779,0.263958,0.820179
149,1490,0.310595,0.475616,0.755594,0.330982,-0.22604,0.542068
150,1500,0.30009450000000004,0.4579265,0.704342,0.23351650000000002,-0.2894595,0.353012
151,1510,0.289594,0.440237,0.65309,0.136051,-0.352879,0.163956
152,1520,0.289594,0.440237,0.65309,0.136051,-0.352879,0.163956
153,1530,0.289594,0.440237,0.65309,0.136051,-0.352879,0.163956
154,1540,-0.004243000000000004,0.3144265,0.833464,-0.44507,0.30815149999999997,-0.091724
155,1550,-0.125551,0.273294,1.001842,-0.62458,0.645275,-0.014019
156,1560,-0.115294,0.212518,1.139756,-0.29600150000000003,0.07543599999999999,0.3503415
157,1570,-0.039378,0.182755,1.159994,-0.186787,-0.108814,0.436592
158,1580,-0.010104000000000002,0.182511,1.148654,-0.1324465,-0.18551800000000002,0.46696649999999995
159,1590,0.186357,0.236694,1.015762,0.15728,-0.526447,0.494137
160,1600,0.21442499999999998,0.268776,0.983298,0.12537,-0.558491,0.325775
161,1610,0.242493,0.300858,0.950834,0.12537,-0.558491,0.325775
162,1620,0.242493,0.300858,0.950834,0.12537,-0.558491,0.325775
163,1630,0.2105185,0.32906349999999995,0.8968959999999999,-0.237923,-0.092926,-0.195065
164,1640,0.177078,0.321615,0.891524,-0.237923,-0.092926,-0.195065
165,1650,-0.133609,0.161754,1.057246,-0.610695,0.385456,-0.3442
166,1660,-0.133609,0.161754,1.057246,-0.610695,0.385456,-0.3442
167,1670,-0.133609,0.161754,1.057246,-0.610695,0.385456,-0.3442
168,1680,-0.157648,0.1101355,1.0782319999999999,-0.4381275,0.20060550000000002,0.02223
169,1690,-0.056486999999999996,0.1029315,1.024553,-0.159016,-0.26329,0.59
170,1700,0.074818,0.172987,0.959381,-0.145731,-0.36182400000000003,0.625715
171,1710,0.074818,0.172987,0.959381,-0.132446,-0.460358,0.66143
172,1720,0.17646699999999998,0.155542,0.9597475,-0.23845650000000002,-0.506754,0.47871549999999996
173,1730,0.278116,0.138097,0.960114,-0.344467,-0.55315,0.296001
174,1740,0.24980399999999997,0.1199035,0.984763,-0.4483415,-0.328312,0.045661999999999994
175,1750,0.109739,0.062913,1.027728,-0.575581,0.032845,-0.213223
176,1760,0.109739,0.062913,1.027728,-0.575581,0.032845,-0.213223
177,1770,0.109739,0.062913,1.027728,-0.575581,0.032845,-0.213223
178,1780,-0.0813805,-0.0275035,1.1323075,-0.595341,0.0636865,0.021762999999999998
179,1790,-0.016697,-0.062058,1.221747,-0.58733,0.0243,0.070229
180,1800,-0.016697,-0.062058,1.221747,-0.464764,-0.235653,0.330048
181,1810,-0.016697,-0.062058,1.221747,-0.464764,-0.235653,0.330048
182,1820,0.21322,-0.022009,1.192229,-0.464764,-0.235653,0.330048
183,1830,0.24006699999999997,-0.0162855,1.1759895,-0.286856,-0.2564145,0.2954675
184,1840,0.282512,-0.004457,1.095066,-0.077038,-0.317631,0.000935
185,1850,0.282512,-0.004457,1.095066,-0.077038,-0.317631,0.000935
186,1860,0.274698,-0.004212,1.087527,-0.096264,-0.349674,-0.082111
187,1870,0.15049,-0.034463,1.11387,-0.224037,-0.289993,-0.346336
188,1880,0.081167,-0.077657,1.153645,-0.224037,-0.289993,-0.346336
189,1890,0.0355315,-0.106091,1.1639015000000001,-0.2368545,-0.025768,-0.3143595
190,1900,-0.010104,-0.134525,1.174158,-0.249672,0.238457,-0.282383
191,1910,-0.010104,-0.134525,1.174158,-0.21656,0.295868,-0.232315
192,1920,-0.002045,-0.122803,1.089969,-0.21656,0.295868,-0.232315
193,1930,0.068468,-0.113768,1.047966,-0.182514,-0.260086,0.076504
194,1940,0.068468,-0.113768,1.047966,-0.182514,-0.260086,0.076504
195,1950,0.101436,-0.112578,1.061886,-0.182514,-0.260086,0.076504
196,1960,0.101436,-0.112578,1.061886,-0.182514,-0.260086,0.076504
197,1970,0.139012,-0.121338,1.225654,-0.295467,-0.505219,-0.048065
198,1980,0.139012,-0.121338,1.225654,-0.26556,-0.457153,-0.072632
199,1990,0.0980165,-0.1300075,1.2312705,-0.1654245,-0.312824,-0.0864505
200,2000,0.057021,-0.138677,1.236887,-0.065289,-0.168495,-0.100269
201,2010,0.057021,-0.138677,1.236887,-0.065289,-0.168495,-0.100269
202,2020,-0.011081,-0.115966,1.147784,0.137119,-0.003471,0.21616
203,2030,0.0185745,-0.099131,1.1192425,0.137119,-0.003471,0.21616
204,2040,0.04823,-0.082296,1.090701,0.137119,-0.003471,0.21616
205,2050,0.18892150000000002,-0.023474000000000002,1.0822764999999999,0.14025700000000002,-0.294266,0.43932950000000004
206,2060,0.207603,-0.01395,1.089969,0.111485,-0.446606,0.468636
207,2070,0.2451795,0.007035999999999999,1.1075365000000001,0.069962,-0.588264,0.313091
208,2080,0.299362,0.042156,1.12144,0.074234,-0.559425,0.234184
209,2090,0.299362,0.042156,1.12144,0.074234,-0.559425,0.234184
210,2100,0.258367,0.085624,1.114359,0.090256,-0.382652,0.037117
211,2110,0.216638,0.07903,1.111916,0.082779,0.01255,-0.253677
212,2120,0.216638,0.07903,1.111916,0.094395,0.302277,-0.366631
213,2130,-0.0004580000000000001,0.0236265,1.1227835000000002,0.123234,0.3438,-0.358086
214,2140,-0.039378,0.013614,1.123882,0.241394,0.171299,-0.211086
215,2150,-0.036691,0.009951,1.096776,0.298939,-0.092926,-0.052338
216,2160,0.004304,0.018254,1.069944,0.327778,-0.315495,0.093594
217,2170,0.004304,0.018254,1.069944,0.336323,-0.428448,0.19907
218,2180,0.138768,0.086356,0.97501,0.329914,-0.387993,0.227776
219,2190,0.170255,0.1305265,0.9559775,0.252676,-0.23084649999999998,0.128174
220,2200,0.193928,0.191302,0.94012,0.130711,0.0243,-0.05127
221,2210,0.124604,0.195668,0.941097,0.130711,0.0243,-0.05127
222,2220,0.124604,0.195668,0.941097,0.055008,0.4232405,-0.2605535
223,2230,0.071643,0.167859,0.951567,0.046463,0.489864,-0.279179
224,2240,0.059708,0.128084,0.969638,0.032711,0.41523,-0.234451
225,2250,0.09594149999999999,0.097574,0.9593815,0.05133649999999999,0.304413,-0.19826850000000001
226,2260,0.132175,0.067064,0.949125,0.131779,-0.064087,-0.101337
227,2270,0.150246,0.08367,0.951567,0.195599,-0.487061,-0.081043
228,2280,0.150246,0.08367,0.951567,0.195599,-0.487061,-0.081043
229,2290,0.150246,0.08367,0.951567,0.195599,-0.487061,-0.081043
230,2300,0.05287,0.239624,1.023088,0.293598,-0.141926,-0.032043
231,2310,0.100459,0.264991,1.02846,0.327778,0.013618,0.011616
232,2320,0.100459,0.264991,1.02846,0.457687,0.320435,0.06382
233,2330,0.192462,0.24231,1.016983,0.564232,0.380115,-0.009747
234,2340,0.311816,0.264746,0.892989,0.5946065,0.367298,-0.088053
235,2350,0.303758,0.24692,0.815149,0.611095,0.257549,-0.336723
236,2360,0.303758,0.24692,0.815149,0.579186,0.205345,-0.41563
237,2370,0.172926,0.27610199999999996,0.7718335000000001,0.4390625,0.20748149999999999,-0.5706405
238,2380,0.118988,0.292097,0.776351,0.298939,0.209618,-0.725651
239,2390,0.0864175,0.2987975,0.799535,0.298939,0.209618,-0.725651
240,2400,-0.072711,0.2427835,0.9800165000000001,0.268631,0.24052600000000002,-0.647278
241,2410,-0.079915,0.226437,0.987465,0.298939,0.249004,-0.556221
242,2420,-0.0684375,0.200689,0.965975,0.298939,0.249004,-0.556221
243,2430,-0.05696,0.174941,0.944485,0.436392,0.27457200000000004,-0.385256
244,2440,0.045055500000000005,0.244737,0.885922,0.573845,0.30014,-0.214291
245,2450,0.332299,0.437795,0.765851,0.698414,0.001869,0.146866
246,2460,0.332299,0.437795,0.765851,0.630321,-0.021496,0.033913
247,2470,0.332299,0.437795,0.765851,0.630321,-0.021496,0.033913
248,2480,0.24518,0.504157,0.805869,0.274506,0.190525,-0.585995
249,2490,0.157557,0.4780425,0.8577315,0.2696995,0.233116,-0.7181075
250,2500,0.001862,0.397776,0.915455,0.388527,0.2458,-0.781994
251,2510,0.001862,0.397776,0.915455,0.388527,0.2458,-0.781994
252,2520,0.006258,0.387764,0.789264,0.557823,0.276775,-0.408154
253,2530,0.006258,0.387764,0.789264,0.557823,0.276775,-0.408154
254,2540,0.015034,0.408872,0.7753595,0.5456065,0.2964685,-0.368166
255,2550,0.08947,0.545656,0.75071,0.486526,0.356617,-0.26329
256,2560,0.180496,0.625464,0.754861,0.281982,0.372639,-0.236588
257,2570,0.180496,0.625464,0.754861,0.281982,0.372639,-0.236588
258,2580,0.182694,0.630104,0.75242,0.210552,0.12764,-0.437927
259,2590,0.121186,0.576899,0.823696,0.150871,-0.41029,-0.705357
260,2600,0.121186,0.576899,0.823696,0.150871,-0.41029,-0.705357
261,2610,0.104855,0.567375,0.840027,0.1791095,-0.3751755,-0.7181740000000001
262,2620,0.042232,0.54677,0.845537,0.21162,0.030708,-0.643539
263,2630,0.066271,0.546404,0.858098,0.21162,0.030708,-0.643539
264,2640,0.015156,0.5833699999999999,0.8294195,0.20734750000000002,0.106344,-0.623312
265,2650,-0.0324335,0.6430315,0.793064,0.19453,0.428047,-0.456085
266,2660,-0.028908,0.665727,0.785387,0.19453,0.428047,-0.456085
267,2670,-0.028908,0.665727,0.785387,0.19453,0.428047,-0.456085
268,2680,0.057266,0.683798,0.801962,0.124302,0.033913,-0.297337
269,2690,0.085563,0.681601,0.822231,0.1024725,-0.17970999999999998,-0.273905
270,2700,0.085563,0.681601,0.822231,0.080643,-0.393333,-0.250473
271,2710,0.114867,0.690636,0.845888,0.131178,-0.514164,-0.3638935
272,2720,0.100947,0.696009,0.818568,0.145531,-0.41563,-0.427246
273,2730,0.029564,0.7202765,0.8141725,0.0880525,0.005608000000000002,-0.4992105
274,2740,-0.086753,0.697962,0.863471,0.051804,0.467434,-0.453949
275,2750,-0.086753,0.697962,0.863471,0.051804,0.467434,-0.453949
276,2760,-0.086753,0.697962,0.863471,0.051804,0.467434,-0.453949
277,2770,-0.204611,0.655471,0.914967,0.19453,0.168095,-0.158882
278,2780,-0.211938,0.648908,0.900071,0.247803,-0.009747,-0.044861
279,2790,-0.0867375,0.673191,0.831129,0.283051,-0.80349,0.40041
280,2800,0.047986,0.732853,0.801962,0.25528,-0.858765,0.408955
281,2810,0.047986,0.732853,0.801962,0.25528,-0.858765,0.408955
282,2820,0.0891035,0.7601884999999999,0.817835,0.1769735,-0.828457,0.317831
283,2830,0.130221,0.787524,0.833708,0.098667,-0.798149,0.226707
284,2840,0.123139,0.765545,0.870064,0.0789735,-0.7209110000000001,0.1692295
285,2850,0.091912,0.718689,0.901292,0.0715635,-0.5478095000000001,0.069094
286,2860,0.07726,0.706479,0.889356,0.083847,-0.451946,0.026436
287,2870,0.07726,0.706479,0.889356,0.109949,-0.338993,0.0014020000000000005
288,2880,0.05676199999999999,0.6914754999999999,0.8694535,0.1642225,-0.07583599999999999,-0.023632
289,2890,0.036264,0.676472,0.849551,0.192394,0.074368,-0.023632
290,2900,0.019903,0.658157,0.767804,0.192394,0.074368,-0.023632
291,2910,0.019903,0.658157,0.767804,0.192394,0.074368,-0.023632
292,2920,0.0245575,0.6719545,0.7500995,0.007076,-0.002403,0.179844
293,2930,0.042369,0.683798,0.749001,-0.018492,-0.07002799999999999,0.20013799999999998
294,2940,0.085807,0.69723,0.748756,-0.099468,-0.179176,0.142593
295,2950,0.075306,0.698695,0.75828,-0.114288,-0.150471,0.111752
296,2960,0.020879,0.674763,0.7722,-0.129242,-0.059814,0.064888
297,2970,-0.011813,0.652815,0.763164,-0.129242,-0.059814,0.064888
298,2980,-0.038645,0.644268,0.742896,-0.111084,0.271435,0.11282
299,2990,-0.045116500000000004,0.6485415,0.720826,-0.118561,0.346537,0.1937295
300,3000,-0.042552,0.651594,0.716064,-0.126038,0.421639,0.274639
301,3010,-0.027442,0.658646,0.720215,-0.157013,0.31723,0.356751
302,3020,-0.027442,0.658646,0.720215,-0.157013,0.31723,0.356751
303,3030,0.032601,0.662797,0.740454,-0.164356,0.072231,0.448341
304,3040,0.0744515,0.673542,0.756205,-0.138254,-0.004472999999999998,0.43025
305,3050,0.13852399999999998,0.686485,0.708005,-0.09786600000000001,-0.005007000000000001,0.293865
306,3060,0.13828,0.68795,0.697504,-0.090923,-0.037518,0.310955
307,3070,0.11534,0.67403,0.6710389999999999,-0.222969,0.24212849999999997,0.1900575
308,3080,0.103145,0.673053,0.670917,-0.275173,0.307617,0.170364
309,3090,0.07726,0.662797,0.711912,-0.362492,0.412025,0.163956
310,3100,0.03431,0.626686,0.798543,-0.3907965,0.399275,0.21028550000000001
311,3110,0.03431,0.626686,0.798543,-0.388126,0.375843,0.223637
312,3120,0.022604,0.6153305,0.813806,-0.3289795,0.23044599999999998,0.2891255
313,3130,0.052748,0.595321,0.783174,-0.204344,-0.014018999999999997,0.43024999999999997
314,3140,0.147804,0.608859,0.68215,-0.186787,-0.025768,0.506954
315,3150,0.16734,0.618138,0.677999,-0.241127,0.049801,0.489864
316,3160,0.16734,0.618138,0.677999,-0.241127,0.049801,0.489864
317,3170,0.187578,0.618627,0.707028,-0.3364565,0.1717665,0.430784
318,3180,0.176101,0.611057,0.731204,-0.469036,0.375843,0.323639
319,3190,0.136204,0.5897045,0.7687809999999999,-0.469036,0.375843,0.323639
320,3200,0.039683,0.535415,0.805381,-0.480785,0.441799,0.220432
321,3210,0.005769,0.505866,0.793171,-0.480785,0.441799,0.220432
322,3220,0.005769,0.505866,0.793171,-0.480785,0.441799,0.220432
323,3230,-0.05354149999999999,0.44339649999999997,0.8042819999999999,-0.391331,0.256481,0.272503
324,3240,-0.06624,0.429248,0.808311,-0.438194,0.373707,0.560226
325,3250,-0.058181,0.410444,0.837127,-0.405216,0.453548,0.760498
326,3260,-0.027931,0.4102,0.83905,-0.38065,0.435524,0.81377
327,3270,-0.027931,0.4102,0.83905,-0.38065,0.435524,0.81377
328,3280,0.168912,0.4197235,0.8812825,-0.314627,0.24159450000000002,0.84301
329,3290,0.390877,0.526379,0.862738,-0.128174,-0.1717,0.298138
330,3300,0.3485385,0.5313855000000001,0.8767645,-0.128174,-0.1717,0.298138
331,3310,0.183183,0.471708,0.919607,-0.150604,0.020027,-0.309086
332,3320,0.068224,0.378728,0.867866,-0.089855,0.153141,-0.389996
333,3330,0.068224,0.378728,0.867866,-0.089855,0.153141,-0.389996
334,3340,-0.0605165,0.342739,0.8184454999999999,-0.136719,0.10527600000000001,-0.234518
335,3350,-0.086509,0.341396,0.816614,-0.188923,0.037117,-0.151405
336,3360,-0.083823,0.315266,0.810509,-0.304012,0.010414,0.057411
337,3370,-0.049283499999999994,0.30282699999999996,0.843217,-0.41049,0.18885649999999998,0.27684200000000003
338,3380,-0.014744,0.290388,0.875925,-0.432854,0.227776,0.313091
339,3390,-0.014744,0.290388,0.875925,-0.432854,0.227776,0.313091
340,3400,0.150978,0.262793,1.024797,-0.518036,0.434456,0.381184
341,3410,0.195637,0.254734,1.040426,-0.518036,0.434456,0.381184
342,3420,0.195637,0.254734,1.040426,-0.518036,0.434456,0.381184
343,3430,0.21808850000000002,0.2430275,1.0315125,-0.475445,0.245333,0.16655950000000003
344,3440,0.157679,0.1842205,1.0789795,-0.468569,0.016823,-0.139656
345,3450,0.074818,0.13712,1.13536,-0.620308,-0.12804,-0.327244
346,3460,0.051145499999999997,0.12393299999999999,1.1634280000000001,-0.6352614999999999,-0.1546765,-0.3293135
347,3470,-0.077718,0.019719,1.311308,-0.596409,-0.227108,-0.2690985
348,3480,-0.118225,-0.022497,1.287407,-0.542603,-0.272903,-0.206814
349,3490,-0.0873485,-0.0220085,1.239696,-0.197468,-0.1227,0.406818
350,3500,0.070666,-0.018346,1.132918,-0.187855,-0.113087,0.545273
351,3510,0.070666,-0.018346,1.132918,-0.187855,-0.113087,0.545273
352,3520,0.19696450000000001,0.0397285,1.1127865,-0.2459335,-0.1264385,0.4893305
353,3530,0.323263,0.097803,1.092655,-0.304012,-0.13979,0.433388
354,3540,0.321554,0.149788,1.100683,-0.367832,-0.131245,0.180912
355,3550,0.321554,0.149788,1.100683,-0.367832,-0.131245,0.180912
356,3560,0.321554,0.149788,1.100683,-0.367832,-0.131245,0.180912
357,3570,0.076283,0.099513,1.139756,-0.367832,-0.131245,0.180912
358,3580,0.049924500000000004,0.08487600000000001,1.138901,-0.37050249999999996,-0.22604,-0.1002695
359,3590,0.023566,0.070239,1.138046,-0.373173,-0.320835,-0.381451
360,3600,-0.038889,0.024603,1.095799,-0.266628,-0.436993,-0.247269
361,3610,-0.038889,0.024603,1.095799,-0.266628,-0.436993,-0.247269
362,3620,-0.001557,0.009219,1.044547,-0.320969,-0.174904,0.278912
363,3630,0.067629,0.036432,1.0696845,-0.320969,-0.174904,0.278912
364,3640,0.136815,0.063645,1.094822,-0.341263,-0.130177,0.419636
365,3650,0.1917295,0.0634015,1.11094,-0.2676965,-0.2719025,0.342865
366,3660,0.239075,0.042644,1.117289,-0.111084,-0.51363,0.154343
367,3670,0.211266,-0.008364,1.072386,0.019894,-0.563698,-0.05127
368,3680,0.176833,-0.044231,1.046989,0.006008,-0.446606,-0.135384
369,3690,0.176833,-0.044231,1.046989,0.006008,-0.446606,-0.135384
370,3700,0.10168,-0.110868,1.093601,-0.145264,-0.036449,-0.132179
371,3710,0.10168,-0.110868,1.093601,-0.145264,-0.036449,-0.132179
372,3720,0.063126,-0.129153,1.189298,-0.10788,0.183048,-0.010815
373,3730,0.061173,-0.125246,1.198303,-0.055676,0.169163,0.019093
374,3740,0.065324,-0.122803,1.184658,0.048599,0.081844,0.073299
375,3750,0.0924,-0.122803,1.13365,0.155144,-0.091858,0.109615
376,3760,0.0924,-0.122803,1.13365,0.155144,-0.091858,0.109615
377,3770,0.0924,-0.122803,1.13365,0.155144,-0.091858,0.109615
378,3780,0.146583,-0.113524,1.064572,0.1700975,-0.1381875,0.0792405
379,3790,0.112913,-0.107938,1.063595,0.082779,-0.146198,-0.093861
380,3800,0.112913,-0.107938,1.063595,0.082779,-0.146198,-0.093861
381,3810,0.112913,-0.107938,1.063595,0.082779,-0.146198,-0.093861
382,3820,0.061661,-0.101588,1.105567,0.060349,-0.039654,-0.095997
383,3830,0.0350585,-0.089378,1.1081314999999998,0.063553,-0.016155,-0.08852
384,3840,0.01102,-0.0701015,1.1027589999999998,0.1610185,-0.008211,0.052071
385,3850,0.013584,-0.063035,1.094822,0.205212,-0.022564,0.122433
386,3860,0.013584,-0.063035,1.094822,0.205212,-0.022564,0.122433
387,3870,0.103267,0.0009160000000000001,1.0494315,0.254211,-0.264359,0.237389
388,3880,0.150978,0.030464,1.043814,0.222301,-0.394402,0.251274
389,3890,0.180985,0.059006,1.058222,0.178642,-0.332584,0.189457
390,3900,0.180985,0.059006,1.058222,0.178642,-0.332584,0.189457
391,3910,0.180985,0.059006,1.058222,0.178642,-0.332584,0.189457
392,3920,0.180985,0.059006,1.058222,0.178642,-0.332584,0.189457
393,3930,0.221004,0.04533,1.032612,0.204144,0.111618,-0.041656
394,3940,0.21369300000000002,0.045452000000000006,1.030414,0.204144,0.111618,-0.041656
395,3950,0.206382,0.045574,1.028216,0.204144,0.111618,-0.041656
396,3960,0.131931,0.061203,1.061397,0.147667,0.112686,-0.228043
397,3970,0.131931,0.061203,1.061397,0.147667,0.112686,-0.228043
398,3980,0.119736,0.068285,1.0958145,0.1876545,0.054607499999999996,-0.177975
399,3990,0.0924,0.094873,1.155843,0.297871,-0.093994,-0.113087
400,4000,0.0924,0.094873,1.155843,0.371437,-0.106812,-0.113087
401,4010,0.0924,0.094873,1.155843,0.371437,-0.106812,-0.113087
402,4020,0.049451,0.087333,0.935724,0.371437,-0.106812,-0.113087
403,4030,0.066271,0.083914,1.04992,0.6553555,-0.015688,-0.1227
404,4040,0.065187,0.090004,0.9324125,0.586662,0.063152,-0.097666
405,4050,0.121674,0.133701,0.747291,0.36396,0.103073,-0.055542
406,4060,0.121674,0.133701,0.747291,0.36396,0.103073,-0.055542
407,4070,0.121674,0.133701,0.747291,0.36396,0.103073,-0.055542
408,4080,0.211999,0.163952,0.839295,-0.013084,-0.060883,-0.055542
409,4090,0.166119,0.163463,1.133895,-0.0455955,-0.44974349999999996,-0.225973
410,4100,0.10925,0.144904,1.211734,0.067825,-0.48172,-0.25795
411,4110,0.10925,0.144904,1.211734,0.251007,-0.382652,-0.261154
412,4120,0.117034,0.129794,1.031879,0.760231,0.106277,-0.157814
413,4130,0.127413,0.2224075,0.794407,0.889206,0.406685,-0.126972
414,4140,0.127779,0.258641,0.72168,0.841141,0.595207,-0.151405
415,4150,0.115111,0.276712,0.65773,0.5876635,0.5862615,-0.1769065
416,4160,0.115111,0.276712,0.65773,0.523777,0.538864,-0.175838
417,4170,0.115111,0.276712,0.65773,0.523777,0.538864,-0.175838
418,4180,0.19978849999999998,0.2612055,0.792087,-0.0759695,-0.305414,-0.1279735
419,4190,0.261053,0.256688,0.920339,-0.267696,-0.676651,-0.115223
420,4200,0.30156,0.297576,1.0993555,-0.2107525,-0.7485485000000001,-0.183916
421,4210,0.31084,0.300369,1.120464,-0.153809,-0.820446,-0.252609
422,4220,0.31084,0.300369,1.120464,-0.153809,-0.820446,-0.252609
423,4230,0.305223,0.3056195,1.0737295,0.09546249999999999,-0.4449365,-0.3309155
424,4240,0.207603,0.358948,0.828824,0.714436,1.137543,-0.74688
425,4250,0.14182050000000002,0.3918995,0.6537005,0.7074929999999999,1.156168,-0.766573
426,4260,0.12436,0.398722,0.621863,0.70055,1.174793,-0.786266
427,4270,0.046276,0.411421,0.544969,0.440731,0.734863,-0.844879
428,4280,-0.059647,0.432666,0.567436,0.054540500000000006,-0.11368749999999998,-0.7575609999999999
429,4290,0.02381,0.379705,0.743384,-0.431786,-0.997353,-0.43045
430,4300,0.050535,0.3755535,0.7784120000000001,-0.474377,-1.0447505,-0.39373400000000003
431,4310,0.07726,0.371402,0.81344,-0.516968,-1.092148,-0.357018
432,4320,0.18709,0.411177,1.056025,-0.275173,-0.163155,-0.283451
433,4330,0.231504,0.470243,1.153645,-0.1851845,0.032310500000000006,-0.303211
434,4340,0.222957,0.482453,1.148028,0.084915,0.56757,-0.380383
435,4350,0.222957,0.482453,1.148028,0.084915,0.56757,-0.380383
436,4360,0.222957,0.482453,1.148028,0.084915,0.56757,-0.380383
437,4370,0.102153,0.5134515,0.881282,0.3911305,0.7406714999999999,-0.435257
438,4380,-0.018651,0.54445,0.614536,0.697346,0.913773,-0.490131
439,4390,-0.029518000000000003,0.5677559999999999,0.6055005,0.2664945,0.02743699999999999,-0.27337100000000003
440,4400,-0.015232,0.600586,0.637949,0.057144,-0.250607,-0.177975
441,4410,-0.015232,0.600586,0.637949,-0.071697,-0.352879,-0.1227
442,4420,-0.015232,0.600586,0.637949,-0.071697,-0.352879,-0.1227
443,4430,0.1085025,0.6543875,0.934488,-0.281582,-0.333653,-0.026703
444,4440,0.1326635,0.6814785,0.9803675000000001,-0.1095485,-0.17757399999999998,-0.0784395
445,4450,0.15342,0.711607,0.967928,0.128574,0.009346,-0.152473
446,4460,0.15342,0.711607,0.967928,0.128574,0.009346,-0.152473
447,4470,0.123383,0.72919,0.810021,0.128574,0.009346,-0.152473
448,4480,0.123383,0.72919,0.810021,0.305347,0.160618,-0.239792
449,4490,0.0871495,0.7627524999999999,0.728747,0.22864299999999999,0.1745035,-0.256882
450,4500,0.068713,0.787524,0.655288,0.151939,0.188389,-0.273972
451,4510,0.008211,0.80242,0.676045,-0.143127,-0.023632,-0.275974
452,4520,0.008211,0.80242,0.676045,-0.143127,-0.023632,-0.275974
453,4530,-0.049878,0.775313,0.797811,-0.355148,-0.416698,-0.1717
454,4540,-0.025977,0.7414,0.90642,-0.355148,-0.416698,-0.1717
455,4550,0.016621,0.7473829999999999,0.9121585,-0.322037,-0.690536,0.075436
456,4560,0.059219,0.753366,0.917897,-0.266628,-0.623379,0.168228
457,4570,0.095575,0.761394,0.925223,-0.266628,-0.623379,0.168228
458,4580,0.160502,0.825589,0.875192,-0.245399,-0.541401,0.195866
459,4590,0.160502,0.825589,0.875192,-0.245399,-0.541401,0.195866
460,4600,0.1002145,0.798635,0.8651800000000001,-0.158014,0.026369,-0.046463000000000004
461,4610,0.087272,0.791187,0.872018,-0.163288,-0.005608,-0.063019
462,4620,0.014179,0.7481005000000001,0.908129,-0.111685,-0.218096,0.004673000000000002
463,4630,0.00699,0.727724,0.904955,-0.086117,-0.245266,0.062151
464,4640,0.020391,0.71991,0.890547,-0.051537,-0.175972,0.227776
465,4650,0.020391,0.71991,0.890547,-0.051537,-0.175972,0.227776
466,4660,0.020391,0.71991,0.890547,-0.051537,-0.175972,0.227776
467,4670,0.11096,0.714293,0.864203,-0.019493,-0.049267,0.364227
468,4680,0.159525,0.73676,0.864692,-0.029106,-0.014019,0.349274
469,4690,0.179779,0.7294339999999999,0.8762915,-0.0094125,0.035515,0.273104
470,4700,0.186113,0.699916,0.86054,0.05928,0.15955,0.113888
471,4710,0.186113,0.699916,0.86054,0.05928,0.15955,0.113888
472,4720,0.157206,0.681234,0.8229635,0.090256,0.270901,0.047798
473,4730,0.150002,0.678914,0.814905,0.092392,0.289593,0.037117
474,4740,0.1329075,0.6721985,0.801245,0.0965975,0.30715000000000003,0.031309
475,4750,0.064836,0.664995,0.742651,0.094395,0.306549,0.042458
476,4760,0.064836,0.664995,0.742651,0.094395,0.306549,0.042458
477,4770,0.045544,0.650373,0.720948,0.020962,0.193596,0.160751
478,4780,0.1022905,0.6276619999999999,0.754984,-0.0594805,0.12336749999999999,0.216694
479,4790,0.106076,0.623999,0.771956,-0.149536,0.032845,0.233116
480,4800,0.11192150000000001,0.616795,0.824429,-0.181446,-0.028972499999999998,0.2373885
481,4810,0.1291225,0.607882,0.9122809999999999,-0.213356,-0.09079,0.241661
482,4820,0.140478,0.606173,0.94766,-0.160084,-0.144062,0.240593
483,4830,0.150978,0.605928,0.978185,-0.160084,-0.144062,0.240593
484,4840,0.166363,0.612766,1.029926,-0.067425,-0.054607,0.208683
485,4850,0.166363,0.612766,1.029926,0.015621000000000003,0.09452849999999999,0.1686955
486,4860,0.166363,0.612766,1.029926,0.098667,0.243664,0.128708
487,4870,0.166363,0.612766,1.029926,0.098667,0.243664,0.128708
488,4880,0.070666,0.569573,0.976476,0.409756,0.692139,0.034981
489,4890,0.070666,0.569573,0.976476,0.53339,0.625114,0.085049
490,4900,0.010165,0.545671,0.901047,0.53339,0.625114,0.085049
491,4910,-0.026954,0.525158,0.723634,0.530186,0.249004,0.314159
492,4920,0.005281,0.537124,0.646985,0.328846,-0.038586,0.426979
493,4930,0.080434,0.548358,0.710691,0.075302,-0.303879,0.50375
494,4940,0.222957,0.532973,0.95987,-0.099468,-0.442333,0.493069
495,4950,0.222957,0.532973,0.95987,-0.07597,-0.390129,0.326843
496,4960,0.222957,0.532973,0.95987,-0.07597,-0.390129,0.326843
497,4970,0.2169895,0.516016,0.9746440000000001,0.10033600000000001,-0.1887895,0.155878
498,4980,0.120209,0.429492,0.774154,0.276642,0.01255,-0.015087
499,4990,0.074207,0.4239975,0.717041,0.2643585,0.266628,-0.0496675
500,5000,0.028205,0.418503,0.659928,0.2062795,0.569706,-0.080042
501,5010,0.028205,0.418503,0.659928,0.160484,0.618706,-0.075836
502,5020,-0.0744055,0.3595735,0.7961164999999999,-0.2267075,0.6677055000000001,0.056877000000000004
503,5030,-0.10601450000000001,0.317464,0.892149,-0.2954675,0.448208,0.166559
504,5040,-0.109922,0.307696,0.914234,-0.301876,0.295868,0.226707
505,5050,-0.097956,0.305986,0.983069,-0.142059,-0.365562,0.398273
506,5060,-0.07552,0.304521,0.991128,-0.142059,-0.365562,0.398273
507,5070,0.177322,0.316243,0.920339,0.101871,-1.053829,0.496273
508,5080,0.1972245,0.32234799999999997,0.885922,0.101871,-1.053829,0.496273
509,5090,0.207725,0.3391825,0.8302745,0.11415449999999999,-0.9807965,0.43452250000000003
510,5100,0.187823,0.35211,0.797322,-0.00988,-0.466766,0.172501
511,5110,0.187823,0.35211,0.797322,-0.00988,-0.466766,0.172501
512,5120,0.187823,0.35211,0.797322,-0.00988,-0.466766,0.172501
513,5130,0.143164,0.279399,0.82394,-0.448875,0.484524,0.018024
514,5140,0.104122,0.268165,0.906176,-0.448875,0.484524,0.018024
515,5150,0.016972,0.265723,0.982581,-0.637398,0.873318,0.042458
516,5160,0.016972,0.265723,0.982581,-0.637398,0.873318,0.042458
517,5170,0.016972,0.265723,0.982581,-0.637398,0.873318,0.042458
518,5180,-0.06331,0.264258,1.023088,-0.45208,0.211754,0.394001
519,5190,-0.027427000000000003,0.2552225,0.9886705,-0.32470699999999997,-0.2068805,0.6097604999999999
520,5200,0.103389,0.232542,0.875437,-0.334854,-0.265427,0.679455
521,5210,0.103389,0.232542,0.875437,-0.334854,-0.265427,0.679455
522,5220,0.213708,0.228391,0.99476,-0.334854,-0.265427,0.679455
523,5230,0.239212,0.2219195,1.0144185,-0.475445,-0.150938,0.5777835
524,5240,0.240433,0.1894555,1.0398005,-0.4296495,-0.0247,0.384922
525,5250,0.176589,0.15687,1.028216,-0.353012,-0.044994,0.219364
526,5260,0.176589,0.15687,1.028216,-0.353012,-0.044994,0.219364
527,5270,0.176589,0.15687,1.028216,-0.353012,-0.044994,0.219364
528,5280,0.090935,0.127108,0.970859,-0.427513,-0.376244,0.228844
529,5290,0.0903245,0.0814725,1.019425,-0.5324555,-0.49607249999999997,0.3231715
530,5300,0.089714,0.035837,1.067991,-0.560627,-0.488129,0.366364
531,5310,0.089714,0.035837,1.067991,-0.560627,-0.488129,0.366364
532,5320,0.206138,0.029487,1.122906,-0.535126,-0.307083,0.356751
533,5330,0.206138,0.029487,1.122906,-0.535126,-0.307083,0.356751
534,5340,0.283977,-0.001038,1.092167,-0.447807,0.060482,0.210819
535,5350,0.283977,-0.001038,1.092167,-0.447807,0.060482,0.210819
536,5360,0.283977,-0.001038,1.092167,-0.447807,0.060482,0.210819
537,5370,0.20551199999999997,0.010928,1.0516445,-0.3923985,0.0924585,0.080843
538,5380,0.0862955,-0.044964000000000004,1.0275905,-0.343399,-0.018825499999999995,0.0100135
539,5390,0.073841,-0.05229,1.050164,-0.345535,-0.113087,0.049934
540,5400,0.073841,-0.05229,1.050164,-0.345535,-0.113087,0.049934
541,5410,0.073841,-0.05229,1.050164,-0.34874,-0.162086,0.085049
542,5420,0.103008,-0.046550999999999995,1.0942275000000001,-0.298605,-0.211086,0.22677400000000003
543,5430,0.138524,-0.046673,1.121685,-0.274105,-0.211086,0.25341
544,5440,0.164165,-0.052778,1.121196,-0.15274,-0.167427,0.201206
545,5450,0.225155,-0.052046,1.107521,-0.15274,-0.167427,0.201206
546,5460,0.2368765,-0.0424,1.1142365,-0.15274,-0.167427,0.201206
547,5470,0.248598,-0.032754,1.120952,-0.062084,-0.224972,0.076504
548,5480,0.2460345,-0.046307,1.115946,-0.007276500000000001,-0.190859,-0.007610500000000001
549,5490,0.212243,-0.078633,1.046501,0.031643,0.057278,-0.091724
550,5500,0.201376,-0.0789995,1.0427309999999999,0.028972499999999998,0.10040299999999999,-0.0959965
551,5510,0.190509,-0.079366,1.038961,0.026302,0.143528,-0.100269
552,5520,0.190509,-0.079366,1.038961,0.026302,0.143528,-0.100269
553,5530,0.138402,-0.093163,1.0156395,-0.061016,0.219231,-0.004406
554,5540,0.1551145,-0.110502,1.0305205,-0.0994015,0.077038,0.0498675
555,5550,0.172438,-0.111601,1.046012,-0.119629,-0.00761,0.073299
556,5560,0.183671,-0.106717,1.0697,-0.171833,-0.1717,0.097866
557,5570,0.221004,-0.080587,1.138046,-0.18198,-0.20047199999999998,0.087185
558,5580,0.221004,-0.080587,1.138046,-0.192127,-0.229244,0.076504
559,5590,0.232237,-0.047894,1.175623,-0.192127,-0.229244,0.076504
560,5600,0.195881,-0.020544,1.14464,0.07637,0.125504,-0.084248
561,5610,0.1892875,-0.020788,1.1326740000000002,0.0885865,0.11802699999999999,-0.08905450000000001
562,5620,0.173903,-0.02323,1.107765,0.096531,0.073299,-0.092793
563,5630,0.173903,-0.02323,1.107765,0.096531,0.073299,-0.092793
564,5640,0.157923,-0.015308500000000001,1.1108175,0.0433255,-0.0763705,-0.095997
565,5650,0.141943,-0.007387,1.11387,-0.00988,-0.22604,-0.099201
566,5660,0.141943,-0.007387,1.11387,-0.00988,-0.22604,-0.099201
567,5670,0.141943,-0.007387,1.11387,-0.00988,-0.22604,-0.099201
568,5680,0.126085,-0.007143,1.1539039999999998,-0.0323105,-0.279312,-0.08111
569,5690,0.129504,-0.0129885,1.203691,-0.018492,-0.279312,-0.044861000000000005
570,5700,0.148781,-0.019078,1.213444,0.269165,-0.028973,-0.03418
571,5710,0.1352275,0.0044719999999999985,1.1958765,0.269165,-0.028973,-0.03418
572,5720,0.121674,0.028022,1.178309,0.269165,-0.028973,-0.03418
573,5730,0.1258255,0.0351045,1.15366,0.4241085,-0.0635525,-0.055542
574,5740,0.137303,0.026069000000000002,1.103873,0.47524449999999996,-0.16689299999999999,-0.0582125
575,5750,0.144385,0.018743,1.071409,0.500278,-0.223904,-0.061951
576,5760,0.144385,0.018743,1.071409,0.500278,-0.223904,-0.061951
577,5770,0.165142,0.028511,1.014541,0.500278,-0.223904,-0.061951
578,5780,0.153909,0.048016,1.031635,0.379982,-0.340061,-0.090656
579,5790,0.13608199999999998,0.074619,1.0604355,0.37624349999999995,-0.213289,-0.08852
580,5800,0.107785,0.131747,1.111184,0.372505,-0.086517,-0.086384
581,5810,0.107785,0.131747,1.111184,0.372505,-0.086517,-0.086384
582,5820,0.1465825,0.1155075,1.0778655,0.372505,-0.086517,-0.086384
583,5830,0.2025965,0.105251,0.9657304999999999,0.546675,0.1435945,-0.123701
584,5840,0.21322,0.129061,0.800497,0.437527,-0.035381,-0.273972
585,5850,0.21322,0.129061,0.800497,0.437527,-0.035381,-0.273972
586,5860,0.21322,0.129061,0.800497,0.437527,-0.035381,-0.273972
587,5870,0.250308,0.184221,0.762676,0.231915,-0.249538,-0.282383
588,5880,0.233946,0.260107,0.812707,0.078506,-0.355015,-0.339928
589,5890,0.201986,0.218867,0.956695,-0.070629,-0.406017,-0.406017
590,5900,0.184159,0.197377,0.98722,-0.089855,-0.015087,-0.531654
591,5910,0.184159,0.197377,0.98722,-0.089855,-0.015087,-0.531654
592,5920,0.128268,0.184221,1.075317,0.052872,0.289593,-0.547676
593,5930,0.063844,0.20886949999999999,1.117167,0.273438,0.477047,-0.474243
594,5940,0.057998499999999995,0.2382655,1.075912,0.660696,0.580387,-0.282984
595,5950,0.065813,0.249606,1.046989,0.741138,0.582523,-0.24086
596,5960,0.144141,0.299881,0.90642,0.988274,0.473843,-0.126972
597,5970,0.144141,0.299881,0.90642,0.988274,0.473843,-0.126972
598,5980,0.144141,0.299881,0.90642,0.988274,0.473843,-0.126972
599,5990,0.144141,0.299881,0.90642,0.988274,0.473843,-0.126972
600,6000,0.045544,0.440969,0.670917,0.316029,-0.317631,-0.548744
601,6010,0.045544,0.440969,0.670917,0.181847,-0.360222,-0.533791
602,6020,0.055556,0.40556,0.837585,0.181847,-0.360222,-0.533791
603,6030,0.128023,0.476348,0.966952,0.128574,-0.053539,-0.172768
604,6040,0.201986,0.506599,0.922781,0.23191450000000002,0.073767,-0.16849550000000002
605,6050,0.234435,0.523449,0.872506,0.433254,0.320435,-0.197201
606,6060,0.234435,0.523449,0.872506,0.433254,0.320435,-0.197201
607,6070,0.22834500000000002,0.588987,0.6798145,0.522709,0.494003,-0.43045
608,6080,0.200277,0.597412,0.652357,0.408688,0.428047,-0.56797
609,6090,0.160258,0.580806,0.665544,0.257416,0.284252,-0.652084
610,6100,0.054442000000000004,0.5849575,0.7139880000000001,0.11468900000000001,0.07750499999999999,-0.6855964999999999
611,6110,0.029671,0.587644,0.729495,0.095463,0.040188,-0.679722
612,6120,-0.034509,0.5482199999999999,0.884701,0.06936099999999999,-0.139256,-0.4006765
613,6130,-0.025733,0.533705,0.919607,0.093327,-0.130177,-0.313358
614,6140,0.030403,0.540787,0.932061,0.207348,0.027504,-0.132179
615,6150,0.030403,0.540787,0.932061,0.207348,0.027504,-0.132179
616,6160,0.030403,0.540787,0.932061,0.207348,0.027504,-0.132179
617,6170,0.24347,0.649152,0.797322,0.490799,0.461025,-0.026703
618,6180,0.24347,0.649152,0.797322,0.4939365,0.459423,-0.053873000000000004
619,6190,0.211754,0.7048,0.729007,0.497074,0.457821,-0.081043
620,6200,0.2161345,0.6886669999999999,0.7521905,0.418234,0.1931285,-0.335722
621,6210,0.18538,0.71063,0.722657,0.394802,0.139389,-0.369835
622,6220,0.18538,0.71063,0.722657,0.394802,0.139389,-0.369835
623,6230,0.129,0.673542,0.7566930000000001,0.2893925,-0.05026799999999999,-0.40388100000000005
624,6240,0.041392,0.5842245,0.8936145,0.17750749999999998,-0.293665,-0.25474549999999996
625,6250,0.035287,0.579829,0.911792,0.196667,-0.268631,-0.199337
626,6260,0.034799,0.57812,0.941585,0.221233,-0.229244,-0.13752
627,6270,0.1027635,0.5922685,0.9407305,0.3501415,-0.0524045,-0.046997
628,6280,0.170728,0.606417,0.939876,0.47905,0.124435,0.043526
629,6290,0.18086249999999998,0.629616,0.891295,0.505152,0.1606175,0.032377500000000003
630,6300,0.175368,0.660599,0.754861,0.554619,0.257549,-0.165291
631,6310,0.175368,0.660599,0.754861,0.554619,0.257549,-0.165291
632,6320,0.127291,0.64842,0.684806,0.554619,0.257549,-0.165291
633,6330,0.087028,0.648908,0.676533,0.316029,0.233116,-0.25795
634,6340,0.068957,0.646222,0.681906,0.252075,0.194664,-0.244064
635,6350,0.040293499999999996,0.6524335,0.7070285000000001,0.0763035,0.08017550000000001,-0.149803
636,6360,0.036264,0.654738,0.713622,0.058212,0.065823,-0.130043
637,6370,0.048474,0.672565,0.759501,0.058212,0.065823,-0.130043
638,6380,0.082144,0.6912465,0.7785489999999999,-0.043526,-0.0704955,0.028638999999999998
639,6390,0.122407,0.702114,0.788531,-0.046196,0.030708,0.036049
640,6400,0.122407,0.702114,0.788531,-0.046196,0.030708,0.036049
641,6410,0.122407,0.702114,0.788531,-0.046196,0.030708,0.036049
642,6420,0.116439,0.716873,0.764248,-0.013685000000000001,0.10901449999999999,-0.0022695000000000007
643,6430,0.110471,0.731632,0.739965,0.018826,0.187321,-0.040588
644,6440,0.110471,0.731632,0.739965,0.018826,0.187321,-0.040588
645,6450,0.085074,0.723329,0.69433,-0.070629,0.102005,0.013752
646,6460,0.085074,0.723329,0.69433,-0.070629,0.102005,0.013752
647,6470,0.086784,0.718201,0.620397,-0.444603,-0.167427,0.152206
648,6480,0.1071595,0.7208870000000001,0.6600495,-0.493603,-0.17704,0.156479
649,6490,0.147315,0.717224,0.787585,-0.549011,-0.149403,0.157547
650,6500,0.15171099999999998,0.7177125,0.7988029999999999,-0.5431365,-0.13765349999999998,0.1527405
651,6510,0.156107,0.718201,0.810021,-0.537262,-0.125904,0.147934
652,6520,0.166852,0.726992,0.796101,-0.365696,0.002937,0.051003
653,6530,0.16209,0.7267475,0.7864705,-0.3556155,0.0045395,0.041389499999999996
654,6540,0.150246,0.72284,0.719971,-0.345535,0.006142,0.031776
655,6550,0.150246,0.72284,0.719971,-0.36356,-0.010815,0.008411
656,6560,0.150246,0.72284,0.719971,-0.36356,-0.010815,0.008411
657,6570,0.150246,0.72284,0.719971,-0.36356,-0.010815,0.008411
658,6580,0.136082,0.719422,0.751931,-0.4669,-0.069427,0.012684
659,6590,0.1366925,0.7189335,0.7643854999999999,-0.469036,-0.041189,0.012684
660,6600,0.137303,0.712095,0.775619,-0.461559,0.02964,0.011616
661,6610,0.130221,0.702846,0.786608,-0.437126,0.156345,-0.00761
662,6620,0.12229999999999999,0.6908799999999999,0.791721,-0.420103,0.188322,-0.0102805
663,6630,0.104122,0.668658,0.805625,-0.353012,0.221367,0.011616
664,6640,0.1302215,0.674519,0.8124629999999999,-0.29006,0.231447,0.0328445
665,6650,0.132175,0.674275,0.816126,-0.26022,0.239391,0.028572
666,6660,0.1281455,0.6718325,0.811608,-0.26022,0.239391,0.028572
667,6670,0.099971,0.652327,0.795124,-0.183582,0.063686,-0.021496
668,6680,0.099971,0.652327,0.795124,-0.183582,0.063686,-0.021496
669,6690,0.0600585,0.6220455,0.7913545,-0.19953700000000002,-0.065756,-0.00013349999999999994
670,6700,0.038462,0.605684,0.796834,-0.214424,-0.133381,0.026436
671,6710,0.038462,0.605684,0.796834,-0.214424,-0.133381,0.026436
672,6720,0.043102,0.576166,0.810509,-0.241127,-0.124836,0.137253
673,6730,0.063859,0.570549,0.833953,-0.249672,0.06155,0.192661
674,6740,0.0789695,0.54297,0.897644,-0.242729,0.09833349999999999,0.17510399999999998
675,6750,0.078481,0.531508,0.921072,-0.235786,0.135117,0.157547
676,6760,0.058731,0.519786,0.931573,-0.21656,0.168095,0.131912
677,6770,-0.054044999999999996,0.4707465,0.9872050000000001,-0.18464999999999998,0.1510715,0.19746750000000002
678,6780,-0.072833,0.449516,1.01625,-0.15274,0.134048,0.263023
679,6790,0.0036935000000000023,0.4276605,0.9996595,-0.052605,-0.021496,0.399342
680,6800,0.053114,0.417282,0.983069,0.11315349999999999,-0.24099349999999997,0.5116935
681,6810,0.053114,0.417282,0.983069,0.139256,-0.283585,0.522842
682,6820,0.132541,0.417648,0.9460725,0.17383549999999998,-0.303879,0.44994350000000005
683,6830,0.15950999999999999,0.3904345,0.9421805,0.12269949999999999,-0.1360515,0.358887
684,6840,0.150734,0.336756,0.965731,-0.001469,0.255413,0.203342
685,6850,0.150734,0.336756,0.965731,-0.019559999999999998,0.3113555,0.1804445
686,6860,0.150734,0.336756,0.965731,-0.037651,0.367298,0.157547
687,6870,0.088371,0.3324825,1.009779,-0.02964,0.39980899999999997,0.1229
688,6880,-0.065752,0.280131,1.041891,0.254211,0.092392,0.245934
689,6890,-0.063065,0.260839,1.018448,0.369301,-0.046062,0.335388
690,6900,-0.045239,0.249362,0.891524,0.526981,-0.27504,0.514431
691,6910,-0.014744,0.255223,0.769269,0.387392,-0.1162915,0.698681
692,6920,0.141943,0.259374,0.74143,-0.008945,0.2458,0.790272
693,6930,0.17196450000000002,0.2719505,0.7697425,-0.142059,0.339594,0.7791235
694,6940,0.220027,0.28819,0.846621,-0.364628,0.494003,0.741272
695,6950,0.25275,0.266212,0.902513,-0.364628,0.494003,0.741272
696,6960,0.25275,0.266212,0.902513,-0.414696,0.479183,0.648613
697,6970,0.24151649999999997,0.270974,0.934122,-0.3166965,0.1361845,0.487194
698,6980,0.230283,0.275736,0.965731,-0.218697,-0.206814,0.325775
699,6990,0.165005,0.262808,0.958893,-0.1947975,-0.4167655,0.217161
700,7000,0.124849,0.24402,0.954742,-0.193195,-0.478516,0.160751
701,7010,0.102168,0.22082,0.956207,-0.213356,-0.433788,0.140457
702,7020,0.0363865,0.15674749999999998,0.981222,-0.352945,-0.0198935,0.166025
703,7030,0.043224,0.1090365,1.017471,-0.396671,0.10687849999999999,0.22410400000000003
704,7040,0.06044,0.07146,1.037984,-0.357285,0.100937,0.421772
705,7050,0.097529,0.072925,0.983557,-0.249672,-0.011883,0.519772
706,7060,0.097529,0.072925,0.983557,-0.249672,-0.011883,0.519772
707,7070,0.097529,0.072925,0.983557,-0.249672,-0.011883,0.519772
708,7080,0.2359,0.16615,0.924247,-0.243263,-0.475311,0.561295
709,7090,0.26909649999999996,0.192264,0.936564,-0.3471375,-0.64147,0.477114
710,7100,0.305223,0.197133,0.998668,-0.451012,-0.807629,0.392933
711,7110,0.305223,0.197133,0.998668,-0.562763,-0.707493,0.202274
712,7120,0.2281005,0.147102,1.061886,-0.5590915000000001,-0.46516450000000004,0.059013
713,7130,0.1368145,0.0892715,1.1262025000000002,-0.55542,-0.222836,-0.084248
714,7140,0.122651,0.081472,1.127301,-0.507355,-0.197334,-0.067291
715,7150,0.09020249999999999,0.0637675,1.0654265,-0.4130935,-0.24793600000000002,0.0312425
716,7160,0.090447,0.068529,1.051629,-0.34173,-0.28038,0.198536
717,7170,0.090447,0.068529,1.051629,-0.364628,-0.262222,0.267296
718,7180,0.15658,0.1210025,1.011488,-0.460491,-0.214291,0.300274
719,7190,0.2226065,0.1112345,1.0728745000000002,-0.505819,-0.14886850000000001,0.24913800000000003
720,7200,0.260809,0.097803,1.119731,-0.488262,-0.068359,0.168228
721,7210,0.253971,0.093896,1.139756,-0.488262,-0.068359,0.168228
722,7220,0.252994,0.045590000000000006,1.160971,-0.36629649999999997,-0.010347000000000002,0.09686449999999999
723,7230,0.267158,0.032174,1.157064,-0.244331,0.047665,0.025501
724,7240,0.2695845,0.043025499999999994,1.1065445,-0.15748,0.0737665,-0.0582125
725,7250,0.266669,0.05925,1.065793,-0.120697,0.102005,-0.10561
726,7260,0.255436,0.074634,1.039205,-0.128174,0.137253,-0.13752
727,7270,0.205649,0.076832,1.015762,-0.251808,0.180912,-0.229111
728,7280,0.186113,0.049482,1.01332,-0.34874,0.180912,-0.264359
729,7290,0.14389649999999998,0.03486,1.0748285000000002,-0.365763,0.179844,-0.267563
730,7300,0.077992,0.009951,1.180019,-0.367832,-0.022564,-0.255814
731,7310,0.0698265,-0.0090815,1.1980745,-0.367832,-0.022564,-0.255814
732,7320,0.0722685,-0.0338525,1.2172290000000001,-0.2107525,-0.1205635,-0.1620865
733,7330,0.082876,-0.039591,1.218328,-0.053673,-0.218563,-0.068359
734,7340,0.11717150000000001,-0.030067499999999997,1.2172290000000001,0.015087000000000001,-0.2377895,-0.0160885
735,7350,0.132419,-0.028602,1.214665,0.035915,-0.242062,-0.001202
736,7360,0.132419,-0.028602,1.214665,0.035915,-0.242062,-0.001202
737,7370,0.132419,-0.028602,1.214665,0.035915,-0.242062,-0.001202
738,7380,0.15305449999999998,-0.04301049999999999,1.1847805,0.158348,0.0541405,-0.12743949999999998
739,7390,0.143897,-0.047406,1.183926,0.163689,0.085049,-0.132179
740,7400,0.085074,-0.066912,1.162924,0.237255,0.249004,-0.093861
741,7410,0.085074,-0.066912,1.162924,0.237255,0.249004,-0.093861
742,7420,0.06714049999999999,-0.0493445,1.133269,0.237255,0.249004,-0.093861
743,7430,0.068713,-0.006899,1.065549,0.333118,0.222435,0.188389
744,7440,0.081411,0.001404,1.054804,0.335255,0.188389,0.229912
745,7450,0.113646,0.014835,1.026751,0.325642,0.072231,0.266228
746,7460,0.167798,0.037302,1.035542,0.325642,0.072231,0.266228
747,7470,0.167798,0.037302,1.035542,0.325642,0.072231,0.266228
748,7480,0.167798,0.037302,1.035542,0.325642,0.072231,0.266228
749,7490,0.167798,0.037302,1.035542,0.325642,0.072231,0.266228
750,7500,0.167798,0.037302,1.035542,0.325642,0.072231,0.266228
751,7510,0.167798,0.037302,1.035542,0.325642,0.072231,0.266228
752,7520,0.167798,0.037302,1.035542,0.325642,0.072231,0.266228
753,7530,0.167798,0.037302,1.035542,0.325642,0.072231,0.266228
754,7540,0.167798,0.037302,1.035542,0.325642,0.072231,0.266228
755,7550,0.167798,0.037302,1.035542,0.325642,0.072231,0.266228
756,7560,0.167798,0.037302,1.035542,0.325642,0.072231,0.266228
757,7570,0.167798,0.037302,1.035542,0.325642,0.072231,0.266228
758,7580,0.167798,0.037302,1.035542,0.325642,0.072231,0.266228
759,7590,0.167798,0.037302,1.035542,0.325642,0.072231,0.266228
760,7600,0.167798,0.037302,1.035542,0.325642,0.072231,0.266228
761,7610,0.167798,0.037302,1.035542,0.325642,0.072231,0.266228
762,7620,0.167798,0.037302,1.035542,0.325642,0.072231,0.266228
763,7630,0.167798,0.037302,1.035542,0.325642,0.072231,0.266228
764,7640,0.167798,0.037302,1.035542,0.325642,0.072231,0.266228
765,7650,0.167798,0.037302,1.035542,0.325642,0.072231,0.266228
766,7660,0.167798,0.037302,1.035542,0.325642,0.072231,0.266228
767,7670,0.167798,0.037302,1.035542,0.325642,0.072231,0.266228
768,7680,0.167798,0.037302,1.035542,0.325642,0.072231,0.266228
769,7690,0.167798,0.037302,1.035542,0.325642,0.072231,0.266228
770,7700,0.167798,0.037302,1.035542,0.325642,0.072231,0.266228
771,7710,0.167798,0.037302,1.035542,0.325642,0.072231,0.266228
772,7720,0.167798,0.037302,1.035542,0.325642,0.072231,0.266228
773,7730,0.167798,0.037302,1.035542,0.325642,0.072231,0.266228
774,7740,0.167798,0.037302,1.035542,0.325642,0.072231,0.266228
775,7750,0.167798,0.037302,1.035542,0.325642,0.072231,0.266228
776,7760,0.167798,0.037302,1.035542,0.325642,0.072231,0.266228
777,7770,0.167798,0.037302,1.035542,0.325642,0.072231,0.266228
778,7780,0.167798,0.037302,1.035542,0.325642,0.072231,0.266228
779,7790,0.167798,0.037302,1.035542,0.325642,0.072231,0.266228
780,7800,0.167798,0.037302,1.035542,0.325642,0.072231,0.266228
781,7810,0.167798,0.037302,1.035542,0.325642,0.072231,0.266228
782,7820,0.167798,0.037302,1.035542,0.325642,0.072231,0.266228
783,7830,0.167798,0.037302,1.035542,0.325642,0.072231,0.266228
784,7840,0.167798,0.037302,1.035542,0.325642,0.072231,0.266228
785,7850,0.167798,0.037302,1.035542,0.325642,0.072231,0.266228
786,7860,0.167798,0.037302,1.035542,0.325642,0.072231,0.266228
787,7870,0.167798,0.037302,1.035542,0.325642,0.072231,0.266228
788,7880,0.167798,0.037302,1.035542,0.325642,0.072231,0.266228
789,7890,0.167798,0.037302,1.035542,0.325642,0.072231,0.266228
790,7900,0.167798,0.037302,1.035542,0.325642,0.072231,0.266228
791,7910,0.167798,0.037302,1.035542,0.325642,0.072231,0.266228
792,7920,0.167798,0.037302,1.035542,0.325642,0.072231,0.266228
793,7930,0.167798,0.037302,1.035542,0.325642,0.072231,0.266228
794,7940,0.167798,0.037302,1.035542,0.325642,0.072231,0.266228
795,7950,0.167798,0.037302,1.035542,0.325642,0.072231,0.266228
796,7960,0.167798,0.037302,1.035542,0.325642,0.072231,0.266228
797,7970,0.167798,0.037302,1.035542,0.325642,0.072231,0.266228
798,7980,0.167798,0.037302,1.035542,0.325642,0.072231,0.266228
799,7990,0.167798,0.037302,1.035542,0.325642,0.072231,0.266228
800,8000,0.167798,0.037302,1.035542,0.325642,0.072231,0.266228
801,8010,0.167798,0.037302,1.035542,0.325642,0.072231,0.266228
802,8020,0.167798,0.037302,1.035542,0.325642,0.072231,0.266228
803,8030,0.167798,0.037302,1.035542,0.325642,0.072231,0.266228
804,8040,0.167798,0.037302,1.035542,0.325642,0.072231,0.266228
805,8050,0.167798,0.037302,1.035542,0.325642,0.072231,0.266228
806,8060,0.167798,0.037302,1.035542,0.325642,0.072231,0.266228
807,8070,0.167798,0.037302,1.035542,0.325642,0.072231,0.266228
808,8080,0.167798,0.037302,1.035542,0.325642,0.072231,0.266228
809,8090,0.167798,0.037302,1.035542,0.325642,0.072231,0.266228
810,8100,0.167798,0.037302,1.035542,0.325642,0.072231,0.266228
811,8110,0.167798,0.037302,1.035542,0.325642,0.072231,0.266228
812,8120,0.167798,0.037302,1.035542,0.325642,0.072231,0.266228
813,8130,0.167798,0.037302,1.035542,0.325642,0.072231,0.266228
814,8140,0.167798,0.037302,1.035542,0.325642,0.072231,0.266228
815,8150,0.167798,0.037302,1.035542,0.325642,0.072231,0.266228
816,8160,0.167798,0.037302,1.035542,0.325642,0.072231,0.266228
817,8170,0.167798,0.037302,1.035542,0.325642,0.072231,0.266228
818,8180,0.167798,0.037302,1.035542,0.325642,0.072231,0.266228
819,8190,0.167798,0.037302,1.035542,0.325642,0.072231,0.266228
820,8200,0.167798,0.037302,1.035542,0.325642,0.072231,0.266228
821,8210,0.167798,0.037302,1.035542,0.325642,0.072231,0.266228
822,8220,0.167798,0.037302,1.035542,0.325642,0.072231,0.266228
823,8230,0.167798,0.037302,1.035542,0.325642,0.072231,0.266228
824,8240,0.167798,0.037302,1.035542,0.325642,0.072231,0.266228
825,8250,0.167798,0.037302,1.035542,0.325642,0.072231,0.266228
826,8260,0.194172,0.048749,1.064328,0.325642,0.072231,0.266228
827,8270,0.194172,0.048749,1.064328,0.325642,0.072231,0.266228
828,8280,0.194172,0.048749,1.064328,0.325642,0.072231,0.266228
829,8290,0.194172,0.048749,1.064328,0.265961,-0.236721,0.26516
830,8300,0.097773,0.726992,0.779282,-0.259151,-0.366631,0.305614
831,8310,0.1559845,0.7351725,0.7863485,-0.19793500000000003,-0.268631,0.267763
832,8320,0.214196,0.743353,0.793415,-0.103741,-0.091858,0.171432
833,8330,0.198812,0.746528,0.750222,-0.103741,-0.091858,0.171432
834,8340,0.165386,0.757487,0.692376,-0.154877,-0.121632,0.108547
835,8350,0.15342,0.757242,0.688713,-0.172901,-0.152607,0.106411
836,8360,0.15342,0.757242,0.688713,-0.172901,-0.152607,0.106411
837,8370,0.1357155,0.7540830000000001,0.6939635,-0.2043435,-0.186653,0.1261045
838,8380,0.1407215,0.7381035,0.701778,-0.235786,-0.220699,0.145798
839,8390,0.154641,0.742377,0.70947,-0.261288,0.091324,0.244865
840,8400,0.154641,0.742377,0.70947,-0.248537,0.17977700000000002,0.25341
841,8410,0.154641,0.742377,0.70947,-0.235786,0.26823,0.261955
842,8420,0.20870149999999998,0.7557925000000001,0.701778,-0.186787,0.31723,0.243797
843,8430,0.211754,0.754831,0.700679,-0.1404575,0.23839,0.226774
844,8440,0.255436,0.736272,0.690667,0.012417,-0.054607,0.163956
845,8450,0.251773,0.735295,0.677999,0.061417,-0.163155,0.126572
846,8460,0.251773,0.735295,0.677999,0.061417,-0.163155,0.126572
847,8470,0.251773,0.735295,0.677999,0.061417,-0.163155,0.126572
848,8480,0.199544,0.727969,0.591337,0.012417,-0.54781,-0.009747
849,8490,0.199544,0.727969,0.591337,0.012417,-0.54781,-0.009747
850,8500,0.156839,0.631081,0.695307,-0.41256,-0.008678,0.062752
851,8510,0.156839,0.631081,0.695307,-0.41256,-0.008678,0.062752
852,8520,0.156839,0.631081,0.695307,-0.41256,-0.008678,0.062752
853,8530,0.24249349999999997,0.6170395,0.794529,-0.41256,-0.008678,0.062752
854,8540,0.26496,0.618138,0.80416,-0.41256,-0.008678,0.062752
855,8550,0.26763099999999995,0.6209465,0.8061134999999999,-0.365162,-0.11415449999999999,-0.025167499999999995
856,8560,0.228818,0.64671,0.870797,-0.317764,-0.219631,-0.113087
857,8570,0.228818,0.64671,0.870797,-0.317764,-0.219631,-0.113087
858,8580,0.129489,0.572503,0.932061,-0.30982,0.017890500000000004,-0.20734799999999998
859,8590,0.129489,0.572503,0.932061,-0.295467,0.219231,-0.190792
860,8600,0.052382,0.542985,0.88667,-0.278378,0.402412,-0.044861
861,8610,0.052382,0.542985,0.88667,-0.278378,0.402412,-0.044861
862,8620,0.092156,0.517832,0.827115,-0.325241,0.44714,0.200138
863,8630,0.147315,0.526623,0.854191,-0.325241,0.44714,0.200138
864,8640,0.147315,0.526623,0.854191,-0.457287,0.319366,0.254478
865,8650,0.272011,0.528821,0.982581,-0.494671,0.027504,0.137253
866,8660,0.272011,0.528821,0.982581,-0.494671,0.027504,0.137253
867,8670,0.23370200000000002,0.5289429999999999,1.0179595000000001,-0.381718,-0.2574825,-0.08751850000000001
868,8680,0.042858,0.464138,1.091922,-0.189991,-0.543537,-0.320835
869,8690,0.042858,0.464138,1.091922,-0.189991,-0.543537,-0.320835
870,8700,-0.064775,0.391427,0.946194,0.030575,-0.330448,-0.205746
871,8710,-0.064775,0.391427,0.946194,0.030575,-0.330448,-0.205746
872,8720,-0.08016,0.370669,0.880809,0.036383,-0.12804000000000001,-0.0853825
873,8730,-0.063798,0.368716,0.82858,-0.051537,0.274639,0.218296
874,8740,-0.063798,0.368716,0.82858,-0.051537,0.274639,0.218296
875,8750,0.0025795000000000054,0.359436,0.8274809999999999,-0.1527405,0.308218,0.3674315
876,8760,0.068957,0.350156,0.826382,-0.253944,0.341797,0.516567
877,8770,0.099726,0.347959,0.84833,-0.253944,0.341797,0.516567
878,8780,0.111799,0.34077,0.851871,-0.2976035,0.198469,0.5293175
879,8790,0.113646,0.319417,0.873239,-0.341263,0.055141,0.542068
880,8800,0.122651,0.267921,0.892745,-0.361424,-0.345402,0.436592
881,8810,0.122651,0.267921,0.892745,-0.3662305,-0.23939149999999998,0.4249095
882,8820,0.122651,0.267921,0.892745,-0.371037,-0.133381,0.413227
883,8830,0.06421,0.23875400000000002,0.9130134999999999,-0.38118399999999997,-0.0625515,0.4424665
884,8840,0.005769,0.209587,0.933282,-0.415764,0.114822,0.723114
885,8850,0.014301000000000001,0.12027,0.9266885,-0.41790000000000005,0.09406049999999999,0.7609655
886,8860,0.022589,0.115142,0.924735,-0.420036,0.073299,0.798817
887,8870,0.022589,0.115142,0.924735,-0.420036,0.073299,0.798817
888,8880,0.238586,0.135166,0.994028,-0.418968,-0.363426,1.008701
889,8890,0.449944,0.238403,0.987953,-0.350876,-0.804424,0.816975
890,8900,0.446525,0.242417,0.984534,-0.317764,-0.761833,0.515499
891,8910,0.443106,0.246431,0.981115,-0.317764,-0.761833,0.515499
892,8920,0.443106,0.246431,0.981115,-0.317764,-0.761833,0.515499
893,8930,0.205161,0.161265,1.036031,-0.469036,-0.26329,-0.092793
894,8940,0.205161,0.161265,1.036031,-0.469036,-0.26329,-0.092793
895,8950,0.205161,0.161265,1.036031,-0.469036,-0.26329,-0.092793
896,8960,0.145728,0.144797,1.048592,-0.47597900000000004,-0.04172300000000001,-0.10667850000000001
897,8970,0.060196,0.095117,1.049187,-0.482922,0.179844,-0.120564
898,8980,0.060196,0.095117,1.049187,-0.261288,-0.103607,0.313091
899,8990,0.178299,0.064622,0.960602,-0.242195,-0.066223,0.419636
900,9000,0.236388,0.087577,0.932794,-0.264492,-0.038586,0.450478
901,9010,0.275186,0.100978,0.936213,-0.342331,0.000801,0.457954
902,9020,0.379155,0.157847,0.998423,-0.342331,0.000801,0.457954
903,9030,0.3891675,0.166638,1.008802,-0.38705849999999997,-0.0625515,0.29279700000000003
904,9040,0.39918,0.175429,1.019181,-0.431786,-0.125904,0.12764
905,9050,0.39918,0.175429,1.019181,-0.431786,-0.125904,0.12764
906,9060,0.304979,0.080495,1.101904,-0.254879,-0.028973,-0.367699
907,9070,0.304979,0.080495,1.101904,-0.254879,-0.028973,-0.367699
908,9080,0.304979,0.080495,1.101904,-0.254879,-0.028973,-0.367699
909,9090,0.304979,0.080495,1.101904,-0.254879,-0.028973,-0.367699
910,9100,0.068957,0.0058,1.059443,-0.175037,0.258617,-0.284519
911,9110,0.059708,0.022161,1.048454,-0.189991,0.220299,-0.224838
912,9120,0.059708,0.022161,1.048454,-0.189991,0.220299,-0.224838
913,9130,0.059708,0.022161,1.048454,-0.189991,0.220299,-0.224838
914,9140,0.067751,0.047787,1.0510185,-0.2096845,0.1409245,-0.148201
915,9150,0.14756,0.077321,1.055048,-0.217628,-0.085449,-0.014019
916,9160,0.14756,0.077321,1.055048,-0.217628,-0.085449,-0.014019
917,9170,0.166104,0.0501075,1.0449285000000001,-0.1867865,-0.040722,-0.028906
918,9180,0.18696800000000002,0.019109,1.0385945,-0.155945,0.004005,-0.043793
919,9190,0.189288,0.015324,1.04238,-0.155945,0.004005,-0.043793
920,9200,0.1779475,0.0073875,1.0640985,-0.190525,-0.1019385,-0.080042
921,9210,0.166607,-0.000549,1.085817,-0.225105,-0.207882,-0.116291
922,9220,0.166607,-0.000549,1.085817,-0.225105,-0.207882,-0.116291
923,9230,0.107297,-0.058883,1.263475,-0.21122,-0.0737,-0.063019
924,9240,0.113646,-0.087425,1.294489,-0.168629,-0.017223,-0.040588
925,9250,0.113646,-0.087425,1.294489,-0.168629,-0.017223,-0.040588
926,9260,0.113646,-0.087425,1.294489,0.08812,0.183048,0.051003
927,9270,0.113646,-0.087425,1.294489,0.08812,0.183048,0.051003
928,9280,0.170484,-0.025672,1.174402,0.306416,0.120163,0.186253
929,9290,0.170484,-0.025672,1.174402,0.306416,0.120163,0.186253
930,9300,0.230039,0.047421,1.0587105,0.39266599999999996,-0.11155100000000001,0.187855
931,9310,0.233946,0.05461,1.048698,0.39053,-0.119495,0.177708
932,9320,0.250796,0.057296,1.005505,0.306416,-0.205746,0.107479
933,9330,0.244691,0.058761,1.020157,0.306416,-0.205746,0.107479
934,9340,0.102168,0.038523,1.190764,0.162621,-0.322971,0.004139
935,9350,0.102168,0.038523,1.190764,0.198803,-0.304947,0.004139
936,9360,0.153298,0.016667,1.1637944999999998,0.29787050000000004,-0.17230050000000002,0.096798
937,9370,0.204428,-0.005189,1.136825,0.396938,-0.039654,0.189457
938,9380,0.204428,-0.005189,1.136825,0.396938,-0.039654,0.189457
939,9390,0.234191,0.017766,1.109474,0.49921,0.008278,0.293865
940,9400,0.273232,0.090721,1.027972,0.53339,-0.027905,0.2705
941,9410,0.276896,0.148567,0.98136,0.491867,-0.132313,0.169296
942,9420,0.276896,0.148567,0.98136,0.464096,-0.163155,0.126572
943,9430,0.262625,0.15943400000000002,0.969394,0.44920899999999997,-0.1706315,0.10687849999999999
944,9440,0.206138,0.179092,0.95816,0.406618,-0.1716995,0.055809
945,9450,0.206138,0.179092,0.95816,0.378914,-0.165291,0.024433
946,9460,0.114379,0.133213,1.021623,0.296803,-0.147266,-0.035248
947,9470,0.114379,0.133213,1.021623,0.296803,-0.147266,-0.035248
948,9480,0.114379,0.133213,1.021623,0.296803,-0.147266,-0.035248
949,9490,0.114379,0.133213,1.021623,0.296803,-0.147266,-0.035248
950,9500,0.231993,0.166638,1.025041,0.687866,-0.291061,0.35141
951,9510,0.231993,0.166638,1.025041,0.733662,-0.293198,0.374775
952,9520,0.231993,0.166638,1.025041,0.733662,-0.293198,0.374775
953,9530,0.231993,0.166638,1.025041,0.733662,-0.293198,0.374775
954,9540,0.375248,0.32479,0.811486,0.586662,-0.083313,0.089321
955,9550,0.37769,0.321859,0.801474,0.586662,-0.083313,0.089321
956,9560,0.37769,0.321859,0.801474,0.586662,-0.083313,0.089321
957,9570,0.1404775,0.236678,0.958771,0.41349400000000003,-0.466833,-0.5237769999999999
958,9580,0.156595,0.245454,0.960847,0.431118,-0.493469,-0.521107
959,9590,0.156595,0.245454,0.960847,0.431118,-0.493469,-0.521107
960,9600,0.089226,0.247896,0.944485,0.514164,-0.447674,-0.441132
961,9610,0.090935,0.331872,0.907397,0.514164,-0.447674,-0.441132
962,9620,0.090935,0.331872,0.907397,0.514164,-0.447674,-0.441132
963,9630,0.090935,0.331872,0.907397,0.514164,-0.447674,-0.441132
964,9640,0.306932,0.386543,0.797078,0.483322,0.342731,-0.140724
965,9650,0.31303749999999997,0.38715350000000004,0.789401,0.472107,0.335321,-0.149803
966,9660,0.319143,0.387764,0.781724,0.460892,0.327911,-0.158882
967,9670,0.319387,0.407025,0.743384,0.460892,0.327911,-0.158882
968,9680,0.303269,0.448051,0.73096,0.394802,0.04446,-0.214291
969,9690,0.305467,0.488314,0.745826,0.329914,-0.120564,-0.206814
970,9700,0.346707,0.503424,0.812463,0.302143,-0.180244,-0.249405
971,9710,0.346707,0.503424,0.812463,0.302143,-0.180244,-0.249405
972,9720,0.346707,0.503424,0.812463,0.302143,-0.180244,-0.249405
973,9730,0.356719,0.450951,0.902757,0.37571,-0.022564,-0.359154
974,9740,0.356719,0.450951,0.902757,0.61964,0.417366,-0.467834
975,9750,0.356719,0.450951,0.902757,0.61964,0.417366,-0.467834
976,9760,0.33352,0.513192,0.727297,0.765572,0.605888,-0.532722
977,9770,0.33352,0.513192,0.727297,0.765572,0.605888,-0.532722
978,9780,0.329613,0.55492,0.650892,0.73473,0.570774,-0.58279
979,9790,0.329613,0.55492,0.650892,0.73473,0.570774,-0.58279
980,9800,0.252262,0.557607,0.577204,0.379982,0.23632,-0.816174
981,9810,0.211495,0.5520054999999999,0.6022195,0.3170965,0.138788,-0.8283905
982,9820,0.102901,0.551776,0.690911,0.254211,0.041256,-0.840607
983,9830,0.102901,0.551776,0.690911,0.254211,0.041256,-0.840607
984,9840,0.102901,0.551776,0.690911,0.254211,0.041256,-0.840607
985,9850,0.102901,0.551776,0.690911,0.254211,0.041256,-0.840607
986,9860,0.102901,0.551776,0.690911,0.254211,0.041256,-0.840607
987,9870,0.102901,0.551776,0.690911,0.254211,0.041256,-0.840607
988,9880,0.102901,0.551776,0.690911,0.254211,0.041256,-0.840607
989,9890,0.102901,0.551776,0.690911,0.254211,0.041256,-0.840607
990,9900,0.102901,0.551776,0.690911,0.254211,0.041256,-0.840607
991,9910,0.102901,0.551776,0.690911,0.254211,0.041256,-0.840607
992,9920,0.102901,0.551776,0.690911,0.254211,0.041256,-0.840607
993,9930,0.102901,0.551776,0.690911,0.254211,0.041256,-0.840607
994,9940,0.102901,0.551776,0.690911,0.254211,0.041256,-0.840607
995,9950,0.102901,0.551776,0.690911,0.254211,0.041256,-0.840607
996,9960,0.102901,0.551776,0.690911,0.254211,0.041256,-0.840607
997,9970,0.102901,0.551776,0.690911,0.254211,0.041256,-0.840607
998,9980,0.102901,0.551776,0.690911,0.254211,0.041256,-0.840607
999,9990,0.102901,0.551776,0.690911,0.254211,0.041256,-0.840607
