id,timestamp,acc_x,acc_y,acc_z,gyro_x,gyro_y,gyro_z
0,0,0.158304,0.191302,0.435627,0.20154,-1.4362145,0.2187635
1,10,0.377934,0.191547,0.643322,-0.08184450000000001,-1.834621,0.329046
2,20,0.651533,0.133701,0.91863,-0.611763,-2.230892,0.283184
3,30,0.6410325,0.1268635,0.947797,-0.5984784999999999,-2.1680070000000002,0.2022745
4,40,0.630532,0.120026,0.976964,-0.585194,-2.105122,0.121365
5,50,0.481919,0.19263,0.933511,-0.379047,-1.1533645000000001,-0.432053
6,60,0.458735,0.214471,0.91399,-0.369968,-0.997353,-0.482655
7,70,0.183183,0.466092,0.805381,-0.45208,-0.355015,-0.587063
8,80,0.110456,0.5434585,0.7902555,-0.45208,-0.355015,-0.587063
9,90,0.037729,0.620825,0.77513,-0.644808,-0.9253880000000001,-0.434256
10,100,-0.1685,0.91051,0.585476,-0.72258,-1.262512,-0.366631
11,110,-0.22915400000000002,1.0434025,0.5187325,-0.72258,-1.262512,-0.366631
12,120,-0.2518495,1.1756845,0.442343,-1.5045074999999999,-2.3677444999999997,0.19219350000000002
13,130,-0.213891,1.175074,0.432697,-2.333298,-2.831707,0.4175
14,140,0.249819,1.113107,0.711912,-2.8706935,-2.5414465,0.335989
15,150,0.249819,1.113107,0.711912,-3.408089,-2.251186,0.254478
16,160,0.249819,1.113107,0.711912,-3.408089,-2.251186,0.254478
17,170,0.249819,1.113107,0.711912,-3.408089,-2.251186,0.254478
18,180,-0.039622,0.701381,2.21434,-3.1727024999999998,0.04292499999999999,-0.766039
19,190,-0.18045049999999999,0.7152855,1.8606885,-1.48962,0.3209685,-1.124525
20,200,-0.321279,0.72919,1.507037,-0.598011,0.410957,-1.201763
21,210,-0.321279,0.72919,1.507037,-0.598011,0.410957,-1.201763
22,220,-0.321279,0.72919,1.507037,-0.598011,0.410957,-1.201763
23,230,-0.779129,0.877818,0.600617,-0.339127,0.87759,-0.607357
24,240,-0.841859,0.75651,0.570122,-1.149826,0.804024,0.402546
25,250,-0.808647,0.731632,0.651625,-1.23394,0.804024,0.615635
26,260,-0.808647,0.731632,0.651625,-1.23394,0.804024,0.615635
27,270,-0.808647,0.731632,0.651625,-1.23394,0.804024,0.615635
28,280,-0.507011,0.653899,1.079453,-1.019783,1.046886,1.320725
29,290,-0.345318,0.5583395,1.3418185,-0.26242250000000006,1.2705895,1.4368824999999998
30,300,-0.299301,0.502936,1.473612,0.494938,1.494293,1.55304
31,310,-0.25916,0.4387565,1.3357135,0.494938,1.494293,1.55304
32,320,-0.219019,0.374577,1.197815,2.200451,1.527405,1.592426
33,330,-0.216455,0.36773900000000004,1.1202195000000001,2.492313,1.645565,1.612721
34,340,-0.20571050000000002,0.342235,0.8020995,2.6643464999999997,1.9225405,1.690493
35,350,-0.205588,0.327232,0.528638,2.7597424999999998,2.3481175,1.83589
36,360,-0.205588,0.327232,0.528638,2.683105,2.496719,1.903515
37,370,-0.202902,0.321249,0.6620035,2.4183459999999997,2.444515,2.037697
38,380,-0.144324,0.2758575,0.99038,2.1839614999999997,2.1068569999999998,2.2374345
39,390,-0.088432,0.236449,1.185391,2.214336,1.821403,2.30299
40,400,-0.011675999999999999,0.1831215,1.2719,2.4001884999999996,1.4768025,2.3338985
41,410,0.075077,0.1356545,1.2760515,2.586041,1.132202,2.364807
42,420,0.238586,0.03486,1.366712,2.586041,1.132202,2.364807
43,430,0.2218735,0.027412,1.4249235,2.213736,0.842409,2.1123315
44,440,0.1995445,0.010806,1.5996655,1.5485005,0.5494114999999999,1.765528
45,450,0.235167,-0.124025,1.975143,1.25557,0.546207,1.6712
46,460,0.235167,-0.124025,1.975143,0.840073,0.565434,1.484814
47,470,0.235167,-0.124025,1.975143,0.840073,0.565434,1.484814
48,480,0.309619,-0.404949,2.070321,0.7479480000000001,0.8115005,1.2866784999999998
49,490,0.351103,-0.467923,1.722057,0.797482,0.839138,1.279202
50,500,0.3591615,-0.42532499999999995,1.5684230000000001,0.197735,0.014687,1.313381
51,510,0.49767,-0.316716,1.1963650000000001,0.197735,0.014687,1.313381
52,520,0.62812,-0.250705,0.977941,0.197735,0.014687,1.313381
53,530,0.875101,-0.251682,0.928642,-1.8406295,0.030708,0.1186275
54,540,0.774779,-0.219096,1.0001325,-2.037697,0.376377,-0.3474045
55,550,0.707425,-0.213861,1.008191,-2.07655,0.485592,-0.501881
56,560,0.707425,-0.213861,1.008191,-2.07655,0.485592,-0.501881
57,570,0.707425,-0.213861,1.008191,-2.07655,0.485592,-0.501881
58,580,0.319982,-0.187853,0.805503,-2.035027,0.874386,-1.520328
59,590,0.223949,-0.17126249999999998,0.6988475,-2.00038,0.6267165,-1.5639875
60,600,0.187578,-0.160167,0.65309,-1.965733,0.379047,-1.607647
61,610,0.166363,-0.14698,0.623572,-1.975346,0.208549,-1.554375
62,620,0.233702,-0.110624,0.608431,-2.038231,-0.514698,-1.242218
63,630,0.233702,-0.110624,0.608431,-2.038231,-0.514698,-1.242218
64,640,0.3427995,-0.10048950000000001,0.6448020000000001,-1.9216060000000001,-0.7639695,-1.2400820000000001
65,650,0.457758,-0.080709,0.693246,-1.804981,-1.013241,-1.237946
66,660,0.428698,0.009707,0.732181,-1.804981,-1.013241,-1.237946
67,670,0.428698,0.009707,0.732181,-1.6462325,-0.9078315,-1.3546375
68,680,0.4072235,0.036554,0.7156975,-1.1183835,-0.570641,-1.667862
69,690,0.271523,0.125887,0.543992,-0.997486,-0.529652,-1.722736
70,700,0.154886,0.182755,0.50202,-0.829124,-0.61697,-1.802578
71,710,0.154886,0.182755,0.50202,-0.829124,-0.61697,-1.802578
72,720,-0.023901,0.2963555,0.5685344999999999,-0.827522,-1.6743375,-1.6806125
73,730,-0.070391,0.329674,0.610629,-0.867443,-1.947575,-1.596966
74,740,-0.0539075,0.356277,0.690804,-0.9915445,-2.2340299999999997,-1.305571
75,750,-0.037424,0.38288,0.770979,-1.022987,-2.207394,-1.229401
76,760,-0.037424,0.41484,0.799276,-1.031532,-2.061462,-1.19215
77,770,-0.1402945,0.5665205,0.8463765,-1.032066,-1.5107155,-1.1729905
78,780,-0.421586,0.95813,1.014785,-1.0326,-0.959969,-1.153831
79,790,-0.699809,1.338354,1.5025344999999999,-1.0426805,-0.995684,-0.8858679999999999
80,800,-0.718353,1.355204,1.601757,-1.011238,-1.376534,-0.685062
81,810,-0.718353,1.355204,1.601757,-1.011238,-1.376534,-0.685062
82,820,-0.754709,1.379105,1.672026,-1.011238,-1.376534,-0.685062
83,830,-0.7502065,1.402304,1.9960225,-0.5260465,-1.704111,0.1345825
84,840,-0.691766,1.358134,2.152831,-0.477581,-1.563988,0.33432
85,850,-0.691766,1.358134,2.152831,-0.430717,-1.369057,0.452614
86,860,-0.635874,1.2731970000000001,2.236547,-0.430717,-1.369057,0.452614
87,870,-0.579982,1.18826,2.320263,-0.430717,-1.369057,0.452614
88,880,-0.4433045,1.0656245,2.1740459999999997,0.43539,0.13298,1.048088
89,890,-0.133121,0.908343,1.70768,1.064911,1.223793,1.232338
90,900,-0.043773,0.859289,1.557556,1.139545,1.482678,1.205769
91,910,0.021139,0.786303,1.3772125,1.1991595,1.824608,1.0763265
92,920,0.065324,0.623267,1.017471,1.276932,2.375355,0.747681
93,930,0.065324,0.623267,1.017471,1.279068,2.383833,0.708294
94,940,0.0028234999999999996,0.5434585000000001,0.895675,1.2737275000000001,2.324686,0.6273175
95,950,-0.077351,0.4526605,0.8169655,1.266251,2.257061,0.585728
96,960,-0.121399,0.404827,0.790485,1.188412,1.434746,0.868111
97,970,-0.121399,0.404827,0.790485,1.188412,1.434746,0.868111
98,980,-0.222072,0.1931185,0.849185,1.183672,1.156168,1.2515640000000001
99,990,-0.217798,0.121735,0.899338,1.18948,1.126862,1.337814
100,1000,0.031501999999999995,0.0009309999999999995,1.1801405,1.284342,1.103964,1.6195965
101,1010,0.137791,-0.021276,1.24519,1.379204,1.081066,1.901379
102,1020,0.137791,-0.021276,1.24519,2.49445,1.299362,2.196445
103,1030,0.238342,-0.048383,1.1981964999999999,2.49445,1.299362,2.196445
104,1040,0.208336,-0.057418,0.971836,2.932377,1.298294,2.0644
105,1050,0.19050899999999998,-0.06607199999999999,0.9540245,3.119297,1.3941575,1.9413665
106,1060,0.1208195,-0.1102425,0.9229035,3.2849215000000003,1.551304,1.8156625
107,1070,0.04066,-0.209465,0.886914,3.202877,1.710587,1.898174
108,1080,0.042369500000000004,-0.2282535,0.8893409999999999,3.1826495,1.7260075000000001,1.930685
109,1090,0.079213,-0.324637,0.956207,2.9249,1.316452,2.152786
110,1100,0.079213,-0.324637,0.956207,2.9249,1.316452,2.152786
111,1110,0.079213,-0.324637,0.956207,2.9249,1.316452,2.152786
112,1120,0.122666,-0.2802225,1.079331,2.5057315,0.44506999999999997,2.219343
113,1130,0.2409215,-0.2679055,1.322908,1.550703,-0.7565595,2.1479795
114,1140,0.315724,-0.300003,1.443361,1.014843,-1.086807,2.010059
115,1150,0.434071,-0.413252,1.519247,0.748482,-0.837536,1.824608
116,1160,0.434071,-0.413252,1.519247,0.748482,-0.837536,1.824608
117,1170,0.495335,-0.461818,1.495834,0.748482,-0.837536,1.824608
118,1180,0.5565990000000001,-0.424211,1.1860015,0.5061530000000001,-0.315561,1.4097115
119,1190,0.554157,-0.370273,1.076782,-0.544739,-0.40081,0.767975
120,1200,0.531935,-0.161143,0.93255,-0.544739,-0.40081,0.767975
121,1210,0.531935,-0.161143,0.93255,-0.544739,-0.40081,0.767975
122,1220,0.531935,-0.161143,0.93255,-0.544739,-0.40081,0.767975
123,1230,0.5018065,-0.1579685,1.0809335,-1.4517689999999999,-0.41943549999999996,0.180445
124,1240,0.361603,-0.089622,1.239818,-2.325821,0.312958,-0.898151
125,1250,0.361603,-0.089622,1.239818,-2.325821,0.312958,-0.898151
126,1260,0.361603,-0.089622,1.239818,-2.325821,0.312958,-0.898151
127,1270,0.361603,-0.089622,1.239818,-2.189503,0.691071,-1.383877
128,1280,0.258122,0.027534,0.975255,-2.225685,0.489864,-1.580944
129,1290,0.230283,0.118316,0.660904,-2.281094,0.139389,-1.653442
130,1300,0.230283,0.118316,0.660904,-2.281094,0.139389,-1.653442
131,1310,0.25945,0.1233225,0.6257545,-2.281094,0.139389,-1.653442
132,1320,0.288617,0.128329,0.590605,-2.281094,0.139389,-1.653442
133,1330,0.288617,0.128329,0.590605,-2.281094,0.139389,-1.653442
134,1340,0.269112,0.15223,0.630898,-2.004185,-0.884399,-1.923943
135,1350,0.269112,0.15223,0.630898,-2.004185,-0.884399,-1.923943
136,1360,0.269112,0.15223,0.630898,-2.004185,-0.884399,-1.923943
137,1370,0.216638,0.19347,0.691155,-2.004185,-0.884399,-1.923943
138,1380,0.172438,0.228391,0.76463,-1.40337,-1.25824,-1.707783
139,1390,0.143164,0.373111,0.814416,-0.969715,-1.442623,-1.526604
140,1400,0.143164,0.373111,0.814416,-0.969715,-1.442623,-1.526604
141,1410,0.143164,0.373111,0.814416,-0.969715,-1.442623,-1.526604
142,1420,0.194904,0.465603,0.717773,-0.576649,-1.648235,-1.4041705
143,1430,0.176345,0.608126,0.569389,-0.55542,-1.552372,-1.487217
144,1440,0.059463,0.759684,0.524242,-0.676785,-1.286011,-1.591625
145,1450,0.059463,0.759684,0.524242,-0.757694,-1.07399,-1.644897
146,1460,0.059463,0.759684,0.524242,-0.757694,-1.07399,-1.644897
147,1470,-0.10235150000000001,0.8873260000000001,0.6199085,-0.986805,-0.197334,-1.792965
148,1480,-0.5176185,1.1672745,0.9055805,-0.986805,-0.197334,-1.792965
149,1490,-0.734959,1.207552,1.130964,-1.003895,-0.155811,-1.724739
150,1500,-0.734959,1.207552,1.130964,-0.907898,-0.716038,-1.225128
151,1510,-0.734959,1.207552,1.130964,-0.907898,-0.716038,-1.225128
152,1520,-0.893843,1.278554,1.354257,-0.893545,-0.8481505,-0.9103680000000001
153,1530,-0.893843,1.278554,1.354257,-0.879192,-0.980263,-0.595608
154,1540,-0.893843,1.278554,1.354257,-0.879192,-0.980263,-0.595608
155,1550,-0.826718,1.12724,1.815526,-0.5777165,-0.8694459999999999,0.554819
156,1560,-0.826718,1.12724,1.815526,-0.327377,-0.606289,0.833931
157,1570,-0.451592,0.810937,1.746966,0.291595,0.401344,1.304836
158,1580,-0.3547045,0.7920265,1.6283444999999999,0.563164,1.065044,1.514721
159,1590,-0.032815,0.750191,1.292047,0.721912,1.519928,1.565857
160,1600,0.139745,0.723817,1.070677,0.811367,1.820335,1.418858
161,1610,0.19002,0.717468,0.984046,0.7298565,1.8336869999999998,1.0688495
162,1620,0.212243,0.704556,0.826871,0.521641,1.623268,0.601749
163,1630,0.212243,0.704556,0.826871,0.521641,1.623268,0.601749
164,1640,-0.184862,0.399211,1.25273,0.541935,1.066113,0.602818
165,1650,-0.184862,0.399211,1.25273,0.613232,0.940475,0.71043
166,1660,-0.042064,0.159556,1.349404,1.4505,1.08427,1.330337
167,1670,-0.042064,0.159556,1.349404,1.4505,1.08427,1.330337
168,1680,-0.042064,0.159556,1.349404,1.4505,1.08427,1.330337
169,1690,0.067507,0.12442149999999999,1.2290575000000001,1.9400309999999998,1.3100429999999998,1.4699270000000002
170,1700,0.1354715,0.11941550000000001,1.1278964999999999,2.367744,1.442089,1.530609
171,1710,0.143652,0.123445,1.104102,2.367744,1.442089,1.530609
172,1720,0.0987495,0.095499,1.062618,2.7959915,1.2109755,1.413984
173,1730,0.053847,0.067553,1.021134,2.886581,1.121521,1.377201
174,1740,-0.015965,-0.043743,1.106544,3.010082,1.07893,1.459312
175,1750,-0.0179185,-0.060700000000000004,1.1287509999999998,3.0404565000000003,1.0996915,1.4954945
176,1760,-0.019872,-0.077657,1.150958,3.070831,1.120453,1.531677
177,1770,-0.019872,-0.077657,1.150958,3.070831,1.120453,1.531677
178,1780,0.056639999999999996,-0.17393350000000002,1.1448684999999998,3.2024095,1.178999,1.6478345
179,1790,0.133152,-0.27021,1.138779,3.418102,1.186543,1.889629
180,1800,0.239563,-0.215326,1.041159,3.245468,1.020317,1.925812
181,1810,0.254948,-0.139165,1.020401,2.698994,0.552616,1.835289
182,1820,0.254948,-0.139165,1.020401,2.698994,0.552616,1.835289
183,1830,0.22833,-0.007387,1.238108,1.472931,-0.451946,1.477337
184,1840,0.2864195,-0.1128065,1.345481,1.472931,-0.451946,1.477337
185,1850,0.344509,-0.218226,1.452854,1.472931,-0.451946,1.477337
186,1860,0.374027,-0.262182,1.444582,0.567436,-0.668106,1.169586
187,1870,0.4660455,-0.203604,1.1740355,0.011883000000000005,-0.064087,0.782795
188,1880,0.503149,-0.151375,1.050896,-0.148468,-0.012951,0.691204
189,1890,0.587583,-0.116454,0.924979,-0.830193,-0.072632,0.277843
190,1900,0.63273,-0.095728,0.843935,-1.338348,-0.146198,-0.147133
191,1910,0.63273,-0.095728,0.843935,-2.014732,-0.0247,-0.897083
192,1920,0.526089,-0.1093875,0.8296635,-2.1633335000000002,0.0829125,-1.1431499999999999
193,1930,0.4971665,-0.1202545,0.8386994999999999,-2.311935,0.190525,-1.389217
194,1940,0.246401,-0.188952,0.85761,-2.509003,0.588932,-2.035828
195,1950,0.2213855,-0.1929815,0.8474755,-2.509003,0.588932,-2.035828
196,1960,0.19637,-0.197011,0.837341,-2.509003,0.588932,-2.035828
197,1970,0.020147,-0.170637,0.674336,-2.449455,0.655956,-2.174282
198,1980,0.07091,-0.197011,0.73267,-2.407799,0.483456,-2.085895
199,1990,0.07091,-0.197011,0.73267,-2.407799,0.483456,-2.085895
200,2000,0.073108,-0.09353,0.601105,-2.318344,-0.287857,-1.7206
201,2010,0.1285115,-0.050947,0.6051345,-2.318344,-0.287857,-1.7206
202,2020,0.20245950000000001,0.0051895,0.6194205,-2.176151,-0.7928085,-1.5693285
203,2030,0.221004,0.018743,0.629677,-2.033958,-1.29776,-1.418057
204,2040,0.2372435,0.0391185,0.6704285000000001,-1.920471,-1.5294075,-1.3898185
205,2050,0.246401,0.073169,0.73267,-1.806984,-1.761055,-1.36158
206,2060,0.246401,0.073169,0.73267,-1.806984,-1.761055,-1.36158
207,2070,0.225643,0.129794,0.821987,-1.400166,-1.793098,-1.210308
208,2080,0.225643,0.129794,0.821987,-1.400166,-1.793098,-1.210308
209,2090,0.245668,0.242554,0.931084,-1.122122,-1.8335534999999998,-1.1362075
210,2100,0.245668,0.242554,0.931084,-0.952759,-1.846371,-1.097355
211,2110,0.245668,0.242554,0.931084,-0.952759,-1.846371,-1.097355
212,2120,0.257863,0.328819,0.854206,-0.715704,-1.5635205,-1.3908865000000001
213,2130,0.236022,0.4377795,0.7598675,-0.7774544999999999,-1.2599084999999999,-1.598568
214,2140,-0.149696,0.658401,0.73267,-1.143417,-0.232449,-1.988964
215,2150,-0.149696,0.658401,0.73267,-1.143417,-0.232449,-1.988964
216,2160,-0.149696,0.658401,0.73267,-1.143417,-0.232449,-1.988964
217,2170,-0.149696,0.658401,0.73267,-1.143417,-0.232449,-1.988964
218,2180,-0.7760765000000001,1.112237,1.307645,-1.571598,-0.7091615,-1.4707279999999998
219,2190,-0.7755879999999999,1.1288274999999999,1.5506115,-1.670666,-1.964531,-0.434723
220,2200,-0.775222,1.145555,1.888268,-1.615257,-2.041302,-0.219631
221,2210,-0.775222,1.145555,1.888268,-1.615257,-2.041302,-0.219631
222,2220,-0.690163,1.074538,2.0943750000000003,-1.4091775,-1.9874955,0.087719
223,2230,-0.461604,0.950804,2.240195,-0.476513,-0.846081,0.859566
224,2240,-0.285168,0.996683,1.910735,0.132847,0.462093,1.117382
225,2250,-0.285168,0.996683,1.910735,0.132847,0.462093,1.117382
226,2260,-0.15679349999999997,1.011442,1.741838,0.132847,0.462093,1.117382
227,2270,0.0005035000000000005,1.0140064999999998,1.5633105,0.23612,1.2860775,1.0996915
228,2280,0.122895,0.934686,1.572453,0.291595,1.527405,0.925522
229,2290,0.123139,0.89247,1.593454,0.366096,1.564655,0.831795
230,2300,0.077015,0.80996,1.589791,0.606823,1.596565,0.651817
231,2310,0.077015,0.80996,1.589791,0.606823,1.596565,0.651817
232,2320,0.077015,0.80996,1.589791,0.606823,1.596565,0.651817
233,2330,-0.049390500000000004,0.4766995,1.2869030000000001,1.5954305,1.8272780000000002,0.691805
234,2340,-0.06917,0.335535,1.044547,1.966133,1.729813,0.860634
235,2350,-0.06917,0.335535,1.044547,2.026882,1.7026425,0.902691
236,2360,-0.06917,0.335535,1.044547,2.087631,1.675472,0.944748
237,2370,-0.015476,0.159068,0.8791,2.375221,1.852245,1.324997
238,2380,-0.015476,0.159068,0.8791,2.432699,1.859188,1.394825
239,2390,-0.013767,0.108548,0.974766,2.721424,1.674404,1.604176
240,2400,0.0024575000000000005,0.047055,1.0586039999999999,2.888117,1.530075,1.662188
241,2410,0.018804,-0.04836699999999999,1.1401219999999999,3.2220364999999997,1.266918,1.767664
242,2420,0.018926,-0.082296,1.137802,3.389263,1.14809,1.815128
243,2430,0.0185745,-0.162105,1.0875115,3.695612,1.1332035,1.9631954999999999
244,2440,0.126802,-0.268745,1.020157,3.852692,1.780949,2.154923
245,2450,0.126802,-0.268745,1.020157,3.852692,1.780949,2.154923
246,2460,0.150963,-0.310122,0.9693935,3.852692,1.780949,2.154923
247,2470,0.173903,-0.358215,0.8867769999999999,3.8276579999999996,1.9641305,2.188969
248,2480,0.176833,-0.208,0.781235,3.322239,1.574268,2.354126
249,2490,0.176833,-0.208,0.781235,2.7038005,0.587263,2.3125365
250,2500,0.197102,-0.15284,0.762188,2.555199,0.382252,2.291241
251,2510,0.197102,-0.15284,0.762188,2.555199,0.382252,2.291241
252,2520,0.298141,-0.20226100000000002,0.90265,1.667328,-0.294199,2.0670034999999998
253,2530,0.440542,-0.315739,1.0881370000000001,0.532322,-0.9829330000000001,1.755915
254,2540,0.553669,-0.436909,1.174402,0.015621,-0.845013,1.467857
255,2550,0.5690385,-0.4322695,1.1729365,-0.038185000000000004,-0.8273889999999999,1.4039039999999998
256,2560,0.584408,-0.42763,1.171471,-0.091991,-0.809765,1.339951
257,2570,0.6403000000000001,-0.392129,1.0851915,-0.5004785,-0.727787,0.9053614999999999
258,2580,0.696192,-0.356628,0.998912,-0.908966,-0.645809,0.470772
259,2590,0.696192,-0.356628,0.998912,-0.908966,-0.645809,0.470772
260,2600,0.848727,-0.382238,0.744605,-2.273617,-0.079041,-1.067581
261,2610,0.848727,-0.382238,0.744605,-2.273617,-0.079041,-1.067581
262,2620,0.454828,-0.426164,0.860052,-2.71141,0.208549,-2.035828
263,2630,0.454828,-0.426164,0.860052,-2.870226,0.2783775,-2.652664
264,2640,0.24237150000000002,-0.4372755,0.886777,-2.9010680000000004,0.214958,-2.836914
265,2650,-0.038889,-0.441793,0.910327,-2.885113,0.069027,-2.872028
266,2660,-0.038889,-0.441793,0.910327,-2.885113,0.069027,-2.872028
267,2670,-0.1087005,-0.358688,0.859197,-2.7881815000000003,-0.244198,-2.5439835
268,2680,-0.178512,-0.275583,0.808067,-2.69125,-0.557423,-2.215939
269,2690,-0.10369450000000001,-0.180527,0.802084,-2.639513,-0.956297,-1.8681335
270,2700,0.026252,-0.115233,0.83615,-2.572956,-1.400032,-1.566124
271,2710,0.026252,-0.115233,0.83615,-2.572956,-1.400032,-1.566124
272,2720,0.026252,-0.115233,0.83615,-2.572956,-1.400032,-1.566124
273,2730,0.188799,-0.057418,0.858587,-2.15332,-2.144642,-1.456375
274,2740,0.225888,0.123689,0.954742,-1.983891,-2.229824,-1.481876
275,2750,0.2244225,0.1278405,0.966097,-1.951914,-2.196779,-1.4850805
276,2760,0.222957,0.131992,0.977452,-1.919937,-2.163734,-1.488285
277,2770,0.222957,0.131992,0.977452,-1.919937,-2.163734,-1.488285
278,2780,0.204428,0.170545,1.044791,-1.657848,-1.837826,-1.485081
279,2790,0.154153,0.255467,1.084841,-1.401234,-1.744099,-1.487217
280,2800,0.126207,0.3097715,1.0483475,-1.326666,-1.6993045,-1.4930915
281,2810,0.098261,0.364076,1.011854,-1.252098,-1.65451,-1.498966
282,2820,0.098261,0.364076,1.011854,-1.252098,-1.65451,-1.498966
283,2830,-0.22659,0.84195,0.928642,-1.267986,-1.057968,-1.612988
284,2840,0.0087,0.517588,0.931573,-1.529007,-0.632992,-1.754646
285,2850,-0.6299975,1.1948539999999999,1.187589,-1.4975645,-1.1043645,-1.5671249999999999
286,2860,-0.9716985,1.3054165,1.7002165,-1.563053,-2.182961,-0.923786
287,2870,-1.002453,1.296625,1.813328,-1.353302,-2.573891,-0.311222
288,2880,-1.002453,1.296625,1.813328,-1.353302,-2.573891,-0.311222
289,2890,-0.8663855,1.27857,2.0486174999999998,-0.806227,-2.2271535,0.7353974999999999
290,2900,-0.949735,1.291009,1.98833,-0.719376,-2.174416,0.905361
291,2910,-0.601334,1.2636735,2.074732,-0.719376,-2.174416,0.905361
292,2920,-0.134693,1.2443965000000001,2.1285480000000003,-0.20648,-1.1693194999999998,1.192951
293,2930,-0.016453,1.252455,2.095962,0.306416,-0.164223,1.480541
294,2940,0.065813,1.248548,2.04935,0.460892,0.066891,1.378269
295,2950,0.197346,0.938105,1.563173,1.129932,0.99575,0.499477
296,2960,0.197346,0.938105,1.563173,1.129932,0.99575,0.499477
297,2970,0.197346,0.938105,1.563173,1.168251,1.173725,0.377979
298,2980,0.006502,0.698695,1.402579,1.2747955000000002,2.1111965,0.176706
299,2990,-0.122376,0.510506,1.38698,1.33234,2.433968,0.211887
300,3000,-0.122376,0.510506,1.38698,1.33234,2.433968,0.211887
301,3010,-0.122376,0.510506,1.38698,1.33234,2.433968,0.211887
302,3020,-0.186083,0.194446,1.250776,1.977882,2.755604,1.021519
303,3030,-0.1641045,0.175536,1.2385815,2.118473,2.564945,1.197224
304,3040,0.067492,0.093896,1.108009,2.575493,1.803246,1.586018
305,3050,0.1254595,0.0637675,1.027712,2.575493,1.803246,1.586018
306,3060,0.183427,0.033639,0.947415,2.575493,1.803246,1.586018
307,3070,0.165631,-0.028114,0.971103,2.927036,1.339817,1.608448
308,3080,0.16086899999999998,-0.04678,0.9886705,3.0010700000000003,1.450634,1.572199
309,3090,0.15049,-0.172102,1.12779,3.259354,2.008858,1.560516
310,3100,0.15049,-0.172102,1.12779,3.259354,2.008858,1.560516
311,3110,0.08483,-0.237518,1.1539044999999999,3.259354,2.008858,1.560516
312,3120,0.01917,-0.302934,1.180019,3.259354,2.008858,1.560516
313,3130,0.040782,-0.30855,1.018936,3.9858719999999996,1.9113924999999998,2.133026
314,3140,0.088249,-0.292921,0.87652,3.7866685,1.628609,2.3220824999999996
315,3150,0.115569,-0.27949,0.840027,3.60342,1.475201,2.374287
316,3160,0.115569,-0.27949,0.840027,3.60342,1.475201,2.374287
317,3170,0.142431,-0.264624,0.840516,3.60342,1.475201,2.374287
318,3180,0.243348,-0.19371349999999998,1.0145404999999998,2.351723,0.391865,2.382832
319,3190,0.353056,-0.207023,1.190519,1.448364,-0.44981,2.2369
320,3200,0.353056,-0.207023,1.190519,1.448364,-0.44981,2.2369
321,3210,0.468503,-0.288526,1.340612,0.964775,-0.821514,2.03022
322,3220,0.468503,-0.288526,1.340612,0.964775,-0.821514,2.03022
323,3230,0.468503,-0.288526,1.340612,0.964775,-0.821514,2.03022
324,3240,0.6841185,-0.344418,1.0205235,0.328779,-0.557356,1.363449
325,3250,0.767224,-0.256077,0.751931,-0.747147,0.066891,0.307751
326,3260,0.767224,-0.256077,0.751931,-0.747147,0.066891,0.307751
327,3270,0.7830820000000001,-0.26644049999999997,0.704586,-1.146555,0.172834,-0.078974
328,3280,0.784532,-0.269966,0.689934,-1.277599,0.198936,-0.214291
329,3290,0.5700149999999999,-0.30377299999999996,0.6585845,-1.614256,0.2756405,-0.647278
330,3300,0.355498,-0.33758,0.627235,-2.535706,0.375843,-2.245712
331,3310,0.355498,-0.33758,0.627235,-2.535706,0.375843,-2.245712
332,3320,0.31827249999999996,-0.3455165,0.6301654999999999,-2.5687505,0.3433325,-2.3133369999999998
333,3330,0.053847,-0.389565,0.662614,-2.6720905000000004,0.175505,-2.463541
334,3340,-0.037424,-0.339778,0.666521,-2.707138,-0.151539,-2.375622
335,3350,-0.037424,-0.339778,0.666521,-2.707138,-0.151539,-2.375622
336,3360,-0.013034,-0.216547,0.696283,-2.707138,-0.151539,-2.375622
337,3370,0.083365,-0.119385,0.722413,-2.621956,-0.558491,-2.098713
338,3380,0.1242535,-0.08705850000000001,0.7097145,-2.496786,-0.9137059999999999,-1.996975
339,3390,0.179535,-0.023001,0.6734655,-2.29598,-1.347227,-1.9159985000000002
340,3400,0.193928,0.00873,0.649915,-2.177753,-1.465988,-1.954918
341,3410,0.193928,0.00873,0.649915,-2.177753,-1.465988,-1.954918
342,3420,0.187823,0.060715,0.65773,-2.145843,-1.453304,-1.963463
343,3430,0.143164,0.127596,0.789264,-2.105255,-1.335011,-1.883488
344,3440,0.127779,0.170545,0.912525,-2.026482,-1.299896,-1.797237
345,3450,0.124604,0.221553,1.034077,-1.970005,-1.291351,-1.755714
346,3460,0.124604,0.221553,1.034077,-1.970005,-1.291351,-1.755714
347,3470,0.1863725,0.33223800000000003,1.153782,-1.540222,-1.2039659999999999,-1.6459655
348,3480,0.209068,0.374821,1.170006,-1.405506,-1.189079,-1.644897
349,3490,0.15281,0.47940099999999997,1.078125,-1.2302015,-1.052694,-1.813192
350,3500,0.0559075,0.6141245,0.952315,-1.0517595,-0.8753205,-2.026281
351,3510,-0.1350745,0.7837384999999999,0.8671340000000001,-1.1460875,-0.7118325,-2.126417
352,3520,-0.285412,0.923209,0.815882,-1.243553,-0.589333,-2.181759
353,3530,-0.6827145,1.2315915,1.083482,-1.6770745,-0.9722520000000001,-1.957054
354,3540,-0.9028635,1.3082254999999998,1.4309064999999999,-1.8736075,-1.53368,-1.582613
355,3550,-1.066129,1.291741,1.885826,-1.845436,-2.12862,-1.048355
356,3560,-1.1108025000000001,1.2640395,2.145139,-1.460314,-2.323017,-0.49386949999999996
357,3570,-0.986091,1.216832,2.445691,-1.075192,-2.517414,0.060616
358,3580,-0.8682175000000001,1.2370855,2.3799245,-0.4621605,-2.0545865,0.689669
359,3590,-0.750344,1.257339,2.314158,0.150871,-1.591759,1.318722
360,3600,-0.283214,1.274891,2.00054,0.605755,-0.517902,1.716061
361,3610,-0.283214,1.274891,2.00054,0.605755,-0.517902,1.716061
362,3620,0.176101,1.175318,1.527306,0.758629,-0.0710295,1.5993694999999999
363,3630,0.226132,1.06622,1.295954,0.9498884999999999,0.6607625,0.9234525
364,3640,0.176101,0.911487,1.02089,0.988274,0.945682,0.364227
365,3650,0.138524,0.847567,0.991341,0.988274,0.945682,0.364227
366,3660,0.061035500000000006,0.743842,1.0207525,0.988274,0.945682,0.364227
367,3670,-0.1264055,0.55982,1.111428,0.7996845,1.5902230000000002,0.18792150000000002
368,3680,-0.236358,0.479523,1.172692,0.635662,1.685085,-0.027771
369,3690,-0.360565,0.320883,1.272266,0.800686,2.346516,0.4175
370,3700,-0.360565,0.320883,1.272266,0.800686,2.346516,0.4175
371,3710,-0.360565,0.320883,1.272266,0.800686,2.346516,0.4175
372,3720,-0.30369650000000004,0.2474235,1.333164,1.261978,1.9167329999999998,0.9682465
373,3730,-0.18252649999999998,0.156885,1.3789215,1.72327,1.48695,1.518993
374,3740,-0.118225,0.139806,1.363781,2.147179,1.355839,1.659584
375,3750,0.09922249999999999,-0.007738499999999999,1.0932505,2.5957205,1.5076445,1.662722
376,3760,0.1307095,-0.06912499999999999,1.0006365,2.7799705,1.7979715,1.624937
377,3770,0.118255,-0.190906,0.952544,3.045196,2.486038,1.548767
378,3780,0.118255,-0.190906,0.952544,3.045196,2.486038,1.548767
379,3790,0.118255,-0.190906,0.952544,3.045196,2.486038,1.548767
380,3800,0.098612,-0.21982849999999998,0.950468,3.045196,2.486038,1.548767
381,3810,0.067751,-0.25229199999999996,0.9452175,3.1911945,2.4993895000000004,1.61479
382,3820,0.056533,-0.255833,0.942043,3.337193,2.512741,1.680813
383,3830,0.067507,-0.2432565,0.85993,3.304682,1.9907665,1.9071865
384,3840,0.14145449999999998,-0.227017,0.773299,2.964287,1.1848735000000001,2.200184
385,3850,0.204428,-0.223354,0.768781,2.656403,0.900955,2.266808
386,3860,0.204428,-0.223354,0.768781,2.656403,0.900955,2.266808
387,3870,0.204428,-0.223354,0.768781,2.656403,0.900955,2.266808
388,3880,0.1966135,-0.054839,1.369154,1.314716,-0.35388,2.0878315
389,3890,0.326682,-0.341487,1.86458,1.029797,-1.186943,1.649971
390,3900,0.377202,-0.418625,1.763053,1.104298,-1.191215,1.59029
391,3910,0.43724549999999995,-0.413741,1.5224215,1.091013,-1.0031599999999998,1.4784715
392,3920,0.517313,-0.336359,1.142686,0.898685,-0.716038,1.256905
393,3930,0.5484185,-0.269127,1.0262625,0.09499549999999995,-0.6942085,0.8345319999999999
394,3940,0.690331,-0.126222,0.745338,-0.708694,-0.672379,0.412159
395,3950,0.70596,-0.11914,0.74314,-0.708694,-0.672379,0.412159
396,3960,0.70596,-0.11914,0.74314,-0.708694,-0.672379,0.412159
397,3970,0.563437,-0.147956,0.817835,-2.029152,-0.1046755,-0.9732535
398,3980,0.563437,-0.147956,0.817835,-2.183094,0.095596,-1.250763
399,3990,0.30449,-0.14698,0.734135,-2.41848,0.750752,-2.117939
400,4000,0.30449,-0.14698,0.734135,-2.41848,0.750752,-2.117939
401,4010,0.30449,-0.14698,0.734135,-2.41848,0.750752,-2.117939
402,4020,0.044079,-0.136235,0.674336,-2.548523,0.87225,-2.549324
403,4030,-0.029991,-0.148567,0.659195,-2.5287629999999996,0.7438754999999999,-2.5242899999999997
404,4040,-0.104061,-0.160899,0.644054,-2.448387,0.26289,-2.304325
405,4050,-0.12481800000000001,-0.172346,0.613926,-2.448387,0.26289,-2.304325
406,4060,-0.113585,-0.170148,0.61356,-2.350855,-0.4450035,-1.920271
407,4070,0.061417,-0.062791,0.595244,-2.237434,-1.082535,-1.570263
408,4080,0.061417,-0.062791,0.595244,-2.237434,-1.082535,-1.570263
409,4090,0.195149,0.10171,0.618199,-2.025413,-1.264648,-1.599102
410,4100,0.195149,0.10171,0.618199,-2.025413,-1.264648,-1.599102
411,4110,0.183671,0.154428,0.698725,-1.9854924999999999,-1.1235235000000001,-1.640625
412,4120,0.183671,0.154428,0.698725,-1.685619,-0.740604,-1.721668
413,4130,0.094598,0.233519,0.841004,-1.566258,-0.76931,-1.7206
414,4140,0.016728,0.312335,0.884716,-1.30003,-1.151829,-1.619396
415,4150,0.016728,0.312335,0.884716,-1.16785,-1.151829,-1.619396
416,4160,0.0321125,0.358703,0.8936145,-1.16785,-1.151829,-1.619396
417,4170,0.047497,0.405071,0.902513,-1.029396,-1.347828,-1.541624
418,4180,0.129,0.563956,0.821498,-0.890942,-1.543827,-1.463852
419,4190,0.129,0.563956,0.821498,-0.890942,-1.543827,-1.463852
420,4200,0.129,0.563956,0.821498,-0.882397,-1.4011,-1.498966
421,4210,-0.112486,0.853046,1.0122355,-1.4112475,0.177107,-2.2025870000000003
422,4220,-0.016942,0.796803,0.937189,-1.458645,0.243664,-2.220211
423,4230,-0.016942,0.796803,0.937189,-1.4453605,0.18031149999999999,-2.183962
424,4240,-0.8068305,1.082826,1.74953,-1.231804,-0.202675,-1.892033
425,4250,-0.940211,1.069395,1.894373,-1.092281,-0.34647,-1.710987
426,4260,-1.013182,1.0052155,1.9494099999999999,-1.092281,-0.34647,-1.710987
427,4270,-1.088839,0.991067,1.979294,-0.676785,-0.507355,-0.986538
428,4280,-1.088839,0.991067,1.979294,-0.261288,-0.130177,0.087185
429,4290,-0.938746,0.870003,1.963208,-0.029106,0.139389,0.562363
430,4300,-0.866493,0.856847,1.916565,0.093327,0.2458,0.769043
431,4310,-0.72861,0.8469565,1.803087,0.215893,0.3869915,0.9969520000000001
432,4320,-0.590727,0.837066,1.689609,0.37570950000000003,0.637331,1.295223
433,4330,-0.3458065,0.7810524999999999,1.4991154999999998,0.43105099999999996,0.7992170000000001,1.3767335
434,4340,-0.389626,0.793385,1.536341,0.449142,0.851955,1.387882
435,4350,-0.22097299999999997,0.7185825,1.3811195,0.4757785,0.9164425,1.362314
436,4360,-0.05232,0.64378,1.225898,0.536594,1.022453,1.23127
437,4370,0.0177195,0.496846,1.0851915,0.6484125000000001,1.130533,0.9558964999999999
438,4380,-0.026084,0.41838050000000004,1.0500565000000002,0.680389,1.157703,0.887203
439,4390,-0.123841,0.283306,1.030414,0.770912,1.187611,0.829658
440,4400,-0.137135,0.26024400000000003,1.0300475,0.8635710000000001,1.21418,0.902624
441,4410,-0.15763300000000002,0.18348799999999998,1.04444,1.101093,1.1944195,1.1513615
442,4420,-0.132633,0.097559,1.058955,1.521931,1.014976,1.557312
443,4430,-0.0980935,0.087318,1.045417,1.521931,1.014976,1.557312
444,4440,-0.023779,0.066576,1.012343,1.952248,0.946751,1.768265
445,4450,0.018941,0.0501075,0.9885485,2.091303,0.9803295000000001,1.7953685
446,4460,0.1011915,0.007036000000000001,0.930581,2.230358,1.013908,1.822472
447,4470,0.140233,-0.034219,0.846865,2.89072,1.201363,1.667061
448,4480,0.098994,-0.046673,0.792438,2.89072,1.201363,1.667061
449,4490,0.0719025,-0.049115,0.784883,3.0116845,1.2482265,1.608448
450,4500,0.020147,-0.054976,0.777817,3.132649,1.29509,1.549835
451,4510,0.020147,-0.054976,0.777817,3.132649,1.29509,1.549835
452,4520,-0.019872,-0.081564,0.91863,3.0931955,1.388884,1.5983010000000002
453,4530,-0.019872,-0.081564,0.91863,2.9739,1.623268,1.72554
454,4540,-0.0642865,-0.09890199999999999,1.0520105,2.839117,1.4645195,1.782551
455,4550,-0.097712,-0.110135,1.129499,2.606335,1.067181,1.880016
456,4560,-0.109922,-0.106961,1.173425,2.606335,1.067181,1.880016
457,4570,-0.0487945,0.008013000000000001,1.318772,2.3234845,0.15954999999999997,1.8576525
458,4580,-0.02964,0.033639,1.343299,2.040634,-0.748081,1.835289
459,4590,0.0487185,-0.07132250000000001,1.3786775,1.7040445,-1.1075685,1.648903
460,4600,0.1343875,-0.20372600000000002,1.3878355,1.207638,-1.32967,1.399631
461,4610,0.161723,-0.24289,1.38112,1.207638,-1.32967,1.399631
462,4620,0.37099,-0.338679,1.1277745000000001,0.6745145,-0.16001700000000002,1.163645
463,4630,0.429919,-0.232878,0.970615,0.415096,0.13558399999999998,1.020918
464,4640,0.57928,-0.115233,0.702633,-0.47224,0.000801,0.505886
465,4650,0.62812,-0.099146,0.645276,-0.77158,-0.159016,0.293865
466,4660,0.6264105,-0.090599,0.5948785,-1.246691,-0.4082205,-0.11889449999999999
467,4670,0.624701,-0.082052,0.544481,-1.721802,-0.657425,-0.531654
468,4680,0.43285,-0.137211,0.607943,-2.487774,-0.718174,-1.323261
469,4690,0.20636700000000002,-0.248141,0.7438875,-3.0682945,-0.5104255,-1.8451689999999998
470,4700,0.177078,-0.254124,0.75828,-3.122635,-0.460358,-1.888828
471,4710,0.1207125,-0.25436800000000004,0.8001305,-3.1721690000000002,-0.2825165,-1.920271
472,4720,0.0565325,-0.244722,0.850772,-3.187656,-0.032177,-1.923943
473,4730,0.048718,-0.234832,0.859563,-3.187656,-0.032177,-1.923943
474,4740,0.05896,-0.18103049999999998,0.8222155,-2.9734990000000003,-0.1887895,-1.824341
475,4750,0.074329,-0.136723,0.762432,-2.7162170000000003,-0.437527,-1.7045115
476,4760,0.074329,-0.136723,0.762432,-2.673092,-0.529652,-1.684284
477,4770,0.264472,-0.099146,0.704342,-2.673092,-0.529652,-1.684284
478,4780,0.23774699999999999,-0.09937499999999999,0.6987255,-2.362604,-1.4750675,-1.46966
479,4790,0.317922,-0.076435,0.697749,-2.14798,-1.434078,-1.648102
480,4800,0.390145,0.056808,0.715575,-2.14798,-1.434078,-1.648102
481,4810,0.341212,0.14089,0.762554,-1.9674014999999998,-1.1672495,-1.853113
482,4820,0.298385,0.180802,0.796101,-1.839027,-0.985603,-1.97401
483,4830,0.221248,0.205191,0.797322,-1.586552,-0.775719,-2.059326
484,4840,0.185625,0.209099,0.781968,-1.449165,-0.721378,-2.063599
485,4850,0.1293665,0.231306,0.7610885000000001,-1.149292,-0.9498880000000001,-1.9714070000000001
486,4860,-0.071368,0.398478,0.676778,-0.77158,-1.594963,-1.736488
487,4870,-0.099436,0.440954,0.6903159999999999,-0.878124,-1.906986,-1.625671
488,4880,-0.127504,0.48343,0.703854,-0.980396,-1.977348,-1.57774
489,4890,-0.160685,0.521007,0.750954,-1.1348725000000002,-1.891565,-1.502638
490,4900,-0.308825,0.591307,1.001842,-1.289349,-1.805782,-1.427536
491,4910,-0.308825,0.591307,1.001842,-1.289349,-1.805782,-1.427536
492,4920,-0.565574,0.8543890000000001,1.4799605,-1.240349,-1.084671,-1.178265
493,4930,-0.614384,0.929802,1.535608,-1.240349,-1.084671,-1.178265
494,4940,-0.754953,1.150684,1.662746,-1.047554,-0.777855,-1.040878
495,4950,-0.90993,1.245373,1.821631,-0.887203,-0.931263,-0.6850620000000001
496,4960,-0.90993,1.245373,1.821631,-0.88026,-0.773582,-0.837402
497,4970,-0.989021,1.118693,2.215317,-0.651283,-1.201897,0.158615
498,4980,-0.9738960000000001,1.095265,2.2419195,-0.59,-1.1475564999999999,0.2544785
499,4990,-0.800375,0.982275,2.383939,-0.096264,-0.278244,0.881863
500,5000,-0.800375,0.982275,2.383939,-0.096264,-0.278244,0.881863
501,5010,-0.800375,0.982275,2.383939,-0.096264,-0.278244,0.881863
502,5020,-0.552387,0.913929,2.346118,0.387459,0.801887,1.299496
503,5030,-0.111387,0.7716505,1.8088255,1.2912845,1.8133925,1.3649845
504,5040,-0.050367,0.734806,1.64495,1.43034,1.931152,1.303768
505,5050,0.036997,0.630837,1.213932,1.522999,2.147312,1.055565
506,5060,0.044323,0.59935,1.1329025000000001,1.429272,2.208595,0.9107020000000001
507,5070,0.051649,0.567863,1.051873,1.335545,2.269878,0.765839
508,5080,-0.051099500000000006,0.349439,1.027346,1.338148,2.202721,0.71043
509,5090,-0.116027,0.277201,1.051629,1.365318,2.141972,0.704021
510,5100,-0.116027,0.277201,1.051629,1.365318,2.141972,0.704021
511,5110,-0.116027,0.277201,1.051629,1.365318,2.141972,0.704021
512,5120,-0.113829,-0.02323,1.023088,1.927814,1.894836,1.422062
513,5130,-0.113829,-0.02323,1.023088,1.992235,1.858654,1.4880849999999999
514,5140,-0.061356,-0.05229,1.040182,2.545586,1.569996,1.777744
515,5150,0.021993500000000003,-0.0748635,1.0349315,2.545586,1.569996,1.777744
516,5160,0.1452395,-0.113661,0.9718355000000001,2.7783680000000004,1.5438939999999999,1.749506
517,5170,0.178787,-0.147468,0.856145,3.15815,1.58495,1.665993
518,5180,0.178787,-0.147468,0.856145,3.15815,1.58495,1.665993
519,5190,0.071887,-0.234587,0.86982,3.214626,1.688156,1.628609
520,5200,0.071887,-0.234587,0.86982,3.273239,1.803246,1.684017
521,5210,0.059219,-0.302201,0.848819,3.299875,1.78195,1.752777
522,5220,0.064592,-0.344662,0.793415,3.290195,1.604042,1.941833
523,5230,0.08362449999999999,-0.3256295,0.8011075,3.0196285,1.342554,2.032356
524,5240,0.102657,-0.306597,0.8088,2.749062,1.081066,2.122879
525,5250,0.125719,-0.273034,0.8799395,2.6473240000000002,0.976124,2.134094
526,5260,0.17343,-0.2056645,1.0151515,2.2612,0.450945,2.1111965
527,5270,0.237854,-0.150154,1.158773,1.65184,-0.423107,1.892834
528,5280,0.2470115,-0.170774,1.195388,1.3072395,-0.585594,1.6845515
529,5290,0.276896,-0.285595,1.272022,0.962639,-0.748081,1.476269
530,5300,0.28935,-0.3104885,1.2692135,0.8944799999999999,-0.738468,1.4549735
531,5310,0.371112,-0.379552,1.133635,0.66597,-0.5962085,1.3798715000000001
532,5320,0.477508,-0.34051,0.790973,0.132847,-0.38372,1.165314
533,5330,0.487276,-0.3102445,0.7449715,-0.007810499999999998,-0.4268455,1.1183835
534,5340,0.648358,-0.176742,0.56304,-0.148468,-0.469971,1.071453
535,5350,0.6634990000000001,-0.17637550000000002,0.5771885,-1.478939,-1.2966920000000002,0.5953405
536,5360,0.67864,-0.176009,0.591337,-1.693096,-1.447964,0.499477
537,5370,0.67864,-0.176009,0.591337,-2.887249,-1.853714,-0.241928
538,5380,0.682761,-0.202139,0.728274,-3.433723,-1.572533,-0.802288
539,5390,0.434315,-0.300003,1.206118,-3.774586,-0.702286,-1.779079
540,5400,0.365999,-0.291212,1.221258,-3.744812,-0.534992,-1.964531
541,5410,0.2654485,-0.26253350000000003,1.1919689999999998,-3.644676,-0.41890150000000004,-2.1397684999999997
542,5420,0.07262,-0.195545,1.062374,-3.403816,-0.371971,-2.385235
543,5430,0.07262,-0.195545,1.062374,-3.403816,-0.371971,-2.385235
544,5440,0.020650500000000002,-0.1549165,0.8560375,-3.255749,-0.794945,-2.244644
545,5450,0.044323,-0.15919,0.830778,-3.220635,-1.068649,-2.108326
546,5460,0.044323,-0.15919,0.830778,-3.183384,-1.353168,-2.007122
547,5470,0.072635,-0.1563815,0.8351585,-3.1449985,-1.508646,-1.979418
548,5480,0.100947,-0.153573,0.839539,-3.106613,-1.664124,-1.951714
549,5490,0.111936,-0.043254,0.932061,-3.013954,-1.8830870000000002,-1.9240095
550,5500,0.08165549999999999,0.033013,0.990136,-2.880306,-1.89003,-1.876612
551,5510,0.078969,0.046551,1.009657,-2.795658,-1.828213,-1.844101
552,5520,0.031624,0.207633,1.000377,-1.997776,-1.289215,-1.699238
553,5530,0.0285715,0.22752050000000001,0.9716985,-1.9146635,-1.2370109999999999,-1.6971015
554,5540,0.0050215,0.309405,0.8657755,-1.6845515,-1.0276605,-1.7040440000000001
555,5550,-0.048902,0.423875,0.776107,-1.537552,-0.870514,-1.713123
556,5560,-0.140432,0.529798,0.831755,-1.514053,-0.789604,-1.726875
557,5570,-0.231962,0.635721,0.887403,-1.514053,-0.789604,-1.726875
558,5580,-0.4506305,0.7476119999999999,1.0308869999999999,-1.3830755,-1.1868765,-1.7221354999999998
559,5590,-0.5831565,0.80155,1.075057,-1.1860085,-1.3349440000000001,-1.522398
560,5600,-0.688103,0.899552,1.073119,-1.026192,-1.411648,-1.346626
561,5610,-0.688103,0.899552,1.073119,-0.92392,-1.311512,-1.181469
562,5620,-0.693475,1.382768,1.215153,-0.832329,-0.793877,-0.501881
563,5630,-0.688835,1.438904,1.318878,-0.8382035,-0.7725815,-0.44647250000000005
564,5640,-0.7320285,1.523963,1.904126,-0.679455,-0.9291265,-0.0278375
565,5650,-0.738866,1.522147,2.04642,-0.621376,-0.964241,0.027504
566,5660,-0.738866,1.522147,2.04642,-0.621376,-0.964241,0.027504
567,5670,-0.738866,1.522147,2.04642,-0.621376,-0.964241,0.027504
568,5680,-0.544603,1.390827,2.340257,-0.039787,-0.957966,0.397205
569,5690,-0.483338,1.355936,2.350758,0.396938,-0.755558,0.562363
570,5700,-0.25855,1.105781,2.228229,1.291752,1.058636,0.554886
571,5710,-0.229276,0.989113,2.062293,1.789227,2.265606,0.461159
572,5720,-0.238556,0.871957,1.833109,2.05986,2.782307,0.408955
573,5730,-0.24550049999999998,0.839142,1.7664870000000001,2.110996,2.865887,0.4057505
574,5740,-0.296371,0.633523,1.369642,2.24411,3.051739,0.504818
575,5750,-0.296371,0.633523,1.369642,2.24411,3.051739,0.504818
576,5760,-0.296371,0.633523,1.369642,2.24411,3.051739,0.504818
577,5770,-0.2890595,0.40410999999999997,1.2153975,1.943769,2.2671415,0.9597015
578,5780,-0.235137,0.282817,1.251265,1.843567,1.90979,1.174793
579,5790,-0.140172,0.118316,1.324007,1.848907,1.551838,1.518993
580,5800,-0.123948,0.09378900000000001,1.3398645,1.8696685,1.5316105,1.570129
581,5810,-0.056716,0.0172775,1.410149,2.0044515,1.50177,1.7495725
582,5820,0.042124999999999996,-0.0544725,1.482769,2.382698,1.561451,1.968536
583,5830,0.148048,-0.101833,1.501206,2.537174,1.636086,1.972675
584,5840,0.148048,-0.101833,1.501206,2.537174,1.636086,1.972675
585,5850,0.148048,-0.101833,1.501206,2.537174,1.636086,1.972675
586,5860,0.265693,-0.190661,1.389178,3.009014,1.988697,1.843834
587,5870,0.265693,-0.190661,1.389178,3.009014,1.988697,1.843834
588,5880,0.265693,-0.190661,1.389178,3.009014,1.988697,1.843834
589,5890,0.07434450000000001,-0.390053,1.0142965,3.66951,2.3481175,1.727743
590,5900,0.013584,-0.427141,1.005261,3.703556,2.145176,1.837425
591,5910,0.013584,-0.427141,1.005261,3.703556,2.145176,1.837425
592,5920,0.014911500000000001,-0.452523,1.018692,3.703556,2.145176,1.837425
593,5930,0.228818,-0.565787,0.882519,3.722782,1.747837,2.368012
594,5940,0.3169295,-0.5451520000000001,0.784517,3.6998845,1.579542,2.59058
595,5950,0.405041,-0.524517,0.686515,3.325443,1.444225,2.68858
596,5960,0.405041,-0.524517,0.686515,3.325443,1.444225,2.68858
597,5970,0.405041,-0.524517,0.686515,3.325443,1.444225,2.68858
598,5980,0.604433,-0.350523,0.585965,2.369881,0.920181,2.170811
599,5990,0.5678175,-0.185167,0.5987855,1.369591,0.30501350000000005,1.3719275
600,6000,0.531202,-0.019811,0.611606,0.369301,-0.310154,0.573044
601,6010,0.298248,-0.200658,0.9159440000000001,0.632992,-0.14673250000000002,0.834465
602,6020,0.270073,-0.31610499999999997,0.913502,-0.1925945,-0.50622,0.343399
603,6030,0.285687,-0.209953,0.783677,-0.31456,-0.462494,0.294933
604,6040,0.3351075,-0.153817,0.7496259999999999,-1.2808035,-0.4934695,-0.109348
605,6050,0.384528,-0.097681,0.715575,-1.725006,-0.642605,-0.320835
606,6060,0.39161,-0.106228,0.831266,-1.725006,-0.642605,-0.320835
607,6070,0.39161,-0.106228,0.831266,-1.725006,-0.642605,-0.320835
608,6080,0.277628,-0.191394,1.016983,-2.987852,-0.7357975,-1.5133195
609,6090,0.277628,-0.191394,1.016983,-3.192997,-0.363426,-2.177486
610,6100,0.10740350000000001,-0.18638749999999998,0.9862285,-3.1684970000000003,-0.33578850000000005,-2.3532580000000003
611,6110,-0.0015720000000000005,-0.16295949999999998,0.9155774999999999,-3.143997,-0.308151,-2.52903
612,6120,-0.032326,-0.155771,0.888135,-3.143997,-0.308151,-2.52903
613,6130,-0.1886315,-0.1220705,0.8538245,-3.141861,-0.330448,-2.58337
614,6140,-0.2274445,-0.09559000000000001,0.837112,-3.154545,-0.433788,-2.568417
615,6150,-0.22488,-0.076924,0.822475,-3.154545,-0.433788,-2.568417
616,6160,-0.1462925,-0.049466500000000004,0.8239405,-3.0491355,-1.3259985,-1.7993735
617,6170,-0.0842955,-0.021886500000000003,0.8327165,-2.969761,-1.594963,-1.533613
618,6180,0.140233,0.113188,0.87275,-2.802067,-1.84103,-1.428604
619,6190,0.181473,0.207389,0.916188,-2.612343,-1.983757,-1.52874
620,6200,0.181473,0.207389,0.916188,-2.612343,-1.983757,-1.52874
621,6210,0.181473,0.207389,0.916188,-2.612343,-1.983757,-1.52874
622,6220,0.07262,0.259145,0.9629220000000001,-2.159128,-1.6209985,-1.57567
623,6230,-0.03718,0.401653,1.000621,-1.991367,-1.463852,-1.542625
624,6240,-0.03718,0.401653,1.000621,-1.618462,-1.342487,-1.381741
625,6250,-0.045239,0.442435,0.991586,-1.560984,-1.3643165000000002,-1.3556385
626,6260,-0.045239,0.442435,0.991586,-1.503506,-1.386146,-1.329536
627,6270,-0.045239,0.442435,0.991586,-1.503506,-1.386146,-1.329536
628,6280,0.027961,0.6875685,0.8678665,-1.134872,-1.51392,-1.298695
629,6290,0.019658,0.713805,0.864448,-1.134872,-1.51392,-1.298695
630,6300,-0.133365,0.84659,0.8454,-1.242485,-0.71497,-1.814327
631,6310,-0.469663,1.049889,0.942043,-1.242485,-0.71497,-1.814327
632,6320,-0.6544175,1.1563005,1.119731,-1.376667,-0.3501415,-1.869669
633,6330,-0.839172,1.262712,1.297419,-1.38628,-0.008678,-1.9911
634,6340,-0.839172,1.262712,1.297419,-1.552506,-0.13979,-1.837692
635,6350,-1.16207,1.276845,1.950021,-1.303167,-1.054296,-1.2752625000000002
636,6360,-1.16207,1.276845,1.950021,-0.674648,-1.60244,-0.350609
637,6370,-1.103492,1.136764,2.338547,-0.292263,-1.496963,0.173569
638,6380,-0.934717,1.0526820000000001,2.268873,-0.1937295,-1.407442,0.292864
639,6390,-0.765942,0.9686,2.199199,-0.095196,-1.317921,0.412159
640,6400,-0.65831,0.933954,2.093764,0.681458,0.091324,1.148224
641,6410,-0.65831,0.933954,2.093764,0.681458,0.091324,1.148224
642,6420,-0.219264,0.81753,1.539516,1.033001,1.14809,1.384678
643,6430,-0.219264,0.81753,1.539516,1.033001,1.14809,1.384678
644,6440,-0.219264,0.81753,1.539516,1.033001,1.14809,1.384678
645,6450,0.213708,0.67574,0.970859,1.185341,1.515656,0.897884
646,6460,0.1605025,0.6116825,0.9041,1.0297965,1.2940885,0.598545
647,6470,-0.012058,0.458521,0.933038,0.711231,1.002159,0.18198
648,6480,-0.012058,0.458521,0.933038,0.711231,1.002159,0.18198
649,6490,-0.183641,0.264746,1.24809,0.697346,1.072521,0.43766
650,6500,-0.19034099999999998,0.24339349999999998,1.2933745,0.794277,1.047955,0.580387
651,6510,-0.197041,0.222041,1.338659,0.794277,1.047955,0.580387
652,6520,-0.157755,0.072192,1.44214,1.92461,1.221657,1.305904
653,6530,-0.157755,0.072192,1.44214,2.0316885,1.255703,1.353302
654,6540,0.019658,0.009463,1.145586,2.452927,1.438885,1.522064
655,6550,0.0479705,0.009951499999999999,1.0873895,2.5610735,1.4874174999999998,1.5492345
656,6560,0.076283,0.01044,1.029193,2.66922,1.53595,1.576405
657,6570,0.076283,0.01044,1.029193,2.66922,1.53595,1.576405
658,6580,0.099482,-0.014683,0.89421,2.901401,1.588154,1.49229
659,6590,0.036385999999999995,-0.036905,0.856648,2.9786395,1.670599,1.326132
660,6600,0.005769,-0.041545,0.881053,2.901401,1.775608,1.329269
661,6610,-0.072101,-0.051802,0.977208,2.901401,1.775608,1.329269
662,6620,-0.141393,-0.139165,1.14754,2.9216284999999997,1.7446995,1.4352795
663,6630,-0.141393,-0.139165,1.14754,2.941856,1.713791,1.54129
664,6640,-0.141393,-0.139165,1.14754,2.8369805,1.2349415000000001,1.7926980000000001
665,6650,-0.141393,-0.139165,1.14754,2.732105,0.756092,2.044106
666,6660,-0.044643,-0.27950549999999996,1.1676864999999998,2.3789594999999997,0.3614235,2.0829585
667,6670,0.039439,-0.215814,1.228829,1.434612,-0.603218,2.044106
668,6680,0.079458,-0.201162,1.294245,1.160774,-0.784264,1.964264
669,6690,0.233946,-0.300492,1.436767,0.696278,-0.937672,1.673336
670,6700,0.233946,-0.300492,1.436767,0.696278,-0.937672,1.673336
671,6710,0.233946,-0.300492,1.436767,0.696278,-0.937672,1.673336
672,6720,0.2805585,-0.3102445,1.324739,0.5578235,-0.769911,1.4245985
673,6730,0.327171,-0.319997,1.212711,0.419369,-0.60215,1.175861
674,6740,0.325706,-0.211907,1.047966,-0.171833,-0.702286,0.879726
675,6750,0.325706,-0.211907,1.047966,-0.171833,-0.702286,0.879726
676,6760,0.537796,-0.148933,0.840027,-1.3185885,-1.0713865,0.291195
677,6770,0.556599,-0.126711,0.86518,-2.074413,-1.121922,-0.394268
678,6780,0.47105199999999997,-0.0932855,0.9019174999999999,-2.074413,-1.121922,-0.394268
679,6790,0.260076,-0.078389,0.947415,-2.719955,-0.250607,-1.880283
680,6800,0.260076,-0.078389,0.947415,-2.719955,-0.250607,-1.880283
681,6810,0.260076,-0.078389,0.947415,-2.719955,-0.250607,-1.880283
682,6820,0.087028,-0.0810755,0.9186145,-2.7039999999999997,-0.1552105,-2.0017815
683,6830,-0.08602,-0.083762,0.889814,-2.688045,-0.059814,-2.12328
684,6840,-0.156412,-0.054609500000000005,0.8063575000000001,-2.4595355,-0.6814575,-1.667795
685,6850,-0.151406,-0.046917,0.793659,-2.431297,-0.793877,-1.584148
686,6860,-0.151406,-0.046917,0.793659,-2.431297,-0.793877,-1.584148
687,6870,-0.05158800000000001,-0.007982,0.7675445000000001,-2.431297,-0.793877,-1.584148
688,6880,0.157083,0.091698,0.693841,-2.036095,-1.758919,-0.834198
689,6890,0.157083,0.091698,0.693841,-2.036095,-1.758919,-0.834198
690,6900,0.2317635,0.1479565,0.6423449999999999,-1.873608,-1.6774749999999998,-0.8496855
691,6910,0.306444,0.204215,0.590849,-1.711121,-1.596031,-0.865173
692,6920,0.27178250000000004,0.3582305,0.6507700000000001,-1.4997004999999999,-1.2902165,-1.1522290000000002
693,6930,0.254948,0.372623,0.687736,-1.470394,-1.267853,-1.184673
694,6940,0.1413325,0.4510885,0.7687655,-1.23394,-1.3136485,-1.2992285
695,6950,0.027717,0.529554,0.849795,-0.997486,-1.359444,-1.413784
696,6960,-0.010837,0.561025,0.860052,-0.921783,-1.304169,-1.420193
697,6970,-0.127749,0.693322,0.833464,-0.797215,-1.026058,-1.4254
698,6980,-0.127749,0.693322,0.833464,-0.7950785,-0.9392739999999999,-1.4237975
699,6990,-0.276621,0.967623,0.859563,-0.817375,-0.43272,-1.421261
700,7000,-0.276621,0.967623,0.859563,-0.82592,-0.329914,-1.419659
701,7010,-0.38034599999999996,1.094288,0.946698,-0.8371355,-0.074234,-1.394558
702,7020,-0.65077,1.360088,1.187345,-0.785465,-0.151539,-1.271057
703,7030,-0.7145835,1.3831495,1.269702,-0.742874,-0.4353905,-1.1852740000000002
704,7040,-0.936304,1.355936,1.575871,-0.6352614999999999,-1.0122395,-0.9753895
705,7050,-0.936304,1.355936,1.575871,-0.57024,-1.305237,-0.851288
706,7060,-0.9405775000000001,1.3110335,1.669584,-0.490398,-1.503372,-0.682926
707,7070,-0.8927445,1.2268295,1.7977145,-0.14946900000000002,-1.346159,0.16876200000000002
708,7080,-0.73911,1.150684,1.947579,-0.035515,-0.48172,0.694408
709,7090,-0.5391085,1.0816205,2.0471525,0.057144,0.255413,0.952225
710,7100,-0.49213,1.059169,2.054234,0.172234,0.646343,1.037407
711,7110,-0.49213,1.059169,2.054234,0.172234,0.646343,1.037407
712,7120,-0.3715545,0.9955845000000001,1.978577,0.172234,0.646343,1.037407
713,7130,-0.0584255,0.808632,1.518285,0.936069,1.870403,1.003361
714,7140,-0.004731,0.764569,1.380875,0.936069,1.870403,1.003361
715,7150,0.045544,0.6424365000000001,1.08568,1.112375,2.2139355,0.603819
716,7160,0.056045,0.595458,1.019181,1.087341,2.227287,0.527115
717,7170,0.056045,0.595458,1.019181,1.087341,2.227287,0.527115
718,7180,-0.002289,0.455591,0.982336,1.0079004999999999,2.0909025,0.3982735
719,7190,-0.268074,0.219599,1.123394,1.154365,1.563587,0.764771
720,7200,-0.268074,0.219599,1.123394,1.154365,1.563587,0.764771
721,7210,-0.272958,0.160289,1.137802,1.233273,1.494293,0.946884
722,7220,-0.1764365,0.0139805,1.130476,1.456442,1.5156555,1.319189
723,7230,-0.126772,-0.021765,1.119243,1.679611,1.537018,1.691494
724,7240,0.148643,-0.07790050000000001,1.026751,2.253723,1.4575770000000001,2.064867
725,7250,0.271035,-0.087913,0.955718,2.535038,1.319656,2.04731
726,7260,0.271035,-0.087913,0.955718,2.535038,1.319656,2.04731
727,7270,0.2050235,-0.11207400000000001,0.8351584999999999,2.662277,1.2802025000000001,1.8747425
728,7280,0.167798,-0.130618,0.827603,2.789516,1.240749,1.702175
729,7290,0.133274,-0.1665005,0.83467,2.8119465,1.518793,1.6734025
730,7300,0.09875,-0.202383,0.841737,2.867355,1.911926,1.687221
731,7310,0.016484,-0.282421,0.892256,2.9190255,1.9513129999999999,1.8081185
732,7320,0.010394,-0.4233715,0.7654844999999999,2.9488659999999998,1.866064,2.0515155
733,7330,0.039439,-0.469144,0.70654,2.927036,1.741428,2.174015
734,7340,0.1606095,-0.386039,0.7291135,2.678299,1.147022,2.4089335
735,7350,0.28178,-0.302934,0.751687,2.33737,0.358219,2.666216
736,7360,0.28178,-0.302934,0.751687,2.245178,0.163822,2.68858
737,7370,0.436268,-0.068133,0.844667,1.590023,-0.736332,2.437172
738,7380,0.552936,-0.048627,1.087771,1.043549,-0.923786,2.037697
739,7390,0.5070565,-0.1333045,1.2224795,0.28038,-0.29793749999999997,1.3575745000000001
740,7400,0.424058,-0.255833,1.350869,-0.053673,0.418434,0.909634
741,7410,0.424058,-0.255833,1.350869,-0.053673,0.418434,0.909634
742,7420,0.3911215,-0.2001855,1.126813,-0.069094,0.5420015,0.8222485
743,7430,0.358185,-0.144538,0.902757,-0.0546745,0.6548879999999999,0.7604310000000001
744,7440,0.358185,-0.144538,0.902757,-0.024834,0.644207,0.785999
745,7450,0.375752,-0.034463,0.6950620000000001,-1.030464,-0.2590845,0.45475
746,7460,0.44371649999999996,-0.053374000000000005,0.6921315,-2.030754,-1.189079,0.163956
747,7470,0.478973,-0.118164,0.799764,-2.030754,-1.189079,0.163956
748,7480,0.478973,-0.118164,0.799764,-2.699194,-1.4585780000000002,-0.06562200000000001
749,7490,0.478973,-0.118164,0.799764,-3.367634,-1.728077,-0.2952
750,7500,0.472655,-0.248995,1.465553,-4.174061,-1.572533,-0.834198
751,7510,0.40528549999999997,-0.22800900000000002,1.432616,-3.9205170000000003,-0.9477519999999999,-1.5985680000000002
752,7520,0.191486,-0.169904,1.246655,-3.437996,-0.157948,-2.574825
753,7530,0.191486,-0.169904,1.246655,-3.437996,-0.157948,-2.574825
754,7540,0.002595,-0.086448,1.005017,-3.2536125,-0.126438,-2.5621415
755,7550,0.002595,-0.086448,1.005017,-3.155613,-0.141926,-2.515278
756,7560,0.002595,-0.086448,1.005017,-3.155613,-0.141926,-2.515278
757,7570,-0.0026555,0.009585000000000003,0.9299705,-2.8733635,-0.842276,-2.016668
758,7580,0.027229,0.133701,0.859808,-2.751999,-1.303101,-1.813259
759,7590,0.027229,0.133701,0.859808,-2.751999,-1.303101,-1.813259
760,7600,0.172926,0.216425,0.851016,-2.406731,-1.832485,-1.614056
761,7610,0.172926,0.216425,0.851016,-2.406731,-1.832485,-1.614056
762,7620,0.1880665,0.2487665,0.832228,-2.246447,-1.730213,-1.6113855
763,7630,0.202963,0.3033,0.804893,-2.086163,-1.627941,-1.608715
764,7640,0.1627,0.355773,0.8193,-1.782551,-1.377602,-1.656647
765,7650,0.03431,0.444632,0.899826,-1.394825,-1.425533,-1.674671
766,7660,-0.025611,0.5050265,0.877497,-1.394825,-1.425533,-1.674671
767,7670,-0.167523,0.6345,0.807823,-0.764103,-1.400032,-1.664124
768,7680,-0.167523,0.6345,0.807823,-0.764103,-1.400032,-1.664124
769,7690,-0.224636,0.673786,0.797078,-0.658627,-0.679855,-1.542625
770,7700,-0.308596,0.7451695,0.8268555,-0.658627,-0.679855,-1.542625
771,7710,-0.392556,0.816553,0.856633,-0.658627,-0.679855,-1.542625
772,7720,-0.6649035000000001,1.1700825,0.997813,-0.5329895,-0.608492,-1.1426159999999999
773,7730,-0.705899,1.255874,1.044547,-0.528717,-0.641537,-1.083469
774,7740,-0.721284,1.451358,1.542446,-0.612831,-1.304169,-0.413494
775,7750,-0.721284,1.451358,1.542446,-0.612831,-1.304169,-0.413494
776,7760,-0.721284,1.451358,1.542446,-0.612831,-1.304169,-0.413494
777,7770,-0.721528,1.435241,2.181372,-0.351877,-1.4990999999999999,-0.11148449999999999
778,7780,-0.721528,1.435241,2.181372,-0.090923,-1.694031,0.190525
779,7790,-0.18071,1.163871,2.589924,1.10323,-0.837536,1.021519
780,7800,-0.18071,1.163871,2.589924,1.10323,-0.837536,1.021519
781,7810,-0.18071,1.163871,2.589924,1.10323,-0.837536,1.021519
782,7820,0.273232,0.88783,2.070077,2.233563,2.181492,0.382252
783,7830,0.2601825,0.857686,1.9968620000000001,2.279358,2.358866,0.290127
784,7840,0.247133,0.827542,1.923647,2.325153,2.53624,0.198002
785,7850,0.247133,0.827542,1.923647,2.325153,2.53624,0.198002
786,7860,-0.0934535,0.546999,1.4667735,2.357063,3.215828,-0.1227
787,7870,-0.323599,0.416671,1.3260825,2.268677,2.907944,0.131912
788,7880,-0.411573,0.366518,1.286186,2.268677,2.907944,0.131912
789,7890,-0.521159,0.267677,1.24519,2.1099285,2.156992,0.8441449999999999
790,7900,-0.472594,0.107083,1.231271,2.0262815,1.7473695,1.2537004999999999
791,7910,-0.472594,0.107083,1.231271,1.998043,1.614723,1.392155
792,7920,-0.472594,0.107083,1.231271,1.998043,1.614723,1.392155
793,7930,0.414565,-0.114989,1.498032,2.323017,1.176929,2.395649
794,7940,0.560018,-0.155527,1.519003,2.737446,1.604042,2.082424
795,7950,0.595153,-0.174544,1.480938,2.970696,1.836224,1.885357
796,7960,0.595153,-0.174544,1.480938,3.631191,2.44772,1.320725
797,7970,0.49008450000000003,-0.2618005,1.1072765,3.7291904999999996,2.5649455,1.1918834999999999
798,7980,0.30301,-0.28181,0.947919,3.7611005,2.765751,0.9809975
799,7990,0.178299,-0.29341,0.888135,3.695011,2.849331,0.898953
800,8000,0.148033,-0.2918225,0.9060684999999999,3.667307,2.8371145,0.9149075
801,8010,0.117767,-0.290235,0.924002,3.6113645,2.7285005,1.0422135
802,8020,0.117767,-0.290235,0.924002,3.583126,2.632103,1.153565
803,8030,-0.07088,-0.34417299999999995,0.992089,3.755226,2.4056625,1.701641
804,8040,-0.001313,-0.328056,0.821498,3.746147,2.087631,2.147446
805,8050,0.014179,-0.32306500000000005,0.777328,3.678055,1.904449,2.316876
806,8060,0.029671,-0.318074,0.733158,3.5379315,1.629076,2.4585345
807,8070,0.029671,-0.318074,0.733158,3.397808,1.353703,2.600193
808,8080,0.322058,-0.172102,0.5065375000000001,2.696858,0.152073,2.689648
809,8090,0.540482,0.012042000000000004,0.46139050000000004,1.920271,-0.44660550000000004,2.2379685
810,8100,0.657394,0.136143,0.586209,0.722981,-1.104965,1.477337
811,8110,0.657394,0.136143,0.586209,0.722981,-1.104965,1.477337
812,8120,0.5598810000000001,-0.24447750000000001,0.957443,-0.29974,-0.7075595,0.5165005
813,8130,0.502402,-0.3419755,0.9773305,-0.4217055,-0.441265,0.2805805
814,8140,0.479218,-0.354918,0.976476,-0.442467,-0.356083,0.209751
815,8150,0.299362,-0.116454,0.667254,-1.112442,-0.478516,-0.270767
816,8160,0.30241450000000003,-0.099009,0.6491979999999999,-1.112442,-0.478516,-0.270767
817,8170,0.305467,-0.081564,0.631142,-1.112442,-0.478516,-0.270767
818,8180,0.30998499999999996,-0.155267,0.7396145000000001,-2.326355,-1.00049,-0.7687095
819,8190,0.279109,-0.21115899999999999,0.9008185,-3.5269165,-0.51363,-1.6113855
820,8200,0.242738,-0.198964,0.932305,-3.573246,-0.41563,-1.699238
821,8210,0.242738,-0.198964,0.932305,-3.573246,-0.41563,-1.699238
822,8220,0.049558,-0.13330399999999998,1.0553075,-3.614235,0.006141500000000001,-2.0853615
823,8230,-0.017918,-0.122803,1.073119,-3.579655,0.095596,-2.171078
824,8240,-0.10576999999999999,-0.10792199999999999,1.0238205,-3.429451,-0.022097,-2.1343615
825,8250,-0.193622,-0.093041,0.974522,-3.279247,-0.13979,-2.097645
826,8260,-0.18899749999999998,-0.0420335,0.891295,-3.1423285,-0.62398,-1.7791465
827,8270,-0.028663,0.040232,0.806602,-2.985249,-1.572533,-1.293354
828,8280,-0.028663,0.040232,0.806602,-2.985249,-1.572533,-1.293354
829,8290,0.310351,0.168347,0.804893,-2.963886,-2.279892,-1.179333
830,8300,0.310351,0.168347,0.804893,-2.963886,-2.279892,-1.179333
831,8310,0.310351,0.168347,0.804893,-2.963886,-2.279892,-1.179333
832,8320,0.383795,0.175918,0.896163,-3.01609,-1.842098,-1.299763
833,8330,0.367464,0.162486,1.13829,-2.762547,-1.064377,-1.538353
834,8340,0.200033,0.239868,1.221258,-2.01046,-1.055832,-1.69817
835,8350,0.200033,0.239868,1.221258,-2.01046,-1.055832,-1.69817
836,8360,0.1158285,0.321859,1.0679905,-2.01046,-1.055832,-1.69817
837,8370,0.031624,0.40385,0.914723,-2.01046,-1.055832,-1.69817
838,8380,-0.033409999999999995,0.5495635,0.7169185,-1.0352705,-2.10145,-1.494694
839,8390,-0.036691,0.668414,0.609408,-1.503506,-2.00285,-1.328468
840,8400,-0.036936,0.693567,0.658462,-1.503506,-2.00285,-1.328468
841,8410,-0.036936,0.693567,0.658462,-1.657848,-1.678009,-1.332741
842,8420,-0.22243800000000002,0.9350525000000001,0.9681725,-1.935959,-0.596809,-1.489353
843,8430,-0.268562,0.987892,1.020157,-1.935959,-0.596809,-1.489353
844,8440,-0.4674655,1.1737454999999999,1.2884905,-1.7453005,-0.7794570000000001,-1.3652514999999998
845,8450,-0.698603,1.390094,1.644706,-1.443825,-1.117649,-1.119785
846,8460,-0.698603,1.390094,1.644706,-1.443825,-1.117649,-1.119785
847,8470,-0.7602184999999999,1.422924,1.7768655,-1.127396,-1.117115,-0.7474135
848,8480,-0.923361,1.4572195,2.197978,-0.810967,-1.116581,-0.375042
849,8490,-0.863074,1.27831,2.450331,-0.679989,-1.12299,-0.182247
850,8500,-0.8274509999999999,1.2478,2.442761,0.170097,-0.711765,0.618839
851,8510,-0.791828,1.21729,2.435191,0.170097,-0.711765,0.618839
852,8520,-0.501135,1.101385,2.151366,0.49874300000000005,-0.22871,0.8275889999999999
853,8530,-0.300278,1.043784,1.896082,0.827389,0.254345,1.036339
854,8540,-0.300278,1.043784,1.896082,0.827389,0.254345,1.036339
855,8550,-0.102718,0.925666,1.6024745,1.2571715,1.6147235,1.1056325
856,8560,0.004304,0.854649,1.426511,1.422863,2.213402,1.042747
857,8570,0.144629,0.683554,1.021378,1.422863,2.213402,1.042747
858,8580,0.09789500000000001,0.5901925,0.7743975000000001,1.620998,2.380695,0.737
859,8590,-0.016209,0.481476,0.677266,1.33234,1.545429,0.363159
860,8600,-0.016209,0.481476,0.677266,1.33234,1.545429,0.363159
861,8610,-0.016209,0.481476,0.677266,1.33234,1.545429,0.363159
862,8620,-0.223659,0.313312,0.960114,1.33234,1.545429,0.363159
863,8630,-0.272225,0.21459299999999998,1.182705,1.2017635,1.02993,0.872316
864,8640,-0.195332,0.04704,1.363781,1.714725,0.845547,1.425133
865,8650,-0.1319,-0.010562,1.34916,1.976814,0.882931,1.595631
866,8660,0.16734,-0.128909,1.101904,2.923832,1.213112,2.019672
867,8670,0.312305,-0.090843,0.981848,3.070831,1.275997,2.044106
868,8680,0.312305,-0.090843,0.981848,3.070831,1.275997,2.044106
869,8690,0.312305,-0.090843,0.981848,3.070831,1.275997,2.044106
870,8700,0.149269,-0.029091,0.912525,3.321171,1.664791,1.329269
871,8710,0.149269,-0.029091,0.912525,3.321171,1.664791,1.329269
872,8720,-0.0169265,-0.08376149999999999,0.994165,3.295002,1.68128,1.2472915
873,8730,-0.045483,-0.093774,1.012587,3.2934,1.689224,1.252632
874,8740,-0.132388,-0.140142,1.078003,3.313694,1.674404,1.359177
875,8750,-0.2201185,-0.20616849999999998,1.1066660000000001,3.2652285,1.3430885,1.623802
876,8760,-0.252689,-0.205558,1.107521,3.209286,1.168385,1.724472
877,8770,-0.252689,-0.205558,1.107521,3.209286,1.168385,1.724472
878,8780,-0.252689,-0.205558,1.107521,3.209286,1.168385,1.724472
879,8790,-0.252689,-0.205558,1.107521,3.209286,1.168385,1.724472
880,8800,-0.252689,-0.205558,1.107521,3.209286,1.168385,1.724472
881,8810,-0.252689,-0.205558,1.107521,3.209286,1.168385,1.724472
882,8820,-0.252689,-0.205558,1.107521,3.209286,1.168385,1.724472
883,8830,-0.252689,-0.205558,1.107521,3.209286,1.168385,1.724472
884,8840,-0.252689,-0.205558,1.107521,3.209286,1.168385,1.724472
885,8850,-0.252689,-0.205558,1.107521,3.209286,1.168385,1.724472
886,8860,-0.252689,-0.205558,1.107521,3.209286,1.168385,1.724472
887,8870,-0.252689,-0.205558,1.107521,3.209286,1.168385,1.724472
888,8880,-0.252689,-0.205558,1.107521,3.209286,1.168385,1.724472
889,8890,-0.252689,-0.205558,1.107521,3.209286,1.168385,1.724472
890,8900,-0.252689,-0.205558,1.107521,3.209286,1.168385,1.724472
891,8910,-0.252689,-0.205558,1.107521,3.209286,1.168385,1.724472
892,8920,-0.252689,-0.205558,1.107521,3.209286,1.168385,1.724472
893,8930,-0.252689,-0.205558,1.107521,3.209286,1.168385,1.724472
894,8940,-0.252689,-0.205558,1.107521,3.209286,1.168385,1.724472
895,8950,-0.252689,-0.205558,1.107521,3.209286,1.168385,1.724472
896,8960,-0.252689,-0.205558,1.107521,3.209286,1.168385,1.724472
897,8970,-0.252689,-0.205558,1.107521,3.209286,1.168385,1.724472
898,8980,-0.252689,-0.205558,1.107521,3.209286,1.168385,1.724472
899,8990,-0.252689,-0.205558,1.107521,3.209286,1.168385,1.724472
900,9000,-0.252689,-0.205558,1.107521,3.209286,1.168385,1.724472
901,9010,-0.252689,-0.205558,1.107521,3.209286,1.168385,1.724472
902,9020,-0.252689,-0.205558,1.107521,3.209286,1.168385,1.724472
903,9030,-0.252689,-0.205558,1.107521,3.209286,1.168385,1.724472
904,9040,-0.252689,-0.205558,1.107521,3.209286,1.168385,1.724472
905,9050,-0.252689,-0.205558,1.107521,3.209286,1.168385,1.724472
906,9060,-0.252689,-0.205558,1.107521,3.209286,1.168385,1.724472
907,9070,-0.252689,-0.205558,1.107521,3.209286,1.168385,1.724472
908,9080,-0.252689,-0.205558,1.107521,3.209286,1.168385,1.724472
909,9090,-0.252689,-0.205558,1.107521,3.209286,1.168385,1.724472
910,9100,-0.252689,-0.205558,1.107521,3.209286,1.168385,1.724472
911,9110,-0.252689,-0.205558,1.107521,3.209286,1.168385,1.724472
912,9120,-0.252689,-0.205558,1.107521,3.209286,1.168385,1.724472
913,9130,-0.252689,-0.205558,1.107521,3.209286,1.168385,1.724472
914,9140,-0.252689,-0.205558,1.107521,3.209286,1.168385,1.724472
915,9150,-0.252689,-0.205558,1.107521,3.209286,1.168385,1.724472
916,9160,-0.252689,-0.205558,1.107521,3.209286,1.168385,1.724472
917,9170,-0.252689,-0.205558,1.107521,3.209286,1.168385,1.724472
918,9180,-0.252689,-0.205558,1.107521,3.209286,1.168385,1.724472
919,9190,-0.252689,-0.205558,1.107521,3.209286,1.168385,1.724472
920,9200,-0.252689,-0.205558,1.107521,3.209286,1.168385,1.724472
921,9210,-0.252689,-0.205558,1.107521,3.209286,1.168385,1.724472
922,9220,-0.252689,-0.205558,1.107521,3.209286,1.168385,1.724472
923,9230,-0.252689,-0.205558,1.107521,3.209286,1.168385,1.724472
924,9240,-0.252689,-0.205558,1.107521,3.209286,1.168385,1.724472
925,9250,-0.252689,-0.205558,1.107521,3.209286,1.168385,1.724472
926,9260,-0.252689,-0.205558,1.107521,3.209286,1.168385,1.724472
927,9270,-0.252689,-0.205558,1.107521,3.209286,1.168385,1.724472
928,9280,-0.252689,-0.205558,1.107521,3.209286,1.168385,1.724472
929,9290,-0.252689,-0.205558,1.107521,3.209286,1.168385,1.724472
930,9300,-0.252689,-0.205558,1.107521,3.209286,1.168385,1.724472
931,9310,-0.252689,-0.205558,1.107521,3.209286,1.168385,1.724472
932,9320,-0.252689,-0.205558,1.107521,3.209286,1.168385,1.724472
933,9330,-0.252689,-0.205558,1.107521,3.209286,1.168385,1.724472
934,9340,-0.252689,-0.205558,1.107521,3.209286,1.168385,1.724472
935,9350,-0.252689,-0.205558,1.107521,3.209286,1.168385,1.724472
936,9360,-0.252689,-0.205558,1.107521,3.209286,1.168385,1.724472
937,9370,-0.252689,-0.205558,1.107521,3.209286,1.168385,1.724472
938,9380,-0.252689,-0.205558,1.107521,3.209286,1.168385,1.724472
939,9390,-0.252689,-0.205558,1.107521,3.209286,1.168385,1.724472
940,9400,-0.252689,-0.205558,1.107521,3.209286,1.168385,1.724472
941,9410,-0.252689,-0.205558,1.107521,3.209286,1.168385,1.724472
942,9420,-0.252689,-0.205558,1.107521,3.209286,1.168385,1.724472
943,9430,-0.252689,-0.205558,1.107521,3.209286,1.168385,1.724472
944,9440,-0.252689,-0.205558,1.107521,3.209286,1.168385,1.724472
945,9450,-0.252689,-0.205558,1.107521,3.209286,1.168385,1.724472
946,9460,-0.252689,-0.205558,1.107521,3.209286,1.168385,1.724472
947,9470,-0.252689,-0.205558,1.107521,2.898197,0.552616,2.011128
948,9480,-0.252689,-0.205558,1.107521,2.898197,0.552616,2.011128
949,9490,-0.252689,-0.205558,1.107521,2.898197,0.552616,2.011128
950,9500,-0.252689,-0.205558,1.107521,2.898197,0.552616,2.011128
951,9510,-0.252689,-0.205558,1.107521,2.898197,0.552616,2.011128
952,9520,-0.252689,-0.205558,1.107521,2.898197,0.552616,2.011128
953,9530,-0.252689,-0.205558,1.107521,2.898197,0.552616,2.011128
954,9540,-0.252689,-0.205558,1.107521,2.898197,0.552616,2.011128
955,9550,-0.252689,-0.205558,1.107521,2.898197,0.552616,2.011128
956,9560,-0.252689,-0.205558,1.107521,2.898197,0.552616,2.011128
957,9570,-0.252689,-0.205558,1.107521,2.898197,0.552616,2.011128
958,9580,-0.252689,-0.205558,1.107521,2.898197,0.552616,2.011128
959,9590,-0.252689,-0.205558,1.107521,2.898197,0.552616,2.011128
960,9600,-0.252689,-0.205558,1.107521,2.898197,0.552616,2.011128
961,9610,-0.252689,-0.205558,1.107521,2.898197,0.552616,2.011128
962,9620,-0.210961,0.45133249999999997,1.5373025,1.5426920000000002,0.3789805,2.029753
963,9630,0.221736,-0.144538,1.024553,-2.581501,1.229134,-2.077351
964,9640,0.0903245,-0.078389,0.7801210000000001,-2.307663,1.135406,-2.285099
965,9650,0.073352,-0.067888,0.748268,-2.307663,1.135406,-2.285099
966,9660,0.073352,-0.067888,0.748268,-2.307663,1.135406,-2.285099
967,9670,0.02442,-0.0329975,0.6837219999999999,-2.177753,0.347004,-2.244644
968,9680,-0.0373175,0.043620500000000006,0.628807,-2.177753,0.347004,-2.244644
969,9690,-0.017186,0.045574,0.656265,-2.177753,0.347004,-2.244644
970,9700,-0.017186,0.045574,0.656265,-2.053051,-0.948353,-1.786556
971,9710,0.0218715,0.06291250000000001,0.6805475,-1.9129945,-1.0101035,-1.6794775
972,9720,0.060929,0.080251,0.70483,-1.772938,-1.071854,-1.572399
973,9730,0.060929,0.080251,0.70483,-1.139145,-1.066513,-1.501102
974,9740,0.254459,0.270607,0.777084,-1.139145,-1.066513,-1.501102
975,9750,0.254459,0.270607,0.777084,-1.139145,-1.066513,-1.501102
976,9760,0.237121,0.329185,0.772444,-0.881329,-1.132603,-1.659851
977,9770,0.18709,0.339442,0.748512,-0.696011,-1.217785,-1.723804
978,9780,0.1548705,0.34846200000000005,0.725084,-0.6325915,-1.328602,-1.7264075
979,9790,0.040416,0.414595,0.656265,-0.553284,-1.655579,-1.66626
980,9800,0.022604,0.434116,0.650648,-0.586262,-1.704712,-1.619396
981,9810,0.004792,0.453637,0.645031,-0.586262,-1.704712,-1.619396
982,9820,-0.038889,0.563956,0.609652,-0.802555,-1.369057,-1.490421
983,9830,-0.038889,0.563956,0.609652,-0.802555,-1.369057,-1.490421
984,9840,-0.038889,0.563956,0.609652,-1.567326,-0.098267,-1.381741
985,9850,-0.038889,0.563956,0.609652,-1.567326,-0.098267,-1.381741
986,9860,-0.401561,1.170189,1.041891,-1.567326,-0.098267,-1.381741
987,9870,-0.401561,1.170189,1.041891,-1.640892,-0.566902,-1.195355
988,9880,-0.456476,1.2182819999999999,1.183193,-1.640892,-0.566902,-1.195355
989,9890,-0.511391,1.266375,1.324495,-1.640892,-0.566902,-1.195355
990,9900,-0.511391,1.266375,1.324495,-1.640892,-0.566902,-1.195355
991,9910,-0.578028,1.283576,1.6348159999999998,-1.4081095000000001,-1.0963535,-0.834799
992,9920,-0.679922,1.1869175,2.1058529999999998,-1.286144,-1.533146,-0.590267
993,9930,-0.715179,1.073058,2.266569,-1.286144,-1.533146,-0.590267
994,9940,-0.715179,1.073058,2.266569,-0.505819,-0.29740349999999993,0.18151299999999998
995,9950,-0.715179,1.073058,2.266569,0.274506,0.938339,0.953293
996,9960,-0.715179,1.073058,2.266569,0.274506,0.938339,0.953293
997,9970,-0.3576355,0.8995365,1.7842985,0.6670379999999999,1.2291335,1.148758
998,9980,-9.2e-05,0.726015,1.302028,1.05957,1.519928,1.344223
999,9990,0.007479,0.593993,1.028216,1.190548,0.934067,1.251564
