id,timestamp,acc_x,acc_y,acc_z,gyro_x,gyro_y,gyro_z
0,0,0.17256,0.4169155,1.4683765,1.422863,0.9026240000000001,-0.141859
1,10,0.0583495,0.41520599999999996,1.609556,1.412182,0.665569,-0.067291
2,20,-0.070147,0.349912,1.93952,1.763725,0.045528,0.228844
3,30,-0.059158,0.32477449999999997,1.9550115,1.9549175,-0.08918799999999999,0.33432
4,40,-0.048169,0.299637,1.970503,2.14611,-0.223904,0.439796
5,50,-0.048169,0.299637,1.970503,2.14611,-0.223904,0.439796
6,60,0.0830135,0.2041075,1.90205,3.2145595,-0.05187,0.714102
7,70,0.152932,0.182999,1.83726,3.341331,0.014687,0.723114
8,80,0.152932,0.182999,1.83726,3.341331,0.014687,0.723114
9,90,0.330101,0.268165,1.407952,3.847351,0.48666,0.623112
10,100,0.325706,0.317708,1.216374,3.933735,0.989475,0.249138
11,110,0.2728665,0.301728,1.1519504999999999,3.9827345000000003,1.0176465,0.1799105
12,120,0.220027,0.285748,1.087527,4.031734,1.045818,0.110683
13,130,0.1402335,0.2741485,0.8313885,4.1292,1.004295,0.149536
14,140,0.033089,0.315022,0.504462,3.92519,0.51857,0.402546
15,150,0.0345545,0.3096495,0.5391235,3.8329985000000004,0.427513,0.45475
16,160,0.03602,0.304277,0.573785,3.740807,0.336456,0.506954
17,170,0.162212,0.300858,0.625037,3.70142,0.293732,0.561295
18,180,0.207847,0.31087,0.589628,3.734999,0.3444005,0.593739
19,190,0.207847,0.31087,0.589628,3.719578,0.302277,0.612431
20,200,0.2451795,0.306108,0.5162905,3.719578,0.302277,0.612431
21,210,0.2682415,0.2995145,0.419769,3.778191,0.824318,0.289593
22,220,0.160502,0.297683,0.268959,3.769646,0.945682,0.16716
23,230,0.054213,0.317708,0.0632025,3.621578,1.011772,0.18198
24,240,0.04823,0.325278,0.041728,3.546944,0.990543,0.217228
25,250,0.105099,0.355773,-0.102016,3.546944,0.990543,0.217228
26,260,0.17622300000000002,0.393609,-0.29605000000000004,3.2859895000000003,0.74441,0.301342
27,270,0.20258150000000003,0.411787,-0.4379775,2.649994,0.694275,0.165024
28,280,0.227353,0.425584,-0.576471,2.649994,0.694275,0.165024
29,290,0.227353,0.425584,-0.576471,2.649994,0.694275,0.165024
30,300,0.227353,0.425584,-0.576471,2.649994,0.694275,0.165024
31,310,0.171217,0.481965,-0.470304,1.658249,0.864773,-0.085316
32,320,0.166119,0.485139,-0.459071,1.570931,0.837135,-0.107746
33,330,0.166119,0.485139,-0.459071,1.570931,0.837135,-0.107746
34,340,0.152688,0.49271,-0.510567,1.25557,0.875454,-0.17477
35,350,0.10925,0.532484,-0.584286,0.881128,0.807762,-0.17430299999999999
36,360,0.076283,0.596191,-0.688744,0.761299,0.747547,-0.167427
37,370,0.076283,0.596191,-0.688744,0.761299,0.747547,-0.167427
38,380,0.076283,0.596191,-0.688744,0.761299,0.747547,-0.167427
39,390,0.057998,0.572991,-0.633096,-0.255947,0.381184,-0.101337
40,400,0.077015,0.587644,-0.69897,-0.255947,0.381184,-0.101337
41,410,0.139012,0.531996,-0.570366,-0.5165005,0.40354749999999995,-0.023098
42,420,0.139012,0.531996,-0.570366,-0.543671,0.392933,-0.022564
43,430,0.13339600000000001,0.5230825,-0.6911705,-0.8142375,0.201139,-0.0927925
44,440,0.126314,0.523937,-0.710936,-0.87492,0.175571,-0.098133
45,450,0.121308,0.516367,-0.7305790000000001,-1.2951565,0.0493335,-0.08798600000000001
46,460,0.158304,0.480011,-0.677266,-1.715393,-0.076904,-0.077839
47,470,0.17684850000000002,0.463665,-0.624793,-1.9471075,-0.1967335,-0.1071455
48,480,0.206382,0.414351,-0.519358,-2.522888,-0.558491,-0.181179
49,490,0.206382,0.414351,-0.519358,-2.522888,-0.558491,-0.181179
50,500,0.210045,0.40714700000000004,-0.5125204999999999,-2.522888,-0.558491,-0.181179
51,510,0.213708,0.399943,-0.505683,-2.522888,-0.558491,-0.181179
52,520,0.213708,0.399943,-0.505683,-2.522888,-0.558491,-0.181179
53,530,0.213708,0.399943,-0.505683,-2.522888,-0.558491,-0.181179
54,540,0.213708,0.399943,-0.505683,-2.522888,-0.558491,-0.181179
55,550,0.213708,0.399943,-0.505683,-2.522888,-0.558491,-0.181179
56,560,0.213708,0.399943,-0.505683,-2.522888,-0.558491,-0.181179
57,570,0.213708,0.399943,-0.505683,-2.522888,-0.558491,-0.181179
58,580,0.213708,0.399943,-0.505683,-2.522888,-0.558491,-0.181179
59,590,0.213708,0.399943,-0.505683,-2.522888,-0.558491,-0.181179
60,600,0.213708,0.399943,-0.505683,-2.522888,-0.558491,-0.181179
61,610,0.213708,0.399943,-0.505683,-2.522888,-0.558491,-0.181179
62,620,0.213708,0.399943,-0.505683,-2.522888,-0.558491,-0.181179
63,630,0.213708,0.399943,-0.505683,-2.522888,-0.558491,-0.181179
64,640,0.213708,0.399943,-0.505683,-2.522888,-0.558491,-0.181179
65,650,0.213708,0.399943,-0.505683,-2.522888,-0.558491,-0.181179
66,660,0.213708,0.399943,-0.505683,-2.522888,-0.558491,-0.181179
67,670,0.213708,0.399943,-0.505683,-2.522888,-0.558491,-0.181179
68,680,0.213708,0.399943,-0.505683,-2.522888,-0.558491,-0.181179
69,690,0.213708,0.399943,-0.505683,-2.522888,-0.558491,-0.181179
70,700,0.213708,0.399943,-0.505683,-2.522888,-0.558491,-0.181179
71,710,0.213708,0.399943,-0.505683,-2.522888,-0.558491,-0.181179
72,720,0.213708,0.399943,-0.505683,-2.522888,-0.558491,-0.181179
73,730,0.213708,0.399943,-0.505683,-2.522888,-0.558491,-0.181179
74,740,0.213708,0.399943,-0.505683,-2.522888,-0.558491,-0.181179
75,750,0.213708,0.399943,-0.505683,-2.522888,-0.558491,-0.181179
76,760,0.213708,0.399943,-0.505683,-2.522888,-0.558491,-0.181179
77,770,0.213708,0.399943,-0.505683,-2.522888,-0.558491,-0.181179
78,780,0.213708,0.399943,-0.505683,-2.522888,-0.558491,-0.181179
79,790,0.213708,0.399943,-0.505683,-2.522888,-0.558491,-0.181179
80,800,0.213708,0.399943,-0.505683,-2.522888,-0.558491,-0.181179
81,810,0.213708,0.399943,-0.505683,-2.522888,-0.558491,-0.181179
82,820,0.213708,0.399943,-0.505683,-2.522888,-0.558491,-0.181179
83,830,0.213708,0.399943,-0.505683,-2.522888,-0.558491,-0.181179
84,840,0.213708,0.399943,-0.505683,-2.522888,-0.558491,-0.181179
85,850,0.213708,0.399943,-0.505683,-2.522888,-0.558491,-0.181179
86,860,0.213708,0.399943,-0.505683,-2.522888,-0.558491,-0.181179
87,870,0.213708,0.399943,-0.505683,-2.522888,-0.558491,-0.181179
88,880,0.213708,0.399943,-0.505683,-2.522888,-0.558491,-0.181179
89,890,0.213708,0.399943,-0.505683,-2.522888,-0.558491,-0.181179
90,900,0.213708,0.399943,-0.505683,-2.522888,-0.558491,-0.181179
91,910,0.213708,0.399943,-0.505683,-2.522888,-0.558491,-0.181179
92,920,0.213708,0.399943,-0.505683,-2.522888,-0.558491,-0.181179
93,930,0.213708,0.399943,-0.505683,-2.522888,-0.558491,-0.181179
94,940,0.213708,0.399943,-0.505683,-2.522888,-0.558491,-0.181179
95,950,0.213708,0.399943,-0.505683,-2.522888,-0.558491,-0.181179
96,960,0.213708,0.399943,-0.505683,-2.522888,-0.558491,-0.181179
97,970,0.213708,0.399943,-0.505683,-2.522888,-0.558491,-0.181179
98,980,0.20809149999999998,0.3659075,-0.48701700000000003,-2.522888,-0.558491,-0.181179
99,990,0.202475,0.331872,-0.468351,-2.522888,-0.558491,-0.181179
100,1000,0.202475,0.331872,-0.468351,-2.522888,-0.558491,-0.181179
101,1010,0.202475,0.331872,-0.468351,-2.522888,-0.558491,-0.181179
102,1020,0.5094985,-0.3672355,2.0422685,-0.8227825000000002,0.890875,-0.9647079999999999
103,1030,0.652632,-0.1383105,1.8793544999999998,4.259643499999999,0.5952740000000001,-0.52371
104,1040,0.641765,-0.14234,1.874348,4.281006,0.632591,-0.557289
105,1050,0.464352,-0.231413,1.94416,4.473801,0.635796,-0.66597
106,1060,0.44481550000000003,-0.2428905,1.937322,4.915867,0.410957,-0.655289
107,1070,0.425279,-0.254368,1.930484,4.915867,0.410957,-0.655289
108,1080,0.4025835,-0.2920665,1.80736,4.915867,0.410957,-0.655289
109,1090,0.379888,-0.329765,1.684236,5.681705,0.465298,-0.480518
110,1100,0.351103,-0.364198,1.269824,5.762749,1.284542,-0.294132
111,1110,0.39502899999999996,-0.35845899999999997,1.145235,5.743589500000001,1.401167,-0.286121
112,1120,0.56246,-0.291944,0.812951,5.589047,1.889496,-0.387859
113,1130,0.552936,-0.264624,0.732181,5.589047,1.889496,-0.387859
114,1140,0.552936,-0.264624,0.732181,5.589047,1.889496,-0.387859
115,1150,0.552936,-0.264624,0.732181,5.161934,1.320725,-0.78413
116,1160,0.215417,-0.239227,0.341915,5.161934,1.320725,-0.78413
117,1170,0.168057,-0.19505699999999998,0.1660885,5.161934,1.320725,-0.78413
118,1180,0.20223,-0.17723,0.114714,5.161934,1.320725,-0.78413
119,1190,0.20223,-0.17723,0.114714,5.161934,1.320725,-0.78413
120,1200,0.183915,-0.062791,0.030006,4.098759,2.352924,-0.440063
121,1210,0.183915,-0.062791,0.030006,3.862305,2.51915,-0.420971
122,1220,0.17098750000000001,-0.012256,0.020986,3.862305,2.51915,-0.420971
123,1230,0.15806,0.038279,0.011966,3.62051,2.156925,-0.372906
124,1240,0.15806,0.038279,0.011966,3.62051,2.156925,-0.372906
125,1250,0.0839905,0.1046565,-0.113356,3.5667035,1.7862225,-0.372906
126,1260,0.011019999999999999,0.178238,-0.250644,3.3259105,1.0522939999999998,-0.280781
127,1270,0.041148,0.22253,-0.253086,2.807674,0.697479,-0.033112
128,1280,0.041148,0.22253,-0.253086,2.807674,0.697479,-0.033112
129,1290,0.041148,0.22253,-0.253086,2.807674,0.697479,-0.033112
130,1300,0.041148,0.22253,-0.253086,2.807674,0.697479,-0.033112
131,1310,0.20357350000000002,0.3605505,-0.48129350000000004,2.599993,1.093817,0.009947000000000001
132,1320,0.213952,0.442923,-0.688744,2.566948,1.153431,-0.0247
133,1330,0.206748,0.45267599999999997,-0.7166895,2.566948,1.153431,-0.0247
134,1340,0.199544,0.462429,-0.744635,2.566948,1.153431,-0.0247
135,1350,0.199544,0.462429,-0.744635,2.566948,1.153431,-0.0247
136,1360,0.19600299999999998,0.4854905,-0.7996570000000001,2.04978,1.164646,-0.150871
137,1370,0.177078,0.539322,-0.844453,0.601482,0.916977,-0.357018
138,1380,0.175612,0.559316,-0.857366,0.327778,0.936203,-0.364494
139,1390,0.175612,0.559316,-0.857366,0.327778,0.936203,-0.364494
140,1400,0.17255949999999998,0.560659,-0.856511,0.07743850000000001,0.9441470000000001,-0.365028
141,1410,0.122162,0.589597,-0.858831,-0.296536,0.925522,-0.355949
142,1420,0.108762,0.624243,-0.846895,-0.698147,0.773182,-0.303745
143,1430,0.103389,0.635965,-0.832487,-0.698147,0.773182,-0.303745
144,1440,0.103389,0.635965,-0.832487,-0.698147,0.773182,-0.303745
145,1450,0.103389,0.635965,-0.832487,-0.698147,0.773182,-0.303745
146,1460,0.096063,0.6374305,-0.7382709999999999,-1.312714,-0.046062,-0.224838
147,1470,0.089958,0.631081,-0.717285,-1.531143,-0.462494,-0.187588
148,1480,0.089958,0.631081,-0.717285,-1.531143,-0.462494,-0.187588
149,1490,0.089958,0.631081,-0.717285,-1.531143,-0.462494,-0.187588
150,1500,0.089958,0.631081,-0.717285,-1.531143,-0.462494,-0.187588
151,1510,0.1344945,0.566886,-0.652495,-2.005186,-0.7506849999999999,-0.1694965
152,1520,0.179031,0.502691,-0.587705,-2.479229,-1.038876,-0.151405
153,1530,0.194416,0.399211,-0.48227,-2.692318,-0.896149,-0.203609
154,1540,0.194416,0.399211,-0.48227,-2.692318,-0.896149,-0.203609
155,1550,0.088737,0.241333,-0.449058,-3.012886,-0.800285,-0.147133
156,1560,0.0586085,0.1639515,-0.4146565,-3.313293,-0.772514,0.053139
157,1570,0.175124,0.075367,-0.270668,-3.313293,-0.772514,0.053139
158,1580,0.175124,0.075367,-0.270668,-3.313293,-0.772514,0.053139
159,1590,0.175124,0.075367,-0.270668,-3.313293,-0.772514,0.053139
160,1600,0.175124,0.075367,-0.270668,-3.313293,-0.772514,0.053139
161,1610,0.175124,0.075367,-0.270668,-3.313293,-0.772514,0.053139
162,1620,0.380621,-0.1377,-0.113005,-4.003563,-1.333942,0.353546
163,1630,0.380621,-0.1377,-0.113005,-4.728012,-1.816464,0.245934
164,1640,0.390633,-0.171125,-0.047345,-4.728012,-1.816464,0.245934
165,1650,0.4191895,-0.21579900000000002,0.0336845,-5.1450445,-1.8207360000000001,0.211821
166,1660,0.447746,-0.260473,0.114714,-5.562077,-1.825008,0.177708
167,1670,0.447746,-0.260473,0.114714,-5.790119,-1.680145,0.098934
168,1680,0.5030275,-0.37065400000000004,0.546083,-5.8427904999999996,-1.5997025,0.031309
169,1690,0.558309,-0.480835,0.977452,-5.895462,-1.51926,-0.036316
170,1700,0.5301185,-0.464611,1.375869,-5.883846,-1.669464,-0.216427
171,1710,0.501928,-0.448387,1.774286,-5.883846,-1.669464,-0.216427
172,1720,0.297897,-0.496953,1.928287,-5.343781,-1.862259,-0.401745
173,1730,0.297897,-0.496953,1.928287,-5.343781,-1.862259,-0.401745
174,1740,0.297897,-0.496953,1.928287,-4.695034,-1.507511,-0.371971
175,1750,0.216623,-0.47108249999999996,1.8475015,-4.471798,-1.2508295,-0.2654265
176,1760,0.135349,-0.445212,1.766716,-4.191084,-0.958967,-0.1098825
177,1770,0.135349,-0.445212,1.766716,-4.133606,-0.923786,-0.060883
178,1780,0.238342,-0.41824300000000003,1.5514665,-4.0127085000000005,-1.345091,0.23471799999999998
179,1790,0.341335,-0.391274,1.336217,-3.891811,-1.766396,0.530319
180,1800,0.341335,-0.391274,1.336217,-3.891811,-1.766396,0.530319
181,1810,0.45055449999999997,-0.4334905,1.5633105,-4.0030955,-1.9427015,0.523443
182,1820,0.559774,-0.475707,1.790404,-4.11438,-2.119007,0.516567
183,1830,0.559774,-0.475707,1.790404,-4.11438,-2.119007,0.516567
184,1840,0.5149935,-0.471937,1.925494,-4.0669825,-2.1163365,0.4441355
185,1850,0.470213,-0.468167,2.060584,-3.573246,-0.85249,0.250206
186,1860,0.421403,-0.430072,2.141354,-3.501816,-0.631924,0.2705
187,1870,0.421403,-0.430072,2.141354,-3.094997,-0.181313,0.369568
188,1880,0.47702,-0.258763,2.281923,-2.627296,-0.121632,0.379047
189,1890,0.47702,-0.258763,2.281923,-2.627296,-0.121632,0.379047
190,1900,0.525479,-0.19114950000000003,2.3112120000000003,-2.4355694999999997,-0.1110175,0.33966050000000003
191,1910,0.573938,-0.123536,2.340501,-1.915665,-0.014019,0.195866
192,1920,0.573938,-0.123536,2.340501,-1.915665,-0.014019,0.195866
193,1930,0.580256,-0.100367,2.328047,-1.214714,0.322571,-0.050201
194,1940,0.580256,-0.100367,2.328047,-1.214714,0.322571,-0.050201
195,1950,0.459468,0.067308,2.137446,-0.703487,0.641003,-0.102406
196,1960,0.459468,0.067308,2.137446,-0.703487,0.641003,-0.102406
197,1970,0.459468,0.067308,2.137446,-0.703487,0.641003,-0.102406
198,1980,0.45959,0.086585,2.1879655,0.077372,0.278311,-0.0975995
199,1990,0.459712,0.105862,2.238485,0.858231,-0.084381,-0.092793
200,2000,0.459712,0.105862,2.238485,0.858231,-0.084381,-0.092793
201,2010,0.576136,0.130526,2.346118,1.760521,-0.375175,-0.151405
202,2020,0.598572,0.124666,2.316355,1.931019,-0.357151,-0.156746
203,2030,0.598572,0.124666,2.316355,1.931019,-0.357151,-0.156746
204,2040,0.6310355,0.10746449999999999,2.33551,2.1041205,-0.253811,-0.20093899999999998
205,2050,0.663499,0.090263,2.354665,2.277222,-0.150471,-0.245132
206,2060,0.672046,0.044353,2.488396,2.277222,-0.150471,-0.245132
207,2070,0.672046,0.044353,2.488396,2.277222,-0.150471,-0.245132
208,2080,0.672046,0.044353,2.488396,2.277222,-0.150471,-0.245132
209,2090,0.672046,0.044353,2.488396,2.277222,-0.150471,-0.245132
210,2100,0.652022,-0.415206,2.813247,5.341911,0.556889,-0.579586
211,2110,0.651045,-0.46937300000000004,2.6599795,6.056747,0.789204,-0.465698
212,2120,0.601746,-0.526471,1.999807,6.564903,0.918045,-0.417767
213,2130,0.601746,-0.526471,1.999807,6.564903,0.918045,-0.417767
214,2140,0.601746,-0.526471,1.999807,6.564903,0.918045,-0.417767
215,2150,0.601746,-0.526471,1.999807,6.564903,0.918045,-0.417767
216,2160,0.601746,-0.526471,1.999807,6.564903,0.918045,-0.417767
217,2170,0.58392,-0.526471,1.121196,6.624584,0.881863,-0.51363
218,2180,0.396494,-0.53746,0.728518,6.225109,0.650616,-0.712833
219,2190,0.396494,-0.53746,0.728518,6.225109,0.650616,-0.712833
220,2200,0.352324,-0.515512,0.725588,6.056747,0.565434,-0.743675
221,2210,0.352324,-0.515512,0.725588,5.988588,0.550547,-0.759096
222,2220,0.352324,-0.515512,0.725588,5.920429,0.53566,-0.774517
223,2230,0.352324,-0.515512,0.725588,5.920429,0.53566,-0.774517
224,2240,0.304735,-0.512582,0.598663,5.673294,0.979862,-0.820446
225,2250,0.193439,-0.467923,0.361939,5.500726500000001,1.181736,-0.825186
226,2260,0.104855,-0.412764,0.233305,5.480499,1.42086,-0.863037
227,2270,0.104855,-0.412764,0.233305,5.480499,1.42086,-0.863037
228,2280,0.0509165,-0.37443950000000004,0.16350900000000002,5.198183,1.2599755,-0.7703115
229,2290,-0.003022,-0.336115,0.093713,4.915867,1.099091,-0.677586
230,2300,-0.003022,-0.336115,0.093713,4.915867,1.099091,-0.677586
231,2310,0.013095,-0.21264,0.052229,4.4119835,0.776386,-0.4006765
232,2320,0.013095,-0.21264,0.052229,4.342689,0.732727,-0.387859
233,2330,0.050672,-0.143805,-0.049298,4.041214,0.726318,-0.383587
234,2340,0.050672,-0.143805,-0.049298,4.041214,0.726318,-0.383587
235,2350,0.050672,-0.143805,-0.049298,4.041214,0.726318,-0.383587
236,2360,0.129244,0.084403,-0.336328,3.162422,1.030998,-0.397472
237,2370,0.1377915,0.115386,-0.4052695,3.162422,1.030998,-0.397472
238,2380,0.146339,0.146369,-0.474211,2.856674,1.126862,-0.4912
239,2390,0.146339,0.146369,-0.474211,2.856674,1.126862,-0.4912
240,2400,0.146339,0.146369,-0.474211,2.856674,1.126862,-0.4912
241,2410,0.139501,0.211785,-0.63627,2.300587,1.006432,-0.581722
242,2420,0.1109445,0.2670665,-0.7452305,2.150917,0.8988860000000001,-0.5790519999999999
243,2430,0.16734,0.343593,-0.942806,1.441956,0.728455,-0.515766
244,2440,0.16734,0.343593,-0.942806,1.441956,0.728455,-0.515766
245,2450,0.16734,0.343593,-0.942806,1.441956,0.728455,-0.515766
246,2460,0.23126,0.402874,-1.005017,0.829525,1.105499,-0.554085
247,2470,0.18380849999999999,0.4808655,-0.912647,0.2632905,1.5428255,-0.6377315
248,2480,0.12962600000000002,0.508201,-0.7915989999999999,-0.3759095,1.9423005,-0.712833
249,2490,0.109983,0.52296,-0.72803,-0.448875,1.904449,-0.704288
250,2500,0.10644200000000001,0.5268675,-0.719483,-0.4818535,1.8149945,-0.6824585000000001
251,2510,0.094354,0.562735,-0.737065,-0.529785,1.589222,-0.633926
252,2520,0.094354,0.562735,-0.737065,-0.780125,0.575047,-0.511494
253,2530,0.094354,0.562735,-0.737065,-0.780125,0.575047,-0.511494
254,2540,0.094354,0.562735,-0.737065,-0.780125,0.575047,-0.511494
255,2550,0.094354,0.562735,-0.737065,-0.780125,0.575047,-0.511494
256,2560,0.094354,0.562735,-0.737065,-0.780125,0.575047,-0.511494
257,2570,0.094354,0.562735,-0.737065,-0.780125,0.575047,-0.511494
258,2580,0.094354,0.562735,-0.737065,-0.780125,0.575047,-0.511494
259,2590,0.094354,0.562735,-0.737065,-0.780125,0.575047,-0.511494
260,2600,0.094354,0.562735,-0.737065,-0.780125,0.575047,-0.511494
261,2610,0.094354,0.562735,-0.737065,-0.780125,0.575047,-0.511494
262,2620,0.094354,0.562735,-0.737065,-0.780125,0.575047,-0.511494
263,2630,0.094354,0.562735,-0.737065,-0.780125,0.575047,-0.511494
264,2640,0.094354,0.562735,-0.737065,-0.780125,0.575047,-0.511494
265,2650,0.094354,0.562735,-0.737065,-0.780125,0.575047,-0.511494
266,2660,0.094354,0.562735,-0.737065,-0.780125,0.575047,-0.511494
267,2670,0.094354,0.562735,-0.737065,-0.780125,0.575047,-0.511494
268,2680,0.094354,0.562735,-0.737065,-0.780125,0.575047,-0.511494
269,2690,0.094354,0.562735,-0.737065,-0.780125,0.575047,-0.511494
270,2700,0.094354,0.562735,-0.737065,-0.780125,0.575047,-0.511494
271,2710,0.094354,0.562735,-0.737065,-0.780125,0.575047,-0.511494
272,2720,0.094354,0.562735,-0.737065,-0.780125,0.575047,-0.511494
273,2730,0.094354,0.562735,-0.737065,-0.780125,0.575047,-0.511494
274,2740,0.094354,0.562735,-0.737065,-0.780125,0.575047,-0.511494
275,2750,0.094354,0.562735,-0.737065,-0.780125,0.575047,-0.511494
276,2760,0.094354,0.562735,-0.737065,-0.780125,0.575047,-0.511494
277,2770,0.094354,0.562735,-0.737065,-0.780125,0.575047,-0.511494
278,2780,0.094354,0.562735,-0.737065,-0.780125,0.575047,-0.511494
279,2790,0.094354,0.562735,-0.737065,-2.146845,-0.167427,-0.3650285
280,2800,0.094354,0.562735,-0.737065,-3.513565,-0.909901,-0.218563
281,2810,0.094354,0.562735,-0.737065,-3.6451434999999996,-0.836401,-0.192461
282,2820,0.094354,0.562735,-0.737065,-3.776722,-0.762901,-0.166359
283,2830,0.094354,0.562735,-0.737065,-4.288082,-0.798149,0.025501
284,2840,0.125093,-0.164318,-0.179886,-3.6451434999999996,-0.534992,-0.183849
285,2850,0.125093,-0.164318,-0.179886,-4.715195,-0.917377,0.215092
286,2860,0.125093,-0.164318,-0.179886,-4.715195,-0.917377,0.215092
287,2870,0.125093,-0.164318,-0.179886,-4.715195,-0.917377,0.215092
288,2880,0.3656175,-0.332711,0.43318500000000004,-5.2169419999999995,-2.029552,-0.0320435
289,2890,0.606142,-0.501104,1.046256,-5.718689,-3.141727,-0.279179
290,2900,0.7173155,-0.5392915,1.305325,-5.718689,-3.141727,-0.279179
291,2910,0.828489,-0.577479,1.564394,-5.8374500000000005,-2.0561885,-0.4241085
292,2920,0.104366,0.60544,-0.942073,-5.956211,-0.97065,-0.569038
293,2930,0.104366,0.60544,-0.942073,-5.956211,-0.97065,-0.569038
294,2940,0.215417,-0.560903,2.894506,-5.956211,-0.97065,-0.569038
295,2950,0.215417,-0.560903,2.894506,-5.956211,-0.97065,-0.569038
296,2960,0.114134,-0.541611,3.127842,-2.206459,-3.291931,-0.622311
297,2970,0.114134,-0.541611,3.127842,-1.963596,1.225929,0.097866
298,2980,0.114134,-0.541611,3.127842,-1.963596,1.225929,0.097866
299,2990,0.114134,-0.541611,3.127842,-2.0563219999999998,1.504507,0.080843
300,3000,0.114134,-0.541611,3.127842,-2.149048,1.783085,0.06382
301,3010,0.548541,-0.468656,1.948311,-1.895504,1.198158,-0.022564
302,3020,0.548541,-0.468656,1.948311,-1.895504,1.198158,-0.022564
303,3030,0.548541,-0.468656,1.948311,-1.895504,1.198158,-0.022564
304,3040,0.548541,-0.468656,1.948311,-1.895504,1.198158,-0.022564
305,3050,0.548541,-0.468656,1.948311,-1.895504,1.198158,-0.022564
306,3060,0.657638,0.22472749999999997,2.287906,0.915775,0.759296,-0.4422
307,3070,0.67229,0.131259,2.171116,0.915775,0.759296,-0.4422
308,3080,0.67229,0.131259,2.171116,1.6321465,0.1414585,-0.23818999999999999
309,3090,0.67229,0.131259,2.171116,3.6162375,-0.523243,-0.319767
310,3100,0.768934,0.229856,2.428597,4.057236,0.128708,-0.336723
311,3110,0.768934,0.229856,2.428597,2.807674,-0.43272,-0.384655
312,3120,0.907061,0.1598,2.312448,4.734688,0.50148,-0.669174
313,3130,0.907061,0.1598,2.312448,4.734688,0.50148,-0.669174
314,3140,0.6235875,-0.09768099999999999,1.891076,4.734688,0.50148,-0.669174
315,3150,0.8665385,-0.0045635,2.2742459999999998,4.81513,1.060772,-0.7266525
316,3160,0.836028,-0.036417,2.293889,3.849487,1.30043,-1.085606
317,3170,0.7733140000000001,-0.1126845,2.2963310000000003,4.189882,1.0938165,-1.137276
318,3180,0.365511,-0.238006,0.483461,4.728413,0.75716,-1.211376
319,3190,0.365511,-0.238006,0.483461,4.6250055,1.7175295,-0.582323
320,3200,0.582454,-0.307085,2.033965,4.7677995,1.323395,-0.8566285
321,3210,0.582454,-0.307085,2.033965,5.259933,0.669842,-1.229401
322,3220,0.594176,-0.361756,1.926089,5.388775,0.902023,-1.215649
323,3230,0.513894,-0.020299,2.233113,5.620022,1.464519,-1.318989
324,3240,0.578562,-0.502447,1.3520750000000001,4.508381,1.325464,-0.8203794999999999
325,3250,0.616154,-0.509651,1.080445,4.57654,1.485281,-0.8299925
326,3260,0.310107,-0.589445,1.203676,6.006679,2.296448,-1.362648
327,3270,0.1888145,-0.17053,0.37401199999999996,6.056747,2.253857,-1.3072395
328,3280,0.14121,-0.604829,0.710203,6.168633,1.836224,-1.113377
329,3290,0.14121,-0.604829,0.710203,2.248383,1.221657,-0.176907
330,3300,0.14121,-0.604829,0.710203,2.248383,1.221657,-0.176907
331,3310,0.11912550000000001,-0.011034500000000003,-0.305574,6.039658,1.118317,-0.902424
332,3320,0.11389,-0.516977,0.199147,1.178932,1.070385,-0.327244
333,3330,0.1897915,-0.447654,0.23234349999999998,5.0548555,1.3100435,-0.505619
334,3340,0.265693,-0.378331,0.26554,4.866867,1.551838,-0.497608
335,3350,0.2788645,-0.3457605,0.22208699999999998,4.800777500000001,1.715927,-0.5530165
336,3360,0.292036,-0.31319,0.178634,4.734688,1.880016,-0.608425
337,3370,0.13657,0.579341,-0.84714,4.612255,1.911926,-0.704288
338,3380,0.027,-0.16137200000000002,-0.255039,4.218121,1.891632,-0.653152
339,3390,0.010898,-0.151375,-0.271889,-1.0816,0.348072,-0.259018
340,3400,-0.02732,-0.0583795,-0.27945949999999997,3.639603,1.759586,-0.367699
341,3410,-0.022558,-0.040568,-0.283855,3.639603,1.759586,-0.367699
342,3420,-0.017674,-0.01859,-0.297256,3.12624,1.291885,0.026436
343,3430,0.10168,0.576654,-0.667742,0.6281855000000001,0.16695949999999998,-0.0459955
344,3440,0.0987495,0.3294295,-0.5276609999999999,0.5865955,0.162754,-0.0342465
345,3450,0.095819,0.082205,-0.38758,3.04306,1.283474,0.049934
346,3460,0.15806,0.321371,-0.462734,2.626629,1.305771,-0.00761
347,3470,0.15806,0.321371,-0.462734,2.626629,1.305771,-0.00761
348,3480,0.146094,0.344326,-0.749977,-2.9245,-0.806561,-0.185452
349,3490,0.146094,0.344326,-0.749977,-2.9245,-0.806561,-0.185452
350,3500,0.131442,0.377263,-0.836883,-3.597813,-0.833263,0.281048
351,3510,0.12436,0.40556,-0.883495,0.815639,1.29509,-0.255814
352,3520,0.315724,-0.007143,-0.180863,0.815639,1.29509,-0.255814
353,3530,0.217722,0.227887,-0.50753,0.5040165,1.3361455,-0.28405199999999997
354,3540,0.11972,0.462917,-0.834197,-4.215584,-1.559715,0.301342
355,3550,0.106564,0.478546,-0.839081,-4.215584,-1.559715,0.301342
356,3560,0.111692,0.508552,-0.865424,-4.215584,-1.559715,0.301342
357,3570,0.138173,0.5565074999999999,-0.9240025000000001,-0.47170599999999996,1.112976,-0.360689
358,3580,0.151833,0.610324,-1.0096720000000001,-3.13385,-0.5227085,-0.1514055
359,3590,0.529981,-0.424211,0.558644,-1.00069,0.871182,-0.521107
360,3600,0.135594,0.602509,-1.043112,-5.885982,-1.548099,0.012684
361,3610,0.135594,0.602509,-1.043112,-5.885982,-1.548099,0.012684
362,3620,0.558064,-0.464993,1.458959,-1.837959,0.636864,-0.641403
363,3630,0.558064,-0.464993,1.458959,-2.380161,0.047665,-0.534859
364,3640,0.1027785,0.019230999999999998,0.5992735,-2.380161,0.047665,-0.534859
365,3650,0.114134,0.434132,-0.500311,-2.650662,-0.758629,-0.397472
366,3660,0.114134,0.434132,-0.500311,-4.138947,-2.203121,0.471706
367,3670,0.1255965,0.3925105,-0.4690835,-3.5093595,-1.654577,0.104742
368,3680,0.137059,0.350889,-0.437856,-2.879772,-1.106033,-0.262222
369,3690,0.297775,-0.0702235,0.8263825,-3.643608,-1.083603,0.234184
370,3700,0.152199,0.293318,-0.449547,-3.141861,-1.574669,-0.115223
371,3710,0.152199,0.293318,-0.449547,-3.141861,-1.574669,-0.115223
372,3720,0.49180900000000005,-0.1408745,0.7111795,-3.420906,-1.859055,0.082912
373,3730,0.62348,-0.45205,1.79138,-3.807564,-2.044506,0.234184
374,3740,0.513894,-0.020299,2.233113,-3.807564,-2.044506,0.234184
375,3750,0.513894,-0.020299,2.233113,-3.807564,-2.044506,0.234184
376,3760,0.459712,0.105862,2.238485,-4.342422,-2.115803,0.06916
377,3770,0.474364,-0.0308,-0.258947,-4.463787,-2.090301,0.034981
378,3780,0.474364,-0.0308,-0.258947,-4.463787,-2.090301,0.034981
379,3790,0.389168,-0.140386,-0.118377,-0.477581,0.645275,-0.087452
380,3800,0.369174,-0.175277,-0.057601,-4.866466,-2.098846,0.01482
381,3810,0.558064,0.148323,2.462053,-4.990101,-2.161598,0.083981
382,3820,0.325461,-0.356139,0.2609,-5.13176,-2.350254,0.327911
383,3830,0.325461,-0.356139,0.2609,-5.13176,-2.350254,0.327911
384,3840,0.469968,-0.433002,0.333367,2.7688214999999996,0.15587800000000002,-0.36663049999999997
385,3850,0.607119,-0.49793,0.751931,-5.852871,-2.027416,0.290661
386,3860,0.537796,-0.532576,1.114114,-5.852871,-2.027416,0.290661
387,3870,0.771376,-0.180161,2.970422,-5.988255,-2.109394,0.153275
388,3880,0.574533,-0.533446,1.9647800000000002,-0.8179095000000001,-1.2470915,-0.199871
389,3890,0.4007675,-0.4881615,0.673832,0.8939455000000001,-0.916376,0.021695999999999993
390,3900,0.320119,-0.517954,0.708249,-4.919739,-1.996574,0.455818
391,3910,0.42395099999999997,-0.5854305,1.0952035,-3.1865215,-0.622311,-0.038451999999999986
392,3920,0.495335,-0.653395,1.859238,-0.6256485,0.6714439999999999,-0.11302
393,3930,0.057021,-0.047162,-0.222347,-5.933914,1.250362,0.016956
394,3940,0.057021,-0.047162,-0.222347,-5.933914,1.250362,0.016956
395,3950,0.1511005,-0.339656,1.256759,2.9264355,1.1119080000000001,-0.466166
396,3960,0.24518,-0.63215,2.735865,2.856674,1.126862,-0.4912
397,3970,0.19722450000000002,-0.5505249999999999,2.751128,-1.1119750000000002,1.0165790000000001,-0.4203705
398,3980,0.129504,-0.09609399999999998,1.022111,-3.927994,-1.211376,-0.402813
399,3990,0.15049,-0.431537,2.759309,-3.699951,-1.65144,-0.362358
400,4000,0.15049,-0.431537,2.759309,-3.699951,-1.65144,-0.362358
401,4010,0.28983800000000004,-0.342708,2.7745565,-3.224907,-1.4127830000000001,-0.2206325
402,4020,0.429186,-0.253879,2.789804,-2.164936,0.286388,-0.235519
403,4030,0.313282,-0.096216,2.788583,-1.911926,0.6746479999999999,-0.2717685
404,4040,0.26677649999999997,-0.048992999999999995,2.7151235,-1.658916,1.062908,-0.308018
405,4050,0.103389,0.59033,-1.017715,-1.1796,1.45277,-0.268631
406,4060,0.19002,0.120514,2.535008,-1.07626,0.28532,-0.498676
407,4070,0.2008875,0.413985,0.7390040000000001,-0.2267075,0.7747170000000001,-0.0805095
408,4080,0.288129,0.260595,2.50891,0.703754,-0.266495,-0.018291
409,4090,0.312549,0.268165,2.293645,0.703754,-0.266495,-0.018291
410,4100,0.298385,0.27427,2.206281,0.703754,-0.266495,-0.018291
411,4110,0.1559845,0.26840949999999997,0.83931,-1.350031,-0.7959465,-0.039587
412,4120,0.167218,0.2826805,0.7316775,-0.7939435,-0.8183100000000001,0.09893400000000001
413,4130,0.320852,0.302812,1.991016,1.815929,-0.311222,0.258751
414,4140,0.412367,0.309161,1.919495,2.0614625,0.0232315,0.3455355
415,4150,0.421265,0.2950125,1.981248,-0.8131695000000001,-0.7506845,0.325308
416,4160,0.430163,0.280864,2.043001,2.286835,0.109482,0.389729
417,4170,0.430163,0.280864,2.043001,2.286835,0.109482,0.389729
418,4180,0.37768999999999997,-0.01860500000000001,1.1530494999999998,2.912083,-0.41890150000000004,0.4238415
419,4190,0.325217,-0.318074,0.263098,3.537331,-0.947285,0.457954
420,4200,0.325217,-0.318074,0.263098,3.537331,-0.947285,0.457954
421,4210,0.647138,0.051679,2.087171,4.246826,-1.472397,0.314159
422,4220,0.684226,0.03486,2.044954,4.246826,-1.472397,0.314159
423,4230,0.7226725,0.017766,1.999685,4.488621,-1.264648,0.092525
424,4240,0.7154834999999999,-0.255222,1.6942485,-0.5154324999999997,-1.2774655,0.488796
425,4250,0.745246,-0.051802,1.987109,-5.519486,-1.290283,0.885067
426,4260,0.7271905,-0.11183000000000001,2.0471525,4.610653,-0.2649595,-0.40014249999999996
427,4270,0.6592255,-0.312076,1.8794765,4.8929694999999995,0.271368,-0.6196405
428,4280,0.767713,-0.187243,1.991016,5.068207,0.492935,-0.724583
429,4290,0.767713,-0.187243,1.991016,-3.7064269999999997,-0.4716395,0.8946799999999999
430,4300,0.622259,-0.213861,1.52584,5.281296,0.880795,-1.070785
431,4310,0.543412,-0.218958,1.452854,5.247116,1.049023,-1.216717
432,4320,0.386481,-0.256566,1.378434,5.2492525,1.117783,-1.1772635
433,4330,0.386481,-0.256566,1.378434,5.489979,0.954227,-1.017513
434,4340,0.386481,-0.256566,1.378434,-1.559849,0.606957,-0.396404
435,4350,0.2950885,-0.3136635,1.184781,2.009792,0.7310585,-0.683527
436,4360,0.203696,-0.370761,0.991128,5.579433,0.85516,-0.97065
437,4370,0.203696,-0.370761,0.991128,5.702,0.647411,-0.877857
438,4380,0.203696,-0.370761,0.991128,1.105366,0.609093,-0.404949
439,4390,0.812127,0.211541,2.393951,1.105366,0.609093,-0.404949
440,4400,0.812127,0.211541,2.393951,3.2769779999999997,-0.04599550000000001,-0.5962085
441,4410,0.995645,0.090508,2.201153,5.209865499999999,0.9014895,-0.9301284999999999
442,4420,0.995645,0.090508,2.201153,5.01173,1.052227,-0.950356
443,4430,0.090691,-0.186754,-0.061264,5.01173,1.052227,-0.950356
444,4440,0.330849,-0.254108,0.962556,4.385281,1.254635,-0.97065
445,4450,0.571007,-0.321462,1.986376,4.385281,1.254635,-0.97065
446,4460,0.30913,-0.1777185,0.941936,3.792009,1.399031,-0.964241
447,4470,0.026633,-0.009569999999999999,-0.11361550000000001,3.460693,1.542826,-0.9508894999999999
448,4480,-0.004731,0.04704,-0.133518,3.162422,1.706314,-0.908833
449,4490,-0.004731,0.04704,-0.133518,3.162422,1.706314,-0.908833
450,4500,0.004304499999999999,0.138326,-0.10056599999999999,3.6103629999999995,1.789961,-0.7522205
451,4510,0.01334,0.229612,-0.067614,4.058304,1.873608,-0.595608
452,4520,0.019674,0.262808,-0.100932,3.413296,1.551304,-0.173769
453,4530,-0.016575,0.381536,-0.248217,2.403927,2.146244,-0.717106
454,4540,-0.024512,0.433399,-0.333886,2.088699,2.238903,-0.625381
455,4550,-0.0265875,0.453897,-0.374027,2.017269,2.0983125,-0.5684374999999999
456,4560,0.043453000000000006,0.45524,-0.6568905,1.9224070000000002,1.8671989999999998,-0.4832555
457,4570,-0.026954,0.491977,-0.473479,1.898975,1.776676,-0.455017
458,4580,0.051893,0.519786,-0.633584,1.758385,1.376133,-0.322971
459,4590,0.051893,0.519786,-0.633584,0.891275,1.295157,-0.28565399999999996
460,4600,0.051893,0.519786,-0.633584,0.101871,1.390019,-0.310154
461,4610,0.051893,0.519786,-0.633584,0.7559585,1.1417484999999998,-0.223837
462,4620,0.156839,0.533461,-0.888868,1.151161,1.049023,-0.095997
463,4630,0.156839,0.533461,-0.888868,0.925388,1.540089,-0.220699
464,4640,0.485567,0.550067,-0.897659,-1.207237,0.824318,-0.569038
465,4650,0.352568,0.607882,-1.057246,0.406551,1.944904,-0.642471
466,4660,0.211617,0.5646885,-0.8481015,-0.9404755,1.0836695,-0.6046865
467,4670,0.070666,0.521495,-0.638957,-2.287502,0.222435,-0.566902
468,4680,0.200033,0.613743,-1.268115,-0.121765,1.14275,-0.652084
469,4690,0.200033,0.613743,-1.268115,-0.121765,1.14275,-0.652084
470,4700,0.200033,0.613743,-1.268115,-3.321838,-1.787758,0.011616
471,4710,0.280803,0.524426,-0.758769,-3.5178374999999997,-1.8932345,0.120764
472,4720,0.30864199999999997,0.336252,-0.6343015000000001,-1.350098,-0.214291,-0.431519
473,4730,0.30156,0.30111750000000004,-0.5926955,0.46836849999999997,-0.05240450000000001,-0.020894999999999997
474,4740,0.193683,0.450249,-0.826382,2.286835,0.109482,0.389729
475,4750,0.139012,0.417037,-0.831022,-3.7021545,-1.195421,-0.119963
476,4760,0.139012,0.417037,-0.831022,-2.502594,-0.097198,-0.41029
477,4770,0.0930105,0.3635875,-0.7929415,-4.1777325,-1.0623070000000001,-0.05981449999999999
478,4780,0.0462765,0.29391350000000005,-0.7331425,-4.169788,-1.6002365,-0.0837805
479,4790,0.045544,0.277689,-0.711424,-4.749241,0.467434,-0.391064
480,4800,0.0854405,0.3777515,-0.868843,-3.15134,-2.076416,-0.167427
481,4810,-0.044018,0.110013,-0.490085,-3.445473,-1.07399,-0.301609
482,4820,-0.050123,0.0968415,-0.463482,-3.5679724999999998,-1.387749,-0.200405
483,4830,-0.033303,0.030953,-0.303849,-3.795948,-2.104187,0.151138
484,4840,-0.033303,0.030953,-0.303849,-3.822517,-2.325687,0.419636
485,4850,-0.033303,0.030953,-0.303849,-3.822517,-2.325687,0.419636
486,4860,-0.033303,0.030953,-0.303849,-3.822517,-2.325687,0.419636
487,4870,-0.033303,0.030953,-0.303849,-3.822517,-2.325687,0.419636
488,4880,0.0768935,-0.1654015,0.420273,-0.03391250000000001,-1.7366215,0.429182
489,4890,0.569542,-0.153329,-0.133762,3.754692,-1.147556,0.438728
490,4900,0.671802,-0.0907215,0.894698,-4.7658635,-1.741896,0.342865
491,4910,0.774062,-0.028114,1.923158,-4.888897,-2.07428,0.234184
492,4920,0.6260295,-0.19554549999999998,0.990502,-5.2728845,-2.6847079999999997,0.149002
493,4930,0.6606909999999999,-0.329903,1.1839255,-5.656872,-3.295136,0.06382
494,4940,0.553669,-0.472563,0.376835,-5.656872,-3.295136,0.06382
495,4950,0.673023,-0.601899,0.697016,5.068207,0.492935,-0.724583
496,4960,0.673023,-0.601899,0.697016,5.068207,0.492935,-0.724583
497,4970,0.754526,-0.681204,0.943997,5.192776,1.155567,-1.222057
498,4980,0.5999304999999999,-0.661454,1.283973,-6.212959,-1.592827,-0.089588
499,4990,0.211022,-0.351988,1.207583,-6.212959,-1.592827,-0.089588
500,5000,0.34208249999999996,-0.5135585,1.5478035,-6.244936,-1.127262,-0.1343155
501,5010,0.473143,-0.675129,1.888024,-6.276913,-0.661697,-0.179043
502,5020,0.4472575,-0.669131,2.3198815,-6.276913,-0.661697,-0.179043
503,5030,0.2870455,-0.47888200000000003,1.5548855,-6.276913,-0.661697,-0.179043
504,5040,0.368197,-0.63215,2.720023,-5.150852,-2.616482,-0.212154
505,5050,0.368197,-0.63215,2.720023,-5.150852,-2.616482,-0.212154
506,5060,0.072131,-0.123536,-0.114226,-2.8174875,-3.0718995,0.6586935
507,5070,0.072131,-0.123536,-0.114226,-2.632637,-2.230892,0.925522
508,5080,0.072131,-0.123536,-0.114226,-2.632637,-2.230892,0.925522
509,5090,0.072131,-0.123536,-0.114226,-0.15747999999999984,-0.01889199999999991,0.11275299999999999
510,5100,0.051893,0.519786,-0.633584,-3.319702,-0.173836,1.132202
511,5110,0.051893,0.519786,-0.633584,-3.319702,-0.173836,1.132202
512,5120,0.180985,0.53224,-0.750222,-3.820381,0.881863,0.598545
513,5130,0.403698,0.15639650000000002,0.648099,1.226864,0.949955,-0.097065
514,5140,0.542451,0.16237949999999998,0.5914744999999999,-1.0315320000000001,0.3267765,0.090389
515,5150,0.458491,0.544206,-0.863471,-2.958546,-0.750217,0.241661
516,5160,0.458491,0.544206,-0.863471,0.304279,1.816063,-0.67131
517,5170,0.669848,-0.078145,2.268522,-1.785221,-0.44073100000000004,-0.0880525
518,5180,0.70425,-0.020788,2.388334,-1.235008,-0.105743,-0.456085
519,5190,0.70425,-0.020788,2.388334,-1.6754725,-0.36930050000000003,-0.43746
520,5200,0.7120645000000001,-0.0093255,2.4121284999999997,-1.655779,0.11749300000000001,-0.180712
521,5210,0.719879,0.002137,2.435923,-1.530075,0.59948,0.089321
522,5220,0.632974,0.157358,2.49792,-0.689602,1.237545,-0.279179
523,5230,0.632974,0.157358,2.49792,-0.689602,1.237545,-0.279179
524,5240,0.632974,0.157358,2.49792,-0.689602,1.237545,-0.279179
525,5250,0.561346,0.160655,2.603599,-0.11382100000000003,0.927057,-0.3021435
526,5260,0.048718,-0.022253,-0.228696,-3.899155,-2.26387,0.704021
527,5270,0.048718,-0.022253,-0.228696,-3.899155,-2.26387,0.704021
528,5280,0.315235,-0.130618,-0.212823,2.008724,0.014687,-0.200405
529,5290,0.391503,-0.009936000000000007,1.0694555,-4.236879500000001,-1.4798740000000001,0.8355330000000001
530,5300,0.478485,-0.152108,-0.131564,2.554131,-0.09079,-0.05127
531,5310,0.478485,-0.152108,-0.131564,2.923765,-0.26282300000000003,0.0536725
532,5320,0.676198,-0.005434,2.691451,-5.978642,-3.643475,0.124435
533,5330,0.6886369999999999,-0.024222,2.732462,-6.058016,-3.6338619999999997,0.138855
534,5340,0.701076,-0.04301,2.773473,-6.1602879999999995,-3.2231715,0.106411
535,5350,0.701076,-0.04301,2.773473,-6.183186,-2.822094,0.059547
536,5360,0.866554,-0.252658,2.79249,-0.9516240000000002,-1.1304665,-0.14292749999999999
537,5370,0.496312,-0.667559,1.595408,-6.221504,-1.224194,-0.1227
538,5380,0.6723975,-0.5497920000000001,1.8863145,-5.845461,-1.6705325000000002,-0.1865865
539,5390,0.539261,-0.4942665,2.4311765000000003,0.16849500000000006,-0.36396050000000013,-0.5599595
540,5400,0.801626,-0.453515,2.079845,5.806408,1.38895,-0.869446
541,5410,0.59906,-0.506965,1.783566,6.049271,1.85545,-0.916309
542,5420,0.29863,-0.459132,2.229206,1.844702,-1.083002,-0.13278049999999997
543,5430,0.365266,-0.351744,1.598582,-2.716751,-3.705158,0.531387
544,5440,0.420914,-0.58334,1.438721,6.406155,1.539154,-0.796948
545,5450,0.579768,-0.29634,1.658351,6.406155,1.539154,-0.796948
546,5460,0.579768,-0.29634,1.658351,6.406155,1.539154,-0.796948
547,5470,0.294722,-0.650953,0.718994,-3.59354,0.318298,0.401478
548,5480,0.294722,-0.650953,0.718994,-3.59354,0.318298,0.401478
549,5490,0.589292,-0.143561,2.216293,-3.1876565,-0.27397150000000003,0.327978
550,5500,0.589292,-0.143561,2.216293,-2.781773,-0.866241,0.254478
551,5510,0.589292,-0.143561,2.216293,-2.781773,-0.866241,0.254478
552,5520,0.087028,-0.55431,0.292372,5.545387,1.428337,-0.633926
553,5530,0.087028,-0.55431,0.292372,5.462341,1.459179,-0.591335
554,5540,0.052,-0.502936,0.21170850000000002,5.462341,1.459179,-0.591335
555,5550,0.30729850000000003,-0.1665005,1.256637,5.02882,1.180134,-0.386791
556,5560,0.03895,-0.396402,0.077351,5.02882,1.180134,-0.386791
557,5570,0.0474975,-0.2724235,-0.12057500000000002,4.6681975,0.92659,-0.3910635
558,5580,0.056045,-0.183824,-0.280436,4.307575,0.673046,-0.395336
559,5590,0.056045,-0.183824,-0.280436,4.307575,0.673046,-0.395336
560,5600,0.07349,-0.145148,-0.2810465,5.4308985,0.8269880000000001,-0.558891
561,5610,0.090935,-0.106472,-0.281657,6.606426,0.578251,-0.758629
562,5620,0.1021685,-0.0730315,-0.291532,4.873209,1.171589,-0.5524825
563,5630,0.10644200000000001,0.005677999999999999,-0.33924350000000003,6.430588,0.451412,-1.004696
564,5640,0.173659,-0.657058,0.526684,3.027172,1.833153,-0.337791
565,5650,0.118759,-0.5986020000000001,0.387931,2.7235605,1.731949,-0.2877235
566,5660,0.11389,0.277445,-0.575983,2.188702,1.355839,-0.213223
567,5670,0.102413,0.017522,-0.352171,2.007656,1.128998,-0.216427
568,5680,0.138036,0.16419599999999998,-0.5086135,1.965065,1.0895445000000001,-0.215893
569,5690,0.173659,0.31087,-0.665056,1.922474,1.050091,-0.215359
570,5700,0.244325,0.3635875,-0.847124,1.770134,1.0282615000000002,-0.224905
571,5710,0.260076,0.376774,-0.922537,1.1974909999999999,1.14542,-0.28405199999999997
572,5720,0.278361,0.394357,-0.965731,1.096821,1.199226,-0.293064
573,5730,0.3550095,0.4575445,-0.9482855,0.39166449999999997,1.6195295,-0.4043485
574,5740,0.364045,0.463894,-0.935236,0.304279,1.667995,-0.427246
575,5750,0.364045,0.463894,-0.935236,0.304279,1.667995,-0.427246
576,5760,0.343532,0.5020965,-0.894103,0.017223000000000016,1.7388245,-0.540199
577,5770,0.295699,0.551288,-0.855412,-0.269833,1.809654,-0.653152
578,5780,0.295699,0.551288,-0.855412,-0.269833,1.809654,-0.653152
579,5790,0.188799,0.570305,-0.946713,-0.665035,1.369724,-0.72979
580,5800,0.14255299999999999,0.5655429999999999,-0.9669665000000001,-1.0197829999999999,0.879192,-0.647812
581,5810,0.096307,0.560781,-0.98722,-1.374531,0.38866,-0.565834
582,5820,0.096307,0.560781,-0.98722,-1.5242005,0.1696965,-0.5098914999999999
583,5830,0.263983,0.439504,-0.747077,-2.254391,-0.632992,-0.33886
584,5840,0.263983,0.439504,-0.747077,-2.254391,-0.632992,-0.33886
585,5850,0.263983,0.439504,-0.747077,-2.254391,-0.632992,-0.33886
586,5860,0.269218,0.4282705,-0.7386524999999999,-2.304993,-0.6510830000000001,-0.3442005
587,5870,0.260076,0.347959,-0.691674,-2.663479,-0.673447,-0.400677
588,5880,0.239929,0.265357,-0.68215,-3.0736350000000003,-0.6995485,-0.453949
589,5890,0.237365,0.249606,-0.682638,-3.141861,-0.708561,-0.461426
590,5900,0.2229725,0.2038485,-0.6463895,-3.5279845,-0.717106,-0.4406645
591,5910,0.20858,0.158091,-0.610141,-3.914108,-0.725651,-0.419903
592,5920,0.166852,0.089287,-0.489352,-4.046288,-0.762901,-0.371971
593,5930,0.1782985,-0.0206805,-0.2870145,-4.443025499999999,-1.1352734999999998,-0.1301095
594,5940,0.178787,-0.048138,-0.235045,-4.514923,-1.250897,-0.067291
595,5950,0.178787,-0.048138,-0.235045,-4.514923,-1.250897,-0.067291
596,5960,0.219798,-0.14697949999999999,-0.0183,-4.569263,-1.355305,0.004139
597,5970,0.281535,-0.23532,0.055159,-4.791965,-1.768532,0.399342
598,5980,0.281535,-0.23532,0.055159,-4.791965,-1.768532,0.399342
599,5990,0.281535,-0.23532,0.055159,-4.791965,-1.768532,0.399342
600,6000,0.281535,-0.23532,0.055159,-4.791965,-1.768532,0.399342
601,6010,0.44750199999999996,-0.3164715,0.177917,-5.5200195,-1.8495085,0.242729
602,6020,0.472166,-0.484987,0.5218,-5.376759,-1.8676,0.315227
603,6030,0.472166,-0.484987,0.5218,-5.376759,-1.8676,0.315227
604,6040,0.472166,-0.484987,0.5218,-5.912552,-1.869736,0.079708
605,6050,0.472166,-0.484987,0.5218,-5.912552,-1.869736,0.079708
606,6060,0.382574,-0.542588,0.784654,-6.359959,-2.267075,0.083981
607,6070,0.4318725,-0.6574245,1.2458005,-6.3237765,-2.2127345,0.14259349999999998
608,6080,0.486788,-0.787615,1.833841,-6.236458000000001,-2.0796205,0.198002
609,6090,0.486788,-0.787615,1.833841,-6.185322,-2.000847,0.194798
610,6100,0.44238900000000003,-0.7589520000000001,2.0715575,-6.048403,-1.803713,0.1767065
611,6110,0.422624,-0.748329,2.111103,-5.743256,-1.397896,0.136185
612,6120,0.33817549999999996,-0.728686,2.117559,-5.430565,-1.1277965,0.135651
613,6130,0.172682,-0.608492,1.98369,-4.618263,-0.943012,0.284252
614,6140,0.179764,-0.573358,1.964398,-4.521332,-1.129398,0.346069
615,6150,0.179764,-0.573358,1.964398,-4.4345475,-1.3861465,0.40147750000000004
616,6160,0.240296,-0.550158,1.995412,-4.149494,-2.20005,0.539932
617,6170,0.3669605,-0.536849,2.057638,-4.0259265,-2.3997875,0.5516814999999999
618,6180,0.562811,-0.4885275,2.1709940000000003,-3.7724495,-2.2863005,0.623579
619,6190,0.631997,-0.453515,2.222124,-3.64254,-1.973076,0.683727
620,6200,0.6444515,-0.42886599999999997,2.2656989999999997,-3.64254,-1.973076,0.683727
621,6210,0.8444685000000001,-0.29121149999999996,2.6115205,-3.360157,-0.609493,0.905361
622,6220,0.868263,-0.272408,2.642397,-3.2637595,-0.4540155,0.89735
623,6230,0.946835,-0.117187,2.646792,-2.434502,0.325775,0.660362
624,6240,0.946835,-0.117187,2.646792,-2.1117310000000002,0.31242349999999997,0.4685685
625,6250,0.9490485,0.0853645,2.464251,-1.6153240000000002,0.222368,0.124502
626,6260,0.928307,0.126131,2.417883,-1.441688,0.145664,-0.027771
627,6270,0.814691,0.1623795,2.3879675000000002,-0.9825325,0.0903225,-0.3910635
628,6280,0.727938,0.183732,2.375147,-0.685329,0.091324,-0.608425
629,6290,0.727938,0.183732,2.375147,-0.685329,0.091324,-0.608425
630,6300,0.6410475,0.1853195,2.432382,-0.685329,0.091324,-0.608425
631,6310,0.5171755,0.189822,2.585528,-0.22296899999999997,0.288458,-0.548744
632,6320,0.519267,0.191791,2.525027,0.837002,0.561161,-0.337791
633,6330,0.519267,0.191791,2.525027,1.713657,0.533524,-0.13752
634,6340,0.519267,0.191791,2.525027,1.713657,0.533524,-0.13752
635,6350,0.608584,0.216181,2.431772,1.713657,0.533524,-0.13752
636,6360,0.6437185000000001,0.2061685,2.446424,2.1136665,0.2773095,-0.0917245
637,6370,0.678853,0.196156,2.461076,2.513676,0.021095,-0.045929
638,6380,0.8646,-0.049604,2.86108,3.847351,-0.397606,-0.328178
639,6390,0.8646,-0.049604,2.86108,3.847351,-0.397606,-0.328178
640,6400,0.9170579999999999,-0.125505,2.7992055,4.076462,-0.245266,-0.394268
641,6410,0.938777,-0.161632,2.747587,4.477005,0.296936,-0.527382
642,6420,0.9182790000000001,-0.24398949999999997,2.5391755,4.7949695000000006,1.5065765,-0.7032205
643,6430,0.887769,-0.294631,2.407138,4.964867,2.347584,-0.811901
644,6440,0.887769,-0.294631,2.407138,4.964867,2.347584,-0.811901
645,6450,0.887769,-0.294631,2.407138,4.964867,2.347584,-0.811901
646,6460,0.7618365,-0.3662585,2.275589,5.2567295000000005,2.7774335,-0.8609009999999999
647,6470,0.635904,-0.437886,2.14404,5.718021,3.11676,-0.893879
648,6480,0.32620899999999997,-0.5735865,1.5636614999999998,6.0737705,2.234163,-0.7463455
649,6490,0.237854,-0.622412,1.360362,6.42952,1.351566,-0.598812
650,6500,0.257863,-0.6669484999999999,1.3116745,6.454086,1.056499,-0.527382
651,6510,0.277872,-0.711485,1.262987,6.454086,1.056499,-0.527382
652,6520,0.265693,-0.776168,0.942043,6.67779,0.46422949999999996,-0.38465499999999997
653,6530,0.265693,-0.776168,0.942043,6.77372,0.357685,-0.3932
654,6540,0.265693,-0.776168,0.942043,6.81097,0.368366,-0.407085
655,6550,0.265693,-0.776168,0.942043,6.81097,0.368366,-0.407085
656,6560,0.191241,-0.794209,0.435383,6.709766,0.579319,-0.372906
657,6570,0.191241,-0.794209,0.435383,6.709766,0.579319,-0.372906
658,6580,0.190997,-0.614109,0.034158,6.709766,0.579319,-0.372906
659,6590,0.190997,-0.614109,0.034158,6.709766,0.579319,-0.372906
660,6600,0.182572,-0.511605,-0.078099,5.986986,0.8413410000000001,-0.4144955
661,6610,0.174147,-0.409101,-0.190356,5.076752,1.139679,-0.483723
662,6620,0.150719,-0.36699099999999996,-0.210503,4.8935035,1.1865425,-0.4911995
663,6630,0.127291,-0.324881,-0.23065,4.710255,1.233406,-0.498676
664,6640,0.122651,-0.291944,-0.252353,4.559517,1.2775995,-0.498676
665,6650,0.122651,-0.291944,-0.252353,4.408779,1.321793,-0.498676
666,6660,0.110471,-0.084738,-0.50666,3.513966,1.528473,-0.515766
667,6670,0.100703,-0.028235999999999997,-0.555592,3.254013,1.5476320000000001,-0.48272099999999996
668,6680,0.11069999999999999,0.0588985,-0.627586,2.740583,1.5785405,-0.4171655
669,6690,0.130465,0.089531,-0.650648,2.487106,1.59029,-0.384655
670,6700,0.1402335,0.105389,-0.6623695,2.487106,1.59029,-0.384655
671,6710,0.167798,0.175429,-0.733646,2.320881,1.583881,-0.387859
672,6720,0.174147,0.240357,-0.781235,1.355705,1.613655,-0.46463
673,6730,0.1708655,0.25047600000000003,-0.780991,1.285944,1.6179275,-0.472574
674,6740,0.167584,0.260595,-0.780747,1.216183,1.6222,-0.480518
675,6750,0.148781,0.299881,-0.781968,0.976524,1.583881,-0.492268
676,6760,0.122162,0.366274,-0.813684,0.558891,1.326065,-0.436859
677,6770,0.122162,0.366274,-0.813684,0.558891,1.326065,-0.436859
678,6780,0.156107,0.418258,-0.772932,0.170097,0.942478,-0.324039
679,6790,0.146094,0.462429,-0.824917,0.170097,0.942478,-0.324039
680,6800,0.175368,0.494419,-0.874216,-0.053673,0.764637,-0.265427
681,6810,0.1877005,0.5095445,-0.8871585,-0.17830849999999998,0.687933,-0.2547455
682,6820,0.18867699999999998,0.5655585000000001,-0.9423025,-0.6879995,0.4146955,-0.23712149999999999
683,6830,0.172926,0.579829,-0.956939,-0.930328,0.305481,-0.230179
684,6840,0.1867235,0.5837365000000001,-0.925956,-1.1023615,0.2522085,-0.22223500000000002
685,6850,0.238342,0.5958095000000001,-0.8230855,-1.5322114999999998,0.032243499999999994,-0.274439
686,6860,0.276163,0.603975,-0.751198,-1.790028,-0.134449,-0.334587
687,6870,0.2814135,0.5984955000000001,-0.7451085,-1.8433,-0.1829145,-0.366564
688,6880,0.240784,0.521739,-0.702144,-2.256527,-0.441265,-0.600948
689,6890,0.240784,0.521739,-0.702144,-2.533569,-0.488129,-0.688267
690,6900,0.240784,0.521739,-0.702144,-2.817955,-0.394402,-0.736198
691,6910,0.13768450000000002,0.3624885,-0.5569505,-3.075771,-0.233517,-0.758629
692,6920,0.111448,0.318196,-0.492038,-3.179111,-0.1717,-0.763969
693,6930,0.033578,0.254246,-0.401958,-3.38686,-0.165291,-0.751152
694,6940,0.033578,0.254246,-0.401958,-3.38686,-0.165291,-0.751152
695,6950,-0.091362,0.142004,-0.386848,-3.844948,-0.876923,-0.270767
696,6960,-0.129458,0.105618,-0.32656,-3.844948,-0.876923,-0.270767
697,6970,0.076527,0.104641,-0.055159,-4.097424,-1.641827,0.267296
698,6980,0.1216895,0.1002455,-0.0374695,-4.0963555,-1.7488385,0.3034785
699,6990,0.166852,0.09585,-0.01978,-4.095287,-1.85585,0.339661
700,7000,0.289106,0.048749,-0.017338,-4.071789,-2.173348,0.38332
701,7010,0.357696,0.015568,-0.053938,-4.118652,-2.32996,0.357819
702,7020,0.4183345,-0.0690025,-0.0214745,-4.396162,-2.2079945,0.2885915
703,7030,0.478973,-0.153573,0.010989,-4.673672,-2.086029,0.219364
704,7040,0.478973,-0.153573,0.010989,-4.9762155,-1.79677,0.130911
705,7050,0.422624,-0.258519,0.255284,-5.278759,-1.507511,0.042458
706,7060,0.395273,-0.302934,0.455652,-5.439644,-1.358375,0.013752
707,7070,0.381597,-0.353453,0.767804,-5.561008,-1.620464,0.062752
708,7080,0.381597,-0.353453,0.767804,-5.561008,-1.620464,0.062752
709,7090,0.381597,-0.353453,0.767804,-5.561008,-1.620464,0.062752
710,7100,0.381597,-0.353453,0.767804,-5.561008,-1.620464,0.062752
711,7110,0.381597,-0.353453,0.767804,-5.561008,-1.620464,0.062752
712,7120,0.381597,-0.353453,0.767804,-5.561008,-1.620464,0.062752
713,7130,0.44969950000000003,-0.41335900000000003,1.3508535,-5.286169,-1.8601895000000002,-0.0437925
714,7140,0.517802,-0.473265,1.933903,-5.01133,-2.099915,-0.150337
715,7150,0.617131,-0.451806,1.485822,-4.797306,-2.070007,-0.146065
716,7160,0.491183,-0.434956,1.794799,-4.797306,-2.070007,-0.146065
717,7170,0.556355,-0.400798,1.82041,-4.339218,-1.84103,-0.094929
718,7180,0.556355,-0.400798,1.82041,-4.411115499999999,-1.628475,-0.11889449999999999
719,7190,0.5602625,-0.3891985,1.9147485,-4.483013,-1.41592,-0.14286
720,7200,0.56417,-0.377599,2.009087,-4.483013,-1.41592,-0.14286
721,7210,0.4692205,-0.3883435,2.2638670000000003,-4.594898,-0.76931,-0.317631
722,7220,0.39673800000000004,-0.392251,2.3002225000000003,-3.7927435000000003,-0.4273795,-0.5689715
723,7230,0.309863,-0.380773,2.177954,-3.203545,-0.506287,-0.570106
724,7240,0.26628799999999997,-0.32512549999999996,2.027006,-2.971363,-0.640469,-0.47204
725,7250,0.222713,-0.269478,1.876058,-2.739181,-0.774651,-0.373974
726,7260,0.328148,-0.214593,1.81113,-2.735977,-0.774651,-0.213223
727,7270,0.390877,-0.209953,1.846296,-2.816887,-0.610561,-0.126972
728,7280,0.47995,-0.187731,2.021267,-2.871227,-0.124836,-0.20895
729,7290,0.47995,-0.187731,2.021267,-2.871227,-0.124836,-0.20895
730,7300,0.4278435,-0.1502765,2.295232,-2.795591,0.069027,-0.300541
731,7310,0.336695,-0.101344,2.585284,-1.86346,0.692139,-0.59454
732,7320,0.28703,-0.0797475,2.552347,-1.304169,0.836067,-0.621243
733,7330,0.237365,-0.058151,2.51941,-1.1832715,0.8573625,-0.6100275
734,7340,0.237365,-0.058151,2.51941,-1.062374,0.878658,-0.598812
735,7350,0.133518,0.016284999999999997,2.398713,-0.5510805,0.8813285,-0.394268
736,7360,0.029671,0.090721,2.278016,-0.039787,0.883999,-0.189724
737,7370,0.029671,0.090721,2.278016,-0.039787,0.883999,-0.189724
738,7380,0.099482,0.166882,2.318065,0.557289,0.315094,0.06061549999999999
739,7390,0.099482,0.166882,2.318065,1.154365,-0.253811,0.310955
740,7400,0.099482,0.166882,2.318065,1.154365,-0.253811,0.310955
741,7410,0.099482,0.166882,2.318065,1.154365,-0.253811,0.310955
742,7420,0.277521,0.14295,2.245323,1.642227,-0.698013,0.413227
743,7430,0.292524,0.142706,2.237753,1.642227,-0.698013,0.413227
744,7440,0.357574,0.11866750000000001,2.2438580000000004,2.6548005,-1.2657829999999999,0.516567
745,7450,0.510598,0.0621805,2.2432475,3.259354,-0.86998,0.391331
746,7460,0.598572,0.029732,2.236532,2.732105,-1.298828,0.528183
747,7470,0.647748,0.0247255,2.1993215,2.732105,-1.298828,0.528183
748,7480,0.748909,-0.007631,2.172581,3.65242,0.038185,-0.157814
749,7490,0.770887,-0.034707,2.229694,3.711033,0.448208,-0.37611
750,7500,0.76991,-0.08718,2.326826,3.711033,0.448208,-0.37611
751,7510,0.711821,-0.162853,2.414464,4.062576,0.988407,-0.798016
752,7520,0.5944355,-0.24411149999999998,2.3483155,4.507847,1.207304,-0.935936
753,7530,0.485704,-0.30426149999999996,2.212249,4.9280835,1.394758,-0.9785935
754,7540,0.446769,-0.320974,2.147703,5.071411,1.461315,-0.967445
755,7550,0.3957615,-0.422395,1.9108415,5.421886499999999,1.776142,-0.8571625
756,7560,0.378423,-0.44912,1.82969,5.519886,1.876812,-0.814037
757,7570,0.378423,-0.44912,1.82969,5.519886,1.876812,-0.814037
758,7580,0.334497,-0.531111,1.439698,6.016293,2.09404,-0.578518
759,7590,0.334497,-0.531111,1.439698,6.016293,2.09404,-0.578518
760,7600,0.266181,-0.569695,1.273976,6.016293,2.09404,-0.578518
761,7610,0.223201,-0.591398,1.08362,6.338997,1.608315,-0.426178
762,7620,0.223201,-0.591398,1.08362,6.212292,1.896973,-0.523243
763,7630,0.223201,-0.591398,1.08362,6.212292,1.896973,-0.523243
764,7640,0.223201,-0.591398,1.08362,6.212292,1.896973,-0.523243
765,7650,0.197835,-0.606295,0.784654,6.415234,1.290283,-0.31008749999999996
766,7660,0.197835,-0.606295,0.784654,6.406155,1.341953,-0.332451
767,7670,0.109983,-0.562613,0.356322,6.406155,1.341953,-0.332451
768,7680,0.214441,-0.463039,0.172529,5.534706,1.363316,0.163956
769,7690,0.276163,-0.396646,0.065172,5.354729,1.442089,0.12764
770,7700,0.278864,-0.280238,-0.21526499999999998,4.982958,1.285009,-0.0981335
771,7710,0.24505749999999998,-0.2452105,-0.2989655,4.8359585,1.21685,-0.1684285
772,7720,0.120697,-0.126955,-0.473723,4.153099,1.028862,-0.284519
773,7730,0.067003,-0.082052,-0.517161,4.049759,1.017113,-0.2813145
774,7740,0.067003,-0.082052,-0.517161,3.946419,1.005364,-0.27811
775,7750,0.067003,-0.082052,-0.517161,3.6465455,1.051159,-0.217428
776,7760,0.0687275,0.0335015,-0.467984,3.0063435,1.1747265,-0.0507355
777,7770,0.183915,0.092187,-0.329491,2.850265,1.205635,-0.005474
778,7780,0.207603,0.143194,-0.410505,2.660675,1.248226,0.020161
779,7790,0.207603,0.143194,-0.410505,2.660675,1.248226,0.020161
780,7800,0.1800235,0.2200725,-0.583538,2.5796985,1.249294,-0.0325775
781,7810,0.152444,0.296951,-0.756571,2.498722,1.250362,-0.085316
782,7820,0.151223,0.356506,-0.88667,1.787691,1.3729285,-0.126371
783,7830,0.151223,0.356506,-0.88667,1.517658,1.416588,-0.119495
784,7840,0.151223,0.356506,-0.88667,1.517658,1.416588,-0.119495
785,7850,0.15793849999999998,0.36566350000000003,-0.89131,1.0675810000000001,1.4453605,-0.118427
786,7860,0.164654,0.374821,-0.89595,0.878525,1.483746,-0.115223
787,7870,0.164654,0.374821,-0.89595,0.6825255,1.4709284999999999,-0.116291
788,7880,0.210167,0.50782,-0.922293,0.091324,1.394157,-0.10561
789,7890,0.206626,0.450707,-0.903734,0.091324,1.394157,-0.10561
790,7900,0.206626,0.450707,-0.903734,0.091324,1.394157,-0.10561
791,7910,0.206626,0.450707,-0.903734,0.091324,1.394157,-0.10561
792,7920,0.200521,0.533568,-0.9130135,-0.1761055,1.2769985,-0.1258375
793,7930,0.190997,0.6120335,-0.9170425,-0.928726,0.747614,-0.249939
794,7940,0.187578,0.607638,-0.911792,-1.413917,0.335388,-0.353813
795,7950,0.1745285,0.5594385,-0.8439495,-1.7814825,0.12870800000000002,-0.4017445
796,7960,0.161479,0.511239,-0.776107,-2.149048,-0.077972,-0.449676
797,7970,0.15830450000000001,0.4582925,-0.655303,-2.4227525,-0.21595950000000003,-0.431585
798,7980,0.158793,0.424119,-0.58746,-2.571888,-0.298538,-0.407085
799,7990,0.158793,0.424119,-0.58746,-2.571888,-0.298538,-0.407085
800,8000,0.182954,0.394708,-0.5258295,-2.6619435,-0.44553750000000003,-0.3596875
801,8010,0.2128535,0.3601685,-0.468839,-2.751999,-0.592537,-0.31229
802,8020,0.269356,0.256199,-0.511055,-2.965021,-0.906763,-0.27283650000000004
803,8030,0.269356,0.256199,-0.511055,-3.178043,-1.220989,-0.233383
804,8040,0.269356,0.256199,-0.511055,-3.178043,-1.220989,-0.233383
805,8050,0.269356,0.256199,-0.511055,-3.178043,-1.220989,-0.233383
806,8060,0.2741025,0.187624,-0.49067950000000005,-3.355951,-1.2849425,-0.233383
807,8070,0.239807,0.0539995,-0.35729900000000003,-4.0372085,-1.53635,-0.2046105
808,8080,0.200765,-0.01105,-0.244294,-4.540558,-1.723804,-0.175838
809,8090,0.200765,-0.01105,-0.244294,-4.540558,-1.723804,-0.175838
810,8100,0.200765,-0.01105,-0.244294,-4.540558,-1.723804,-0.175838
811,8110,0.307665,-0.177474,0.143011,-4.849377,-2.153187,0.24807
812,8120,0.3482945,-0.211403,0.207328,-4.852047,-2.1478465,0.26936550000000004
813,8130,0.388924,-0.245332,0.271645,-4.888897,-2.044506,0.333252
814,8140,0.388924,-0.245332,0.292128,-4.888897,-2.044506,0.333252
815,8150,0.390511,-0.264609,0.312137,-4.947443,-2.0290185000000003,0.3466035
816,8160,0.407971,-0.305376,0.426622,-5.149784,-2.117939,0.391865
817,8170,0.4243175,-0.3084285,0.565604,-5.2457139999999995,-2.2724149999999996,0.4120925
818,8180,0.440664,-0.311481,0.704586,-5.341644,-2.426891,0.43232
819,8190,0.617375,-0.394449,1.110696,-5.708008,-2.815685,0.449409
820,8200,0.683997,-0.43446700000000005,1.3279139999999998,-5.7793715,-2.4284935,0.3743075
821,8210,0.708158,-0.447898,1.444826,-5.850735,-2.041302,0.299206
822,8220,0.6223665,-0.4785305,1.6743614999999998,-5.8230975,-1.6583160000000001,0.20975100000000002
823,8230,0.49924250000000003,-0.510506,1.9298894999999998,-5.5594730000000006,-0.8375360000000001,0.023832
824,8240,0.46191,-0.511849,1.955882,-5.323486,-0.399742,-0.072632
825,8250,0.46191,-0.511849,1.955882,-4.8334885,-0.8993530000000001,0.079708
826,8260,0.2100445,-0.453271,1.8597115,-4.343491,-1.398964,0.232048
827,8270,0.340846,-0.388344,1.991749,-4.004631,-2.700729,0.794544
828,8280,0.340846,-0.388344,1.991749,-4.004631,-2.700729,0.794544
829,8290,0.4402975,-0.371753,2.0226255,-4.004631,-2.700729,0.794544
830,8300,0.539749,-0.355162,2.053502,-3.382587,-2.425823,0.892544
831,8310,0.60663,-0.364686,1.987597,-3.382587,-2.425823,0.892544
832,8320,0.573938,-0.299515,1.662014,-3.019295,-1.173058,0.809498
833,8330,0.573938,-0.299515,1.662014,-3.019295,-1.173058,0.809498
834,8340,0.573938,-0.299515,1.662014,-2.987385,-0.943012,0.805225
835,8350,0.573938,-0.299515,1.662014,-2.987385,-0.943012,0.805225
836,8360,0.799917,-0.202383,1.673736,-3.232384,-0.61163,0.613499
837,8370,0.866676,-0.1771235,1.834696,-3.293066,-0.7612995,0.4084205
838,8380,0.935251,-0.15113100000000002,2.056661,-3.3351230000000003,-0.930729,0.151138
839,8390,0.937067,-0.150398,2.117666,-3.316498,-0.950489,0.098934
840,8400,0.909381,-0.162853,2.6866895,-3.1194305,-0.8743190000000001,-0.04005450000000001
841,8410,0.876078,-0.161388,2.785897,-2.343979,-0.392265,-0.364494
842,8420,0.706082,-0.0905995,2.628615,-1.5508365,0.339594,-0.42517649999999996
843,8430,0.506431,-0.006150999999999999,2.417761,-0.6538865,1.197157,-0.461893
844,8440,0.476776,0.007509,2.364189,-0.550079,1.322861,-0.437927
845,8450,0.476776,0.007509,2.364189,-0.550079,1.322861,-0.437927
846,8460,0.4381,0.06999449999999999,2.219575,-0.20968399999999998,1.4474965000000002,-0.27924550000000004
847,8470,0.399424,0.13248,2.074961,0.130711,1.572132,-0.120564
848,8480,0.4433505,0.154672,2.1247629999999997,0.7532885,0.8658410000000001,0.0121495
849,8490,0.449944,0.159312,2.134516,0.861435,0.720978,0.024433
850,8500,0.486544,0.171278,2.156006,0.861435,0.720978,0.024433
851,8510,0.507408,0.1474835,2.1513660000000003,1.4601134999999998,-0.0636195,0.060615499999999996
852,8520,0.528272,0.123689,2.146726,2.058792,-0.848217,0.096798
853,8530,0.6403,0.093163,2.266324,2.254257,-0.907831,0.113287
854,8540,0.694971,0.071704,2.294866,2.593517,-0.885467,0.117092
855,8550,0.860449,0.008974,2.346362,2.593517,-0.885467,0.117092
856,8560,0.880214,-0.00957,2.3680805,2.9083439999999996,-0.400209,-0.032577499999999995
857,8570,0.899979,-0.028114,2.389799,3.223171,0.085049,-0.182247
858,8580,0.899979,-0.028114,2.389799,3.223171,0.085049,-0.182247
859,8590,0.933679,-0.13599,2.297308,4.06044,1.15984,-0.597744
860,8600,0.955138,-0.163341,2.299261,4.223461,1.248226,-0.755425
861,8610,0.953185,-0.247286,2.366631,4.393826,1.235542,-0.946083
862,8620,0.9134104999999999,-0.3006135,2.3982245,4.641495,1.2179185,-1.1175825000000001
863,8630,0.853016,-0.374195,2.423606,4.889164,1.200295,-1.289082
864,8640,0.832396,-0.394449,2.417394,5.056457,1.233406,-1.343422
865,8650,0.769422,-0.442038,2.342592,5.294046,1.3691900000000001,-1.3764669999999999
866,8660,0.681799,-0.5549205,2.1298915000000003,5.844727,1.866131,-1.377468
867,8670,0.65715,-0.620214,1.991993,5.844727,1.866131,-1.377468
868,8680,0.5935655,-0.6782885000000001,1.7354885,6.4306545,2.539911,-1.244354
869,8690,0.529981,-0.736363,1.478984,6.484928,2.566013,-1.225128
870,8700,0.462627,-0.7646755000000001,1.205034,6.638336,2.269878,-1.1697864999999998
871,8710,0.285931,-0.813745,0.676289,6.817379,1.515656,-1.043014
872,8720,0.285931,-0.813745,0.676289,6.7348005,1.230135,-0.938606
873,8730,0.160747,-0.805686,0.369021,6.652222,0.944614,-0.834198
874,8740,0.1741625,-0.7748094999999999,0.2694475,6.652222,0.944614,-0.834198
875,8750,0.187578,-0.743933,0.169874,6.652222,0.944614,-0.834198
876,8760,0.297653,-0.637034,0.015629,5.79359,0.953159,-0.516834
877,8770,0.317418,-0.622641,0.003785,5.79359,1.0426805,-0.5205725
878,8780,0.305467,-0.426409,-0.149849,4.808254,2.06213,-0.738335
879,8790,0.2660435,-0.3782095,-0.172911,4.808254,2.06213,-0.738335
880,8800,0.22662,-0.33001,-0.195973,4.808254,2.06213,-0.738335
881,8810,0.190997,-0.292433,-0.212579,4.353371,2.290039,-0.762901
882,8820,0.129,-0.228238,-0.244539,4.3011665,2.260265,-0.7464124999999999
883,8830,0.035532,-0.127199,-0.327537,4.107304,2.267742,-0.724583
884,8840,0.035532,-0.127199,-0.327537,3.888874,2.14304,-0.64888
885,8850,0.039317000000000005,-0.03751550000000001,-0.400752,3.888874,2.14304,-0.64888
886,8860,0.0293045,0.015812,-0.4546905,3.292332,1.788425,-0.318699
887,8870,0.048718,0.09585,-0.492038,3.292332,1.788425,-0.318699
888,8880,0.086173,0.1456365,-0.5049655,2.8475954999999997,1.6563124999999999,-0.20895
889,8890,0.136082,0.2175235,-0.5690230000000001,2.318745,1.5603825,-0.116224
890,8900,0.144873,0.278422,-0.679464,2.128086,1.651974,-0.15461
891,8910,0.149269,0.343593,-0.864936,1.915531,1.7201995,-0.183382
892,8920,0.114867,0.401653,-0.928154,1.346092,1.831017,-0.244064
893,8930,0.11096,0.42998,-0.934747,1.346092,1.831017,-0.244064
894,8940,0.11096,0.42998,-0.934747,1.346092,1.831017,-0.244064
895,8950,0.11096,0.42998,-0.934747,1.346092,1.831017,-0.244064
896,8960,0.11096,0.42998,-0.934747,1.346092,1.831017,-0.244064
897,8970,0.08715,0.519297,-0.8844725,0.335255,1.226997,-0.095997
898,8980,0.186357,0.561758,-0.884961,0.012417,0.657024,-0.010815
899,8990,0.186357,0.561758,-0.884961,0.012417,0.657024,-0.010815
900,9000,0.186357,0.561758,-0.884961,0.012417,0.657024,-0.010815
901,9010,0.240296,0.613743,-0.957672,-0.41256,0.561161,-0.077839
902,9020,0.240296,0.613743,-0.957672,-0.41256,0.561161,-0.077839
903,9030,0.21784399999999998,0.6366975,-0.9623120000000001,-1.101894,0.428047,-0.251541
904,9040,0.197102,0.650617,-0.955963,-1.101894,0.428047,-0.251541
905,9050,0.197102,0.650617,-0.955963,-1.101894,0.428047,-0.251541
906,9060,0.160502,0.596191,-0.858587,-1.885891,-0.076904,-0.396404
907,9070,0.160502,0.596191,-0.858587,-1.885891,-0.076904,-0.396404
908,9080,0.14817,0.5825155,-0.8006344999999999,-2.2965145,-0.491333,-0.3831195
909,9090,0.135838,0.56884,-0.742682,-2.392912,-0.6143665,-0.37137
910,9100,0.135838,0.56884,-0.742682,-2.362003,-0.548878,-0.386791
911,9110,0.121918,0.3744545,-0.4418695,-2.5958535,-1.3711929999999999,-0.090656
912,9120,0.123383,0.354796,-0.439809,-2.616615,-1.473465,-0.03952
913,9130,0.137303,0.3184405,-0.446021,-2.710943,-1.679077,0.0952625
914,9140,0.151223,0.282085,-0.452233,-2.733841,-1.718464,0.120296
915,9150,0.152932,0.208366,-0.523998,-2.733841,-1.718464,0.120296
916,9160,0.179031,0.115386,-0.488864,-3.442268,-1.817532,0.495205
917,9170,0.179031,0.115386,-0.488864,-3.5173699999999997,-1.7919640000000001,0.530386
918,9180,0.268623,0.017277,-0.29457,-3.877926,-1.670532,0.682659
919,9190,0.43175050000000004,0.0188645,-0.2235525,-3.987675,-1.657715,0.717907
920,9200,0.5557445000000001,0.0008090000000000007,-0.16547800000000001,-4.2624475,-2.211666,0.4818535
921,9210,0.576624,-0.018834,-0.178421,-4.351902,-2.511005,0.328979
922,9220,0.515726,-0.1011,-0.13071,-4.412117,-2.6079365,0.286922
923,9230,0.47412,-0.158946,-0.078359,-5.004921,-3.067093,0.186253
924,9240,0.47412,-0.158946,-0.078359,-5.004921,-3.067093,0.186253
925,9250,0.569664,-0.2661965,0.17156749999999998,-5.3527260000000005,-2.9994680000000002,0.238457
926,9260,0.665208,-0.373447,0.421494,-5.700531,-2.931843,0.290661
927,9270,0.705716,-0.41838,0.677999,-5.8986665,-2.575493,0.2443315
928,9280,0.7209785,-0.456079,1.068479,-6.1639595,-1.5474985,0.004139
929,9290,0.716461,-0.461085,1.143907,-6.147938,-1.426601,-0.044861
930,9300,0.636164,-0.4676635,1.3420775,-6.012154,-1.213579,-0.17056449999999998
931,9310,0.429919,-0.478393,1.735488,-5.508804,-0.962105,-0.334587
932,9320,0.429919,-0.478393,1.735488,-5.508804,-0.962105,-0.334587
933,9330,0.363908,-0.4315365,1.768074,-5.1402375,-1.2236595000000001,-0.278177
934,9340,0.268974,-0.37321800000000005,1.7721035,-4.489889,-1.917734,-0.115757
935,9350,0.221492,-0.379552,1.688876,-3.789539,-2.795525,0.323639
936,9360,0.284481,-0.388954,1.5900349999999999,-3.6398029999999997,-2.7843095,0.49146650000000003
937,9370,0.497289,-0.415206,1.330844,-3.874722,-1.966667,0.717907
938,9380,0.54268,-0.401042,1.334507,-4.127197,-1.560783,0.720043
939,9390,0.54268,-0.401042,1.334507,-4.127197,-1.560783,0.720043
940,9400,0.54268,-0.401042,1.334507,-4.127197,-1.560783,0.720043
941,9410,0.5958855000000001,-0.418365,1.7018035,-4.8089885,-0.10994949999999999,0.493603
942,9420,0.602723,-0.426546,2.1926055,-4.6731375,-0.029507,0.29600150000000003
943,9430,0.531828,-0.3818875,2.3459955,-4.508514,-0.09079,0.201206
944,9440,0.488253,-0.346371,2.37588,-3.887539,-0.483856,0.135117
945,9450,0.4131,-0.227017,2.019557,-3.275509,-0.8508205,0.1745705
946,9460,0.48459,-0.141119,1.658351,-2.401524,-1.156101,0.419636
947,9470,0.48459,-0.141119,1.658351,-2.380161,-1.156101,0.419636
948,9480,0.740118,-0.058883,1.623705,-2.673626,-0.4513455,0.44039700000000004
949,9490,0.740118,-0.058883,1.623705,-2.734909,-0.333653,0.413227
950,9500,0.740118,-0.058883,1.623705,-3.062954,0.330048,0.064888
951,9510,0.820674,-0.012729,2.330245,-3.05975,0.700684,-0.244064
952,9520,0.698527,-0.0095695,2.624219,-2.534037,0.8253195,-0.45394900000000005
953,9530,0.408704,0.012637,2.89304,-2.008324,0.949955,-0.663834
954,9540,0.408704,0.012637,2.89304,-1.608849,0.919113,-0.695744
955,9550,0.408704,0.012637,2.89304,-1.608849,0.919113,-0.695744
956,9560,0.205161,0.107083,2.6723115,-0.661831,0.751352,-0.4305175
957,9570,0.1627,0.149055,2.578477,0.285187,0.583591,-0.165291
958,9580,0.290082,0.177627,2.459855,1.203365,0.412025,0.220432
959,9590,0.325706,0.185197,2.406649,1.203365,0.412025,0.220432
960,9600,0.3859935,0.20838099999999998,2.3316025,1.940031,-0.071564,0.281582
961,9610,0.484102,0.213494,2.276306,2.253723,-0.385857,0.268364
962,9620,0.535476,0.1933625,2.3058395000000003,2.49712,-0.5669690000000001,0.223036
963,9630,0.621771,0.156626,2.351978,2.820959,-0.7619,0.15481
964,9640,0.621771,0.156626,2.351978,2.901401,-0.775719,0.131912
965,9650,0.621771,0.156626,2.351978,2.901401,-0.775719,0.131912
966,9660,0.6642315,0.10024549999999999,2.3228115000000003,3.1182285,-0.642004,0.041389499999999996
967,9670,0.688133,0.090263,2.336349,3.689671,0.184116,-0.200405
968,9680,0.688133,0.090263,2.336349,3.689671,0.184116,-0.200405
969,9690,0.776504,-0.016636,2.158448,3.887806,0.9585,-0.346336
970,9700,0.776504,-0.016636,2.158448,3.887806,0.9585,-0.346336
971,9710,0.819697,-0.041545,2.17136,3.887806,0.9585,-0.346336
972,9720,0.81872,-0.072284,2.179663,4.100895,1.704178,-0.646744
973,9730,0.81872,-0.072284,2.179663,4.100895,1.704178,-0.646744
974,9740,0.5003415,-0.2712025,1.9452435000000001,5.091105,1.5401555,-0.8214475
975,9750,0.435292,-0.402019,1.641776,5.438843,1.697769,-0.638199
976,9760,0.486055,-0.45205,1.344276,5.608273,1.974812,-0.557289
977,9770,0.486055,-0.45205,1.344276,5.746727,2.171879,-0.524311
978,9780,0.486055,-0.45205,1.344276,5.746727,2.171879,-0.524311
979,9790,0.473387,-0.463039,1.279592,5.746727,2.171879,-0.524311
980,9800,0.316197,-0.47448599999999996,0.9664630000000001,5.924702,1.9417,-0.588131
981,9810,0.273477,-0.47473,0.88667,5.936317,1.696701,-0.557289
982,9820,0.273477,-0.47473,0.88667,5.92577,1.578541,-0.52845
983,9830,0.240296,-0.476684,0.803672,5.92577,1.578541,-0.52845
984,9840,0.2218735,-0.477905,0.6166125,5.915623,1.5247345,-0.509825
985,9850,0.239075,-0.441061,0.329216,5.905476,1.470928,-0.4912
986,9860,0.2426155,-0.43752,0.308718,5.712681,1.428871,-0.4070855
987,9870,0.246156,-0.433979,0.28822,5.519886,1.386814,-0.322971
988,9880,0.246156,-0.433979,0.28822,5.519886,1.386814,-0.322971
989,9890,0.13316699999999998,-0.1956675,-0.190738,4.588757,2.031288,-0.232315
990,9900,0.107541,-0.156259,-0.258947,4.588757,2.031288,-0.232315
991,9910,0.107541,-0.156259,-0.258947,4.398098,1.8320845000000001,-0.20941749999999998
992,9920,0.060196,-0.050092,-0.379278,4.0391445,1.571064,-0.150337
993,9930,0.060196,-0.050092,-0.379278,4.351234,1.765995,-0.212154
994,9940,0.076649,-0.057662,-0.3698755,3.424511,1.328201,-0.026703
995,9950,0.12034600000000001,0.0238555,-0.40964999999999996,3.277512,1.335678,-0.006542
996,9960,0.159037,0.057784,-0.415633,2.913151,1.483746,0.021229
997,9970,0.14949800000000002,0.135517,-0.5019135,2.6548,1.5625195,-0.011282
998,9980,0.129977,0.192981,-0.568413,2.816219,1.548634,0.012684
999,9990,0.129977,0.192981,-0.568413,2.493381,1.576405,-0.035248
