id,timestamp,acc_x,acc_y,acc_z,gyro_x,gyro_y,gyro_z
0,0,0.08714999999999999,0.6488929999999999,-0.3064135,-0.15213949999999998,-0.220232,0.639
1,10,0.215036,0.6684140000000001,-0.3243475,-0.2011395,-0.409288,0.6022835
2,20,0.230039,0.676717,-0.345578,-0.512695,-0.50415,0.273571
3,30,0.27166049999999997,0.6692685,-0.500326,-0.5904674999999999,-0.495071,0.2256395
4,40,0.280559,0.664262,-0.51423,-0.66824,-0.485992,0.177708
5,50,0.305101,0.6471830000000001,-0.511544,-1.4597795,-0.3714375,-0.2270415
6,60,0.299118,0.627418,-0.494694,-1.683483,-0.325108,-0.317631
7,70,0.224422,0.528089,-0.240143,-2.473888,-0.182381,-0.589199
8,80,0.224422,0.528089,-0.240143,-2.473888,-0.182381,-0.589199
9,90,0.224422,0.528089,-0.240143,-2.473888,-0.182381,-0.589199
10,100,0.128023,0.456079,0.06859,-2.749863,-0.29213,-0.604153
11,110,0.1121805,0.3948305,0.1786495,-2.690182,-0.389061,-0.546608
12,120,0.074573,0.328209,0.168897,-2.624092,-0.433788,-0.51363
13,130,0.074573,0.328209,0.168897,-2.447319,-0.512562,-0.394268
14,140,0.074573,0.328209,0.168897,-2.447319,-0.512562,-0.394268
15,150,0.073108,0.273049,0.0703,-2.52182,-0.36129,-0.181179
16,160,0.073108,0.273049,0.0703,-2.605467,-0.328312,-0.13004300000000002
17,170,0.19673600000000002,0.218134,0.1336095,-2.6640800000000002,-0.2948,-0.08585000000000001
18,180,0.252506,0.197377,0.176192,-2.775364,-0.518971,-0.169563
19,190,0.252506,0.197377,0.176192,-2.775364,-0.518971,-0.169563
20,200,0.258733,0.193241,0.17582599999999998,-2.786045,-0.672913,-0.22650700000000001
21,210,0.273736,0.13797500000000001,0.117141,-2.9692935,-1.244421,-0.392132
22,220,0.275919,0.060715,0.031227,-3.141861,-1.661987,-0.500813
23,230,0.242738,-0.019582,0.194019,-4.0781975,-1.8276789999999998,-0.4939365
24,240,0.209557,-0.099879,0.356811,-4.334946,-1.829281,-0.473175
25,250,0.209557,-0.099879,0.356811,-4.334946,-1.829281,-0.473175
26,260,0.167447,-0.141729,0.6557765,-4.520798,-1.8569849999999999,-0.422039
27,270,0.121674,-0.211663,1.072386,-4.716263,-1.558647,-0.124836
28,280,0.144873,-0.227994,1.339392,-4.312515,-1.279602,0.044594
29,290,0.144873,-0.227994,1.339392,-4.312515,-1.279602,0.044594
30,300,0.144873,-0.227994,1.339392,-4.312515,-1.279602,0.044594
31,310,0.303269,-0.14063,1.319855,-3.8097,-1.565056,-0.00761
32,320,0.388679,-0.069842,1.504839,-4.184742,-1.6668605,-0.24246199999999998
33,330,0.388679,-0.069842,1.504839,-3.941879,-1.63969,-0.099201
34,340,0.378423,-0.091576,1.607587,-4.581013,-1.675873,-0.467834
35,350,0.252262,-0.156503,2.039094,-4.659853,-1.5970325,-0.550346
36,360,0.145606,-0.180893,2.324628,-4.411583,-1.423397,-0.634995
37,370,0.03834,-0.1656455,2.363075,-3.5540865000000004,-1.2156485,-0.504551
38,380,-0.024023,-0.145514,2.331466,-2.998066,-1.07399,-0.403881
39,390,-0.044262,-0.106717,2.2231,-2.644386,-1.004696,-0.301609
40,400,-0.044262,-0.106717,2.2231,-2.644386,-1.004696,-0.301609
41,410,0.0229705,0.049253,1.7551315,-2.023277,-0.706558,0.09573
42,420,0.164028,0.13844800000000002,1.6566565,-2.370615,-0.5206395,0.0893215
43,430,0.272988,0.160777,1.825782,-2.597523,-0.386925,0.053139
44,440,0.272988,0.160777,1.825782,-2.597523,-0.386925,0.053139
45,450,0.283733,0.1466285,1.949761,-2.597523,-0.386925,0.053139
46,460,0.212487,0.128329,2.355642,-2.525024,0.079708,-0.477314
47,470,0.1438965,0.1246655,2.478644,-1.635017,-0.0630855,-0.5519485
48,480,0.075306,0.121002,2.601646,-1.151962,-0.137653,-0.502949
49,490,-0.082357,0.087333,2.803968,-1.151962,-0.137653,-0.502949
50,500,-0.1325105,0.1260085,2.7846909999999996,-0.6411359999999999,-0.16749350000000002,-0.3229045
51,510,-0.0683005,0.2572985,2.5093975,0.652618,0.085049,0.250206
52,520,0.083365,0.317708,2.289249,1.272659,0.560093,0.500545
53,530,0.1133865,0.32576649999999996,2.2401945,1.3962265,0.6432055,0.5048175
54,540,0.143408,0.333825,2.19114,1.519794,0.726318,0.50909
55,550,0.143408,0.333825,2.19114,1.519794,0.726318,0.50909
56,560,0.26543300000000003,0.3169755,2.1292655,2.0401664999999998,0.537262,0.385523
57,570,0.303514,0.265967,2.11037,2.426357,0.179844,0.116024
58,580,0.303514,0.265967,2.11037,2.426357,0.179844,0.116024
59,590,0.303514,0.265967,2.11037,2.426357,0.179844,0.116024
60,600,0.197346,0.19057,2.114522,2.426357,0.179844,0.116024
61,610,0.197346,0.19057,2.114522,2.426357,0.179844,0.116024
62,620,0.175368,0.082678,2.1298760000000003,2.713947,0.197868,0.00948
63,630,0.16853,-0.009585,1.977097,3.73867,0.841274,0.196934
64,640,0.16853,-0.009585,1.977097,3.73867,0.841274,0.196934
65,650,0.269569,-0.014194,1.741838,3.73867,0.841274,0.196934
66,660,0.410169,0.007998,1.596629,4.237814,1.0991575,0.300808
67,670,0.4218755,0.0066545,1.558182,4.264984,1.028862,0.255547
68,680,0.410413,-0.019078,1.476053,4.390621,0.834999,0.104275
69,690,0.410413,-0.019078,1.476053,4.390621,0.834999,0.104275
70,700,0.320852,-0.099635,1.207827,4.718265499999999,0.77425,-0.098133
71,710,0.3266975,-0.09829199999999999,1.1795149999999999,4.762459,0.822182,-0.100269
72,720,0.332543,-0.096949,1.151203,4.647369,1.15984,-0.158882
73,730,0.30827550000000004,-0.0456965,0.970859,4.616994500000001,1.213646,-0.1626205
74,740,0.304002,-0.041301,0.960358,4.58662,1.267452,-0.166359
75,750,0.250308,-0.034952,0.911304,4.403439,1.569996,-0.144997
76,760,0.24249349999999997,-0.034952,0.911304,4.403439,1.569996,-0.144997
77,770,0.137303,-0.04765,0.800497,4.416256,1.53595,-0.157814
78,780,0.137303,-0.04765,0.800497,4.416256,1.53595,-0.157814
79,790,0.1075255,-0.053633,0.632836,4.646301,0.983067,-0.161018
80,800,0.098017,-0.048383,0.523021,4.717732,0.691071,-0.068359
81,810,0.098017,-0.048383,0.523021,4.717732,0.691071,-0.068359
82,820,0.09545300000000001,0.0056774999999999985,0.29055549999999997,4.464188,0.7848645000000001,-0.013485
83,830,0.105099,-0.039591,0.346799,4.066849,0.902023,0.048866
84,840,0.105099,-0.039591,0.346799,4.651642,0.70282,-0.01936
85,850,0.105099,-0.039591,0.346799,3.527851,0.782795,0.065956
86,860,0.141943,0.141516,-0.014652,3.527851,0.782795,0.065956
87,870,0.1559695,0.191547,-0.156076,3.3099555,0.7790565,-0.023565499999999996
88,880,0.169996,0.241578,-0.2975,2.908878,0.844479,-0.165291
89,890,0.164165,0.264014,-0.372684,2.908878,0.844479,-0.165291
90,900,0.1317015,0.290739,-0.3795215,2.36454,1.1965565,-0.26062
91,910,0.069445,0.333825,-0.358276,1.640091,1.696701,-0.364494
92,920,0.069445,0.333825,-0.358276,1.640091,1.696701,-0.364494
93,930,0.069445,0.333825,-0.358276,1.205502,1.907654,-0.277042
94,940,-0.043285000000000004,0.393243,-0.282619,1.1756615,1.875143,-0.2488705
95,950,0.0154,0.46561850000000005,-0.2662725,1.0484215,1.4304065000000001,-0.0682925
96,960,0.041881,0.490024,-0.277994,1.028728,1.267452,-0.032043
97,970,0.069201,0.515634,-0.30507,1.002026,1.104431,-0.016155
98,980,0.082266,0.547243,-0.3759655,0.841742,0.8546255,-0.038519
99,990,0.0922785,0.585934,-0.45797200000000005,0.681458,0.60482,-0.060883
100,1000,0.089226,0.593016,-0.469083,0.504551,0.610161,-0.041656
101,1010,0.106076,0.615941,-0.484224,0.327778,0.618706,-0.01936
102,1020,0.111204,0.635721,-0.506416,0.232983,0.594139,-0.0247
103,1030,0.1129135,0.6536545,-0.5181374999999999,0.07103,0.5488774999999999,-0.036916500000000005
104,1040,0.104122,0.676228,-0.484468,-0.3518775,0.408821,-0.05981450000000001
105,1050,0.104122,0.676228,-0.484468,-0.414696,0.370502,-0.05661
106,1060,0.127779,0.706723,-0.401714,-0.501013,-0.109949,-0.10026950000000001
107,1070,0.068713,0.717224,-0.504706,-0.58733,-0.61163,-0.139656
108,1080,0.068713,0.717224,-0.504706,-0.58733,-0.61163,-0.139656
109,1090,0.06347749999999999,0.688072,-0.521312,-0.8137035,-1.1070345,-0.12476899999999999
110,1100,0.072864,0.671833,-0.519603,-0.900555,-1.222057,-0.115223
111,1110,0.083853,0.656692,-0.519358,-0.99535,-1.262512,-0.104542
112,1120,0.1005655,0.6365605000000001,-0.5211895,-1.1615085,-1.2071705000000001,-0.098133
113,1130,0.117278,0.616429,-0.523021,-1.327667,-1.151829,-0.091724
114,1140,0.117278,0.616429,-0.523021,-1.327667,-1.151829,-0.091724
115,1150,0.117278,0.587399,-0.510811,-1.563053,-1.036739,-0.086384
116,1160,0.13132,0.5601860000000001,-0.4965405,-1.7979715,-0.9957505,-0.0741675
117,1170,0.155374,0.474639,-0.427843,-2.57616,-1.131535,-0.094929
118,1180,0.149757,0.433887,-0.344601,-2.57616,-1.131535,-0.094929
119,1190,0.12388749999999998,0.3587185,-0.1784055,-3.1274414999999998,-1.3578415,-0.0512695
120,1200,0.114379,0.33529,-0.118622,-3.198338,-1.405239,-0.0247
121,1210,0.082144,0.290388,0.002442,-3.254681,-1.510716,0.061684
122,1220,0.0717805,0.27707899999999996,0.025504,-3.2530785,-1.5426925,0.0930595
123,1230,0.056045,0.194202,0.095422,-3.198338,-1.741962,0.483456
124,1240,0.056045,0.194202,0.095422,-3.198338,-1.741962,0.483456
125,1250,0.056045,0.194202,0.095422,-3.307953,-1.545963,0.653954
126,1260,0.1827095,0.136128,0.11384449999999999,-3.485928,-1.178398,0.777454
127,1270,0.3444025,0.09806300000000001,0.188647,-3.839607,-0.9610365000000001,0.7349300000000001
128,1280,0.420426,0.08074,0.237457,-3.993015,-1.008968,0.657158
129,1290,0.420426,0.08074,0.237457,-3.993015,-1.008968,0.657158
130,1300,0.3900225,0.015812,0.4527215,-4.2874815,-2.006121,0.257082
131,1310,0.374027,0.002625,0.482484,-4.309311,-2.12328,0.232048
132,1320,0.321554,-0.055953,0.636973,-4.381809,-2.535572,0.223637
133,1330,0.321554,-0.055953,0.636973,-4.381809,-2.535572,0.223637
134,1340,0.321554,-0.055953,0.636973,-4.381809,-2.535572,0.223637
135,1350,0.321554,-0.055953,0.636973,-4.381809,-2.535572,0.223637
136,1360,0.321554,-0.055953,0.636973,-4.381809,-2.535572,0.223637
137,1370,0.321554,-0.055953,0.636973,-4.381809,-2.535572,0.223637
138,1380,0.321554,-0.055953,0.636973,-4.381809,-2.535572,0.223637
139,1390,0.321554,-0.055953,0.636973,-4.381809,-2.535572,0.223637
140,1400,0.321554,-0.055953,0.636973,-4.381809,-2.535572,0.223637
141,1410,0.321554,-0.055953,0.636973,-4.381809,-2.535572,0.223637
142,1420,0.321554,-0.055953,0.636973,-4.381809,-2.535572,0.223637
143,1430,0.321554,-0.055953,0.636973,-4.381809,-2.535572,0.223637
144,1440,0.321554,-0.055953,0.636973,-4.381809,-2.535572,0.223637
145,1450,0.321554,-0.055953,0.636973,-4.381809,-2.535572,0.223637
146,1460,0.321554,-0.055953,0.636973,-4.381809,-2.535572,0.223637
147,1470,0.321554,-0.055953,0.636973,-4.381809,-2.535572,0.223637
148,1480,0.321554,-0.055953,0.636973,-4.381809,-2.535572,0.223637
149,1490,0.321554,-0.055953,0.636973,-4.381809,-2.535572,0.223637
150,1500,0.321554,-0.055953,0.636973,-4.381809,-2.535572,0.223637
151,1510,0.321554,-0.055953,0.636973,-4.381809,-2.535572,0.223637
152,1520,0.321554,-0.055953,0.636973,-4.381809,-2.535572,0.223637
153,1530,0.321554,-0.055953,0.636973,-4.381809,-2.535572,0.223637
154,1540,0.321554,-0.055953,0.636973,-4.381809,-2.535572,0.223637
155,1550,0.321554,-0.055953,0.636973,-4.381809,-2.535572,0.223637
156,1560,0.321554,-0.055953,0.636973,-4.381809,-2.535572,0.223637
157,1570,0.321554,-0.055953,0.636973,-4.381809,-2.535572,0.223637
158,1580,0.321554,-0.055953,0.636973,-4.381809,-2.535572,0.223637
159,1590,0.321554,-0.055953,0.636973,-4.381809,-2.535572,0.223637
160,1600,0.321554,-0.055953,0.636973,-4.381809,-2.535572,0.223637
161,1610,0.321554,-0.055953,0.636973,-4.381809,-2.535572,0.223637
162,1620,0.321554,-0.055953,0.636973,-4.381809,-2.535572,0.223637
163,1630,0.321554,-0.055953,0.636973,-4.381809,-2.535572,0.223637
164,1640,0.321554,-0.055953,0.636973,-4.381809,-2.535572,0.223637
165,1650,0.321554,-0.055953,0.636973,-4.381809,-2.535572,0.223637
166,1660,0.321554,-0.055953,0.636973,-4.381809,-2.535572,0.223637
167,1670,0.321554,-0.055953,0.636973,-4.381809,-2.535572,0.223637
168,1680,0.321554,-0.055953,0.636973,-4.381809,-2.535572,0.223637
169,1690,0.321554,-0.055953,0.636973,-4.381809,-2.535572,0.223637
170,1700,0.321554,-0.055953,0.636973,-4.381809,-2.535572,0.223637
171,1710,0.321554,-0.055953,0.636973,-4.381809,-2.535572,0.223637
172,1720,0.321554,-0.055953,0.636973,-4.381809,-2.535572,0.223637
173,1730,0.321554,-0.055953,0.636973,-4.381809,-2.535572,0.223637
174,1740,0.321554,-0.055953,0.636973,-4.381809,-2.535572,0.223637
175,1750,0.321554,-0.055953,0.636973,-4.381809,-2.535572,0.223637
176,1760,0.321554,-0.055953,0.636973,-4.381809,-2.535572,0.223637
177,1770,0.321554,-0.055953,0.636973,-4.381809,-2.535572,0.223637
178,1780,0.321554,-0.055953,0.636973,-4.381809,-2.535572,0.223637
179,1790,0.321554,-0.055953,0.636973,-4.381809,-2.535572,0.223637
180,1800,0.321554,-0.055953,0.636973,-4.381809,-2.535572,0.223637
181,1810,0.321554,-0.055953,0.636973,-4.381809,-2.535572,0.223637
182,1820,0.321554,-0.055953,0.636973,-4.381809,-2.535572,0.223637
183,1830,0.321554,-0.055953,0.636973,-4.381809,-2.535572,0.223637
184,1840,0.321554,-0.055953,0.636973,-4.381809,-2.535572,0.223637
185,1850,0.321554,-0.055953,0.636973,-4.381809,-2.535572,0.223637
186,1860,0.321554,-0.055953,0.636973,-4.381809,-2.535572,0.223637
187,1870,0.321554,-0.055953,0.636973,-4.381809,-2.535572,0.223637
188,1880,0.321554,-0.055953,0.636973,-4.381809,-2.535572,0.223637
189,1890,0.321554,-0.055953,0.636973,-4.381809,-2.535572,0.223637
190,1900,0.321554,-0.055953,0.636973,-4.381809,-2.535572,0.223637
191,1910,0.27714,-0.253391,0.837341,5.169411,1.854382,-0.03952
192,1920,0.27714,-0.253391,0.837341,5.169411,1.854382,-0.03952
193,1930,0.25456650000000003,-0.2482625,0.722642,4.984026,1.699438,0.065355
194,1940,0.169263,-0.185533,0.460536,4.895573,1.468792,0.10107
195,1950,0.173903,-0.1752765,0.4550415,4.8593905,1.3792705,0.11488899999999999
196,1960,0.247622,-0.121827,0.412947,4.823208,1.289749,0.128708
197,1970,0.247622,-0.121827,0.412947,4.65805,0.857296,0.090389
198,1980,0.158304,-0.057907,0.193042,4.331074,1.046886,-0.083179
199,1990,0.158304,-0.057907,0.193042,4.331074,1.046886,-0.083179
200,2000,0.140966,-0.006288499999999999,0.0944455,4.331074,1.046886,-0.083179
201,2010,0.12143,0.070971,0.000488,4.331074,1.046886,-0.083179
202,2020,0.082632,0.127596,0.016117,4.331074,1.046886,-0.083179
203,2030,0.022345,0.157847,0.006349,4.331074,1.046886,-0.083179
204,2040,0.01453,0.163463,-0.047101,4.331074,1.046886,-0.083179
205,2050,-0.0109585,0.2394865,-0.230024,2.7740955,0.5782510000000001,0.0435255
206,2060,-0.000824,0.258153,-0.243562,2.600994,0.677319,0.087185
207,2070,-0.000824,0.258153,-0.243562,2.600994,0.677319,0.087185
208,2080,-0.000824,0.258153,-0.243562,2.302723,1.122589,0.128708
209,2090,0.0742225,0.3587035,-0.3050855,2.302723,1.122589,0.128708
210,2100,0.094354,0.407269,-0.337549,1.874008,1.1976909999999998,0.036049
211,2110,0.094354,0.407269,-0.337549,1.713657,1.112976,-0.0247
212,2120,0.09337699999999999,0.47610399999999997,-0.417709,1.6497705,1.0554315,-0.0507355
213,2130,0.054824,0.567863,-0.549365,1.3589765,0.9084319999999999,-0.110884
214,2140,0.054824,0.567863,-0.549365,1.132069,0.818977,-0.144997
215,2150,0.054824,0.567863,-0.549365,1.132069,0.818977,-0.144997
216,2160,0.054824,0.567863,-0.549365,1.132069,0.818977,-0.144997
217,2170,0.109983,0.588132,-0.485445,0.679321,1.149158,-0.123768
218,2180,0.090935,0.6264415,-0.54181,0.679321,1.149158,-0.123768
219,2190,0.071887,0.664751,-0.598175,0.232983,1.511383,-0.065155
220,2200,0.041637,0.722108,-0.659439,-0.094128,1.123657,-0.008678
221,2210,0.095086,0.720887,-0.573052,-0.295467,0.779591,0.045662
222,2220,0.16853,0.703579,-0.546434,-0.405216,0.091324,0.022297
223,2230,0.160975,0.7066159999999999,-0.5979304999999999,-0.43338750000000004,0.034914,0.0004004999999999998
224,2240,0.15342,0.709653,-0.649427,-0.461559,-0.021496,-0.021496
225,2250,0.131931,0.702114,-0.762432,-0.643806,-0.063019,-0.040588
226,2260,0.132663,0.686973,-0.797597,-0.785465,-0.059814,-0.036316
227,2270,0.132663,0.686973,-0.797597,-0.785465,-0.059814,-0.036316
228,2280,0.132663,0.686973,-0.797597,-0.785465,-0.059814,-0.036316
229,2290,0.19002,0.634256,-0.69436,-1.812324,-0.236721,-0.124836
230,2300,0.195637,0.617894,-0.610385,-1.812324,-0.236721,-0.124836
231,2310,0.192462,0.548113,-0.362183,-2.471752,-0.748081,-0.252609
232,2320,0.192462,0.548113,-0.362183,-2.471752,-0.748081,-0.252609
233,2330,0.192462,0.548113,-0.362183,-2.471752,-0.748081,-0.252609
234,2340,0.124116,0.439016,-0.164257,-2.692318,-1.219921,-0.192928
235,2350,0.124116,0.439016,-0.164257,-2.773228,-1.305237,0.024433
236,2360,0.124116,0.439016,-0.164257,-2.773228,-1.305237,0.024433
237,2370,0.143042,0.3576195,-0.19330150000000001,-2.864819,-1.281738,0.079708
238,2380,0.162456,0.334802,-0.155221,-2.864819,-1.281738,0.079708
239,2390,0.162456,0.334802,-0.155221,-2.864819,-1.281738,0.079708
240,2400,0.22796349999999999,0.27133949999999996,0.0690635,-3.5056209999999997,-1.088877,0.2629565
241,2410,0.273721,0.254978,0.132999,-3.513565,-1.485214,0.263023
242,2420,0.273721,0.254978,0.132999,-3.513565,-1.485214,0.263023
243,2430,0.2989805,0.23313699999999998,0.155206,-3.49761,-1.847906,0.21876299999999999
244,2440,0.32424,0.211296,0.177413,-3.481655,-2.210598,0.174503
245,2450,0.3380375,0.13905800000000001,0.22062199999999998,-3.6920070000000003,-2.288904,0.23098000000000002
246,2460,0.351835,0.06682,0.263831,-3.902359,-2.36721,0.287457
247,2470,0.351835,0.06682,0.263831,-3.902359,-2.36721,0.287457
248,2480,0.415786,-0.036905,0.467862,-4.293423,-1.358375,0.278912
249,2490,0.415786,-0.036905,0.467862,-4.293423,-1.358375,0.278912
250,2500,0.415786,-0.036905,0.467862,-4.293423,-1.358375,0.278912
251,2510,0.415786,-0.036905,0.467862,-4.293423,-1.358375,0.278912
252,2520,0.415786,-0.036905,0.467862,-4.293423,-1.358375,0.278912
253,2530,0.360016,-0.10779999999999999,0.7903775,-4.299231,-1.5575785,0.135651
254,2540,0.258122,-0.191638,1.18124,-4.305039,-1.756782,-0.00761
255,2550,0.258122,-0.191638,1.18124,-4.305039,-1.756782,-0.00761
256,2560,0.356231,-0.24924,1.151447,-3.964176,-2.89566,0.234184
257,2570,0.356231,-0.24924,1.151447,-3.975925,-2.763481,0.286388
258,2580,0.458979,-0.322439,1.132918,-4.160175,-1.167717,0.324707
259,2590,0.458979,-0.322439,1.132918,-4.160175,-1.167717,0.324707
260,2600,0.4218755,-0.361008,1.2711675,-4.572468,0.26823,0.241661
261,2610,0.414565,-0.378331,1.352304,-4.572468,0.26823,0.241661
262,2620,0.457758,-0.353209,1.964398,-4.8515795,0.584593,-0.020361000000000004
263,2630,0.457758,-0.353209,1.964398,-4.787693,0.320435,-0.076771
264,2640,0.457758,-0.353209,1.964398,-4.622536,-0.097198,-0.13752
265,2650,0.457758,-0.353209,1.964398,-4.622536,-0.097198,-0.13752
266,2660,0.457758,-0.353209,1.964398,-3.906632,-1.490555,-0.33886
267,2670,0.456293,-0.30855,1.949776,-3.09927,-2.055054,-0.441132
268,2680,0.42724799999999996,-0.2798715,1.880331,-3.09927,-2.055054,-0.441132
269,2690,0.398203,-0.251193,1.810886,-3.034248,-1.113377,-0.420971
270,2700,0.398447,-0.247774,1.834574,-3.118362,0.26823,-0.400677
271,2710,0.398447,-0.247774,1.834574,-3.223839,0.972385,-0.525379
272,2720,0.321096,-0.185045,2.37881,-3.223839,0.972385,-0.525379
273,2730,0.321096,-0.185045,2.37881,-2.730637,0.97559,-0.802288
274,2740,0.321096,-0.185045,2.37881,-2.730637,0.97559,-0.802288
275,2750,0.321096,-0.185045,2.37881,-1.938095,0.522842,-0.899219
276,2760,0.321096,-0.185045,2.37881,-1.938095,0.522842,-0.899219
277,2770,0.087272,-0.109403,2.346362,-1.426735,0.282116,-0.832062
278,2780,0.003083,-0.041545,2.17429,-0.578785,0.11589,-0.515766
279,2790,0.007235,-0.002259,2.094253,-0.578785,0.11589,-0.515766
280,2800,0.066271,0.019475,2.035919,-0.181446,0.173435,-0.27550699999999995
281,2810,0.132907,0.033151,1.991016,0.215893,0.23098,-0.035248
282,2820,0.14499499999999999,0.039973,1.9830795,0.279312,0.22724149999999999,-0.0224975
283,2830,0.157083,0.046795,1.975143,0.342731,0.223503,-0.009747
284,2840,0.157083,0.046795,1.975143,0.342731,0.223503,-0.009747
285,2850,0.205894,0.096582,2.041291,0.8752534999999999,-0.1472665,0.0546745
286,2860,0.23139749999999998,0.0737645,2.0604459999999998,1.2822054999999999,-0.58239,0.1170255
287,2870,0.256901,0.050947,2.079601,1.508045,-0.820446,0.157547
288,2880,0.37015,-0.019078,2.182593,2.433834,-0.882263,0.242729
289,2890,0.37015,-0.019078,2.182593,2.433834,-0.882263,0.242729
290,2900,0.39541,-0.032021,2.1661244999999996,2.433834,-0.882263,0.242729
291,2910,0.42067,-0.044964,2.149656,2.433834,-0.882263,0.242729
292,2920,0.42067,-0.044964,2.149656,3.178444,-0.036449,0.161819
293,2930,0.509239,-0.088279,2.1232825,3.019695,-0.222836,0.217228
294,2940,0.542924,-0.121094,2.188698,3.5815905,-0.049734,0.02223
295,2950,0.563437,-0.190906,2.251916,3.798351,-0.1227,-0.038452
296,2960,0.563437,-0.190906,2.251916,3.798351,-0.1227,-0.038452
297,2970,0.563437,-0.190906,2.251916,3.798351,-0.1227,-0.038452
298,2980,0.563437,-0.190906,2.251916,3.798351,-0.1227,-0.038452
299,2990,0.563437,-0.190906,2.251916,3.798351,-0.1227,-0.038452
300,3000,0.52963,-0.273034,1.973693,4.434881,0.614433,-0.208349
301,3010,0.4968,-0.378087,1.62981,5.071411,1.351566,-0.378246
302,3020,0.4968,-0.378087,1.62981,5.071411,1.351566,-0.378246
303,3030,0.4968,-0.378087,1.62981,5.249853,1.4570425,-0.35221100000000005
304,3040,0.415053,-0.41545,0.987709,5.428295,1.562519,-0.326176
305,3050,0.415053,-0.41545,0.987709,5.699863,0.865841,-0.340996
306,3060,0.398692,-0.408368,0.879344,5.706272,0.764637,-0.3554155
307,3070,0.37476,-0.399577,0.78148,5.712681,0.663433,-0.369835
308,3080,0.488009,-0.322439,0.445151,5.039368,1.005364,-0.606289
309,3090,0.488009,-0.322439,0.445151,5.039368,1.005364,-0.606289
310,3100,0.488009,-0.322439,0.445151,5.039368,1.005364,-0.606289
311,3110,0.389412,-0.253879,0.292128,4.490757,2.070675,-0.800152
312,3120,0.389412,-0.253879,0.292128,4.490757,2.070675,-0.800152
313,3130,0.3318105,-0.207023,0.2549175,4.371529,2.202721,-0.821514
314,3140,0.274209,-0.160167,0.217707,4.065781,2.095108,-0.826721
315,3150,0.274209,-0.160167,0.217707,4.065781,2.095108,-0.826721
316,3160,0.098017,-0.049848,0.083456,3.7972835,1.2610435,-0.768175
317,3170,0.098017,-0.049848,0.083456,3.751488,1.095886,-0.745811
318,3180,0.098017,-0.049848,0.083456,3.751488,1.095886,-0.745811
319,3190,0.067247,0.03486,-0.091515,3.359489,0.883999,-0.585995
320,3200,0.067247,0.03486,-0.091515,3.359489,0.883999,-0.585995
321,3210,0.067247,0.03486,-0.091515,3.359489,0.883999,-0.585995
322,3220,0.0685905,0.15542,-0.216837,2.9882524999999998,1.1944865,-0.461359
323,3230,0.069934,0.27598,-0.342159,2.617016,1.504974,-0.336723
324,3240,0.069934,0.27598,-0.342159,2.447119,1.4607809999999999,-0.307951
325,3250,0.069934,0.27598,-0.342159,2.277222,1.416588,-0.279179
326,3260,0.069934,0.27598,-0.342159,2.277222,1.416588,-0.279179
327,3270,0.065568,0.407758,-0.579158,1.367455,1.265316,-0.193996
328,3280,0.071414,0.4471815,-0.5836755,1.0814,1.4496325,-0.1891895
329,3290,0.07726,0.486605,-0.588193,0.455551,1.87254,-0.196133
330,3300,0.07726,0.486605,-0.588193,0.455551,1.87254,-0.196133
331,3310,0.049695,0.554188,-0.477142,0.065689,2.057857,-0.220699
332,3320,0.036753,0.567131,-0.446128,-0.024834,2.070675,-0.218563
333,3330,-0.022558,0.590574,-0.410261,-0.024834,2.070675,-0.218563
334,3340,-0.022558,0.590574,-0.410261,-0.13404850000000001,1.9571874999999999,-0.18391600000000002
335,3350,-0.022558,0.590574,-0.410261,-0.243263,1.8437,-0.149269
336,3360,-0.022558,0.590574,-0.410261,-0.243263,1.8437,-0.149269
337,3370,-0.022558,0.590574,-0.410261,-0.243263,1.8437,-0.149269
338,3380,-0.022558,0.590574,-0.410261,-0.243263,1.8437,-0.149269
339,3390,-0.022558,0.590574,-0.410261,-0.243263,1.8437,-0.149269
340,3400,-0.022558,0.590574,-0.410261,-0.243263,1.8437,-0.149269
341,3410,-0.022558,0.590574,-0.410261,-0.243263,1.8437,-0.149269
342,3420,-0.022558,0.590574,-0.410261,-0.243263,1.8437,-0.149269
343,3430,-0.022558,0.590574,-0.410261,-0.243263,1.8437,-0.149269
344,3440,-0.022558,0.590574,-0.410261,-0.243263,1.8437,-0.149269
345,3450,-0.022558,0.590574,-0.410261,-0.243263,1.8437,-0.149269
346,3460,-0.022558,0.590574,-0.410261,-0.243263,1.8437,-0.149269
347,3470,-0.022558,0.590574,-0.410261,-0.243263,1.8437,-0.149269
348,3480,-0.022558,0.590574,-0.410261,-0.243263,1.8437,-0.149269
349,3490,-0.022558,0.590574,-0.410261,-0.243263,1.8437,-0.149269
350,3500,-0.022558,0.590574,-0.410261,-0.243263,1.8437,-0.149269
351,3510,-0.022558,0.590574,-0.410261,-0.243263,1.8437,-0.149269
352,3520,-0.022558,0.590574,-0.410261,-0.243263,1.8437,-0.149269
353,3530,-0.022558,0.590574,-0.410261,-0.243263,1.8437,-0.149269
354,3540,-0.022558,0.590574,-0.410261,-0.243263,1.8437,-0.149269
355,3550,-0.022558,0.590574,-0.410261,-0.243263,1.8437,-0.149269
356,3560,-0.022558,0.590574,-0.410261,-0.243263,1.8437,-0.149269
357,3570,-0.022558,0.590574,-0.410261,-0.243263,1.8437,-0.149269
358,3580,-0.022558,0.590574,-0.410261,-0.243263,1.8437,-0.149269
359,3590,-0.022558,0.590574,-0.410261,-0.243263,1.8437,-0.149269
360,3600,-0.022558,0.590574,-0.410261,-0.243263,1.8437,-0.149269
361,3610,-0.022558,0.590574,-0.410261,-0.243263,1.8437,-0.149269
362,3620,-0.022558,0.590574,-0.410261,-0.243263,1.8437,-0.149269
363,3630,-0.022558,0.590574,-0.410261,-0.243263,1.8437,-0.149269
364,3640,-0.022558,0.590574,-0.410261,-0.243263,1.8437,-0.149269
365,3650,-0.022558,0.590574,-0.410261,-0.243263,1.8437,-0.149269
366,3660,-0.022558,0.590574,-0.410261,-0.243263,1.8437,-0.149269
367,3670,-0.022558,0.590574,-0.410261,-0.243263,1.8437,-0.149269
368,3680,-0.022558,0.590574,-0.410261,3.788738,1.478405,-0.112019
369,3690,-0.022558,0.590574,-0.410261,-2.1356295,-0.751753,0.34186350000000004
370,3700,0.34109,-0.187487,1.2603,-4.24963,-1.718464,0.824451
371,3710,0.34109,-0.187487,1.2603,-4.24963,-1.718464,0.824451
372,3720,0.462886,-0.18187,1.402579,-4.445696,-0.456686,0.6283855
373,3730,0.462886,-0.18187,1.402579,-4.641762,0.805092,0.43232
374,3740,0.473738,-0.1630815,1.6870295,-4.641762,0.805092,0.43232
375,3750,0.48459,-0.144293,1.97148,-4.641762,0.805092,0.43232
376,3760,0.40441499999999997,0.033501500000000003,1.0744464999999999,-4.641762,0.805092,0.43232
377,3770,0.32424,0.211296,0.177413,-4.641762,0.805092,0.43232
378,3780,0.32424,0.211296,0.177413,-4.641762,0.805092,0.43232
379,3790,0.32424,0.211296,0.177413,-4.641762,0.805092,0.43232
380,3800,0.32424,0.211296,0.177413,-3.592472,0.600014,0.020094
381,3810,0.32424,0.211296,0.177413,-2.543182,0.394936,-0.392132
382,3820,0.32424,0.211296,0.177413,-2.543182,0.394936,-0.392132
383,3830,0.1559845,-0.032265,1.6280999999999999,-2.543182,0.394936,-0.392132
384,3840,0.14523950000000002,-0.0325095,1.7715999999999998,-2.543182,0.394936,-0.392132
385,3850,0.129977,-0.033975,1.885826,-2.543182,0.394936,-0.392132
386,3860,0.054824,-0.034463,2.083508,-1.141281,0.796547,-0.659561
387,3870,0.054824,-0.034463,2.083508,0.804958,-0.056744,0.041389
388,3880,0.462642,-0.405682,1.390155,-0.481853,0.794411,-0.4912
389,3890,0.462642,-0.405682,1.390155,-0.15694599999999997,0.7369330000000001,-0.364962
390,3900,0.2010095,-0.18528899999999998,1.751606,0.167961,0.679455,-0.238724
391,3910,-0.060623,0.035104,2.113057,0.574913,0.511093,-0.059814
392,3920,-0.060623,0.035104,2.113057,0.574913,0.511093,-0.059814
393,3930,0.277521,0.06242399999999999,2.108157,0.574913,0.511093,-0.059814
394,3940,0.293501,0.059982,2.133539,0.574913,0.511093,-0.059814
395,3950,0.293501,0.059982,2.133539,2.473221,-0.178108,0.022297
396,3960,0.293501,0.059982,2.133539,3.120899,0.11589,0.080776
397,3970,0.293501,0.059982,2.133539,3.120899,0.11589,0.080776
398,3980,0.293501,0.059982,2.133539,4.275665,1.006432,-0.065155
399,3990,0.28495400000000004,0.0832885,2.160142,4.275665,1.006432,-0.065155
400,4000,0.276407,0.106595,2.186745,4.275665,1.006432,-0.065155
401,4010,0.338648,-0.227994,1.481182,2.834377,-0.232449,0.578251
402,4020,0.4950905,0.074879,2.145383,2.957878,-0.151539,0.538864
403,4030,0.249087,-0.257298,0.682394,3.330784,0.088253,0.321636
404,4040,0.249087,-0.257298,0.682394,3.330784,0.088253,0.321636
405,4050,0.347684,-0.12013250000000002,1.3031424999999999,3.5470105,0.37744500000000003,0.1815125
406,4060,0.444083,0.010073499999999999,1.9375665,3.7946795,0.6873985,0.0429915
407,4070,0.501196,-0.068377,1.954172,4.470596,0.814705,-0.061951
408,4080,0.166119,-0.09353,0.319723,4.65805,0.857296,0.090389
409,4090,0.509743,-0.076924,1.910246,4.29903,0.753956,0.016956
410,4100,0.509743,-0.076924,1.910246,4.29903,0.753956,0.016956
411,4110,0.2476215,0.28011600000000003,0.6351559999999999,4.75605,1.471996,-0.116291
412,4120,-0.010348,0.6711,-0.460048,3.638535,1.494293,-0.116291
413,4130,0.23528949999999998,0.2635255,0.548632,3.4281829999999998,1.2029645,-0.10240550000000001
414,4140,-0.028663,0.051435,2.023465,0.46836849999999997,-0.4524140000000001,-0.020361000000000004
415,4150,-0.028663,0.051435,2.023465,-4.027062,-2.656937,0.106411
416,4160,0.187212,-0.089989,1.5858685,0.5370615000000001,-0.4656985,-0.025167499999999995
417,4170,0.403087,-0.231413,1.148272,5.101185,1.72554,-0.156746
418,4180,0.108029,0.514902,-0.447837,2.302723,1.122589,0.128708
419,4190,0.2792305,-0.179306,0.5681535,4.8092555,2.2278215,-0.36075599999999997
420,4200,0.197346,-0.175277,0.436116,4.634552,2.51915,-0.370903
421,4210,0.075199,-0.154672,0.3341155,2.511005,1.91987,-0.1604845
422,4220,-0.016453,-0.125001,0.247225,0.547142,1.377201,-0.107746
423,4230,-0.016453,-0.125001,0.247225,4.115849,2.368946,0.096798
424,4240,-0.016453,-0.125001,0.247225,4.115849,2.368946,0.096798
425,4250,0.018697,-0.0705745,0.126421,3.8782595,1.5306095,0.3811835
426,4260,0.053847,-0.016148,0.005617,3.788738,1.271725,0.435524
427,4270,0.07812949999999999,0.037653,-0.0961545,3.5267165,1.1476229999999998,0.4238415
428,4280,0.12607,0.088554,-0.171095,1.114979,0.5414675,0.18471749999999998
429,4290,0.12607,0.088554,-0.171095,-1.124191,-0.052471,-0.041656
430,4300,0.13339600000000001,0.0978185,-0.1746355,0.809765,0.805092,0.11281999999999999
431,4310,0.163784,0.1491925,-0.20062750000000001,0.2803804999999999,0.647478,0.0265025
432,4320,0.152688,0.285259,-0.322653,2.441177,1.65411,0.153275
433,4330,0.152688,0.285259,-0.322653,2.441177,1.65411,0.153275
434,4340,0.152688,0.285259,-0.322653,2.441177,1.65411,0.153275
435,4350,0.152688,0.285259,-0.322653,2.441177,1.65411,0.153275
436,4360,0.111204,0.38288,-0.525219,0.9637070000000001,0.20107299999999995,-0.0843145
437,4370,0.1617235,0.383734,-0.35571200000000003,1.319523,0.985203,0.17664
438,4380,0.214441,0.513436,-0.685813,0.957298,0.944614,0.134048
439,4390,0.214441,0.513436,-0.685813,-1.2621785,-0.632992,0.1542755
440,4400,0.214441,0.513436,-0.685813,0.957298,0.944614,0.134048
441,4410,0.234679,0.567375,-0.718262,0.311756,0.885067,0.003071
442,4420,0.23358,0.5766545,-0.678121,0.311756,0.885067,0.003071
443,4430,0.232481,0.585934,-0.63798,-4.01104,-2.152119,0.304546
444,4440,0.232481,0.585934,-0.63798,-0.063152,0.807228,-0.076771
445,4450,0.3070545,0.263907,0.04502449999999997,-0.33432,0.5153654999999999,-0.155611
446,4460,0.370883,-0.072772,0.684317,-0.479717,0.278912,-0.173702
447,4470,0.370883,-0.072772,0.684317,-0.479717,0.278912,-0.173702
448,4480,0.175368,0.629128,-0.648206,-0.479717,0.278912,-0.173702
449,4490,0.175368,0.629128,-0.648206,-4.492626,-0.923786,0.04673
450,4500,0.1916075,0.622412,-0.633569,-2.6182175,-1.5901565,-0.009212500000000002
451,4510,0.287396,0.577631,-0.695825,-1.321258,-1.059036,-0.081043
452,4520,0.307772,0.542481,-0.682272,-1.451302,-1.121922,-0.114155
453,4530,0.34218950000000004,0.12904549999999998,0.24136400000000008,-1.7814830000000001,-1.0899450000000002,-0.2265075
454,4540,0.356231,-0.24924,1.151447,-2.111664,-1.057968,-0.33886
455,4550,0.224804,-0.1625935,1.112405,-3.453951,-0.09499550000000001,-0.0922585
456,4560,0.093377,-0.075947,1.073363,-4.796238,0.867977,0.154343
457,4570,0.33438999999999997,-0.006761500000000004,0.7662015,-3.014555,-0.80349,-0.571642
458,4580,0.277155,-0.0699795,0.8292975,-3.1785775000000003,-0.7395365,-0.5247785
459,4590,0.493625,0.084891,0.418564,-3.214226,-0.724583,-0.502949
460,4600,0.493625,0.084891,0.418564,-3.214226,-0.724583,-0.502949
461,4610,0.220775,-0.056807500000000004,0.9158219999999999,-3.224907,0.11589050000000001,-0.443268
462,4620,0.087272,-0.109403,2.346362,-2.94693,1.071453,-0.740471
463,4630,0.087272,-0.109403,2.346362,-1.426735,0.282116,-0.832062
464,4640,0.1216895,-0.0238555,1.1117945,-2.665615,-0.7480145,-0.26589399999999996
465,4650,0.156107,0.061692,-0.122773,-4.231605,-2.276688,0.412159
466,4660,0.204673,0.086356,1.932438,-4.329605,-2.451458,0.352478
467,4670,0.5302405,-0.0887675,0.36351100000000003,-4.347696,-2.319813,0.1271055
468,4680,0.4849715,-0.14246150000000002,0.4125805,-4.355106,-2.178688,-0.01936
469,4690,0.457514,-0.152596,0.425401,-4.355106,-2.178688,-0.01936
470,4700,0.4591015,-0.1057395,1.2739755,-4.542694,-1.808987,-0.143929
471,4710,0.458735,-0.158701,1.363171,-0.8072950000000001,-1.080933,0.045661499999999994
472,4720,0.483613,-0.326835,1.04357,-5.542984,-1.367989,-0.494404
473,4730,0.465573,-0.354674,1.212467,-5.583439,-1.3509655,-0.5396655
474,4740,0.569298,-0.212151,2.244346,-5.623894,-1.333942,-0.584927
475,4750,0.31084,-0.411299,1.673003,-5.465145,-1.338215,-0.789471
476,4760,0.31084,-0.411299,1.673003,-0.16762699999999997,-0.7246495,-0.5519485
477,4770,0.046032,-0.404461,1.942694,5.570488,1.112976,-0.3480055
478,4780,-0.093316,-0.362489,1.961987,5.712681,0.663433,-0.369835
479,4790,0.4057735,-0.2641205,0.3122745,-3.82679,-2.692184,-0.201473
480,4800,0.202963,-0.121827,0.20745,-3.82679,-2.692184,-0.201473
481,4810,0.202963,-0.121827,0.20745,-3.548212,-2.8636835,0.06749149999999998
482,4820,0.340602,-0.263403,1.464332,-3.269634,-3.035183,0.336456
483,4830,0.465573,-0.263647,1.48167,-3.269634,-3.035183,0.336456
484,4840,0.544389,-0.302689,1.572453,-3.269634,-3.035183,0.336456
485,4850,0.544389,-0.302689,1.572453,-3.269634,-3.035183,0.336456
486,4860,0.589307,-0.31319050000000004,2.157822,-3.902359,-1.09642,0.010548
487,4870,0.6511665,-0.29695099999999996,2.3943175,-3.6408709999999997,-1.4026355,-0.051269499999999996
488,4880,0.075306,0.192249,-0.289686,-3.379383,-1.708851,-0.113087
489,4890,0.075306,0.192249,-0.289686,-0.5510804999999999,-0.14613149999999997,-0.196133
490,4900,0.734745,-0.244844,2.638245,-2.90741,-1.491623,-0.234451
491,4910,0.7106,-0.22604,2.607995,-0.20594600000000007,0.14466300000000004,-0.3223705
492,4920,0.7106,-0.22604,2.607995,1.971474,1.181202,-0.244064
493,4930,0.3971045,0.152001,1.030414,0.11522299999999996,0.8807945,-0.45021049999999996
494,4940,0.431384,-0.095483,2.251916,-1.685619,0.832863,-0.679722
495,4950,0.431384,-0.095483,2.251916,-1.685619,0.832863,-0.679722
496,4960,0.359512,-0.065828,2.330748,-1.215315,1.1812019999999999,-0.6637664999999999
497,4970,0.14292,-0.000549,2.44447,-0.199604,0.942478,-0.507221
498,4980,0.14292,-0.000549,2.44447,-0.062685,0.8892725,-0.4688355
499,4990,0.078969,0.031685,2.265836,0.4656985,0.6869315,-0.2807805
500,5000,0.095575,0.065843,2.140377,1.221523,0.307617,0.077572
501,5010,0.108258,0.074268,2.124397,1.2912845,0.2612875,0.1265715
502,5020,0.2371365,0.369204,0.748512,0.0422570000000001,-0.192461,0.121832
503,5030,0.219325,0.659134,-0.634317,-1.661053,-0.365562,-0.168495
504,5040,0.219325,0.659134,-0.634317,1.886292,-0.10788,0.45475
505,5050,0.315602,0.359436,0.779999,2.2314265,-0.269232,0.4504775
506,5060,0.433826,0.04704,2.181617,2.576561,-0.430584,0.446205
507,5070,0.433826,0.04704,2.181617,2.576561,-0.430584,0.446205
508,5080,0.63102,0.002869,1.921937,3.348808,-0.220699,0.170364
509,5090,0.63102,0.002869,1.921937,3.348808,-0.220699,0.170364
510,5100,0.63102,0.002869,1.921937,3.410626,0.116959,0.028572
511,5110,0.723298,-0.041057,1.850935,3.453217,0.594139,-0.14286
512,5120,0.7263505,-0.0441095,1.8455625,3.453217,0.594139,-0.14286
513,5130,0.6176195,-0.09267500000000001,1.4962005,3.45108,0.851955,-0.222836
514,5140,0.727694,-0.07668,1.907072,3.45108,0.851955,-0.222836
515,5150,0.66643,-0.151864,1.928775,-0.5111599999999998,0.552616,-0.33839250000000004
516,5160,0.66643,-0.151864,1.928775,-4.684353,-0.640469,0.048866
517,5170,0.5113305,-0.205924,1.7731875,-4.394026,-0.5110264999999999,-0.1923945
518,5180,0.3562305,-0.220668,1.737198,3.9533614999999998,2.0498465,-0.6291869999999999
519,5190,0.396005,-0.173323,2.050571,-2.614479,-1.790962,-0.297337
520,5200,0.311328,-0.259252,1.345741,4.438553,2.668285,-0.725651
521,5210,0.347195,-0.248019,1.17196,1.067047,0.526514,-0.270166
522,5220,0.253971,-0.241181,1.123638,-2.738113,-0.50415,-0.005474
523,5230,0.253971,-0.241181,1.123638,-3.192997,0.5568885,-0.2547455
524,5240,0.253971,-0.241181,1.123638,-3.397541,1.01284,-0.406017
525,5250,0.3559865,-0.174437,1.6571449999999999,-3.397541,1.01284,-0.406017
526,5260,0.096307,-0.300247,1.014296,4.803982,2.141972,-0.334587
527,5270,0.028205,-0.317342,0.835662,4.803982,2.141972,-0.334587
528,5280,0.110715,-0.230924,0.481019,2.233496,1.2663845,-0.241394
529,5290,0.121918,0.107571,2.181128,-0.103741,0.716705,-0.133247
530,5300,0.121918,0.107571,2.181128,1.411114,0.037117,0.192661
531,5310,0.172804,-0.022024000000000002,1.2789815,2.0097925,-0.1557445,0.396671
532,5320,0.22369,-0.151619,0.376835,2.608471,-0.348606,0.600681
533,5330,0.15023050000000002,-0.100108,0.1808475,4.462051,1.226997,0.233116
534,5340,0.1239935,-0.0766795,0.0886,4.227734,1.272793,0.239525
535,5350,0.480927,-0.144049,1.557312,4.227734,1.272793,0.239525
536,5360,0.129977,0.063279,-0.081762,3.821316,1.300497,0.2459335
537,5370,0.39161,-0.204337,0.856389,3.124103,1.180134,0.242729
538,5380,0.2411505,-0.0081045,0.377797,5.068207,1.842632,-0.27504
539,5390,0.090691,0.219966,-0.12458949999999999,5.026083,1.8895625,-0.3128245
540,5400,0.090691,0.251804,-0.148384,4.983959,1.936493,-0.350609
541,5410,0.12510849999999998,0.3275825,-0.2162265,4.441757,2.711945,-0.269699
542,5420,0.140722,0.366518,-0.2738275,3.3407975,1.8815520000000001,-0.072632
543,5430,0.139501,0.401164,-0.344845,2.14611,1.152363,0.100002
544,5440,-0.003022,-0.073993,0.132511,2.14611,1.152363,0.100002
545,5450,0.108762,0.453637,-0.453943,2.14611,1.152363,0.100002
546,5460,0.07555,0.505134,-0.520335,3.128376,1.269589,0.376911
547,5470,0.183671,0.167859,-0.198171,1.492023,1.362248,0.047798
548,5480,0.083121,0.594726,-0.621618,1.144753,1.105499,0.060616
549,5490,0.1835645,0.39934749999999997,-0.504233,0.9141735,0.9243870000000001,0.053139000000000006
550,5500,0.153909,0.63914,-0.701656,0.439663,0.720978,0.015888
551,5510,0.158549,0.650602,-0.710447,1.0974215,0.8914089999999999,0.072298
552,5520,0.164654,0.702358,-0.71875,0.063553,0.70816,-0.060883
553,5530,0.164654,0.707593,-0.703014,-0.052538,0.682058,-0.0853825
554,5540,0.164654,0.712828,-0.687278,0.464096,0.899887,0.039253
555,5550,0.164654,0.712828,-0.687278,0.464096,0.899887,0.039253
556,5560,0.129977,0.7006485,-0.577326,-0.3715705,0.2863215,-0.1562115
557,5570,0.158167,0.6694055,-0.6203974999999999,-0.369968,0.254345,-0.151405
558,5580,0.115813,0.713072,-0.752175,-0.440331,-0.065155,-0.139656
559,5590,0.122773,0.7002665,-0.824917,-0.514832,-0.191994,-0.133247
560,5600,0.129733,0.693322,-0.851749,-0.514832,-0.191994,-0.133247
561,5610,0.164165,0.66939,-0.860784,-1.209374,-0.635128,-0.13752
562,5620,0.180496,0.655227,-0.848116,-2.111664,-1.057968,-0.33886
563,5630,0.180496,0.655227,-0.848116,-2.111664,-1.057968,-0.33886
564,5640,0.216501,0.585446,-0.7446205,-2.00305,-0.873251,-0.31756399999999996
565,5650,0.036264,0.136876,-0.237457,-2.086163,-0.895081,-0.342064
566,5660,0.027229,0.098536,-0.172804,-2.717819,-1.174126,-0.517902
567,5670,0.06897199999999999,0.0881725,-0.1627915,-2.7433870000000002,-1.211443,-0.5029485
568,5680,0.346707,0.016545,0.086875,-2.768955,-1.24876,-0.487995
569,5690,-0.039622,0.276712,-0.329979,-2.989521,-1.682281,-0.182247
570,5700,0.0038005,0.1916535,-0.24441649999999998,-3.8348005,-1.9837569999999998,0.11442150000000001
571,5710,0.029182,0.17372,-0.200613,-3.289928,-1.899643,0.313091
572,5720,0.046765,0.159556,-0.147895,-3.394871,-1.933155,0.5543515
573,5730,0.11253200000000001,-0.131961,0.8617615000000001,-3.4741785,-1.959257,0.758829
574,5740,0.330345,0.047528,0.003419,-3.502884,-1.969871,0.825386
575,5750,0.39026649999999996,0.0371645,0.0042734999999999995,-3.588133,-2.001848,0.8301925
576,5760,0.450188,0.026801,0.005128,-3.354816,-2.045574,0.645409
577,5770,0.49851,0.002869,0.010257,-3.708496,-0.84074,0.399342
578,5780,0.675709,-0.04765,0.076374,-3.806496,-0.681992,0.196934
579,5790,0.740118,-0.068621,0.084677,-3.756428,-1.132069,0.069628
580,5800,0.740118,-0.068621,0.084677,-3.70636,-1.582146,-0.057678
581,5810,0.6527545,-0.17918399999999998,0.3797505,-4.250230999999999,-1.650839,-0.1433945
582,5820,0.7106,-0.22604,2.607995,-4.794102,-1.719532,-0.229111
583,5830,0.7106,-0.22604,2.607995,-5.192509,-1.845303,-0.732994
584,5840,0.48375049999999997,-0.1276875,2.5213485,-5.180759500000001,-1.8085195,-0.7372665
585,5850,0.2135705,-0.39725699999999997,1.4189405000000002,-4.913397,-1.405306,-0.5503465000000001
586,5860,0.433826,0.04704,2.181617,-4.74083,-1.300964,-0.3932
587,5870,0.1508565,-0.4020185,1.5519699999999998,-4.5591835,-1.2779995,-0.276041
588,5880,0.15049,-0.407391,1.603955,-4.377537,-1.255035,-0.158882
589,5890,0.15049,-0.407391,1.603955,-4.377537,-1.255035,-0.158882
590,5900,0.15049,-0.407391,1.603955,-4.377537,-1.255035,-0.158882
591,5910,0.15049,-0.407391,1.603955,-3.763905,-2.266007,0.201206
592,5920,0.1656155,-0.3379465,1.7470729999999999,-3.5546205,-2.6143454999999998,0.39453499999999997
593,5930,0.227597,-0.33758,1.784543,-3.420906,-2.8018,0.504818
594,5940,0.227597,-0.33758,1.784543,3.474579,1.499634,-0.469971
595,5950,0.2842215,-0.3161055,1.7108395,0.11155150000000003,-0.15681250000000002,0.10794599999999999
596,5960,0.340846,-0.294631,1.637136,-3.251476,-1.813259,0.685863
597,5970,0.366487,-0.295119,1.633228,-3.31543,-1.525669,0.713634
598,5980,0.366487,-0.295119,1.633228,-3.31543,-1.525669,0.713634
599,5990,0.366487,-0.295119,1.633228,-3.31543,-1.525669,0.713634
600,6000,0.324011,-0.2671885,1.4688645,0.6536865000000003,0.736399,0.20280849999999997
601,6010,0.5690535,-0.1992085,2.168933,0.621777,0.551548,0.3620915
602,6020,0.446036,-0.140386,2.133051,4.677277,1.394157,0.26516
603,6030,0.446036,-0.140386,2.133051,1.12566,0.40995600000000004,0.19907
604,6040,0.446036,-0.140386,2.133051,4.557915,1.234474,0.307751
605,6050,0.446036,-0.140386,2.133051,1.2998295000000002,0.41316,0.231047
606,6060,0.51365,-0.034219,2.066902,-1.7367555000000001,-0.19780150000000002,0.05680999999999999
607,6070,0.35645950000000004,0.0441245,1.0642055000000001,1.46759,0.8040235,0.029173000000000004
608,6080,0.130221,0.067553,-0.098597,3.124103,1.180134,0.242729
609,6090,0.130221,0.067553,-0.098597,3.124103,1.180134,0.242729
610,6100,0.23968499999999998,0.0753675,1.0922735000000001,0.8241845000000001,0.775318,0.007343500000000003
611,6110,0.349149,0.083182,2.283144,2.8759,1.02993,0.26516
612,6120,0.256901,0.117584,2.312937,-0.099468,0.936203,-0.387859
613,6130,0.288266,0.118805,2.296575,0.5152319999999999,0.484524,-0.2291775
614,6140,0.319631,0.120026,2.280213,1.129932,0.032845,-0.070496
615,6150,0.319631,0.120026,2.280213,1.129932,0.032845,-0.070496
616,6160,0.39625,0.128329,2.226764,1.033001,0.984135,0.062752
617,6170,0.427477,0.121491,2.225298,0.31496,0.71991,-0.00761
618,6180,0.148292,0.704556,-0.588681,2.104588,-0.417767,0.020161
619,6190,0.148292,0.704556,-0.588681,2.372017,-0.379448,-0.005474
620,6200,0.6211599999999999,-0.0219015,2.369058,2.372017,-0.379448,-0.005474
621,6210,0.674732,-0.046917,2.333908,2.372017,-0.379448,-0.005474
622,6220,0.79601,-0.061081,2.275818,3.354149,0.712433,-0.368767
623,6230,0.79601,-0.061081,2.275818,-0.3561495000000001,-0.2457999999999999,-0.189724
624,6240,0.3947845,0.128069,0.9671960000000001,-2.870159,-1.447964,-0.368767
625,6250,-0.006441,0.317219,-0.341426,-2.870159,-1.447964,-0.368767
626,6260,0.6863170000000001,-0.2737665,2.3654095,3.9144419999999998,1.655779,-0.8645725
627,6270,0.597839,-0.368349,2.372247,4.237213,1.878948,-0.93647
628,6280,0.118499,0.096826,-0.053938,4.749641,2.050381,-0.891743
629,6290,0.253223,-0.19505699999999998,0.929604,0.5914019999999998,0.01682299999999981,-0.0017359999999999598
630,6300,0.387947,-0.48694,1.913146,5.484638,2.169743,-0.527382
631,6310,0.301072,-0.547228,1.658107,-5.156794,-1.7754745,-0.5418015
632,6320,0.172194,-0.578455,1.191985,5.7270335,1.87521,-0.3878595
633,6330,0.161723,-0.587247,1.079956,6.040726,1.436748,-0.167427
634,6340,0.1407215,-0.481568,1.3639185,6.040726,1.436748,-0.167427
635,6350,0.11972,-0.375889,1.647881,6.040726,1.436748,-0.167427
636,6360,0.306688,-0.558706,0.621618,6.025906,1.229134,0.019093
637,6370,0.276896,-0.433002,0.345089,1.2646485,0.27997999999999995,0.3796485
638,6380,0.276896,-0.433002,0.345089,1.0185145,0.21015199999999995,0.276842
639,6390,0.276896,-0.433002,0.345089,5.533638,1.089478,-0.18652
640,6400,0.100215,-0.33758,0.283825,5.124683,0.85516,-0.235519
641,6410,0.583187,0.048261,2.353444,5.124683,0.85516,-0.235519
642,6420,0.07432949999999999,-0.30523849999999997,0.31518999999999997,4.749708,0.9734535,-0.04653
643,6430,0.11740049999999999,-0.262167,0.264304,4.614391,1.261043,0.039253
644,6440,0.118499,-0.246553,0.243806,4.614391,1.261043,0.039253
645,6450,0.118499,-0.246553,0.243806,0.465164,0.541935,-0.233383
646,6460,0.088615,-0.15722049999999999,0.057464,2.2846314999999997,1.01017,-0.0331115
647,6470,0.068957,0.046063,-0.205741,3.72385,1.086407,0.240593
648,6480,0.068957,0.046063,-0.205741,2.690449,-0.217495,-0.042725
649,6490,0.068957,0.046063,-0.205741,3.601284,0.960636,0.250206
650,6500,0.127535,0.136876,-0.197682,3.357353,0.724182,0.263023
651,6510,0.1392565,0.1804355,-0.2843285,3.21516,0.7018185,0.2203655
652,6520,0.142431,0.282085,-0.471525,3.591671,1.43261,-0.792675
653,6530,0.14963500000000002,0.2917155,-0.47494400000000003,3.0383205,1.1950209999999999,-0.3548815
654,6540,0.480439,-0.448875,2.162599,4.749641,2.050381,-0.891743
655,6550,0.480439,-0.448875,2.162599,4.749641,2.050381,-0.891743
656,6560,0.340602,-0.05203050000000001,0.8299230000000001,3.3227059999999997,1.8165969999999998,-0.4906655
657,6570,0.1708655,0.46487100000000003,-0.6141705,3.762703,1.483145,-0.1098155
658,6580,0.141454,0.501471,-0.646497,5.93111,1.202431,0.006275
659,6590,0.136082,0.518076,-0.649427,1.313114,1.660519,-0.185452
660,6600,0.136082,0.518076,-0.649427,1.073456,1.431541,-0.173702
661,6610,0.160747,0.556386,-0.68508,0.95623,1.249294,-0.166359
662,6620,0.169751,0.574212,-0.731937,0.881729,1.16518,-0.15995
663,6630,0.169751,0.574212,-0.731937,0.881729,1.16518,-0.15995
664,6640,0.235167,0.626686,-0.891798,0.881729,1.16518,-0.15995
665,6650,0.2393185,0.6634074999999999,-0.8897225,-0.1351165,0.8855345,-0.352144
666,6660,0.20160450000000002,0.668902,-0.867012,-0.3301145,0.856295,-0.40968899999999997
667,6670,0.175124,0.675007,-0.853703,-0.453148,0.830727,-0.443268
668,6680,0.09374350000000001,0.6696345,-0.812829,0.8235835,1.0890105,-0.2275755
669,6690,0.212243,0.395822,-0.543046,2.100315,1.347294,-0.011883
670,6700,0.212243,0.395822,-0.543046,-1.137009,-0.030041,-0.369835
671,6710,0.14194299999999999,0.583736,-0.737187,-1.137009,-0.030041,-0.369835
672,6720,0.154886,0.578608,-0.743414,-1.966801,-0.693741,-0.382519
673,6730,0.154886,0.578608,-0.743414,-1.966801,-0.693741,-0.382519
674,6740,0.159281,0.560049,-0.698725,-2.112732,-0.719242,-0.397472
675,6750,0.13219,0.4934275,-0.5865905,-0.807829,0.5137635,-0.4342555
676,6760,0.083365,0.407269,-0.439321,-0.952759,0.325775,-0.412426
677,6770,0.01334,0.333337,-0.393167,-2.930908,-0.760765,-0.350609
678,6780,0.002595,0.3195395,-0.3914725,-2.966089,-0.7757185,-0.325041
679,6790,-0.00815,0.305742,-0.389778,-3.00127,-0.790672,-0.299473
680,6800,-0.077718,0.244722,-0.368044,-3.1216334999999997,-0.9525585,-0.173769
681,6810,-0.057693,0.194446,-0.284832,-3.4411335000000003,-1.5719985,0.2544785
682,6820,-0.057693,0.194446,-0.284832,-3.474178,-1.672668,0.317364
683,6830,0.161235,0.12784,-0.079335,-3.513565,-1.926212,0.4654315
684,6840,0.161235,0.12784,-0.079335,-3.552952,-2.179756,0.613499
685,6850,0.2682415,0.10551100000000001,-0.0811665,-3.5673715,-2.263403,0.6422045000000001
686,6860,0.436268,0.014591,-0.148384,-3.7884710000000004,-2.100916,0.5895330000000001
687,6870,0.436268,0.014591,-0.148384,-4.290218,-1.527805,0.424976
688,6880,0.53804,-0.070575,-0.111784,-4.290218,-1.527805,0.424976
689,6890,0.572335,-0.11451599999999999,-0.0418655,-4.3764685,-1.4436245,0.3849885
690,6900,0.587094,-0.207511,0.160838,-5.476894,-0.84074,-0.210018
691,6910,0.534743,-0.2398375,0.295302,-5.476894,-0.84074,-0.210018
692,6920,0.40052299999999996,-0.29766800000000004,0.629173,-5.729903999999999,-1.100626,-0.3325175
693,6930,0.318654,-0.323172,0.82858,-5.982914,-1.360512,-0.455017
694,6940,0.318654,-0.323172,0.82858,-5.982914,-1.360512,-0.455017
695,6950,0.1426755,-0.363099,1.518392,-4.912796,-3.143797,0.071764
696,6960,0.297164,-0.362733,1.307889,-4.708786,-3.360024,0.168228
697,6970,0.297164,-0.362733,1.307889,-4.708786,-3.360024,0.168228
698,6980,0.70425,-0.306108,0.775375,-3.958836,-3.464432,0.770111
699,6990,0.70425,-0.306108,0.775375,-4.017448,-3.793678,0.512295
700,7000,0.8434765,-0.4455785,1.1047125,-4.6971035,-2.86849,0.37270549999999997
701,7010,0.848971,-0.505744,1.360362,-4.715195,-2.543049,0.587864
702,7020,0.7557465,-0.5684585,1.793929,-5.3154755,-1.9693375,0.053072
703,7030,0.698145,-0.609469,2.023953,-5.174351,-2.056122,-0.023632
704,7040,0.698145,-0.609469,2.023953,-5.174351,-2.056122,-0.023632
705,7050,0.6091945000000001,-0.5901925,2.1191465000000003,-4.5085815,-2.030554,0.1719
706,7060,0.520244,-0.570916,2.21434,-3.842812,-2.004986,0.367432
707,7070,0.520244,-0.570916,2.21434,-3.842812,-2.004986,0.367432
708,7080,0.520244,-0.570916,2.21434,-3.842812,-2.004986,0.367432
709,7090,0.551471,-0.485231,1.921693,-3.842812,-2.004986,0.367432
710,7100,0.555134,-0.44313650000000004,1.9758755,-3.358021,-1.232738,0.587864
711,7110,0.558797,-0.401042,2.030058,-3.069363,-1.0809324999999999,0.5026820000000001
712,7120,0.451897,-0.323905,1.992482,-2.510071,-0.972786,0.401478
713,7130,0.451897,-0.323905,1.992482,-2.510071,-0.972786,0.401478
714,7140,0.451897,-0.323905,1.992482,-2.368412,-0.978127,0.412159
715,7150,0.451897,-0.323905,1.992482,-2.368412,-0.978127,0.412159
716,7160,0.479706,-0.272408,1.919739,-2.0941065,-0.45454950000000005,0.4355905
717,7170,0.6404369999999999,-0.165768,2.2641264999999997,-2.0408340000000003,0.2186965,0.329046
718,7180,0.66472,-0.141119,2.466204,-1.963596,0.55582,0.242729
719,7190,0.6241975,-0.12123149999999999,2.5718829999999997,-1.963596,0.55582,0.242729
720,7200,0.461421,-0.039591,2.62921,-0.601215,1.018181,0.007343
721,7210,0.493625,0.108304,2.284609,0.012417,0.887203,0.108547
722,7220,0.493625,0.108304,2.284609,0.371437,0.72258,0.2150915
723,7230,0.493625,0.108304,2.284609,0.730457,0.557957,0.321636
724,7240,0.493625,0.108304,2.284609,0.730457,0.557957,0.321636
725,7250,0.493625,0.108304,2.284609,0.730457,0.557957,0.321636
726,7260,0.493625,0.108304,2.284609,0.730457,0.557957,0.321636
727,7270,0.91512,0.17201,2.222612,1.522999,0.02964,0.23632
728,7280,0.969302,0.012393,2.558208,2.035427,0.422707,-0.559425
729,7290,0.969302,0.012393,2.558208,2.035427,0.422707,-0.559425
730,7300,0.938044,-0.037638,2.6141,2.035427,0.422707,-0.559425
731,7310,0.834319,-0.124513,2.627042,2.800198,1.331406,-0.842743
732,7320,0.728182,-0.192127,2.533787,3.21249,1.755314,-0.81831
733,7330,0.712553,-0.219462,2.4888845,3.700352,2.050381,-0.654221
734,7340,0.696924,-0.246797,2.443982,3.700352,2.050381,-0.654221
735,7350,0.696924,-0.246797,2.443982,3.700352,2.050381,-0.654221
736,7360,0.7243815,-0.27571999999999997,2.4209199999999997,4.276667,1.5097809999999998,-0.6867315
737,7370,0.751839,-0.304643,2.397858,4.852982,0.969181,-0.719242
738,7380,0.540238,-0.5317215,1.7780715,5.571022,0.724182,-0.662766
739,7390,0.575647,-0.544786,1.491927,5.571022,0.724182,-0.662766
740,7400,0.550006,-0.525494,1.355722,5.617886,1.516724,-0.572243
741,7410,0.539749,-0.535018,1.300075,5.58691,1.748905,-0.555153
742,7420,0.503149,-0.550403,1.161703,5.574226,2.051449,-0.501881
743,7430,0.4429835,-0.5549204999999999,1.076171,5.630636,1.897507,-0.461426
744,7440,0.382818,-0.559438,0.990639,5.687046,1.743565,-0.420971
745,7450,0.3662275,-0.556874,0.8788555,5.725965499999999,1.4021685000000002,-0.36663049999999997
746,7460,0.349637,-0.55431,0.767072,5.764885,1.060772,-0.31229
747,7470,0.349637,-0.55431,0.767072,5.764885,1.060772,-0.31229
748,7480,0.359283,-0.502203,0.632226,5.536375,1.0128405,-0.302677
749,7490,0.368929,-0.450096,0.49738,5.307865,0.964909,-0.293064
750,7500,0.3270635,-0.392251,0.4612535,5.205059,1.0661125,-0.3064155
751,7510,0.308153,-0.362489,0.440023,5.102253,1.167316,-0.319767
752,7520,0.2644565,-0.310122,0.411482,4.6862885,1.664791,-0.30427950000000004
753,7530,0.233214,-0.288037,0.397074,4.563255,1.802177,-0.283451
754,7540,0.210778,-0.27656,0.396341,4.507847,1.87254,-0.256882
755,7550,0.210778,-0.27656,0.396341,4.507847,1.87254,-0.256882
756,7560,0.20137549999999999,-0.185548,0.213296,4.3581769999999995,1.5571785,-0.158348
757,7570,0.199544,-0.156259,0.133243,4.327869,1.498566,-0.158882
758,7580,0.150856,-0.064973,0.014880999999999998,4.033804,1.2328055,-0.14392850000000001
759,7590,0.102168,0.026313,-0.103481,3.739739,0.967045,-0.128975
760,7600,0.12120049999999999,0.0782975,-0.1442325,3.421774,0.9745215,-0.09706500000000001
761,7610,0.140233,0.130282,-0.184984,3.103809,0.981998,-0.065155
762,7620,0.140233,0.130282,-0.184984,2.572288,0.942478,-0.124836
763,7630,0.14426250000000002,0.1516345,-0.190967,2.572288,0.942478,-0.124836
764,7640,-0.004487,0.38581,-0.369021,2.132359,-0.169563,-0.150337
765,7650,0.15342,0.26963,-0.223324,2.2963810000000002,0.288458,-0.15300750000000002
766,7660,0.15342,0.26963,-0.223324,2.460403,0.746479,-0.155678
767,7670,-0.053053,0.381659,-0.474944,1.446228,-0.724583,0.337524
768,7680,0.133396,0.46951,-0.524731,1.210842,-0.469971,0.457954
769,7690,0.133396,0.46951,-0.524731,1.210842,-0.469971,0.457954
770,7700,0.133396,0.46951,-0.524731,1.210842,-0.469971,0.457954
771,7710,0.32655999999999996,0.553104,-0.4573615,1.044617,0.295868,0.234184
772,7720,0.404064,0.590818,-0.515695,1.0004235,0.668173,-0.020894999999999997
773,7730,0.404064,0.590818,-0.515695,0.95623,1.040478,-0.275974
774,7740,0.243226,0.673786,-0.953551,0.639935,1.446362,-0.502949
775,7750,0.17636,0.695505,-0.963182,0.195599,1.479473,-0.593472
776,7760,0.109494,0.717224,-0.972813,0.195599,1.479473,-0.593472
777,7770,0.0412705,0.7243055,-0.932916,-0.165491,1.2749290000000002,-0.5087565000000001
778,7780,0.018682,0.728457,-0.887891,-0.377445,1.131134,-0.438995
779,7790,0.018682,0.728457,-0.887891,-0.377445,1.131134,-0.438995
780,7800,0.029549,0.723573,-0.8193005,-0.5755804999999999,0.7822610000000001,-0.3420635
781,7810,0.040416,0.718689,-0.75071,-0.773716,0.433388,-0.245132
782,7820,0.040416,0.718689,-0.75071,-0.773716,0.433388,-0.245132
783,7830,0.118255,0.708921,-0.819545,-1.055498,0.0971985,-0.199871
784,7840,0.118255,0.708921,-0.819545,-1.106033,0.045528,-0.199337
785,7850,0.118255,0.708921,-0.819545,-1.106033,0.045528,-0.199337
786,7860,0.1214295,0.645474,-0.782823,-1.704779,-0.43058399999999997,-0.3127575
787,7870,0.112181,0.478058,-0.686546,-1.780415,-0.477448,-0.329247
788,7880,0.137303,0.6463285000000001,-0.8006344999999999,-2.621956,-0.856628,-0.445404
789,7890,0.139257,0.658401,-0.809777,-2.555933,-0.8310599999999999,-0.4389955
790,7900,0.06508,0.331627,-0.540848,-2.48991,-0.805492,-0.432587
791,7910,0.061295,0.2405855,-0.457117,-3.183918,-1.0638425,-0.3751085
792,7920,0.034066,0.135899,-0.366091,-3.371372,-1.0180470000000001,-0.32450650000000003
793,7930,0.034066,0.135899,-0.366091,-3.513565,-0.965309,-0.286655
794,7940,0.034066,0.135899,-0.366091,-3.513565,-0.965309,-0.286655
795,7950,-0.027198,0.055098,-0.277262,-3.789539,-0.766106,-0.166359
796,7960,-0.08258650000000001,-0.019826,-0.15595399999999998,-4.0270615,-0.8161735,0.0930595
797,7970,-0.019139,-0.089378,0.110563,-4.097424,-0.868378,0.200138
798,7980,-0.019139,-0.089378,0.110563,-4.1016295,-1.0702515,0.401478
799,7990,-0.019139,-0.089378,0.110563,-4.105835,-1.272125,0.602818
800,8000,0.270058,-0.160899,0.096887,-3.964176,-1.748371,0.978794
801,8010,0.270058,-0.160899,0.096887,-4.096355,-1.7206,1.003361
802,8020,0.270058,-0.160899,0.096887,-4.096355,-1.7206,1.003361
803,8030,0.610293,-0.272408,0.213067,-4.242287,-1.636486,0.965042
804,8040,0.6100490000000001,-0.25520699999999996,0.1640125,-4.5197965,-1.381874,0.8243845
805,8050,0.438955,-0.470121,0.693597,-4.797306,-1.127262,0.683727
806,8060,0.438955,-0.470121,0.693597,-5.183964,-0.687332,0.33432
807,8070,0.45238599999999995,-0.488421,0.8723690000000001,-5.3634075,-1.009569,0.0994015
808,8080,0.465817,-0.506721,1.051141,-5.399056,-1.314716,0.073299
809,8090,0.465817,-0.506721,1.051141,-5.399056,-1.314716,0.073299
810,8100,0.465817,-0.506721,1.051141,-5.566883499999999,-1.264114,-0.05394
811,8110,0.49510599999999994,-0.5696795,1.3672005,-5.7916545,-0.9706494999999999,-0.26108750000000003
812,8120,0.524395,-0.632638,1.68326,-5.573826,-0.069427,-0.588131
813,8130,0.40784899999999996,-0.6354465,1.870701,-5.473156,-0.002870499999999998,-0.6104944999999999
814,8140,0.324133,-0.6391095,2.0358125,-5.372486,0.063686,-0.632858
815,8150,0.082632,-0.581874,1.940008,-4.296627,-0.499878,-0.42511
816,8160,0.0976505,-0.5811415,1.914138,-4.2161845,-0.6622985,-0.383587
817,8170,0.13219,-0.553684,1.8791105,-4.067049,-1.3424209999999999,-0.2621555
818,8180,0.151711,-0.526959,1.869953,-3.998356,-1.860123,-0.182247
819,8190,0.151711,-0.526959,1.869953,-3.998356,-1.860123,-0.182247
820,8200,0.20455050000000002,-0.5235555,1.9797829999999998,-3.708029,-2.0812225,-0.081043
821,8210,0.25739,-0.520152,2.089613,-3.417702,-2.302322,0.020161
822,8220,0.216257,-0.47450149999999996,1.9027824999999998,-2.9985334999999997,-2.0332905,0.12396850000000001
823,8230,0.209175,-0.4870625,1.8902215,-3.0443284999999998,-1.8047809999999997,0.2278425
824,8240,0.243226,-0.545274,2.064491,-2.958546,-2.092438,0.116024
825,8250,0.243226,-0.545274,2.064491,-2.958546,-2.092438,0.116024
826,8260,0.283245,-0.361512,1.310576,-2.460003,-1.092148,0.779591
827,8270,0.359894,-0.358337,1.334752,-2.595387,-1.070785,0.836067
828,8280,0.359894,-0.358337,1.334752,-2.595387,-1.070785,0.836067
829,8290,0.5671,-0.338068,1.676422,-2.970295,-1.167717,0.844612
830,8300,0.736577,-0.32575149999999997,2.287906,-2.3657415,-0.981331,0.504284
831,8310,0.731571,-0.309039,2.33171,-2.108459,-0.854626,0.4175
832,8320,0.667025,-0.24215799999999998,2.188332,-1.969471,-0.7672405,0.3796485
833,8330,0.602479,-0.175277,2.044954,-1.4033035,-0.238323,0.2704335
834,8340,0.604921,-0.154306,1.998342,-0.976124,0.203209,0.19907
835,8350,0.64787,-0.108182,1.980027,-0.976124,0.203209,0.19907
836,8360,0.696924,-0.096949,2.045199,-0.836601,0.700684,0.072231
837,8370,0.7032735,-0.0940185,2.0739995,-0.616636,0.6708434999999999,-0.0753025
838,8380,0.67864,-0.054976,2.400056,0.158348,0.418434,-0.326176
839,8390,0.67864,-0.054976,2.400056,0.158348,0.418434,-0.326176
840,8400,0.67864,-0.054976,2.400056,0.158348,0.418434,-0.326176
841,8410,0.458491,-0.127443,2.338303,1.472931,0.15955,-0.27504
842,8420,0.4676335,-0.11317250000000001,2.1889424999999996,1.699772,0.18198,-0.215359
843,8430,0.476776,-0.098902,2.039582,2.089634,0.283184,-0.020428
844,8440,0.512429,-0.089867,2.015894,2.153587,0.2948,0.018024
845,8450,0.512429,-0.089867,2.015894,2.153587,0.2948,0.018024
846,8460,0.648114,-0.106961,2.097916,2.51688,0.138321,-0.085316
847,8470,0.6894914999999999,-0.1162255,2.173451,2.51688,0.138321,-0.085316
848,8480,0.730869,-0.12549,2.248986,3.711033,-0.242062,-0.502949
849,8490,0.730869,-0.12549,2.248986,3.711033,-0.242062,-0.502949
850,8500,0.664476,-0.361268,2.220903,3.711033,-0.242062,-0.502949
851,8510,0.677907,-0.402263,2.115499,4.062576,-0.195198,-0.535927
852,8520,0.679586,-0.413008,2.073007,4.2265985,-0.058813000000000004,-0.5646995
853,8530,0.703274,-0.428362,1.993214,4.390621,0.077572,-0.593472
854,8540,0.707303,-0.4325135,1.9828355,4.601039500000001,0.620842,-0.7143685
855,8550,0.6689785,-0.49025250000000004,1.977829,4.8338225,1.0160445,-0.8603000000000001
856,8560,0.647626,-0.513314,1.986132,4.926548,1.050091,-0.896015
857,8570,0.615422,-0.544786,1.959545,5.2796265,0.981932,-0.938072
858,8580,0.407727,-0.588712,1.667631,5.602932,0.846615,-0.932198
859,8590,0.407727,-0.588712,1.667631,5.602932,0.846615,-0.932198
860,8600,0.407727,-0.588712,1.667631,5.602932,0.846615,-0.932198
861,8610,0.480439,-0.597015,1.327181,5.82777,0.795479,-0.845947
862,8620,0.439931,-0.592497,1.18794,5.716953,1.726608,-0.897083
863,8630,0.38332200000000005,-0.5992125,1.083482,5.772361500000001,1.354303,-0.871515
864,8640,0.366976,-0.602631,1.055536,5.716953,1.893768,-0.88213
865,8650,0.366976,-0.602631,1.055536,5.716953,1.893768,-0.88213
866,8660,0.366976,-0.602631,1.055536,5.754204,2.031288,-0.789471
867,8670,0.22833,-0.565055,0.723634,5.741386,1.862926,-0.70322
868,8680,0.282512,-0.420334,0.274545,5.351524,1.464519,-0.625381
869,8690,0.282512,-0.420334,0.274545,5.351524,1.464519,-0.625381
870,8700,0.260076,-0.345394,0.119598,5.351524,1.464519,-0.625381
871,8710,0.2682415,-0.31464000000000003,0.077122,5.0058555,1.642427,-0.6696409999999999
872,8720,0.276407,-0.283886,0.034646,4.660187,1.820335,-0.713901
873,8730,0.276407,-0.283886,0.034646,4.481278,1.954517,-0.753288
874,8740,0.2340685,-0.2589925,0.009997000000000002,4.231939499999999,2.139902,-0.7841965
875,8750,0.092156,-0.1738115,-0.0789535,3.7482835,2.522888,-0.7825945
876,8760,-0.007418,-0.113524,-0.143255,3.152809,2.909012,-0.538063
877,8770,-0.035364,-0.041911500000000004,-0.1407065,3.0116845,2.8493310000000003,-0.41342749999999995
878,8780,-0.034524,0.061203,-0.111295,2.770424,2.574558,-0.152473
879,8790,-0.034524,0.061203,-0.111295,2.770424,2.574558,-0.152473
880,8800,-0.034524,0.061203,-0.111295,2.770424,2.574558,-0.152473
881,8810,0.032357,0.194691,-0.228696,2.679901,2.239971,0.010548
882,8820,0.032357,0.194691,-0.228696,2.612743,2.046108,0.093594
883,8830,0.042369,0.31551,-0.356078,2.3698810000000003,1.8373585000000001,0.1686955
884,8840,0.042369,0.31551,-0.356078,2.277222,1.784153,0.194798
885,8850,0.1175375,0.3953185,-0.402217,1.951246,1.754246,0.2208995
886,8860,0.150978,0.434376,-0.418075,1.814861,1.753178,0.212955
887,8870,0.150978,0.434376,-0.418075,1.814861,1.753178,0.212955
888,8880,0.17488,0.539078,-0.482026,1.511249,1.74036,0.098934
889,8890,0.17488,0.539078,-0.482026,1.511249,1.74036,0.098934
890,8900,0.17488,0.539078,-0.482026,1.511249,1.74036,0.098934
891,8910,0.1891655,0.6243655,-0.6257699999999999,1.016979,1.5348815,0.0494005
892,8920,0.206382,0.655471,-0.66994,0.691071,1.341953,0.023365
893,8930,0.252262,0.695276,-0.734379,0.691071,1.341953,0.023365
894,8940,0.252262,0.695276,-0.734379,0.691071,1.341953,0.023365
895,8950,0.252262,0.695276,-0.734379,0.691071,1.341953,0.023365
896,8960,0.319875,0.7784885,-0.92095,0.2994725,1.1715225,-0.097065
897,8970,0.3069325,0.780564,-0.9471865,0.030575,1.014976,-0.211086
898,8980,0.295211,0.778488,-0.959381,-0.3689,0.728455,-0.371971
899,8990,0.295211,0.778488,-0.959381,-0.3689,0.728455,-0.371971
900,9000,0.23748750000000002,0.7632405,-0.9197285,-0.717239,0.33799199999999996,-0.47684649999999995
901,9010,0.179764,0.747993,-0.880076,-1.065578,-0.052471,-0.581722
902,9020,0.13828000000000001,0.7213905,-0.8636079999999999,-1.2019630000000001,-0.220766,-0.5673695
903,9030,0.089958,0.633035,-0.691186,-1.752777,-0.870514,-0.434723
904,9040,0.089958,0.633035,-0.691186,-1.752777,-0.870514,-0.434723
905,9050,0.089958,0.633035,-0.691186,-1.752777,-0.870514,-0.434723
906,9060,0.113646,0.54152,-0.404888,-2.229958,-1.458511,-0.242996
907,9070,0.113646,0.54152,-0.404888,-2.046776,-1.277466,-0.326176
908,9080,0.09411,0.423875,-0.335352,-2.579365,-1.349964,-0.099201
909,9090,0.09411,0.423875,-0.335352,-2.579365,-1.349964,-0.099201
910,9100,0.106427,0.397272,-0.3171585,-2.6150135,-1.3440895,-0.080042
911,9110,0.118744,0.370669,-0.298965,-2.792454,-1.397896,0.020161
912,9120,0.139989,0.362855,-0.308978,-2.933044,-1.593895,0.096798
913,9130,0.139989,0.362855,-0.308978,-2.933044,-1.593895,0.096798
914,9140,0.190509,0.296706,-0.30678,-3.213158,-1.926212,0.157547
915,9150,0.22211799999999998,0.25742,-0.28139800000000004,-3.367634,-1.9991780000000001,0.183649
916,9160,0.253727,0.218134,-0.256016,-3.52211,-2.072144,0.209751
917,9170,0.253727,0.218134,-0.256016,-3.52211,-2.072144,0.209751
918,9180,0.27886449999999996,0.1612655,-0.20097900000000002,-3.8640404999999998,-1.9821550000000001,0.207615
919,9190,0.304002,0.104397,-0.145942,-4.309311,-1.85585,0.210819
920,9200,0.312305,0.036569,0.02732,-4.309311,-1.85585,0.210819
921,9210,0.34573,-0.013950500000000001,0.1822975,-4.429674,-1.7583845,0.235319
922,9220,0.402355,-0.075947,0.342647,-4.568195,-1.631145,0.254478
923,9230,0.449944,-0.129641,0.501043,-4.850445,-1.53635,0.191593
924,9240,0.449944,-0.129641,0.501043,-4.850445,-1.53635,0.191593
925,9250,0.449944,-0.129641,0.501043,-4.948444,-1.529942,0.048866
926,9260,0.487276,-0.180649,0.749001,-4.902649,-1.533146,-0.063019
927,9270,0.446647,-0.2173865,0.9691495,-4.8994444999999995,-1.56826,-0.11095050000000001
928,9280,0.398936,-0.309771,1.431883,-4.959125,-1.965599,-0.269699
929,9290,0.398936,-0.309771,1.431883,-5.005989,-1.787758,-0.233383
930,9300,0.398936,-0.309771,1.431883,-5.005989,-1.787758,-0.233383
931,9310,0.3973485,-0.318303,1.483868,-4.836626,-1.9097235000000001,-0.275507
932,9320,0.345974,-0.344173,1.672026,-4.523468,-2.031689,-0.317631
933,9330,0.345974,-0.344173,1.672026,-4.523468,-2.031689,-0.317631
934,9340,0.3036355,-0.3372135,1.5694,-4.3897535,-1.568861,-0.30427950000000004
935,9350,0.192707,-0.321218,1.566348,-4.478741,-0.183449,-0.246201
936,9360,0.1627,-0.342952,1.663723,-4.403038,0.179844,-0.214291
937,9370,0.082037,-0.329048,1.5989330000000002,-4.2805385,0.18037799999999998,-0.2105525
938,9380,0.001374,-0.315144,1.534143,-3.673382,-0.356083,-0.0737
939,9390,-0.014255,-0.323905,1.475565,-3.511429,-0.624447,0.006275
940,9400,0.060425,-0.34331900000000004,1.2963049999999998,-3.3127595000000003,-1.244421,0.2208995
941,9410,-0.00815,-0.334894,1.362804,-3.11409,-1.864395,0.435524
942,9420,0.208336,-0.353941,1.191496,-3.155613,-2.070007,0.496273
943,9430,0.208336,-0.353941,1.191496,-3.155613,-2.070007,0.496273
944,9440,0.4785,-0.4393515,1.6570235,-3.8054275,-1.924076,0.485659
945,9450,0.524639,-0.454004,2.15332,-3.693676,-1.453304,0.292797
946,9460,0.5198769999999999,-0.453271,2.212142,-3.6126994999999997,-1.3744640000000001,0.2720355
947,9470,0.515115,-0.452538,2.270964,-3.531723,-1.295624,0.251274
948,9480,0.484346,-0.417648,2.42179,-2.864819,-0.751286,0.166092
949,9490,0.467526,-0.342708,2.388578,-2.419548,-0.458221,0.145798
950,9500,0.481171,-0.26145,2.339036,-1.997242,-0.2319145,0.11435499999999998
951,9510,0.506568,-0.205802,2.366631,-1.8923,-0.164223,0.097866
952,9520,0.506568,-0.205802,2.366631,-1.8923,-0.164223,0.097866
953,9530,0.506568,-0.205802,2.366631,-1.8923,-0.164223,0.097866
954,9540,0.58221,-0.13599,2.549905,-1.303234,0.091324,-0.066223
955,9550,0.5714805000000001,-0.1034045,2.6378945,0.213757,0.347004,-0.382519
956,9560,0.461665,-0.073017,2.589924,0.213757,0.347004,-0.382519
957,9570,0.43310899999999997,-0.0448265,2.4820469999999997,0.8263210000000001,0.5110935,-0.3100875
958,9580,0.415038,-0.006273000000000001,2.3408670000000003,1.256104,0.6138995,-0.204678
959,9590,0.425523,0.00409,2.307564,1.348229,0.619774,-0.172768
960,9600,0.4744705,0.0143465,2.233006,1.348229,0.619774,-0.172768
961,9610,0.545381,0.03692,2.139522,1.5852835,0.5382635,-0.1253035
962,9620,0.567344,0.049237,2.120596,1.822338,0.456753,-0.077839
963,9630,0.667651,0.007021,2.225542,2.491245,-0.489197,-0.269699
964,9640,0.667651,0.007021,2.225542,2.491245,-0.489197,-0.269699
965,9650,0.709867,-0.1579535,2.450087,3.1048775,-0.3341865,-0.5849934999999999
966,9660,0.703762,-0.202872,2.460588,3.360558,-0.086517,-0.674515
967,9670,0.703762,-0.202872,2.460588,3.360558,-0.086517,-0.674515
968,9680,0.598327,-0.300247,2.13012,3.360558,-0.086517,-0.674515
969,9690,0.598327,-0.300247,2.13012,4.240418,1.482678,-0.723515
970,9700,0.598327,-0.300247,2.13012,4.240418,1.482678,-0.723515
971,9710,0.558553,-0.323905,1.992482,4.585552,1.75745,-0.679722
972,9720,0.481904,-0.338313,1.835551,4.6314145,1.7175295,-0.674982
973,9730,0.402843,-0.387855,1.6879,5.010662,1.158772,-0.651016
974,9740,0.362336,-0.39103,1.625658,5.0660705,1.0548975,-0.6467435
975,9750,0.285443,-0.400065,1.49388,5.21307,0.7380009999999999,-0.6195735
976,9760,0.191974,-0.423478,1.387225,5.479431,-0.068359,-0.476246
977,9770,0.18843300000000002,-0.4253095,1.3724505,5.503397,-0.135517,-0.45228
978,9780,0.259832,-0.462307,1.232247,5.62109,-0.174904,-0.302677
979,9790,0.259832,-0.462307,1.232247,5.62109,-0.174904,-0.302677
980,9800,0.394784,-0.40617,1.057246,5.508137,0.339661,-0.394268
981,9810,0.358673,-0.382483,1.005261,5.373955,0.675182,-0.480518
982,9820,0.358673,-0.382483,1.005261,5.373955,0.675182,-0.480518
983,9830,0.194172,-0.374912,0.968173,5.313206,0.814705,-0.510426
984,9840,0.194172,-0.374912,0.968173,5.2855015000000005,0.817375,-0.5199720000000001
985,9850,0.194172,-0.374912,0.968173,5.257797,0.820045,-0.529518
986,9860,0.094354,-0.386146,0.704098,5.394115,0.276775,-0.357018
987,9870,0.094354,-0.386146,0.704098,5.394115,0.276775,-0.357018
988,9880,0.163677,-0.202383,0.321432,4.727345,1.050091,-0.301609
989,9890,0.163677,-0.202383,0.321432,4.727345,1.050091,-0.301609
990,9900,0.163677,-0.202383,0.321432,4.324665,1.808586,-0.349541
991,9910,0.167584,-0.151131,0.308978,4.16378,2.086563,-0.412426
992,9920,0.180008,-0.090355,0.236724,4.16378,2.086563,-0.412426
993,9930,0.139623,-0.04997,0.012683,3.9517595,2.0077895,-0.531721
994,9940,0.05287,0.016301,-0.331688,3.634262,1.778812,-0.621243
995,9950,0.05287,0.016301,-0.331688,2.674561,1.359043,-0.473175
996,9960,0.000397,0.0529,-0.449303,2.674561,1.359043,-0.473175
997,9970,0.029915,0.099894,-0.377919,2.4166775,1.206703,-0.4433345
998,9980,0.016972,0.114897,-0.348752,2.29311,1.144886,-0.424175
999,9990,0.020635,0.142706,-0.351927,2.185631,1.270657,-0.334587
