id,timestamp,acc_x,acc_y,acc_z,gyro_x,gyro_y,gyro_z
0,1778516213470,0.31977475,-0.64851344,0.011281146,1.8666514,-0.57848936,-2.2134702
1,1778516213480,0.29587093,-0.7204079,-0.2008044,2.144137,-0.40653083,-2.2989914
2,1778516213490,0.29587093,-0.7204079,-0.2008044,2.144137,-0.40653083,-2.2989914
3,1778516213500,0.29587093,-0.7204079,-0.2008044,2.144137,-0.40653083,-2.2989914
4,1778516213510,0.29587093,-0.7204079,-0.2008044,2.144137,-0.40653083,-2.2989914
5,1778516213520,0.29587093,-0.7204079,-0.2008044,2.144137,-0.40653083,-2.2989914
6,1778516213530,0.29587093,-0.7204079,-0.2008044,2.144137,-0.40653083,-2.2989914
7,1778516213540,0.29587093,-0.7204079,-0.2008044,2.144137,-0.40653083,-2.2989914
8,1778516213550,,,,,,
9,1778516213560,,,,,,
10,1778516213570,-0.90554065,-1.929076,-0.9548118,1.6500998000000002,-0.8561276000000001,1.0939069
11,1778516213580,-0.933591,-2.0390823,-0.8689531,1.9508746,-0.860174625,1.86573525
12,1778516213590,-0.933591,-2.0390823,-0.8689531,2.087174,-0.8940012999999999,2.1453588
13,1778516213600,-0.933591,-2.0390823,-0.8689531,2.087174,-0.8940013,2.1453588
14,1778516213610,-0.933591,-2.0390823,-0.8689531,2.087174,-0.8940013,2.1453588
15,1778516213620,-0.933591,-2.0390823,-0.8689531,2.087174,-0.8940012999999999,2.1453588
16,1778516213630,-0.933591,-2.0390823,-0.8689531,2.087174,-0.8940013,2.1453588
17,1778516213640,-0.813584,-2.139881,-0.83029234,2.087174,-0.8940013,2.1453588
18,1778516213650,-0.813584,-2.139881,-0.8302923400000001,2.087174,-0.8940012999999999,2.1453588
19,1778516213660,-0.813584,-2.139881,-0.83029234,2.087174,-0.8940013,2.1453588
20,1778516213670,-0.813584,-2.139881,-0.8302923400000001,2.087174,-0.8940012999999999,2.1453588
21,1778516213680,-0.813584,-2.139881,-0.83029234,2.087174,-0.8940013,2.1453588
22,1778516213690,-0.813584,-2.139881,-0.8302923400000001,2.087174,-0.8940012999999999,2.1453588
23,1778516213700,-0.813584,-2.139881,-0.83029234,2.087174,-0.8940013,2.1453588
24,1778516213710,-0.813584,-2.139881,-0.83029234,2.087174,-0.8940013,2.1453588
25,1778516213720,-0.813584,-2.139881,-0.83029234,2.087174,-0.8940013,2.1453588
26,1778516213730,-0.7676667,-2.159252,-0.8447647266666666,2.087174,-0.8940012999999999,2.1453588
27,1778516213740,-0.6758321,-2.197994,-0.8737095,2.11325025,-0.88735814,2.232101675
28,1778516213750,-0.6758321,-2.197994,-0.8737095,2.191479,-0.86742866,2.4923303
29,1778516213760,-0.6758321,-2.197994,-0.8737095,2.191479,-0.86742866,2.4923303
30,1778516213770,-0.6758321,-2.197994,-0.8737095,2.191479,-0.86742866,2.4923303
31,1778516213780,-0.6758321,-2.197994,-0.8737095,2.191479,-0.86742866,2.4923303
32,1778516213790,-0.6758321,-2.197994,-0.8737095,2.191479,-0.86742866,2.4923303
33,1778516213800,-0.6758321,-2.197994,-0.8737095,2.191479,-0.86742866,2.4923303
34,1778516213810,-0.6758321,-2.197994,-0.8737095,2.191479,-0.86742866,2.4923303
35,1778516213820,-0.6758321,-2.197994,-0.8737095,2.191479,-0.86742866,2.4923303
36,1778516213830,-0.6758321,-2.197994,-0.8737095,2.191479,-0.86742866,2.4923303
37,1778516213840,-0.6758321,-2.197994,-0.8737095,2.191479,-0.86742866,2.4923303
38,1778516213850,-0.6758321,-2.197994,-0.8737095,2.191479,-0.86742866,2.4923303
39,1778516213860,-0.6758321,-2.197994,-0.8737095,2.191479,-0.86742866,2.4923303
40,1778516213870,-0.6758321,-2.197994,-0.8737095,2.191479,-0.86742866,2.4923303
41,1778516213880,-0.6758321,-2.197994,-0.8737095,2.191479,-0.86742866,2.4923303
42,1778516213890,-0.6758321,-2.197994,-0.8737095,2.191479,-0.86742866,2.4923303
43,1778516213900,-0.6758321,-2.197994,-0.8737095,2.191479,-0.86742866,2.4923303
44,1778516213910,-0.6758321,-2.197994,-0.8737095,2.191479,-0.86742866,2.4923303
45,1778516213920,-0.6758321,-2.197994,-0.8737095,2.191479,-0.86742866,2.4923303
46,1778516213930,-0.6758321,-2.197994,-0.8737095,2.191479,-0.86742866,2.4923303
47,1778516213940,-0.58945513,-2.1922925,-0.87236795,2.191479,-0.86742866,2.4923303
48,1778516213950,-0.50307816,-2.186591,-0.8710264,2.1065687000000004,-0.75052431,2.65543125
49,1778516213960,-0.50307816,-2.186591,-0.8710264,2.0216584,-0.63361996,2.8185322
50,1778516213970,-0.50307816,-2.186591,-0.8710264,2.0216584,-0.63361996,2.8185322
51,1778516213980,-0.50307816,-2.186591,-0.8710264,2.0216584,-0.63361996,2.8185322
52,1778516213990,-0.50307816,-2.186591,-0.8710264,2.0216584,-0.63361996,2.8185322
53,1778516214000,-0.50307816,-2.186591,-0.8710264,2.0216584,-0.63361996,2.8185322
54,1778516214010,-0.50307816,-2.186591,-0.8710264,2.0216584,-0.63361996,2.8185322
55,1778516214020,-0.50307816,-2.186591,-0.8710264,2.0216584,-0.63361996,2.8185322
56,1778516214030,-0.50307816,-2.186591,-0.8710264,2.0216584,-0.63361996,2.8185322
57,1778516214040,-0.50307816,-2.186591,-0.8710264,2.0216584,-0.63361996,2.8185322
58,1778516214050,-0.50307816,-2.186591,-0.8710264,2.0216584,-0.63361996,2.8185322
59,1778516214060,-0.50307816,-2.186591,-0.8710264,2.0216584,-0.63361996,2.8185322
60,1778516214070,-0.50307816,-2.186591,-0.8710264,2.0216584,-0.63361996,2.8185322
61,1778516214080,-0.50307816,-2.186591,-0.8710264,2.0216584,-0.63361996,2.8185322
62,1778516214090,-0.50307816,-2.186591,-0.8710264,2.0216584,-0.63361996,2.8185322
63,1778516214100,-0.50307816,-2.186591,-0.8710264,2.0216584,-0.63361996,2.8185322
64,1778516214110,-0.4904148166666667,-2.1781352,-0.8678757999999999,1.9472347,-0.56876644,2.859205633333333
65,1778516214120,-0.46508813,-2.1612236,-0.8615746,1.7983873,-0.4390594,2.9405525
66,1778516214130,-0.46508813,-2.1612236,-0.8615746,1.7983873,-0.4390593999999999,2.9405525000000003
67,1778516214140,-0.46508813,-2.1612236,-0.8615746,1.7983873,-0.4390594,2.9405525
68,1778516214150,-0.46508813,-2.1612236,-0.8615746,1.7983873,-0.4390594,2.9405525
69,1778516214160,-0.46508813,-2.1612236,-0.8615746,1.7983873,-0.4390593999999999,2.9405525000000003
70,1778516214170,-0.46508813,-2.1612236,-0.8615746,1.7983873,-0.4390594,2.9405525
71,1778516214180,-0.46508813,-2.1612236,-0.8615746,1.7983873,-0.4390593999999999,2.9405525000000003
72,1778516214190,-0.43475099,-2.144683025,-0.849241575,1.7983873,-0.4390594,2.9405525
73,1778516214200,-0.34373957,-2.0950613,-0.8122425,1.7983873,-0.4390594,2.9405525
74,1778516214210,-0.34373957,-2.0950613,-0.8122425,1.2303844333333334,-0.0165442666666666,3.1217759
75,1778516214220,-0.34373957,-2.0950613,-0.8122425,0.946383,0.1947133,3.2123876
76,1778516214230,-0.34373957,-2.0950613,-0.8122425,0.946383,0.1947133,3.2123876
77,1778516214240,-0.34373957,-2.0950613,-0.8122425,0.946383,0.1947133,3.2123876
78,1778516214250,-0.34373957,-2.0950613,-0.8122425,0.946383,0.1947133,3.2123876
79,1778516214260,-0.34373957,-2.0950613,-0.8122425,0.946383,0.1947133,3.2123876
80,1778516214270,-0.34373957,-2.0950613,-0.8122425,0.946383,0.1947133,3.2123876
81,1778516214280,-0.34373957,-2.0950613,-0.8122425,0.946383,0.1947133,3.2123876
82,1778516214290,-0.34373957,-2.0950613,-0.8122425,0.946383,0.1947133,3.2123876
83,1778516214300,-0.34373957,-2.0950613,-0.8122425,0.946383,0.1947133,3.2123876
84,1778516214310,-0.3249884675,-2.0506532,-0.699232875,0.946383,0.1947133,3.2123876
85,1778516214320,-0.3187381,-2.0358505,-0.661563,0.946383,0.1947133,3.2123876
86,1778516214330,-0.3187381,-2.0358505,-0.661563,0.946383,0.1947133,3.2123876
87,1778516214340,-0.3187381,-2.0358505,-0.661563,0.51470488,0.3807217666666666,3.3177618666666664
88,1778516214350,-0.3187381,-2.0358505,-0.661563,0.29886582,0.473726,3.370449
89,1778516214360,-0.3187381,-2.0358505,-0.661563,0.29886582,0.473726,3.370449
90,1778516214370,-0.3187381,-2.0358505,-0.661563,0.29886582,0.473726,3.370449
91,1778516214380,-0.3187381,-2.0358505,-0.661563,0.29886582,0.4737259999999999,3.3704489999999994
92,1778516214390,-0.3187381,-2.0358505,-0.661563,0.29886582,0.473726,3.370449
93,1778516214400,-0.3187381,-2.0358505,-0.661563,0.29886582,0.4737259999999999,3.3704489999999994
94,1778516214410,-0.3187381,-2.0358505,-0.661563,0.29886582,0.473726,3.370449
95,1778516214420,-0.3187381,-2.0358505,-0.661563,0.29886582,0.473726,3.370449
96,1778516214430,-0.3187381,-2.0358505,-0.661563,0.29886582,0.4737259999999999,3.3704489999999994
97,1778516214440,-0.3187381,-2.0358505,-0.661563,0.29886582,0.473726,3.370449
98,1778516214450,-0.3187381,-2.0358505,-0.661563,0.29886582,0.473726,3.370449
99,1778516214460,-0.3187381,-2.0358505,-0.661563,0.29886582,0.4737259999999999,3.3704489999999994
100,1778516214470,-0.3187381,-2.0358505,-0.661563,0.29886582,0.473726,3.370449
101,1778516214480,-0.3187381,-2.0358505,-0.661563,0.29886582,0.473726,3.370449
102,1778516214490,-0.3187381,-2.0358505,-0.661563,0.29886582,0.4737259999999999,3.3704489999999994
103,1778516214500,-0.3187381,-2.0358505,-0.661563,0.129350715,0.499229625,3.4614297499999997
104,1778516214510,-0.3187381,-2.0358505,-0.661563,-0.3791946,0.5757405,3.734372
105,1778516214520,-0.3187381,-2.0358505,-0.661563,-0.3791946,0.5757405,3.734372
106,1778516214530,-0.3517278399999999,-1.8820001,-0.12378771,-0.6475680666666667,0.8029823666666666,3.9976548666666663
107,1778516214540,-0.35172784,-1.8820001,-0.12378771,-0.7817548,0.9166033,4.1292963
108,1778516214550,-0.3517278399999999,-1.8820001,-0.12378771,-0.7817548,0.9166033,4.1292963
109,1778516214560,-0.337977035,-1.868173075,-0.0030642074999999,-0.7817548,0.9166033,4.1292963
110,1778516214570,-0.29672462,-1.826692,0.3591063,-0.7817548,0.9166033,4.1292963
111,1778516214580,-0.29672462,-1.826692,0.3591062999999999,-0.7817548,0.9166033,4.1292963
112,1778516214590,-0.29672462,-1.826692,0.3591063,-0.7817548,0.9166033,4.1292963
113,1778516214600,-0.29672462,-1.826692,0.3591063,-0.7817548,0.9166033,4.1292963
114,1778516214610,-0.29672462,-1.826692,0.3591062999999999,-0.7817548,0.9166033,4.1292963
115,1778516214620,-0.29672462,-1.826692,0.3591063,-0.7817548,0.9166033,4.1292963
116,1778516214630,-0.29672462,-1.826692,0.3591063,-0.7817548,0.9166033,4.1292963
117,1778516214640,-0.29672462,-1.826692,0.3591062999999999,-0.7817548,0.9166033,4.1292963
118,1778516214650,-0.29672462,-1.826692,0.3591063,-0.7817548,0.9166033,4.1292963
119,1778516214660,-0.29672462,-1.826692,0.3591063,-0.7817548,0.9166033,4.1292963
120,1778516214670,-0.29672462,-1.826692,0.3591062999999999,-0.7817548,0.9166033,4.1292963
121,1778516214680,-0.29672462,-1.826692,0.3591063,-0.7817548,0.9166033,4.1292963
122,1778516214690,-0.29672462,-1.826692,0.3591063,-0.7817548,0.9166033,4.1292963
123,1778516214700,-0.29672462,-1.826692,0.3591063,-0.7817548,0.9166033,4.1292963
124,1778516214710,-0.29672462,-1.826692,0.3591062999999999,-0.7817548,0.9166033,4.1292963
125,1778516214720,-0.29672462,-1.826692,0.3591063,-0.7817548,0.9166033,4.1292963
126,1778516214730,-0.29568797,-1.8135815,0.5305188,-0.7817548,0.9166033,4.1292963
127,1778516214740,-0.29568797,-1.8135815,0.5305188,-0.7817548,0.9166033,4.1292963
128,1778516214750,-0.29568797,-1.8135815,0.5305188,-0.7817548,0.9166033,4.1292963
129,1778516214760,-0.29568797,-1.8135815,0.5305188,-0.7817548,0.9166033,4.1292963
130,1778516214770,-0.29568797,-1.8135815,0.5305188,-0.7817548,0.9166033,4.1292963
131,1778516214780,-0.29568797,-1.8135815,0.5305188,-0.7817548,0.9166033,4.1292963
132,1778516214790,-0.29568797,-1.8135815,0.5305188,-0.7817548,0.9166033,4.1292963
133,1778516214800,-0.29568797,-1.8135815,0.5305188,-0.99372506,1.4307991,4.380362
134,1778516214810,-0.29568797,-1.8135815,0.5305188,-0.99372506,1.4307991,4.380362
135,1778516214820,-0.2959776275,-1.763090725,0.5369825749999999,-1.15923137,1.7274887,4.556138499999999
136,1778516214830,-0.2968466,-1.6116184,0.5563739,-1.6557503,2.6175575,5.083468
137,1778516214840,-0.2968466,-1.6116184,0.5563739,-1.6557503,2.6175575,5.083468
138,1778516214850,-0.2968466,-1.6116184,0.5563739,-1.6557503,2.6175575,5.083468
139,1778516214860,-0.2968466,-1.6116184,0.5563739,-2.410550525,3.2919528500000004,5.557881025
140,1778516214870,-0.0481125646666666,-1.372011,0.5630206699999999,-3.0579913333333333,3.788942666666667,5.8465403
141,1778516214880,0.18153499,-1.1483598,0.60284007,-3.8496728,4.3333254,6.1075835
142,1778516214890,0.18153499,-1.1483598,0.60284007,-3.8496728,4.3333254,6.1075835
143,1778516214900,0.36898494,-0.84523225,0.70418745,-3.8496728,4.3333254,6.1075835
144,1778516214910,0.5066454300000001,-0.7142032375,0.8146360125000001,-4.95285715,4.776355275,6.357007375
145,1778516214920,0.55253226,-0.6705269,0.8514522,-5.8314724,5.0251303,6.5154886
146,1778516214930,0.55253226,-0.6705269,0.8514522000000001,-5.8314724,5.0251303,6.5154886
147,1778516214940,0.55253226,-0.6705269,0.8514522,-5.8314724,5.0251303,6.5154886
148,1778516214950,0.55253226,-0.6705269,0.8514522,-5.8314724,5.0251303,6.5154886
149,1778516214960,0.7505112866666667,-0.5870261,1.1841951333333334,-5.8314724,5.0251303,6.5154886
150,1778516214970,0.8495008,-0.5452757,1.3505666,-7.155981,5.020854,6.531677
151,1778516214980,0.8603144466666667,-0.5403567333333333,1.3856702333333333,-7.155981,5.020854,6.531676999999999
152,1778516214990,0.88194174,-0.5305188,1.4558775,-7.155981,5.020854,6.531677
153,1778516215000,0.88194174,-0.5305188,1.4558775,-7.155981,5.020854,6.531677
154,1778516215010,0.8819417399999999,-0.5305188,1.4558775,-7.155981,5.020854,6.531676999999999
155,1778516215020,0.88194174,-0.5305188,1.4558775,-7.23699685,5.0096295,6.5286225
156,1778516215030,0.8819417399999999,-0.5305188,1.4558775,-7.3180127,4.998405,6.525568
157,1778516215040,1.144457085,-0.39029718,2.022206475,-7.3180127,4.998405,6.525568
158,1778516215050,1.2319622,-0.34355664,2.2109828,-7.3180127,4.998405,6.525568
159,1778516215060,1.2319622,-0.34355664,2.2109828,-7.3180127,4.998405,6.525568
160,1778516215070,1.2319622,-0.34355664,2.2109828,-7.3180127,4.998405,6.525568
161,1778516215080,1.2319622,-0.34355664,2.2109828,-7.3180127,4.998405,6.525568
162,1778516215090,1.2319622,-0.34355664,2.2109828,-7.8424406,4.4183884,6.485556
163,1778516215100,1.2319622,-0.34355664,2.2109828,-7.8424406,4.4183884,6.485556
164,1778516215110,1.2319622,-0.34355664,2.2109828,-7.8424406,4.4183884,6.485556
165,1778516215120,1.2319622,-0.34355664,2.2109828,-7.8424406,4.4183884,6.485556
166,1778516215130,1.2319622,-0.34355664,2.2109828,-7.8424406,4.4183884,6.485556
167,1778516215140,1.2319622,-0.34355664,2.2109828,-7.8424406,4.4183884,6.485556
168,1778516215150,1.2319622,-0.34355664,2.2109828,-7.8424406,4.4183884,6.485556
169,1778516215160,1.2319622,-0.34355664,2.2109828,-7.595650866666666,3.975918333333334,6.3911776
170,1778516215170,1.2319622,-0.34355664,2.2109828,-7.472256,3.7546833,6.3439884
171,1778516215180,1.335367625,-0.2845135575,2.42296145,-7.472256,3.7546833,6.3439884
172,1778516215190,1.3698361,-0.26483253,2.493621,-7.472255999999999,3.7546833,6.3439884
173,1778516215200,1.3698361,-0.26483253,2.493621,-7.472256,3.7546833,6.3439884
174,1778516215210,1.3698361,-0.26483253,2.493621,-7.295105166666667,3.582113866666667,6.330905733333334
175,1778516215220,1.38831265,-0.2259125775,2.56899135,-6.2625139999999995,2.6960156,6.3318856
176,1778516215230,1.3944715,-0.21293926,2.5941148,-6.0364175,2.5156958,6.340934
177,1778516215240,1.3944715,-0.21293926,2.5941148,-6.0364175,2.5156958,6.340934
178,1778516215250,1.3944715,-0.21293926,2.5941148,-6.0364175,2.5156958,6.340934
179,1778516215260,1.3944715,-0.21293926,2.5941148,-6.0364175,2.5156958,6.340934
180,1778516215270,1.489721,-0.099639963,2.6332635,-6.0364175,2.5156958,6.340934
181,1778516215280,1.650360533333333,0.0677885093333333,2.6585902000000003,-5.789780666666666,2.3879231666666665,6.285039866666668
182,1778516215290,1.814984025,0.203685665,2.601538975,-5.296507,2.1323779,6.1732516
183,1778516215300,1.9165143,0.28660208,2.5133173,-4.90811125,2.1164571999999997,5.935013875
184,1778516215310,1.9165143,0.28660208,2.5133173,-4.778646,2.1111503,5.8556013
185,1778516215320,1.848095625,0.3599142724999999,2.340898825,-4.665636,2.163150225,5.74595105
186,1778516215330,1.8252894,0.38435167,2.283426,-4.234466933333334,2.4686082000000003,5.2749741
187,1778516215340,1.7140025,0.4158779,2.078109,-4.1883974,2.5433373,5.203961
188,1778516215350,1.7140025,0.4158779000000001,2.078109,-4.1883974,2.5433373,5.203961
189,1778516215360,1.7140025,0.4158779,2.078109,-4.1883974,2.5433373,5.203961
190,1778516215370,1.7140025,0.4158779000000001,2.078109,-4.1883974,2.5433373,5.203961
191,1778516215380,1.7140025,0.4158779,2.078109,-4.1883974,2.5433373,5.203961
192,1778516215390,1.7140025,0.4158779000000001,2.078109,-4.1883974,2.5433373,5.203961
193,1778516215400,1.7140025,0.4158779,2.078109,-4.1883974,2.5433373,5.203961
194,1778516215410,1.7140025,0.4158779000000001,2.078109,-4.1883974,2.5433373,5.203961
195,1778516215420,1.7140025,0.4158779,2.078109,-4.1883974,2.5433373,5.203961
196,1778516215430,1.7140025,0.4158779,2.078109,-4.1883974,2.5433373,5.203961
197,1778516215440,1.7140025,0.4158779000000001,2.078109,-4.1883974,2.5433373,5.203961
198,1778516215450,1.7140025,0.4158779,2.078109,-4.1883974,2.5433373,5.203961
199,1778516215460,1.7140025,0.4158779,2.078109,-4.1883974,2.5433373,5.203961
200,1778516215470,1.7140025,0.4158779000000001,2.078109,-4.1883974,2.5433373,5.203961
201,1778516215480,1.7140025,0.4158779,2.078109,-4.1883974,2.5433373,5.203961
202,1778516215490,1.7140025,0.4158779000000001,2.078109,-4.1883974,2.5433373,5.203961
203,1778516215500,1.65735285,0.4225093875,1.932201125,-4.1883974,2.5433373,5.203961
204,1778516215510,1.4159973,0.448501775,1.241291935,-4.887380200000001,3.3337971,4.8004847
205,1778516215520,1.3445907,0.4545997,0.98810637,-5.2517614,3.4648278,4.7317624
206,1778516215530,1.3445907,0.4545997,0.98810637,-5.2517614,3.4648278,4.7317624
207,1778516215540,1.3445907,0.4545997,0.98810637,-5.2517614,3.4648278,4.7317624
208,1778516215550,1.3445907,0.4545997,0.98810637,-5.2517614,3.4648278,4.7317624
209,1778516215560,1.3083081,0.40438335,0.8666054000000001,-5.56211905,3.5077028500000003,4.68212955
210,1778516215570,1.2073265,0.14641099,0.6975406999999999,-7.708814,3.7174203,4.2875104
211,1778516215580,1.2073265,0.14641099,0.6975407,-7.708814,3.7174203,4.2875104
212,1778516215590,1.17924565,0.105585435,0.7238532,-7.708814,3.7174203,4.2875104
213,1778516215600,1.1511648,0.06475988,0.7501657,-7.708814,3.7174203,4.2875104
214,1778516215610,1.1511648,0.06475988,0.7501657,-7.708814,3.7174203,4.2875104
215,1778516215620,1.1511648,0.06475988,0.7501657,-7.708814,3.7174203,4.2875104
216,1778516215630,1.1281451,0.013750805,0.90694315,-8.0462405,3.50357935,4.188702950000001
217,1778516215640,1.1408592,-0.0396161333333333,1.3647544666666669,-9.052004666666669,2.3758076999999997,3.8304814
218,1778516215650,1.1587261,-0.040795065,1.5152714,-9.048747,2.1326833,3.7995818
219,1778516215660,1.1587261,-0.040795065,1.5152714,-9.048747,2.1326833,3.7995818
220,1778516215670,1.1587261,-0.040795065,1.5152714000000005,-9.048747,2.1326833,3.7995818
221,1778516215680,1.2649213,0.0318311225,1.7882751,-8.44673925,1.4960854,3.735212
222,1778516215690,1.3711165,0.1044573099999999,2.0612788,-8.24607,1.2838861,3.7137554
223,1778516215700,1.3711165,0.10445731,2.0612788,-7.288424025,0.980935045,3.596125475
224,1778516215710,1.3711165,0.10445731,2.0612788,-6.9692087,0.87995136,3.5569155
225,1778516215720,1.5290526,0.6213777,2.0195081,-6.9692087,0.8799513600000001,3.5569155
226,1778516215730,1.7734571250000002,0.951259725,1.83076235,-4.7881145,0.6392705,3.1726813
227,1778516215740,1.8549253,1.0612204,1.7678471,-4.7881145,0.6392705,3.1726813
228,1778516215750,1.8549253000000003,1.0612204,1.7678471,-4.7881145,0.6392705,3.1726812999999994
229,1778516215760,1.9054160333333332,1.145595266666667,1.643144666666667,-4.7881145,0.6392705,3.1726812999999994
230,1778516215770,,,,,,
231,1778516215780,1.8133985,1.1754954,1.1146382,-4.989089,-0.91721416,2.4750733
232,1778516215790,1.8133985,1.1754954,1.1146382,-4.7870455,-1.3249667,2.526844
233,1778516215800,1.3744705,2.219276,2.4803276,0.46593747,-0.44806966,-3.3498323
234,1778516215810,1.2691289499999998,2.119331,2.4725833,0.8558221850000001,-0.402560205,-3.44909785
235,1778516215820,1.1637874,2.019386,2.464839,1.2457069,-0.35705075,-3.5483634
236,1778516215830,1.1637874,2.019386,2.464839,1.911511975,-0.1039234535,-3.655341225
237,1778516215840,1.1637874,2.019386,2.464839,2.133447,-0.019547688,-3.6910005
238,1778516215850,1.1637874,2.019386,2.464839,2.133447,-0.019547688,-3.6910005
239,1778516215860,1.1637874,2.019386,2.464839,2.93314575,0.3423899655,-3.72581985
240,1778516215870,1.0880716333333331,1.8025441333333332,2.4144701,3.3880621333333334,0.5173519433333333,-3.738902566666667
241,1778516215880,1.053964,1.6151552,2.3698332,3.7647624,0.62598413,-3.7418551
242,1778516215890,1.053964,1.6151552,2.3698332,3.7647624,0.62598413,-3.7418551
243,1778516215900,1.053964,1.6151552,2.3698332,3.7647624,0.62598413,-3.7418551
244,1778516215910,1.1373835,1.2863555,2.224215,3.7647624,0.62598413,-3.7418551
245,1778516215920,1.1373835,1.2863555,2.224215,3.7647624,0.62598413,-3.7418551
246,1778516215930,1.1373835,1.2863555,2.224215,4.9307513,0.73991054,-3.8029416
247,1778516215940,1.1373835,1.2863555,2.224215,4.9307513,0.73991054,-3.8029416
248,1778516215950,1.1971024,1.2009846666666666,2.1635204666666668,4.9307513,0.73991054,-3.8029416
249,1778516215960,1.3165402,1.030243,2.0421314,4.9307513,0.73991054,-3.8029416
250,1778516215970,1.3165402,1.030243,2.0421314,4.9307513,0.73991054,-3.8029416
251,1778516215980,1.3165402,1.030243,2.0421314,4.9307513,0.73991054,-3.8029416
252,1778516215990,1.370019,0.7568734,1.7636395,6.3244405,0.32162055,-4.2386413
253,1778516216000,1.370019,0.7568734,1.7636395,6.324440499999999,0.32162055,-4.2386413
254,1778516216010,1.370019,0.7568734,1.7636395,6.3244405,0.32162055,-4.2386413
255,1778516216020,1.370019,0.7568734,1.7636395,6.324440499999999,0.32162055,-4.2386413
256,1778516216030,1.370019,0.7568734,1.7636395,6.3244405,0.32162055,-4.2386413
257,1778516216040,1.370019,0.7568734,1.7636395,6.3244405,0.32162055,-4.2386413
258,1778516216050,1.370019,0.7568734,1.7636395,6.324440499999999,0.32162055,-4.2386413
259,1778516216060,1.3668481,0.523872,1.4908187,6.3244405,0.32162055,-4.2386413
260,1778516216070,1.3668481,0.523872,1.4908187,6.3244405,0.32162055,-4.2386413
261,1778516216080,1.3668480999999997,0.523872,1.4908187,6.4051765,0.2417499199999999,-4.315763033333334
262,1778516216090,1.3668481,0.523872,1.4908187,6.5666485,0.08200866,-4.4700065
263,1778516216100,1.4060780333333334,0.4459812999999999,1.4300834333333334,6.5359017,0.0148134826666666,-4.5503351
264,1778516216110,1.425693,0.40703595,1.3997158,6.5205283,-0.018784106,-4.5904994
265,1778516216120,1.425693,0.40703595,1.3997158,6.5205283,-0.018784106,-4.5904994
266,1778516216130,1.5739536,0.2630438033333333,1.4576867333333334,6.261216,-0.24083363,-4.9475503
267,1778516216140,1.6480839,0.19104773,1.4866722,6.261216,-0.24083363,-4.9475503
268,1778516216150,1.6480839000000005,0.19104773,1.4866722,6.222680666666666,-0.2837978133333333,-5.031747966666667
269,1778516216160,1.6480839,0.19104773,1.4866722,6.0709315,-0.49861874,-5.4937403
270,1778516216170,1.6480839,0.19104773,1.4866722,5.996253,-0.6275113,-5.7873373
271,1778516216180,1.6480839000000005,0.19104773,1.4866722,5.996253,-0.6275113,-5.7873373
272,1778516216190,1.80737685,-0.1002802375,2.001000975,6.01931325,-0.67924395,-5.87522555
273,1778516216200,1.8604745,-0.19738956,2.1724439,6.088494,-0.8344419,-6.1388903
274,1778516216210,1.8604745,-0.19738956,2.1724439,6.372088125,-1.0366002,-6.4217972
275,1778516216220,1.8604745,-0.19738956,2.1724439,6.4666195,-1.1039863,-6.5160995
276,1778516216230,1.8604745,-0.19738956,2.1724439,6.4666195,-1.1039863,-6.5160995
277,1778516216240,1.9538945,-0.50862724,2.7859552,7.271930675,-1.490816675,-6.9724923
278,1778516216250,1.9538945,-0.50862724,2.7859552,8.017148,-1.8037324,-7.4311757
279,1778516216260,1.9538945,-0.50862724,2.7859552,8.017148,-1.8037324,-7.4311757
280,1778516216270,1.9538945,-0.50862724,2.7859552,8.017148,-1.8037324,-7.4311757
281,1778516216280,1.9538945,-0.50862724,2.7859552,8.017148,-1.8037324,-7.4311757
282,1778516216290,1.9538945,-0.50862724,2.7859552,8.017148,-1.8037324,-7.4311757
283,1778516216300,1.9538945,-0.50862724,2.7859552,8.017148,-1.8037324,-7.4311757
284,1778516216310,2.02063625,-0.56338652,2.85227,8.1462315,-1.825609,-7.5308994
285,1778516216320,1.958498525,-0.831313755,2.816734575,9.05817675,-1.804534075,-8.112404625
286,1778516216330,1.9155387,-0.90236974,2.7827845,9.233075,-1.7756324999999995,-8.206516
287,1778516216340,1.7821772500000002,-1.11826655,2.52072635,9.233075,-1.7756325,-8.206516
288,1778516216350,1.7694936,-1.1488476,2.470449,9.287035,-1.7421876666666665,-8.196538666666667
289,1778516216360,1.7694936,-1.1488476,2.470449,9.394955,-1.675298,-8.176584
290,1778516216370,1.7694936,-1.1488476,2.470449,9.394955,-1.675298,-8.176584
291,1778516216380,1.63944025,-1.192874525,2.3256997,9.40526325,-1.668311225,-8.156349
292,1778516216390,1.2492802,-1.3249553,1.8914518,9.400147,-1.7805194999999998,-7.8893247
293,1778516216400,1.2492802,-1.3249553,1.8914518,9.400147,-1.7805195,-7.8893247
294,1778516216410,0.7557758,-1.4188633,1.571799,9.400147,-1.7805195,-7.8893247
295,1778516216420,0.7557758,-1.4188633,1.5717989999999995,9.411142,-2.0302107,-7.304421
296,1778516216430,0.7557758,-1.4188633,1.571799,9.390373,-2.4016168,-6.6619434
297,1778516216440,0.7557758,-1.4188633,1.5717989999999995,9.390373,-2.4016168,-6.661943400000001
298,1778516216450,0.60442555,-1.5489318,1.1911061,9.390373,-2.4016168,-6.6619434
299,1778516216460,0.60442555,-1.5489318,1.1911061,9.390373,-2.4016168,-6.6619434
300,1778516216470,0.6137959999999999,-1.5811491,1.0110752666666667,9.282861,-2.5260806,-6.450838700000001
301,1778516216480,0.52637213,-1.7527242,0.16927817,8.184678,-3.0720413,-5.658445
302,1778516216490,0.52637213,-1.7527242,0.16927817,8.184678,-3.0720413,-5.658445
303,1778516216500,0.52637213,-1.7527242,0.16927817,8.184678,-3.0720413,-5.658445
304,1778516216510,0.3137988,-1.8423026,-0.10835998,7.0478578,-3.0109549,-5.3575935
305,1778516216520,-0.07543122709,-1.962767,-0.25980175,5.1460814,-2.3200662,-4.7731485
306,1778516216530,-0.307335,-2.0425582,-0.2968466,5.1460814,-2.3200662,-4.7731485
307,1778516216540,-0.307335,-2.0425582,-0.2968466,5.1460814,-2.3200662,-4.7731485
308,1778516216550,-0.307335,-2.0425582,-0.2968466,5.1460814,-2.3200662,-4.7731485
309,1778516216560,-0.307335,-2.0425582,-0.2968466,3.555388475,-1.80785565,-4.417395675
310,1778516216570,-0.396105425,-2.09317095,-0.19339544,2.27696208925,-1.252464605,-3.980474275
311,1778516216580,-0.6624167,-2.2450092,0.11695804,0.032375857,-0.09850202,-3.0254628999999995
312,1778516216590,-0.6624167,-2.2450092,0.11695804,0.032375857,-0.09850202,-3.0254629
313,1778516216600,-0.6624167,-2.2450092,0.11695804,0.032375857,-0.09850202,-3.0254628999999995
314,1778516216610,-0.6880127,-2.274767,0.217802345,-0.4171446065,0.37018434,-2.62855315
315,1778516216620,-0.6745109,-2.4053638,0.9577997666666668,-0.7784968466666667,1.1050043,-1.7712037333333333
316,1778516216630,-0.5733261,-2.4052014,1.0935394,-0.6021604,1.6372715,-0.8503244
317,1778516216640,-0.5733261,-2.4052014,1.0935394,-0.6021604,1.6372715,-0.8503244
318,1778516216650,-0.4548740775,-2.41947045,0.9880759375,-0.27374398,1.85145625,-0.561919665
319,1778516216660,-0.41539007,-2.4242268,0.95292145,0.05467244,2.065641,-0.27351493
320,1778516216670,-0.41539007,-2.4242268,0.95292145,0.1142318,2.18850115,-0.1942551549999999
321,1778516216680,-0.41539007,-2.4242268,0.95292145,0.17379116,2.3113613,-0.11499538
322,1778516216690,-0.371271655,-2.4328859,0.860080675,0.17379116,2.3113613,-0.11499538
323,1778516216700,-0.32715324,-2.441545,0.7672399,0.17379116,2.3113613,-0.11499538
324,1778516216710,-0.32715324,-2.441545,0.7672399,0.17379116,2.3113613,-0.11499538
325,1778516216720,-0.358618485,-2.387136325,0.5411139,0.0765872275,2.7925704500000004,0.179976175
326,1778516216730,-0.45301422,-2.2239103,-0.1372641,-0.22052236,3.4997997,0.6730208
327,1778516216740,-0.45301422,-2.2239103,-0.1372641,-0.9992228,3.7186422,1.2301298
328,1778516216750,-0.45301422,-2.2239103,-0.1372641,-0.9992228,3.7186422,1.2301298
329,1778516216760,-0.45301422,-2.2239103,-0.1372641,-0.9992228,3.7186422,1.2301298
330,1778516216770,-0.6799787,-1.9008425,-0.6158896,-3.0204232,3.9376373,2.3721426
331,1778516216780,-0.6461352566666667,-1.7390852,-0.6558716,-3.454137466666667,4.0190352,2.527760466666667
332,1778516216790,-0.6378116,-1.525683525,-0.6386805475,-5.439716675,4.378834899999999,3.20967685
333,1778516216800,-0.3855713,-1.3564206,-0.17604686,-8.738478,4.623791733333333,4.446335333333333
334,1778516216810,-0.3855713,-1.3564206,-0.17604686,-8.984453,4.5909576,4.54667
335,1778516216820,-0.3855713,-1.3564206,-0.17604686,-8.984453,4.5909576,4.54667
336,1778516216830,-0.3855713,-1.3564206,-0.17604686,-8.984453,4.5909576,4.54667
337,1778516216840,-0.3855713,-1.3564206,-0.17604686,-8.984453,4.5909576,4.54667
338,1778516216850,-0.3855713,-1.3564206,-0.17604686,-9.857456,3.972113025,4.791550624999999
339,1778516216860,-0.3855713,-1.3564206,-0.17604686,-10.148457,3.7658315,4.8731775
340,1778516216870,-0.1805390066666666,-1.2969659,-0.0095330733333333,-10.148457,3.7658315,4.8731775
341,1778516216880,0.57451524,-0.968593085,0.701031765,-10.21905,2.712928925,4.6462031
342,1778516216890,1.1314075,-0.5274698,1.4203877,-10.004751,1.9031507,4.3501244
343,1778516216900,1.1314075,-0.5274698,1.4203877,-10.004751,1.9031507,4.3501244
344,1778516216910,1.1314075,-0.5274698,1.4203877,-9.579284,1.1756102,3.8779254
345,1778516216920,1.1314075,-0.5274698,1.4203877,-9.579284,1.1756102,3.8779254
346,1778516216930,1.118342725,-0.522865865,1.421683525,-9.55187125,1.143807,3.8458168
347,1778516216940,1.0791484,-0.50905406,1.425571,-9.469633,1.0483974,3.749491
348,1778516216950,1.0791484,-0.50905406,1.425571,-9.469633,1.0483974,3.749491
349,1778516216960,,,,,,
350,1778516216970,1.0791484,-0.50905406,1.425571,-9.469633,1.0483974,3.749491
351,1778516216980,1.0791484,-0.50905406,1.425571,-9.469633,1.0483974,3.749491
352,1778516216990,1.0668509000000002,-0.4793978733333333,1.4574021333333331,-9.320429,1.0348058,3.684281
353,1778516217000,1.0422559,-0.4200855,1.5210644,-9.320429,1.0348058,3.684281
354,1778516217010,1.0422559,-0.4200855,1.5210644,-9.320429,1.0348058,3.684281
355,1778516217020,1.0422559,-0.4200855,1.5210644,-9.21704,0.991587,3.6824484
356,1778516217030,1.0758555,-0.32837284,1.5443585000000002,-9.21704,0.991587,3.6824484
357,1778516217040,1.0758555,-0.32837284,1.5443585,-9.21704,0.991587,3.6824484
358,1778516217050,1.0758555,-0.32837284,1.5443585000000002,-9.21704,0.991587,3.6824484
359,1778516217060,1.1031132,-0.311908435,1.46784485,-9.16343675,0.717155775,3.606395625
360,1778516217070,1.1121991,-0.3064203,1.4423403,-9.145569,0.6256787,3.5810447
361,1778516217080,1.064208425,-0.3774610425,1.688162525,-8.825934,0.3617467575,3.591734925
362,1778516217090,1.0164617,-0.500578,2.1580527,-7.606189,-0.11453723,3.7633882
363,1778516217100,1.0164617,-0.500578,2.1580527,-7.032688333333333,-0.3384193433333333,3.726634333333333
364,1778516217110,1.0164617,-0.500578,2.1580527,-6.745938,-0.4503604,3.7082574
365,1778516217120,1.0164617,-0.500578,2.1580527,-6.745938,-0.4503603999999999,3.708257399999999
366,1778516217130,1.081587425,-0.43531504,2.1610712249999997,-6.745938,-0.4503604,3.7082574
367,1778516217140,1.119120175,-0.3129450924999999,2.099238425,-5.998811249999999,-0.756976555,3.671605575
368,1778516217150,1.1243949,-0.27940655,2.0782921,-5.749769,-0.85918194,3.6593883
369,1778516217160,1.1410727,-0.20979883,2.02499625,-5.749769,-0.85918194,3.6593883
370,1778516217170,1.1577505,-0.14019111,1.9717004,-5.528585,-0.9468411266666666,3.6470691333333334
371,1778516217180,1.1577505,-0.14019111,1.9717004,-5.086217,-1.1221595,3.6224308
372,1778516217190,1.1577505,-0.14019111,1.9717004,-5.086217,-1.1221595,3.6224308
373,1778516217200,1.1577505,-0.14019111,1.9717004,-5.086217,-1.1221595,3.6224308
374,1778516217210,1.1577505,-0.14019111,1.9717004,-5.086217,-1.1221595,3.6224308
375,1778516217220,1.1577505,-0.14019111,1.9717004,-5.086217,-1.1221595,3.6224308
376,1778516217230,1.2306206,0.10177423,1.6376565,-4.536896,-1.3139712,3.4715471
377,1778516217240,1.2238519,0.13095276,1.48895885,-4.61088715,-1.2472341,3.43207005
378,1778516217250,1.2267991333333337,0.1416342833333333,1.2257015333333332,-5.1301991,-0.858062,3.323463333333333
379,1778516217260,1.2111071999999998,0.10991495,1.1957710499999998,-6.140112,0.009468411,3.1302261
380,1778516217270,1.1768979,0.10153031,1.2260472,-6.140111999999999,0.009468411,3.1302261
381,1778516217280,1.1768979,0.10153031,1.2260472,-6.140112,0.009468411,3.1302261
382,1778516217290,1.1768979,0.10153031,1.2260472,-6.551415,0.37965272775,3.0311514
383,1778516217300,1.1768979,0.10153031,1.2260472,-6.688516,0.5030475,2.9981265
384,1778516217310,1.1768979,0.10153031,1.2260472,-7.0432763,0.77931136,2.997974
385,1778516217320,1.0627449,0.09302372,1.31635735,-7.0432763,0.77931136,2.997974
386,1778516217330,0.9485919,0.08451713,1.4066675,-7.0432763,0.77931136,2.9979740000000006
387,1778516217340,0.9485919,0.08451713,1.4066675,-7.0432763,0.77931136,2.997974
388,1778516217350,0.9485919,0.08451713,1.4066675,-7.0432763,0.77931136,2.9979740000000006
389,1778516217360,1.174626425,0.2973649075,1.5831869,-6.718830649999999,0.09636398,3.2415565
390,1778516217370,1.4054478,0.47557652,1.700709,-6.394385,-0.5865834,3.485139
391,1778516217380,1.4054478,0.47557652,1.700709,-6.394385,-0.5865834,3.485139
392,1778516217390,1.4054478,0.47557652,1.700709,-6.394385,-0.5865834,3.485139
393,1778516217400,1.5319186,0.5428822775,1.7564134500000002,-6.249648075,-0.9031261,3.518049325
394,1778516217410,1.911331,0.7447995500000001,1.9235268,-5.8154373,-1.8527542,3.6167803
395,1778516217420,2.1337525,0.868861645,2.03353325,-5.60499415,-2.1252765,3.6380843
396,1778516217430,2.356174,0.99292374,2.1435397,-5.394551,-2.3977988,3.6593883
397,1778516217440,2.4645797000000003,1.090841055,2.1991374749999997,-5.394551,-2.3977988,3.6593883
398,1778516217450,2.7897968,1.384593,2.3659308,-5.394551,-2.3977988,3.6593883
399,1778516217460,2.7897968,1.384593,2.3659308,-5.037042,-2.1175644,3.6259434
400,1778516217470,2.7897968,1.384593,2.3659308,-5.037042,-2.1175644,3.6259434
401,1778516217480,2.7897968,1.384593,2.3659308,-5.037042,-2.1175644,3.6259434
402,1778516217490,2.7897968,1.384593,2.3659308,-4.9313626,-1.6345227,3.5743253
403,1778516217500,2.8631550000000003,1.6272291,2.4462402,-4.9313626,-1.6345227,3.5743253
404,1778516217510,2.8180914,2.178115,2.8374827,-4.696943,-0.56321776,3.7065775
405,1778516217520,2.8180914,2.178115,2.8374827,-4.696943,-0.56321776,3.7065775
406,1778516217530,2.8180914,2.178115,2.8374827,-4.696943,-0.56321776,3.7065775
407,1778516217540,2.8180914,2.178115,2.8374827,-4.696943,-0.56321776,3.7065775
408,1778516217550,3.3178766,2.6060667,3.3245842,-4.291252,-0.501902165,3.70077425
409,1778516217560,3.3178766,2.6060667,3.3245842,-3.885561000000001,-0.44058657,3.694971
410,1778516217570,3.3178766,2.6060667,3.3245842,-3.885561,-0.44058657,3.694971
411,1778516217580,3.6130971333333335,2.8120135666666664,3.4921548,-3.1105766,-0.5413793233333334,3.3520720666666666
412,1778516217590,3.7607074,2.914987,3.5759401,-2.7230844,-0.5917757,3.1806226
413,1778516217600,3.7637563,2.94033915,3.568363525,-2.7230844,-0.5917757,3.1806226
414,1778516217610,3.4078816999999995,2.982918,3.1472569,-1.3941472,-0.6637051,2.3710735
415,1778516217620,3.4078817,2.982918,3.1472569,-1.3941472,-0.6637051,2.3710735
416,1778516217630,3.4078816999999995,2.982918,3.1472569,0.29993483,-0.61453044,1.4801265
417,1778516217640,3.23496005,2.97180435,2.898233275,0.29993483,-0.61453044,1.4801265
418,1778516217650,3.1773195,2.9680997999999996,2.8152254000000005,0.29993483,-0.61453044,1.4801265
419,1778516217660,3.1773195,2.9680998,2.8152254,0.29993483,-0.61453044,1.4801265
420,1778516217670,3.1773195,2.9680998,2.8152254,0.5572618225,-0.6333145475,1.3728433
421,1778516217680,3.088981066666667,2.9981016,2.673936566666667,1.3292428,-0.68966687,1.0509937
422,1778516217690,2.9123042,3.0581052,2.3913589,1.7146606,-0.7376579675,0.8977428550000001
423,1778516217700,2.9590345333333334,3.0806472,2.2262274000000004,1.8813632,-0.7855727166666666,0.7351254266666668
424,1778516217710,3.1442688,3.026091,1.4778911,1.48066105,-0.6945538125,-0.0358883375
425,1778516217720,3.032677,2.9057791,1.4240465,0.5222898,-0.2680171,-0.9104946
426,1778516217730,3.032677,2.9057791,1.4240465,0.5222898,-0.2680171,-0.9104946000000002
427,1778516217740,3.032677,2.9057791,1.4240465,0.5222898,-0.2680171,-0.9104946
428,1778516217750,3.032677,2.9057791,1.4240465,0.5222898,-0.2680171,-0.9104946000000002
429,1778516217760,3.032677,2.9057791,1.4240465,0.5222898,-0.2680171,-0.9104946
430,1778516217770,3.032677,2.9057791,1.4240465,0.5222898,-0.2680171,-0.9104946000000002
431,1778516217780,3.032677,2.9057791,1.4240465,0.3242931,-0.1765400375,-1.096655775
432,1778516217790,2.9403545,2.843488925,1.481199225,-0.269697,0.09789115,-1.6551393
433,1778516217800,2.663387,2.6566184,1.6526574,-0.269697,0.09789115,-1.6551393
434,1778516217810,2.663387,2.6566184,1.6526574,-0.269697,0.09789115,-1.6551393
435,1778516217820,2.663387,2.6566184,1.6526574,-0.269697,0.09789115,-1.6551393
436,1778516217830,2.5954562333333335,2.612083266666667,1.706481666666667,-0.269697,0.09789115,-1.6551393
437,1778516217840,2.26001,2.303427,2.0912197,-0.8950703,0.24969117,-2.8651106
438,1778516217850,2.26001,2.303427,2.0912197,-0.8950703,0.24969117,-2.8651106
439,1778516217860,2.26001,2.303427,2.0912197,-0.8950703,0.24969117,-2.8651106
440,1778516217870,2.26001,2.303427,2.0912197,-0.8950703,0.24969117,-2.8651106
441,1778516217880,2.193878,2.1979027,2.2186966,-0.8950703,0.24969117,-2.8651106
442,1778516217890,2.082946666666667,2.0452008,2.3882288,-0.8696685,0.3990477133333333,-3.1579696
443,1778516217900,1.993348,1.9508456,2.4723394,-0.8188649,0.6977608,-3.7436876
444,1778516217910,1.993348,1.9508456,2.4723394,-0.4268421,1.4269812,-4.2174134
445,1778516217920,1.6225946,1.6038741,2.7133899,-0.4268421,1.4269812,-4.2174134
446,1778516217930,1.5032279,1.467174075,2.7844612499999997,-0.0336357675,1.851341625,-4.31018885
447,1778516217940,1.463439,1.4216074,2.8081517,0.09743301,1.9927950999999997,-4.341114
448,1778516217950,1.3670919499999998,1.2435177,2.827726,0.09743301,1.9927951,-4.341114
449,1778516217960,1.2707449,1.065428,2.8473003,1.349096,2.4836254,-4.37181
450,1778516217970,1.265134775,0.517255754,2.612896425,4.126051125,2.3491585749999997,-4.3979245
451,1778516217980,1.448987,0.053234816,2.1734805,5.129283,2.3237314,-4.372726
452,1778516217990,1.448987,0.053234816,2.1734805,5.418374925,2.316171925,-4.3856304999999995
453,1778516218000,1.448987,0.053234816,2.1734805,6.2856507,2.2934935,-4.424344
454,1778516218010,1.448987,0.053234816,2.1734805,6.285650700000001,2.2934935,-4.424344
455,1778516218020,1.5064293,-0.1671439,1.8634624,6.2856507,2.2934935,-4.424344
456,1778516218030,1.5064293,-0.1671439,1.8634624,7.1961455,2.0647244,-4.6019535
457,1778516218040,1.5064293,-0.1671439,1.8634624,7.1961455,2.0647244,-4.6019535
458,1778516218050,1.5064293,-0.1671439,1.8634624,7.1961455,2.0647244,-4.6019535
459,1778516218060,1.50865505,-0.27833941,1.6550356,7.50073815,1.70942995,-4.7245846
460,1778516218070,1.5108808,-0.38953492,1.4466088,7.8053308,1.3541355,-4.8472157
461,1778516218080,1.5108808,-0.38953492,1.4466088,7.8053308,1.3541355,-4.8472157
462,1778516218090,1.5108808,-0.38953492,1.4466088,7.8053308,1.3541355,-4.8472157
463,1778516218100,1.5288087,-0.6457084,1.1436642,7.847175,0.3801109,-5.1670036
464,1778516218110,1.5288087,-0.6457084,1.1436642,7.847175,0.3801109,-5.1670036
465,1778516218120,1.51809165,-0.66615165,1.1350356499999998,7.847175,0.3801109,-5.1670036
466,1778516218130,1.4859405,-0.7274814,1.10915,7.847175,0.3801109,-5.1670036
467,1778516218140,1.4859405,-0.7274814,1.10915,7.847175,0.3801109,-5.1670036
468,1778516218150,1.4859405,-0.7274814,1.10915,7.847175,0.3801109,-5.1670036
469,1778516218160,1.4859405,-0.7274814,1.10915,7.847175,0.3801109,-5.1670036
470,1778516218170,1.4859405,-0.7274814,1.10915,7.847175,0.3801109,-5.1670036
471,1778516218180,1.4859405,-0.7274814,1.10915,7.847175,0.3801109,-5.1670036
472,1778516218190,1.3662382,-0.7513853,0.9830452,4.861724,0.571159,-6.303213
473,1778516218200,1.3662382,-0.7513853,0.9830452,4.861724,0.571159,-6.303213
474,1778516218210,1.3662382,-0.7513853,0.9830452,4.3681445,0.49648073,-6.34689
475,1778516218220,1.2429993,-0.7927902000000001,1.1172603,4.108985,0.4457788999999999,-6.2760296
476,1778516218230,1.2429993,-0.7927902,1.1172603,4.108985,0.4457789,-6.2760296
477,1778516218240,1.02465328,-0.8193364333333334,0.92564345,3.0405817,1.589624,-5.825720033333333
478,1778516218250,0.75339764,-0.85755,0.75925165,1.7993035,3.0573804,-5.292842
479,1778516218260,0.44270876,-0.9375548,0.9267613999999998,1.6429221,3.3168963333333337,-4.952895533333334
480,1778516218270,0.44270876,-0.9375548,0.9267614,1.5647314,3.4466543,-4.7829223
481,1778516218280,0.1763110999999999,-0.9609300666666668,1.0651841333333332,2.0694587,3.26874,-4.0969205
482,1778516218290,0.04311227,-0.9726177,1.1343955,2.0694587,3.26874,-4.0969205
483,1778516218300,-0.0169522125,-0.9777704575,1.1567900999999998,2.3767239250000003,3.07139235,-3.882735875
484,1778516218310,-0.19714566,-0.99322873,1.2239739,3.966093533333334,2.0243565333333335,-2.917950466666667
485,1778516218320,-0.19714566,-0.99322873,1.2239739,4.2998805,1.7968601,-2.7568347
486,1778516218330,-0.076406896,-1.0221938,0.71412706,4.2998805,1.7968601,-2.7568347
487,1778516218340,-0.076406896,-1.0221938,0.71412706,4.2998805,1.7968601,-2.7568347
488,1778516218350,-0.076406896,-1.0221938,0.71412706,5.631770166666667,0.8976664733333334,-2.3817635666666668
489,1778516218360,-0.076406896,-1.0221938,0.71412706,6.297715,0.44806966,-2.194228
490,1778516218370,0.086316011,-1.11768725,-0.170238575,7.012084,-0.2004401599999999,-2.143487875
491,1778516218380,0.14055698,-1.1495184,-0.46502712,7.250207,-0.4166101,-2.1265745
492,1778516218390,0.1049756375,-1.18839255,-0.91221783,7.250207,-0.4166101,-2.1265745
493,1778516218400,-0.08543181,-1.2440360333333331,-1.3512983333333333,6.3319745,-0.3316489233333333,-2.1714223333333336
494,1778516218410,-0.27257687,-1.2923315,-1.5800312,3.1187725,0.2677117,-1.8205311
495,1778516218420,-0.4600420925,-1.5038072,-1.187355875,0.784274614225,0.907974775,-1.154497125
496,1778516218430,-0.5568821,-1.6574341,-0.7997417933333333,-0.9097311,1.4202617,-0.34009922
497,1778516218440,-0.5709937,-1.7153440249999998,-0.6195635875,-0.9097311,1.4202617,-0.34009922
498,1778516218450,-0.5618011,-1.7643713,-0.4641124299999999,-0.9097311,1.4202617,-0.34009922
499,1778516218460,-0.5618011,-1.7643713,-0.46411243,-0.9097311,1.4202617,-0.34009922
500,1778516218470,-0.5352751525,-1.821127625,-0.218061505,-1.165492725,1.7603990500000002,0.3516674899999999
501,1778516218480,-0.5573292799999999,-1.8151262,-0.14063829,-0.9251045,2.1692843,1.1043425266666669
502,1778516218490,-0.6191215,-1.7652858,-0.14982581,-0.2771801,2.4883597,1.6963727000000002
503,1778516218500,-0.6191215,-1.7652858,-0.14982581,-0.2771801,2.4883597,1.6963727
504,1778516218510,-0.6316832,-1.73781475,-0.217482205,-0.2771801,2.4883597,1.6963727
505,1778516218520,-0.6442449,-1.7103437,-0.2851386,-0.0104356133333333,2.3820690333333334,2.0098485
506,1778516218530,-0.6442449,-1.7103437,-0.2851386,0.12293663,2.3289237,2.1665864
507,1778516218540,-0.6383705866666667,-1.6791020666666665,-0.3009322,0.12293663,2.3289237,2.1665864
508,1778516218550,-0.62662196,-1.6166188,-0.3325194,0.326889265,2.1013764,2.37214255
509,1778516218560,-0.6223076700000001,-1.5893001,-0.354334695,0.8752172,1.33145715,2.8256336500000003
510,1778516218570,-0.59948623,-1.4102652000000002,-0.51344454,1.6052010999999995,-0.17195857,3.428481
511,1778516218580,-0.59948623,-1.4102652,-0.51344454,1.628413975,-0.3755675874999999,3.49819605
512,1778516218590,-0.59948623,-1.4102652000000002,-0.51344454,1.6980525999999998,-0.98639464,3.7073412
513,1778516218600,-0.59948623,-1.4102652,-0.51344454,1.6980526,-0.98639464,3.7073412
514,1778516218610,-0.54082423,-1.2811112,-0.58637565,1.6980526,-0.98639464,3.7073412
515,1778516218620,-0.54082423,-1.2811112,-0.58637565,1.6980525999999998,-0.98639464,3.7073412
516,1778516218630,-0.54082423,-1.2811112,-0.58637565,1.6980526,-0.98639464,3.7073412
517,1778516218640,-0.54082423,-1.2811112,-0.58637565,1.6980526,-0.98639464,3.7073412
518,1778516218650,-0.5530200866666667,-1.2546869333333337,-0.6631281166666666,1.6980525999999998,-0.98639464,3.7073412
519,1778516218660,-0.585461035,-1.1763186,-0.831176575,1.4442381,-1.14567772,3.85280345
520,1778516218670,-0.5627767466666667,-1.1149633666666663,-0.7715084466666666,-0.0602720733333332,-1.1979576333333333,4.5779766
521,1778516218680,-0.5013097,-1.0432925,-0.62308514,-1.1911873,-1.0325149,5.106375
522,1778516218690,-0.3819938133333333,-1.0326821666666666,-0.44925386,-1.1911873,-1.0325149,5.106375
523,1778516218700,-0.32233587,-1.027377,-0.36233822,-2.6007588,-0.6479753,5.8311667
524,1778516218710,-0.32233587,-1.027377,-0.36233822,-2.6007588,-0.6479753,5.8311667
525,1778516218720,-0.32233587,-1.027377,-0.36233822,-2.6007588,-0.6479753,5.8311667
526,1778516218730,-0.32233587,-1.027377,-0.36233822,-2.6007588,-0.6479753,5.8311667
527,1778516218740,-0.32233587,-1.027377,-0.36233822,-2.6007588,-0.6479753,5.8311667
528,1778516218750,-0.27446723,-1.0217466,-0.3141036966666666,-3.4818301999999997,-0.3580688366666666,6.369135466666666
529,1778516218760,-0.17872995,-1.0104858,-0.21763465,-5.243973,0.22174409,7.445073
530,1778516218770,-0.17872995,-1.0104858,-0.21763465,-5.243973,0.2217440899999999,7.445073
531,1778516218780,0.1195953975,-0.9309537,-0.1026584275,-6.194746200000001,0.4493295500000001,7.88077275
532,1778516218790,0.21903718,-0.904443,-0.06433302,-6.5116705999999995,0.52519137,8.026006
533,1778516218800,0.21903718,-0.904443,-0.06433302,-6.5116706,0.52519137,8.026006
534,1778516218810,0.7327714,-0.8197887,0.118695945,-6.5116706,0.52519137,8.026006
535,1778516218820,0.90401614,-0.7915706,0.1797056,-6.5116705999999995,0.52519137,8.026006
536,1778516218830,0.90401614,-0.7915706,0.1797056,-6.89655395,0.7108562275,7.979771100000001
537,1778516218840,0.90401614,-0.7915706,0.1797056,-8.051204,1.2678508,7.8410664
538,1778516218850,1.9738955,-0.658636,0.6823569,-8.4542985,1.58656975,7.35168695
539,1778516218860,1.975892575,-0.4147803,1.414564225,-9.2027615,2.3205626,5.8327705750000005
540,1778516218870,1.4921805333333331,-0.3975028599999999,1.6735529,-8.965618666666666,2.2524637,5.251048666666667
541,1778516218880,1.2004359,-0.38648596,1.7170514,-8.423068,1.8420641,5.103321
542,1778516218890,1.2004359,-0.38648596,1.7170514,-8.423068,1.8420641,5.103321
543,1778516218900,1.2004359,-0.3864859600000001,1.7170514,-8.423068,1.8420641,5.103321
544,1778516218910,1.2004359,-0.38648596,1.7170514,-8.423068,1.8420641,5.103321
545,1778516218920,1.21580265,-0.374976145,1.7155573999999998,-8.322008,1.65147415,5.1140875
546,1778516218930,1.2619029,-0.3404467,1.7110753999999997,-8.018828,1.0797043,5.146387
547,1778516218940,1.2619029,-0.3404467,1.7110754,-8.018828,1.0797043,5.146387
548,1778516218950,1.2619029,-0.3404467,1.7110753999999997,-8.018828,1.0797043,5.146387
549,1778516218960,1.315869525,-0.3411327025,1.7930772499999998,-7.099704875,0.263664725,5.04872475
550,1778516218970,1.45432275,-0.238901127,1.929502925,-6.4117942999999995,-0.0682260075,4.9820642
551,1778516218980,1.7625216333333331,0.1611272913333333,1.8932812666666663,-5.297932433333333,-0.4964807333333333,4.6410998
552,1778516218990,1.6901597,0.40288937,1.6222898,-4.584238233333333,-0.0993165099999999,3.5843027999999997
553,1778516219000,1.6359187,0.4159998875,1.542132675,-4.7763553,0.30772337,3.4234416
554,1778516219010,1.4731957,0.45533144,1.3016613,-4.7763553,0.30772337,3.4234416
555,1778516219020,1.4731957,0.45533144,1.3016613,-4.7763553,0.30772337,3.4234416
556,1778516219030,1.4731957,0.45533144,1.3016613,-4.7763553,0.30772337,3.4234416
557,1778516219040,1.2137294,0.4844185,1.0232304,-5.3592734,0.82634795,3.397938
558,1778516219050,1.1510276000000002,0.4988705499999999,1.0792551,-5.3592734,0.82634795,3.397938
559,1778516219060,1.130127,0.5036879,1.09793,-5.596441933333334,0.9231701,3.4327573
560,1778516219070,1.1759985,0.518551595,1.201106675,-6.226205775,1.099748375,3.552105075
561,1778516219080,2.2017748,1.0697576,1.7838234999999998,-6.079331,0.72509706,3.5132387
562,1778516219090,2.2017748,1.0697576,1.7838235,-5.452124975,0.21678081,3.1075478
563,1778516219100,2.2017748,1.0697576,1.7838234999999998,-5.2430563,0.04734206,2.9723175000000004
564,1778516219110,2.4289222,1.3929472,1.8348023,-3.82103865,-0.898506385,2.0551034
565,1778516219120,2.4378556,1.5971663500000002,1.6133869,-3.2932892,-1.2484558,1.573970675
566,1778516219130,2.446789,1.8013855,1.3919714999999997,-3.21758,-1.3034338,1.3561208
567,1778516219140,2.446789,1.8013855,1.3919715,-3.21758,-1.3034338,1.3561208
568,1778516219150,2.4477646,2.0594494,1.7602247,-3.662137,-0.43295074,1.6563611
569,1778516219160,2.487355375,2.136831975,1.877807775,-3.403626625,-0.10537425415,1.942933325
570,1778516219170,2.6061277,2.3689797,2.230557,-3.3174565,0.0038179078,2.0384574
571,1778516219180,2.7212969,2.5419165666666665,2.458984866666667,-2.7500644333333333,0.1822923759333333,2.2360722
572,1778516219190,2.7788815,2.628385,2.5731988,-2.4663684,0.27152961,2.3348796
573,1778516219200,2.7788814999999993,2.628385,2.5731988,-2.4663684,0.27152961,2.3348796
574,1778516219210,2.7788815,2.628385,2.5731988,-1.18400955,0.1192714434999999,2.14994015
575,1778516219220,3.8134544,3.1843321,2.8553495000000004,1.3002267,-0.20021108,1.4309518
576,1778516219230,3.8134544,3.1843321,2.8553495,1.3002267,-0.20021108,1.4309518
577,1778516219240,3.8134544,3.1843321,2.8553495000000004,1.3002267,-0.20021108,1.4309518
578,1778516219250,3.69105385,2.934332775,2.507310925,3.679737675,-0.4203516425,0.2797380925
579,1778516219260,3.5847213,2.7405257000000005,2.26562,4.472908,-0.49373183,-0.1039998099999999
580,1778516219270,3.202183775,2.376525875,1.630079865,5.68929325,-1.2393692575,-0.6099871025
581,1778516219280,2.65485,1.9331007,0.62826836,6.6792006,-3.2774448,-1.2718215
582,1778516219290,2.5689303999999997,2.0456682,0.3422760666666666,5.457062866666667,-3.5354844666666665,-1.5013541
583,1778516219300,2.704792,2.2465792,0.433241725,4.137085,-3.6329684,-1.7363845
584,1778516219310,2.757417,2.2757425,0.5098468,4.137085,-3.6329684,-1.7363845
585,1778516219320,2.757417,2.2757425,0.5098468,2.932255,-3.3218344,-1.9694294999999995
586,1778516219330,2.78920235,2.286169925,0.5905679850000001,2.020856725,-3.031647925,-2.22167865
587,1778516219340,2.8845584,2.3174522,0.83273154,1.0939069,-2.6277895,-2.6288586
588,1778516219350,2.8845584,2.3174522,0.83273154,1.0939069,-2.6277895,-2.6288586
589,1778516219360,2.8845584,2.3174522,0.83273154,1.0939069,-2.6277895,-2.6288586
590,1778516219370,2.8845584,2.3174522,0.83273154,1.0939069,-2.6277895,-2.6288586
591,1778516219380,2.8845584,2.3174522,0.83273154,1.0939069,-2.6277895,-2.6288586
592,1778516219390,2.8845584,2.3174522,0.83273154,1.0939069,-2.6277895,-2.6288586
593,1778516219400,2.577589375,2.115138625,1.36969882,0.2847013649999999,-1.88123585,-3.5143841250000003
594,1778516219410,1.9185672,1.7389022333333333,2.2264307333333333,-0.2935716466666667,-0.998052,-4.6779044333333335
595,1778516219420,1.565762075,1.470604025,2.5354681,0.30905963,-1.0537807,-4.796246775
596,1778516219430,1.5200886999999998,1.419412,2.5717964,0.9599747,-1.1189524,-4.844925
597,1778516219440,1.5200887,1.419412,2.5717964,0.9599747,-1.1189524,-4.844925
598,1778516219450,1.5200887,1.419412,2.5717964,0.9599747,-1.1189524,-4.844925
599,1778516219460,1.3270286,1.1366518,2.5439289,0.9599747,-1.1189524,-4.844925
600,1778516219470,1.3270286,1.1366518,2.5439289,0.9599747,-1.1189524,-4.844925
601,1778516219480,1.3270286,1.1366518,2.5439289,1.4227560666666663,-1.0781771666666666,-4.843907000000001
602,1778516219490,1.15973225,0.6419734450000001,2.1536622,3.86971675,-0.3789273575,-4.65483135
603,1778516219500,1.1100647,0.42276856,1.9987751,4.62089,-0.106901415,-4.5666757
604,1778516219510,1.1086012333333333,0.3432720533333333,1.9289539333333336,5.0131673333333335,-0.2608903766666666,-4.5771623
605,1778516219520,1.256506275,-0.1895080125,1.4121403,6.3019915,-1.1517864,-4.750241
606,1778516219530,1.2664154,-0.20623155,1.3993499,6.201961999999999,-1.2458596,-4.913342
607,1778516219540,1.28466335,-0.2089298775,1.419884675,6.201962,-1.2458596,-4.913342
608,1778516219550,1.2968439,-0.21131314,1.4650448333333337,6.029392566666666,-1.3193670666666666,-5.0806173333333335
609,1778516219560,1.433300075,-0.315170825,1.8135662,5.552383275,-1.43740405,-5.5416170000000005
610,1778516219570,1.4747202,-0.34880084,1.9041965,5.515349400000001,-1.2970196,-5.711132
611,1778516219580,1.4747202,-0.34880084,1.9041965,5.5153494,-1.2970196,-5.711132
612,1778516219590,1.5653352,-0.4103288,1.969627,5.833457499999999,-0.78801614,-6.133087
613,1778516219600,1.39332825,-0.45376122,1.8089165,5.8334575,-0.78801614,-6.133087
614,1778516219610,1.2248886,-0.471186,1.6891837999999997,5.833457499999999,-0.78801614,-6.133087
615,1778516219620,1.2034849,-0.4740367825,1.663770775,5.7958894,-0.5528712125,-6.2084525500000005
616,1778516219630,1.1392738,-0.48258913,1.5875317000000002,5.7144917,-0.3802636066666667,-6.1914247
617,1778516219640,1.1392738,-0.48258913,1.5875317,5.5767417,-0.19181168,-6.1071253
618,1778516219650,1.10915,-0.44490403,1.5183812,5.2268686,-0.009315695,-5.8762183
619,1778516219660,0.97731316,-0.5133226,1.5619814,5.177083,-0.081855945,-5.7549615
620,1778516219670,0.915022915,-0.6345187,1.463515175,5.52058025,-0.42905648625,-5.540853125
621,1778516219680,0.8322436,-0.8044981999999999,1.2782453,6.0070963,-0.9396634699999998,-5.2934527
622,1778516219690,0.786295815,-0.8714533250000001,1.167842515,6.1890576500000005,-1.176755535,-5.14470685
623,1778516219700,0.64845246,-1.0723187,0.83663416,6.265950066666666,-1.5329663333333332,-4.908200333333333
624,1778516219710,0.58344868,-1.17555635,0.57637508,6.2134156,-1.5925257,-4.86432
625,1778516219720,0.5184449,-1.278794,0.316116,6.2134156,-1.5925257,-4.86432
626,1778516219730,0.4281957266666666,-1.3067021666666667,0.16750977,5.4698400000000005,-1.7403550999999997,-4.770094
627,1778516219740,0.0549625566666666,-1.4211398333333334,-0.1890557433333333,4.6969938,-1.8641571666666668,-4.642728666666667
628,1778516219750,-0.14430719125,-1.557331725,-0.1584543725,4.3105707,-1.9260582,-4.579046
629,1778516219760,-0.17860797,-1.5929588,-0.13836174,2.86549245,-1.5717563,-4.11700265
630,1778516219770,-0.3430484833333333,-1.836225,-0.01437076,2.3693936,-1.2825116,-3.905567
631,1778516219780,-0.42526874,-1.9578581,0.04762473,2.3693936,-1.2825116,-3.905567
632,1778516219790,-0.42526874,-1.9578581,0.04762473,2.3693936,-1.2825116,-3.905567
633,1778516219800,-0.9124313,-2.3003173,0.20299964,1.4968235333333333,-0.135764804,-2.9422324
634,1778516219810,-0.9124313,-2.3003173,0.20299964,1.3924674,0.069027774,-2.7250698
635,1778516219820,-0.9565802333333332,-2.3877613,0.0347784493333333,1.2444852666666666,0.62481335,-1.5180001333333333
636,1778516219830,-0.9786547,-2.4314833,-0.049332146,1.2342533,0.6637051,-1.4011722
637,1778516219840,-0.92441372,-2.43511165,-0.0963165929999999,1.14743405,0.8607855,-0.912327265
638,1778516219850,-0.87017274,-2.43874,-0.14330104,0.9202176,1.4322244333333334,0.0119627833333333
639,1778516219860,-0.8448358925,-2.42941015,-0.174720555,0.806914825,1.732452,0.33715943
640,1778516219870,-0.76882535,-2.4014206,-0.2689791,0.29077184,2.447279,1.266171
641,1778516219880,-0.7320549066666667,-2.2416957333333336,-0.5280795866666667,0.1962404489333333,2.4622961,1.3723597333333333
642,1778516219890,-0.5347873,-1.8597731,-0.752711585,-0.7125743,2.4433084,2.2146919
643,1778516219900,-0.5084443,-1.8216916,-0.7595565,-1.0173197,2.43200735,2.40818345
644,1778516219910,-0.4603723933333333,-1.7087581666666667,-0.7452670533333333,-1.6261232666666663,2.4459553666666665,2.722219133333333
645,1778516219920,-0.29568797,-1.3355657,-0.63619566,-4.319123,3.098614,3.4779613
646,1778516219930,-0.29568797,-1.3355657,-0.63619566,-4.319123,3.098614,3.4779613
647,1778516219940,-0.172525305,-1.1785138750000002,-0.4464894825,-6.08528705,3.1199179,3.625714375
648,1778516219950,-0.1217550766666666,-1.1312855333333334,-0.0644956386666666,-8.290459666666667,2.4470242666666664,3.9768855
649,1778516219960,0.06860156,-1.0583545,0.4628929,-8.948069,1.750281625,4.4153341500000005
650,1778516219970,1.014357965,-0.681884335,1.42290315,-8.4832005,0.198722095,4.944725249999999
651,1778516219980,1.5668597,-0.30349332,1.9304785,-8.283333,-0.25870144,5.082399
652,1778516219990,1.592608175,-0.2539477475,1.909791325,-8.0675448,-0.25473082,4.9042555
653,1778516220000,1.6698536,-0.10531103,1.8477298,-7.8517566,-0.2507602,4.726112
654,1778516220010,1.6698536,-0.10531103,1.8477298,-7.851756599999999,-0.2507602,4.726112
655,1778516220020,1.6698536,-0.10531103,1.8477298,-7.894478775,-0.04722752275,4.5972575
656,1778516220030,1.6232654,-0.10634767,1.7438212999999998,-8.373741,0.6928739,4.397008
657,1778516220040,1.441059725,-0.2231989825,1.59930065,-8.793634125,0.8346709775,4.464470499999999
658,1778516220050,1.4586827,-0.2625152933333333,1.6366199,-9.1779445,0.72484249,4.511087333333333
659,1778516220060,1.6153991,-0.26324704,1.8076055,-9.3001175,0.6462954,4.523152
660,1778516220070,1.6153991,-0.26324704,1.8076055,-9.3001175,0.6462954,4.523152
661,1778516220080,1.7077825666666666,-0.23013538,1.8848457,-9.257968333333332,0.2673044499999999,4.1610105
662,1778516220090,1.60870665,-0.19688649,1.787467025,-9.25972475,0.0999146455,3.595591
663,1778516220100,1.6095451,-0.19373082,1.7893116000000002,-9.240101,0.108123146,3.4503195000000004
664,1778516220110,1.2506827,-0.26599112,2.3334289,-8.717658,0.35094208,3.5614972
665,1778516220120,1.169687125,-0.17058923,2.51412535,-8.33113285,0.41241039,3.68710635
666,1778516220130,1.6100939666666667,0.42742332,2.6981249333333337,-4.889823466666667,0.0859283799999999,3.9587633
667,1778516220140,1.6298817,0.86797755,1.9329177,-1.353448325,-0.566310255,3.2832861
668,1778516220150,1.4972215,1.0643305,1.3238578,-1.0490084,-0.5897904,3.1844406
669,1778516220160,1.475955,1.09594815,1.2277088875,-1.0490084,-0.5897904,3.1844406
670,1778516220170,1.4367911666666666,1.2628785666666669,0.82303585,-1.5969545,-0.28115073,3.3583844
671,1778516220180,1.5746041,1.44947485,0.7945586,-1.5969545,-0.28115073,3.3583844
672,1778516220190,1.7000991999999997,1.6000324,0.8241945,-2.856406,0.25045475,3.5763106
673,1778516220200,1.758806925,1.68401595,0.95779985,-2.8863001749999997,0.269811545,3.630295775
674,1778516220210,2.2031975666666663,2.211999,1.7671357,-2.9759827,0.32788193,3.7922513
675,1778516220220,2.3373313,2.3500152,1.9713956,-2.9759827,0.32788193,3.7922513
676,1778516220230,2.432214925,2.444731075,2.0692671249999997,-2.770235675,0.2840523474999999,3.770031125
677,1778516220240,2.716865799999999,2.7288787000000005,2.3628817,-1.7722728,0.0837394466666666,3.6184602666666663
678,1778516220250,2.7168658,2.7288787,2.3628817,-1.0108292,-0.05390886,3.4486396
679,1778516220260,3.5195348,3.3954420000000005,2.6502767,-0.3898847000000001,-0.1121446766666666,3.2346332
680,1778516220270,3.6013382500000004,3.42538275,2.51023795,1.3991105,-0.127136325,2.4712553
681,1778516220280,3.711969675,3.287996675,2.1725505,2.475493225,0.225561995,1.5086462325
682,1778516220290,3.695805,3.005134633333333,1.770652033333333,2.9467122333333333,0.1559742733333333,0.56301415
683,1778516220300,3.647103,2.7974803,1.2109853,2.9657507,-0.21746802,-0.17989981
684,1778516220310,3.3541589,2.822543,0.8359634000000001,2.2641719666666664,-0.3613267933333333,-0.6797912033333334
685,1778516220320,3.163721225,2.887577,0.87337415,1.1099039375,-0.4502458649999999,-1.333976975
686,1778516220330,2.9692585,2.7617466,1.6755854999999995,-0.64950246,-0.38591412,-2.7582092
687,1778516220340,2.4789863,2.3237941,2.3487346,-0.33307427,-0.038026363,-4.1331143
688,1778516220350,2.4789863,2.3237941,2.3487346,-0.33307427,-0.038026363,-4.1331143
689,1778516220360,2.02950875,2.00955325,2.44285585,0.3520874575,0.41095957925,-4.5807256249999995
690,1778516220370,1.7197547666666668,1.7243485666666667,2.4604483333333333,0.5804747,0.56062156,-4.7299294
691,1778516220380,1.61053595,1.5792537,2.452917425,1.3364204,0.94959,-4.8864636
692,1778516220390,1.4538652333333333,1.2097657666666668,2.4852263999999997,2.421011733333333,1.1835514,-4.961294533333334
693,1778516220400,1.419412,1.1073208,2.5023413,2.9633074,1.3005321,-4.99871
694,1778516220410,1.3589817333333334,0.62093051,2.480876533333334,3.8304816,1.2168944666666668,-4.97285
695,1778516220420,1.37944025,0.317457535,2.30729925,5.56483,1.0496192,-4.92113
696,1778516220430,1.3448498,-0.0561922975,1.969489825,7.00547905,0.6096816875,-4.975192025
697,1778516220440,1.249016,-0.3807742533333333,1.5248043666666666,8.065763333333335,0.0462221433333333,-4.9933141999999995
698,1778516220450,1.1983626,-0.4721617,1.3594695,8.15047,-0.12705997,-4.9846606
699,1778516220460,1.083112,-0.6199752,1.2129976,8.122981,-0.9966267,-4.9113564
700,1778516220470,,,,,,
701,1778516220480,,,,,,
702,1778516220490,1.083112,-0.6199752,1.2129976,8.122981,-0.9966267,-4.9113564
703,1778516220500,1.1079508666666669,-0.6384315333333332,1.3120684666666669,8.122981,-0.9966267,-4.9113564
704,1778516220510,1.1696821,-0.6454644733333333,1.4159972333333333,8.095288333333333,-1.4657711666666666,-4.878369800000001
705,1778516220520,1.21818085,-0.64637918,1.47737275,8.081442,-1.7003434,-4.8618765
706,1778516220530,1.2420237,-0.6483915,1.5115516,7.951429333333333,-2.2226331333333333,-5.065498366666667
707,1778516220540,1.2551342,-0.65732495,1.5305466,7.886423,-2.483778,-5.1673093
708,1778516220550,1.2400317,-0.6731896833333334,1.5909668,7.623598,-2.503784,-5.361106
709,1778516220560,1.1836057,-0.68705225,1.6738172,7.18347,-2.4561365,-5.5917077
710,1778516220570,1.1836057,-0.6870522500000001,1.6738172,7.18347,-2.4561365,-5.5917077
711,1778516220580,1.1836057,-0.68705225,1.6738172,7.0989415000000005,-2.5446355499999997,-5.6143861
712,1778516220590,1.0636597,-0.6857108,1.8383999,7.014413,-2.6331346,-5.6370645
713,1778516220600,1.0636597,-0.6857108,1.8383999,7.020877933333334,-2.7606527333333335,-5.636708133333333
714,1778516220610,1.0245719,-0.7308963,2.0776212,7.0338078,-3.015689,-5.6359954
715,1778516220620,1.0245719,-0.7308963,2.0776212,7.030193533333333,-3.1071660333333333,-5.645463799999999
716,1778516220630,1.0245719,-0.7308963,2.0776212,7.022965,-3.2901201,-5.6644006
717,1778516220640,1.0874416,-0.6592458,2.1024399,6.7074533,-3.1551190000000005,-5.7306795
718,1778516220650,1.14223135,-0.5601851250000001,1.97292,5.777029075,-1.97271295,-5.857892225
719,1778516220660,1.1150041333333334,-0.5880221,1.9186891666666668,5.2065573,-1.2116512,-5.925850999999999
720,1778516220670,1.0922589,-0.6184507,1.9131604,5.2065573,-1.2116512,-5.925851
721,1778516220680,1.0922589,-0.6184507,1.9131604,5.2065573,-1.2116512,-5.925850999999999
722,1778516220690,1.0049977075,-0.633466825,1.874804525,5.1130184750000005,-0.8891907124999999,-5.723387349999999
723,1778516220700,0.6882515533333334,-0.7695774333333333,1.7029449333333335,5.075679133333334,0.0414370253333333,-5.013065666666667
724,1778516220710,0.5783264,-0.9517019,1.589361,5.5622334,-0.032070424,-4.8072042
725,1778516220720,0.598495275,-1.228867425,0.951534125,6.00419445,-0.2900846419999999,-4.70320435
726,1778516220730,0.5518005,-1.5742382,0.09342009,6.3949446666666665,-0.5989024733333334,-4.616715866666667
727,1778516220740,0.5518005,-1.5742382,0.09342009,6.292523,-0.7005097,-4.6517386
728,1778516220750,0.5518005,-1.5742382,0.09342009,6.292523,-0.7005097,-4.6517386
729,1778516220760,0.3716070525,-1.840046375,-0.433439925,5.5621572,-0.64033948,-4.77299545
730,1778516220770,0.31154257,-1.9286491,-0.60905993,4.8317914,-0.58016926,-4.8942523
731,1778516220780,-0.0377308624999999,-2.151253525,-0.76405373,3.5643223500000003,-0.15771776,-4.663268974999999
732,1778516220790,-1.1245779,-2.6960108,-1.0628059,0.9379836,0.6944011,-3.9086213
733,1778516220800,-1.203744075,-2.727918175,-1.056037225,0.35739435,0.88075315,-3.41187335
734,1778516220810,-1.440266925,-2.850928475,-0.9754228,-0.19971475,1.102115425,-2.78050595
735,1778516220820,-1.2354176,-2.928809066666666,-0.5944859166666666,-1.6074919,2.019367833333334,-0.5737552
736,1778516220830,-0.7019617,-2.6240403,-0.4486084775,-1.5727489,2.4087181,1.21279665
737,1778516220840,-0.5607034566666668,-2.2876537333333338,-0.5583455833333333,-1.3816244,2.046093166666666,2.393675566666667
738,1778516220850,-0.6511050650000001,-2.04324415,-0.5724267125,-2.2360723,1.7837266,3.7244453
739,1778516220860,-0.6651810833333333,-1.8421196666666668,-0.5544632333333334,-2.795014,1.9924897,4.1245623
740,1778516220870,-0.60334315,-1.73069555,-0.502651285,-2.795014,1.9924897,4.1245623
741,1778516220880,-0.5822901,-1.7035751,-0.48789433,-3.9774964,2.4570527,4.8375945
742,1778516220890,-0.429964135,-1.62015555,-0.430329995,-4.3361888749999995,2.56208335,5.031735125
743,1778516220900,-0.27763817,-1.536736,-0.37276566,-5.4122663,2.8771753,5.614157
744,1778516220910,0.10384752,-1.3867272,-0.16488767,-6.974401,3.0862439,5.949217
745,1778516220920,0.10384752,-1.3867272,-0.16488767,-6.974401,3.0862439,5.949217
746,1778516220930,0.9640349,-0.90018973,0.6414398775000001,-9.030726,2.80883465,6.3781969499999995
747,1778516220940,1.3629657,-0.6903045266666666,1.0510166,-9.698962,2.4087434,6.3776368
748,1778516220950,2.179105725,-0.2399072924999999,1.927399,-10.038502,1.9911152,6.20242
749,1778516220960,1.7220518,0.0461409023333333,2.1954328000000003,-9.471619,1.7760907,4.5150576
750,1778516220970,1.0156081,0.00219525,2.2003112,-9.319207,2.2111795,4.221079
751,1778516220980,1.0156081,0.00219525,2.2003112,-9.25331,2.31869175,4.26047975
752,1778516220990,0.91861055,-0.0278268266666666,2.3019228999999997,-8.620225,1.9541580000000005,4.755586
753,1778516221000,0.7280607775000001,-0.10037171,2.5508959,-8.272337199999999,1.7327957,4.91693085
754,1778516221010,0.98605352,-0.0552674533333333,2.7666044333333333,-7.9244494,1.5114334000000005,5.0782757
755,1778516221020,1.1098819,-0.01396423,2.8058343,-6.54645205,0.80324965,5.4824774000000005
756,1778516221030,1.2595044,0.0425634566666666,2.804797666666667,-6.0871196,0.5671884,5.6172113
757,1778516221040,1.812499025,0.4320373825,2.474504075,-3.866128025,-0.1816560524999999,5.2598552750000005
758,1778516221050,1.7125999,0.7382138,1.7576635000000005,-3.1257974999999996,-0.4312708699999999,5.1407366
759,1778516221060,1.7125999,0.7382138,1.7576635,-2.181552525,-0.2514474049999999,4.3858217
760,1778516221070,1.7125999,0.7382138,1.7576635,-1.8668042,-0.19150625,4.1341834
761,1778516221080,1.7125999,0.7382138,1.7576635000000005,-2.0102557,-0.0034106666666666,4.043520766666667
762,1778516221090,1.536156625,0.812760875,1.272238825,-2.2971587,0.3727805,3.8621955
763,1778516221100,1.3624778333333332,0.80100202,0.7703498,-4.2008185000000005,1.4514667,3.575496033333333
764,1778516221110,1.2474508,0.7015653,0.51563984,-5.1526484,1.9908098,3.4321463
765,1778516221120,1.2474508,0.7015653,0.51563984,-5.1526484,1.9908098,3.4321463
766,1778516221130,1.0809166,0.48301598,0.626378,-5.1526484,1.9908098,3.4321463
767,1778516221140,1.0006680666666667,0.39339693,0.747381,-5.968815266666667,2.1335996,3.237840233333334
768,1778516221150,1.07431575,0.3577190475,1.310671025,-6.951799125,1.6623170925,2.71308155
769,1778516221160,1.2199696,0.7072364066666667,1.381035866666667,-4.276158533333334,0.4865032633333332,2.3351341666666667
770,1778516221170,1.185557,0.77766734,1.3306264,-3.9361103,0.6507242,2.4040601
771,1778516221180,1.3497739,0.91676074,1.1982406,-3.9361103000000006,0.6507242,2.4040601
772,1778516221190,1.3497739,0.91676074,1.1982406,-3.912210225,0.700242465,2.43655055
773,1778516221200,1.3497739,0.91676074,1.1982406,-3.84051,0.84879726,2.5340219
774,1778516221210,1.7340950999999998,1.07314187,1.23964545,-3.668475,0.559094415,2.4330762999999997
775,1778516221220,2.10698265,1.25629285,1.2640371,-3.49644,0.26939157,2.3321307
776,1778516221230,2.0479649666666666,1.3242439333333331,1.2795461666666668,-3.3198998,-0.11804971,2.1386392
777,1778516221240,1.9527969,1.4066064,1.3445907,-3.29019655,-0.1944842199999999,2.6984209000000003
778,1778516221250,2.2314107,1.5890561,1.5151494,-3.2604933,-0.27091873,3.2582026
779,1778516221260,3.0102368000000004,1.9987752,1.94828435,-2.836705575,0.08296314175,3.86929685
780,1778516221270,3.3709896,2.1754928,2.1668336,-2.4827092,0.27107146,4.1631994
781,1778516221280,4.12626205,2.83124745,1.910645025,1.43610605,-0.6798166525,2.106721625
782,1778516221290,4.047919066666666,2.87407,1.1108778333333331,3.130379,-1.4036156,0.5590944
783,1778516221300,3.6903372,2.8143106,0.8713923,2.9708668,-1.4479797,0.193796995
784,1778516221310,3.6903372,2.8143106,0.8713923,2.549789725,-1.576070525,-0.3354031925
785,1778516221320,3.3198278,2.8349216,0.48874804,1.7650951,-1.8272507,-0.8271115400000001
786,1778516221330,3.3198278,2.8349216,0.48874804,1.7650951,-1.8272507,-0.82711154
787,1778516221340,3.322023,2.7937605,0.61082834,0.74118316,-1.9334394333333331,-1.3072516466666666
788,1778516221350,3.1930368500000004,2.646419625,0.87160573,-0.3405573574999999,-1.590578575,-2.0197114249999997
789,1778516221360,2.2334839333333334,1.888646866666667,2.1094524333333333,-1.8038341333333332,0.1205949786666666,-4.048662
790,1778516221370,1.637626,1.4462734,2.58932795,-0.403171065,0.384157885,-4.52811485
791,1778516221380,1.4382546,1.3087958,2.7532094,0.32543847,0.35705075,-4.5995097
792,1778516221390,1.4382545999999998,1.3087958,2.7532094,0.8032369133333334,0.3361795166666666,-4.588514133333333
793,1778516221400,1.294831575,1.1315294,2.76898775,1.7588338,0.29443705,-4.566523
794,1778516221410,1.2470239,1.0724406,2.7742472,1.7588338,0.29443705,-4.566523
795,1778516221420,1.2470239,1.0724406,2.7742472,2.568039325,0.3608686375,-4.481422
796,1778516221430,1.2657446,0.9043211,2.7266223000000003,2.8377745,0.3830125,-4.453055
797,1778516221440,1.2657446,0.9043211,2.7266223,2.8377745,0.3830125,-4.453055
798,1778516221450,1.3604656000000002,0.7852491,2.7263378333333335,3.3563482,0.4246022466666666,-4.4350344999999995
799,1778516221460,1.4078261,0.7257131,2.7261956,5.0589568,0.49632801,-4.450535049999999
800,1778516221470,1.4872208999999998,0.46264893,2.6542401,5.724418,0.4848742799999999,-4.5020766
801,1778516221480,1.487007475,0.4065938375,2.600410725,5.9594485,0.4590652225,-4.5272367
802,1778516221490,1.441364575,0.04163353025,2.15340315,7.15556125,0.2897792125,-4.657809524999999
803,1778516221500,1.3887598333333333,-0.1653145243333333,1.8765934,7.319235,0.2591596,-4.6761737
804,1778516221510,1.3699579,-0.23598938,1.7857751,7.319235,0.2591596,-4.6761737
805,1778516221520,1.3699579,-0.23598938,1.7857750999999995,7.319235,0.2591596,-4.6761737
806,1778516221530,1.3699579,-0.23598938,1.7857751,7.947585999999999,-0.2528218395,-4.74176515
807,1778516221540,1.35013975,-0.29452939,1.7190943,8.099768,-0.51923543,-4.7624583
808,1778516221550,1.3303216,-0.3530694,1.6524135,8.099768,-0.51923543,-4.7624583
809,1778516221560,1.3303216,-0.3530694,1.6524135,8.099768,-0.51923543,-4.7624583
810,1778516221570,,,,,,
811,1778516221580,1.3303216,-0.3530694,1.6524135,8.099768,-0.51923543,-4.7624583
812,1778516221590,1.2958074,-0.42014647,1.6155821,8.255844,-0.9645562,-4.819574
813,1778516221600,1.2958074,-0.42014647,1.6155821,8.255844,-0.9645562,-4.819574
814,1778516221610,1.198667475,-0.5042520174999999,1.542315575,8.467661,-1.9796616,-4.9851184
815,1778516221620,1.1712065,-0.5163919333333333,1.4896804,8.374605666666666,-2.2338831999999997,-5.020039733333333
816,1778516221630,1.237053825,-0.501584155,1.6186309250000002,8.028907125,-2.460297825,-5.178953625
817,1778516221640,1.2581831,-0.49929744,1.6663166,7.4316339,-2.398600625,-5.4780868
818,1778516221650,1.1871424000000002,-0.5340352466666666,1.9341982,7.418653,-2.507754466666667,-5.598376233333333
819,1778516221660,1.0723187,-0.57686293,2.2817185,7.637343,-2.7542386,-5.6639423
820,1778516221670,1.0447967666666669,-0.60286037,2.380220166666667,8.114428666666667,-3.2154927333333334,-5.6780432
821,1778516221680,0.97827355,-0.6861833125,2.472674775,9.818743,-4.6566257,-5.743508
822,1778516221690,0.9687963666666668,-0.6854058466666667,2.3503607,9.892046666666666,-4.6998953666666665,-5.749769333333333
823,1778516221700,0.9141082,-0.6324759449999999,1.9294723,9.924193,-4.747950100000001,-5.802609
824,1778516221710,0.82157231,-0.6096494,1.6253590666666666,9.385487,-4.363258,-5.7690115
825,1778516221720,0.72327393,-0.6249755,1.5090514,9.385487,-4.363258,-5.7690115
826,1778516221730,0.72327393,-0.6249755,1.5090514,9.385487,-4.363258,-5.7690115
827,1778516221740,0.5927937074999999,-0.660419645,1.439032075,8.974833,-3.864639,-5.422498
828,1778516221750,0.5493003,-0.67223436,1.4156923,8.974833,-3.864639,-5.422498
829,1778516221760,0.4930368666666666,-0.7102853733333333,1.3503023333333333,8.891704333333335,-3.8696786666666663,-5.3165129
830,1778516221770,0.280900535,-0.837747025,1.09480475,8.5941105,-3.9524508,-4.91326535
831,1778516221780,0.24769738,-0.8548668999999999,1.0532322,8.462774,-4.0251436,-4.721988
832,1778516221790,0.1957278835,-0.915312535,0.8016473825,7.5013485,-4.175645599999999,-4.2787291
833,1778516221800,0.02967653,-1.0295519466666667,0.33510085,5.6549830000000005,-4.122322266666667,-3.6712492
834,1778516221810,-0.031099375,-1.09482,0.32416525,3.7766743,-3.36651655,-3.3405929
835,1778516221820,-0.031099375,-1.09482,0.32416525,3.2980614,-3.1485521999999997,-3.2577443
836,1778516221830,-0.12447372375,-1.407887075,0.7401498875,0.382859775,-0.77740238475,-2.9846876
837,1778516221840,-0.18592548,-1.5723479,0.930786,-0.5888741,0.012980887,-2.8936687
838,1778516221850,-0.59222966,-2.1608577,1.4076431000000005,-1.5100589,2.0309741,-2.2661574
839,1778516221860,-0.59222966,-2.1608577,1.4076431,-1.422247,2.1029798499999997,-2.168838925
840,1778516221870,-0.6073525,-2.2769623,1.2276326,-0.46563202,2.6833782,-1.4167492
841,1778516221880,-0.6073525,-2.2769623,1.2276326,-0.10873401025,2.9177214,-0.963639925
842,1778516221890,-0.6075557833333333,-2.115733133333334,0.4852722233333333,0.010231993,2.9958358,-0.8126035000000001
843,1778516221900,-0.57668,-2.0819507,0.3553256,-0.06627888,3.3111951,-0.17547104
844,1778516221910,-0.5072857,-1.8651698,-0.16964404,-1.2450961,3.9875755,0.7093672999999999
845,1778516221920,-0.5120725675,-1.838964025,-0.2179090475,-1.2450961,3.9875755,0.7093673
846,1778516221930,-0.52643317,-1.7603467,-0.36270407,-1.2450961,3.9875755,0.7093673
847,1778516221940,-0.52643317,-1.7603467000000002,-0.36270407,-1.2450961,3.9875755,0.7093672999999999
848,1778516221950,-0.5245580525,-1.68627225,-0.4504988425,-1.788766175,4.15300545,0.894077675
849,1778516221960,-0.54897513,-1.4000207,-0.82870692,-5.474879733333334,4.989700133333333,1.8177822
850,1778516221970,-0.5472677133333333,-1.3957928333333331,-0.93643678,-8.102364,5.286275,2.2837198
851,1778516221980,-0.53259206,-1.4585607,-0.94566494,-9.3441765,5.4018049999999995,2.56044175
852,1778516221990,-0.53259206,-1.4585607000000005,-0.94566494,-10.585989,5.517335,2.8371637
853,1778516222000,-0.53259206,-1.4585607,-0.94566494,-10.897225,5.4933204,2.9178742250000003
854,1778516222010,-0.4939719066666666,-1.5088481666666669,-0.8898080466666666,-11.830933,5.4212766,3.1600058
855,1778516222020,0.038416874,-1.6436324,-0.28757775,-13.8668705,4.525633525,3.7333792
856,1778516222030,0.038416874,-1.6436324000000002,-0.28757775,-15.132965,3.7265835,4.0063596
857,1778516222040,1.0482929,-1.7040019,0.89108855,-15.229978,3.532404675,3.94756385
858,1778516222050,1.0482929,-1.7040019,0.89108855,-15.521017,2.9498682,3.7711766
859,1778516222060,1.0773596333333335,-1.6668859666666669,1.4018501166666668,-15.392735000000002,2.2535836666666667,3.5555411333333335
860,1778516222070,1.025806825,-1.536415925,2.19803985,-14.75842825,1.2628876,3.459520825
861,1778516222080,1.0037781,-1.4991119,2.3783095,-14.568373,1.048703,3.4634533
862,1778516222090,1.30182905,-0.783536545,3.069249275,-10.50630925,-0.249500275,3.831003225
863,1778516222100,1.314284,-0.45197758,2.7085726,-8.817534,-0.42012256,3.7751472000000006
864,1778516222110,1.314284,-0.45197758,2.7085726,-8.817534,-0.42012256,3.7751472
865,1778516222120,1.1893986666666667,-0.2931065333333333,2.3731872666666667,-8.817534,-0.42012256,3.7751472000000006
866,1778516222130,1.126956,-0.21367101,2.2054946,-8.053801,-0.3585779,3.4588718
867,1778516222140,1.126956,-0.21367101,2.2054946,-6.975216333333333,-0.6527095333333334,3.2937854666666664
868,1778516222150,1.3686163,0.16348514,2.5034997,-4.818047,-1.2409728,2.9636128
869,1778516222160,1.3686163,0.16348514,2.5034997,-4.818047,-1.2409728,2.9636128
870,1778516222170,1.3502819666666666,0.2392212666666666,2.2634451,-4.1737366,-1.4133894,2.761569
871,1778516222180,1.3411148,0.27708933,2.1434178,-4.1737366,-1.4133894,2.761569
872,1778516222190,1.23851735,0.35697204,1.7518096,-4.1737366,-1.4133894,2.761569
873,1778516222200,1.1359199,0.43685475,1.3602014,-3.8858666,-1.483639,2.5135577
874,1778516222210,0.965284925,0.5159752424999999,1.054467005,-5.09614335,-1.02396287,2.8173869
875,1778516222220,1.158035,0.8190315333333333,1.2863961666666668,-5.978538266666667,-0.4833471133333333,3.1205542666666664
876,1778516222230,1.63860175,1.09292963,1.7135146,-5.8622829,-0.135573898,2.948990225
877,1778516222240,1.8614501,1.2210468,1.8627306,-5.5746036,-0.027030786,2.7305677
878,1778516222250,2.3511587250000003,2.0274049,2.305668,-1.64609099,-2.33831575,2.320906075
879,1778516222260,4.411294,3.6146624,4.229393,1.5308284,-2.538756,1.3255776
880,1778516222270,4.423063,3.5483778499999996,3.9997151,2.982855,-1.5114334,-0.14630222
881,1778516222280,4.261407233333333,3.3787743,3.5222381333333335,2.9828549999999994,-1.5114334000000005,-0.14630222
882,1778516222290,3.9145577,3.1721363,3.02664,3.7586539,-0.5035057,-1.4350752
883,1778516222300,3.9145577,3.1721363,3.02664,3.3663766,-0.4521420999999999,-1.8912897333333336
884,1778516222310,3.9145577,3.1721363,3.02664,2.164791925,-0.2307543299999999,-3.16073135
885,1778516222320,2.70986855,2.195067125,2.3896974,0.9137017,0.12522738,-4.231769
886,1778516222330,2.3083055,1.8693774,2.1773832,0.9137017,0.12522738,-4.231769
887,1778516222340,1.754644975,1.42500695,2.6890745000000003,1.61680755,0.60620741,-4.6983174000000005
888,1778516222350,1.5866169999999995,1.2572075,2.749307,2.1844542,0.7736608400000001,-4.733595
889,1778516222360,1.5144176,1.168056,2.7638807,2.1844542,0.7736608400000001,-4.733595
890,1778516222370,1.47365305,1.066236025,2.741775775,2.5196664,0.88346386,-4.724737
891,1778516222380,1.35071905,0.5820919,2.50116715,4.01338465,1.27766289,-4.617072
892,1778516222390,1.3385537,0.33264136,2.1615896,5.760154,1.519171,-4.563621333333333
893,1778516222400,1.2282424,0.093359105,1.8133985,5.8963766,1.5326608,-4.567898
894,1778516222410,1.1581773333333334,-0.1539520666666667,1.494843333333333,6.637559899999999,1.2134837866666666,-4.555018666666666
895,1778516222420,1.0721967,-0.5116152,1.0589032,7.0962687,0.69134676,-4.533384
896,1778516222430,1.0425608,-0.556191,1.0139006,7.0962687,0.69134676,-4.533384
897,1778516222440,1.033871225,-0.55692273,0.9722366225,6.858374925,0.1765018814999999,-4.62409725
898,1778516222450,1.0792093,-0.5138105,0.9824963,6.779077,0.004886922,-4.654335
899,1778516222460,1.0947132750000002,-0.506523475,1.02906915,6.136752,-0.1656972,-4.764596
900,1778516222470,1.1412252,-0.4846624,1.1687877,5.9571578,-0.17684549,-4.8388161499999995
901,1778516222480,1.1412252,-0.4846624,1.1687877,5.7775636,-0.18799378,-4.9130363
902,1778516222490,1.1509817333333332,-0.4075034466666666,1.4963881,5.544722,-0.3670282,-5.244074533333333
903,1778516222500,1.1475669,-0.38807142,1.5610057,5.5379515,-0.4251622,-5.297118
904,1778516222510,1.361055,-0.3318181425,1.970602675,6.1397302,-1.089439985,-5.642944075
905,1778516222520,1.4322177,-0.31306705,2.107135,6.2937446,-1.2359331,-5.737857299999999
906,1778516222530,1.44394095,-0.3091186525,2.1036745,6.5660377,-1.5396858,-6.1871486
907,1778516222540,1.4712240333333335,-0.27999602,2.1293113333333333,6.4862179,-1.4466306666666666,-6.453078866666668
908,1778516222550,1.4672807,-0.2713573,2.1473205,6.3166523,-1.0228939,-6.7396765
909,1778516222560,0.9693248,-0.42593947,2.26812,6.3166523,-1.0228939,-6.7396765
910,1778516222570,0.9693248,-0.42593947,2.26812,6.413474433333334,0.1672752333333333,-6.3088128333333335
911,1778516222580,0.6933636075,-0.5437054975,2.307344925,6.926410125,0.6945155875,-5.791231675
912,1778516222590,0.3751438366666667,-0.8729371333333334,2.1619960333333332,8.319984,0.49098295,-4.8847837
913,1778516222600,0.3374587175,-1.197478425,1.5108503175,9.987188,-0.7276932,-4.065003
914,1778516222610,0.3438818566666666,-2.0042226,-0.4973460833333333,10.797602666666668,-2.4016676666666665,-3.694004066666667
915,1778516222620,0.31361586,-2.0565834,-0.61625546,10.779175,-3.30019955,-3.5711182
916,1778516222630,0.31361586,-2.0565834,-0.61625546,10.35554,-3.3617442,-3.6337318
917,1778516222640,0.0280300933333333,-2.2315936,-0.88887302,8.555473,-3.0401237,-3.6731327
918,1778516222650,,,,,,
919,1778516222660,-0.38782752,-2.3607476,-1.0998813,7.2172203,-2.6821566,-3.5446982
920,1778516222670,0.504572125,0.637872565,0.52493919,-4.80392075,0.440892005,2.6815457
921,1778516222680,0.5886319,0.8556597,0.08646846,-5.12042525,0.04833471,2.77439725
922,1778516222690,0.5886319,0.8556597,0.08646846,-5.652641466666666,-0.1292489066666666,2.839403566666667
923,1778516222700,0.61142286,0.861589935,0.094853095,-6.0952134,-0.13332134,2.8735101
924,1778516222710,0.67979574,0.87938064,0.120007,-6.0952134,-0.13332134,2.8735100999999994
925,1778516222720,0.9550099825,1.070428325,1.0430029,-6.70898,0.03390302,3.048523
926,1778516222730,1.0168886,1.1026863,1.1833007,-6.653289600000001,0.1282817,3.222008733333333
927,1778516222740,1.1368345999999998,1.16573875,1.315030925,-6.302869425,0.1504637449999999,3.364607575
928,1778516222750,1.763898575,1.5426356499999998,1.8085505,-5.3351445,0.07544186,3.5321755
929,1778516222760,1.8529739,1.6052155,1.8413268,-4.068668,-0.38988474,3.6494617
930,1778516222770,2.3692998750000003,1.988240975,1.627762625,-3.735441,-0.57501508,3.699476275
931,1778516222780,2.9173656,2.429227,1.3842881,-2.1600194,-1.4549283,3.9489384
932,1778516222790,3.3273741,2.7007519,1.2661562,-2.0477731,-1.4521794,3.8826594
933,1778516222800,3.4640436,2.7912602,1.2267789,-2.3893993,-0.9106474,3.2452216
934,1778516222810,4.0674324,3.1937839999999995,1.2463533,-2.3893993,-0.9106474,3.2452215999999994
935,1778516222820,4.10533085,3.3558513,1.6559045499999998,-1.8652387925,-0.6046802525,2.32537307
936,1778516222830,3.703021,3.3638546,2.4362397,-0.15042557,-0.14034629,0.30604348
937,1778516222840,3.62842825,3.2777369,2.26953795,0.9296605825,-0.4084779725,-0.0414624799999999
938,1778516222850,3.603564,3.249031,2.2139707,1.2896893,-0.4978552,-0.1572978
939,1778516222860,3.180292375,3.019673175,1.45997855,2.0906863,-0.95432422,-1.166676265
940,1778516222870,2.5753941333333334,2.7869716,1.1281552666666668,1.8244508666666668,-1.1181888,-2.0996966
941,1778516222880,2.3142204,2.6453373,1.1283585,0.75854194,-0.7657196,-2.5146267
942,1778516222890,1.9926569,2.3656462,1.6224320333333333,0.2937752866666667,-0.0423024233333333,-3.1541517333333338
943,1778516222900,1.3767877,1.9250513,2.3889809,0.20647246,0.44501534,-3.629914
944,1778516222910,1.2550122,1.7232714,2.543746,0.5165374733333333,0.5142976433333333,-3.716605966666666
945,1778516222920,1.35078005,1.4178572,2.455692,3.4988835,0.78114393,-4.0753112
946,1778516222930,1.514280475,0.8098186,2.094329375,6.28916315,0.611323375,-4.43358375
947,1778516222940,1.5368579999999998,0.7089438,2.0032265,7.152468533333334,0.39808049,-4.6475645666666665
948,1778516222950,1.536858,0.7089438,2.0032265,7.7813544,0.15974127,-4.8417177
949,1778516222960,1.531004,0.0567106269999999,1.0948809,7.894364266666666,0.0328849166666666,-4.913647133333334
950,1778516222970,1.56557915,0.0112049222499999,0.8634192975,7.3134695,-1.0283916475,-5.43841875
951,1778516222980,1.5861088,0.0031302636666666,0.8317558533333335,6.217182666666667,-1.6864971333333336,-5.734803066666667
952,1778516222990,1.95137925,0.10210961575,2.04203985,5.721364,-1.9251418,-5.8068852
953,1778516223000,2.067133,0.13037346,2.4151409,5.721364,-1.9251418,-5.8068852
954,1778516223010,1.5542574,-0.87744958,2.017353433333333,6.654664333333334,-0.7819075066666666,-6.753420666666666
955,1778516223020,1.2199797,-1.3883432249999998,1.76969165,7.941706,-1.3828462,-7.0970325
956,1778516223030,0.98646,-1.4092896,1.6233875,7.9615593,-1.8851302,-6.828557
957,1778516223040,0.74345803,-1.4911236,1.4089236,7.9615593,-1.8851302,-6.828557
958,1778516223050,0.7434580299999999,-1.4911236,1.4089236000000005,8.005185333333332,-2.1395554666666667,-6.433836566666667
959,1778516223060,0.74345803,-1.4911236,1.4089236,8.018828,-2.1878138,-6.2210517
960,1778516223070,0.56186205,-1.6993674,0.6413179,7.810523,-2.0451767,-5.8783565
961,1778516223080,0.428866485,-1.76330415,0.24150799,7.6511254,-1.975041775,-5.809863125
962,1778516223090,0.3845346299999999,-1.7846164,0.10823802,7.1729326,-1.7646369999999998,-5.604383000000001
963,1778516223100,-0.0346361664999999,-1.850702525,-0.35806965,6.54484855,-1.679879425,-5.31861275
964,1778516223110,-0.3389832,-1.8915128999999995,-0.5852781,4.142684466666666,-1.4464779666666665,-4.232430866666666
965,1778516223120,-0.3389832,-1.8915129,-0.5852781,3.8837285,-1.4569136,-4.1179953
966,1778516223130,-0.3389832,-1.8915128999999995,-0.5852781,3.8837285,-1.4569136,-4.1179953
967,1778516223140,-0.4957301149999999,-1.993896825,-0.44839505,3.260607775,-1.26540735,-3.855285075
968,1778516223150,-0.5395436,-2.057742,-0.3202016,1.3912456000000002,-0.6908886,-3.0671544
969,1778516223160,-0.5635999,-2.1094828000000003,-0.2483986349999999,1.1790081075,-0.515722989,-2.93585655
970,1778516223170,-0.5876562,-2.1612236,-0.17659567,0.54229563,0.009773844,-2.541963
971,1778516223180,-0.5105988766666666,-2.2580788666666667,-0.1330565443333333,-0.2596177233333333,1.1136582146666667,-1.34349632
972,1778516223190,-0.33886125,-2.4238304,-0.19330396,-1.061683775,2.6637160250000003,-0.3376175775
973,1778516223200,-0.6726002333333333,-2.194437133333333,-0.4353506066666666,-1.5371914333333334,3.2420146666666665,0.4192062699999999
974,1778516223210,-0.98124624,-1.885719775,-0.6513490125,-2.4440718,3.1757357,1.8457294
975,1778516223220,-1.0030259666666668,-1.7944746,-0.7156922,-2.4440718,3.1757357,1.8457294
976,1778516223230,-0.92569425,-1.6253692000000002,-0.7794357249999999,-4.504062,3.2592716,3.0488284
977,1778516223240,-0.6518673,-1.45167,-0.64375705,-5.402237666666667,3.230051866666667,3.308547933333333
978,1778516223250,-0.6518673,-1.45167,-0.64375705,-5.8513255,3.215442,3.4384077
979,1778516223260,-0.6518673,-1.45167,-0.64375705,-5.851325499999999,3.215442,3.4384077000000004
980,1778516223270,-0.5783874,-1.416668,-0.55869114,-6.689738,3.110373,3.6063957
981,1778516223280,-0.5719388575,-1.41427455,-0.49912973,-6.689738,3.110373,3.6063957
982,1778516223290,-0.55259323,-1.4070942000000002,-0.3204455,-8.481711,2.6820040000000005,4.0590467
983,1778516223300,-0.468381,-1.4484991,0.0020732917,-8.481711,2.682004,4.0590467
984,1778516223310,-0.468381,-1.4484991,0.0020732917,-9.247634333333334,2.3433809333333335,4.3764931
985,1778516223320,-0.468381,-1.4484991,0.0020732917,-9.630596,2.1740694,4.5352163
986,1778516223330,0.2294849033333333,-1.4109969666666666,0.9656863739,-10.872129,0.7607817733333334,5.483788133333334
987,1778516223340,1.8240393,-0.43273867,3.0178286,-8.553526,0.365946475,5.4627769
988,1778516223350,1.7082094,-0.043335862,2.583341733333333,-6.869077933333333,0.8265516066666666,4.811632666666667
989,1778516223360,1.5429559,0.0866514,2.2708032,-6.4188194,0.84956086,4.574006
990,1778516223370,1.4539873,0.096591,2.1857575333333332,-6.4188194,0.84956086,4.574006
991,1778516223380,1.2760501,0.1164702,2.0156662,-5.820324,0.31658092,4.3586764
992,1778516223390,1.17859015,0.1317912225,1.83599115,-5.3082662,-0.38354699,4.4709992
993,1778516223400,1.1562870333333335,0.18759225,1.4499626333333335,-4.7452011333333335,-1.1523972666666669,4.599255333333333
994,1778516223410,1.428909625,0.3009322024999999,1.1257212,-4.675677074999999,-1.2412782,4.591339375
995,1778516223420,1.4658172,0.3766683,0.7108951,-4.992398,-0.8701775333333334,4.331390833333333
996,1778516223430,1.3069359500000002,0.337428225,0.6281159000000001,-5.9996127,0.0471129999999999,3.90213095
997,1778516223440,1.1480547,0.29818815,0.5453367,-6.879971533333333,0.7059566333333332,3.7321830333333335
998,1778516223450,0.8266336,0.1276294,0.7315061,-7.55850295,1.08955455,3.697338225
999,1778516223460,0.8525701066666667,0.0780330106666666,1.0661191,-7.7242384,1.0861185,3.72414
1000,1778516223470,0.86553836,0.053234816,1.2334256,-7.7242384,1.0861185,3.72414
