id,timestamp,acc_x,acc_y,acc_z,gyro_x,gyro_y,gyro_z
0,1778516134340,-0.7911437,0.26849127,1.214766,-0.77579886,0.23808473,1.8756617
1,1778516134350,-0.7911437,0.26849127,1.214766,-0.77579886,0.23808473,1.8756617
2,1778516134360,-0.71113905,0.307975285,1.4223390500000002,-0.77579886,0.23808473,1.8756617
3,1778516134370,-0.6311344,0.3474593,1.6299121,-0.77579886,0.23808473,1.8756617
4,1778516134380,-0.6311344,0.3474592999999999,1.6299121,-0.77579886,0.23808473,1.8756617
5,1778516134390,-0.6311344,0.3474592999999999,1.6299121,-0.77579886,0.23808473,1.8756617
6,1778516134400,-0.6311344,0.3474593,1.6299121,-0.74998981,0.329943595,1.88566465
7,1778516134410,-0.6311344,0.3474592999999999,1.6299121,-0.72418076,0.42180246,1.8956676
8,1778516134420,-0.6311344,0.3474593,1.6299121,-0.72418076,0.42180246,1.8956676
9,1778516134430,-0.6311344,0.3474592999999999,1.6299121,-0.72418076,0.42180246,1.8956676
10,1778516134440,-0.586284225,0.361697935,1.76354795,-0.50587278,0.5671883799999999,1.84840185
11,1778516134450,-0.54143405,0.37593657,1.8971838,0.062804585,0.883578425,1.7334447
12,1778516134460,-0.6369274,0.37941238,1.6095451,0.17959438,0.9405798,1.7108809
13,1778516134470,-0.6369274,0.37941238,1.6095451,0.17959438,0.9405798,1.7108809
14,1778516134480,-0.6369274,0.37941238,1.6095451,0.17959438,0.9405798,1.7108809
15,1778516134490,-0.6369274,0.37941238,1.6095451,0.17959438,0.9405798,1.7108809
16,1778516134500,-0.6369274,0.37941238,1.6095451,0.17959438,0.9405798,1.7108809
17,1778516134510,-0.6961686499999999,0.36947279,1.48731235,0.557414525,0.92828612,1.6940821
18,1778516134520,-0.7554099,0.3595332,1.3650796,0.93523467,0.91599244,1.6772833
19,1778516134530,-0.7554099,0.3595332,1.3650796000000005,0.9352346700000002,0.91599244,1.6772833
20,1778516134540,-0.7554099,0.3595332,1.3650796000000005,0.9352346700000002,0.91599244,1.6772833
21,1778516134550,-0.7554099,0.3595332,1.3650796,0.93523467,0.91599244,1.6772833
22,1778516134560,-0.7554099,0.3595332,1.3650796000000005,0.9352346700000002,0.91599244,1.6772833
23,1778516134570,-0.7554099,0.3595332,1.3650796,0.93523467,0.91599244,1.6772833
24,1778516134580,-0.7554099,0.3595332,1.3650796000000005,0.9352346700000002,0.91599244,1.6772833
25,1778516134590,-0.7836433,0.35105708,1.1108575,0.9633345,0.68477994,1.9130772
26,1778516134600,-0.7836433,0.3510570800000001,1.1108575,0.9633345,0.68477994,1.9130772
27,1778516134610,-0.7836433,0.35105708,1.1108575,0.9633345,0.68477994,1.9130772
28,1778516134620,-0.7836433,0.35105708,1.1108575,0.9633345,0.68477994,1.9130772
29,1778516134630,-0.7836433,0.3510570800000001,1.1108575,0.9633345,0.68477994,1.9130772
30,1778516134640,-0.7836433,0.3510570800000001,1.1108575,0.9633345,0.68477994,1.9130772
31,1778516134650,-0.7836433,0.35105708,1.1108575,0.9633345,0.68477994,1.9130772
32,1778516134660,-0.7836433,0.3510570800000001,1.1108575,0.9633345,0.68477994,1.9130772
33,1778516134670,-0.7836433,0.35105708,1.1108575,0.9633345,0.68477994,1.9130772
34,1778516134680,-0.7836433,0.35105708,1.1108575,0.9633345,0.68477994,1.9130772
35,1778516134690,-0.7836433,0.3510570800000001,1.1108575,0.9633345,0.68477994,1.9130772
36,1778516134700,-0.7836433,0.35105708,1.1108575,0.9633345,0.68477994,1.9130772
37,1778516134710,-0.7836433,0.3510570800000001,1.1108575,0.9633345,0.68477994,1.9130772
38,1778516134720,-0.7836433,0.35105708,1.1108575,0.9633345,0.68477994,1.9130772
39,1778516134730,-0.7836433,0.3510570800000001,1.1108575,0.9633345,0.68477994,1.9130772
40,1778516134740,-0.7836433,0.35105708,1.1108575,0.9633345,0.68477994,1.9130772
41,1778516134750,-0.768474725,0.34819106,1.091191725,0.9159160875,0.50186397,2.0964513
42,1778516134760,-0.722969,0.339593,1.0321944,0.90010995,0.44089198,2.157576
43,1778516134770,-0.698302925,0.3405229349999999,1.02656905,0.90010995,0.44089198,2.157576
44,1778516134780,-0.6243047,0.34331274,1.009693,0.90010995,0.44089198,2.157576
45,1778516134790,-0.6243047,0.34331274,1.009693,0.90010995,0.44089198,2.157576
46,1778516134800,-0.6243047,0.34331274,1.009693,0.90010995,0.44089198,2.157576
47,1778516134810,-0.6243047,0.34331274,1.009693,0.90010995,0.44089198,2.157576
48,1778516134820,-0.6243047,0.34331274,1.009693,0.90010995,0.44089198,2.157576
49,1778516134830,-0.6243047,0.34331274,1.009693,0.8889617,0.2677117,2.270586
50,1778516134840,-0.6243047,0.34331274,1.009693,0.8889617,0.2677117,2.270586
51,1778516134850,-0.5764055675,0.33963874,1.02970945,0.9094638575,0.20433442925,2.3028855000000004
52,1778516134860,-0.43270817,0.32861674,1.0897588,0.97097033,0.014202617,2.399784
53,1778516134870,-0.43270817,0.32861674,1.0897588,0.97097033,0.014202617,2.399784
54,1778516134880,-0.43270817,0.32861674,1.0897588,0.97097033,0.014202617,2.399784
55,1778516134890,-0.43270817,0.32861674,1.0897588,0.97097033,0.014202617,2.399784
56,1778516134900,-0.43270817,0.32861674,1.0897588,0.97097033,0.014202617,2.399784
57,1778516134910,-0.43270817,0.32861674,1.0897588,0.97097033,0.014202617,2.399784
58,1778516134920,-0.43270817,0.32861674,1.0897588,0.97097033,0.014202617,2.399784
59,1778516134930,-0.43270817,0.32861674,1.0897588,0.97097033,0.014202617,2.399784
60,1778516134940,-0.43270817,0.32861674,1.0897588,0.97097033,0.014202617,2.399784
61,1778516134950,-0.43270817,0.32861674,1.0897588,0.97097033,0.014202617,2.399784
62,1778516134960,-0.3842907133333333,0.3160753599999999,1.1154106666666668,0.97097033,0.014202617,2.399784
63,1778516134970,-0.2874558,0.2909926,1.1667144,0.97097033,0.014202617,2.399784
64,1778516134980,-0.2874558,0.2909926,1.1667144,0.97097033,0.014202617,2.399784
65,1778516134990,-0.2874558,0.2909926,1.1667144,0.97097033,0.014202617,2.399784
66,1778516135000,-0.2874558,0.2909926,1.1667144,0.97097033,0.014202617,2.399784
67,1778516135010,-0.2874558,0.2909926,1.1667144,0.97097033,0.014202617,2.399784
68,1778516135020,-0.2874558,0.2909926,1.1667144,0.97097033,0.014202617,2.399784
69,1778516135030,-0.2874558,0.2909926,1.1667144,0.97097033,0.014202617,2.399784
70,1778516135040,-0.2874558,0.2909926,1.1667144,1.031140553333333,0.0856229446666666,2.4032456666666664
71,1778516135050,-0.2874558,0.2909926,1.1667144,1.151481,0.2284636,2.410169
72,1778516135060,-0.2874558,0.2909926,1.1667144,1.151481,0.2284636,2.410169
73,1778516135070,-0.2874558,0.2909926,1.1667144,1.151481,0.2284636,2.410169
74,1778516135080,-0.2874558,0.2909926,1.1667144,1.151481,0.2284636,2.410169
75,1778516135090,-0.2874558,0.2909926,1.1667144,1.151481,0.2284636,2.410169
76,1778516135100,-0.2874558,0.2909926,1.1667144,1.151481,0.2284636,2.410169
77,1778516135110,-0.2874558,0.2909926,1.1667144,1.151481,0.2284636,2.410169
78,1778516135120,-0.2874558,0.2909926,1.1667144,1.151481,0.2284636,2.410169
79,1778516135130,-0.2874558,0.2909926,1.1667144,1.151481,0.2284636,2.410169
80,1778516135140,-0.2874558,0.2909926,1.1667144,1.151481,0.2284636,2.410169
81,1778516135150,-0.2874558,0.2909926,1.1667144,1.151481,0.2284636,2.410169
82,1778516135160,-0.2874558,0.2909926,1.1667144,1.151481,0.2284636,2.410169
83,1778516135170,-0.2874558,0.2909926,1.1667144,1.151481,0.2284636,2.410169
84,1778516135180,-0.2874558,0.2909926,1.1667144,1.151481,0.2284636,2.410169
85,1778516135190,-0.2874558,0.2909926,1.1667144,1.151481,0.2284636,2.410169
86,1778516135200,-0.2874558,0.2909926,1.1667144,1.151481,0.2284636,2.410169
87,1778516135210,-0.2874558,0.2909926,1.1667144,1.151481,0.2284636,2.410169
88,1778516135220,-0.2874558,0.2909926,1.1667144,1.151481,0.2284636,2.410169
89,1778516135230,-0.252026895,0.2729122699999999,1.14439605,1.151481,0.2284636,2.410169
90,1778516135240,-0.21659799,0.25483194,1.1220777,1.3547462999999995,0.79458296,2.4043655
91,1778516135250,-0.208670705,0.26629603,1.06981855,1.3547463,0.79458296,2.4043655
92,1778516135260,-0.20074342,0.27776012,1.0175594,1.3547462999999995,0.79458296,2.4043655
93,1778516135270,-0.20074342,0.27776012,1.0175594,1.4552337,1.1684325,2.3881776
94,1778516135280,-0.20074342,0.27776012,1.0175594,1.4552337,1.1684325,2.3881776
95,1778516135290,-0.20074342,0.27776012,1.0175594,1.4552337,1.1684325,2.3881776
96,1778516135300,-0.20074342,0.27776012,1.0175594,1.4552337,1.1684325,2.3881776
97,1778516135310,-0.2044834733333333,0.2979645466666666,0.9455226666666666,1.5125532333333334,1.277879166666667,2.364761133333334
98,1778516135320,-0.2063535,0.30806676,0.9095043,1.541213,1.3326025,2.3530529
99,1778516135330,-0.1986091466666666,0.3097741733333333,0.8653960333333334,1.5810719333333332,1.3123421666666666,2.3405302
100,1778516135340,-0.18312044,0.313189,0.7771795,1.6607898,1.2718215,2.3154848
101,1778516135350,-0.18312044,0.313189,0.7771795,1.6607898,1.2718215,2.3154848
102,1778516135360,-0.18312044,0.313189,0.7771795,1.6607898,1.2718215,2.3154848
103,1778516135370,-0.18312044,0.313189,0.7771795,1.6607898,1.2718215,2.3154848
104,1778516135380,-0.18312044,0.313189,0.7771795,1.6607898,1.2718215,2.3154848
105,1778516135390,-0.18312044,0.313189,0.7771795,1.6607898,1.2718215,2.3154848
106,1778516135400,-0.09722112,0.3114002866666667,0.6233493666666666,1.7122553333333332,1.1199705,2.1950425
107,1778516135410,-0.05427146,0.31050593,0.5464343,1.7090483,1.08902,2.151162
108,1778516135420,,,,,,
109,1778516135430,2.2753766,0.7188834,0.6161945,-0.3268129,-3.0309606,5.4415874
110,1778516135440,2.2753766,0.7188834,0.6161945,-0.3268129,-3.0309606,5.4415874
111,1778516135450,2.2753766,0.7188834,0.6161945,-0.3268129,-3.0309606,5.4415874
112,1778516135460,2.2753766,0.7188833999999998,0.6161945,-0.3268129,-3.0309606,5.4415874
113,1778516135470,2.5341113,0.88383205,0.6395800199999999,-0.402712915,-2.9245173,5.45075055
114,1778516135480,2.7928459999999995,1.0487807,0.66296554,-0.47861293,-2.8180740000000006,5.4599137
115,1778516135490,2.792846,1.0487807,0.66296554,-0.47861293,-2.818074,5.4599137
116,1778516135500,2.7928459999999995,1.0487807,0.66296554,-0.47861293,-2.8180740000000006,5.4599137
117,1778516135510,2.792846,1.0487807,0.66296554,-0.47861293,-2.818074,5.4599137
118,1778516135520,2.792846,1.0487807,0.66296554,-0.47861293,-2.818074,5.4599137
119,1778516135530,2.792846,1.0487807,0.66296554,-0.47861293,-2.818074,5.4599137
120,1778516135540,2.7928459999999995,1.0487807,0.66296554,-0.47861293,-2.8180740000000006,5.4599137
121,1778516135550,2.792846,1.0487807,0.66296554,-0.47861293,-2.818074,5.4599137
122,1778516135560,2.792846,1.0487807,0.66296554,-0.47861293,-2.818074,5.4599137
123,1778516135570,2.792846,1.0487807,0.66296554,-0.47861293,-2.818074,5.4599137
124,1778516135580,2.7928459999999995,1.0487807,0.66296554,-1.04030351,-2.0721058,5.018970566666667
125,1778516135590,2.792846,1.0487807,0.66296554,-1.3211488,-1.6991217,4.798499
126,1778516135600,2.7928459999999995,1.0487807,0.66296554,-1.3211488,-1.6991217,4.798499
127,1778516135610,2.792846,1.0487807,0.66296554,-1.3211488,-1.6991217,4.798499
128,1778516135620,2.792846,1.0487807,0.66296554,-1.3211488,-1.6991217,4.798499
129,1778516135630,3.8194304,1.7935802,0.7537635,-1.3211488,-1.6991217,4.798499
130,1778516135640,3.8194304,1.7935802,0.7537635000000001,-1.3211488,-1.6991217,4.798499
131,1778516135650,3.8194304,1.7935802,0.7537635,-1.3211488,-1.6991217,4.798499
132,1778516135660,3.8194304,1.7935802,0.7537635000000001,-1.3211488,-1.6991217,4.798499
133,1778516135670,3.662348,2.2562292,1.7018065,-2.5364652,0.43279803,1.9265163
134,1778516135680,3.662348,2.2562292,1.7018065,-2.5364652,0.43279803,1.9265163
135,1778516135690,3.662348,2.2562292,1.7018065,-2.5364652,0.43279803,1.9265163
136,1778516135700,3.662348,2.2562292,1.7018065,-2.5364652,0.43279803,1.9265163
137,1778516135710,3.662348,2.2562292,1.7018065,-2.5364652,0.43279803,1.9265163
138,1778516135720,3.662348,2.2562292,1.7018065,-2.5364652,0.43279803,1.9265163
139,1778516135730,3.662348,2.2562292,1.7018065,-2.5364652,0.43279803,1.9265163
140,1778516135740,3.662348,2.2562292,1.7018065,-2.5364652,0.43279803,1.9265163
141,1778516135750,3.662348,2.2562292,1.7018065,-2.5364652,0.43279803,1.9265163
142,1778516135760,3.662348,2.2562292,1.7018065,-2.5364652,0.43279803,1.9265163
143,1778516135770,3.662348,2.2562292,1.7018065,-2.5364652,0.43279803,1.9265163
144,1778516135780,3.662348,2.2562292,1.7018065,-2.5364652,0.43279803,1.9265163
145,1778516135790,3.662348,2.2562292,1.7018065,-2.5364652,0.43279803,1.9265163
146,1778516135800,3.662348,2.2562292,1.7018065,-2.1783964,0.6906849433333333,1.4373149666666667
147,1778516135810,3.662348,2.2562292,1.7018065,-1.999362,0.8196284,1.1927143
148,1778516135820,3.662348,2.2562292,1.7018065,-1.999362,0.8196284,1.1927143
149,1778516135830,3.480325133333333,2.2506800666666664,1.8747231,-1.9993620000000003,0.8196284,1.1927143
150,1778516135840,3.1162794,2.2395818,2.2205563,-1.999362,0.8196284,1.1927143
151,1778516135850,3.1162794,2.2395818,2.2205563,-1.9993620000000003,0.8196284,1.1927143
152,1778516135860,3.1162794,2.2395818,2.2205563,-1.999362,0.8196284,1.1927143
153,1778516135870,3.1162794,2.2395818,2.2205563,-1.999362,0.8196284,1.1927143
154,1778516135880,3.1162794,2.2395818,2.2205563,-1.9993620000000003,0.8196284,1.1927143
155,1778516135890,3.1162794,2.2395818,2.2205563,-1.999362,0.8196284,1.1927143
156,1778516135900,3.1162794,2.2395818,2.2205563,-1.9993620000000003,0.8196284,1.1927143
157,1778516135910,3.1162794,2.2395818,2.2205563,-1.999362,0.8196284,1.1927143
158,1778516135920,2.9045292,2.2190623,2.282938,-1.999362,0.8196284,1.1927143
159,1778516135930,2.692779,2.1985428,2.3453197,-1.9993620000000003,0.8196284,1.1927143
160,1778516135940,2.692779,2.1985428,2.3453197,-1.999362,0.8196284,1.1927143
161,1778516135950,2.692779,2.1985428,2.3453197,-1.7782287666666667,0.8362236,1.12607912
162,1778516135960,2.692779,2.1985428,2.3453197,-1.3359623,0.869414,0.99280876
163,1778516135970,2.692779,2.1985428,2.3453197,-1.3359623,0.869414,0.99280876
164,1778516135980,2.692779,2.1985428,2.3453197,-1.3359623,0.869414,0.99280876
165,1778516135990,2.692779,2.1985428,2.3453197,-1.3359623,0.869414,0.99280876
166,1778516136000,2.3877003,2.2051287,2.1703095,-1.3359623,0.869414,0.99280876
167,1778516136010,2.4105065,2.2471433,2.013776,0.3813326399999999,0.7498371,0.7987063
168,1778516136020,2.4105065,2.2471433,2.013776,0.38133264,0.7498371,0.7987063
169,1778516136030,2.4105065,2.2471433,2.013776,0.38133264,0.7498371,0.7987063
170,1778516136040,2.4105065,2.2471433,2.013776,0.3813326399999999,0.7498371,0.7987063
171,1778516136050,2.4105065,2.2471433,2.013776,0.38133264,0.7498371,0.7987063
172,1778516136060,2.4105065,2.2471433,2.013776,0.3813326399999999,0.7498371,0.7987063
173,1778516136070,2.4105065,2.2471433,2.013776,0.38133264,0.7498371,0.7987063
174,1778516136080,2.4105065,2.2471433,2.013776,0.38133264,0.7498371,0.7987063
175,1778516136090,2.4105065,2.2471433,2.013776,0.99097615,0.6782131000000001,0.6831000399999999
176,1778516136100,2.4105065,2.2471433,2.013776,0.99097615,0.6782131,0.68310004
177,1778516136110,2.4105065,2.2471433,2.013776,1.7484491,0.6966918,0.2603813
178,1778516136120,2.4305533749999997,2.263592475,1.939289975,1.7484491,0.6966918,0.2603813
179,1778516136130,2.490694,2.31294,1.7158319000000002,1.7484491,0.6966918,0.2603813
180,1778516136140,2.490694,2.31294,1.7158319,1.7484491,0.6966918,0.2603813
181,1778516136150,2.490694,2.31294,1.7158319000000002,1.7484491,0.6966918,0.2603813
182,1778516136160,2.490694,2.31294,1.7158319,1.7484491,0.6966918,0.2603813
183,1778516136170,2.490694,2.31294,1.7158319,1.7484491,0.6966918,0.2603813
184,1778516136180,2.490694,2.31294,1.7158319000000002,1.7484491,0.6966918,0.2603813
185,1778516136190,2.490694,2.31294,1.7158319,1.7484491,0.6966918,0.2603813
186,1778516136200,2.490694,2.31294,1.7158319000000002,1.7484491,0.6966918,0.2603813
187,1778516136210,2.490694,2.31294,1.7158319,1.7484491,0.6966918,0.2603813
188,1778516136220,2.5152078,2.3815415,1.4220343,1.7484491,0.6966918,0.2603813
189,1778516136230,2.5152078,2.3815415,1.4220343,1.7484491,0.6966918,0.2603813
190,1778516136240,2.5152078,2.3815415,1.4220343,2.1545217,0.91919947,-0.37323865
191,1778516136250,2.51988795,2.398493725,1.34541395,2.2274819,1.0244973525,-0.7033349625
192,1778516136260,2.548075533333334,2.4450412,1.05248012,2.4580199,1.3821335,-1.9435696
193,1778516136270,2.5763698,2.4364228,0.92633456,2.4813347,1.4656185,-2.443461
194,1778516136280,2.5763698,2.4364228,0.92633456,2.4813347,1.4656185,-2.443461
195,1778516136290,2.5763698,2.4364228,0.92633456,2.4813347,1.4656185,-2.443461
196,1778516136300,2.5763698,2.4364228,0.92633456,2.4813347,1.4656185,-2.443461
197,1778516136310,2.3484704,2.2697057333333333,0.7536008933333332,2.1490748666666666,1.867058766666667,-3.4744997000000004
198,1778516136320,2.2345207,2.1863472,0.66723406,2.0457878,1.9834795,-3.6807685
199,1778516136330,2.1670370333333335,2.117359366666667,0.6698561733333334,2.0457878,1.9834795000000005,-3.680768500000001
200,1778516136340,2.0320697,1.9793837,0.6751004,1.8034269,2.492483,-4.416556
201,1778516136350,2.0320697,1.9793837000000003,0.6751004000000002,1.8034269,2.492483,-4.416556
202,1778516136360,1.771079,1.6308879,0.72278607,1.8034269,2.492483,-4.416556
203,1778516136370,1.771079,1.6308879,0.72278607,1.8034269,2.492483,-4.416556
204,1778516136380,1.771079,1.6308879,0.7227860700000001,1.8034269,2.492483,-4.416556
205,1778516136390,1.771079,1.6308879,0.72278607,1.8034269,2.492483,-4.416556
206,1778516136400,1.771079,1.6308879,0.72278607,1.8034269,2.492483,-4.416556
207,1778516136410,1.771079,1.6308879,0.7227860700000001,2.025629,2.5450172,-4.653877
208,1778516136420,1.771079,1.6308879,0.72278607,2.025629,2.5450172,-4.653877
209,1778516136430,1.610871425,1.44369705,0.7406224875,2.025629,2.5450172,-4.653877
210,1778516136440,1.5574689,1.3813001,0.74656796,2.025629,2.5450172,-4.653877
211,1778516136450,1.4718999,1.197310775,0.743183645,2.811163675,2.035822975,-4.869054175
212,1778516136460,1.3806497,0.8877550866666667,0.6340410733333334,3.4030795,1.6231199,-5.067992666666666
213,1778516136470,1.3492861,0.76364213,0.58003384,3.467424,1.5754215,-5.095838
214,1778516136480,1.3492861,0.76364213,0.58003384,3.467424,1.5754215,-5.095838
215,1778516136490,1.3492860999999998,0.76364213,0.58003384,3.467424,1.5754215,-5.095838
216,1778516136500,1.2611559250000002,0.455804045,0.4546759075,3.934277774999999,1.4242323,-5.378630525
217,1778516136510,,,,,,
218,1778516136520,,,,,,
219,1778516136530,1.2317792,0.35319135,0.41288993,4.2479568,1.3329079,-5.5944567
220,1778516136540,1.1671413,0.26300314,0.33306822,4.2479568,1.3329079,-5.5944567
221,1778516136550,1.1671413,0.26300314,0.33306822,4.2479568,1.3329079,-5.5944567
222,1778516136560,1.105704785,0.1981517977,0.27141828,4.2479568,1.3329079,-5.5944567
223,1778516136570,0.92139524,0.0035977708,0.08646846,4.2479568,1.3329079,-5.594456699999999
224,1778516136580,0.92139524,0.0035977708,0.08646846,4.2479568,1.3329079,-5.5944567
225,1778516136590,0.92139524,0.0035977708,0.08646846,4.2479568,1.3329079,-5.5944567
226,1778516136600,0.92139524,0.0035977708,0.08646846,4.2479568,1.3329079,-5.594456699999999
227,1778516136610,0.92139524,0.0035977708,0.08646846,4.2479568,1.3329079,-5.5944567
228,1778516136620,0.92139524,0.0035977708,0.08646846,4.2479568,1.3329079,-5.5944567
229,1778516136630,0.92139524,0.0035977708,0.08646846,4.2671482,1.2839368999999998,-5.621843800000001
230,1778516136640,0.92139524,0.0035977708,0.08646846,4.305531,1.1859949,-5.676618
231,1778516136650,0.92139524,0.0035977708,0.08646846,4.305531,1.1859949,-5.676618
232,1778516136660,0.7546019575,-0.1805745597999999,-0.01388800525,4.2303183,1.103299,-5.597282
233,1778516136670,0.6842472599999999,-0.2728208,-0.0583570639999999,3.977649,0.9265299,-5.3426275
234,1778516136680,0.68424726,-0.2728208,-0.058357064,3.977649,0.9265299,-5.3426275
235,1778516136690,0.68424726,-0.2728208,-0.058357064,3.977649,0.9265299,-5.3426275
236,1778516136700,0.66375822,-0.32457178,-0.061487328,3.8405098,0.8667669,-5.232264499999999
237,1778516136710,0.6535137,-0.35044727,-0.06305246,3.7719402,0.8368854,-5.177083
238,1778516136720,0.6535137,-0.3504472699999999,-0.06305246,3.7719402,0.8368854,-5.177083
239,1778516136730,0.6513184750000001,-0.358283105,-0.061863365,3.592460325,0.7969882525,-5.06288925
240,1778516136740,0.6718278333333334,-0.4411029833333333,-0.0130698666666666,3.158020500000001,0.72036284,-4.799568
241,1778516136750,0.717237,-0.59107107,0.08213894,3.1580205,0.72036284,-4.799568
242,1778516136760,0.717237,-0.59107107,0.08213894,3.158020500000001,0.72036284,-4.799568
243,1778516136770,0.717237,-0.59107107,0.08213894,3.13954185,0.695546445,-4.791856
244,1778516136780,0.702952625,-0.6146242775,0.09212428,3.1210632,0.67073005,-4.784144
245,1778516136790,0.6600995,-0.6852839,0.1220802999999999,3.1354187,0.5664248,-4.7009134
246,1778516136800,0.5580660799999999,-0.7479857,0.1163635,3.1205288,0.5027421049999999,-4.571372050000001
247,1778516136810,0.42215878,-0.82730436,0.07982173,3.1155655,0.48151454,-4.5281916
248,1778516136820,0.42215878,-0.82730436,0.07982173,3.1155655,0.48151454,-4.5281916
249,1778516136830,0.42215878,-0.82730436,0.07982173,3.1155655,0.48151454,-4.5281916
250,1778516136840,0.42215878,-0.82730436,0.07982173,3.1155655,0.48151454,-4.5281916
251,1778516136850,0.42215878,-0.82730436,0.07982173,3.1155655,0.48151454,-4.5281916
252,1778516136860,0.42215878,-0.82730436,0.07982173,3.1155655,0.48151454,-4.5281916
253,1778516136870,0.42215878,-0.82730436,0.07982173,2.9959886,0.3819435,-4.196797
254,1778516136880,0.3926042033333334,-0.8448053733333333,0.0652070566666666,2.9959886,0.3819435,-4.196797
255,1778516136890,0.29837108,-0.9080408,0.021159772,2.8206704,0.38087448,-3.9277108
256,1778516136900,0.29837108,-0.9080408,0.021159772,2.8206703999999996,0.3808744799999999,-3.9277108
257,1778516136910,0.27570207,-0.92048055,0.0178821415,2.6863181000000003,0.43424883,-3.759340975
258,1778516136920,0.20769504,-0.9577998,0.00804925,2.641534,0.45204028,-3.7032177
259,1778516136930,0.20769504,-0.9577998,0.00804925,2.641534,0.45204028,-3.7032177
260,1778516136940,0.20769504,-0.9577998,0.00804925,2.498693333333333,0.4911356666666667,-3.493283833333334
261,1778516136950,0.20769504,-0.9577998,0.00804925,2.427273,0.51068336,-3.3883169
262,1778516136960,0.20769504,-0.9577998,0.00804925,2.427273,0.51068336,-3.3883169
263,1778516136970,0.105936057,-0.98185608,0.0214494235,2.427273,0.51068336,-3.3883169
264,1778516136980,0.072016396,-0.98987484,0.025916148,2.427273,0.51068336,-3.3883169
265,1778516136990,-0.07634592325,-1.0042812,0.01929990625,2.29353175,0.41664827,-3.0968195
266,1778516137000,-0.25050244,-1.0090833,-0.00073175,2.126422,0.28298333,-2.7670669999999995
267,1778516137010,-0.25050244,-1.0090833,-0.00073175,2.126422,0.28298333,-2.767067
268,1778516137020,-0.25050244,-1.0090833,-0.00073175,2.126422,0.28298333,-2.7670669999999995
269,1778516137030,-0.25050244,-1.0090833,-0.00073175,2.126422,0.28298333,-2.767067
270,1778516137040,-0.25050244,-1.0090833,-0.00073175,2.072054975,0.2927571725,-2.688685325
271,1778516137050,-0.41636577,-0.9960337,-0.0009146875999999,1.9089539,0.3220787,-2.4535403
272,1778516137060,-0.41636577,-0.9960337,-0.0009146876,1.9089539,0.3220787,-2.4535403
273,1778516137070,-0.492223835,-0.97963035,-0.0169826987999999,1.9089539,0.3220787,-2.4535403
274,1778516137080,-0.5680819,-0.9632270000000002,-0.03305071,1.9089539,0.3220787,-2.4535403
275,1778516137090,-0.5680819,-0.963227,-0.03305071,1.9089539,0.3220787,-2.4535403
276,1778516137100,-0.5680819,-0.963227,-0.03305071,1.9089539,0.3220787,-2.4535403
277,1778516137110,-0.5680819,-0.9632270000000002,-0.03305071,1.9089539,0.3220787,-2.4535403
278,1778516137120,-0.5680819,-0.963227,-0.03305071,1.67877225,0.46841911,-2.2687535249999997
279,1778516137130,-0.8442769533333333,-0.94261594,-0.1118357899999999,1.2275337,0.75670934,-1.9373591
280,1778516137140,-0.9362742,-0.9450551,-0.13915445,1.2275337,0.75670934,-1.9373591
281,1778516137150,-0.9362742,-0.9450551,-0.13915445,1.2275337,0.75670934,-1.9373591
282,1778516137160,-0.9362742,-0.9450551,-0.13915445,1.2275337,0.75670934,-1.9373591
283,1778516137170,-0.9362742,-0.9450551,-0.13915445,1.143730625,0.8006152675,-1.8824194
284,1778516137180,-0.9362742,-0.9450551,-0.13915445,0.8923214,0.93233305,-1.7176003
285,1778516137190,-1.0453659,-0.9691215666666668,-0.1568587366666667,0.256003442,1.1833986833333332,-1.1903218333333332
286,1778516137200,-1.3719094,-1.0650622,-0.15531394,-0.062155537,1.3089315,-0.9266826
287,1778516137210,-1.3719094,-1.0650622,-0.15531394,-0.062155537,1.3089315,-0.9266826
288,1778516137220,-1.3719094,-1.0650622,-0.15531394,-0.062155537,1.3089315,-0.9266826
289,1778516137230,-1.3852333,-1.0639036000000002,-0.0964690435,-0.3655264935,1.40506645,-0.56359956
290,1778516137240,-1.1540104333333334,-1.052602066666667,0.0766711376666666,-1.5719598833333333,1.9271271666666667,1.88910076
291,1778516137250,-0.8085838,-1.0718918,0.18330337,-2.2574525,2.291661,3.8628063
292,1778516137260,-0.8085838,-1.0718918,0.18330337,-2.287334,2.3119213333333333,4.1366267
293,1778516137270,-0.8085838,-1.0718918,0.18330337,-2.347097,2.352442,4.6842675
294,1778516137280,-0.058722936,-1.1502501,0.24403864,-2.3591616,2.2947154,5.789017
295,1778516137290,-0.058722936,-1.1502501,0.24403864,-2.3591616,2.2947154,5.789017
296,1778516137300,-0.058722936,-1.1502501,0.24403864,-2.3591616,2.2947154,5.789017
297,1778516137310,-0.058722936,-1.1502501,0.24403864,-2.3591616,2.2947154,5.789017
298,1778516137320,-0.058722936,-1.1502501,0.24403864,-2.3591616,2.2947154,5.789017
299,1778516137330,-0.058722936,-1.1502501,0.24403864,-2.3591616,2.2947154,5.789017
300,1778516137340,-0.058722936,-1.1502501,0.24403864,-2.3591616,2.2947154,5.789017
301,1778516137350,0.1411362885,-1.1778279,0.2370870025,-2.384207,2.175902,6.6427016
302,1778516137360,1.3145685333333337,-1.1500467333333333,0.1876735433333333,-2.494111966666667,0.7800749066666667,8.271828666666666
303,1778516137370,1.4028867,-1.1359199,0.18513274,-2.5114198,0.52412236,8.384126
304,1778516137380,1.649770966666667,-1.0606717,0.1778965466666666,-2.5114198,0.52412236,8.384126
305,1778516137390,1.85027555,-0.9932439875,0.182327705,-2.6216045500000003,0.2499202449999999,8.44391375
306,1778516137400,2.3193426,-0.7710206,0.29495624,-2.8017335,0.049938235,8.437424
307,1778516137410,2.4118074000000003,-0.7041467899999999,0.3860591066666667,-2.9092457,0.20433442,8.161923
308,1778516137420,2.6695461,-0.45051408,0.71248055,-2.8418977,0.24923302,8.063421
309,1778516137430,2.6695461,-0.45051408,0.71248055,-2.8418977,0.24923302,8.063421
310,1778516137440,2.6695461,-0.45051408,0.71248055,-2.8418977,0.24923302,8.063421
311,1778516137450,2.6695461,-0.45051408,0.71248055,-2.8418977,0.24923302,8.063421
312,1778516137460,2.6695461,-0.45051408,0.71248055,-2.8418977,0.24923302,8.063421
313,1778516137470,2.6695461,-0.45051408,0.71248055,-2.8418977,0.24923302,8.063421
314,1778516137480,2.6695461,-0.45051408,0.71248055,-2.8418977,0.24923302,8.063421
315,1778516137490,2.8001634,-0.2636942433333333,0.8845638,-2.8418977,0.24923302,8.063421
316,1778516137500,3.061398,0.10994543,1.2287303,-2.8418977,0.24923302,8.063421
317,1778516137510,3.061398,0.10994543,1.2287303,-2.01138835,0.0947222927499999,7.693695
318,1778516137520,3.259092466666667,0.3587404366666666,1.363575566666667,-1.4953981666666667,-0.016238832,7.459071833333333
319,1778516137530,3.3579397,0.48313794,1.4309982,-1.0170907,-0.13515393,7.2363095
320,1778516137540,3.443656133333333,0.64022026,1.466325433333333,-0.5608252433333333,-0.2182316066666666,6.971550433333333
321,1778516137550,3.4877036,1.1873558,1.34239535,0.35170567,-0.38438696,6.4420323
322,1778516137560,3.3603182,1.4203266999999995,1.1478108,0.35170567,-0.38438696,6.4420323
323,1778516137570,3.3603182,1.4203267,1.1478108,0.35170567,-0.38438696,6.4420323
324,1778516137580,3.3603182,1.4203267,1.1478108,0.35170567,-0.38438696,6.4420323
325,1778516137590,3.3603182,1.4203266999999995,1.1478108,0.35170567,-0.38438696,6.4420323
326,1778516137600,3.3603182,1.4203267,1.1478108,2.43048,-0.41538838,4.767956
327,1778516137610,3.339234575,1.4663812,1.1478108,2.5522331250000003,-0.3779346999999999,4.634291
328,1778516137620,3.3322067,1.4817327,1.1478108,2.5928175,-0.3654501399999999,4.589736
329,1778516137630,3.3322067,1.4817327,1.1478108,2.5928175,-0.36545014,4.589736
330,1778516137640,3.2325464,1.5987924,0.8857833433333333,2.6831237333333333,-0.1421279866666666,4.2599706
331,1778516137650,3.0332258,1.8329118,0.36172843,2.8637362,0.30451632,3.6004398
332,1778516137660,3.0332258,1.8329118,0.36172843,2.8637362,0.30451632,3.6004398
333,1778516137670,3.0332258,1.8329118,0.36172843,2.8637362,0.30451632,3.6004398
334,1778516137680,,,,,,
335,1778516137690,3.0332258,1.8329118,0.36172843,2.8637362,0.30451632,3.6004398
336,1778516137700,3.0332258,1.8329118,0.36172843,2.8637362,0.30451632,3.6004398
337,1778516137710,3.0332258,1.8329118,0.36172843,2.8637362,0.30451632,3.6004398
338,1778516137720,2.768789675,1.9653129,-0.0541342549999999,2.8637362,0.30451632,3.6004398
339,1778516137730,2.6806442999999995,2.0094466,-0.19275515,2.392657266666667,0.8992954400000001,3.0813060666666665
340,1778516137740,2.6806443,2.0094466,-0.19275515,1.4434364,1.663195125,2.4092908
341,1778516137750,2.6806443,2.0094466,-0.19275515,1.2055426,1.8186985,2.271808
342,1778516137760,2.3664796,2.0643888,-0.4733202999999999,1.2055426,1.8186985,2.271808
343,1778516137770,2.289645825,2.0592665500000003,-0.482269,1.2055426,1.8186985,2.271808
344,1778516137780,2.0591445,2.0438998,-0.5091151,0.4288274133333333,1.9209167,1.9039652
345,1778516137790,1.96017525,1.980740575,-0.423180175,-0.398551395,1.742035,1.403577475
346,1778516137800,1.9271855,1.9596875,-0.3945352,-0.5448918,1.6653714,1.2980887
347,1778516137810,1.7661192333333335,1.7733757666666667,-0.1966781373333333,-0.5736533766666666,1.4131858666666666,0.9334021333333332
348,1778516137820,1.5888732,1.6224727,-0.0440269595,-0.63117653,0.9088148,0.204029
349,1778516137830,1.4921603,1.5647255,0.009695687,-0.49877147,0.9104183,0.0278707287499999
350,1778516137840,1.4921603,1.5647255,0.009695687,-0.45463645,0.9109528,-0.030848695
351,1778516137850,1.4921603,1.5647255,0.009695687,-0.45463645,0.9109528,-0.030848695
352,1778516137860,1.3132473666666666,1.5820842333333334,0.0129479103333333,-0.3476332166666667,0.9297878,-0.1311324116666666
353,1778516137870,1.2237909,1.5907636,0.014574022,-0.2941316,0.9392053,-0.18127427
354,1778516137880,1.2237909,1.5907636,0.014574022,-0.2941316,0.9392053,-0.18127427
355,1778516137890,1.2237909,1.5907636,0.014574022,-0.2941316,0.9392053,-0.18127427
356,1778516137900,1.205741,1.6749148,-0.004268542,-0.22831088,0.9133199,-0.183412295
357,1778516137910,1.205741,1.6749148,-0.004268542,-0.16249016,0.8874345,-0.18555032
358,1778516137920,1.205741,1.6749148,-0.004268542,-0.16249016,0.8874345,-0.18555032
359,1778516137930,1.3665431,1.796613925,0.0514816639999999,-0.16249016,0.8874345,-0.18555032
360,1778516137940,1.4201438,1.8371803,0.070065066,-0.16249016,0.8874345,-0.18555032
361,1778516137950,1.492083975,1.8811158,0.08130047825,0.002596175,0.7502952300000001,-0.1890627999999999
362,1778516137960,1.7079045,2.0129223,0.115006715,0.16768251,0.61315596,-0.19257528
363,1778516137970,2.32141605,2.27955365,0.200895875,1.15392445,-0.093004235,-1.0772608
364,1778516137980,2.5038047,2.3605645,0.23202574,1.4859297,-0.3349068799999999,-1.5700763
365,1778516137990,2.57115615,2.387136175,0.21922011,1.4859297,-0.33490688,-1.5700763
366,1778516138000,2.9014700333333336,2.442174933333334,0.15076082,1.4670947,-0.34630968,-2.727971433333334
367,1778516138010,2.9655998,2.4298368,0.13573962,1.4576772,-0.35201108,-3.306919
368,1778516138020,2.935801266666666,2.2308822,0.1295604,1.3658437999999995,-0.2335032266666666,-3.6287431333333338
369,1778516138030,2.920902,2.1314049,0.12647079,1.3199271,-0.1742493,-3.7896552
370,1778516138040,2.920902,2.1314049,0.12647079,1.3199271,-0.1742492999999999,-3.7896552
371,1778516138050,2.920902,2.1314049,0.12647079,1.3199271,-0.1742493,-3.7896552
372,1778516138060,2.8176033,1.8685236,0.118055664,1.067487,0.0807105749999999,-4.225355025
373,1778516138070,2.66448465,1.6630848,0.224113673,0.8844947,0.2746221024999999,-4.6233336
374,1778516138080,2.2051287,1.0467684,0.5422877,0.9129381333333332,0.3702352366666666,-5.113400166666666
375,1778516138090,2.0140962,0.9133611975,0.564560375,1.382159,0.154854334,-5.27894475
376,1778516138100,1.7421545,0.7068501766666667,0.4967363133333333,1.6302466000000002,0.0224492979999999,-5.29666
377,1778516138110,1.6380224,0.6258292,0.45911217,1.6302466,0.022449298,-5.29666
378,1778516138120,1.6380224,0.6258292,0.45911217,2.0398319,-0.29794952,-5.1833444
379,1778516138130,1.5822061333333333,0.5694437733333334,0.42203683,2.2080233,-0.5234606133333334,-5.0841807999999995
380,1778516138140,1.2042928,0.26867421,0.19801461,2.292119,-0.63621616,-5.034599
381,1778516138150,1.0876244,0.17781526,0.12951976,2.292119,-0.63621616,-5.034599
382,1778516138160,1.037423325,0.140175867,0.112659019,2.237752,-0.680236635,-5.0007341
383,1778516138170,0.8868201,0.027257688,0.062076796,2.074651,-0.8122980600000002,-4.8991394
384,1778516138180,0.7805029,-0.0391181335,0.0432037424999999,2.074651,-0.81229806,-4.8991394
385,1778516138190,0.6741857,-0.105493955,0.024330689,1.97286565,-0.8226064150000001,-4.85569145
386,1778516138200,0.5701552066666666,-0.162529805,0.016647313,1.8710803,-0.83291477,-4.8122435
387,1778516138210,0.51813996,-0.19104773,0.012805625,1.8710803,-0.83291477,-4.8122435
388,1778516138220,0.51813996,-0.19104773,0.012805625,1.6092227,-0.7424048766666668,-4.593350099999999
389,1778516138230,0.35227665,-0.269284,-0.00073175,1.3784174500000002,-0.633352695,-4.3731461
390,1778516138240,0.35227665,-0.269284,-0.00073175,1.3451253,-0.61208695,-4.336227
391,1778516138250,0.35227665,-0.269284,-0.00073175,1.3451253,-0.61208695,-4.336227
392,1778516138260,0.35227665,-0.269284,-0.00073175,1.3451253,-0.61208695,-4.336227
393,1778516138270,0.16862773,-0.3289013066666666,0.0132934582666666,1.1350385533333334,-0.4275038433333333,-4.044538733333333
394,1778516138280,0.08238286,-0.3421541,0.027196707,0.96974856,-0.27198774,-3.8081338
395,1778516138290,0.0193913775,-0.33800753,0.0476552185,0.78954333,0.0224493,-3.53072475
396,1778516138300,-0.041221917,-0.3302022,0.09683492,0.6093381,0.31688634,-3.2533157
397,1778516138310,0.014817937,-0.31477445,0.125861,0.60307673,0.40301834,-2.91657615
398,1778516138320,0.0148179369999999,-0.31477445,0.125861,0.63621616,0.38789943,-2.747061
399,1778516138330,0.07477570675,-0.301694435,0.145846925,0.63621616,0.38789943,-2.747061
400,1778516138340,0.1175271833333333,-0.30847329,0.1623062133333333,0.63621616,0.38789943,-2.747061
401,1778516138350,0.12890996,-0.31404272,0.16720487,0.64999881,0.370413415,-2.740227
402,1778516138360,0.08439517,-0.4012429,0.24373372,0.7823657,0.17531833,-2.5601363
403,1778516138370,0.08439517,-0.4012429,0.2437337199999999,0.7823657,0.17531833,-2.5601363
404,1778516138380,0.04622221,-0.4490506,0.2876997,0.89476484,0.35063666,-2.1971295
405,1778516138390,0.04622221,-0.4490506,0.2876997,0.89476484,0.35063666,-2.1971295
406,1778516138400,0.04622221,-0.4490506,0.2876997,0.89476484,0.35063666,-2.1971295
407,1778516138410,0.04622221,-0.4490506,0.2876997,0.89476484,0.35063666,-2.1971295
408,1778516138420,-0.01090002725,-0.480515845,0.3129908099999999,0.89476484,0.35063666,-2.1971295
409,1778516138430,-0.029940773,-0.49100426,0.32142118,0.89476484,0.35063666,-2.1971295
410,1778516138440,-0.0954019165,-0.49777295,0.361545475,0.96394537,0.559476195,-2.0419698
411,1778516138450,-0.16086306,-0.50454164,0.40166977,1.0331259,0.76831573,-1.8868101
412,1778516138460,-0.16086306,-0.50454164,0.40166977,1.0331259,0.76831573,-1.8868101
413,1778516138470,-0.16086306,-0.50454164,0.40166977,1.0331259,0.76831573,-1.8868101
414,1778516138480,-0.16086306,-0.50454164,0.40166977,1.0331259,0.76831573,-1.8868101
415,1778516138490,-0.175772465,-0.5071942300000001,0.4099934325,1.0734048,0.8591437725,-1.8371391
416,1778516138500,-0.22050068,-0.515152,0.43496442,1.1942415,1.1316279,-1.6881261
417,1778516138510,-0.310262,-0.5896686,0.44856274,1.1942415,1.1316279,-1.6881261
418,1778516138520,-0.3808149,-0.6847961,0.3734974,1.7851009,1.8773416,-1.1410962
419,1778516138530,-0.3808149,-0.6847961000000001,0.3734974,1.7851009,1.8773416,-1.1410962
420,1778516138540,-0.52292686,-0.796296475,0.1270196035,1.91032835,2.06098295,-0.492815525
421,1778516138550,-0.6193044333333333,-0.8411263,0.0030896113333333,1.87444,2.0665572,-0.14278975
422,1778516138560,-0.6822349,-0.8595013000000001,-0.061467,1.87444,2.0665572,-0.14278975
423,1778516138570,-0.8338443249999999,-0.8574890500000001,-0.1803763725,1.288773,1.8495473,1.0531317
424,1778516138580,-0.911425075,-0.84614693,-0.243215405,1.288773,1.8495473,1.0531317
425,1778516138590,-0.93846935,-0.83547556,-0.26641798,1.288773,1.8495473,1.0531317
426,1778516138600,-0.93846935,-0.83547556,-0.26641798,1.212949335,1.838780775,1.19485245
427,1778516138610,-0.92810297,-0.8437687,-0.31654286,0.4083634,1.7646369999999998,2.6441302
428,1778516138620,-0.8866066349999999,-0.860964825,-0.33053758,0.0693331999999999,1.7396679000000002,3.22109245
429,1778516138630,-0.8451103,-0.87816095,-0.3445323,-0.269697,1.7146988,3.7980547
430,1778516138640,-0.8451103,-0.8781609500000002,-0.3445323,-0.269697,1.7146988,3.7980547
431,1778516138650,-0.8451103,-0.87816095,-0.3445323,-0.269697,1.7146988,3.7980547
432,1778516138660,-0.8451103,-0.8781609500000002,-0.3445323,-0.269697,1.7146988,3.7980547
433,1778516138670,0.37337545,-1.0226816,-0.09079798,-1.9914207,1.4552337,6.81374385
434,1778516138680,1.6434495624999998,-0.7045685625,0.1467311225,-2.618206575,1.28480235,7.65303455
435,1778516138690,2.1773832,-0.5512517,0.23165986,-3.040378066666667,1.2163854666666667,7.411831733333333
436,1778516138700,2.17793195,-0.28042794375,0.1435602025,-3.26186765,1.21527825,7.1199781
437,1778516138710,1.9383448,-0.057381395,0.09573729,-3.6613736,1.1798862,6.9043045
438,1778516138720,,,,,,
439,1778516138730,,,,,,
440,1778516138740,2.1031713,1.0928077,0.7329086,-1.3453543,-0.6721044700000001,-4.6933541000000005
441,1778516138750,1.9103554,0.8510253,0.8147426000000001,-1.3222178,-0.6782131000000001,-4.7697887
442,1778516138760,1.9103554,0.8510253,0.8147426000000001,-1.2261083333333334,-0.6869688733333333,-4.852255566666667
443,1778516138770,1.9103554,0.8510253,0.8147426,-1.1780536,-0.69134676,-4.893489
444,1778516138780,1.9103554,0.8510253,0.8147426,-1.1780536,-0.69134676,-4.893489
445,1778516138790,1.9103554,0.8510253,0.8147426000000001,-1.1780536,-0.69134676,-4.893489
446,1778516138800,1.6752806,0.611072225,0.8667884025,-0.87452997,-0.69333205,-4.9326605
447,1778516138810,1.5439315999999998,0.5027732,0.8751120599999999,-0.7736608400000001,-0.6957755,-4.927392
448,1778516138820,1.4698114,0.4506360175,0.8646998699999999,-0.6887887500000001,-0.68978139,-4.90826425
449,1778516138830,1.2474508,0.29422447,0.8334633,-0.43417248,-0.67179906,-4.850881
450,1778516138840,1.1200856,0.2097886566666666,0.7934609666666667,-0.2641483133333333,-0.6052147533333333,-4.772486466666667
451,1778516138850,1.056403,0.16757075,0.7734598,-0.17913623,-0.5719226,-4.7332892
452,1778516138860,0.99900639,0.1316540209999999,0.753900725,-0.17913623,-0.5719226,-4.7332892
453,1778516138870,0.82681656,0.023903834,0.6952235,-0.0556396418,-0.4573853599999999,-4.656727733333333
454,1778516138880,0.6021083,-0.11043327,0.61314553,0.2501493,-0.10338894,-4.45107
455,1778516138890,0.47795471375,-0.1540028825,0.5547274875,0.441159225,0.0269544325,-4.294497499999999
456,1778516138900,0.1054939549999999,-0.28471172,0.37947336,1.014189,0.41798455,-3.82478
457,1778516138910,0.105493955,-0.28471172,0.37947336,1.014189,0.41798455,-3.82478
458,1778516138920,0.1054939549999999,-0.28471172,0.37947336,1.014189,0.41798455,-3.82478
459,1778516138930,-0.08591965,-0.35392308,0.22708642,1.4978416,0.3680463,-3.2876768
460,1778516138940,-0.102216335,-0.36807025,0.20946344,1.4978416,0.3680463,-3.2876768
461,1778516138950,-0.17244909,-0.4691330533333333,0.1196411266666666,1.6702074,0.28690304,-3.0641001333333335
462,1778516138960,-0.18312044,-0.4984437,0.10116444,1.8387426,0.18555031815,-2.850793625
463,1778516138970,-0.18312044,-0.4984437,0.1011644399999999,2.0857995,0.0032070426,-2.5462391
464,1778516138980,-0.18312044,-0.4984437,0.10116444,2.0857995,0.0032070426,-2.5462391
465,1778516138990,-0.18312044,-0.4984437,0.1011644399999999,2.0857995,0.0032070426,-2.5462391
466,1778516139000,-0.18312044,-0.4984437,0.10116444,2.0857995,0.0032070426,-2.5462391
467,1778516139010,-0.18312044,-0.4984437,0.1011644399999999,2.0857995,0.0032070426,-2.5462391
468,1778516139020,-0.18312044,-0.4984437,0.10116444,2.0857995,0.0032070426,-2.5462391
469,1778516139030,-0.18312044,-0.4984437,0.10116444,2.0857995,0.0032070426,-2.5462391
470,1778516139040,-0.1553545933333333,-0.5797899,0.0598612159999999,2.206445333333334,-0.1156062482666666,-2.4316509333333336
471,1778516139050,-0.14147167,-0.620463,0.039209604,2.447737,-0.35323283,-2.2024746
472,1778516139060,-0.14147167,-0.620463,0.039209604,2.447737,-0.35323283,-2.2024746
473,1778516139070,-0.14147167,-0.620463,0.039209604,2.447737,-0.35323283,-2.2024746
474,1778516139080,-0.14147167,-0.620463,0.039209604,2.447737,-0.35323283,-2.2024746
475,1778516139090,-0.14147167,-0.620463,0.039209604,2.5083144666666666,-0.4493931866666666,-2.151416466666667
476,1778516139100,-0.08366342,-0.70674855,-0.025062438,2.6294694,-0.6417139,-2.0493002
477,1778516139110,-0.08366342,-0.70674855,-0.025062438,2.6294694,-0.6417139,-2.0493002
478,1778516139120,-0.08366342,-0.70674855,-0.025062438,2.6758188,-0.799431675,-2.04151165
479,1778516139130,-0.08366342,-0.70674855,-0.025062438,2.814867,-1.272585,-2.018146
480,1778516139140,-0.0009756664999999,-0.8295910875000001,-0.1649181645,2.814867,-1.272585,-2.018146
481,1778516139150,0.026586918,-0.8705386,-0.21153674,2.814867,-1.272585,-2.018146
482,1778516139160,0.026586918,-0.8705386,-0.21153674,2.814867,-1.272585,-2.018146
483,1778516139170,0.026586918,-0.8705386,-0.21153674,2.814867,-1.272585,-2.018146
484,1778516139180,0.026586918,-0.8705386,-0.21153674,2.751833375,-1.356884425,-2.089655425
485,1778516139190,0.0033335286666666,-0.9079391333333334,-0.27485344,2.5627325,-1.6097827,-2.3041837
486,1778516139200,-0.04317325,-0.9827402,-0.40148684,2.5627325,-1.6097827,-2.3041837
487,1778516139210,-0.3430687766666667,-1.0541265333333334,-0.53726712,1.6521360333333333,-1.4363987666666669,-2.2379047666666665
488,1778516139220,-0.49301654,-1.0898197,-0.60515726,1.1968378,-1.3497068,-2.2047653
489,1778516139230,-0.5281608933333334,-1.0991698333333335,-0.6023928733333334,1.1968378,-1.3497068,-2.2047653
490,1778516139240,-0.5984496,-1.1178701,-0.5968641,1.1968378,-1.3497068,-2.2047653
491,1778516139250,-0.7622396,-1.1492743,-0.4364889,-0.1300124933333333,-0.8050186,-1.6059647666666663
492,1778516139260,-0.7622396,-1.1492743,-0.4364889,-0.48991394,-0.6356053,-1.4162911
493,1778516139270,-0.7622396,-1.1492743,-0.4364889,-0.48991394,-0.6356053,-1.4162911
494,1778516139280,-0.81586064,-1.1422007666666667,-0.32566942,-1.0922271,-0.18081611,-0.83291477
495,1778516139290,-0.8462689299999999,-1.1095464,-0.197176145,-1.25189195,0.032528575,-0.51717379
496,1778516139300,-0.8498667000000001,-1.0804288,-0.12409261,-1.4115568000000005,0.24587326,-0.20143281
497,1778516139310,-0.79108274,-1.0064002,-0.038904708,-1.4301882,0.32944726,-0.0579940125
498,1778516139320,-0.7910827399999999,-1.0064002,-0.038904708,-1.4860824,0.58016926,0.37232238
499,1778516139330,-0.79108274,-1.0064002,-0.038904708,-1.4860824,0.58016926,0.37232238
500,1778516139340,-0.770365055,-0.988258875,-0.0303828695,-1.4860824,0.58016926,0.37232238
501,1778516139350,-0.6954064,-0.9052357,0.0042482153333333,-1.4744250666666667,0.6221662566666667,0.46267952
502,1778516139360,-0.6697951999999999,-0.8480373,0.022379354,-1.4511104,0.70616025,0.6433938
503,1778516139370,-0.6697952,-0.8480373,0.022379354,-1.255557175,0.871170225,1.15751325
504,1778516139380,-0.6593880666666666,-0.8298655,0.0289651046666666,-1.1911873,0.8764389,1.2892311
505,1778516139390,-0.6541845,-0.8207796,0.03225798,-1.1911873,0.8764389,1.2892311
506,1778516139400,-0.5698503,-0.7112000000000002,0.028477272,-1.1911873,0.8764389,1.2892311
507,1778516139410,-0.5698503,-0.7112,0.028477272,-0.70157874,0.61193424,2.0734293
508,1778516139420,-0.5698503,-0.7112,0.028477272,-0.48747048,0.3297145,2.5109615
509,1778516139430,-0.5189937,-0.6583921,-0.023294043,-0.3817907999999999,0.03756821,3.022103
510,1778516139440,-0.2122532355,-0.5543006500000001,-0.07328171325,-0.3817908,0.03756821,3.022103
511,1778516139450,-0.110006414,-0.5196035,-0.08994427,-0.4990769,-0.2237294,4.0517163
512,1778516139460,-0.110006414,-0.5196035,-0.08994427,-0.4990769,-0.2237294,4.0517163
513,1778516139470,-0.049027253,-0.503444,-0.08817588,-0.522137075,-0.22250767,4.1292963
514,1778516139480,0.38374192,-0.3609357,-0.07488242,-0.54519725,-0.22128594,4.2068763
515,1778516139490,0.38374192,-0.3609357,-0.07488242,-0.54519725,-0.22128594,4.2068763
516,1778516139500,0.38374192,-0.3609357,-0.07488242,-0.54519725,-0.22128594,4.2068763
517,1778516139510,0.38374192,-0.3609357,-0.07488242,-0.54519725,-0.22128594,4.2068763
518,1778516139520,0.38374192,-0.3609357,-0.07488242,-0.54519725,-0.22128594,4.2068763
519,1778516139530,0.38374192,-0.3609357,-0.07488242,-1.0192287,0.23732115,5.2517614
520,1778516139540,0.38374192,-0.3609357,-0.07488242,-1.0192287,0.23732115,5.2517614
521,1778516139550,0.4988908999999999,-0.3091237333333334,-0.082545468,-1.0192287,0.23732115,5.2517614
522,1778516139560,0.72918886,-0.2054998,-0.097871564,-1.0192287,0.23732115,5.2517614
523,1778516139570,0.72918886,-0.2054998,-0.097871564,-1.0192287,0.23732115,5.2517614
524,1778516139580,0.7291888600000002,-0.2054998,-0.097871564,-1.5166256,0.7924449399999999,5.995948000000001
525,1778516139590,0.82419442,-0.1827088325,-0.09342008425,-1.5166256,0.79244494,5.995948
526,1778516139600,1.1092111,-0.11433593,-0.080065645,-1.5166256,0.7924449399999999,5.995948000000001
527,1778516139610,1.1092111,-0.11433593,-0.080065645,-1.5166256,0.79244494,5.995948
528,1778516139620,1.1092111,-0.11433593,-0.080065645,-1.7435621,0.94042707,6.26167425
529,1778516139630,1.1092111,-0.11433593,-0.080065645,-1.9704986,1.0884092,6.5274005
530,1778516139640,1.311448525,-0.031617695,0.02137319875,-2.0285308,1.0367910675,6.639036125
531,1778516139650,1.9181608,0.21653701,0.32568973,-2.2026274,0.88193667,6.973943000000001
532,1778516139660,2.3977618,0.5202743,0.7174199,-1.6927075,0.39690968,6.926601
533,1778516139670,2.3977618,0.5202743,0.7174199,-1.081918665,0.0294742399999999,6.7635763
534,1778516139680,2.7616856,0.8849297000000002,0.8990158999999999,0.1868738566666667,-0.4874195666666667,6.3542712
535,1778516139690,2.7564108999999997,0.922370925,0.795640965,0.5158757,-0.56214875,6.231131
536,1778516139700,2.5730565999999997,1.0496954333333333,-0.0227452113333333,0.5158757,-0.56214875,6.231131
537,1778516139710,2.3784314,1.03960335,-0.449721345,0.05810855,-0.0930805949999999,6.270913500000001
538,1778516139720,2.6579142,1.058232525,0.0761477399999999,-1.94300965,0.12690726,6.629568000000001
539,1778516139730,3.126971033333333,1.3072104666666666,1.09782829,-0.1877901733333332,-0.5394449233333334,5.291976666666667
540,1778516139740,3.1251214,1.4039234,1.2417188,1.27281412,-0.55161132,4.2449026
541,1778516139750,2.8768752,1.5319797,0.9377375999999998,1.772731,-0.44822237,3.8270707
542,1778516139760,2.8768752,1.5319797,0.9377376,1.772731,-0.44822237,3.8270707
543,1778516139770,2.8768752,1.5319797,0.9377376,1.772731,-0.44822237,3.8270707
544,1778516139780,2.8768752,1.5319797,0.9377375999999998,1.772731,-0.44822237,3.8270707
545,1778516139790,2.5687170000000004,1.67476235,0.4775278415,1.9478966,-0.15577064,3.2925637
546,1778516139800,2.2605588,1.817545,0.017318083,1.9478966,-0.15577064,3.2925637
547,1778516139810,2.2605588,1.817545,0.017318083,1.9478966,-0.15577064,3.2925637
548,1778516139820,2.22537385,1.841647025,-0.07294633025,1.9478966,-0.15577064,3.2925637
549,1778516139830,2.119819,1.9139531,-0.34373957,1.074512,0.22953261,2.8890872
550,1778516139840,2.12954515,1.92840515,-0.3324584225,1.074512,0.22953261,2.8890872
551,1778516139850,2.1587236,1.9717613,-0.29861498,1.074512,0.22953261,2.8890872
552,1778516139860,,,,,,
553,1778516139870,,,,,,
554,1778516139880,1.8232162,0.9966435,-0.17354672,-0.06704246,-1.0772609,-3.7565157
555,1778516139890,1.9268503,0.9670686,-0.12988563,-0.06704246,-1.0772609,-3.7565157
556,1778516139900,2.0304844,0.9374937,-0.08622454,-0.06704246,-1.0772609,-3.7565157
557,1778516139910,2.0904675000000004,0.9385913533333332,-0.00353679,-0.5200499399999999,-0.8564839866666666,-4.0746239
558,1778516139920,2.2179799,0.94711323,0.2199366175,-0.856662155,-0.55733815,-4.59492835
559,1778516139930,2.2406185,0.96609294,0.39423034,-0.84589565,-0.4738787,-4.8127017
560,1778516139940,2.2406185,0.96609294,0.39423034,-0.7978281875,-0.45925612,-4.901506275
561,1778516139950,2.1190464,0.9785530266666664,0.4233174066666667,-0.6388632333333334,-0.42231152,-5.182275333333333
562,1778516139960,1.751138775,0.954019075,0.4812323699999999,-0.93271483,-0.610025315,-4.6515097
563,1778516139970,1.7630500666666666,0.6680267999999999,0.7596175066666667,-0.6998988333333332,-0.7948374766666667,-4.394819266666667
564,1778516139980,1.8220576,0.5705211,0.87108743,-0.5487097,-0.87796605,-4.3348527
565,1778516139990,1.7220213,0.41075567,0.8064799899999999,-0.1094212299999999,-0.958905675,-4.44282285
566,1778516140000,1.5738926666666666,0.2068413266666666,0.7207737833333333,0.4711807133333334,-1.0227411,-4.6217554000000005
567,1778516140010,1.5498465,0.18476687,0.7102244,0.54183745,-1.014189,-4.6572366
568,1778516140020,1.5498465,0.18476687,0.7102244,0.54183745,-1.014189,-4.6572366
569,1778516140030,1.5498465,0.18476687,0.7102244,0.54183745,-1.014189,-4.6572366
570,1778516140040,1.5498465,0.18476687,0.7102244,0.54183745,-1.014189,-4.6572366
571,1778516140050,1.5498465,0.18476687,0.7102244,0.54183745,-1.014189,-4.6572366
572,1778516140060,1.38346485,0.051710328,0.6308294999999999,0.8056166875,-0.977422575,-4.815985125
573,1778516140070,1.0323468,-0.180559322,0.4805463,0.8935431,-0.9651671,-4.8689013
574,1778516140080,0.77675262,-0.3055462866666666,0.38772584,1.0338385666666667,-0.8553131666666666,-4.942917766666667
575,1778516140090,0.3153995025,-0.420802,0.261356705,1.16969245,-0.64285931,-4.87932425
576,1778516140100,0.20885365,-0.442038,0.2338551,1.2278391,-0.4619668399999999,-4.685031
577,1778516140110,-0.10037171,-0.4764912,0.1653755,1.2278391,-0.46196684,-4.685031
578,1778516140120,-0.10037171,-0.4764912,0.1653755,1.295187075,-0.390495605,-4.3079745
579,1778516140130,-0.10037171,-0.4764912,0.1653755,1.3176364,-0.36667186,-4.182289
580,1778516140140,-0.28080907,-0.47575948,0.11933623,1.3495541,-0.38522689,-4.0323215
581,1778516140150,-0.28080907,-0.47575948,0.11933623,1.3814718,-0.4037819199999999,-3.882354
582,1778516140160,-0.362704095,-0.469234705,0.089090564,1.3814718,-0.40378192,-3.882354
583,1778516140170,-0.44459912,-0.46270993,0.058844898,1.483371725,-0.525000495,-3.49575275
584,1778516140180,-0.5361491733333333,-0.4521808433333333,-0.0375428406666666,1.6773851000000002,-0.8500698999999999,-2.4105760999999997
585,1778516140190,-0.532775,-0.40880433,-0.24074577,1.440572925,-0.79370484,-1.29304895
586,1778516140200,-0.532775,-0.40880433,-0.24074577,1.382388,-0.7531968399999999,-1.1551461
587,1778516140210,-0.514709915,-0.4021575975,-0.2438252175,1.382388,-0.75319684,-1.1551461
588,1778516140220,-0.46051466,-0.3822174,-0.25306356,1.125061,-0.5384777,-0.7958047
589,1778516140230,-0.40929218,-0.373299195,-0.2594206425,1.04015075,-0.44585526,-0.7061984
590,1778516140240,-0.39221802,-0.37032646,-0.26153967,0.7854199999999999,-0.16798794,-0.4373795
591,1778516140250,-0.33416584,-0.36599696,-0.2490999,0.453262,0.24724771,-0.13576481
592,1778516140260,-0.3209943466666666,-0.3614438499999999,-0.2462745333333333,0.38011089,0.35776342,-0.0657189266666666
593,1778516140270,-0.2709914375,-0.3437700575,-0.2389011375,0.17787632175,0.6850853800000001,0.13141238
594,1778516140280,-0.10781116,-0.30623737,-0.24220926,-0.0720821,1.2272283,0.3866777
595,1778516140290,-0.06823569,-0.30739596,-0.26788148,-0.0720821,1.2272283,0.3866777
596,1778516140300,-0.068098485,-0.30108462,-0.276250875,-0.0708985484999999,1.376661175,0.4153120075
597,1778516140310,-0.0715692113333333,-0.2737761333333333,-0.3107701733333333,-0.028405234,1.5712981,0.45830166
598,1778516140320,-0.079333894,-0.2570272,-0.3295924,-0.028405234,1.5712981,0.45830166
599,1778516140330,-0.079333894,-0.2570272,-0.3295924,-0.028405234,1.5712981,0.45830166
600,1778516140340,-0.079333894,-0.2570272,-0.3295924,-0.028405234,1.5712981,0.45830166
601,1778516140350,-0.0760003713333333,-0.2211714466666667,-0.36939148,0.0027488939999999,1.4763085666666669,0.4622213733333333
602,1778516140360,-0.07433361,-0.20324357,-0.38929102,0.06505715,1.2863295,0.4700608
603,1778516140370,-0.06404337,-0.18586451,-0.407859145,0.0816268699999999,1.15071745,0.4625777
604,1778516140380,-0.06061329,-0.18007149,-0.41404852,0.0981965899999999,1.0151054,0.4550946
605,1778516140390,-0.0829316713333333,-0.1491753733333333,-0.4104711,0.0558941701,0.4733187846666666,0.3265074766666667
606,1778516140400,-0.12903193,-0.1167751,-0.39855984,0.0070249503,0.115453534,0.24495697
607,1778516140410,-0.17879093,-0.11744587,-0.3851444,0.0070249503,0.1154535339999999,0.2449569699999999
608,1778516140420,-0.245776535,-0.14266076,-0.332885275,-0.14149166485,-0.071853033,0.286724885
609,1778516140430,-0.32434818,-0.1687496833333333,-0.2569865533333333,-0.29000828,-0.2591596,0.3284928
610,1778516140440,-0.35965512,-0.16324123,-0.1896452125,-0.3512475225,-0.4271475325,0.57856575
611,1778516140450,-0.4125647333333333,-0.1268163433333333,-0.0958999023333333,-0.43860126,-0.7556403,1.1543826
612,1778516140460,-0.411045325,-0.00960421925,0.05962237825,-0.43860126,-0.7556403,1.1543826
613,1778516140470,-0.3995355,0.019696271,0.08909056,-0.43860126,-0.7556403,1.1543826
614,1778516140480,-0.3995355,0.019696271,0.08909056,-0.45058948,-0.8403214999999999,1.60420855
615,1778516140490,-0.3995355,0.019696271,0.08909056,-0.4625777,-0.9250027,2.0540345
616,1778516140500,-0.21915914,0.13970327,-0.08274873,-0.4625777,-0.9250027,2.0540345
617,1778516140510,-0.21915914,0.13970327,-0.08274873,-0.4625777,-0.9250027,2.0540345
618,1778516140520,-0.21915914,0.13970327,-0.08274873,-0.5850561866666667,-0.7633270266666666,2.3636413333333333
619,1778516140530,-0.21915914,0.13970327,-0.08274873,-0.83001316,-0.43997568,2.982855
620,1778516140540,0.147630565,0.2832634775,-0.4788999075,-2.50328749,1.01040933,4.0824125250000005
621,1778516140550,0.2698938,0.33111688,-0.6109503,-3.0610456,1.4938709999999995,4.4489317
622,1778516140560,0.55369085,0.43624496,-0.53649473,-3.0610456,1.493871,4.4489317
623,1778516140570,0.55369085,0.43624496,-0.53649473,-3.0610456,1.493871,4.4489317
624,1778516140580,0.55369085,0.43624496,-0.53649473,-5.050939,2.4637723,5.1966305
625,1778516140590,0.8606904249999999,0.44469058,-0.242422688,-6.614754,2.3310618,5.784741
626,1778516140600,1.16769,0.4531362,0.051649354,-6.6147540000000005,2.3310618,5.784741
627,1778516140610,1.412643375,0.4114721775,0.3147134935,-6.614754,2.3310618,5.784741
628,1778516140620,1.4942945,0.39758417,0.40240154,-6.70974365,2.05777595,5.8055105000000005
629,1778516140630,1.4942945,0.39758417,0.40240154,-6.8047333,1.7844901,5.82628
630,1778516140640,1.580107425,0.375372515,0.5454586699999999,-6.8047333,1.7844901,5.82628
631,1778516140650,1.8346395666666664,0.3771561666666667,1.0974827066666666,-4.949433866666666,-0.2264273666666666,5.504150333333333
632,1778516140660,1.8955984,0.5461904,1.1414691,-2.3936756,-1.8997909,5.415473
633,1778516140670,1.8935657333333331,0.5621669733333333,1.0308122333333334,-1.0126109666666665,-2.0476712,5.551594266666666
634,1778516140680,1.8427905,0.5579898775000001,0.977861975,-0.3481931975,-1.7938058,5.5881953
635,1778516140690,1.8741948,0.54340569,0.9788173166666666,0.7350235999999999,-1.2786936666666666,5.530722933333333
636,1778516140700,2.1216483,0.56234986,0.8941375,1.1653782,-1.0929906,5.4087534
637,1778516140710,2.2193978,0.7598614,0.56643546,1.8329011,-0.7808385000000001,4.9512157
638,1778516140720,2.22025145,0.818736785,0.49649236,1.868216775,-0.7499898,4.891274525
639,1778516140730,2.2228124,0.99536294,0.28666306,1.9741638,-0.6574437,4.711451
640,1778516140740,2.2228124,0.99536294,0.28666306,1.9741638,-0.6574437,4.711451
641,1778516140750,2.2228124,0.99536294,0.28666306,1.9741638,-0.6574437,4.711451
642,1778516140760,2.2228124,0.99536294,0.28666306,1.3696108,-0.5130758866666666,4.434118066666667
643,1778516140770,2.37687645,1.7148408599999998,-0.1307241049999999,-0.23067798,-0.36533558,3.76762595
644,1778516140780,2.4775836,2.0065804,-0.17116854,-0.981355,-0.3287982,3.4055738000000004
645,1778516140790,2.45476215,2.0428936,0.35171259,-0.981355,-0.3287982,3.4055738
646,1778516140800,2.447155,2.054998,0.5260063,-1.1364129666666667,-0.2804380433333333,3.0001119333333333
647,1778516140810,2.447155,2.054998,0.5260063,-1.4465289,-0.18371773,2.1891882
648,1778516140820,2.447155,2.054998,0.5260063,-1.2331842,-0.03940081,1.5771013
649,1778516140830,2.3631258,2.0088975,0.8011443000000001,-1.2331842,-0.03940081,1.5771013
650,1778516140840,2.3631258,2.0088975,0.8011443,-0.4410446999999999,0.231250685,0.7822129
651,1778516140850,2.3631258,2.0088975,0.8011443,-0.1769982,0.32146785,0.5172501
652,1778516140860,2.1098182,1.8929764,1.0583545,0.9737192,0.50640726,-0.21120666
653,1778516140870,1.9910308,1.8027882,0.9019581575,1.43858765,0.467388255,-0.55451293
654,1778516140880,1.8212038,1.6523525999999995,0.56869173,1.9034561000000003,0.42836925,-0.8978192000000002
655,1778516140890,1.8212038,1.6523526,0.56869173,2.0090594,0.3825925375,-1.033774875
656,1778516140900,1.7900739,1.60911835,0.428256705,2.3258693,0.2452624,-1.4416419
657,1778516140910,1.7339832000000002,1.5035227000000002,0.123299882,2.319455233333333,-0.1669698333333333,-2.2508348333333337
658,1778516140920,1.71202055,1.3480664,-0.2768606575,2.3162482,-0.37308595,-2.6554313
659,1778516140930,1.7357111000000005,1.2886118,-0.38246134,2.3162482,-0.3730859499999999,-2.6554313
660,1778516140940,1.7357111,1.2886118,-0.38246134,1.7886134,-0.5694791,-3.031266
661,1778516140950,1.7357111,1.2886118,-0.38246134,1.52288705,-0.58436895,-3.1328224
662,1778516140960,1.7598181333333331,1.2136683333333331,-0.3014403366666667,1.0744610866666668,-0.5955427,-3.2941927
663,1778516140970,1.7894946,1.1754954,-0.18098617,0.70906186,-0.5881105,-3.4138205
664,1778516140980,1.7894946,1.1754954,-0.18098617,0.70906186,-0.5881105,-3.4138205
665,1778516140990,,,,,,
666,1778516141000,,,,,,
667,1778516141010,1.7894946,1.1754954,-0.18098617,0.4970916,-0.56688297,-3.4926221
668,1778516141020,1.9910918,1.2758061,0.19934091,0.081397794,-0.59681535,-3.8461604
669,1778516141030,1.9910918,1.2758061,0.19934091,0.081397794,-0.59681535,-3.8461604
670,1778516141040,1.9910918,1.2758061,0.19934091,-0.0205148953333333,-0.60730187,-3.9584578
671,1778516141050,2.0005893,1.264479225,0.21188737,-0.07147124,-0.61254513,-4.0146065
672,1778516141060,2.0163981333333334,1.1561446666666668,0.25867361,-0.1987348266666666,-0.57334791,-4.103487366666666
673,1778516141070,2.0100563,1.1189677,0.26324704,-0.5606597725,-0.2970713925,-4.3386322
674,1778516141080,1.9786520333333335,1.0367678,0.29097224,-0.7431176,-0.1156062499999999,-4.4710755
675,1778516141090,1.784540025,0.6185879325,0.466338165,-0.6207154625,-0.16100117,-4.6113454
676,1778516141100,1.6116184,0.34154433,0.5633865,-0.166346255,-0.3833561225,-4.907920375
677,1778516141110,1.4083952,0.1241739153333333,0.5558251,0.29901853,-0.6363689,-5.0781226
678,1778516141120,1.26242125,-0.024315444,0.5444525,0.4030183475,-0.694630175,-5.095379575000001
679,1778516141130,1.0256492833333333,-0.2198502233333333,0.5002934266666667,0.9711739333333332,-1.0128655333333334,-5.114062166666667
680,1778516141140,0.49693448,-0.4990230375,0.3831168575,1.47943925,-1.2402855000000002,-4.831791525
681,1778516141150,-0.015000875,-0.6047304,0.20915854,1.817935,-1.3420709000000002,-4.4860415
682,1778516141160,-0.0983289074999999,-0.60662075,0.16403396,2.0935879,-1.3376422,-3.6769507
683,1778516141170,-0.18165694,-0.6085111,0.11890938,2.0935879,-1.3376422,-3.6769507
684,1778516141180,-0.44039157,-0.62009716,-0.036953375,2.0916535333333335,-1.2878566666666666,-3.4187583333333333
685,1778516141190,-0.4764912,-0.62284124,-0.059515666,2.0877848,-1.1882856,-2.9023736
686,1778516141200,-0.6423545333333333,-0.6196703133333333,-0.214646662,1.8683822666666667,-0.9487246333333332,-2.1513147333333333
687,1778516141210,-0.7252862,-0.61808485,-0.29221216,1.758681,-0.82894415,-1.7757853
688,1778516141220,-0.707541275,-0.6031754199999999,-0.37246075,1.112080135,-0.473420565,-0.623006177
689,1778516141230,-0.6502208333333334,-0.5826559333333333,-0.4028690266666666,0.5458080766666666,-0.166918936,0.1872301973333333
690,1778516141240,-0.51057856,-0.5423487499999999,-0.421198345,-0.0632627375,0.2236148655,0.7974463775
691,1778516141250,-0.39465716,-0.5256404,-0.42648828,-0.55481833,0.550695,1.1565206
692,1778516141260,-0.37160704,-0.522210325,-0.42529919,-1.0985647749999998,0.9094638,1.4600443
693,1778516141270,-0.30245668,-0.5119201,-0.42173192,-1.391551,1.1074986,1.5935947
694,1778516141280,-0.2172078075,-0.4906841025,-0.411578895,-1.444734475,1.143501475,1.6114625
695,1778516141290,-0.14933798,-0.4323423,-0.3960597,-2.0532708,1.4957036,1.7844901
696,1778516141300,-0.1235438,-0.39587677,-0.3734974,-2.2453497,1.528117625,1.832824825
697,1778516141310,-0.06860156,-0.3553256,-0.3137378,-2.309376,1.5389223,1.8489364
698,1778516141320,-0.06860156,-0.3553256,-0.3137378,-2.3574816666666667,1.5204945333333333,1.8582521
699,1778516141330,-0.06860156,-0.3553256,-0.3137378,-2.453693,1.483639,1.8768835
700,1778516141340,0.049759000725,-0.3227322375,-0.1140767575,-2.376914875,0.9347765225,1.839124375
701,1778516141350,0.18019344,-0.3070911,0.15817997,-1.9355265,0.16371189,1.7747163
702,1778516141360,0.20495099,-0.31477445,0.20208496,-1.9355265,0.16371189,1.7747163
703,1778516141370,0.20495099,-0.31477445,0.20208496,-1.2945761999999998,-0.2939789025,1.732337475
704,1778516141380,0.14153264,-0.30605444,0.20476803,-0.5723807,-0.5739079,1.8697058
705,1778516141390,0.16157955,-0.2318123125,0.2196317125,-0.1688660565,-0.842688605,2.72934585
706,1778516141400,0.629488,-0.0505517299999999,0.3705094499999999,0.25518894,-1.1519392,4.011705
707,1778516141410,0.6806495,0.0189238666666666,0.3115019333333333,0.1837177113333333,-1.0649927,4.447048233333334
708,1778516141420,0.864044325,0.21271058,0.2028319625,-0.0423405944999999,-0.8694521500000001,5.586515425
709,1778516141430,1.1072598,0.37721714,0.23086715,-0.29168814,-0.8045095,6.3928576
710,1778516141440,2.164638525,0.74239089,0.4507732725,-0.2270128,-1.43034095,7.561977199999999
711,1778516141450,3.7973965,1.1936062333333333,0.7249610333333333,0.6671666666666667,-1.6510160333333337,6.2526638000000005
712,1778516141460,4.0199755249999995,1.38674245,0.69933955,1.022283,-1.6452128,5.60759
713,1778516141470,3.994989200000001,1.4011183,0.6862594999999999,1.022283,-1.6452128,5.607589999999999
714,1778516141480,3.5125525,1.45538975,0.48826016,1.3590988,-1.16087305,4.64013235
715,1778516141490,2.6620456666666663,1.7509965333333335,-0.1182182756666666,0.1156061999999999,0.02840522,3.480150233333333
716,1778516141500,2.7123535,1.829863,-0.15561883,-0.674548,0.38087448,3.383888
717,1778516141510,2.7123535000000003,1.829863,-0.15561883,-0.674548,0.3808744799999999,3.383888
718,1778516141520,2.8125117499999996,1.95898625,0.083693915,-0.8972847500000001,0.43073636,2.8627436
719,1778516141530,2.7348953333333337,2.0811987,0.3777659533333333,-0.9582439666666668,0.6655885866666666,0.9867000866666666
720,1778516141540,2.646008,2.0777433,0.4051456,-0.8773551999999999,0.75808376,0.30925053
721,1778516141550,2.646008,2.0777433,0.4051456,-0.8773552,0.75808376,0.30925053
722,1778516141560,1.4467104,1.3411351333333332,0.4519369266666667,-0.4460334333333333,0.8507316399999999,-0.50045138
723,1778516141570,1.3381268,1.2314132,0.4346595,0.4166101,1.0360274,-2.1198552
724,1778516141580,1.3381268000000002,1.2314132,0.4346595,0.6113742999999999,1.015258,-2.2372939666666665
725,1778516141590,1.30556395,1.18607525,0.39474864,1.1685088499999998,0.9233228,-2.55120225
726,1778516141600,1.6890823666666666,1.0913441666666668,0.0687641766666666,1.6070337,0.5525785,-3.0540208
727,1778516141610,1.958147875,0.952708015,-0.1059817925,1.34344535,0.36216673,-4.0262129
728,1778516141620,1.960581933333333,0.59653884,-0.0260990866666666,0.8503753333333334,0.58368174,-4.7496301
729,1778516141630,1.6518189250000002,0.2784308725,0.225973545,0.5233588,0.9279043,-5.2242723
730,1778516141640,1.5943613,0.26099083,0.22958656,0.63438355,0.84444485,-5.2106805000000005
731,1778516141650,1.4776065,0.27119469,0.2028776933333333,0.8364272133333334,0.6128505533333334,-5.096194233333334
732,1778516141660,1.4192291,0.27629662,0.18952326,1.1152872,-0.48823404,-4.4652724
733,1778516141670,1.2280797,-0.0976682866666666,0.2163134266666666,1.2845987333333333,-0.6089817466666667,-4.437477866666667
734,1778516141680,1.132505,-0.28465074,0.22970851,1.5031867,-0.8356637,-4.363258
735,1778516141690,0.7898326,-0.427494435,0.1018656925,1.501430425,-1.172899475,-4.062139425
736,1778516141700,0.1519804,-0.6270081099999999,-0.099355395,1.3817772,-1.789377,-3.3819027
737,1778516141710,-0.15298149,-0.6521417249999999,-0.1447340525,1.3817772,-1.789377,-3.3819027
738,1778516141720,-0.20543882,-0.6510746,-0.14763056,1.2344823,-1.899332775,-2.998890225
739,1778516141730,-0.3098351666666666,-0.6544081333333334,-0.1538910933333333,0.9540188,-1.8976529,-2.2634084
740,1778516141740,-0.36203334,-0.6560749,-0.15702136,0.59036309,-1.616349425,-1.1726703725
741,1778516141750,-0.4871016166666666,-0.6151782,-0.1755793566666666,0.1768454926666667,-1.242805333333333,0.0964149233333333
742,1778516141760,-0.70943165,-0.49380928,-0.20714624,-0.116217114,-0.9613492,0.98929626
743,1778516141770,-0.70943165,-0.49380928,-0.20714624,-0.530638276,-0.4460843666666667,1.7324647400000002
744,1778516141780,-0.1794616936999999,-0.2643141925,-0.11787273125,-1.5582409,0.899308175,3.27152705
745,1778516141790,0.162306215,-0.1340931933333333,-0.046750695,-1.6968309333333331,1.1603386,3.2394184
746,1778516141800,0.30050534,-0.07969977,-0.01603752,-1.7214946,1.2470814,3.1583259999999997
747,1778516141810,0.30050534,-0.07969977,-0.01603752,-1.724778,1.2835805,3.0995302
748,1778516141820,0.36887822,-0.055597755,0.00257637,-1.724778,1.2835805,3.0995302
749,1778516141830,0.39166918,-0.0475637499999999,0.008781,-1.6722436,1.2678508,2.9477303
750,1778516141840,0.486811935,0.001372031775,0.0506584425,-1.4226669749999998,1.1038717,2.559983525
751,1778516141850,0.4905774,0.0073175007,0.05408852,-1.258077,0.9941832,2.3139575
752,1778516141860,0.44325754,0.006707709,0.060186442,-1.04320512,0.839787,2.05922675
753,1778516141870,0.44325754,0.006707709,0.060186442,-0.97158116,0.7883216000000001,1.9743165
754,1778516141880,0.44325754,0.006707709,0.060186442,-0.97158116,0.7883216,1.9743165
755,1778516141890,0.3037372133333333,-0.1114292636666666,0.071365954,-0.33577226,0.0761036333333333,1.6643532333333333
756,1778516141900,0.23397705,-0.17049775,0.07695571,-0.16707164,-0.12492194,1.6351335
757,1778516141910,0.2492980725,-0.2013684625,0.0908132275,0.0678060456,-0.33777031,1.74241675
758,1778516141920,0.3035136266666667,-0.2326355333333333,0.1192549266666666,0.44501534,-0.6030767,1.9271271
759,1778516141930,0.3280679,-0.24312395,0.13116619,0.44501534,-0.6030767,1.9271271
760,1778516141940,0.3280679,-0.24312395,0.13116619,0.44501534,-0.6030767,1.9271271
761,1778516141950,0.3879037375,-0.1072928486249999,0.00772910975,0.8436049,-0.85902923,2.5318837
762,1778516141960,0.51417637,0.0069516255,-0.010061563,0.8505280466666667,-0.9686286533333334,2.8516207333333328
763,1778516141970,1.0204864,0.23635526,0.01981823,0.61850107,-1.33309885,4.41185965
764,1778516141980,1.3256566,0.333129205,0.024940479,0.4540256,-1.348485,4.8776064
765,1778516141990,2.0408914666666664,0.7286604233333334,0.0315262293333333,0.1149953839999999,-0.9619091333333332,5.101997466666667
766,1778516142000,2.363933725,0.94063417,0.05274698,-0.84070328,0.08521570375,5.765231825
767,1778516142010,3.8834584,1.5413094,0.13360536,-1.7034995666666666,0.5515095066666668,6.004042000000001
768,1778516142020,3.97062805,1.59359905,0.143209575,-2.0475057,0.585896145,5.183421
769,1778516142030,4.096610925,1.826646225,0.2644361524999999,-2.228054625,0.51557027,3.74384055
770,1778516142040,3.502643,1.9087698,0.56100833,-2.1348214,0.34116822,2.0712914
771,1778516142050,3.502643,1.9087698,0.56100833,-2.1348214,0.34116822,2.0712914
772,1778516142060,,,,,,
773,1778516142070,3.502643,1.9087698,0.56100833,-2.1348214,0.34116822,2.0712914
774,1778516142080,3.502643,1.9087698,0.56100833,-2.1348214,0.34116822,2.0712914
775,1778516142090,2.6665173666666666,1.7838032666666666,0.6853855333333333,-1.5934420000000002,0.0125227375,1.077719
776,1778516142100,2.555332,1.7397356,0.6653437,-1.296561475,-0.0063759061249999,0.509041655
777,1778516142110,2.1223596,1.4966524,0.5689966000000001,-1.0179560333333333,0.3772601866666666,-0.4815654399999999
778,1778516142120,1.934548825,1.39727665,0.560855875,-0.9776898,0.5028948,-0.6908886
779,1778516142130,1.2789161,1.10043,0.5450928,-0.36300668,1.1527027,-1.7140878
780,1778516142140,1.0641017,0.948500475,0.4255431375,0.212504735,1.238032975,-1.9449186
781,1778516142150,1.0190839,0.85248876,0.27855286,0.73273287,1.21562185,-2.1168772
782,1778516142160,1.1876099,0.8481998833333333,0.1404553453333333,1.1812607,1.0239629,-2.2901337
783,1778516142170,1.3544083,0.84193933,0.025245376,1.5277358,0.6386596250000001,-2.621604525
784,1778516142180,1.4096148333333334,0.79876611,-0.0554910413333333,1.7272214333333331,0.2929607933333333,-3.042210733333333
785,1778516142190,1.4118355,0.7357594075,-0.1385446699999999,1.60222315,-0.152410875,-3.8553996
786,1778516142200,1.3623153,0.6438993533333334,-0.17066037,1.4427619,-0.2623157066666666,-4.056196
787,1778516142210,1.3486153,0.5947908,-0.14488651,1.3472633,-0.30558532,-4.135405
788,1778516142220,1.36934815,0.5189937,-0.131135703,0.9713521,-0.42271874,-4.34218285
789,1778516142230,1.4206519333333334,0.41335746,-0.1108601273333333,0.8801041,-0.4485278,-4.3715043
790,1778516142240,1.4817938,0.35367918,-0.09781059,0.8801041,-0.4485278,-4.3715043
791,1778516142250,1.4817938,0.35367918,-0.09781059,0.59895337,-0.51602843,-4.42044995
792,1778516142260,1.4633577666666666,0.3152013199999999,-0.0585400043333333,0.31780264,-0.58352906,-4.4693956
793,1778516142270,1.4264857,0.2382456,0.020001167,0.054023395,-0.60036599,-4.566981175
794,1778516142280,1.4264857,0.2382456,0.020001167,-0.03390302,-0.6059783,-4.5995097
795,1778516142290,1.2290047,0.19690173,0.16760125,-0.19501872,-0.62796944,-4.6518917
796,1778516142300,1.1200044,0.20123126,0.24507529,-0.3276782866666666,-0.7062620133333333,-4.5482483
797,1778516142310,0.5601089025,-0.395526115,0.2481699674999999,0.3860668275,-1.08913455,-3.678210475
798,1778516142320,0.03872177,-0.5140544,0.17604686,0.11152108875,-0.5112560075,-2.954487825
799,1778516142330,-0.2438963499999999,-0.5221443,0.1382194433333333,0.11346822,-0.32788193,-2.6357307
800,1778516142340,-0.5807656,-0.5191157,0.06841862,0.34132096,0.041080687,-1.5505288
801,1778516142350,-0.5807656,-0.5191157,0.06841862,0.34132096,0.041080687,-1.5505287999999997
802,1778516142360,-0.5807656,-0.5191157,0.06841862,0.4804836849999999,-0.0175623762499999,-0.5594380449999999
803,1778516142370,-0.8243570333333334,-0.4755562,-0.1687293533333333,0.52687126,-0.037110064,-0.22907446
804,1778516142380,-0.8412076,-0.46764925,-0.19976775,0.52687126,-0.037110064,-0.22907446
805,1778516142390,-0.6460945933333334,-0.40811325,-0.1873076733333333,-0.3291545466666667,0.2055052553333333,1.8626299133333333
806,1778516142400,-0.17728168,-0.25397823,-0.126684218,-0.9121745,0.5016731,3.0521882
807,1778516142410,0.05847902,-0.14878917,-0.019574312,-1.1009319,1.2345077666666666,3.1582750666666666
808,1778516142420,0.1301600299999999,-0.111012575,-0.00143301,-1.1953106,1.6009251,3.2113185
809,1778516142430,0.25429837,-0.0455514375,0.013095276325,-1.1953106,1.6009251,3.2113185
810,1778516142440,0.4180731499999999,0.06726002,-0.0472588579999999,0.3454443,1.2315043,2.3044891
811,1778516142450,0.41807315,0.06726002,-0.047258858,0.3454443,1.2315043,2.3044891
812,1778516142460,0.41807315,0.06726002,-0.047258858,0.3454443,1.2315043,2.3044891
813,1778516142470,0.3817296,0.11622629,-0.16854642,0.3454443,1.2315043,2.3044891
814,1778516142480,0.36700314,0.1440023025,-0.286099005,0.3454443,1.2315043,2.3044891
815,1778516142490,0.3672165599999999,0.18659624,-0.442038,0.3454443,1.2315043,2.3044891
816,1778516142500,0.410847145,0.22135437,-0.431534335,0.0321467749999999,1.156635135,2.407916225
817,1778516142510,1.2267381666666666,0.8909057200000001,0.0849236666666666,-0.9077458000000002,0.93202764,2.7181976
818,1778516142520,3.34020995,2.2972376999999997,0.76077606,-0.034972034,-0.22785273,2.9002354
819,1778516142530,2.385002,1.8816495,0.37171374,-0.034972034,-0.22785273,2.9002354
820,1778516142540,1.164417466666667,1.1510631333333332,0.31886006,-0.40668353,0.8965974500000001,-1.5515977
821,1778516142550,1.1393347,1.1192117,0.34544697,-0.49235737,0.9071349,-1.5427402
822,1778516142560,1.1393347,1.1192117,0.34544697,-0.4012366566666667,0.9045896333333332,-1.6064737999999998
823,1778516142570,1.06725735,1.00685755,0.415451065,-0.2614885125,0.8753699100000001,-1.686751675
824,1778516142580,0.99518,0.8945034,0.48545516,0.14462235,0.74510287,-1.8943695
825,1778516142590,0.9795693,0.84370774,0.4862479,0.26816985,0.6986770999999999,-1.9567541
826,1778516142600,0.9135899,0.7271156,0.35032532,0.9607383,0.46089783,-2.3709207
827,1778516142610,0.8912715333333333,0.7293108666666667,0.28727286,1.0834203666666666,0.3764966233333333,-2.4827091
828,1778516142620,0.88901526,0.746385,0.21446373,1.150679175,0.3108158825,-2.5580746000000003
829,1778516142630,0.9116080575,0.7434275175,0.2067498675,1.11650895,0.158977678,-2.7375162
830,1778516142640,1.0593301,0.6424765,0.22117145,1.02126488,0.0728456806666666,-2.9537370333333333
831,1778516142650,1.0982348,0.5749116,0.2936757,0.86009824,0.088728175,-3.385568
832,1778516142660,1.0622164333333333,0.4724259366666666,0.35217502,0.8494081066666667,0.1596903583333333,-3.5818592
833,1778516142670,1.0176203,0.37953433,0.39362052,0.8944594,0.34208453,-3.8899899
834,1778516142680,0.7913469599999999,0.1367356199999999,0.3862217266666666,1.5269085999999998,0.6627887766666666,-3.965431966666667
835,1778516142690,-0.0299712649999999,-0.299605905,0.02103782,3.1719941,-0.6922629899999999,-2.828038875
836,1778516142700,-0.3421134633333333,-0.3166648266666667,-0.1947877966666666,3.5839463333333335,-1.3526083,-2.139402766666666
837,1778516142710,-0.42593947,-0.28593132,-0.25507587,3.432184525,-1.485929725,-1.704046775
838,1778516142720,-0.4505750633333333,-0.2813985366666666,-0.2921715266666667,3.1720705,-1.578934,-1.2208142
839,1778516142730,-0.5066759075,-0.2807633275,-0.41996353,3.120070525,-1.5805375000000002,-1.1501447
840,1778516142740,-0.52875036,-0.28257746,-0.5325311,3.1027372,-1.581072,-1.1265882
841,1778516142750,-0.579607,-0.19781642,-0.51106644,0.5316055,-1.0564915,0.8587238
842,1778516142760,-0.384656595,-0.157905555,-0.30861558,-0.49510625,-0.7495316725,1.626925025
843,1778516142770,-0.0936640019999999,-0.091651689,0.0005691466666666,0.1312851666666666,-0.8892161866666667,1.1869111566666668
844,1778516142780,-0.139367898,-0.0944567235,-0.02658692,-0.753769525,-0.1583286749999999,1.8383608175
845,1778516142790,-0.3771561699999999,-0.14994776,-0.26721072,-1.6689347333333335,-0.05945756,2.4603107666666664
846,1778516142800,-0.1608020755,-0.10069184425,-0.04347815075,-1.900478125,0.291993595,2.5813639
847,1778516142810,0.1929990666666666,-0.0130901949999999,0.3881527533333333,-2.2360723,1.0089967,2.7889053999999995
848,1778516142820,0.211872125,-0.00259161435,0.41471933,-2.10046015,1.52704855,2.99976835
849,1778516142830,0.25373432,0.0204280208666666,0.4128289666666667,-2.0552561,1.6997325000000003,3.0700559999999997
850,1778516142840,0.31654286,0.04896627,0.4001453,-1.794416675,1.812589875,3.27152695
851,1778516142850,0.44648947,0.160924025,0.3235859749999999,-1.6368134,1.7754798,3.3458617
852,1778516142860,0.4806988,0.19324298,0.29263905,-1.5581136000000002,1.6521868666666668,3.305442766666667
853,1778516142870,0.47783276,0.21074401,0.24446549,-1.5187637,1.5905404,3.2852333
854,1778516142880,0.47783276,0.21074401,0.2444654899999999,-1.5465580999999995,1.7174476,3.34632
855,1778516142890,0.41978058,0.21068303,0.24422157,-1.5271631,1.5172366,3.2710307
856,1778516142900,0.3193682333333333,0.18787681,0.34113779,-1.5271631,1.5172365999999995,3.2710306999999994
857,1778516142910,0.2514628525,0.1676012325,0.4518251375,-1.458059,1.41747465,3.50167045
858,1778516142920,0.5132210333333334,0.2224113433333333,0.9965418666666668,-0.2144137,1.195463333333333,4.238488233333333
859,1778516142930,0.938850525,0.3871872175,0.8457657700000001,1.5570191,1.1596131500000002,4.21581
860,1778516142940,1.053333766666667,0.5015943066666666,0.6034701533333333,2.1746292666666664,1.2584333,3.950414533333334
861,1778516142950,1.05692135,0.5648957674999999,0.4971479,2.261117625,1.31992705,3.825161675
862,1778516142960,1.0529882,0.65229416,0.4334399,2.215761,1.3776538,3.7333028
863,1778516142970,1.1348833,0.7428634525,0.6641851,2.147229575,1.500819575,3.763960725
864,1778516142980,1.3587378,0.80651045,1.1337247,2.3499987,1.7380643,3.9197695
865,1778516142990,1.7441872,0.9109068,1.3585548,2.9034426,1.8264871000000005,4.0355287
866,1778516143000,2.2789135,1.1295171,1.3452004,3.6534324,1.9178114,4.114177
867,1778516143010,2.6425018,1.35457605,1.21321105,3.6534324,1.9178114,4.114177
868,1778516143020,2.7636979,1.4295957,1.1692146,3.958152333333333,1.9907080666666663,4.058079466666666
869,1778516143030,2.7636979,1.4295957,1.1692146,4.1105123,2.0271564,4.0300307
870,1778516143040,2.8426049333333334,1.4920586666666666,1.1500671333333334,4.187277633333333,2.0084231333333333,3.933615833333333
871,1778516143050,3.000419,1.6169846,1.1117722,4.2256603,1.9990565,3.8854084
872,1778516143060,3.338650166666667,1.8762680333333333,1.2194817666666666,4.697757433333333,1.6081027666666667,3.0566678
873,1778516143070,3.4252608,1.9349301,1.1192117,5.2493176,1.3310753,2.1277964
874,1778516143080,3.3999849,1.9333446,0.9657271,5.4218874,1.3495541,1.1910346
875,1778516143090,3.2460838333333335,1.863564,0.5965389,5.4218874,1.3495541,1.1910346
876,1778516143100,2.58185795,1.5648474,0.2100122575,4.9530482,1.45622645,0.27404945
877,1778516143110,2.0826824,1.3623966,0.038294915,2.9181031999999996,1.3283265,-1.8058704
878,1778516143120,2.0826824,1.3623966,0.038294915,2.9181032,1.3283265,-1.8058704
879,1778516143130,,,,,,
880,1778516143140,2.0826824,1.3623966,0.038294915,2.9181032,1.3283265,-1.8058704
881,1778516143150,2.0826824,1.3623966,0.038294915,2.9181032,1.3283265,-1.8058704
882,1778516143160,2.0826824,1.3623966,0.038294915,1.7851009,0.9204212,-2.5170703
883,1778516143170,1.9086174,1.265134825,0.10282612125,1.74562375,0.916641475,-2.5786913
884,1778516143180,1.3934146666666667,0.8898080333333334,0.3909781,1.6271923,0.9053023,-2.7635543000000005
885,1778516143190,1.3969108,0.8480373,0.43825728,1.5673275,0.93722,-3.0147727
886,1778516143200,1.40761265,0.7759598999999999,0.46950914,1.57496335,0.98784545,-3.24323635
887,1778516143210,1.4225424,0.68949142,0.5061068133333334,1.5825992,1.0384709,-3.4717
888,1778516143220,1.39134645,0.53727219,0.592260155,1.5825992,1.0384709,-3.4717
889,1778516143230,1.3781292,0.4961265,0.61741406,1.703245075,1.0764209,-3.685922825
890,1778516143240,1.3372934666666667,0.4474448,0.6309107966666666,2.1385374,1.1816679,-4.384180033333333
891,1778516143250,1.0324840075,0.0749738862499999,0.571557745,2.35950515,1.16304925,-4.4927995
892,1778516143260,0.58722943,-0.48204032,0.3808149,2.5076527333333334,0.9074403,-4.280587499999999
893,1778516143270,0.2828518925,-0.568585,0.2842086475,2.470339,0.7817548,-4.1783185
894,1778516143280,-0.301892615,-0.6639564175,0.1571128175,1.690874975,1.199433925,-2.419140925
895,1778516143290,-0.82657266,-0.68491805,0.058174126,0.5369505,2.180789,0.43020186
896,1778516143300,-0.82657266,-0.68491805,0.058174126,0.5369505,2.180789,0.43020186
897,1778516143310,-0.7077445533333333,-0.6354842166666667,0.0084964313333333,0.3370957866666667,2.3959153333333334,0.98232222
898,1778516143320,-0.425848005,-0.57207605,-0.025092928,0.23716843,2.5034785,1.2583824
899,1778516143330,-0.33264136,-0.5599717,-0.028111396,0.23716843,2.5034785,1.2583824
900,1778516143340,-0.33264136,-0.5599717,-0.028111396,0.00862847,2.77790975,1.8624517
901,1778516143350,-0.294559865,-0.55841673,-0.032806793,-0.21991149,3.052341,2.466521
902,1778516143360,-0.25647837,-0.55686176,-0.03750219,-0.2490293999999999,3.0952033333333335,2.5561655333333335
903,1778516143370,-0.25647837,-0.55686176,-0.03750219,-0.30726522,3.180928,2.7354546
904,1778516143380,-0.25647837,-0.55686176,-0.03750219,-0.34322991,3.207157,2.8468993
905,1778516143390,-0.1822870566666666,-0.5370638533333333,-0.05697487,-0.45112398,3.2858439999999995,3.1812334
906,1778516143400,-0.10784166,-0.512133535,-0.07747403,-0.5300783,3.2270484,3.4287865
907,1778516143410,-0.0429903146666666,-0.48496732,-0.09376563,-0.5300783,3.2270483999999997,3.4287864999999997
908,1778516143420,0.012012896,-0.46069762,-0.10482319,-0.5957081449999999,3.0946433250000003,3.6474382
909,1778516143430,0.012012896,-0.46069762,-0.10482319,-0.61758476,3.0505083,3.7203221
910,1778516143440,0.0803857865,-0.42154897,-0.0891362995,-0.68951416,2.74981,4.014301
911,1778516143450,0.10317675,-0.40849942,-0.083907336,-0.708183715,2.59003045,4.137314125
912,1778516143460,0.1268976433333333,-0.39585642,-0.0759800423333333,-0.7144068999999998,2.5367706,4.1783185
913,1778516143470,0.3860438575,-0.2988589,0.016113746,-0.671646345,2.06251015,4.392426625
914,1778516143480,0.7714880700000001,-0.031282312,0.1275074333333333,-0.63316184,1.8280143,4.4666467
915,1778516143490,0.882475235,0.1797360842499999,0.0913010575,-0.63316184,1.8280143,4.4666467
916,1778516143500,0.9002963999999999,0.2273913,0.07628494,-0.63316184,1.8280143,4.4666467
917,1778516143510,0.9002964,0.2273913,0.07628494,-0.63316184,1.8280143,4.4666467
918,1778516143520,0.9002963999999999,0.2273913,0.07628494,-0.63316184,1.8280143,4.4666467
919,1778516143530,0.8874298,0.26164635,0.0413896099999999,-0.98639468,2.173649475,4.336761525
920,1778516143540,0.8350893566666667,0.3771358199999999,-0.0323189616666666,-2.0460932,3.210555,3.947106
921,1778516143550,0.80931555,0.46027075,0.28285185,-2.0460932,3.210555,3.947106
922,1778516143560,0.8843199,0.6036937,0.5957664,-1.498987,2.560212585,3.81439545
923,1778516143570,0.8843199,0.6036937,0.5957664,0.1423316,0.60918534,3.4162638
924,1778516143580,0.8843199,0.6036937,0.5957664,0.180357965,0.53931764,3.1632892999999997
925,1778516143590,1.687009,1.6068824333333334,0.6480662333333334,0.21838433,0.46944994,2.9103148
926,1778516143600,1.553505325,1.793854675,1.037956895,-0.3378085,2.0828977,1.7464638
927,1778516143610,1.3872151,1.826875,1.2583052,-0.0605265766666666,2.0620265333333334,1.7106263333333331
928,1778516143620,1.5911599,1.993409,1.55850565,1.92315645,0.8407796,1.832023125
929,1778516143630,2.473406525,2.173312725,1.6777656,3.6569448,0.7905359750000001,0.77942589
930,1778516143640,3.0878631999999997,2.0938418,1.3836173,4.3202426,1.2238175666666666,-1.7047213333333335
931,1778516143650,2.78255575,1.856617575,1.1505091925,3.88002505,1.051871725,-2.33079455
932,1778516143660,1.7011968,1.0585374,0.47899136,3.2325460000000006,0.9445504,-2.5870142
933,1778516143670,1.6722012,1.038414225,0.5135208649999999,3.232546,0.9445504,-2.5870142
934,1778516143680,1.662536,1.0317065,0.5250307,3.05466985,0.88785445,-2.646688175
935,1778516143690,1.662536,1.0317065,0.5250307,2.9953778,0.8689557999999998,-2.6665795
936,1778516143700,1.662536,1.0317065,0.5250307,2.9953778,0.8689558,-2.6665795
937,1778516143710,1.6383273,0.9070651,0.6192028333333334,2.778520533333334,0.6831509333333333,-3.1874439666666667
938,1778516143720,1.5899099,0.6577823,0.8075471,2.6700919,0.5902485,-3.4478762
939,1778516143730,1.4508366333333331,0.44502596,0.7675041333333333,2.6780334,0.6356053,-3.8186715
940,1778516143740,1.4295346,0.42154896,0.766874,2.6746736,0.6412558,-3.90228355
941,1778516143750,1.4295346,0.42154896,0.766874,2.6858218,0.5676465,-4.196797
942,1778516143760,1.2149286,0.1478338199999999,0.7928511333333333,2.7742445,0.5030984266666667,-4.3262494333333334
943,1778516143770,1.0609308,-0.03314218,0.8035987,2.90252615,0.4332179925,-4.4058655
944,1778516143780,0.93523748,-0.3764650733333333,0.67022205,3.1572061333333337,0.5473352733333333,-4.458501733333333
945,1778516143790,0.85953185,-0.4729849149999999,0.5735091,3.1580206,0.6889032850000001,-4.5275805
946,1778516143800,0.7991319999999998,-0.5066149,0.5281406,3.1105258,0.74128497,-4.5465174
947,1778516143810,0.60381575,-0.650800165,0.40770671,2.9827023,0.8567385,-4.5058947
948,1778516143820,0.49466303,-0.7285791,0.35398406,2.9827023,0.8567385,-4.5058947
949,1778516143830,0.3542584625,-0.7344788250000001,0.29827961,2.734118225,1.32702835,-4.323398924999999
950,1778516143840,0.30745694,-0.7364454,0.27971146,2.6241243,1.5716035,-4.222148
951,1778516143850,0.035489876,-0.7322379,0.1574482,2.5389087,1.8478674,-3.9579487
952,1778516143860,0.035489876,-0.7322379,0.1574482,2.42425695,1.99917105,-3.569667475
953,1778516143870,-0.19946286,-0.7093097,0.023659917,2.3860397,2.0496056,-3.4402404
954,1778516143880,-0.2679424575,-0.6866559250000001,-0.01818703725,2.24286815,1.9792034,-3.0754775
955,1778516143890,-0.4733812499999999,-0.6186946,-0.1437279,1.9525798666666667,1.7159713333333333,-2.400496866666667
956,1778516143900,-0.4846166724999999,-0.6109197749999999,-0.1397337625,1.827632475,1.5232688,-2.1366158
957,1778516143910,-0.5599107,-0.5622279,-0.08012662,1.6734654,1.234406,-1.8102992
958,1778516143920,-0.5599107,-0.5622279,-0.08012662,1.398576,0.8057822,-1.2505429733333333
959,1778516143930,-0.6907415025,-0.5212041775,0.0041923184999999,1.103528,0.70295316,-0.59421915
960,1778516143940,-0.71626127,-0.51582277,0.0138422719999999,1.103528,0.70295316,-0.59421915
961,1778516143950,-0.7490680525,-0.5210974675,0.0113726154999999,1.103528,0.70295316,-0.59421915
962,1778516143960,-0.8474884,-0.53692156,0.003963646,1.02442098,0.8718574066666666,-0.3184644033333333
963,1778516143970,-0.878069505,-0.539375965,-0.025717964,0.7836637525,1.371659725,0.5331707975000001
964,1778516143980,-0.89325335,-0.5298632525,-0.116531195,0.6414085,1.6436857,1.0500773
965,1778516143990,-0.7970383666666666,-0.5146438566666667,-0.1622452333333333,0.35873061,1.9545652,1.9407188666666664
966,1778516144000,-0.7519341,-0.5087492,-0.17860797,0.14828753,2.1340578,2.5372288
967,1778516144010,-0.7519341,-0.5087492,-0.17860797,0.14828753,2.1340578,2.5372288
968,1778516144020,-0.6244063666666667,-0.5081800466666667,-0.1894622633333333,-0.0263181133333333,2.2422318,2.9327132
969,1778516144030,-0.45767916,-0.494388585,-0.193212485,-0.3755294,2.4585798,3.723682
970,1778516144040,-0.2900779025,-0.4785187675,-0.1882426875,-0.3755294,2.4585798,3.723682
971,1778516144050,0.1860271066666666,-0.4676289133333333,-0.1664934666666666,-0.8020151633333333,2.4013113333333336,4.4279078
972,1778516144060,0.3837876275,-0.43319599,-0.1462585375,-1.10566607,2.13734115,4.732068
973,1778516144070,0.7086592133333333,-0.2035078066666666,-0.08630585,-1.7719165000000003,1.6676621,5.279606466666666
974,1778516144080,0.8871249,-0.09768862,-0.06097917,-2.0222695,1.6258179,5.497176
975,1778516144090,0.8871249,-0.09768862,-0.06097917,-2.1451552,1.6674585333333332,5.534897
976,1778516144100,1.3221503,0.214921085,0.0919260945,-2.51710845,2.0577377500000003,5.3476669999999995
977,1778516144110,1.4935017666666666,0.60784036,0.2135896933333333,-2.916525233333333,3.0574823,4.454633
978,1778516144120,1.4686223,0.7061388,0.254649,-2.9582677,3.2149837,4.244597
979,1778516144130,1.4827695,0.8755389,0.4269761,-2.6728408,3.0098858000000006,3.9440515
980,1778516144140,1.394532625,0.946000325,0.485485625,-2.0438405125,2.498400675,3.767015125
981,1778516144150,1.12442535,1.2111682,0.653605225,0.304401785,0.76613955,3.29615245
982,1778516144160,1.3332688333333331,1.5399272,0.51370885,0.8618290433333334,0.9681705666666666,3.215441866666667
983,1778516144170,1.5575299,1.77019475,0.412158205,0.9801714725,1.504293875,2.854191425
984,1778516144180,1.631457,1.8658608666666667,0.4302486966666667,0.7675521766666668,2.2978205333333332,1.8772907
985,1778516144190,1.342974725,1.843994725,0.5455196625,0.7160486100000001,2.865187125,0.893963115
986,1778516144200,1.1216305333333334,1.9053956333333335,0.78844032,1.1981104133333331,2.6627107333333333,0.6766859866666667
987,1778516144210,1.26159805,1.98456695,0.982160965,1.8601228,2.230918025,0.853264225
988,1778516144220,1.6308878333333334,2.095610033333333,1.1905369,2.0250182,2.1259637,0.893085
989,1778516144230,1.7374794,2.1264045,1.2371453,2.685669,1.882534,0.8538369
990,1778516144240,,,,,,
991,1778516144250,1.7374794,2.1264045,1.2371453,2.685669,1.882534,0.8538369
992,1778516144260,1.7374794,2.1264045,1.2371453,2.6856689999999994,1.882534,0.8538369
993,1778516144270,2.1007934,2.2266543,1.3220893,3.5903604,1.7570012000000002,0.59315014
994,1778516144280,2.44005095,2.308656075,1.28934355,4.289496,1.7661642,0.2582433
995,1778516144290,2.5531368,2.33599,1.2784283,4.289496,1.7661641999999995,0.2582433
996,1778516144300,2.7517154,2.34739305,1.17775165,4.289496,1.7661642,0.2582433
997,1778516144310,2.950294,2.3587961,1.077075,4.736852666666667,1.7949766666666669,-0.1656971866666667
998,1778516144320,3.06458425,2.324358125,0.88938117,5.25065395,1.799876275,-0.9793315075
999,1778516144330,3.0506048,2.2007382,0.57704586,5.3473616,1.7967074,-1.1798862
1000,1778516144340,2.76531375,1.87855475,0.354959735,5.1768538500000005,1.3483323,-2.3826036
