id,timestamp,acc_x,acc_y,acc_z,gyro_x,gyro_y,gyro_z
0,1778516230680,2.6537523,1.4579508,2.0676208,-1.1908818,2.9460504,-4.148233
1,1778516230690,2.6537523,1.4579508,2.0676208,-1.1908818,2.9460503999999994,-4.148233
2,1778516230700,2.692123475,1.4048989500000002,2.1050009999999997,-1.0737102125,2.9615893,-4.2020655
3,1778516230710,2.807237,1.2457434,2.2171416,-0.72219545,3.008206,-4.363563
4,1778516230720,2.807237,1.2457434,2.2171416,-0.72219545,3.008206,-4.363563
5,1778516230730,2.807237,1.2457434,2.2171416,-0.72219545,3.008206,-4.363563
6,1778516230740,2.807237,1.2457434,2.2171416,-0.72219545,3.008206,-4.363563
7,1778516230750,2.807237,1.2457434,2.2171416,-0.72219545,3.008206,-4.363563
8,1778516230760,2.807237,1.2457434,2.2171416,-0.72219545,3.008206,-4.363563
9,1778516230770,2.807237,1.2457434,2.2171416,-0.72219545,3.008206,-4.363563
10,1778516230780,2.807237,1.2457434,2.2171416,-0.72219545,3.008206,-4.363563
11,1778516230790,2.807237,1.2457434,2.2171416,-0.72219545,3.008206,-4.363563
12,1778516230800,2.807237,1.2457434,2.2171416,-0.72219545,3.008206,-4.363563
13,1778516230810,2.807237,1.2457434,2.2171416,-0.72219545,3.008206,-4.363563
14,1778516230820,2.807237,1.2457434,2.2171416,-0.72219545,3.008206,-4.363563
15,1778516230830,2.807237,1.2457434,2.2171416,-0.72219545,3.008206,-4.363563
16,1778516230840,2.807237,1.2457434,2.2171416,-0.72219545,3.008206,-4.363563
17,1778516230850,2.807237,1.2457434,2.2171416,-0.72219545,3.008206,-4.363563
18,1778516230860,2.807237,1.2457434,2.2171416,-0.72219545,3.008206,-4.363563
19,1778516230870,2.807237,1.2457434,2.2171416,-0.72219545,3.008206,-4.363563
20,1778516230880,2.807237,1.2457434,2.2171416,-0.72219545,3.008206,-4.363563
21,1778516230890,2.807237,1.2457434,2.2171416,-0.72219545,3.008206,-4.363563
22,1778516230900,2.807237,1.2457434,2.2171416,-0.72219545,3.008206,-4.363563
23,1778516230910,2.807237,1.2457434,2.2171416,-0.72219545,3.008206,-4.363563
24,1778516230920,2.807237,1.2457434,2.2171416,-0.4027129,3.414584,-4.525137
25,1778516230930,2.807237,1.2457434,2.2171416,-0.4027129,3.414584,-4.525137
26,1778516230940,2.807237,1.2457434,2.2171416,-0.4027129,3.414584,-4.525137
27,1778516230950,2.807237,1.2457434,2.2171416,-0.4027129,3.414584,-4.525137
28,1778516230960,2.807237,1.2457434,2.2171416,-0.4027129,3.414584,-4.525137
29,1778516230970,2.807237,1.2457434,2.2171416,-0.4027129,3.414584,-4.525137
30,1778516230980,2.807237,1.2457434,2.2171416,-0.4027129,3.414584,-4.525137
31,1778516230990,2.807237,1.2457434,2.2171416,-0.4027129,3.414584,-4.525137
32,1778516231000,2.807237,1.2457434,2.2171416,-0.4027129,3.414584,-4.525137
33,1778516231010,2.807237,1.2457434,2.2171416,-0.4027129,3.414584,-4.525137
34,1778516231020,2.8124048,1.096786575,2.4036921,-0.4027129,3.414584,-4.525137
35,1778516231030,2.8141274,1.0471343,2.4658756,-0.4027129,3.414584,-4.525137
36,1778516231040,2.8141274,1.0471343,2.4658756,-0.4027129,3.414584,-4.525137
37,1778516231050,2.8141274,1.0471343,2.4658756,-0.4027129,3.414584,-4.525137
38,1778516231060,2.8141274,1.0471343,2.4658756,-0.016340645,3.8530326,-4.5937066
39,1778516231070,2.8141274,1.0471343,2.4658756,-0.016340645,3.8530326,-4.5937066
40,1778516231080,2.8751678,0.7954732,2.6991208000000007,-0.016340645,3.8530326,-4.5937066
41,1778516231090,2.8751678,0.7954732,2.6991208,-0.016340645,3.8530326,-4.5937066
42,1778516231100,2.8751678,0.7954732,2.6991208000000007,-0.016340645,3.8530326,-4.5937066
43,1778516231110,2.8751678,0.7954732,2.6991208,-0.016340645,3.8530326,-4.5937066
44,1778516231120,2.8751678,0.7954732,2.6991208,-0.016340645,3.8530326,-4.5937066
45,1778516231130,2.8751678,0.7954732,2.6991208000000007,-0.016340645,3.8530326,-4.5937066
46,1778516231140,2.8751678,0.7954732,2.6991208,-0.016340645,3.8530326,-4.5937066
47,1778516231150,2.8751678,0.7954732,2.6991208,-0.016340645,3.8530326,-4.5937066
48,1778516231160,2.8751678,0.7954732,2.6991208000000007,-0.016340645,3.8530326,-4.5937066
49,1778516231170,2.8751678,0.7954732,2.6991208,-0.016340645,3.8530326,-4.5937066
50,1778516231180,2.8751678,0.7954732,2.6991208000000007,-0.016340645,3.8530326,-4.5937066
51,1778516231190,2.8751678,0.7954732,2.6991208,-0.016340645,3.8530326,-4.5937066
52,1778516231200,2.8751678,0.7954732,2.6991208,-0.016340645,3.8530326,-4.5937066
53,1778516231210,2.8751678,0.7954732,2.6991208,-0.016340645,3.8530326,-4.5937066
54,1778516231220,2.8751678,0.7954732,2.6991208000000007,-0.016340645,3.8530326,-4.5937066
55,1778516231230,2.8751678,0.7954732,2.6991208,-0.016340645,3.8530326,-4.5937066
56,1778516231240,2.8751678,0.7954732,2.6991208000000007,-0.016340645,3.8530326,-4.5937066
57,1778516231250,2.8751678,0.7954732,2.6991208,-0.016340645,3.8530326,-4.5937066
58,1778516231260,2.8751678,0.7954732,2.6991208,-0.016340645,3.8530326,-4.5937066
59,1778516231270,2.8751678,0.7954732,2.6991208,-0.016340645,3.8530326,-4.5937066
60,1778516231280,2.8751678,0.7954732,2.6991208000000007,-0.016340645,3.8530326,-4.5937066
61,1778516231290,2.9047731999999997,0.695467375,2.7954984,0.56394314125,3.92889445,-4.691254125
62,1778516231300,2.9935894,0.3954499,3.0846312,2.3047945,4.15648,-4.9838967
63,1778516231310,3.042901133333333,0.22950526,3.1843524,2.3047945,4.15648,-4.9838967
64,1778516231320,3.067557,0.14653294,3.234213,2.3047945,4.15648,-4.9838967
65,1778516231330,3.067556999999999,0.14653294,3.234213,2.3047945,4.15648,-4.9838967
66,1778516231340,3.067557,0.14653294,3.234213,2.3047945,4.15648,-4.9838967
67,1778516231350,3.067557,0.14653294,3.234213,2.3047945,4.15648,-4.9838967
68,1778516231360,3.067556999999999,0.14653294,3.234213,2.3047945,4.15648,-4.9838967
69,1778516231370,3.067557,0.14653294,3.234213,2.3047945,4.15648,-4.9838967
70,1778516231380,3.067557,0.14653294,3.234213,2.3047945,4.15648,-4.9838967
71,1778516231390,3.067556999999999,0.14653294,3.234213,2.3047945,4.15648,-4.9838967
72,1778516231400,3.067557,0.14653294,3.234213,2.3047945,4.15648,-4.9838967
73,1778516231410,3.067557,0.14653294,3.234213,2.3047945,4.15648,-4.9838967
74,1778516231420,3.0787773,0.077077664,3.245738,2.3047945,4.15648,-4.9838967
75,1778516231430,,,,,,
76,1778516231440,3.0787773,0.077077664,3.245738,2.3047945,4.15648,-4.9838967
77,1778516231450,3.0787773,0.077077664,3.245738,2.3047945,4.15648,-4.9838967
78,1778516231460,3.0787773,0.077077664,3.245738,2.3047945,4.15648,-4.9838967
79,1778516231470,3.0787773,0.077077664,3.245738,2.3047945,4.15648,-4.9838967
80,1778516231480,3.0787773,0.077077664,3.245738,2.3047945,4.15648,-4.9838967
81,1778516231490,3.0787773,0.077077664,3.245738,2.3047945,4.15648,-4.9838967
82,1778516231500,3.0787773,0.077077664,3.245738,2.3047945,4.15648,-4.9838967
83,1778516231510,3.0787773,0.077077664,3.245738,2.3047945,4.15648,-4.9838967
84,1778516231520,3.0787773,0.077077664,3.245738,2.3047945,4.15648,-4.9838967
85,1778516231530,3.0787773,0.077077664,3.245738,2.3047945,4.15648,-4.9838967
86,1778516231540,3.0787773,0.077077664,3.245738,2.3047945,4.15648,-4.9838967
87,1778516231550,3.0787773,0.077077664,3.245738,2.3047945,4.15648,-4.9838967
88,1778516231560,3.0787773,0.077077664,3.245738,2.3047945,4.15648,-4.9838967
89,1778516231570,3.0787773,0.077077664,3.245738,2.3047945,4.15648,-4.9838967
90,1778516231580,3.0787773,0.077077664,3.245738,2.8115072,4.164421,-5.0788865
91,1778516231590,3.0787773,0.077077664,3.245738,2.8115072,4.164421,-5.0788865
92,1778516231600,3.0787773,0.077077664,3.245738,2.8115072,4.164421,-5.0788865
93,1778516231610,3.0787773,0.077077664,3.245738,2.8115072,4.164421,-5.0788865
94,1778516231620,3.0787773,0.077077664,3.245738,2.8115072,4.164421,-5.0788865
95,1778516231630,3.0787773,0.077077664,3.245738,2.8115072,4.164421,-5.0788865
96,1778516231640,3.046260075,-0.560505259,3.0496292,2.8115072,4.164421,-5.0788865
97,1778516231650,3.035421,-0.7730329,2.9842596,2.8115072,4.164421,-5.0788865
98,1778516231660,3.035421,-0.7730329,2.9842596,2.8115072,4.164421,-5.0788865
99,1778516231670,3.035421,-0.7730329,2.9842596,4.73183855,3.971998525,-5.297308625
100,1778516231680,3.035421,-0.7730329,2.9842596,5.371949,3.9078577,-5.370116
101,1778516231690,3.035421,-0.7730329,2.9842596,5.371949,3.9078577,-5.370116
102,1778516231700,3.035421,-0.7730329,2.9842596,5.371949,3.9078577,-5.370116
103,1778516231710,3.035421,-0.7730329,2.9842596,5.371949,3.9078577,-5.370116
104,1778516231720,3.035421,-0.7730329,2.9842596,5.371949,3.9078577,-5.370116
105,1778516231730,3.035421,-0.7730329,2.9842596,5.371949,3.9078577,-5.370116
106,1778516231740,3.035421,-0.7730329,2.9842596,5.371949,3.9078577,-5.370116
107,1778516231750,2.99788825,-0.9243832,2.88949785,5.792529699999999,3.69993435,-5.380959150000001
108,1778516231760,2.9603555,-1.0757335,2.7947361,6.2131104,3.492011,-5.3918023
109,1778516231770,2.9603555,-1.0757335,2.7947361,6.213110400000001,3.492011,-5.391802299999999
110,1778516231780,2.9603555,-1.0757335,2.7947361,6.2131104,3.492011,-5.3918023
111,1778516231790,2.9603555,-1.0757335,2.7947361,6.2131104,3.492011,-5.3918023
112,1778516231800,2.9603555,-1.0757335,2.7947361,6.213110400000001,3.492011,-5.391802299999999
113,1778516231810,2.9603555,-1.0757335,2.7947361,6.2131104,3.492011,-5.3918023
114,1778516231820,2.9603555,-1.0757335,2.7947361,6.2131104,3.492011,-5.3918023
115,1778516231830,2.9603555,-1.0757335,2.7947361,6.213110400000001,3.492011,-5.391802299999999
116,1778516231840,2.9603555,-1.0757335,2.7947361,6.2131104,3.492011,-5.3918023
117,1778516231850,2.9603555,-1.0757335,2.7947361,6.4021732,3.3557881999999997,-5.400048766666667
118,1778516231860,2.9603555,-1.0757335,2.7947361,6.4967046,3.2876768,-5.404172
119,1778516231870,2.9597661333333334,-1.0957143333333332,2.771320166666667,6.4967046,3.2876768,-5.404172
120,1778516231880,2.9585874,-1.135676,2.7244883,6.4967046,3.2876768,-5.404172
121,1778516231890,2.9585874,-1.135676,2.7244883,6.4967046,3.2876768,-5.404172
122,1778516231900,2.9585874000000003,-1.135676,2.7244882999999995,6.4967046,3.2876768,-5.404172
123,1778516231910,2.92948505,-1.167598625,2.658798475,7.0125804,2.889545225,-5.5100045
124,1778516231920,2.842178,-1.2633665,2.461729,7.184539,2.7568347,-5.545282
125,1778516231930,2.6659484,-1.2991002,2.2847066,7.2667003,2.6755898,-5.5547504
126,1778516231940,2.6659484,-1.2991002,2.2847066,7.2667003,2.6755897999999996,-5.5547504
127,1778516231950,2.6659484,-1.2991002,2.2847066,7.2667003,2.6755898,-5.5547504
128,1778516231960,2.6659484,-1.2991002,2.2847066,7.2667003,2.6755897999999996,-5.5547504
129,1778516231970,2.6659484,-1.2991002,2.2847066,7.2667003,2.6755897999999996,-5.5547504
130,1778516231980,2.6659484,-1.2991002,2.2847066,7.2667003,2.6755897999999996,-5.5547504
131,1778516231990,2.6659484,-1.2991002,2.2847066,7.261966,2.6057984999999997,-5.535278999999999
132,1778516232000,2.6659484,-1.2991002,2.2847066,7.257231700000001,2.5360072,-5.5158076
133,1778516232010,2.6659484,-1.2991002,2.2847066,7.2572317,2.5360072,-5.5158076
134,1778516232020,2.6659484,-1.2991002,2.2847066,7.2572317,2.5360072,-5.5158076
135,1778516232030,2.6659484,-1.2991002,2.2847066,7.257231700000001,2.5360072,-5.5158076
136,1778516232040,2.6659484,-1.2991002,2.2847066,7.2572317,2.5360072,-5.5158076
137,1778516232050,2.6659484,-1.2991002,2.2847066,7.2572317,2.5360072,-5.5158076
138,1778516232060,2.6659484,-1.2991002,2.2847066,7.257231700000001,2.5360072,-5.5158076
139,1778516232070,2.6659484,-1.2991002,2.2847066,7.2572317,2.5360072,-5.5158076
140,1778516232080,2.6659484,-1.2991002,2.2847066,7.257231700000001,2.5360072,-5.5158076
141,1778516232090,2.6136892,-1.326967675,2.2543542,7.258529775,2.4350616499999997,-5.510386199999999
142,1778516232100,2.4569116,-1.4105701,2.163297,7.262424,2.132225,-5.494122
143,1778516232110,2.4569116,-1.4105701,2.163297,7.262424,2.132225,-5.494122
144,1778516232120,2.41629955,-1.427857675,2.164531875,7.295869,1.9781344,-5.5116844
145,1778516232130,2.4027622,-1.4336202,2.1649435,7.295869,1.9781344,-5.5116844
146,1778516232140,2.24817985,-1.477250775,2.068215325,7.295869,1.9781344,-5.5116844
147,1778516232150,2.1966524,-1.4917942999999998,2.0359726,7.295869,1.9781344,-5.5116844
148,1778516232160,2.1966524,-1.4917943,2.0359726,7.295869,1.9781344,-5.5116844
149,1778516232170,2.1966524,-1.4917943,2.0359726,7.295869,1.9781344,-5.5116844
150,1778516232180,2.1966524,-1.4917942999999998,2.0359726,7.295869,1.9781344,-5.5116844
151,1778516232190,2.1966524,-1.4917943,2.0359726,7.295869,1.9781344,-5.5116844
152,1778516232200,2.1966524,-1.4917942999999998,2.0359726,7.401243,1.4897476,-5.627748999999999
153,1778516232210,2.1966524,-1.4917943,2.0359726,7.401243,1.4897476,-5.627749
154,1778516232220,2.1966524,-1.4917942999999998,2.0359726,7.401243,1.4897476,-5.627748999999999
155,1778516232230,2.1966524,-1.4917943,2.0359726,7.401243,1.4897476,-5.627749
156,1778516232240,2.1348196,-1.4905544333333334,1.9815182,7.365965666666667,1.4579826333333334,-5.6459222
157,1778516232250,2.011154,-1.4880747,1.8726094,7.295411,1.3944527,-5.6822686
158,1778516232260,2.011154,-1.4880747,1.8726094,7.295411,1.3944527,-5.6822686
159,1778516232270,2.011154,-1.4880747,1.8726094,7.295410999999999,1.3944526999999998,-5.6822686
160,1778516232280,2.011154,-1.4880747,1.8726094,7.295411,1.3944527,-5.6822686
161,1778516232290,2.011154,-1.4880747,1.8726094,7.295411,1.3944527,-5.6822686
162,1778516232300,2.011154,-1.4880747,1.8726094,7.295410999999999,1.3944526999999998,-5.6822686
163,1778516232310,2.011154,-1.4880747,1.8726094,7.295411,1.3944527,-5.6822686
164,1778516232320,2.011154,-1.4880747,1.8726094,7.295411,1.3944527,-5.6822686
165,1778516232330,2.011154,-1.4880747,1.8726094,7.295410999999999,1.3944526999999998,-5.6822686
166,1778516232340,2.011154,-1.4880747,1.8726094,7.295411,1.3944527,-5.6822686
167,1778516232350,2.011154,-1.4880747,1.8726094,7.295411,1.3944527,-5.6822686
168,1778516232360,2.011154,-1.4880747,1.8726094,7.295410999999999,1.3944526999999998,-5.6822686
169,1778516232370,2.011154,-1.4880747,1.8726094,7.295411,1.3944527,-5.6822686
170,1778516232380,1.753898,-1.447828425,1.685830075,6.814812874999999,1.567518425,-5.59338775
171,1778516232390,1.668146,-1.434413,1.6235703,6.6546135,1.6252070000000003,-5.5637608
172,1778516232400,1.668146,-1.434413,1.6235703,6.6546135,1.625207,-5.5637608
173,1778516232410,1.668146,-1.434413,1.6235703,6.6546135,1.625207,-5.5637608
174,1778516232420,1.668146,-1.434413,1.6235703,6.6546135,1.6252070000000003,-5.5637608
175,1778516232430,1.5862511,-1.4238636,1.5833851,6.3884287,1.8289305,-5.4586916
176,1778516232440,1.5862511,-1.4238636,1.5833851,6.388428700000001,1.8289305,-5.458691599999999
177,1778516232450,1.5862511,-1.4238636,1.5833851,6.3884287,1.8289305,-5.4586916
178,1778516232460,1.5862511,-1.4238636,1.5833851,6.3884287,1.8289305,-5.4586916
179,1778516232470,1.5862511,-1.4238636,1.5833851,6.3884287,1.8289305,-5.4586916
180,1778516232480,1.5862511,-1.4238636,1.5833851,6.388428700000001,1.8289305,-5.458691599999999
181,1778516232490,1.5862511,-1.4238636,1.5833851,6.225633,1.9811887,-5.37256
182,1778516232500,1.5862511,-1.4238636,1.5833851,6.225632999999999,1.9811887,-5.37256
183,1778516232510,1.560304475,-1.4216836,1.568795825,6.225633,1.9811887,-5.37256
184,1778516232520,1.4824646,-1.4151436,1.525028,6.225633,1.9811887,-5.37256
185,1778516232530,1.3051372,-1.4038014,1.3778242999999997,5.8246,2.4958427,-5.0258937
186,1778516232540,1.3051372,-1.4038014,1.3778243,5.8246,2.4958427,-5.0258937
187,1778516232550,1.3051372,-1.4038014,1.3778243,5.8246,2.4958427,-5.0258937
188,1778516232560,1.3051372,-1.4038014,1.3778242999999997,5.8246,2.4958427,-5.0258937
189,1778516232570,1.3051372,-1.4038014,1.3778243,5.8246,2.4958427,-5.0258937
190,1778516232580,1.3051372,-1.4038014,1.3778242999999997,5.8246,2.4958427,-5.0258937
191,1778516232590,1.3051372,-1.4038014,1.3778243,5.793064075,2.538297825,-4.971984875
192,1778516232600,1.212067675,-1.3816203,1.266506825,5.6984563,2.6656632,-4.8102584
193,1778516232610,1.1810445,-1.3742266,1.229401,5.6984563,2.6656632,-4.8102584
194,1778516232620,1.1810445,-1.3742266,1.229401,5.6984563,2.6656632,-4.8102584
195,1778516232630,1.1437455666666667,-1.3596525333333334,1.1788086,5.6984563,2.6656632,-4.8102584
196,1778516232640,1.0691477,-1.3305044,1.0776238,5.6984563,2.6656632,-4.8102584
197,1778516232650,1.0691477,-1.3305044,1.0776238,5.628359574999999,2.714456025,-4.6126814750000005
198,1778516232660,1.0691477,-1.3305044,1.0776238,5.6049940000000005,2.7307203,-4.5468225
199,1778516232670,1.0045099,-1.2800747,0.9499944,5.604994,2.7307203,-4.5468225
200,1778516232680,1.0045099,-1.2800747,0.9499944,5.6049940000000005,2.7307203,-4.5468225
201,1778516232690,1.0045099,-1.2800747,0.9499944,5.604994,2.7307203,-4.5468225
202,1778516232700,1.0045099,-1.2800747,0.9499944,5.589009666666667,2.7024169,-4.471380666666667
203,1778516232710,0.96069625,-1.196426525,0.727633875,5.506797425,2.4271203249999997,-4.191528325
204,1778516232720,0.9460917,-1.1685438,0.6535137,5.449528699999999,2.217288,-4.1082215
205,1778516232730,0.9460917,-1.1685438,0.6535137,5.4495287,2.217288,-4.1082215
206,1778516232740,0.9460917,-1.1685438,0.6535137,5.4495287,2.217288,-4.1082215
207,1778516232750,0.9460917,-1.1685438,0.6535137,5.449528699999999,2.217288,-4.1082215
208,1778516232760,0.9460917,-1.1685438,0.6535137,5.4495287,2.217288,-4.1082215
209,1778516232770,0.9460917,-1.1685438,0.6535137,5.4495287,2.217288,-4.1082215
210,1778516232780,0.9460917,-1.1685438,0.6535137,5.449528699999999,2.217288,-4.1082215
211,1778516232790,0.9460917,-1.1685438,0.6535137,5.4495287,2.217288,-4.1082215
212,1778516232800,0.9460917,-1.1685438,0.6535137,5.4495287,2.217288,-4.1082215
213,1778516232810,0.9460917,-1.1685438,0.6535137,5.449528699999999,2.217288,-4.1082215
214,1778516232820,0.9460917,-1.1685438,0.6535137,5.4495287,2.217288,-4.1082215
215,1778516232830,0.9460917,-1.1685438,0.6535137,5.4495287,2.217288,-4.1082215
216,1778516232840,0.9460917,-1.1685438,0.6535137,5.449528699999999,2.217288,-4.1082215
217,1778516232850,0.9460917,-1.1685438,0.6535137,5.415053025000001,2.14932925,-4.1131083749999995
218,1778516232860,0.8970645,-1.1357371,0.5307627,5.311626,1.945453,-4.127769
219,1778516232870,0.8970645,-1.1357371,0.5307627,5.311626,1.945453,-4.127769
220,1778516232880,0.85248875,-1.13277955,0.497711985,5.311626,1.945453,-4.127769
221,1778516232890,0.807913,-1.129822,0.46466127,5.311626,1.945453,-4.127769
222,1778516232900,,,,,,
223,1778516232910,0.807913,-1.129822,0.46466127,5.311626,1.945453,-4.127769
224,1778516232920,0.807913,-1.129822,0.46466127,5.311626,1.945453,-4.127769
225,1778516232930,0.807913,-1.129822,0.46466127,5.311626,1.945453,-4.127769
226,1778516232940,0.807913,-1.129822,0.46466127,5.1696,1.8330538,-4.1383066
227,1778516232950,0.807913,-1.129822,0.4646612699999999,5.1696,1.8330538,-4.1383066
228,1778516232960,0.807913,-1.129822,0.46466127,5.1696,1.8330538,-4.1383066
229,1778516232970,0.807913,-1.129822,0.4646612699999999,5.1696,1.8330538,-4.1383066
230,1778516232980,0.7795272,-1.12748955,0.44557479,5.062622,1.80709205,-4.1188353
231,1778516232990,0.6504953,-1.11985195,0.3676739049999999,4.877606,1.77395265,-4.0760746999999995
232,1778516233000,0.6066208,-1.1192117,0.34703246,4.799568,1.766775,-4.0527854
233,1778516233010,0.6066208,-1.1192117,0.34703246,4.799568,1.766775,-4.0527854
234,1778516233020,0.6066208,-1.1192117,0.34703246,4.799568,1.766775,-4.0527854
235,1778516233030,0.6066208,-1.1192117,0.34703246,4.799568,1.766775,-4.0527854
236,1778516233040,0.516859465,-1.11067455,0.33575131,4.799568,1.766775,-4.0527854
237,1778516233050,0.42709813,-1.1021374,0.32447016,4.799568,1.766775,-4.0527854
238,1778516233060,0.42709813,-1.1021374,0.32447016,4.617937666666666,1.7809267333333334,-3.9390627333333335
239,1778516233070,0.42709813,-1.1021374,0.32447016,4.5271225,1.7880026,-3.8822014
240,1778516233080,0.42709813,-1.1021374,0.32447016,4.5271225,1.7880025999999998,-3.8822014
241,1778516233090,0.42709813,-1.1021374,0.32447016,4.5271225,1.7880026,-3.8822014
242,1778516233100,0.42709813,-1.1021374,0.32447016,4.5271225,1.7880025999999998,-3.8822014
243,1778516233110,0.42709813,-1.1021374,0.32447016,4.5271225,1.7880026,-3.8822014
244,1778516233120,0.2816018,-1.0551835,0.35471582,4.348329625,1.8252272,-3.6386953
245,1778516233130,0.2816018,-1.0551835,0.35471582,4.288732,1.8376354,-3.5575266000000005
246,1778516233140,0.2816018,-1.0551835,0.35471582,4.288732,1.8376354,-3.5575266
247,1778516233150,0.2816018,-1.0551835,0.35471582,4.288732,1.8376354,-3.5575266000000005
248,1778516233160,0.2816018,-1.0551835,0.35471582,4.288732,1.8376354,-3.5575266
249,1778516233170,0.2816018,-1.0551835,0.35471582,4.288732,1.8376354,-3.5575266000000005
250,1778516233180,0.2816018,-1.0551835,0.35471582,4.288732,1.8376354,-3.5575266
251,1778516233190,0.24942512,-1.0345319,0.3369505566666667,4.1636577,1.982105,-3.122285
252,1778516233200,0.2426361,-1.0245719,0.31129867,4.1636577,1.982105,-3.122285
253,1778516233210,0.2426361,-1.0245719,0.31129867,4.1636577,1.982105,-3.122285
254,1778516233220,0.2426361,-1.0245719,0.31129867,4.1636577,1.982105,-3.122285
255,1778516233230,0.2101951866666666,-1.016034833333333,0.2667025633333333,4.1636577,1.982105,-3.122285
256,1778516233240,0.19397473,-1.0117663,0.24440451,4.1761804,1.96981135,-3.087656575
257,1778516233250,0.19397473,-1.0117663,0.24440451,4.2137485,1.9329304,-2.9837713
258,1778516233260,0.19397473,-1.0117663,0.24440451,4.2137485,1.9329304,-2.9837712999999995
259,1778516233270,0.19397473,-1.0117663,0.24440451,4.2137485,1.9329304,-2.9837713
260,1778516233280,0.19397473,-1.0117663,0.24440451,4.2137485,1.9329304,-2.9837712999999995
261,1778516233290,0.19397473,-1.0117663,0.24440451,4.2137485,1.9329304,-2.9837713
262,1778516233300,0.19397473,-1.0117663,0.24440451,4.2137485,1.9329304,-2.9837713
263,1778516233310,0.18525471,-1.0109126,0.2213340566666666,4.2137485,1.9329304,-2.9837712999999995
264,1778516233320,0.16781467,-1.0092052,0.17519315,4.333173,1.7081319,-2.8469374
265,1778516233330,0.1678146699999999,-1.0092052,0.17519315,4.333173,1.7081319,-2.8469374
266,1778516233340,0.129489263,-1.0166599,0.13035821665,4.333173,1.7081319,-2.8469374
267,1778516233350,0.014513042,-1.039024,-0.0041465834,4.333173,1.7081319,-2.8469374
268,1778516233360,0.0145130419999999,-1.039024,-0.0041465834,4.333173,1.7081319,-2.8469374
269,1778516233370,0.014513042,-1.039024,-0.0041465834,4.5552604500000005,1.174846575,-2.703422275
270,1778516233380,0.0145130419999999,-1.039024,-0.0041465834,4.6292896,0.9970848,-2.6555839
271,1778516233390,-0.07306828825,-1.107442675,-0.13256871335,4.6292896,0.9970848,-2.6555839
272,1778516233400,-0.13651711125,-1.151423875,-0.2054235725,4.9640436,0.3145956,-2.4394903
273,1778516233410,-0.14793546,-1.1584822,-0.2154394,4.9640436,0.3145956,-2.4394903
274,1778516233420,-0.24923709,-1.2170679999999998,-0.390922225,5.0773212,0.1986839249999999,-2.3409883
275,1778516233430,-0.2830043,-1.2365966,-0.4494165,5.1150804,0.1600467,-2.3081543
276,1778516233440,-0.2830043,-1.2365966,-0.4494165,5.1150804,0.1600467,-2.3081543
277,1778516233450,-0.2830043,-1.2365966,-0.4494165,5.1150804,0.1600467,-2.3081543
278,1778516233460,-0.2830043,-1.2365966,-0.4494165,5.1150804,0.1600467,-2.3081543
279,1778516233470,-0.6541845,-1.5328130666666666,-1.003087,5.196528766666667,-0.0476983903333333,-1.7591901333333333
280,1778516233480,-0.9691419,-1.7389429,-1.3828856,5.2253413,-0.31688634,-1.381319
281,1778516233490,-0.9691419,-1.7389429,-1.3828856,5.2253413,-0.31688634,-1.381319
282,1778516233500,-0.9691419,-1.7389429000000003,-1.3828856,5.2253413,-0.31688634,-1.3813190000000002
283,1778516233510,-0.9691419,-1.7389429,-1.3828856,5.2253413,-0.31688634,-1.381319
284,1778516233520,-1.083980925,-1.834207675,-1.553429,5.293834525,-0.7898105849999999,-0.971161175
285,1778516233530,-1.1222606,-1.8659626,-1.6102768,5.3166656,-0.9474519999999998,-0.8344419
286,1778516233540,-1.1222606,-1.8659626,-1.6102768,5.3166656,-0.947452,-0.8344419
287,1778516233550,-1.1222606,-1.8659626,-1.6102768,5.3166656,-0.9474519999999998,-0.8344419
288,1778516233560,-1.1726295,-1.9829205,-1.7612003,5.526956,-2.3985624,0.027641652
289,1778516233570,-1.1726295,-1.9829205,-1.7612003,5.526956,-2.3985624,0.027641652
290,1778516233580,-1.1939111666666666,-2.0172721333333334,-1.8350664333333333,5.526956000000001,-2.3985624,0.027641652
291,1778516233590,-1.2364745,-2.0859754,-1.9827987,5.526956,-2.3985624,0.027641652
292,1778516233600,-1.2364745,-2.0859754,-1.9827987,5.526956000000001,-2.3985624,0.027641652
293,1778516233610,-1.2364745,-2.0859754,-1.9827987,5.526956,-2.3985624,0.027641652
294,1778516233620,-1.243593825,-2.087759,-2.016779325,5.526956,-2.3985624,0.027641652
295,1778516233630,-1.2055582,-2.0789018,-2.2786694,5.3995904999999995,-3.063642,0.32055154
296,1778516233640,-1.2055582,-2.0789018,-2.2786694,4.959195,-3.496592775,0.53702689
297,1778516233650,-1.2055582,-2.0789018,-2.2786694,4.8123965,-3.6409097,0.60918534
298,1778516233660,-1.1415757750000002,-2.04638465,-2.261885,3.97993985,-3.64652195,0.79679736
299,1778516233670,-1.1054456,-2.0117485,-2.22537375,2.5230642999999997,-3.14122185,1.0793607
300,1778516233680,-1.0610375,-1.9403572,-2.1326244,2.1299343,-2.972164900000001,1.1527027
301,1778516233690,-1.0610375,-1.9403572,-2.1326244,2.1299343,-2.9721649,1.1527027
302,1778516233700,-1.0610375,-1.9403572,-2.1326244,2.1299343,-2.972164900000001,1.1527027
303,1778516233710,-0.9639587,-1.8699262,-1.9090749,2.1299343,-2.9721649,1.1527027
304,1778516233720,-0.9639587,-1.8699262,-1.9090749,1.23555126,-2.4026858,1.3140475
305,1778516233730,-0.9639587,-1.8699262,-1.9090749,0.3411682199999999,-1.8332067,1.4753923
306,1778516233740,-0.8756608,-1.8556571,-1.6939404,-1.3790283,-0.64461553,1.7252362
307,1778516233750,-0.8756608,-1.8556571,-1.6939404,-1.3790283,-0.64461553,1.7252362
308,1778516233760,-0.8756608,-1.8556571,-1.6939404,-1.3790283,-0.64461553,1.7252362
309,1778516233770,-0.8756608,-1.8556571,-1.6939404,-2.4480042749999997,0.0766254199999999,1.870125775
310,1778516233780,-0.8756608,-1.8556571,-1.6939404,-2.8043296000000004,0.31703907,1.9184223
311,1778516233790,-0.8581750425,-1.856678475,-1.6070908,-2.8043296,0.31703907,1.9184223
312,1778516233800,-0.80571777,-1.8597426,-1.346542,-2.8043296,0.31703907,1.9184223
313,1778516233810,-0.8057177699999999,-1.8597426,-1.346542,-2.8043296000000004,0.31703907,1.9184223
314,1778516233820,-0.80571777,-1.8597426,-1.346542,-3.025386475,0.4450916925,1.959846625
315,1778516233830,-0.74697449,-1.8363672666666664,-1.00644084,-4.224591366666667,1.02716992,2.2662592
316,1778516233840,-0.5499101,-1.7826041,-0.55417866,-5.0118437,1.2153164,2.597399
317,1778516233850,-0.4788389,-1.74844055,-0.431473335,-5.156275174999999,1.2125675,2.69303765
318,1778516233860,-0.3231895933333333,-1.6842447,-0.2000319933333333,-5.3642623333333335,1.1550443333333331,2.880178666666667
319,1778516233870,-0.25721014,-1.6578407,-0.10476221,-5.444184,1.1267409,2.9578094
320,1778516233880,-0.25721014,-1.6578407000000002,-0.10476221,-5.4967184,1.0713049,3.0343204
321,1778516233890,-0.25721014,-1.6578407,-0.10476221,-5.4967184,1.0713049,3.0343204
322,1778516233900,-0.18836464,-1.5885073,0.06756492,-5.4967184,1.0713049,3.0343204
323,1778516233910,-0.18836464,-1.5885073,0.06756492,-5.4967184,1.0713049,3.0343204
324,1778516233920,-0.18836464,-1.5885073,0.06756492,-5.4967184,1.0713049,3.0343204
325,1778516233930,-0.1921250233333333,-1.5771855333333331,0.14840297,-5.510513766666667,1.0367910166666665,3.1235576
326,1778516233940,-0.19964579,-1.554542,0.31007907,-5.5381045,0.96776325,3.302032
327,1778516233950,-0.19964579,-1.5545420000000003,0.31007907,-5.5381045,0.96776325,3.302032
328,1778516233960,-0.212954495,-1.552849775,0.5254422375,-5.471214625,0.9116400375,3.64026055
329,1778516233970,-0.21739073,-1.5522857,0.59722996,-5.448918,0.8929323,3.7530034
330,1778516233980,-0.21739073,-1.5522857,0.59722996,-5.448918,0.8929323,3.7530034
331,1778516233990,,,,,,
332,1778516234000,,,,,,
333,1778516234010,-0.0992436,-1.52960145,0.884045515,-5.1758614,0.88040954,4.9087605
334,1778516234020,0.17848602,-1.4043502000000003,0.9244442,-5.1758614,0.88040954,4.9087605
335,1778516234030,0.17848602,-1.4043502000000003,0.9244442,-5.1758614,0.88040954,4.9087605
336,1778516234040,0.17848602,-1.4043502,0.9244442,-5.199303199999999,0.86826857,5.22137075
337,1778516234050,0.24216351,-1.381925125,0.92378865,-5.222745,0.8561276,5.533981
338,1778516234060,0.43319598,-1.3146499,0.921822,-5.222745,0.8561276000000001,5.533981
339,1778516234070,0.66259961,-1.2461093,0.9874051,-5.720295,0.75632755,6.1562997500000005
340,1778516234080,0.8920032399999999,-1.1775687,1.0529882,-5.964641,0.7122689000000001,6.3255095
341,1778516234090,1.1590921,-1.1195775,1.1574455,-6.1315598,0.68645985,6.3390249999999995
342,1778516234100,1.5604569,-1.0309747,1.4533165,-6.2984786,0.6606508,6.3525405
343,1778516234110,1.5604569,-1.0309747,1.4533165,-6.2984786,0.6606508,6.3525405
344,1778516234120,1.5604569,-1.0309747,1.4533165,-6.483188950000001,0.662827,6.2790457
345,1778516234130,1.5604569,-1.0309747,1.4533165,-7.03732,0.6693555999999999,6.0585613
346,1778516234140,1.5604569,-1.0309747,1.4533165,-7.03732,0.6693556,6.0585613
347,1778516234150,1.5604569,-1.0309747,1.4533165,-7.03732,0.6693556,6.0585613
348,1778516234160,1.5604569,-1.0309747,1.4533165,-7.03732,0.6693555999999999,6.0585613
349,1778516234170,1.5604569,-1.0309747,1.4533165,-7.2578425,0.7255552,5.7641244
350,1778516234180,1.5604569,-1.0309747,1.4533165,-7.2578425,0.7255552,5.7641244
351,1778516234190,1.5569506,-1.05195155,1.61320385,-7.2578425,0.7255552,5.7641244
352,1778516234200,1.5534443,-1.0729284,1.7730912000000003,-7.2578425,0.7255552,5.7641244
353,1778516234210,1.5534443,-1.0729284,1.7730912,-7.2578425,0.7255552,5.7641244
354,1778516234220,1.5534443,-1.0729284,1.7730912,-7.2578425,0.7255552,5.7641244
355,1778516234230,1.3516033,-1.1522623,2.1454911,-7.1385713,0.66675943,5.647296399999999
356,1778516234240,1.3516033,-1.1522623,2.1454911,-7.1385713,0.66675943,5.6472964
357,1778516234250,1.3516033,-1.1522623,2.1454911,-7.1385713,0.66675943,5.6472964
358,1778516234260,1.303104533333333,-1.1628117,2.2255974000000003,-7.1385713,0.66675943,5.647296399999999
359,1778516234270,1.17340685,-1.192600075,2.4521247,-6.6648455,0.453262,5.8041363
360,1778516234280,1.1625068,-1.1954966,2.4742296,-6.664845500000001,0.453262,5.8041363
361,1778516234290,1.1625068,-1.1954966,2.4742296,-6.6648455,0.453262,5.8041363
362,1778516234300,1.1625068,-1.1954966,2.4742296,-6.196617166666667,0.2674571666666667,5.991875433333334
363,1778516234310,1.3222723,-1.1282976,2.3567228,-4.737718,-0.22983804,6.6066604
364,1778516234320,1.3222723,-1.1282976,2.3567228,-4.737718,-0.22983804,6.6066604
365,1778516234330,1.3222723,-1.1282976,2.3567228,-4.737718,-0.22983804,6.6066604
366,1778516234340,1.3222723,-1.1282976,2.3567228,-4.737718,-0.22983804,6.6066604
367,1778516234350,1.3222723,-1.1282976,2.3567228,-4.737718,-0.22983804,6.6066604
368,1778516234360,1.712965875,-0.927554125,2.123172675,-4.4175865000000005,-0.2840141475,6.6760699
369,1778516234370,1.9319421,-0.8073032,1.9929212,-4.310876,-0.30207285,6.6992064
370,1778516234380,1.9319421,-0.8073032000000001,1.9929212000000005,-4.1105123,-0.1386664,6.474408
371,1778516234390,1.9319421,-0.8073032,1.9929212,-4.1105123,-0.1386664,6.474408
372,1778516234400,1.9319421,-0.8073032,1.9929212,-4.1105123,-0.1386664,6.474408
373,1778516234410,1.9452964,-0.7195542,1.9051111,-4.1105123,-0.1386664,6.474408
374,1778516234420,1.9452964,-0.7195542,1.9051111,-4.0983713,0.113926375,6.117815500000001
375,1778516234430,1.9452964,-0.7195542,1.9051111,-4.0862303,0.36651915,5.761223
376,1778516234440,1.9452964,-0.7195542,1.9051111,-4.0862303,0.36651915,5.761223
377,1778516234450,1.9452964,-0.7195542,1.9051111,-4.0862303,0.36651915,5.761223
378,1778516234460,1.9452964,-0.7195542,1.9051111,-4.0862303,0.36651915,5.761223
379,1778516234470,1.903998275,-0.706885775,1.876496625,-4.0862303,0.36651915,5.761223
380,1778516234480,1.7801039,-0.6688804999999999,1.7906532000000002,-4.0862303,0.36651915,5.761223
381,1778516234490,1.3674426,-0.65775179,1.332730225,-4.2934664499999995,0.55794906,5.44296225
382,1778516234500,1.3299557,-0.6600385,1.2426335,-4.3440156,0.57971114,5.429218
383,1778516234510,1.3299557,-0.6600385,1.2426335,-4.4158687,0.613499605,5.4220784
384,1778516234520,1.3299557,-0.6600385,1.2426335,-4.631428,0.714865,5.4006596
385,1778516234530,1.3299557,-0.6600385,1.2426335,-4.631428,0.714865,5.4006596
386,1778516234540,1.364347925,-0.679109725,1.08677075,-5.388976974999999,1.10715505,5.18441345
387,1778516234550,1.375812,-0.6854668,1.0348165,-5.6414933,1.2379184,5.1123314
388,1778516234560,1.4168509500000002,-0.68327155,1.01527265,-5.6414933,1.2379184,5.1123314
389,1778516234570,1.4578899,-0.6810763,0.9957288,-5.6414933,1.2379184,5.1123314
390,1778516234580,1.5736690666666666,-0.72764408,1.0983161,-6.1374141,1.0760391,4.6009351333333335
391,1778516234590,1.6346077,-0.790351,1.2137903,-6.49869,0.8174904,4.0903535
392,1778516234600,1.6346077,-0.790351,1.2137903,-6.49869,0.8174904,4.0903535
393,1778516234610,1.6346077,-0.7903509999999999,1.2137903,-6.49869,0.8174904,4.0903535
394,1778516234620,1.6725366,-0.8978573,1.279343,-6.485251,0.3831652,3.7733147
395,1778516234630,1.6725366,-0.8978573,1.279343,-6.445951933333333,0.0043269533333333,3.605835833333334
396,1778516234640,1.6725366,-0.8978573,1.279343,-6.4263024,-0.18509217,3.5220964
397,1778516234650,1.744492,-1.0467074,1.2154977,-6.4263024,-0.18509217,3.5220964
398,1778516234660,1.744492,-1.0467074,1.2154977,-6.4263024,-0.18509217,3.5220964
399,1778516234670,1.744492,-1.0467074,1.2154977,-6.4698265500000005,-0.2769510275,3.51152075
400,1778516234680,1.744492,-1.0467074,1.2154977,-6.600399,-0.5525276,3.4797938
401,1778516234690,1.75665735,-1.0075740125,1.225376325,-6.7495265,-0.60536745,3.5446219
402,1778516234700,1.7931534000000002,-0.89017385,1.2550122,-7.196909000000001,-0.763887,3.7391062
403,1778516234710,1.8295275,-0.7641909250000001,1.42468675,-7.196909,-0.763887,3.7391062
404,1778516234720,1.8659016,-0.638208,1.5943613,-7.196909000000001,-0.763887,3.7391062
405,1778516234730,2.2367616000000003,-0.4013039025,1.982051525,-7.300565225,-1.1798862,4.2563563
406,1778516234740,2.3603816,-0.32233587,2.1112816,-7.3351173,-1.3185526,4.428773
407,1778516234750,2.3603816,-0.32233587,2.1112816,-7.3351173,-1.3185526,4.428773
408,1778516234760,2.3603816,-0.32233587,2.1112816,-7.3351173,-1.3185526,4.428773
409,1778516234770,2.3603816,-0.32233587,2.1112816,-7.3351173,-1.3185526,4.428773
410,1778516234780,2.3603816,-0.32233587,2.1112816,-7.3351173,-1.3185526,4.428773
411,1778516234790,2.3603816,-0.32233587,2.1112816,-7.3351173,-1.3185526,4.428773
412,1778516234800,2.3603816,-0.32233587,2.1112816,-7.154199200000001,-1.4094188,4.423835166666667
413,1778516234810,3.08841195,0.0461612499999999,2.452826,-6.2812218,-1.75822285,4.02842725
414,1778516234820,3.8164423,0.41465837,2.7943704,-5.7700806,-1.9252945,3.642895
415,1778516234830,3.8164423,0.41465837,2.7943704,-5.7700806,-1.9252945,3.6428950000000007
416,1778516234840,3.9418967666666664,0.5072246966666666,2.8356735333333334,-5.125821133333333,-2.147140366666666,2.8862364666666664
417,1778516234850,3.654466375,0.6305551,2.909666725,-4.18687045,-2.41230685,2.1066451
418,1778516234860,3.0764601,0.80986434,3.023713,-3.5220964,-2.5604417,2.10046
419,1778516234870,3.0764601,0.80986434,3.023713,-3.5220964,-2.5604417,2.10046
420,1778516234880,3.2145777,1.203119,3.363733,-3.0311134,-2.6418395,2.855795
421,1778516234890,4.0919919,1.7253599,3.981329725,-2.6490171250000003,-2.549980625,3.16550375
422,1778516234900,4.3844633,1.8994402,4.1871953,-2.186744866666667,-2.3339633666666666,3.239316666666667
423,1778516234910,4.3844633,1.8994402,4.1871953,-1.5169312,-1.9631681,3.18047
424,1778516234920,4.3844633,1.8994402,4.1871953,-1.5169312,-1.9631681,3.18047
425,1778516234930,4.3844633,1.8994402,4.1871953,-1.5169312,-1.9631681,3.18047
426,1778516234940,4.426355975,1.9628585,4.2011596,-1.208902375,-1.7924313,3.02580655
427,1778516234950,4.552034,2.1531134,4.2430525,-0.2848159,-1.2802209,2.5618162
428,1778516234960,4.552034,2.1531134,4.2430525,-0.2848159,-1.2802209,2.5618162
429,1778516234970,4.552034,2.1531134,4.2430525,-0.2848159,-1.2802209,2.5618162
430,1778516234980,4.276713125,2.86512155,4.086274825,0.679893025,-1.0038043375,2.0623575
431,1778516234990,4.191647,3.383063,3.8832142,1.6736181,-0.7374670499999999,1.5908458
432,1778516235000,4.191647,3.383063,3.8832142,1.6736181,-0.73746705,1.5908458
433,1778516235010,4.191647,3.383063,3.8832142,1.6736181,-0.73746705,1.5908458
434,1778516235020,4.191647,3.383063,3.8832142,1.6888897,-0.0884227449999999,0.8584184
435,1778516235030,4.683383,3.7771106,3.4256878,1.6888897,-0.088422745,0.8584184
436,1778516235040,4.0311702,2.0682304666666664,2.829534866666666,2.1061615333333332,1.4714216333333334,-2.922786666666666
437,1778516235050,3.044324,1.5173447,2.408677,2.4236078,2.2047653,-4.352415
438,1778516235060,2.86948145,1.43490085,2.2812915499999997,2.3442717,2.225267525,-4.419228374999999
439,1778516235070,2.3449538,1.1875693,1.8991352,2.1062634,2.2867742,-4.6196685
440,1778516235080,1.9391985,1.045244,1.8109595,2.1062634,2.2867742,-4.6196685
441,1778516235090,1.9391985,1.045244,1.8109595,2.1062634,2.2867742,-4.6196685
442,1778516235100,1.9391985,1.045244,1.8109595,2.1062634,2.2867742,-4.6196685
443,1778516235110,1.9391985,1.045244,1.8109595,1.929303375,2.308154425,-4.6151252000000005
444,1778516235120,1.9391985,1.045244,1.8109595,1.016327,2.4839308,-4.532315
445,1778516235130,1.8789511,1.039633866666667,1.8490103666666664,1.016327,2.4839308,-4.532315
446,1778516235140,1.8488274,1.0368288,1.8680358,1.016327,2.4839308,-4.532315
447,1778516235150,1.8310214666666669,1.007985666666667,2.0481886,0.9060658466666666,2.5466972,-4.511138333333332
448,1778516235160,1.7381501,0.82334075,2.6649726,1.613638735,2.56788655,-4.65032625
449,1778516235170,1.7190636,0.7810212,2.7504654,1.9230038,2.5331054,-4.71084
450,1778516235180,,,,,,
451,1778516235190,,,,,,
452,1778516235200,-0.95133597,-3.3185472,-0.913346,2.2105687,1.29198,-0.09392053
453,1778516235210,0.9118622,0.0301440406666666,1.6163950666666669,-5.681352,1.7518088,4.2687263
454,1778516235220,0.9257858,0.06799178,1.5579567,-5.681352,1.7518088,4.2687263
455,1778516235230,0.9257858,0.06799178,1.5579567,-5.681352,1.7518088,4.2687263
456,1778516235240,0.9257858,0.06799178,1.5579567,-5.681352,1.7518088,4.2687263
457,1778516235250,1.056769,0.18537667,1.4482552,-6.252358400000001,2.0271564,4.1981716
458,1778516235260,1.2648299,0.29019985,1.3334924,-6.2523584,2.0271564,4.1981716
459,1778516235270,1.2648299,0.29019985,1.3334924,-6.473237166666667,2.129985366666667,4.1137703
460,1778516235280,1.2648299,0.29019985,1.3334924,-6.9149947,2.3356433,3.9449677
461,1778516235290,1.2648299,0.29019985,1.3334924,-7.283193466666667,2.4958936333333335,3.6957347
462,1778516235300,1.4244733,0.35032532,1.2944047,-8.019591,2.8163943,3.1972687
463,1778516235310,1.0738431,0.16330221,1.24428,-9.208946,3.1007519,1.7040086
464,1778516235320,0.63686645,-0.038965687,1.1903743,-9.411448,3.12152135,1.50860805
465,1778516235330,0.63686645,-0.038965687,1.1903743,-9.61395,3.1422908,1.3132075
466,1778516235340,0.3577038,-0.113299295,1.2187907,-9.72058425,3.0114893,1.295683375
467,1778516235350,0.319058255,-0.11691230875,1.26316825,-9.69916575,2.78879075,1.348103275
468,1778516235360,0.4913701,0.18842563,2.0103002,-7.340615,-0.06688975,2.313652
469,1778516235370,0.4913701,0.18842563,2.0103002,-7.340615,-0.06688975,2.313652
470,1778516235380,0.99231404,0.4812475999999999,2.0524979,-7.340615,-0.06688975,2.313652
471,1778516235390,0.99231404,0.4812476,2.0524979,-6.187912,-0.7867944,2.4397957
472,1778516235400,0.99231404,0.4812475999999999,2.0524979,-6.187912,-0.7867944000000001,2.4397957
473,1778516235410,0.99231404,0.4812476,2.0524979,-6.187912,-0.7867944,2.4397957
474,1778516235420,1.4805741,0.7374211,1.87017,-6.187912,-0.7867944000000001,2.4397957
475,1778516235430,1.4805741,0.7374211,1.87017,-6.187912,-0.7867944,2.4397957
476,1778516235440,1.4805741,0.7374211,1.87017,-6.187912,-0.7867944000000001,2.4397957
477,1778516235450,1.6373820499999998,0.8406893,1.7603161,-5.6610408,-1.0047206,2.34556985
478,1778516235460,1.7161062500000002,0.9679527825,1.500605875,-4.86584705,-0.7294112749999999,1.100015575
479,1778516235470,1.4676263333333337,0.9583892233333332,1.4189038333333333,-4.9496884,-0.5542075,0.8933904
480,1778516235480,1.4642928,0.95365316,1.4558775,-5.0265428750000005,-0.491670165,0.9271407
481,1778516235490,1.6674752,0.94389653,1.5910075,-5.2571063,-0.30405816,1.0283916
482,1778516235500,1.6674752,0.94389653,1.5910075,-5.4287596,-0.18112154,1.2266175
483,1778516235510,2.0834143,0.98310614,1.7296131,-5.523443699999999,-0.71944654,1.3448198
484,1778516235520,2.2453749,1.02804778,1.845275375,-5.5234437,-0.71944654,1.3448198
485,1778516235530,2.7312567,1.1628727,2.1922622,-5.524818025,-0.8638779799999999,1.30186835
486,1778516235540,2.7312567,1.1628727,2.1922622,-5.528941,-1.2971723,1.173014
487,1778516235550,2.7312567,1.1628727,2.1922622,-5.481599,-1.323846766666667,1.1681779666666667
488,1778516235560,2.8258965,1.3161134,2.5966148,-5.386915,-1.3771957,1.1585059
489,1778516235570,2.8258965,1.3161134,2.5966148,-5.386915,-1.3771957,1.1585059
490,1778516235580,2.8258965000000003,1.3161134,2.5966148,-5.386914999999999,-1.3771957,1.1585059
491,1778516235590,2.8258965,1.3161134,2.5966148,-4.9732065,-1.2056953,1.2447907
492,1778516235600,2.8258965000000003,1.3161134,2.5966148,-4.9732065,-1.2056953,1.2447907
493,1778516235610,2.8258965,1.3161134,2.5966148,-4.9732065,-1.2056953,1.2447907
494,1778516235620,2.8322994749999997,1.54387055,2.9379763249999997,-4.9732065,-1.2056953,1.2447907
495,1778516235630,2.8344338,1.6197896,3.0517635,-4.9732065,-1.2056953,1.2447907
496,1778516235640,2.8859915999999997,2.0186238999999997,3.623382,-4.11807155,-1.15155735,1.3271811
497,1778516235650,2.9724905666666666,2.2080150333333335,3.864798533333333,-2.4901412,-1.3236940666666666,1.3760248333333334
498,1778516235660,3.0815213,2.4162385,4.080665,-0.9445504,-1.7762434,1.3089315
499,1778516235670,3.0815213,2.4162385,4.080665,-0.9445504,-1.7762434,1.3089315
500,1778516235680,3.0815213,2.4162385,4.080665,-0.2499457333333333,-2.0512854666666667,1.2477431333333333
501,1778516235690,3.13326215,2.502707,4.05944435,1.1392636,-2.6013696,1.1253664
502,1778516235700,3.185003,2.5891755,4.0382237,1.1392636,-2.6013696,1.1253664
503,1778516235710,3.185003,2.5891755,4.0382237,1.1392636,-2.6013696,1.1253664
504,1778516235720,3.185003,2.5891755,4.0382237,1.1392636,-2.6013696,1.1253664
505,1778516235730,3.185003,2.5891755,4.0382237,1.1392636,-2.6013696,1.1253664
506,1778516235740,3.3052385749999997,2.71380165,3.9262199,2.20663615,-2.995034025,0.9673051
507,1778516235750,3.5668545,2.902151025,3.644755275,3.47013445,-3.197955875,0.5455790225
508,1778516235760,3.6407003,2.9510868,3.5633786,3.7727036,-3.2218560000000003,0.42256603
509,1778516235770,3.738023,3.00816325,3.44782305,4.150905799999999,-3.0309225,-0.1259527775
510,1778516235780,3.8353457,3.0652397,3.3322675,4.2769732,-2.967278,-0.30879238
511,1778516235790,3.7017405,3.0927415,2.4374592,4.2030582,-2.3658812,-1.919644
512,1778516235800,3.7017405,3.0927415000000003,2.4374592,4.2030582,-2.3658812,-1.919644
513,1778516235810,3.7017405,3.0927415,2.4374592,4.2030582,-2.3658812,-1.919644
514,1778516235820,3.7017405,3.0927415000000003,2.4374592,4.2030582,-2.3658812,-1.919644
515,1778516235830,3.7017405,3.0927415,2.4374592,4.2030582,-2.3658812,-1.919644
516,1778516235840,3.2248833,2.9959674,1.8471199,3.0140092,-1.4702,-3.0929635
517,1778516235850,3.2248833,2.9959674,1.8471199,3.0140092,-1.4702,-3.0929635
518,1778516235860,3.2248833,2.9959674,1.8471199,3.0140092,-1.4702,-3.0929635
519,1778516235870,3.2248833,2.9959674,1.8471199,3.0140092,-1.4702,-3.0929635
520,1778516235880,3.2248833,2.9959674,1.8471199,3.0140092,-1.4702,-3.0929635
521,1778516235890,2.582102,2.798456,1.5158811,1.6027577,-0.58169645,-3.714977
522,1778516235900,2.448049433333334,2.694547533333333,1.5558021,1.0670288756666666,-0.1882483166666666,-3.897676666666667
523,1778516235910,2.1799443,2.4867306,1.6356441,-0.004428773,0.59864795,-4.263076
524,1778516235920,1.8561042666666667,2.1474423,2.056542633333333,-0.7593055,1.3680327,-4.6825876
525,1778516235930,1.5752748,1.8768167,2.4568505,-0.7593055,1.3680327,-4.6825876
526,1778516235940,1.5752748,1.8768167,2.4568505,-0.7593055,1.3680327,-4.6825876
527,1778516235950,1.5752748,1.8768167,2.4568505,-0.7593055,1.3680327,-4.6825876
528,1778516235960,1.397596725,1.6598072,2.7294275,-0.0176005575,1.6759088,-5.3262485
529,1778516235970,1.273839525,1.4713816,2.901876625,0.5973498425,1.601001425,-5.4048975
530,1778516235980,1.080246,1.1231143,3.146647,1.7296649000000002,1.4770721,-5.43777
531,1778516235990,1.0657329333333332,0.9994485466666666,3.1157509,2.268804366666666,1.4900529999999998,-5.4033579000000005
532,1778516236000,1.0898806,0.5288723,2.8991935,3.3470833,1.5160148,-5.3345337
533,1778516236010,1.0898806,0.5288723,2.8991935000000004,4.2154284,1.5497651,-5.2578697
534,1778516236020,1.222098775,0.1985786524999999,2.61111265,4.2154284,1.5497651,-5.2578697
535,1778516236030,1.2661715,0.08848077,2.5150857,5.789679066666667,1.5162184333333333,-5.190216733333333
536,1778516236040,1.2661715,0.08848077,2.5150857,6.2054744,1.4534011,-5.203045
537,1778516236050,1.399045,-0.13945936,2.2964144,6.2054744,1.4534011,-5.203045
538,1778516236060,1.4777691,-0.38386387,2.0535955,6.5815004,1.2793045,-5.28986425
539,1778516236070,1.4777691,-0.38386387,2.0535955,6.7068424,1.2212723,-5.318804
540,1778516236080,1.4777691,-0.38386387,2.0535955,6.7068424,1.2212723,-5.318804
541,1778516236090,1.4591553,-0.5239939675,1.908892,6.79866295,1.075160975,-5.38176125
542,1778516236100,1.4529507,-0.570704,1.8606575,6.882008,0.8576548,-5.458234
543,1778516236110,1.4529507,-0.570704,1.8606575,6.882008,0.8576548,-5.458234
544,1778516236120,1.4117287,-0.6958943,1.7593709,6.882008,0.8576548,-5.458234
545,1778516236130,1.4657155666666668,-0.7530927466666667,1.7931941,6.807177066666667,0.6341799333333333,-5.440009333333333
546,1778516236140,1.9325823,-0.9678766525,2.17809965,6.985206025,0.2037617375,-5.87530175
547,1778516236150,2.174944,-1.1162440666666666,2.3502590666666667,7.372227433333333,0.44272458,-6.895548533333333
548,1778516236160,1.99409505,-1.2881239,2.2840968,7.525630575,0.943328675,-7.321563475
549,1778516236170,1.5495618999999998,-1.3790845,1.9733061333333335,7.6367316,1.0511464,-7.1616316
550,1778516236180,1.4742323,-1.3637991,1.8941958,7.6367316,1.0511464,-7.1616316
551,1778516236190,1.4481739666666666,-1.3474566333333335,1.7753271333333334,7.694254999999999,0.9115636666666664,-6.9986321333333334
552,1778516236200,1.3082776,-1.32150995,1.59981895,7.739166175,0.4038582875,-6.57714775
553,1778516236210,1.1814104,-1.3037345,1.4837451,7.7185113,0.1274417625,-6.290384899999999
554,1778516236220,1.093783333333333,-1.3264797666666668,1.3952033666666666,7.7095776,0.095294975,-6.197838999999999
555,1778516236230,0.9185292,-1.3719703,1.2181199,7.7095776,0.095294975,-6.197839
556,1778516236240,0.9185292,-1.3719703,1.2181199,7.7095776,0.095294975,-6.197838999999999
557,1778516236250,0.9185292,-1.3719703,1.2181199,7.71816765,-0.06414085375,-5.791804225
558,1778516236260,,,,,,
559,1778516236270,,,,,,
560,1778516236280,0.9185292,-1.3719703,1.2181199,7.721031,-0.11728613,-5.6564593
561,1778516236290,0.67814934,-1.4147167,0.94200623,7.721031,-0.11728613,-5.6564593
562,1778516236300,0.67814934,-1.4147167,0.94200623,7.686441,-0.2407572725,-5.363587825
563,1778516236310,0.5445236466666666,-1.4713866333333332,0.78195621,7.669718566666667,-0.39578977,-4.783889466666667
564,1778516236320,-0.0394077975,-1.682430525,0.087123985,7.6772016,-0.6869179624999999,-4.09359885
565,1778516236330,-0.3996575,-1.7837017,-0.30672523,7.6240563,-1.234406,-3.4165692
566,1778516236340,-0.3996575,-1.7837017,-0.30672523,7.6240563,-1.234406,-3.4165692
567,1778516236350,-0.3996575,-1.7837017,-0.30672523,7.6240563,-1.234406,-3.4165692
568,1778516236360,-0.5945773775000001,-1.8444826,-0.5337049075,7.50730465,-1.4848607,-3.1054861
569,1778516236370,-0.65955067,-1.8647429,-0.6093648,7.390553,-1.7353154,-2.7944030000000004
570,1778516236380,-0.744708065,-1.9126726,-0.9109678,6.6280405,-2.0554852,-2.2683717
571,1778516236390,-0.70327276,-2.0717063,-1.0667696,2.1423044,-1.1522446,-0.8017606
572,1778516236400,-0.70327276,-2.0717063,-1.0667696,2.1423044,-1.1522446,-0.8017606
573,1778516236410,-0.70327276,-2.0717063,-1.0667696,1.539736743333333,-0.7144578333333333,-0.6646722666666667
574,1778516236420,-0.8288898275000001,-2.206012925,-0.62543283,-0.570357235,1.034042125,0.0446695199999999
575,1778516236430,-0.9004793466666667,-2.385992933333333,-0.2584093733333333,-1.986788266666667,2.4236587333333333,0.8387688799999999
576,1778516236440,-1.1184494,-2.383370775,-0.1865809975,-2.022765775,2.73297285,1.815453385
577,1778516236450,-1.1442741,-2.3676991,-0.20903657,-2.0112739,2.8115072,2.1209242
578,1778516236460,-1.0145510800000002,-2.1565079666666667,-0.3549800566666666,-1.9962058333333337,2.549853333333333,2.6222409333333334
579,1778516236470,-0.94968957,-2.0509124,-0.4279518,-2.2546272750000003,1.917467875,3.411682575
580,1778516236480,-0.94968957,-2.0509124,-0.4279518,-2.3432791,1.7502816999999995,3.591277
581,1778516236490,-0.94968957,-2.0509124,-0.4279518,-2.6401596,1.454012,3.8698313
582,1778516236500,-0.94968957,-2.0509124,-0.4279518,-2.6401596,1.454012,3.8698313
583,1778516236510,-0.94968957,-2.0509124,-0.4279518,-2.6401596,1.454012,3.8698313
584,1778516236520,-0.8849907,-1.9560287,-0.3787416,-2.6401596,1.454012,3.8698313
585,1778516236530,-0.7268513666666667,-1.8197403,0.0193507299999999,-3.8899898,1.516167533333333,4.587547
586,1778516236540,-0.6972968,-1.8033979,0.10683551,-4.1221185,1.6143641,4.703815
587,1778516236550,-0.6972968,-1.8033979,0.1068355099999999,-4.1221185,1.6143641000000002,4.703815
588,1778516236560,-0.6972968,-1.8033979,0.10683551,-4.2621593749999995,1.712522525,4.774980749999999
589,1778516236570,-0.5724927333333333,-1.7592895666666666,0.28660209,-5.403917333333333,2.5139142000000003,5.310913333333333
590,1778516236580,-0.5100907,-1.7372354,0.37648538,-6.072955,2.94421775,5.5907915
591,1778516236590,0.070735835,-1.7060751000000005,0.9499944,-7.591069700000001,3.3452508,6.086203
592,1778516236600,0.4565205375,-1.6738781500000002,1.4599022,-8.240228675000001,2.394286325,6.402402175
593,1778516236610,0.9597511266666666,-1.6219036333333332,2.1011184666666667,-8.359233,1.0509937,6.637967
594,1778516236620,1.1946429,-1.5823485,2.3637354,-8.359233,1.0509937,6.637967
595,1778516236630,1.1946429,-1.5823485,2.3637354,-8.194655666666668,0.8772534333333333,6.636694333333334
596,1778516236640,1.67156085,-1.350795375,2.6240556,-6.04092275,0.0743728474999999,6.47013195
597,1778516236650,1.8305335000000005,-1.273611,2.710829,-5.43273,-0.07742717,6.415459600000001
598,1778516236660,1.8305335,-1.273611,2.710829,-5.43273,-0.07742717,6.4154596
599,1778516236670,1.7043067,-1.0337494,2.262571,-5.135315,0.247094965,6.59207605
600,1778516236680,1.5780799,-0.7938877999999999,1.814313,-4.962312900000001,0.6081672133333332,6.8234666666666675
601,1778516236690,1.59353815,-0.71970665,1.594056375,-5.2111387,0.68126744,6.933015
602,1778516236700,1.8800488,-0.65729445,1.3840442,-6.1128775666666675,0.92490088,7.142439866666667
603,1778516236710,1.94865035,-0.6612123525,1.42191225,-6.563747,1.0467176,7.2471523
604,1778516236720,2.154455,-0.6729660599999999,1.5355164,-6.563747,1.0467176,7.2471523
605,1778516236730,2.29860975,-0.65976408,1.87571915,-7.6087847,1.3744467,7.1573553
606,1778516236740,2.3608287666666663,-0.5872497,2.327412133333333,-7.800189133333333,1.3968451666666668,6.196006333333333
607,1778516236750,2.1969573,-0.4686249,2.5503926,-7.4957747,1.2544118,5.002834
608,1778516236760,2.0601963,-0.45655103,2.548426,-7.322823525,1.160376725,4.91269315
609,1778516236770,1.6499133,-0.42032942,2.5425262,-6.80397,0.8782715,4.6422706
610,1778516236780,1.3898982,-0.4531362,2.5170372,-6.530684,0.84704103,4.7366493
611,1778516236790,1.3898982,-0.4531362,2.5170372,-6.257397999999999,0.81581056,4.831028
612,1778516236800,1.493867625,-0.2278181674999999,2.44963995,-5.78668825,0.762817995,5.031964425
613,1778516236810,1.9033427,0.05640573,2.3626988,-4.374559,0.6038403,5.6347737
614,1778516236820,2.033390966666667,0.1441547533333333,2.3084476666666665,-4.374559,0.6038403,5.6347737
615,1778516236830,2.2934875,0.3196528,2.1999454,-4.374559,0.6038403,5.6347737
616,1778516236840,2.4060145,0.5122656466666667,2.015219133333334,-3.2881858000000004,0.3024292133333333,4.847470333333334
617,1778516236850,2.5592957,0.76638615,1.6726586,-3.0976977,0.40317106,4.0802746
618,1778516236860,2.5592957,0.7663861500000001,1.6726586,-3.0976977,0.40317106,4.0802746
619,1778516236870,2.6239946,0.9389573,1.5510051,-3.477045,0.681572885,3.2167401
620,1778516236880,2.6894863,1.2261691,1.4512431999999995,-3.664886000000001,0.7828238,2.8699977000000003
621,1778516236890,2.7227809,1.266095225,1.4432092,-3.747772825,0.787367125,2.75053535
622,1778516236900,2.95502005,1.4230099,1.56896355,-4.3421829,0.8415432700000001,1.9597321
623,1778516236910,3.0873754000000004,1.4601461999999998,1.7188199,-4.6879325,0.88208944,1.5273159000000005
624,1778516236920,3.123597,1.4686833,1.88547595,-4.748217224999999,0.984943855,1.403882925
625,1778516236930,3.1598186,1.4772204,2.052132,-4.9290714,1.2935071,1.033584
626,1778516236940,2.8939798999999997,1.57771395,2.5245986,-4.4023533,1.1855367,1.2281445
627,1778516236950,2.8283358,1.5859461999999998,2.7415016,-4.4023533,1.1855367,1.2281445
628,1778516236960,2.9202313,1.7555293,3.2842159999999994,-3.3171510000000004,0.88193667,1.91155
629,1778516236970,2.9352322,1.809770275,3.3788709,-2.7958537999999997,0.83764896,2.12680375
630,1778516236980,2.980234900000001,1.9724932,3.6628356,-2.2745566,0.7933612499999999,2.3420575
631,1778516236990,2.980234900000001,1.9724932,3.6628356,-2.2745566,0.7933612499999999,2.3420575
632,1778516237000,3.0850886500000003,2.2860786,3.9476693,0.15557975,0.7394142,2.941888825
633,1778516237010,3.1899424,2.599664,4.232503,3.485648,0.44501533,3.132262466666667
634,1778516237020,3.787965,2.9448671,3.6380782,5.4716727,0.06345363,2.8420505499999997
635,1778516237030,4.2847013,2.8931568,2.9732833,6.197686,-0.17989981,2.5566237
636,1778516237040,4.257946725,2.864649025,2.677945925,6.499568,-0.3397937825,2.2225186
637,1778516237050,4.177683,2.7791257,1.7919338,7.405214,-0.8194757,1.2202033
638,1778516237060,4.177683,2.7791257,1.7919338,7.405214,-0.8194757,1.2202033
639,1778516237070,4.042614,2.7473758,1.5423664,7.319692799999999,-0.8950193866666667,0.6579018666666667
640,1778516237080,3.60356395,2.63076315,0.762453015,6.67263385,-0.88896164,-0.071013075
641,1778516237090,3.4346519,2.5776503,0.48167443,6.0683355,-0.84513205,-0.5187773
642,1778516237100,3.4346519,2.5776503,0.48167443,5.685730133333333,-0.9190467666666668,-0.7922413333333335
643,1778516237110,3.494411,2.6089327,0.16458277,4.9205194,-1.0668762,-1.3391694
644,1778516237120,3.462397,2.5852728,-0.13842271,3.58906235,-1.0965795,-2.1298581
645,1778516237130,3.4623970000000006,2.5852728,-0.13842271,2.2576053,-1.1262828,-2.9205468
646,1778516237140,3.369282,2.4813643,0.050307814,0.67073005,-0.7322747,-3.6913059
647,1778516237150,3.31619965,2.391023675,0.1882426854999999,0.67073005,-0.7322747,-3.6913059
648,1778516237160,3.1569526,2.1200018,0.6020473,0.67073005,-0.7322747,-3.6913059
649,1778516237170,2.8826682999999997,1.91303845,1.09067335,-3.3250923,1.4908166,-6.129269
650,1778516237180,1.8600476,1.0964258,2.7859958666666667,-2.551838566666667,1.9225456333333335,-6.757594999999999
651,1778516237190,1.4862758,0.82221262,3.18978975,-1.6601407275,1.9444986,-6.76727975
652,1778516237200,1.2800747,0.66869754,3.3404388,-0.17608191,1.9494237,-6.588029
653,1778516237210,1.2800747,0.66869754,3.3404388,-0.17608191,1.9494237,-6.588029
654,1778516237220,1.2800747,0.66869754,3.3404388,-0.17608191,1.9494237,-6.588029
655,1778516237230,1.1962893666666667,0.4833005466666666,3.2515109333333334,0.90178983,2.0620265,-6.324644133333333
656,1778516237240,1.1451279,0.29983455,3.1149988,1.4407257,2.1183279,-6.1929517
657,1778516237250,1.1451279,0.29983455,3.1149988,1.4407257,2.1183279,-6.192951699999999
658,1778516237260,1.1029302,0.10384752,2.850898,2.893516,2.3087652,-5.8154373
659,1778516237270,1.1029302,0.10384752,2.850898,2.893516,2.3087652,-5.8154373
660,1778516237280,1.1106745,-0.17720546,2.2766573,5.8336105,2.222786,-4.912578
661,1778516237290,1.1106745,-0.17720546,2.2766573,6.26869925,1.94652215,-4.767879499999999
662,1778516237300,1.3310126333333334,-0.4240897766666666,1.9474307333333336,7.311751400000001,1.1235338,-4.5417833
663,1778516237310,1.4966726,-0.5778996,1.7405893,8.192543,0.0695622774999999,-4.75497515
664,1778516237320,1.5284224,-0.6154221,1.6477791,8.278446,-0.088728175,-4.807357
665,1778516237330,1.5210034,-0.7057729,1.3581281,8.319603,-0.4205043524999999,-5.0219997
666,1778516237340,1.4959409,-0.8337072,1.4541093,7.658112,-0.8023715,-5.680283
667,1778516237350,1.60401125,-0.8116632,1.58056485,7.842746,-1.4605024,-6.168288
668,1778516237360,1.5787709666666665,-0.6882921999999999,1.4994574333333333,6.402173066666667,-2.3990205,-7.180008333333333
669,1778516237370,0.7256825825,-1.132306975,0.834728585,6.06287565,-1.84332405,-6.131712800000001
670,1778516237380,0.34416643,-1.3694092,0.37599754,6.214943,-1.6841555,-5.4440312
671,1778516237390,0.34416643,-1.3694092,0.37599754,5.832439466666666,-1.7874935666666667,-5.095023333333334
672,1778516237400,0.34416643,-1.3694092,0.37599754,5.6411877,-1.8391626,-4.9205194
673,1778516237410,0.23763582,-1.5492977,-0.16385102,5.316360133333333,-1.7918714333333334,-4.8110726999999995
674,1778516237420,0.190620885,-1.61241115,-0.292242675,4.666705,-1.6972891,-4.5921793
675,1778516237430,0.14360595,-1.6755246,-0.42063433,4.666705,-1.6972891,-4.5921793
676,1778516237440,-0.14952092,-1.9661512,-0.62564623,3.6322048,-1.4117095666666666,-4.352720233333334
677,1778516237450,-0.34758126,-2.080914,-0.624792545,2.0039817,-0.750180675,-3.705623125
678,1778516237460,-0.5456416,-2.1956768,-0.62393886,-1.3289373,0.8060367,-2.1235204
679,1778516237470,,,,,,
680,1778516237480,-0.8868201,-2.6321657,-0.04756375,0.93126404,1.95034,2.5141687
681,1778516237490,-0.8868201,-2.6321657,-0.04756375,0.93126404,1.95034,2.5141687
682,1778516237500,-0.3041031,-1.7147342,-0.7341282000000001,-2.377080266666667,2.5003732666666667,5.891082666666667
683,1778516237510,-0.3041031,-1.7147342,-0.7341282,-5.567425849999999,3.4135149499999997,7.1304775
684,1778516237520,-0.3041031,-1.7147342,-0.7341282000000001,-7.2815137,3.802636099999999,7.755851
685,1778516237530,0.035977725,-1.62797605,-0.5224542640000001,-7.2815137,3.8026361,7.755851
686,1778516237540,1.0562202,-1.3677016,0.112567544,-7.2815137,3.802636099999999,7.755851
687,1778516237550,1.6346685,-1.2125098,0.41514617,-10.671548425,3.103080825,7.11062435
688,1778516237560,1.732677275,-1.1620038,0.5955682775,-10.80502225,3.4618878,7.6252018
689,1778516237570,1.7752866,-1.1434203,1.6486328,-12.244183,2.7763824000000006,6.719212
690,1778516237580,1.70470315,-0.536769085,1.5411875,-5.482935475,0.4827744,5.428492
691,1778516237590,1.6341197,0.06988213,1.4337422,-3.2291863,-0.2817616,4.998252
692,1778516237600,1.6341197,0.06988213,1.4337422,-3.2291863,-0.2817616,4.998252
693,1778516237610,1.6341197,0.06988213,1.4337422,-3.2291863,-0.2817616,4.998252
694,1778516237620,1.300456975,0.69459845,2.208848375,-4.2255839,-0.2553416775,3.73540275
695,1778516237630,1.7506102666666667,0.8811083333333333,2.0947565,-4.899241133333334,-0.5242242033333334,1.6014851
696,1778516237640,2.6888916750000003,2.16262615,3.842053425000001,-0.3264692350000001,-0.6046420375,-0.0193567249999999
697,1778516237650,1.9863964,1.428132,2.637898,-0.22968534,0.44516805,-4.5706463
698,1778516237660,1.9863964,1.428132,2.637898,0.46200504,0.7921013625,-5.402186825
699,1778516237670,1.8931795666666664,1.11349985,2.7210734999999997,1.1873693333333335,0.8776097666666667,-5.766160766666666
700,1778516237680,1.7067459,0.48423555,2.8874245,2.176971,0.8173377,-5.9397483
701,1778516237690,1.7067459,0.48423555,2.8874245,4.7972775,0.90285883,-6.11720465
702,1778516237700,2.310277033333333,-0.4674866366666666,2.4192264666666667,8.083834666666666,0.0331903533333333,-7.008965933333333
703,1778516237710,2.736684,-0.9469455,2.1934206,8.41696,-0.44440445,-7.3661184
704,1778516237720,2.736684,-0.9469455,2.1934206,9.952471166666667,-0.6785185633333333,-9.730676133333334
705,1778516237730,2.736684,-0.9469455,2.1934206,10.825448,-0.64736444,-10.964878
706,1778516237740,2.736684,-0.9469455,2.1934206,10.825448,-0.64736444,-10.964878
707,1778516237750,2.432418333333333,-1.0862625666666668,1.7695544,9.009956666666666,-0.7518732933333334,-10.292824666666666
708,1778516237760,1.823887,-1.3648967,0.921822,5.378974,-0.960891,-8.948718
709,1778516237770,1.823887,-1.3648967,0.921822,5.378974,-0.960891,-8.948718
710,1778516237780,0.81626713,-2.242631,1.1101867,4.1710642,-0.4886540025,-7.9468605
711,1778516237790,0.81626713,-2.242631,1.1101867,3.7684276,-0.33124167,-7.612908
712,1778516237800,0.81626713,-2.242631,1.1101867,4.314694,-0.5555819,-3.8169916
713,1778516237810,0.81626713,-2.242631,1.1101867,4.314694,-0.5555819,-3.8169916
714,1778516237820,-0.37793367,-2.891418725,0.403727825,-1.77899235,3.32051075,1.34810325
715,1778516237830,-0.4251468,-2.8276039999999996,0.39093745,-1.724778,3.3692271999999996,1.6360499
716,1778516237840,-0.41773779,-2.4979505,0.282684175,-1.7388279,3.31325675,2.2052235
717,1778516237850,-0.4152681200000001,-2.388066,0.24659975,-1.9009108666666668,3.3970726333333334,2.949919133333333
718,1778516237860,-0.452358695,-2.2402983,0.1069727075,-2.196977,3.6766453,3.3009632
719,1778516237870,-0.46472222,-2.1910424,0.06043036,-2.196977,3.6766453,3.3009632
720,1778516237880,-0.5313318,-2.0658521333333333,-0.0717521533333333,-2.196977,3.6766453,3.3009632
721,1778516237890,-0.66455096,-1.8154716,-0.33611718,-2.196977,3.6766453,3.3009632
722,1778516237900,-0.66455096,-1.8154715999999995,-0.33611718,-2.196977,3.6766453,3.3009632
723,1778516237910,-0.43412593,-1.71371265,-0.1892336025,-6.296379,3.63243385,4.807891425
724,1778516237920,1.32347152,-0.9576372,1.74308951,-11.702040000000002,3.223994,6.511213000000001
725,1778516237930,1.877167425,-0.6976627,2.570531075,-11.2958145,2.3647357,6.12453515
726,1778516237940,1.9387716,-0.5939371,2.8153472,-10.889589,1.5054774,5.737857299999999
727,1778516237950,1.3351998,-0.34867886,2.95627,-10.889589,1.5054774,5.7378573
728,1778516237960,1.4292296999999998,-0.24818522,2.5503316,-5.853616,-0.17760907,5.8878245
729,1778516237970,1.43898635,-0.229342655,2.43822145,-5.540051249999999,-0.205021645,5.863695375
730,1778516237980,1.4630121333333337,-0.1945235466666666,2.1991324,-4.599357,-0.28725937,5.791308
731,1778516237990,1.50734405,-0.1386361375,1.75885275,-4.599357,-0.28725937,5.791308
732,1778516238000,1.4408158333333334,-0.097993525,1.3012141666666668,-4.2279512,-0.2554434833333333,5.341049533333333
733,1778516238010,1.395813175,-0.0007774855,0.89993055,-4.230242,-0.23457226,5.2415295
734,1778516238020,1.0036561,-0.415847435,1.23638305,-8.930583,0.9837603,4.05671785
735,1778516238030,0.94225013,-0.45819747,2.1607969,-9.220552,1.0045679,4.327369
736,1778516238040,0.94225013,-0.45819747,2.1607969,-9.220552,1.0045679,4.327369
737,1778516238050,1.4452063,-0.16055815,2.5837483,-6.795493499999999,-0.2541963499999999,4.1828994999999995
738,1778516238060,2.0180039666666665,0.5961120166666667,2.3131634333333335,-4.370435,-1.5129606000000002,4.03843
739,1778516238070,2.3044028,0.9744471,2.177871,-4.370435,-1.5129606,4.03843
740,1778516238080,2.3044028,0.9744471,2.177871,-4.528445566666666,-0.98298406,4.118504233333334
741,1778516238090,2.2987927,1.00983025,2.22090705,-4.8444667,0.07696902,4.2786527
742,1778516238100,2.2819624,1.1159797,2.3500152,-4.929886033333333,0.4736242066666666,4.372216900000001
743,1778516238110,2.8324518999999997,1.5195552,3.140426975,-4.501618725,0.789237895,4.5464792
744,1778516238120,2.9865158,1.6183262,3.3386092,-4.3446264,0.82833326,4.5889726
745,1778516238130,2.9865158,1.6183262,3.3386092,-3.5393531,0.49754974,4.5388813
746,1778516238140,3.3167179,2.1667118,3.7245467,-1.82415815,-0.22048418,4.092186175
747,1778516238150,3.3167179,2.1667118,3.7245467,-1.2524265,-0.45982882,3.9432878
748,1778516238160,3.22299295,2.550362375,3.491392775,0.7761424499999999,-0.4420755475,3.643085775
749,1778516238170,3.5856768666666667,2.923504,2.647024366666667,4.546466333333334,0.4476624066666666,2.739628833333333
750,1778516238180,3.940047,3.219578,1.6777807,5.5773526,0.0343611749999999,1.629673925
751,1778516238190,3.841565600000001,3.3590987,0.7648617,5.2933,-0.20143281,0.35995236
752,1778516238200,3.59667315,3.4387372750000003,0.1795074244999999,3.500219575,0.0881173049999999,-0.6501515099999999
753,1778516238210,3.421663,3.474593,-0.010122542,2.9025261000000007,0.18463401,-0.9868528
754,1778516238220,3.421663,3.474593,-0.010122542,2.544482725,0.2293798925,-1.131589675
755,1778516238230,3.421663,3.474593,-0.010122542,1.4703526,0.36361754,-1.5658003
756,1778516238240,3.3644035999999997,3.418268566666667,0.285829672,1.4703526,0.3636175400000001,-1.5658003
757,1778516238250,3.20674205,3.2293652,1.2050398,-1.1204795675,0.438334005,-3.283400625
758,1778516238260,2.991637966666667,2.9367567,1.9526953,-1.3035354666666663,0.36835175,-4.108679566666667
759,1778516238270,2.579754025,2.5350106500000003,2.45872585,-1.2272282175,0.38866301,-4.60019705
760,1778516238280,2.4711196,2.4371543,2.5573444,-0.95737857,0.54076844,-5.1250067
761,1778516238290,2.2053726,2.1977503,2.745526,-0.715705005,0.7236844100000001,-5.308724375000001
762,1778516238300,1.9669846666666668,1.8789918333333333,2.9261464000000004,-0.2655227666666667,1.024421,-5.4449474
763,1778516238310,1.7914307,1.629698825,3.0403298750000003,0.689666875,1.58817325,-5.594838575000001
764,1778516238320,1.501551,1.0998813,3.061581,1.81297165,2.00119455,-5.55917915
765,1778516238330,1.501551,1.0998813,3.061581,2.2884538,2.1615467,-5.523749
766,1778516238340,1.44952055,0.7009555574999999,2.86338345,3.5648568249999997,2.3903921,-5.351026774999999
767,1778516238350,1.443072,0.47496673,2.7490627999999995,4.4716864,2.413834,-5.211902
768,1778516238360,1.443072,0.47496673,2.7490628,5.175632200000001,2.19201355,-5.1307335
769,1778516238370,1.8880776666666668,-0.1710872199999999,2.4693107666666667,6.249660566666667,1.7811303333333333,-5.0851478000000006
770,1778516238380,2.0227401,-0.43905002,2.3365388,6.9898257,1.4030048,-5.1563134
771,1778516238390,2.0227401,-0.43905002,2.3365388,7.231881025,1.2714396825,-5.2372149
772,1778516238400,1.9860509333333336,-0.5502556966666666,2.1854933666666665,8.315403333333334,0.6529640433333334,-5.6806904666666656
773,1778516238410,1.854772975,-0.9315939625,1.4639269,7.877183625,0.41657192,-6.01278475
774,1778516238420,1.912992725,-0.967510775,1.3518166749999998,7.2184415,0.277600075,-6.23468175
775,1778516238430,1.9385683666666669,-0.9790612666666666,1.4129482666666666,7.067405,0.24510968,-6.282902
776,1778516238440,1.92407565,-1.02618795,1.5351505,6.717226650000001,0.286037655,-6.52175
777,1778516238450,1.9101114,-1.0388411,1.5535662,6.3670483,0.32696563,-6.760597999999999
778,1778516238460,1.87439285,-1.049314275,1.54693475,5.8201714,0.72692966,-7.119329
779,1778516238470,1.7672372,-1.0807338,1.5270404,5.8201714,0.72692966,-7.119329
780,1778516238480,1.7672372,-1.0807338,1.5270404,5.8201714,0.72692966,-7.119329
781,1778516238490,1.574360125,-1.1321392499999998,1.4347331,4.698278875,1.746349225,-7.259713375
782,1778516238500,1.314385666666667,-1.1944803,1.2654599666666666,3.9403861,2.6431120999999997,-7.200879433333333
783,1778516238510,0.59573595,-1.23873075,1.4080395,2.598009925,4.3961682500000006,-6.2663320250000005
784,1778516238520,0.5533859,-1.2696472,1.4735006,3.8374555,3.3186781,-5.294522
785,1778516238530,0.5904003,-1.2416984666666666,1.6423518666666668,4.249178666666666,2.9271644,-5.169803666666667
786,1778516238540,0.45685592,-1.2808064,1.45167,5.072625,2.144137,-4.920367
787,1778516238550,0.45685592,-1.2808064,1.45167,6.214408499999999,1.08604205,-4.36524295
788,1778516238560,0.28818756,-1.2959293,0.94023776,6.6504900000000005,0.6805039,-4.0391936
789,1778516238570,0.2660826075,-1.298155025,0.8465432825,6.65049,0.6805039,-4.0391936
790,1778516238580,0.184705895,-1.34425525,0.438226805,6.776939,0.5342017,-3.438866
791,1778516238590,0.16964404,-1.3836783,0.31099376,6.663318,0.73914695,-2.823572
792,1778516238600,0.13415417,-1.4948434,-0.14708175,6.61105085,0.8035550625,-2.7135017
793,1778516238610,0.1168970666666666,-1.528829133333333,-0.28113428,6.3150231,1.0338894666666667,-2.2491040333333334
794,1778516238620,0.08238286,-1.5968006,-0.54923934,6.0365705,1.1081096,-1.9807305
795,1778516238630,-0.013354438,-1.7451628,-0.8971255,6.0365705,1.1081096,-1.9807305
796,1778516238640,,,,,,
797,1778516238650,-0.013354438,-1.7451628,-0.8971255,6.0365705,1.1081096,-1.9807305
798,1778516238660,-0.013354438,-1.7451628,-0.8971255,6.0365705,1.1081096,-1.9807305
799,1778516238670,-0.0293462235,-1.780988075,-0.935984475,4.873597625,0.84620111,-1.325119425
800,1778516238680,-0.093785964,-2.019935,-1.0963445,4.1858015,0.61621034,-1.0144944
801,1778516238690,-0.093785964,-2.019935,-1.0963445,3.6293031666666664,0.5607233799999999,-0.8209519733333334
802,1778516238700,-0.0842274735,-2.1017537749999997,-1.08303575,3.351054,0.5329799,-0.72418076
803,1778516238710,0.03445323,-2.3815415,-0.74919003,0.7428121500000001,1.4691309333333331,0.2145664126666666
804,1778516238720,0.03445323,-2.3815415,-0.74919003,-0.1956677874999999,2.3093379,0.67706775
805,1778516238730,0.032532387,-2.437703225,-0.6942173325000001,-0.5874997,2.908482,0.9439395
806,1778516238740,0.031892106,-2.4564238,-0.6758931,-0.6626361166666667,2.9947158666666667,1.0402017
807,1778516238750,0.031892106,-2.4564238,-0.6758931,-0.81290895,3.1671836,1.2327261
808,1778516238760,-0.22172025,-2.3759315,-0.74821436,-0.8129089500000001,3.1671836,1.2327261
809,1778516238770,-0.38361995,-2.33239235,-0.80205898,-1.0160216,3.0036244,1.8361082
810,1778516238780,-0.54551965,-2.2888532,-0.8559036,-1.2305881,2.6099217,2.50806
811,1778516238790,-0.54551965,-2.2888532,-0.8559036,-1.2305881,2.6099217,2.50806
812,1778516238800,-0.6796128,-2.1905546,-0.9394451,-1.2305881,2.6099217,2.50806
813,1778516238810,-0.6729661,-2.1272583000000003,-0.968958985,-1.2305881,2.6099217,2.50806
814,1778516238820,-0.65048005,-2.046628625,-0.9960489425,-1.695265625,2.145931375,3.3089424999999997
815,1778516238830,-0.4931588533333333,-1.8941756333333333,-0.95527932,-2.5353962666666665,1.7166331333333331,4.2203153
816,1778516238840,-0.43825728,-1.8439492,-0.9385304,-3.2082644,1.559539,4.6842675
817,1778516238850,-0.2886957133333334,-1.7691480666666666,-0.9095042666666666,-3.9612576,1.4718798666666668,4.896645166666667
818,1778516238860,-0.21391493,-1.7317475,-0.8949912,-4.899979350000001,1.44126025,5.0646075
819,1778516238870,-0.1569298949999999,-1.7189113,-0.8499276250000001,-5.4622045,1.4544702,5.126381
820,1778516238880,0.014939896,-1.6997334000000002,-0.6772956,-5.886501166666666,1.4969762,5.1647128
821,1778516238890,0.014939896,-1.6997334,-0.6772956,-6.7350945,1.5819882,5.2413764
822,1778516238900,0.0537023206666666,-1.7029042666666667,-0.6294472833333333,-7.309918666666666,1.5934419666666668,5.300935733333334
823,1778516238910,0.13122717,-1.709246,-0.53375065,-8.459567,1.6163495,5.4200544
824,1778516238920,0.3330986925,-1.743729725,-0.3022432375,-8.89324325,1.537509675,5.4793848
825,1778516238930,0.4003892,-1.7552243,-0.2250740999999999,-10.194272,1.3009902,5.657376
826,1778516238940,1.077944,-1.7053739,0.832258875,-11.34193475,0.806303925,5.8793489999999995
827,1778516238950,1.4317909,-1.6743253333333332,1.4764072666666668,-12.062603166666667,0.2303471,5.940613566666666
828,1778516238960,1.6877815,-1.6454618,2.0598154,-12.7388315,-0.5917757,5.9151607
829,1778516238970,1.7432318333333334,-1.6173504333333335,2.1988682,-12.5423365,-0.6171266000000001,5.8086667
830,1778516238980,1.8541325,-1.5611277,2.4769738,-12.444089,-0.62980205,5.7554197
831,1778516238990,2.227386,-1.197021,2.8294945,-11.355985,-0.52778757,5.2790976
832,1778516239000,2.201063333333334,-1.0935393666666666,2.7981715333333335,-11.355985,-0.52778757,5.2790976
833,1778516239010,2.148418,-0.8865761,2.7355256,-11.12053475,-0.5642104175,5.092325450000001
834,1778516239020,2.0008687666666667,-0.8466754,2.7357084666666664,-10.211987333333331,-0.8069529733333333,4.395531566666667
835,1778516239030,1.170053025,-0.74123225,2.966102975,-8.793711,-1.8799378,4.310265
836,1778516239040,1.2904208666666666,-0.54818238,3.0069641333333337,-7.060227966666666,-2.3565145,4.915836333333334
837,1778516239050,1.5816166,-0.24507529,2.710158,-5.6801305,-2.5880833,5.3238435
838,1778516239060,1.5816166,-0.24507529,2.710158,-5.03994375,-2.41780465,5.33949675
839,1778516239070,1.8821016666666663,0.1331175233333333,1.8138253666666664,-4.165032,-1.315651,4.568814
840,1778516239080,1.7905924,0.23861149,1.2648909,-5.019938,-0.4709771,3.7606392
841,1778516239090,1.4518531,0.230348805,1.1946124,-6.1398829,0.06895140825,3.2840497
842,1778516239100,1.0212385,0.2884721133333333,1.3864223333333332,-6.9608094,0.1908444733333333,3.020525000000001
843,1778516239110,1.26455555,0.4606061499999999,1.63631495,-7.232339,-0.14492778,3.0063734
844,1778516239120,1.735451925,0.7120995,1.8921683,-6.9551592499999995,-0.33471597,2.8408670000000003
845,1778516239130,1.8346193,0.7626054999999999,1.9373691,-6.493803,-0.2753475,2.191479
846,1778516239140,1.8346193,0.7626055,1.9373691,-6.493803,-0.2753475,2.191479
847,1778516239150,1.8346193,0.7626054999999999,1.9373691,-6.4127106666666664,-0.1761837116666667,1.9809850333333336
848,1778516239160,1.91547765,0.8252006000000001,1.9938358,-6.250526,0.022143865,1.5599971
849,1778516239170,1.970054,0.90976855,2.0853045666666667,-6.115728333333333,0.1369356266666666,1.2705997
850,1778516239180,1.91749,0.95371425,2.1553087,-5.6665387,0.34269542,0.473726
851,1778516239190,1.8315500666666664,0.96997531,2.1823021666666667,-5.6665387,0.3426954199999999,0.4737259999999999
852,1778516239200,1.7885801,0.97810584,2.1957989,-4.97,-0.27000242,0.23793201
853,1778516239210,1.5202717,0.96786135,2.3743458,-4.97,-0.27000242,0.23793201
854,1778516239220,1.5202716999999997,0.96786135,2.3743458,-4.717152566666667,-0.5779803133333333,0.3316489066666666
855,1778516239230,1.6002153,0.99274087,2.6069813,-4.2114577,-1.1939361,0.5190827
856,1778516239240,1.6002152999999997,0.99274087,2.6069813,-4.0071233,-1.4323262666666663,0.6294966
857,1778516239250,1.7324791,1.014662885,2.71052395,-3.5984545,-1.9091066,0.8503244
858,1778516239260,1.8647429,1.0365849,2.8140666,-3.5984545000000003,-1.9091066,0.8503244
859,1778516239270,2.48795,1.2373892,3.1545134,-2.999653825,-2.234277875,1.10139005
860,1778516239280,2.5480145000000003,1.2761516666666666,3.197198733333334,-2.5669065333333334,-2.2675317666666666,1.185384
861,1778516239290,2.599481,1.7223566,3.5613053,-2.08694465,-1.95583775,1.22043235
862,1778516239300,2.599481,1.7223566,3.5613053,-1.7235563,-1.681712,1.255328
863,1778516239310,2.6072456,1.918343666666667,3.675458433333333,-1.7235563,-1.681712,1.255328
864,1778516239320,2.6111279,2.0163372,3.732535,-1.614211425,-1.628566725,1.2953015
865,1778516239330,2.6111279,2.0163372,3.732535,-1.2861768,-1.4691309,1.415222
866,1778516239340,2.877424,2.2402221,3.85857885,-0.089491755,-1.1010846,1.356579
867,1778516239350,3.557204525,2.6076217,3.9766802,0.71383421125,-0.812412575,0.68016028325
868,1778516239360,3.7600365,2.622958,3.9393153,1.3058772,-0.5508477,0.058337633
869,1778516239370,3.69972815,2.4935297,3.873976,1.3058772,-0.5508477,0.058337633
870,1778516239380,3.6394198,2.3641014,3.8086367,2.1589506,-0.2412917799999999,-1.0065532
871,1778516239390,3.6394198,2.3641014,3.8086367,2.1589506,-0.24129178,-1.0065532
872,1778516239400,3.2891249,2.07582235,3.4250168,3.4464253,-0.1078177125,-2.6663505
873,1778516239410,2.6843842,1.6633084333333334,2.6651553666666667,3.6407568,0.013439035,-3.2065845
874,1778516239420,2.236395625,1.553185175,2.073993,2.2475640500000003,1.05672053375,-3.608037475
875,1778516239430,2.092927,1.5412484,1.920051,1.0441214,2.369342766666667,-4.048306
876,1778516239440,1.88244215,1.435876425,2.120489575,1.3414601,2.7477102,-4.122577
877,1778516239450,1.2509876,1.1197605,2.7218053,1.4659239,2.8064678,-4.124715
878,1778516239460,1.2514551,1.0599602666666663,2.7461359333333335,2.8196013,2.6341528333333333,-4.0436733333333335
879,1778516239470,1.2337916,0.7422384,2.6622896,5.3962307,2.1398609,-4.018577
880,1778516239480,1.38922745,0.4368242499999999,2.28598715,6.45211135,1.93499195,-4.059428649999999
881,1778516239490,1.6496898,-0.34650395,1.5436673333333333,7.947815000000001,1.3116804,-4.682536633333333
882,1778516239500,1.6386932,-0.70967555,1.314284,8.13000525,0.9867001,-5.0559788999999995
883,1778516239510,1.5937718333333333,-0.7472183666666666,1.3373748,7.9691954,0.44791695,-5.25451
884,1778516239520,1.568551875,-0.890676925,1.7812625,7.66578605,-0.1926897975,-5.335373499999999
885,1778516239530,1.5900928,-0.9134679,1.9138312,7.524128933333333,-0.4474587866666666,-5.420003866666666
886,1778516239540,1.6474741,-0.8902043925,2.17134615,7.65612695,-0.8100836575,-6.00908135
887,1778516239550,1.5160031,-0.91724867,2.1078057,7.686823,-0.8225300299999999,-6.048024000000001
888,1778516239560,1.46764665,-0.8536473849999999,2.0082268,7.7114485,-0.8174904275,-6.05168925
889,1778516239570,1.4192902,-0.7900461,1.9086479,7.558694,-0.80939645,-5.8974457
890,1778516239580,1.4111799,-0.6922965,1.7998002,7.558694,-0.80939645,-5.8974457
891,1778516239590,1.471838925,-0.6507239499999999,1.77435665,6.8745246,-1.187522,-5.22076
892,1778516239600,1.653816,-0.5260063,1.6980259999999998,6.822957533333334,-1.3068952666666669,-5.251557766666667
893,1778516239610,1.653816,-0.5260063,1.698026,6.7198234,-1.5456418,-5.3131533
894,1778516239620,1.6663473,-0.5848207375,1.516780625,6.7198234,-1.5456418,-5.3131533
895,1778516239630,1.6588976333333332,-0.6204630533333333,1.4275629666666667,6.7198234,-1.5456418,-5.3131533
896,1778516239640,1.6356441,-0.65253806,1.3699579,6.596123125,-1.55572105,-5.353241325
897,1778516239650,1.6356440999999995,-0.65253806,1.3699579,6.5548897,-1.5590808,-5.366604
898,1778516239660,0.87374005,-1.6242411,0.47676563,5.637102925,-1.3368786,-5.700480000000001
899,1778516239670,0.7274205,-1.7381502,0.35855752,4.855818666666667,-1.4888312666666668,-5.724316466666667
900,1778516239680,-0.0235379595,-2.26283005,-0.1170342645,4.25792155,-1.7278323,-5.557346675
901,1778516239690,-0.8297435600000002,-2.6703385999999996,-0.24855109,3.6785796,-1.6409876666666667,-5.276705
902,1778516239700,-1.0698795,-2.851386,-0.18860857,2.22549675,-0.959631125,-4.26658825
903,1778516239710,-1.11216855,-2.9802502,-0.12365051,1.6992745,-0.3815617,-3.3993887000000003
904,1778516239720,-1.132291675,-3.237582175,-0.0178059175,1.1751521,0.3979787,-2.1277964
905,1778516239730,-1.1080525,-3.3091564000000004,-0.08000467,1.1751521,0.3979787000000001,-2.1277964
906,1778516239740,-1.1133424500000002,-3.2354326,-0.1715953774999999,1.0020481,1.51929825,0.156916005
907,1778516239750,-1.1292123,-3.0142612,-0.4463675,0.8358164,1.6514742,0.65011334
908,1778516239760,,,,,,
909,1778516239770,1.4531946,0.14970386,1.1683608,-7.0987124,1.653154,5.0071096
910,1778516239780,1.4531946,0.14970386,1.1683608,-7.0987124,1.653154,5.0071096
911,1778516239790,1.4531946,0.14970386,1.1683608,-6.919728799999999,1.5396858,4.3742533
912,1778516239800,1.32318695,0.5847749799999999,1.417537,-5.575748900000001,0.701273295,3.75861565
913,1778516239810,1.3233699,0.8035834999999999,1.2319012,-5.1277556,0.42180246,3.5534031
914,1778516239820,1.4366082,0.8620015,1.1056743,-3.7464366,-0.46792278,3.3904548
915,1778516239830,1.7795347,0.9794067666666666,0.97587,-4.3214135,-0.30757064,3.35533
916,1778516239840,2.251457575,1.12692555,1.195237475,-4.692056,-0.17180584,3.2426255
917,1778516239850,2.9985895,1.4192902,1.741687,-4.692056,-0.17180584,3.2426255000000004
918,1778516239860,2.9985895,1.4192902,1.741687,-5.13932375,-0.33662491,2.7043003999999997
919,1778516239870,3.07403605,1.7774818,2.47970265,-5.1469213499999995,-0.3797291,2.0300579
920,1778516239880,3.0867045,2.0890243,3.3709285,-3.7441459,-0.39522982,1.3918564
921,1778516239890,3.0898755,2.4464233,3.8261378,-2.625995225,-0.5246568899999999,1.300608425
922,1778516239900,4.112008,2.8649232,3.803636299999999,1.0276281,-0.92255926,0.84665924
923,1778516239910,3.101186875,2.09786625,2.53304405,1.596190925,-0.85540226,0.0163024299999999
924,1778516239920,2.5512464,1.8173622,1.7979708,2.8531988666666663,-0.4620177533333334,-2.5875742666666666
925,1778516239930,2.5512464,1.8173622,1.7979708,2.6288586,-0.366061,-2.6439774
926,1778516239940,2.4509966,1.864377,1.6672314,1.770287475,0.0467311924999999,-2.808453
927,1778516239950,2.4509966,1.864377,1.6672313999999997,1.1451687066666667,0.4296927933333334,-2.9912544666666663
928,1778516239960,2.4173819,1.823124675,1.811203275,0.46731192,0.9204212,-3.247207
929,1778516239970,2.406177,1.8093739,1.8591939,0.46731192,0.9204212,-3.247207
930,1778516239980,2.3573124,1.7766077333333332,1.9652162666666664,0.46731192,0.9204212000000002,-3.247207
931,1778516239990,2.2595832,1.7110754,2.177261,0.10644327,1.4114041,-3.6262488
932,1778516240000,2.2595832,1.7110753999999997,2.177261,0.10644327,1.4114040999999995,-3.6262488
933,1778516240010,2.037619,1.25312186375,1.98551205,1.5593481275,1.404913675,-3.920647725
934,1778516240020,1.3717264,-0.120738745,1.4102652000000002,5.9180627,1.3854424,-4.8038445
935,1778516240030,1.3717264,-0.120738745,1.4102652000000002,6.199264033333333,1.2047281333333333,-4.820846833333333
936,1778516240040,1.42299465,-0.41542056125,1.255195175,6.3978971,0.78877978,-4.96213485
937,1778516240050,1.4378481333333333,-0.6396511233333334,1.1478311666666663,6.4173939,0.49291736,-5.213378666666667
938,1778516240060,1.4025208,-0.67973477,1.1118941,6.3949957,0.4616614,-5.297576
939,1778516240070,1.2856238,-0.83504874,1.0394509,6.2062383,0.47051895,-5.447238
940,1778516240080,1.285827,-0.8721240199999999,1.1026253,5.900296366666667,0.5242750833333333,-5.539733333333333
941,1778516240090,1.2913253,-0.9196878075,1.1855265,5.831815925000001,0.50320024,-5.633017425
942,1778516240100,1.3136132,-0.92541987,1.2004359,5.763819000000001,0.4198680466666666,-5.676465266666667
943,1778516240110,1.3184001,-0.905723585,1.23775515,5.641035,0.2724459,-5.714339
944,1778516240120,1.3514203,-0.85687923,1.5181984,5.615837,0.052687127,-5.735872
945,1778516240130,1.400478025,-0.9020800575,1.77984475,5.903859925,-0.2163990065,-5.819140525
946,1778516240140,1.0221329,-0.7544343000000001,1.6491206,6.92599,-0.9202685,-6.112165
947,1778516240150,0.989844365,-0.71495027,1.250835165,6.8502428,-1.25845875,-5.73251225
948,1778516240160,0.95755583,-0.67546624,0.8525497300000001,5.628257966666666,-0.696742702,-4.922250433333333
949,1778516240170,0.5587521,-1.4787447,0.22757424,5.0961432,-0.27870727,-4.918687
950,1778516240180,0.2949104925,-1.665478275,-0.057671055,4.754478825,-1.3365732174999998,-5.1335587
951,1778516240190,-1.2719645,-2.7509938333333337,-0.76104034,3.5209760666666665,-1.9011144333333332,-4.922759433333334
952,1778516240200,-1.5723478999999998,-2.9551114999999997,-0.6611971,2.3345742,-1.6530013,-4.4733663
953,1778516240210,-1.5723479,-2.9551115,-0.6611971,0.8373435300000001,-0.4329507294999999,-3.258240675
954,1778516240220,-1.5723478999999998,-2.9551114999999997,-0.6611971,0.33826664,-0.026267206,-2.8531988
955,1778516240230,-1.9103351333333336,-2.8824039999999997,-0.5346449999999999,-0.5523749,0.04627304,-0.20173825
956,1778516240240,-1.888677225,-2.752431975,-0.4798450625,-0.71032175,-0.147982105,0.8124889625
957,1778516240250,-1.8724872,-2.7236955,-0.46850294,-0.8786278666666667,-0.1453350216666666,1.8296432
958,1778516240260,-1.323568125,-2.376754525,-0.2507768174999999,-1.1099422,-0.010537425,3.1878002
959,1778516240270,-1.012986,-2.2389112,-0.22324473,-1.1099422,-0.0105374249999999,3.1878002
960,1778516240280,-1.012986,-2.2389112,-0.22324473,-1.2960651250000002,0.24064271625,3.966539
961,1778516240290,-0.9302982,-2.1979941,-0.226964455,-1.4533248,0.418137265,4.4861181000000006
962,1778516240300,-0.8476104000000001,-2.157077,-0.23068418,-1.9913189,0.7180721,5.494834533333333
963,1778516240310,-0.40938365,-1.91633135,-0.3071520749999999,-3.2242231500000003,1.083369485,7.0991704
964,1778516240320,0.7971806533333333,-1.6963590333333334,-0.0568732333333333,-8.892212666666667,2.7667614,9.571494666666666
965,1778516240330,1.693345775,-1.581906275,0.392111305,-10.30533475,3.0974305,9.560843
966,1778516240340,1.9952384,-1.6151552,0.7441288,-11.94155,3.3710598333333337,9.134777333333334
967,1778516240350,1.9993393,-1.707325275,1.482830375,-12.5342675,3.001219175,8.52492985
968,1778516240360,2.400323,-1.0776238,3.3665378,-8.942812333333334,-0.1599449,6.845814
969,1778516240370,2.29472245,-0.6988365249999999,3.22155975,-4.6615126,-2.4938574,5.9934279749999995
970,1778516240380,1.4587639999999995,-0.0407544096666666,1.6183871666666665,-1.172148566666667,-1.3102550666666666,5.589213366666667
971,1778516240390,1.3836783,-0.031343292,1.5230157,-1.5027285,-0.1693624,5.7651935
972,1778516240400,1.33948365,-0.0129123382499999,1.313155875,-1.55774455,-0.0356210875,5.7931786999999995
973,1778516240410,1.7756524,0.23397705,0.75455624,-2.875139133333333,0.9454666666666668,5.453041333333334
974,1778516240420,1.7683044,0.2412030875,0.76403849,-3.4601699,0.8572730500000001,5.111720350000001
975,1778516240430,1.7118681999999998,0.2582874333333333,0.8278938166666666,-4.0794089,0.8282823666666667,4.805065933333333
976,1778516240440,2.0361249,0.40052643,1.1800230925,-5.194988775000001,1.350623075,4.4362942
977,1778516240450,2.1671386,0.45100194,1.2737938,-5.531842700000001,1.5986344,4.2571197
978,1778516240460,2.468497625,0.59701654,1.449276625,-5.452124975,1.3912074250000002,3.747543675
979,1778516240470,2.6864371000000005,0.7261399599999999,1.5944833,-5.4255524,1.3220651,3.577685
980,1778516240480,2.8368423,0.89285698,1.6262534,-4.60210615,0.03711005,2.39573715
981,1778516240490,2.9872475,1.059574,1.6580235,-4.133267,-0.6983717,1.8232801
982,1778516240500,3.2140086333333335,1.2348282,2.038452166666667,-4.420169966666666,-0.1067996066666666,1.0041606333333333
983,1778516240510,3.3273892,1.3224553,2.2286665,-4.47687865,0.132710475,0.891252385
984,1778516240520,3.4132478,1.3266017,2.4291053,-4.4376307,0.15439619,0.86758137
985,1778516240530,3.4851422000000003,1.36376855,2.6743635,-4.03888835,0.089186325,0.756174805
986,1778516240540,3.5332955333333333,1.6526981333333337,3.219313933333334,-3.073059466666667,-0.13240504,0.5133304133333333
987,1778516240550,3.442152,1.9852989,3.5380723,-1.4046847,-0.72295904,0.13439035
988,1778516240560,3.28413975,2.3210805,3.4175167,-0.113162793,-0.96474711,-0.1335504125
989,1778516240570,3.231469,2.4330077,3.3773315,0.8038987,-1.075581,-0.3585779
990,1778516240580,3.22369415,2.4903892,3.13597585,1.3306936,-0.8478045999999999,-0.8104655
991,1778516240590,3.2159193,2.5477707,2.8946202,1.9297742,-0.2777909566666667,-1.7252871333333333
992,1778516240600,2.8734602999999996,2.4236476,2.45352735,2.0743456,0.40668353,-2.6511552
993,1778516240610,2.2058909,2.180965675,1.93011265,1.91681875,0.6387359475000001,-3.0707813999999996
994,1778516240620,1.6063133,1.8867158,2.1002850333333334,1.5180001666666667,1.4327843666666666,-4.385859666666666
995,1778516240630,1.5169178,1.8222406,2.1618943,1.6655241,1.6285667,-4.498259
996,1778516240640,1.5169178,1.8222406,2.1618943,1.8732182666666668,1.6939293,-4.5053348
997,1778516240650,1.86058115,1.359561025,2.575379025,3.803896175,1.805221375,-4.6893069999999994
998,1778516240660,2.116180433333333,1.1199027233333334,2.652187366666667,4.5972193,1.7868318,-4.880966
999,1778516240670,2.430050325,0.412112465,2.4159031250000003,6.86620175,1.5329282,-5.60549025
1000,1778516240680,2.3165376,0.16061912,2.1752489,7.8198385,1.2800682,-5.944635
