id,timestamp,acc_x,acc_y,acc_z,gyro_x,gyro_y,gyro_z
0,1778516116600,-0.746446,0.18659624,1.7449188,1.9633209,1.1238394,1.3692545
1,1778516116610,-0.746446,0.18659624,1.7449188,1.9633209,1.1238394,1.3692545
2,1778516116620,-0.746446,0.18659624,1.7449188,1.9633209,1.1238394,1.3692545
3,1778516116630,-0.746446,0.18659624,1.7449188,1.9633209,1.1238394,1.3692545
4,1778516116640,-0.746446,0.18659624,1.7449188,1.9633209,1.1238394,1.3692545
5,1778516116650,-0.746446,0.18659624,1.7449188,1.9633209,1.1238394,1.3692545
6,1778516116660,-0.746446,0.18659624,1.7449188,1.9633209,1.1238394,1.3692545
7,1778516116670,-0.746446,0.18659624,1.7449188,1.9633209,1.1238394,1.3692545
8,1778516116680,-0.746446,0.18659624,1.7449188,1.9633209,1.1238394,1.3692545
9,1778516116690,-0.746446,0.18659624,1.7449188,1.9633209,1.1238394,1.3692545
10,1778516116700,-0.746446,0.18659624,1.7449188,1.9633209,1.1238394,1.3692545
11,1778516116710,-0.746446,0.18659624,1.7449188,1.9633209,1.1238394,1.3692545
12,1778516116720,-0.746446,0.18659624,1.7449188,1.93987895,1.1239921000000002,1.5500706
13,1778516116730,-0.746446,0.18659624,1.7449188,1.916437,1.1241448,1.7308867
14,1778516116740,-0.746446,0.18659624,1.7449188,1.916437,1.1241448,1.7308867
15,1778516116750,-0.746446,0.18659624,1.7449188,1.916437,1.1241448,1.7308867
16,1778516116760,-0.7733174933333333,0.17728676,1.6902408666666666,1.916437,1.1241448,1.7308867
17,1778516116770,-0.78675324,0.17263202,1.6629019,1.91506255,1.1892783,1.92017855
18,1778516116780,-0.78675324,0.17263202,1.6629019000000005,1.9136881,1.2544118,2.1094704
19,1778516116790,-0.78675324,0.17263202,1.6629019,1.9136881,1.2544118,2.1094704
20,1778516116800,-0.78675324,0.17263202,1.6629019000000005,1.9136881,1.2544118,2.1094704
21,1778516116810,-0.7204078700000001,0.15010022,1.67723195,1.9136881,1.2544118,2.1094704
22,1778516116820,-0.6540625,0.12756842,1.691562,1.9136881,1.2544118,2.1094704
23,1778516116830,-0.6540625,0.12756842,1.691562,1.9136881,1.2544118,2.1094704
24,1778516116840,-0.6149138875,0.1235133049999999,1.6985289,1.946789375,1.270256125,2.1434498
25,1778516116850,-0.49746805,0.1113479599999999,1.7194296,2.0460932,1.3177891,2.245388
26,1778516116860,-0.49746805,0.11134796,1.7194296,2.0460932,1.3177891,2.245388
27,1778516116870,-0.49746805,0.11134796,1.7194296,2.0460932,1.3177891,2.245388
28,1778516116880,-0.49746805,0.1113479599999999,1.7194296,2.0460932,1.3177891,2.245388
29,1778516116890,-0.49746805,0.1113479599999999,1.7194296,2.0460932,1.3177891,2.245388
30,1778516116900,-0.49746805,0.11134796,1.7194296,2.0460932,1.3177891,2.245388
31,1778516116910,-0.49746805,0.11134796,1.7194296,2.0460932,1.3177891,2.245388
32,1778516116920,-0.49746805,0.11134796,1.7194296,2.0460932,1.3177891,2.245388
33,1778516116930,-0.49746805,0.1113479599999999,1.7194296,2.0460932,1.3177891,2.245388
34,1778516116940,-0.49746805,0.11134796,1.7194296,2.0460932,1.3177891,2.245388
35,1778516116950,-0.49746805,0.1113479599999999,1.7194296,2.0460932,1.3177891,2.245388
36,1778516116960,-0.29373667,0.022562291,1.6289365,2.5720482,1.3794864,2.4158194
37,1778516116970,-0.29373667,0.022562291,1.6289365,2.5720482,1.3794864,2.4158194
38,1778516116980,-0.29373667,0.022562291,1.6289365,2.5720482,1.3794864,2.4158194
39,1778516116990,-0.29373667,0.022562291,1.6289365,2.5720482,1.3794864,2.4158194
40,1778516117000,-0.29373667,0.022562291,1.6289365,2.5720482,1.3794864,2.4158194
41,1778516117010,-0.29373667,0.022562291,1.6289365,2.5720482,1.3794864,2.4158194
42,1778516117020,-0.29373667,0.022562291,1.6289365,2.7991374,1.3929255,2.4680483
43,1778516117030,0.043905,0.015000875,1.4258149,2.7991374000000007,1.3929254999999998,2.4680483
44,1778516117040,0.043905,0.015000875,1.4258149,2.7991374,1.3929255,2.4680483
45,1778516117050,0.043905,0.015000875,1.4258149,2.7991374,1.3929255,2.4680483
46,1778516117060,0.043905,0.015000875,1.4258149,2.7991374000000007,1.3929254999999998,2.4680483
47,1778516117070,0.043905,0.015000875,1.4258149,2.7991374,1.3929255,2.4680483
48,1778516117080,0.043905,0.015000875,1.4258149,2.7991374000000007,1.3929254999999998,2.4680483
49,1778516117090,0.043905,0.015000875,1.4258149,2.7991374,1.3929255,2.4680483
50,1778516117100,0.043905,0.015000875,1.4258149,2.7991374,1.3929255,2.4680483
51,1778516117110,0.043905,0.015000875,1.4258149,2.7991374000000007,1.3929254999999998,2.4680483
52,1778516117120,0.043905,0.015000875,1.4258149,2.7991374,1.3929255,2.4680483
53,1778516117130,0.043905,0.015000875,1.4258149,4.1949644,1.2490667,2.515085
54,1778516117140,0.043905,0.015000875,1.4258149,4.1949644,1.2490667,2.515085
55,1778516117150,0.043905,0.015000875,1.4258149,4.1949644,1.2490667,2.515085
56,1778516117160,0.043905,0.015000875,1.4258149,4.1949644,1.2490667,2.515085
57,1778516117170,0.043905,0.015000875,1.4258149,4.1949644,1.2490667,2.515085
58,1778516117180,0.043905,0.015000875,1.4258149,4.1949644,1.2490667,2.515085
59,1778516117190,0.043905,0.015000875,1.4258149,4.1949644,1.2490667,2.515085
60,1778516117200,0.043905,0.015000875,1.4258149,4.1949644,1.2490667,2.515085
61,1778516117210,0.043905,0.015000875,1.4258149,4.1949644,1.2490667,2.515085
62,1778516117220,0.043905,0.015000875,1.4258149,4.1949644,1.2490667,2.515085
63,1778516117230,0.043905,0.015000875,1.4258149,4.1949644,1.2490667,2.515085
64,1778516117240,0.043905,0.015000875,1.4258149,4.1949644,1.2490667,2.515085
65,1778516117250,0.043905,0.015000875,1.4258149,4.1949644,1.2490667,2.515085
66,1778516117260,0.1156165066666666,0.0159765416666666,1.3611769666666669,4.7276388,1.2710579,2.289472
67,1778516117270,0.15147226,0.016464375,1.328858,4.993976,1.2820535,2.1766655
68,1778516117280,0.20615024,0.0012602363333333,1.1813697333333335,4.993976,1.2820535,2.1766655
69,1778516117290,0.23348923,-0.006341833,1.1076256,4.993976,1.2820535,2.1766655
70,1778516117300,0.23348923,-0.006341833,1.1076256,4.993976,1.2820535,2.1766655
71,1778516117310,0.23348923,-0.006341833,1.1076256,4.993976,1.2820535,2.1766655
72,1778516117320,0.073175006,-0.0032928751,0.15128931,5.031697,1.6224581,1.7475327
73,1778516117330,0.073175006,-0.0032928751,0.15128931,5.031697,1.6224581,1.7475327
74,1778516117340,0.073175006,-0.0032928751,0.15128931,4.92678085,1.61195885,1.745203775
75,1778516117350,0.073175006,-0.0032928751,0.15128931,4.6120324,1.5804611,1.738217
76,1778516117360,0.073175006,-0.0032928751,0.15128931,4.6120324,1.5804611,1.738217
77,1778516117370,0.073175006,-0.0032928751,0.15128931,4.6120324,1.5804611,1.738217
78,1778516117380,0.0319124326666666,-0.0066670557,-0.0186393033333333,4.6120324,1.5804611,1.738217
79,1778516117390,0.0100615626,-0.00371972925,-0.1569146424999999,4.6120324,1.5804611,1.738217
80,1778516117400,0.0064028124,0.010183521,-0.31684774,4.6120324,1.5804611,1.738217
81,1778516117410,0.0064028124,0.010183521,-0.31684774,4.6120324,1.5804611,1.738217
82,1778516117420,0.0064028124,0.010183521,-0.31684774,4.6120324,1.5804611,1.738217
83,1778516117430,0.0064028124,0.010183521,-0.31684774,4.6120324,1.5804611,1.738217
84,1778516117440,0.0064028124,0.010183521,-0.31684774,4.6120324,1.5804611,1.738217
85,1778516117450,0.0064028124,0.010183521,-0.31684774,4.6120324,1.5804611,1.738217
86,1778516117460,0.0064028124,0.010183521,-0.31684774,4.6120324,1.5804611,1.738217
87,1778516117470,0.0064028124,0.010183521,-0.31684774,4.417319133333334,1.519069133333333,1.7453437666666665
88,1778516117480,0.0064028124,0.010183521,-0.31684774,4.0278926,1.3962852,1.7595973
89,1778516117490,0.0064028124,0.010183521,-0.31684774,4.0278926,1.3962852,1.7595973
90,1778516117500,0.0064028124,0.010183521,-0.31684774,4.0278926,1.3962852,1.7595973
91,1778516117510,0.0064028124,0.010183521,-0.31684774,4.0278926,1.3962852,1.7595973
92,1778516117520,0.0064028124,0.010183521,-0.31684774,4.0278926,1.3962852,1.7595973
93,1778516117530,0.0064028124,0.010183521,-0.31684774,4.0278926,1.3962852,1.7595973
94,1778516117540,0.0064028124,0.010183521,-0.31684774,4.0278926,1.3962852,1.7595973
95,1778516117550,,,,,,
96,1778516117560,,,,,,
97,1778516117570,0.38538834,-0.27245492,-0.83120704,1.264033,-1.745242,2.6907086
98,1778516117580,0.46716142,-0.28702894,-0.7262009,0.018784106,-1.8542814,2.844952
99,1778516117590,0.46716142,-0.28702894,-0.7262008999999999,0.018784106,-1.8542814000000003,2.8449520000000006
100,1778516117600,0.46716142,-0.28702894,-0.7262009,0.018784106,-1.8542814,2.844952
101,1778516117610,0.46716142,-0.28702894,-0.7262009,0.018784106,-1.8542814,2.844952
102,1778516117620,0.46716142,-0.28702894,-0.7262008999999999,0.018784106,-1.8542814000000003,2.8449520000000006
103,1778516117630,0.46716142,-0.28702894,-0.7262009,0.018784106,-1.8542814,2.844952
104,1778516117640,0.46716142,-0.28702894,-0.7262009,0.018784106,-1.8542814,2.844952
105,1778516117650,0.46716142,-0.28702894,-0.7262008999999999,-0.3643302313333333,-1.912619,2.9274190000000004
106,1778516117660,0.50039506,-0.32190904,-0.5372875,-0.5558874,-1.9417878,2.9686525
107,1778516117670,0.50039506,-0.32190904,-0.5372875,-0.5558874,-1.9417878,2.9686524999999997
108,1778516117680,0.50039506,-0.32190904,-0.5372875,-0.5558874,-1.9417878,2.9686525
109,1778516117690,0.5038403875,-0.3247293225,-0.495166125,-0.58314725,-1.96965855,2.990414575
110,1778516117700,0.51417637,-0.33319017,-0.368802,-0.6649268,-2.0532708,3.0557008
111,1778516117710,0.51417637,-0.33319017,-0.368802,-0.6649268,-2.0532708,3.0557008
112,1778516117720,0.51417637,-0.33319017,-0.368802,-0.6649268,-2.0532708,3.0557008
113,1778516117730,0.51417637,-0.33319017,-0.368802,-0.6649268,-2.0532708,3.0557008
114,1778516117740,0.51417637,-0.33319017,-0.368802,-0.6649268,-2.0532708,3.0557008
115,1778516117750,0.51417637,-0.33319017,-0.368802,-0.6649268,-2.0532708,3.0557008
116,1778516117760,0.51417637,-0.33319017,-0.368802,-0.6649268,-2.0532708,3.0557008
117,1778516117770,0.51417637,-0.33319017,-0.368802,-0.6649268,-2.0532708,3.0557008
118,1778516117780,0.51417637,-0.33319017,-0.368802,-0.6649268,-2.0532708,3.0557008
119,1778516117790,0.51417637,-0.33319017,-0.368802,-0.6649268,-2.0532708,3.0557008
120,1778516117800,0.51417637,-0.33319017,-0.368802,-0.6649268,-2.0532708,3.0557008
121,1778516117810,0.5232317775,-0.3413766225,-0.326680645,-0.6649268,-2.0532708,3.0557008
122,1778516117820,0.550398,-0.36593598,-0.20031658,-0.6649268,-2.0532708,3.0557008
123,1778516117830,0.550398,-0.36593598,-0.20031658,-0.6649268,-2.0532708,3.0557008
124,1778516117840,0.550398,-0.36593598,-0.20031658,-0.6649268,-2.0532708,3.0557008
125,1778516117850,0.550398,-0.36593598,-0.20031658,-0.6649268,-2.0532708,3.0557008
126,1778516117860,0.550398,-0.36593598,-0.20031658,-0.6649268,-2.0532708,3.0557008
127,1778516117870,0.550398,-0.36593598,-0.20031658,-0.6649268,-2.0532708,3.0557008
128,1778516117880,0.550398,-0.36593598,-0.20031658,-0.6649268,-2.0532708,3.0557008
129,1778516117890,0.5923516,-0.37813184,-0.1972676,-0.6047566,-2.3603833,3.264922
130,1778516117900,0.5923516,-0.37813184,-0.1972676,-0.6047566,-2.3603833,3.264922
131,1778516117910,0.5923516,-0.37813184,-0.1972676,-0.6047566,-2.3603833,3.264922
132,1778516117920,0.5923516,-0.37813184,-0.1972676,-0.6047566,-2.3603833,3.264922
133,1778516117930,0.5923516,-0.37813184,-0.1972676,-0.53168184,-2.4943918,3.3886986500000003
134,1778516117940,0.5923516,-0.37813184,-0.1972676,-0.45860708,-2.6284003,3.5124753
135,1778516117950,0.5923516,-0.37813184,-0.1972676,-0.45860708,-2.6284003,3.5124753
136,1778516117960,0.5923516,-0.37813184,-0.1972676,-0.45860708,-2.6284003,3.5124753
137,1778516117970,0.5923516,-0.37813184,-0.1972676,-0.45860708,-2.6284003,3.5124753
138,1778516117980,0.5923516,-0.37813184,-0.1972676,-0.45860708,-2.6284003,3.5124753
139,1778516117990,0.5923516,-0.37813184,-0.1972676,-0.45860708,-2.6284003,3.5124753
140,1778516118000,0.6246299066666666,-0.4007347733333333,-0.2121058733333333,-0.45860708,-2.6284003,3.5124753
141,1778516118010,0.64076906,-0.41203624,-0.21952501,-0.44333544,-2.6815456500000003,3.61021365
142,1778516118020,0.64076906,-0.41203624,-0.21952501,-0.4280638,-2.734691,3.707952
143,1778516118030,0.64076906,-0.41203624,-0.21952501,-0.4280638,-2.734691,3.707952
144,1778516118040,0.64076906,-0.41203624,-0.21952501,-0.4280638,-2.734691,3.707952
145,1778516118050,0.64076906,-0.41203624,-0.21952501,-0.4280638,-2.734691,3.707952
146,1778516118060,0.64076906,-0.41203624,-0.21952501,-0.4280638,-2.734691,3.707952
147,1778516118070,0.69610769,-0.4178902599999999,-0.25542649,-0.5393939875,-2.7966175,4.04889135
148,1778516118080,0.7145539,-0.4198416,-0.26739365,-0.55680364,-2.7931814,4.070348
149,1778516118090,0.7145539,-0.4198416,-0.26739365,-0.55680364,-2.7931814,4.070348
150,1778516118100,0.7320244375,-0.4229210325,-0.2758697575,-0.55680364,-2.7931814,4.070348
151,1778516118110,0.93411955,-0.4357368033333333,-0.3202016133333333,-0.8049167466666667,-2.7065402666666665,4.210134266666667
152,1778516118120,1.0089613,-0.43752554,-0.32965338,-0.9289733,-2.6632197,4.2800274
153,1778516118130,1.05893375,-0.4349796625,-0.3087527725,-0.9289733,-2.6632197,4.2800274
154,1778516118140,1.2088511,-0.42734203,-0.24605095,-0.9289733,-2.6632197,4.2800274
155,1778516118150,1.2635951,-0.4351168374999999,-0.1896147249999999,-1.1235339,-2.8701504,4.236273975
156,1778516118160,1.2818431,-0.43770844,-0.17080265,-1.1134546,-2.9381092,4.2190933
157,1778516118170,1.3187354999999998,-0.454172835,-0.0745470335,-0.92859153,-3.2520175,4.19358965
158,1778516118180,1.3556279,-0.47063723,0.021708583,-0.74372846,-3.5659258,4.168086
159,1778516118190,1.3556279,-0.47063723,0.021708583,-0.74372846,-3.5659258,4.168086
160,1778516118200,1.3556279,-0.47063723,0.021708583,-0.74372846,-3.5659258,4.168086
161,1778516118210,1.3556279,-0.4706372300000001,0.021708583,-0.7437284600000001,-3.5659258,4.168086
162,1778516118220,1.3556279,-0.47063723,0.021708583,-0.74372846,-3.5659258,4.168086
163,1778516118230,1.351298375,-0.482116555,0.04940836975,-0.74372846,-3.5659258,4.168086
164,1778516118240,1.3383098,-0.51655453,0.13250773,-0.0462221533333333,-4.157854133333333,4.3358704
165,1778516118250,1.32312605,-0.5437207525,0.0557197142499999,0.302531,-4.4538183,4.4197626
166,1778516118260,1.3180648,-0.55277616,0.030123709,0.302531,-4.4538183,4.4197626
167,1778516118270,1.33599265,-0.5603985499999999,-0.1254036605,0.302531,-4.4538183,4.4197626
168,1778516118280,1.3539205,-0.56802094,-0.28093103,0.302531,-4.4538183,4.4197626
169,1778516118290,1.3539205,-0.56802094,-0.28093103,0.302531,-4.4538183,4.4197626
170,1778516118300,1.3539205,-0.56802094,-0.28093103,0.302531,-4.4538183,4.4197626
171,1778516118310,1.3539205,-0.56802094,-0.28093103,0.19792034,-4.2287145,4.874094
172,1778516118320,1.3539205,-0.56802094,-0.28093103,0.19792034,-4.2287145,4.874094
173,1778516118330,1.3539205,-0.56802094,-0.28093103,0.19792034,-4.2287145,4.874094
174,1778516118340,1.3539205,-0.56802094,-0.28093103,0.19792034,-4.2287145,4.874094
175,1778516118350,1.3539205,-0.56802094,-0.28093103,0.19792034,-4.2287145,4.874094
176,1778516118360,1.60125205,-0.51905468,-0.2637349,-0.23289238,-3.99040075,5.17593765
177,1778516118370,1.8485836,-0.47008842,-0.24653877,-0.6637051,-3.752087,5.4777813
178,1778516118380,1.8485836,-0.47008842,-0.24653877,-0.6637051,-3.752087,5.4777813
179,1778516118390,1.8485836,-0.47008842,-0.24653877,-0.6637051,-3.752087,5.4777813
180,1778516118400,1.8485836,-0.47008842,-0.24653877,-1.7027869000000002,-3.3457088,5.9369993
181,1778516118410,1.8485836,-0.47008842,-0.24653877,-1.7027869,-3.3457088,5.9369993
182,1778516118420,1.8485836,-0.47008842,-0.24653877,-1.7027869,-3.3457088,5.9369993
183,1778516118430,1.8485836,-0.47008842,-0.24653877,-2.018909633333333,-3.2398256,6.061615966666667
184,1778516118440,1.8485836,-0.47008842,-0.24653877,-2.176971,-3.186884,6.1239243
185,1778516118450,1.8485836,-0.47008842,-0.24653877,-2.176971,-3.186884,6.1239243
186,1778516118460,1.9286289333333333,-0.46419377,-0.11409202,-2.176971,-3.1868840000000005,6.1239243
187,1778516118470,2.0887196,-0.45240447,0.15080148,-2.176971,-3.186884,6.1239243
188,1778516118480,2.0887196,-0.45240447,0.15080148,-2.175902,-3.1632130000000003,6.198755299999999
189,1778516118490,2.0887196,-0.45240447,0.15080148,-2.175902,-3.163213,6.1987553
190,1778516118500,2.0887196,-0.45240447,0.15080148,-2.175902,-3.1632130000000003,6.198755299999999
191,1778516118510,2.631495,-0.29001692,0.6816251,-2.175902,-3.163213,6.1987553
192,1778516118520,2.631495,-0.29001692,0.6816251000000001,-2.0301597333333334,-3.2027664999999996,6.1996714666666675
193,1778516118530,2.631495,-0.29001692,0.6816251,-1.7386752,-3.2818735,6.2015038
194,1778516118540,2.631495,-0.29001692,0.6816251,-1.7386752,-3.2818735,6.2015038
195,1778516118550,2.631495,-0.29001692,0.6816251000000001,-1.7386752,-3.2818735,6.2015038
196,1778516118560,2.631495,-0.29001692,0.6816251,-1.7386752,-3.2818735,6.2015038
197,1778516118570,2.631495,-0.29001692,0.6816251,-1.7386752,-3.2818735,6.2015038
198,1778516118580,2.631495,-0.29001692,0.6816251000000001,-1.7386752,-3.2818735,6.2015038
199,1778516118590,3.041137875,0.18767863,0.5351836624999999,-1.350623025,-3.361591375,6.112852075
200,1778516118600,3.1776855000000004,0.34691048,0.48636985,-1.2212723,-3.388164,6.0833015
201,1778516118610,3.1776855,0.34691048,0.48636985,-1.2212723,-3.388164,6.0833015
202,1778516118620,3.1776855,0.34691048,0.48636985,-1.2212723,-3.388164,6.0833015
203,1778516118630,,,,,,
204,1778516118640,3.3179376,0.6251584,0.5256404,-1.9546161,-2.8637362,6.058256
205,1778516118650,3.3179376,0.6251584,0.5256404,-1.9546161,-2.8637362,6.058256
206,1778516118660,3.3179376,0.6251584,0.5256404,-2.38397805,-2.55356945,6.008547
207,1778516118670,3.3179376,0.6251584,0.5256404,-2.81334,-2.2434027,5.958838
208,1778516118680,3.47745905,0.82331025,0.7266582500000001,-2.81334,-2.2434027,5.958838
209,1778516118690,3.6369805,1.0214621,0.9276761,-2.81334,-2.2434027,5.958838
210,1778516118700,3.6369805,1.0214621,0.9276761,-2.96254375,-2.05853955,5.85102
211,1778516118710,3.6369805,1.0214621,0.9276761,-3.1117475,-1.8736764,5.743202
212,1778516118720,3.6369805,1.0214621,0.9276761,-3.1117475,-1.8736764,5.743202
213,1778516118730,3.8791287666666663,1.2715783333333333,1.3155645666666669,-2.5428283666666665,-1.5132659133333333,4.957018566666666
214,1778516118740,4.1914793,1.99432375,2.07153855,-1.4049901,-0.79244494,3.3846517
215,1778516118750,3.7166803,2.3747728,1.8357779,-1.4049901,-0.7924449399999999,3.3846517000000005
216,1778516118760,3.7166803,2.3747728,1.8357779,-0.23335053,-0.47616947,2.2582161
217,1778516118770,3.7166803,2.3747728,1.8357779,-0.2333505299999999,-0.47616947,2.2582161
218,1778516118780,3.7166803,2.3747728,1.8357779,-0.23335053,-0.47616947,2.2582161
219,1778516118790,3.4454855,2.4470533333333333,1.6242208333333334,0.1369356233333333,-0.42587489,1.8247054333333337
220,1778516118800,3.3098881,2.4831936,1.5184423,0.409470615,-0.390113815,1.44179475
221,1778516118810,3.3098881,2.4831936,1.5184423,0.67164636,-0.35827246,0.9433287
222,1778516118820,3.1267068333333334,2.534213,1.3633519666666667,0.6902268399999999,-0.27117326,0.7243335000000001
223,1778516118830,3.0351162,2.5597227,1.2858068,0.7273878,-0.09697486,0.2863431
224,1778516118840,3.0351161999999996,2.5597227,1.2858068,0.7273878000000001,-0.09697486,0.2863431
225,1778516118850,3.0351162,2.5597227,1.2858068,0.7273878,-0.09697486,0.2863431
226,1778516118860,3.0351162,2.5597227,1.2858068,0.7273878,-0.09697486,0.2863431
227,1778516118870,3.0351161999999996,2.5597227,1.2858068,0.7273878000000001,-0.09697486,0.2863431
228,1778516118880,3.0351162,2.5597227,1.2858068,0.7273878,-0.09697486,0.2863431
229,1778516118890,2.7770522,2.6422274,1.0440243,0.7273878,-0.09697486,0.2863431
230,1778516118900,2.7770522,2.6422274,1.0440243,0.7273878000000001,-0.09697486,0.2863431
231,1778516118910,2.7770522,2.6422274,1.0440243,0.7273878,-0.09697486,0.2863431
232,1778516118920,2.51842445,2.5455906500000003,0.844119375,0.5698991250000001,0.738001535,-0.717232125
233,1778516118930,2.4322152,2.5133784,0.7774844,0.5174029,1.016327,-1.0517572
234,1778516118940,2.4322152,2.5133784,0.7774844,0.5174029,1.016327,-1.0517572
235,1778516118950,2.4322152,2.5133784,0.7774844,0.5174029,1.016327,-1.0517572
236,1778516118960,2.3474134666666666,2.4793926,0.7436206333333333,0.5174029,1.016327,-1.0517572
237,1778516118970,2.17781,2.411421,0.6758931,0.5174029,1.016327,-1.0517572
238,1778516118980,2.17781,2.411421,0.6758931,0.5174029,1.016327,-1.0517572
239,1778516118990,2.17781,2.411421,0.6758931,0.5070945425,1.106162375,-1.211154875
240,1778516119000,2.094847775,2.34730155,0.6253565999999999,0.47616947,1.3756685,-1.6893479
241,1778516119010,2.0671937,2.3259284,0.6085111,0.5021312466666666,1.3386093666666667,-1.8375336
242,1778516119020,2.0671937,2.3259284,0.6085111,0.5540548,1.2644911,-2.133905
243,1778516119030,2.0671937,2.3259284,0.6085111,0.5540548,1.2644911,-2.133905
244,1778516119040,2.0671937,2.3259284,0.6085111,0.5540548,1.2644911,-2.133905
245,1778516119050,2.0671937,2.3259284,0.6085111,0.5540548,1.2644911,-2.133905
246,1778516119060,2.0671937,2.3259284,0.6085111,0.5540548,1.2644911,-2.133905
247,1778516119070,1.94267435,2.1777338000000004,0.5723352425,0.727731405,0.611056145,-2.8682413
248,1778516119080,1.9053551,2.0944514,0.58289987,0.7475463000000001,0.39675698,-3.1626022
249,1778516119090,1.9053551,2.0944514,0.58289987,0.720973675,0.38182896,-3.27229065
250,1778516119100,1.9053551,2.0944514,0.58289987,0.6412558,0.3370449,-3.6013560000000004
251,1778516119110,1.889576725,1.94718685,0.6985468625,0.6412558,0.3370449,-3.601356
252,1778516119120,1.8893176,1.7690665999999995,0.8526717,0.59539,0.4197662333333333,-3.746996533333333
253,1778516119130,1.8893176,1.7690666,0.8526717,0.48991394,0.82741696,-4.267963
254,1778516119140,1.9982264,1.5658027,0.9969890666666666,0.8263988933333334,1.31885804,-4.645681333333333
255,1778516119150,2.2971310000000003,0.954522125,1.252512125,2.0744984,2.5686884,-6.01519
256,1778516119160,2.3032746,0.8028822,1.22025415,2.2306508000000003,2.62626245,-6.17493125
257,1778516119170,2.2823892,0.7194932,1.1990334,2.3868032,2.6838365,-6.3346725
258,1778516119180,2.2823892,0.7194932,1.1990334,2.3868032,2.6838365,-6.3346725
259,1778516119190,2.2823892,0.7194932,1.1990334,2.3868032,2.6838365,-6.3346725
260,1778516119200,2.2823892,0.7194932,1.1990334,2.3868032,2.6838365,-6.3346725
261,1778516119210,2.2823892,0.7194932,1.1990334,2.3868032,2.6838365,-6.3346725
262,1778516119220,2.2823892,0.7194932,1.1990334,2.3868032,2.6838365,-6.3346725
263,1778516119230,1.9958482,0.4070562733333333,0.9462747666666664,2.8816042,2.765387,-6.7378435
264,1778516119240,1.8224233,-0.009146876,0.85541576,3.1915037,2.8967229,-6.917705325
265,1778516119250,1.4998436,-0.47222266,0.7579101,3.637397,2.967888799999999,-6.91698
266,1778516119260,1.1190134,-0.98739,0.6881956125,4.065308,2.6667323,-6.615518
267,1778516119270,1.0242670333333332,-1.1895817,0.6903044833333333,5.190114666666666,1.5075644666666663,-5.7988419
268,1778516119280,0.9934116,-1.2601346,0.6919306,5.483279,1.210124,-5.626527
269,1778516119290,0.9934116,-1.2601346,0.6919306,5.483279,1.210124,-5.626527
270,1778516119300,0.9934116,-1.2601346,0.6919306,5.483279,1.210124,-5.626527
271,1778516119310,0.9934116,-1.2601346,0.6919306,5.755763375,0.96799235,-5.512218975000001
272,1778516119320,1.00008885,-1.3268153,0.6512727775,5.8465915,0.8872818,-5.4741163
273,1778516119330,1.0023146,-1.3490422000000002,0.63772017,5.8465915,0.8872817999999999,-5.474116300000001
274,1778516119340,1.0023146,-1.3490422,0.63772017,5.8465915,0.8872818,-5.4741163
275,1778516119350,1.0023146,-1.3490422000000002,0.63772017,5.8465915,0.8872817999999999,-5.474116300000001
276,1778516119360,0.987893,-1.4483772,0.5477758850000001,5.97464395,0.83940522,-5.44983435
277,1778516119370,0.873679,-1.60091655,0.3869738,6.1026964,0.79152864,-5.4255524
278,1778516119380,0.7738866,-1.6541209,0.316116,6.1026964,0.79152864,-5.4255524
279,1778516119390,0.7738866,-1.6541209,0.316116,6.071848,0.8772025,-5.392871
280,1778516119400,0.5259859666666666,-1.6903019666666663,0.1813113933333333,5.838497,0.82848597,-5.224425
281,1778516119410,0.13622746,-1.721655425,0.0101835215,5.4551412500000005,0.736054455,-4.928689875
282,1778516119420,0.04762473,-1.7260764,-0.024391668,4.7719264,0.6797403,-4.3040037
283,1778516119430,-0.3386783,-1.7145512,-0.107201375,4.7719264,0.6797403000000001,-4.3040037
284,1778516119440,-0.42665092,-1.6953224333333334,-0.1188483966666666,4.7719264,0.6797403000000001,-4.3040037
285,1778516119450,-0.60259616,-1.6568649,-0.14214244,4.7719264,0.6797403,-4.3040037
286,1778516119460,-0.60259616,-1.6568649,-0.14214244,4.3103415,0.75938185,-3.80462145
287,1778516119470,-0.60259616,-1.6568648999999998,-0.14214244,3.8487566,0.8390234,-3.3052392000000004
288,1778516119480,-0.60259616,-1.6568649,-0.14214244,3.8487566,0.8390234,-3.3052392
289,1778516119490,-0.60259616,-1.6568649,-0.14214244,3.8487566,0.8390234,-3.3052392
290,1778516119500,-0.6379030933333333,-1.638306933333333,-0.1472646933333333,3.8487566,0.8390234,-3.3052392000000004
291,1778516119510,-0.70851696,-1.601191,-0.1575092,3.76781695,0.8664741575,-3.214105725
292,1778516119520,-0.7763257600000001,-1.3442856999999997,-0.21306121,2.3200662,1.5178474,-1.6136004999999998
293,1778516119530,-0.77632576,-1.3442857,-0.21306121,2.135164925,1.6248252,-1.43690775
294,1778516119540,-0.7763257600000001,-1.3442856999999997,-0.21306121,1.5804611,1.9457586,-0.9068295
295,1778516119550,-0.77632576,-1.3442857,-0.21306121,1.5804611,1.9457586,-0.9068295
296,1778516119560,-0.83974415,-1.2659885,-0.23306239,0.6356053,2.526844,-0.060170226
297,1778516119570,-0.83974415,-1.2659885,-0.23306239,0.6356053,2.526844,-0.060170226
298,1778516119580,-0.8398051,-1.16134825,-0.248886475,-0.39064834,2.85946,1.0859656
299,1778516119590,-0.8178526,-1.1407983,-0.25019753,-0.39064834,2.85946,1.0859656
300,1778516119600,-0.8178526,-1.1407983,-0.25019753,-0.39064834,2.85946,1.0859656
301,1778516119610,-0.8178526,-1.1407983,-0.25019753,-0.4966334599999999,2.861089066666666,1.2140437333333332
302,1778516119620,-0.8178526,-1.1407983,-0.25019753,-0.7086037,2.8643472,1.4702
303,1778516119630,-0.5728993,-1.1156749,-0.24037987,-1.6308575,2.7908907,2.5705209
304,1778516119640,-0.5728993,-1.1156749,-0.24037987,-1.6308575,2.7908907,2.5705209
305,1778516119650,-0.46088056,-1.1115283,-0.2181834533333333,-2.3433299,2.8232665000000003,3.2798373
306,1778516119660,-0.069729677125,-1.098753175,-0.1183148255,-2.6995661,2.8394544,3.6344955
307,1778516119670,0.044494467,-1.1004707666666669,-0.079801402,-3.1273245666666667,2.8344655333333333,4.061134
308,1778516119680,0.16153382,-1.1068939,-0.039758418,-3.5984545,2.806162,4.5459065
309,1778516119690,0.16153382,-1.1068939,-0.039758418,-3.5984545,2.806162,4.5459065
310,1778516119700,0.2485714066666666,-1.1174229666666669,0.0176839566666666,-3.8282926,2.7183504,4.8533244
311,1778516119710,0.2920902,-1.1226875,0.046405144,-3.8282926,2.7183504,4.8533244
312,1778516119720,0.32786973,-1.12713895,0.0845018805,-3.86826605,2.510618025,5.15238105
313,1778516119730,0.4352083199999999,-1.1404933,0.19879209,-3.9881864,1.8874208999999995,6.049551
314,1778516119740,0.5535689,-1.1716537,0.30873755,-3.9881864,1.8874209,6.049551
315,1778516119750,0.6026368,-1.1682389000000002,0.3337796566666666,-3.9417606333333337,1.743104,6.257703466666666
316,1778516119760,0.7007726,-1.1614093,0.38386387,-3.8489091,1.4544702,6.6740084
317,1778516119770,0.7958594333333333,-1.1519372,0.40876369,-3.774739866666667,1.3219633333333334,6.850039266666666
318,1778516119780,1.2367185,-1.0734773,0.4981998,-3.4631479,0.8562804,7.4403386
319,1778516119790,1.2367185,-1.0734773,0.4981998,-3.4631479,0.8562804,7.4403386
320,1778516119800,1.2367185,-1.0734773,0.4981998,-3.4631479000000005,0.8562804,7.4403386
321,1778516119810,1.2367185,-1.0734773,0.4981998,-3.4631479000000005,0.8562804,7.4403386
322,1778516119820,,,,,,
323,1778516119830,,,,,,
324,1778516119840,1.618753,-0.89322287,0.4953338,-3.090062,0.35643986,7.7509637
325,1778516119850,1.618753,-0.89322287,0.4953338,-3.090062,0.35643986,7.7509637
326,1778516119860,1.618753,-0.8932228700000001,0.4953338,-3.090062,0.35643986,7.7509637
327,1778516119870,1.618753,-0.89322287,0.4953338,-3.090062,0.35643986,7.7509637
328,1778516119880,1.618753,-0.89322287,0.4953338,-2.78692,-0.09789115,7.783645
329,1778516119890,1.618753,-0.8932228700000001,0.4953338,-2.78692,-0.09789115,7.783645
330,1778516119900,1.618753,-0.89322287,0.4953338,-2.78692,-0.09789115,7.783645
331,1778516119910,2.0131662,-0.4496604,0.5399705,-2.78692,-0.09789115,7.783645
332,1778516119920,2.5779555,0.020854875,0.7625445,-2.3263276,-0.63163465,7.6309285
333,1778516119930,2.5779555,0.020854875,0.7625445,-2.3263276,-0.63163465,7.6309285
334,1778516119940,2.5779555,0.020854875,0.7625445000000001,-2.3263276,-0.63163465,7.6309285
335,1778516119950,2.7938520999999996,0.2204092075,0.8423357499999999,-2.3263276,-0.63163465,7.6309285
336,1778516119960,3.0097487,0.41996354,0.922127,-2.3263276,-0.63163465,7.6309285
337,1778516119970,3.0097487,0.41996354,0.922127,-2.3263276,-0.63163465,7.6309285
338,1778516119980,3.0097487,0.4199635400000001,0.922127,-2.3263276,-0.63163465,7.6309285
339,1778516119990,3.0097487,0.41996354,0.922127,-2.158912325,-0.69879165,7.495278225
340,1778516120000,3.0097487,0.4199635400000001,0.922127,-1.6566665,-0.90026265,7.0883274
341,1778516120010,3.07478295,0.600675285,0.93188363,-1.07642093,-0.9867382875,6.4817383500000005
342,1778516120020,3.1398172,0.78138703,0.94164026,-0.88300574,-1.0155635,6.279542
343,1778516120030,3.1398172,0.78138703,0.94164026,-0.8830057400000001,-1.0155635,6.279542
344,1778516120040,3.1398172,0.78138703,0.94164026,-0.88300574,-1.0155635,6.279542
345,1778516120050,3.1398172,0.78138703,0.94164026,-0.8830057400000001,-1.0155635,6.279542
346,1778516120060,3.1398172,0.78138703,0.94164026,-0.88300574,-1.0155635,6.279542
347,1778516120070,3.1398172,0.78138703,0.94164026,-0.88300574,-1.0155635,6.279542
348,1778516120080,3.1497162000000003,0.9208260866666668,0.9201349633333334,-0.8830057400000001,-1.0155635,6.279542
349,1778516120090,3.1684623,1.2978044,0.83247237,-0.65400762425,-0.909196575,6.04561875
350,1778516120100,3.1653065999999996,1.592105,0.69851637,0.2688316153333333,-0.2959132866666666,4.9424087666666665
351,1778516120110,3.1653066,1.592105,0.69851637,0.7405214,0.29245174,4.1395283
352,1778516120120,3.02054205,1.7061666,0.5979617349999999,0.818559425,0.57138807,3.7146715
353,1778516120130,2.5426486,1.9426134,0.42063433,0.8965974500000001,0.8503244,3.2898146999999995
354,1778516120140,2.5426486,1.9426134,0.42063433,0.89659745,0.8503244,3.2898147
355,1778516120150,2.5426486,1.9426134,0.42063433,0.89659745,0.8503244,3.2898147
356,1778516120160,2.5426486,1.9426134,0.42063433,0.8965974500000001,0.8503244,3.2898146999999995
357,1778516120170,2.5426486,1.9426134,0.42063433,0.8959102175,1.20871145,2.762141775
358,1778516120180,2.5426486,1.9426134,0.42063433,0.8956811400000001,1.3281738,2.5862508
359,1778516120190,2.2904384,1.9673098,0.3679483,0.89568114,1.3281738,2.5862508
360,1778516120200,2.1436819333333337,1.9371862,0.2611127933333333,1.0304788233333333,1.3018047666666666,1.9025398333333332
361,1778516120210,2.0703037,1.9221244,0.20769504,1.0861185,1.2186762,1.7017179
362,1778516120220,2.0703037,1.9221244,0.20769504,1.0861185,1.2186762,1.7017179
363,1778516120230,2.030220033333334,1.8965538,0.1683634786666666,1.1363621333333334,1.1090768,1.5796466666666664
364,1778516120240,1.7844335,1.7857139,-0.032318957,1.4474452,0.41798455,0.86391616
365,1778516120250,1.5146006000000003,1.7050385,-0.21428078,1.5044084,-0.010231993,0.3820962
366,1778516120260,1.5146006,1.7050385,-0.21428078,1.5044084,-0.010231993,0.3820962
367,1778516120270,1.476122766666667,1.6975990333333335,-0.24462808,1.4706072,-0.0400116733333333,0.3322088766666666
368,1778516120280,1.3991671,1.6827201,-0.30532268,1.4030048,-0.099571034,0.23243423
369,1778516120290,1.3991671000000003,1.6827201,-0.30532268,1.2885693666666669,-0.1069523226666666,0.1845322116666666
370,1778516120300,1.38178795,1.7190789,-0.39734024,1.0596985,-0.1217149,0.088728175
371,1778516120310,1.3759949,1.7311985000000003,-0.4280127599999999,1.0596985,-0.1217149,0.088728175
372,1778516120320,1.3759949,1.7311985,-0.42801276,1.0596985,-0.1217149,0.088728175
373,1778516120330,1.4246563,1.7578261,-0.4478106733333333,0.9013316866666669,-0.1336776766666666,0.0185295766666666
374,1778516120340,1.5219791,1.8110813,-0.4874065,0.58459806,-0.15760323,-0.12186762
375,1778516120350,1.5219791,1.8110813,-0.4874065,0.58459806,-0.15760323,-0.12186762
376,1778516120360,1.7648591,1.8534617,-0.4485018,0.27763826,-0.1546507166666666,-0.3467678333333333
377,1778516120370,1.9987751,1.9835303,-0.32648247,-0.19272798,-0.10797043,-0.8049677000000001
378,1778516120380,1.9987751,1.9835303,-0.32648247,-0.19272798,-0.10797043,-0.8049677
379,1778516120390,1.9987751,1.9835303,-0.32648247,-0.19272798,-0.10797043,-0.8049677000000001
380,1778516120400,1.9987751,1.9835303,-0.32648247,-0.19272798,-0.10797043,-0.8049677
381,1778516120410,1.9987751,1.9835303,-0.32648247,-0.19272798,-0.10797043,-0.8049677
382,1778516120420,2.1940305,2.1010983,-0.17787623,-0.19272798,-0.10797043,-0.8049677000000001
383,1778516120430,2.41840335,2.1466039500000003,-0.035550854,-0.255723455,-0.085062984,-1.3785701499999998
384,1778516120440,2.5403109,2.1580325000000005,0.036404564,-0.2286163099999999,-0.076358154,-1.7046193999999997
385,1778516120450,2.5638692,2.1561625,0.048661377,-0.22861631,-0.076358154,-1.7046194
386,1778516120460,2.5638692,2.1561625,0.048661377,-0.1812742566666666,-0.0581340093333333,-1.8933767999999995
387,1778516120470,2.51494865,2.1125471,0.05773202775,-0.014049901,0.1226312,-2.9121473
388,1778516120480,2.2786288666666668,1.9391577666666668,0.13380862,-0.0088575463,0.1389718466666666,-2.9868765333333336
389,1778516120490,2.0995126,1.8540715,0.2315379,0.0015271631,0.17165314,-3.136335
390,1778516120500,2.0839629333333334,1.8303100333333333,0.2805854733333333,0.15347989,0.023060163,-3.12595
391,1778516120510,2.0528636,1.7827871,0.37868062,0.15347989,0.023060163,-3.12595
392,1778516120520,2.0528636,1.7827871,0.37868062,0.15347989,0.023060163,-3.12595
393,1778516120530,2.0528636,1.7827871,0.3786806200000001,0.15347989,0.023060163,-3.12595
394,1778516120540,2.1388442,1.737860625,0.455941235,0.4071416949999999,-0.153861681,-3.18990005
395,1778516120550,2.207527133333333,1.4135783666666668,0.4073408366666666,1.1931726,-0.2658281966666667,-3.911370266666667
396,1778516120560,2.1117086,1.3042834,0.36447248,1.2055426,-0.064751714,-4.30996
397,1778516120570,2.1117086,1.3042834,0.36447248,1.2055426,-0.064751714,-4.30996
398,1778516120580,2.1117086,1.3042834,0.36447248,1.2055426,-0.064751714,-4.30996
399,1778516120590,2.0374512,1.2393406,0.3658292675,1.2055426,-0.064751714,-4.30996
400,1778516120600,1.814679,1.0445122,0.36989963,1.1337659,0.13912456,-4.597219
401,1778516120610,1.814679,1.0445122,0.36989963,1.1337659,0.13912456,-4.597219
402,1778516120620,1.814679,1.0445122,0.36989963,1.1337659,0.13912456,-4.597219
403,1778516120630,1.6380834999999998,0.89371073,0.38776654,1.1365148,0.1788307999999999,-4.658
404,1778516120640,1.6380835,0.89371073,0.38776654,1.1365148,0.1788308,-4.658
405,1778516120650,1.5294592333333334,0.8002296533333334,0.3937221666666666,1.1365148,0.1788307999999999,-4.658
406,1778516120660,1.18564845,0.4694481299999999,0.413042395,1.306908025,0.2302198425,-4.80682225
407,1778516120670,1.0590862,0.32562876,0.42045137,1.4265231,0.25977045,-4.883715
408,1778516120680,1.0590862,0.32562876,0.42045137,1.4265231,0.25977045,-4.883715
409,1778516120690,1.0590862,0.32562876,0.42045137,1.4265231,0.25977045,-4.883715
410,1778516120700,1.0590862,0.32562876,0.42045137,1.4265231,0.25977045,-4.883715
411,1778516120710,1.0590862,0.32562876,0.42045137,1.4265231,0.25977045,-4.883715
412,1778516120720,0.61001531,-0.1256374166666666,0.3512400266666666,1.7901915666666666,0.28899015,-4.8549023333333325
413,1778516120730,0.5130178,-0.22903776,0.32184806,2.21453925,0.32314771,-4.6972482
414,1778516120740,0.4260614666666666,-0.36311062,0.2574133933333333,2.4570527,0.3426954199999999,-4.5540004
415,1778516120750,0.3825833,-0.43014705,0.22519606,2.4570527,0.34269542,-4.5540004
416,1778516120760,0.3505895599999999,-0.4919392866666666,0.2145653633333333,2.4570527,0.3426954199999999,-4.5540004
417,1778516120770,0.28660208,-0.61552376,0.19330397,2.4570527,0.34269542,-4.5540004
418,1778516120780,0.28660208,-0.61552376,0.19330397,2.617405,0.59330285,-4.065919
419,1778516120790,0.28660208,-0.61552376,0.19330397,2.617405,0.59330285,-4.065919
420,1778516120800,0.1895232525,-0.77600567,0.16961356,2.67589525,0.584521675,-3.9384773
421,1778516120810,0.060125455,-0.9618245,0.107750185,2.7343855,0.5757405,-3.8110356
422,1778516120820,0.060125455,-0.9618245,0.107750185,2.781193,0.46967902,-3.7242163
423,1778516120830,0.060125455,-0.9618245,0.107750185,2.8280005,0.3636175400000001,-3.637397
424,1778516120840,0.060125455,-0.9618245,0.107750185,2.8280005,0.36361754,-3.637397
425,1778516120850,-0.041221915,-1.0184131,0.0520152283333333,2.8380799000000003,0.1824959933333333,-3.5602244666666665
426,1778516120860,-0.0918956,-1.0467074,0.02414775,2.8431196,0.09193522,-3.5216382
427,1778516120870,-0.313189,-1.124273,-0.06945527,2.8431196,0.09193522,-3.5216382
428,1778516120880,-0.4246436799999999,-1.139502425,-0.1400691425,2.443957375,0.0076358154999999,-2.887903725
429,1778516120890,-0.46179524,-1.1445789,-0.1636071,2.3109033,-0.020463986,-2.6766589
430,1778516120900,-0.46179524,-1.1445789,-0.1636071,2.3109033,-0.020463986,-2.6766589
431,1778516120910,-0.46179524,-1.1445789,-0.1636071,2.3109033,-0.020463986,-2.6766589
432,1778516120920,-0.46179524,-1.1445789,-0.1636071,2.3109033,-0.020463986,-2.6766589
433,1778516120930,-0.4793166,-1.0850633,-0.1927145,1.7420859,0.2002620046666666,-2.074854766666667
434,1778516120940,,,,,,
435,1778516120950,,,,,,
436,1778516120960,2.9023645,1.3638601,0.30202982,-0.3371976,-0.62598413,-3.8835757
437,1778516120970,2.9023644999999996,1.3638601,0.30202982,-0.3371975999999999,-0.62598413,-3.8835757
438,1778516120980,2.9023644999999996,1.3638601,0.30202982,-0.5512040666666667,-0.4270457099999999,-4.2581381
439,1778516120990,2.9023645,1.3638601,0.30202982,-0.6582073,-0.3275765,-4.4454193
440,1778516121000,2.9023644999999996,1.3638601,0.30202982,-0.6582073,-0.3275765,-4.4454193
441,1778516121010,2.83269575,1.263335975,0.37610426,-0.73609263,-0.228998115,-4.57072315
442,1778516121020,2.675095,1.0426219,0.5232622,-0.8433503933333334,0.0276416533333333,-4.823035833333333
443,1778516121030,2.4256902,0.8229139,0.58936363,-0.7443393,0.5027421,-5.31636
444,1778516121040,2.2230362666666665,0.6543268000000001,0.6234713166666667,-0.42821655,0.3119994,-5.394704
445,1778516121050,2.1217093,0.57003325,0.64052516,-0.42821655,0.3119994,-5.394704
446,1778516121060,2.1217093,0.57003325,0.64052516,-0.42821655,0.3119994,-5.394704
447,1778516121070,1.8665112,0.39557186,0.66820973,-0.028099801,0.043982297,-5.285817
448,1778516121080,1.6699754,0.27727225,0.65302587,0.0526871259999999,0.0194458766666666,-5.245092666666666
449,1778516121090,1.6699754,0.27727225,0.65302587,0.21426098,-0.029626964,-5.163644
450,1778516121100,1.2656837,0.117689796,0.36959475,0.701426,0.18555032,-4.672814
451,1778516121110,1.2656837,0.117689796,0.36959475,0.699288,0.37843102,-4.580573
452,1778516121120,1.1638484,0.060491335,0.3081887,0.699288,0.37843102,-4.580573
453,1778516121130,1.1638484,0.060491335,0.3081887,0.699288,0.37843102,-4.580573
454,1778516121140,1.1638484,0.060491335,0.3081887,0.7057784425,0.4411974225,-4.565606750000001
455,1778516121150,1.1638484,0.060491335,0.3081887,0.72524977,0.62949663,-4.520708
456,1778516121160,1.1638484,0.060491335,0.3081887,0.72524977,0.62949663,-4.520708
457,1778516121170,1.1638484,0.060491335,0.3081887,0.72524977,0.62949663,-4.520708
458,1778516121180,0.9906268933333332,-0.0246355843333333,0.26733266,0.72524977,0.62949663,-4.520708
459,1778516121190,0.90401614,-0.067199044,0.24690464,0.72524977,0.62949663,-4.520708
460,1778516121200,0.90401614,-0.067199044,0.24690464,0.72524977,0.62949663,-4.520708
461,1778516121210,0.90401614,-0.067199044,0.24690464,0.72524977,0.62949663,-4.520708
462,1778516121220,0.90401614,-0.067199044,0.24690464,0.772668185,0.709290915,-4.4803147
463,1778516121230,0.90401614,-0.067199044,0.24690464,0.8200866000000001,0.7890852,-4.4399214
464,1778516121240,0.748519285,-0.1261506535,0.22531802,0.8200866,0.7890852,-4.4399214
465,1778516121250,0.5080987466666667,-0.2019020299999999,0.2012922333333333,0.8200866000000001,0.7890852,-4.4399214
466,1778516121260,0.41380462,-0.22995245,0.19287711,1.038050925,0.8241336,-4.2541419000000005
467,1778516121270,0.41380462,-0.22995245,0.19287711,1.1107057,0.8358164,-4.1922154
468,1778516121280,0.41380462,-0.22995245,0.19287711,1.1107057,0.8358164,-4.1922154
469,1778516121290,0.41380462,-0.22995245,0.19287711,1.1107057,0.8358164,-4.1922154
470,1778516121300,0.3383530733333333,-0.2488559833333333,0.18303913,1.3854424,0.7486153999999999,-3.9713876
471,1778516121310,0.3006273,-0.25830775,0.17812014,1.3854424,0.7486154,-3.9713876
472,1778516121320,0.3006273,-0.25830775,0.17812014,1.3854424,0.7486154,-3.9713876
473,1778516121330,0.3006273,-0.25830775,0.17812014,1.3854424,0.7486153999999999,-3.9713876
474,1778516121340,0.3006273,-0.25830775,0.17812014,1.3854424,0.7486154,-3.9713876
475,1778516121350,0.08124458,-0.3314014666666666,0.1177914233333333,2.1289164333333335,0.2562070566666667,-3.5120168666666665
476,1778516121360,-0.1082837575,-0.3977518774999999,-0.05733566225,2.9524262500000003,-0.5369505325,-2.9609402
477,1778516121370,-0.1276294,-0.4033772,-0.08482202,3.017827,-0.59650993,-2.8828259
478,1778516121380,-0.1276294,-0.4033772,-0.08482202,3.017827,-0.59650993,-2.8828259
479,1778516121390,-0.1276294,-0.4033772,-0.08482202,3.017827,-0.59650993,-2.8828259
480,1778516121400,-0.1276294,-0.4033772,-0.08482202,3.017827,-0.59650993,-2.8828259
481,1778516121410,-0.14006914,-0.4405135199999999,-0.19299906,2.9767463,-0.7128796999999999,-2.5529585
482,1778516121420,-0.14006914,-0.44051352,-0.19299906,2.9767463,-0.7128797,-2.5529585
483,1778516121430,-0.14006914,-0.44051352,-0.19299906,2.9767463,-0.7128797,-2.5529585
484,1778516121440,-0.11657184,-0.4628319066666666,-0.2092195266666666,2.9767463,-0.7128796999999999,-2.5529585
485,1778516121450,-0.08384636,-0.483016,-0.21678095,2.7120126,-0.6157521749999999,-2.15330005
486,1778516121460,-0.024818521,-0.5100907,-0.21269535,2.6406178,-0.5777258,-2.0685425
487,1778516121470,-0.024818521,-0.5100907,-0.21269535,2.474615,-0.43142357,-1.8822285
488,1778516121480,-0.0009909111249999,-0.5172710275000001,-0.2243118675,2.3701572,-0.32345316,-1.7734945
489,1778516121490,0.0069516255,-0.51966447,-0.22818404,2.3701572,-0.32345316,-1.7734945
490,1778516121500,0.0210073241249999,-0.5140391400000001,-0.240898195,2.3701572,-0.32345316,-1.7734945
491,1778516121510,0.06317442,-0.49716315,-0.27904066,2.3701572,-0.32345316,-1.7734945
492,1778516121520,0.06317442,-0.49716315,-0.27904066,2.0189097,-0.066737026,-1.53205
493,1778516121530,0.06317442,-0.49716315,-0.27904066,2.0189097,-0.066737026,-1.53205
494,1778516121540,0.06317442,-0.49716315,-0.27904066,2.0189097,-0.066737026,-1.53205
495,1778516121550,0.08760674,-0.4798653933333334,-0.2973953966666666,1.8937841333333332,-0.015424346,-1.4885767666666665
496,1778516121560,0.13647138,-0.44526988,-0.33410487,1.643533,0.087201014,-1.4016303
497,1778516121570,0.13647138,-0.44526988,-0.33410487,1.643533,0.087201014,-1.4016303
498,1778516121580,0.1514315966666666,-0.43760684,-0.3335357233333333,1.5238543,0.1303688226666666,-1.3899220333333335
499,1778516121590,0.18135203,-0.42228076,-0.33239743,1.2844969,0.21670444,-1.3665055
500,1778516121600,0.18135203,-0.42228076,-0.33239743,1.2844969,0.21670444,-1.3665055
501,1778516121610,0.197176135,-0.415573045,-0.31553669,1.1987085175,0.24446063,-1.3764321
502,1778516121620,0.19275515,-0.4480749,-0.17952266,0.6534731,0.4196644,-1.4938709999999995
503,1778516121630,0.19275515,-0.4480749,-0.17952266,0.6534731,0.4196644,-1.4938709999999995
504,1778516121640,0.19275515,-0.4480749,-0.17952266,0.6534731,0.4196644,-1.4938709999999995
505,1778516121650,0.19275515,-0.4480749,-0.17952266,0.34284812,0.54336464,-1.638646
506,1778516121660,0.19275515,-0.4480749,-0.17952266,0.34284812,0.54336464,-1.638646
507,1778516121670,0.15116736,-0.4897237,-0.12238518,0.21044308,0.68432176,-1.7200438
508,1778516121680,0.097170305,-0.51865832,-0.0888466435,0.20952678,0.7630470300000001,-1.7277559500000002
509,1778516121690,0.0020580475,-0.5610998150000001,-0.05221341425,0.22476023,0.86322895,-1.71698945
510,1778516121700,-0.2051542533333333,-0.6295896133333333,-0.0566699753333333,0.27320948,0.9275989,-1.6615535
511,1778516121710,-0.318402725,-0.659962325,-0.08261153125,0.304936295,0.95737855,-1.561447925
512,1778516121720,-0.5323481,-0.7091267,-0.13982524,0.3155119,0.9673051,-1.5280794
513,1778516121730,-0.596986025,-0.7164442200000001,-0.149337985,0.20421988875,0.8491026875000001,-0.8930467937500001
514,1778516121740,-0.66162395,-0.72376174,-0.15885073,-0.022143865,0.59773165,-0.088728175
515,1778516121750,-0.66162395,-0.72376174,-0.15885073,-0.022143865,0.59773165,-0.088728175
516,1778516121760,-0.66162395,-0.72376174,-0.15885073,-0.022143865,0.59773165,-0.088728175
517,1778516121770,-0.66162395,-0.72376174,-0.15885073,-0.3352123,0.33276883,0.8081747
518,1778516121780,-0.66162395,-0.72376174,-0.15885073,-0.3352123,0.33276883,0.8081747
519,1778516121790,-0.66162395,-0.72376174,-0.15885073,-0.3352123,0.33276883,0.8081747
520,1778516121800,-0.6899487950000001,-0.73449407,-0.137812915,-0.3352123,0.33276883,0.8081747
521,1778516121810,-0.7064436700000001,-0.73921995,-0.07533976,-0.47464228,0.297262295,1.23188615
522,1778516121820,-0.6946137,-0.7332135000000001,-0.03390442,-0.61407226,0.26175576,1.6555976
523,1778516121830,-0.66781335,-0.7239294175,-0.0174552885,-0.61407226,0.26175576,1.6555976
524,1778516121840,-0.4204920133333333,-0.69193063,0.025712882,-1.0216211733333334,0.60689463,2.7146342333333333
525,1778516121850,-0.316298945,-0.690101265,0.02344649,-1.6619351999999998,1.26907255,4.1347177
526,1778516121860,0.2954847266666666,-0.8140922566666666,0.20448347,-2.571589866666667,2.1498383333333333,6.024403866666667
527,1778516121870,0.8093764999999999,-0.89968665,0.29782225,-2.96178,2.5178337,6.8584895
528,1778516121880,1.0277429,-0.9234075,0.30105415,-3.0607402,2.4715607,7.5163913
529,1778516121890,1.0277429,-0.9234075,0.30105415,-3.0750955666666666,2.3910792666666665,7.693134866666667
530,1778516121900,1.5318272,-0.8882834775,0.24731626,-3.1038063,2.2301164,8.046622
531,1778516121910,1.6998553,-0.87657547,0.22940363,-3.1038063,2.2301164,8.046622
532,1778516121920,2.0253468249999997,-0.7996503175,0.1505575625,-3.146299575,2.1105394,8.124278499999999
533,1778516121930,2.133844,-0.7740086,0.12427554,-3.160464,2.0706804,8.150164
534,1778516121940,2.133844,-0.7740086,0.12427554,-3.1604639999999997,2.0706804,8.150164
535,1778516121950,2.6014017999999997,-0.40720364,-0.20479854,-3.5099170500000003,1.959350325,7.934605
536,1778516121960,2.706560399999999,-0.13830076,-0.368802,-4.629595,1.13269686,7.623751066666666
537,1778516121970,2.7065604,-0.13830076,-0.368802,-4.8113275,0.89644474,7.6181006
538,1778516121980,2.558259,0.016586334,-0.012622688,-4.8113275,0.8964447400000001,7.618100600000001
539,1778516121990,2.84736125,0.4824061985,0.964980053,-1.097190375,-1.06191289,7.04060365
540,1778516122000,3.0467020999999996,0.7929730999999999,1.1107355,1.2024882,-1.7924314,6.646061
541,1778516122010,3.20347955,1.0286423,0.6726917,1.7526105749999998,-1.572519925,6.1734803750000005
542,1778516122020,3.2557387,1.1071987,0.5266771,1.9359847,-1.4992161,6.015953499999999
543,1778516122030,3.26159275,1.3210832,0.051618875,1.700038,-1.03083513,5.3292646
544,1778516122040,3.2033372666666664,1.619281566666667,-0.57340745,0.92255926,-0.15790866,4.158007
545,1778516122050,3.1712825,1.6614385,-0.6483915,0.92255926,-0.15790866,4.158007
546,1778516122060,3.1471958,1.6904188,-0.6827380000000001,0.92255926,-0.15790866,4.158007
547,1778516122070,3.0749356999999997,1.7773597,-0.7857775,0.2612976,0.24174993,3.6931386
548,1778516122080,2.467674425,2.051400325,-0.16923242275,0.2612976,0.24174993,3.6931386
549,1778516122090,2.265254,2.1427472,0.036282603,0.2612976,0.24174993,3.6931386
550,1778516122100,2.265254,2.1427472,0.036282603,0.2612976,0.24174993,3.6931386
551,1778516122110,2.265254,2.1427472,0.036282603,0.2612976,0.24174993,3.6931386
552,1778516122120,2.265254,2.1427472,0.036282603,0.2612976,0.24174993,3.6931386
553,1778516122130,,,,,,
554,1778516122140,2.2678151,2.1713462999999997,0.0889381215,-2.4228442,0.6426302,0.93523467
555,1778516122150,2.2703762,2.1999454,0.14159364,-2.19888585,0.0280234419999999,-0.3542254935
556,1778516122160,2.2703762,2.1999454,0.14159364,-2.1760547,-0.023365596,-0.65576386
557,1778516122170,2.2703762,2.1999454,0.14159364,-2.1760547,-0.023365596,-0.65576386
558,1778516122180,2.2703762,2.1999454,0.14159364,-2.1760547,-0.023365596,-0.65576386
559,1778516122190,2.3471694,2.1705128,0.12752777,-2.1760547,-0.023365596,-0.65576386
560,1778516122200,2.385566,2.1557965,0.120494835,-2.1760547,-0.023365596,-0.65576386
561,1778516122210,2.385566,2.1557965,0.1204948349999999,-2.1760547,-0.023365596,-0.65576386
562,1778516122220,2.385566,2.1557965,0.120494835,-2.1760547,-0.023365596,-0.65576386
563,1778516122230,2.385566,2.1557965,0.120494835,-2.21453915,0.0846811919999999,-1.34344543
564,1778516122240,2.385566,2.1557965,0.1204948349999999,-2.2530236,0.19272798,-2.031127
565,1778516122250,2.45242965,2.02463035,0.1557103074999999,-2.2530236,0.19272798,-2.031127
566,1778516122260,2.5192933,1.8934641999999997,0.19092578,-2.2530236,0.19272798,-2.031127
567,1778516122270,2.5192933,1.8934642,0.19092578,-2.237981075,0.317000885,-2.293111825
568,1778516122280,2.4449596,1.6308879,0.31940886,-2.1928535,0.6898196,-3.0790663
569,1778516122290,2.3616417666666667,1.478257,0.4413672066666667,-2.060295733333333,0.8029824,-3.295210766666667
570,1778516122300,2.1950061,1.1729952,0.6852839,-1.7951802,1.029308,-3.7274997
571,1778516122310,2.1950061,1.1729952,0.6852839,-1.0770572,0.7566584399999999,-3.9783618
572,1778516122320,2.2290325,1.1393347,0.7393724,-0.4176791,0.43264532,-4.1636577
573,1778516122330,2.2290325,1.1393347,0.7393724,-0.4176791,0.43264532,-4.1636577
574,1778516122340,2.328021966666667,1.1501483666666668,0.7053866866666666,-0.4176791,0.43264532,-4.1636577
575,1778516122350,2.3775167,1.1555552,0.68839383,0.68554354,-0.35735616,-4.3142357
576,1778516122360,2.3775167,1.1555552,0.68839383,0.68554354,-0.35735616,-4.3142357
577,1778516122370,2.57887,1.1670192,0.52807957,0.7943539049999999,-0.42985823,-4.362188575
578,1778516122380,2.57887,1.1670192,0.52807957,1.120785,-0.64736444,-4.5060472
579,1778516122390,2.6538134,1.1895816,0.41789025,1.132086,-0.6290385,-4.7305403
580,1778516122400,2.6538134,1.1895816,0.4178902499999999,1.132086,-0.6290385,-4.7305403
581,1778516122410,2.6097255,1.2520242,0.25867364,0.8627326249999999,-0.5020930575,-4.939418175
582,1778516122420,2.6097255,1.2520242,0.25867364,0.622319,-0.40485093,-5.0460525
583,1778516122430,2.6116157,1.1755564,0.28965104,0.4879286375,-0.3632739175,-5.096677875
584,1778516122440,2.6116157,1.1755564,0.28965104,0.08475755,-0.23854288,-5.248554
585,1778516122450,2.6116157,1.1755564,0.28965104,0.017002415,-0.1744529333333333,-5.3202289
586,1778516122460,2.6116157,1.1755564,0.28965104,-0.118507855,-0.04627304,-5.4635787
587,1778516122470,2.540453075,1.0701844,0.3858304475,-0.118507855,-0.04627304,-5.4635787
588,1778516122480,2.5167322,1.0350604,0.4178902499999999,-0.118507855,-0.04627304,-5.4635787
589,1778516122490,2.5167322,1.0350604,0.41789025,-0.118507855,-0.04627304,-5.4635787
590,1778516122500,2.5167322,1.0350604,0.4178902499999999,-0.118507855,-0.04627304,-5.4635787
591,1778516122510,2.4479172,0.91892558,0.449934795,-0.09147706875,-0.0463493985,-5.525619775
592,1778516122520,2.3791022,0.80279076,0.48197934,0.10514518,-0.162871947,-5.8168881500000005
593,1778516122530,2.3791022,0.80279076,0.4819793399999999,0.22067507,-0.27916542,-5.9220333
594,1778516122540,2.1319537,0.45649004,0.44551378,0.22067507,-0.27916542,-5.9220333
595,1778516122550,1.9964579666666669,0.32046584,0.4202684133333333,0.3058907566666666,-0.3949243733333333,-5.9714113666666675
596,1778516122560,1.4249002,-0.12677568,0.36221626,0.52671856,-0.7678576,-5.9886174
597,1778516122570,1.336602375,-0.1759706275,0.362109545,0.52671856,-0.7678576,-5.9886174
598,1778516122580,1.0717089,-0.32355547,0.3617894,0.52671856,-0.7678576,-5.9886174
599,1778516122590,0.9395060666666666,-0.3881324133333333,0.3546751666666667,0.7690284533333333,-0.9914342666666668,-5.540242466666666
600,1778516122600,0.6751004,-0.5172863,0.3404467,0.8901834,-1.1032226,-5.316055
601,1778516122610,0.5588741,-0.5458652,0.3198560666666666,0.8901834000000001,-1.1032226,-5.316055
602,1778516122620,0.3264215,-0.603023,0.2786748,1.050497325,-1.095205025,-4.66846105
603,1778516122630,0.2851385999999999,-0.6137756566666667,0.27312569,1.0870347,-1.055117,-4.3988404
604,1778516122640,0.093542045,-0.6580109424999999,0.2516915249999999,1.186567575,-0.870712055,-3.916409725
605,1778516122650,0.0016667639999999,-0.7359982,0.2114960833333333,1.2197452,-0.80924374,-3.7555995
606,1778516122660,-0.026099084,-0.7712035,0.19312102,1.4196508,-0.54458636,-3.3771684
607,1778516122670,-0.0639264926666666,-0.8176493333333333,0.17596555,1.4196508,-0.54458636,-3.3771684
608,1778516122680,-0.13958131,-0.910541,0.14165461,1.4196508,-0.54458636,-3.3771684
609,1778516122690,-0.2614024474999999,-1.0022384,0.0839530699999999,1.73459,-0.84421577,-3.193336175
610,1778516122700,-0.7301646,-1.3351388,-0.13982524,2.857322266666667,-2.5482753333333332,-1.5598953
611,1778516122710,-0.82748735,-1.355384,-0.23281845,2.624888,-2.231338,-1.2469287
612,1778516122720,-0.89371073,-1.3436148999999995,-0.2997126,1.7502307333333331,-1.0938051066666663,-0.38306342
613,1778516122730,-0.8717582075,-1.3296202,-0.30469764,1.3129021,-0.52503866,0.04886922
614,1778516122740,-0.8644407,-1.3249553,-0.30635932,1.3129021,-0.52503866,0.04886922
615,1778516122750,-0.76684352,-1.27605,-0.32750385,0.577802165,0.1613066175,0.825966205
616,1778516122760,-0.70876086,-1.240926,-0.34203213,0.19685133,0.4885395,1.2287555
617,1778516122770,-0.70876086,-1.240926,-0.34203213,0.19685133,0.4885395,1.2287555
618,1778516122780,-0.70876086,-1.240926,-0.34203213,0.0760145474999999,0.56398135,1.3552046
619,1778516122790,-0.65253806,-1.1914516,-0.33260069,-0.2864958,0.7903069,1.7345519000000005
620,1778516122800,-0.62442666,-1.1667144,-0.32788497,-0.2864958,0.7903069,1.7345519
621,1778516122810,-0.62442666,-1.1667144,-0.32788497,-0.2864958,0.7903069,1.7345519000000005
622,1778516122820,-0.62442666,-1.1667144,-0.32788497,-0.2864958,0.7903069,1.7345519
623,1778516122830,-0.4906688675,-1.013275625,-0.264375185,-0.8629998875,1.1428143,2.4439573
624,1778516122840,-0.4680150999999999,-0.9845087,-0.25519782,-1.0049242333333332,1.2069678666666668,2.6606235333333337
625,1778516122850,-0.4680151,-0.9845087,-0.25519782,-1.1724031,1.2678508,2.9220738
626,1778516122860,-0.3324584,-0.8671847600000001,-0.24897793,-1.1724031,1.2678508,2.9220738
627,1778516122870,-0.2165217725,-0.7910370200000001,-0.2263851475,-1.395063475,1.3488286,3.18802935
628,1778516122880,-0.133036216,-0.73024586,-0.2039753066666666,-1.5348498,1.405193666666667,3.3442836
629,1778516122890,0.103893252,-0.5804607125,-0.13898675875,-1.680070275,1.468061925,3.49819615
630,1778516122900,0.286785,-0.5043587,-0.107750185,-1.7411186,1.46172415,3.5920403
631,1778516122910,0.4327284866666667,-0.4504937666666667,-0.0641704103333333,-1.6814574666666668,1.2308934333333337,3.669823766666666
632,1778516122920,0.5017975666666666,-0.4051252666666666,-0.0486817036666666,-1.4858279,1.0493646766666669,3.652566866666666
633,1778516122930,0.49399224,-0.3682532,-0.061284065,-1.2589933,0.89888823,3.673438
634,1778516122940,0.49399224,-0.3682532,-0.061284065,-1.2589933,0.89888823,3.673437999999999
635,1778516122950,0.55905706,-0.31514034,-0.14464259,-1.2485704,0.7829765325,4.0367500000000005
636,1778516122960,0.90993123,-0.1525393885,-0.2009873449999999,-1.68354455,0.65156413,4.80147715
637,1778516122970,1.2608054,0.010061563,-0.2573321,-2.2078195666666667,0.54209199,5.531843033333334
638,1778516122980,1.44721865,0.12554085325,-0.16353089,-2.3794727,0.50869805,5.7053285
639,1778516122990,2.1376858,0.5901564,0.25452703,-2.3794727,0.50869805,5.7053285
640,1778516123000,2.1376858,0.5901564,0.25452703,-2.8038332749999997,0.5515349825,6.379838375
641,1778516123010,2.41014065,0.7587028250000001,0.251691505,-2.9452868,0.56581396,6.604675
642,1778516123020,3.3005176666666665,1.1659420333333337,0.2057030586666667,-3.5358407666666665,0.7675012733333334,6.841589
643,1778516123030,4.536362,1.6433276,0.119397216,-4.50914,0.9652816125,6.52125375
644,1778516123040,4.268704466666667,1.7017050666666669,1.066403676666667,-4.71028,0.48752137,4.979264466666667
645,1778516123050,3.9501239,1.69706545,1.840717225,-3.3108897,-0.42913285,3.866166
646,1778516123060,3.9045572000000006,1.6996113,1.9720054,-3.3108897,-0.42913285,3.866166
647,1778516123070,3.71352455,1.724811,2.2842339999999997,-0.75625116,-1.2209669,3.0653217
648,1778516123080,3.098148266666667,1.7315238,1.5167349,0.41890086,-1.1383982866666666,2.373262316666666
649,1778516123090,2.6417396,1.7520534,0.6671731,2.7692049,-0.97326106,0.98914355
650,1778516123100,2.5854405000000003,1.750407,0.585278075,2.616030425,-0.789505155,0.86670325
651,1778516123110,2.300683,1.7068679,0.2163540899999999,1.4162910999999998,0.52412236,-0.0448985959999999
652,1778516123120,2.0098325666666668,1.5787303666666668,0.25117319,0.6236934,1.4005613,-1.1068878
653,1778516123130,1.7588831,1.4467307,0.34105647,0.65225136,1.6003143,-1.870622
654,1778516123140,1.6163545333333331,1.2120016,0.2101748666666666,1.8579466666666664,0.7706065166666667,-3.2723542
655,1778516123150,1.6591213,1.1230533,0.09439575,2.081218,0.50442195,-3.6308303
656,1778516123160,1.7994342,1.0126201,0.0035977708,2.087174,0.31597003,-4.159076
657,1778516123170,1.7994342,1.0126201,0.0035977708,2.022803975,0.3002784324999999,-4.3487498
658,1778516123180,1.8386286,0.970224325,-0.00440574455,2.0013473,0.2950479,-4.4119744
659,1778516123190,1.8516934,0.9560923999999998,-0.0070735829999999,2.0013473,0.2950479,-4.4119744
660,1778516123200,1.9241671,0.65884945,0.059393712,1.8449658,0.2855795,-4.9845076
661,1778516123210,1.9038916,0.6095478,0.08232188,1.8286760666666664,0.2679153133333333,-5.1165055
662,1778516123220,1.9038916,0.6095478,0.08232188,1.7960966,0.23258694,-5.3805013
663,1778516123230,1.9038916,0.6095478,0.08232188,1.7960966,0.23258694,-5.3805013
664,1778516123240,2.0237765,0.5744238,0.13964228,1.7917187,0.1754201346666666,-5.444998433333333
665,1778516123250,2.0237765,0.5744238,0.13964228,1.7829629,0.061086524,-5.5739927
666,1778516123260,2.1691508,0.4533801,0.20269476,1.8574376,-0.3516547533333333,-6.105394466666667
667,1778516123270,2.142350475,0.4038192875,0.197221875,1.733406475,-0.5732588574999999,-6.3693389
668,1778516123280,1.75238885,0.18315093,0.161137445,1.2722032399999998,-0.7003188475,-6.4126341
669,1778516123290,1.6867447,0.16879034,0.17324181,0.95722586,-0.6914995,-6.2415156
670,1778516123300,1.5673475,0.084212236,0.330751,0.33643404,-0.5128214,-5.872095
671,1778516123310,1.5673475,0.084212236,0.330751,0.33643404,-0.5128214,-5.872095
672,1778516123320,-1.2444018,-1.3809342,-0.1624485,2.0760255,-1.1829406,-1.7484491
673,1778516123330,-1.2444018,-1.3809342,-0.1624485,2.0760255,-1.1829406,-1.7484491
674,1778516123340,-1.2444018,-1.3809341999999998,-0.1624485,1.7527251,-0.8428413,-0.8772025
675,1778516123350,-1.2745864999999998,-1.385111275,-0.18959948,1.7527251,-0.8428413,-0.8772025
676,1778516123360,-1.3651406,-1.3976425,-0.27105242,1.7527251,-0.8428413,-0.8772025
677,1778516123370,-1.3986182,-1.387763875,-0.3536944325,1.53655515,-0.7099781199999999,-0.3051272
678,1778516123380,-1.0664647,-1.3145279,-0.51698136,0.47891834,-0.24648413,1.9523253
679,1778516123390,-0.8166127,-1.2501339,-0.5489344533333333,0.2270891433333333,-0.138971845,2.2347996
680,1778516123400,-0.47746688,-1.1701902,-0.57411885,-0.7828238175,0.2887483712499999,3.173024925
681,1778516123410,-0.47746688,-1.1701902,-0.57411885,-1.30760798,0.4761185733333333,3.499646966666667
682,1778516123420,-0.1541248475,-1.01698002,-0.50153841,-1.4856243,0.5343544,3.6007452
683,1778516123430,-0.04634417,-0.96590996,-0.4773449299999999,-1.7304794666666667,0.5915212,3.689727866666667
684,1778516123440,-0.04634417,-0.96590996,-0.47734493,-2.2201898,0.7058548,3.8676932
685,1778516123450,-0.023583695,-0.952692735,-0.4650728775,-2.300518575,0.7227681324999999,3.8863628
686,1778516123460,0.0747807866666666,-0.8640544600000001,-0.3653262133333333,-2.5415049,0.7735081300000001,3.9423716
687,1778516123470,0.089822315,-0.83956116,-0.33386096,-2.673069975,0.804853155,3.974709325
688,1778516123480,0.093887595,-0.7968757866666666,-0.26625538,-3.2361604000000006,0.94215781,4.1441099
689,1778516123490,0.2600304224999999,-0.62171312,-0.1221870087499999,-3.40461925,0.92523175,4.2781184
690,1778516123500,0.5488735,-0.34813008,0.048051585,-3.4202344,0.7770205999999998,4.371657
691,1778516123510,0.57732028,-0.27911691,0.07462326,-3.370258,0.71341425,4.334890575
692,1778516123520,0.58680254,-0.25611252,0.083480485,-3.2203288,0.5225952,4.2245913
693,1778516123530,0.58680254,-0.25611252,0.083480485,-2.882673,0.08552113,4.0449967
694,1778516123540,0.6108587999999999,0.02469656,0.325217155,-1.646701825,-1.000444625,3.8832321
695,1778516123550,0.6932111666666666,0.1212062633333333,0.34375991,-1.3926201,-1.1910346,3.8753289999999994
696,1778516123560,0.88739935,0.2298914775,0.2891479799999999,-1.08004797,-1.19721955,3.889302625
697,1778516123570,0.9379206,0.25696623,0.27324766,-0.8313876,-0.8219192,3.8716638
698,1778516123580,1.1217117,0.3906935199999999,0.09268834,-0.8964956333333333,-0.6392704833333333,3.817449533333334
699,1778516123590,1.1217117,0.39069352,0.09268834,-1.0267117,-0.27397305,3.709021
700,1778516123600,1.9071843333333336,0.8239505133333335,0.4269151266666667,-1.0267117,-0.27397305,3.709021
701,1778516123610,3.4781296,1.6904645,1.0953687,0.5736024500000001,-0.6683629249999999,4.72824975
702,1778516123620,4.213843466666667,2.3609913,0.35650456,0.9692903666666668,-0.4157447,4.819268699999999
703,1778516123630,4.062859,2.8146763,0.11921428,-1.4399621,0.8782715,2.9628491
704,1778516123640,4.062859,2.8146763,0.11921428,-1.4399621,0.8782715,2.9628491
705,1778516123650,2.8616303500000004,2.14183225,0.208060925,0.1597030875,0.812336225,-1.138805575
706,1778516123660,1.6604017,1.4689882,0.29690757,0.55863625,0.9077458,-2.5502098
707,1778516123670,1.807768033333333,1.4115255,0.3145305466666666,0.6289366733333334,0.76480329,-3.036153
708,1778516123680,2.0129528,1.1537716,0.32969912,0.8781188,0.49312097,-4.0118575
709,1778516123690,1.9369219333333332,1.0040423333333333,0.3378042666666667,1.1233811,0.7870999,-5.380959
710,1778516123700,1.8445588,0.7998028,0.36739948,1.1233811,0.7870999,-5.380959
711,1778516123710,1.8445588,0.7998028,0.36739948,2.5027149,-0.075594574,-7.1352115
712,1778516123720,1.8445588,0.7998028,0.36739948,2.5027149,-0.075594574,-7.1352115
713,1778516123730,1.1417739,-0.115250625,0.18781583,2.5027149,-0.075594574,-7.1352115
714,1778516123740,1.1417739,-0.115250625,0.18781583,2.266233675,-0.4783075049999999,-6.628078825
715,1778516123750,0.7688863,-0.3392880999999999,0.06402813,2.1905627,-0.547488,-6.4967046
716,1778516123760,0.7688863,-0.3392881,0.06402813,2.1905627,-0.547488,-6.4967046
717,1778516123770,0.57253337,-0.55954486,0.19702369,1.6143641000000002,-0.6646214,-5.144707
718,1778516123780,0.57253337,-0.55954486,0.19702369,1.586073425,-0.7074583025,-4.670637475
719,1778516123790,0.6154423800000001,-0.5765987066666667,0.2153174366666666,1.5766432,-0.7217372699999999,-4.5126143
720,1778516123800,0.7280912466666667,-0.68235692,0.2753615866666667,1.5766432,-0.7217372699999999,-4.5126143
721,1778516123810,0.310734595,-0.9198250325,0.1825868675,2.7793987,-0.9930759675,-4.2145883
722,1778516123820,-0.0705529,-0.99280185,0.05939371,3.6354117,-2.6839893,-2.7409523
723,1778516123830,-1.1660639666666668,-0.90021511,-0.1752947733333333,3.6354117,-2.6839893,-2.7409523
724,1778516123840,-1.1195469999999998,-0.8770633649999999,-0.14186803,2.667114,-2.0722077,-0.98776905
725,1778516123850,-1.0651841,-0.8710264,-0.12628786,1.3269011,-0.95890574,1.4583389333333334
726,1778516123860,-1.0651841,-0.8710264,-0.12628786,1.1409435,-0.70814556,1.8048013
727,1778516123870,-0.9532669666666664,-0.8589119133333334,-0.1222632266666666,1.1409435,-0.7081455599999998,1.8048013
728,1778516123880,-0.8973084,-0.85285467,-0.12025091,1.0202594500000002,-0.5134322575,2.046322175
729,1778516123890,-0.5263721433333334,-0.76791068,-0.1779372,-0.36285394,1.5737416,5.044831
730,1778516123900,0.37212538,-0.49909921,-0.31091753,-1.1404854,1.3076334,5.56406615
731,1778516123910,0.74187255,-0.2558076,-0.09555435,-1.500285,1.248914,5.636301
732,1778516123920,0.74187255,-0.2558076,-0.09555435,-1.500285,1.248914,5.636301
733,1778516123930,1.247268,0.2061705699999999,-0.12537317,-3.143818,2.3608415,4.204738
734,1778516123940,1.247268,0.2061705699999999,-0.12537317,-3.143818,2.3608415,4.204738
735,1778516123950,0.4749058,0.54399514,-0.25074634,-3.885217675,1.0957395675,3.4696000500000004
736,1778516123960,0.5493613333333333,0.6072711933333333,-0.1071403966666666,-3.7948477,0.30589077,3.959934
737,1778516123970,0.6982724,0.7338233,0.18007149,-3.7948477,0.30589077,3.959934
738,1778516123980,0.6982724,0.7338233,0.18007149,-3.7948477,0.30589077,3.959934
739,1778516123990,0.9759918666666666,0.8614730333333332,0.3408938766666667,-3.167947,-0.3755294,4.2571197
740,1778516124000,1.5314308,1.1167725,0.66253865,-3.167947,-0.3755294,4.2571197
741,1778516124010,1.8707595333333331,1.2751557,0.7652275966666666,-3.167947,-0.3755294,4.2571197
742,1778516124020,2.2257397,1.5670427,0.6012546,-2.1423044,0.01450805,2.9032898
743,1778516124030,2.2257397,1.5670427,0.6012546,-2.1423044,0.01450805,2.9032898
744,1778516124040,2.092896575,1.675280725,0.783704275,-2.46407765,0.591966585,2.426585875
745,1778516124050,2.8025111,2.271748475,2.203070675,-0.2806925575,0.0090866249999999,2.359505175
746,1778516124060,3.363001,2.4799619,1.3394684,3.3057483,0.2014328033333333,0.81687956
747,1778516124070,3.006501675,2.2185746,0.707373595,3.62105645,0.8285241675,-0.3687335499999999
748,1778516124080,2.5796831,1.8126057,0.2453192,3.2732704666666663,1.3114258333333333,-1.4001032
749,1778516124090,2.3833709,1.6426568,0.14348398,2.970485,1.33290795,-1.79800545
750,1778516124100,2.3833709,1.6426568,0.14348398,2.9026790000000005,1.289842,-1.8843665
751,1778516124110,2.3833709,1.6426568,0.14348398,2.8416688,1.1956923825,-1.94285685
752,1778516124120,2.284787833333333,1.5744821333333334,0.0901475353333333,2.6586382,0.91324353,-2.1183279
753,1778516124130,2.021947275,1.39070625,-0.0906607735,2.6586382,0.91324353,-2.1183279
754,1778516124140,2.0000558,1.3748974,-0.11537258,2.4239513500000003,0.6154467075,-2.2233585
755,1778516124150,1.9269823666666668,1.3204836333333334,-0.1570213533333333,2.2190188333333336,0.4455752666666666,-2.3068307000000003
756,1778516124160,1.70272125,1.1587565999999998,-0.2047680399999999,1.300837575,0.2446897075,-2.615534075
757,1778516124170,1.5723072,1.06831431,-0.1305767166666666,0.6630433333333333,0.2860885566666666,-2.841796066666667
758,1778516124180,1.4677076,0.99322873,-0.05329579,0.2339995725,0.3593414825,-3.020423375
759,1778516124190,1.2393406,0.7719962333333333,0.14758991,-0.13591751,0.44425175,-3.235906
760,1778516124200,1.1637264,0.6746735,0.23922127,-0.1629483,0.4747949999999999,-3.2941672
761,1778516124210,1.1637264,0.6746735,0.23922127,-0.18997909,0.50533825,-3.3524284
762,1778516124220,1.1233175666666666,0.61938572,0.2798130666666666,-0.07574729,0.57365335,-3.4594316666666667
763,1778516124230,1.0288253125,0.48915962,0.372811375,-0.01863139,0.6078109,-3.5129333
764,1778516124240,0.98780155,0.430208,0.40825552,0.1110756633333333,0.6310237666666667,-3.5642460333333332
765,1778516124250,0.98780155,0.430208,0.40825552,0.17592919,0.6426302,-3.5899024
766,1778516124260,0.87185983,0.2161304933333333,0.3685784133333333,1.0698285966666663,0.43748132,-3.757483
767,1778516124270,0.8374879,0.049637042,0.28196767,1.5832099249999998,0.29294807,-3.849443675
768,1778516124280,0.84779335,0.033233646,0.25958831,1.7825048,0.16707164,-3.8739548
769,1778516124290,0.8604566833333335,-0.0109355966666666,0.2116586833333333,1.8842138,0.08155051,-3.914119
770,1778516124300,0.86517245,-0.06646729,0.16055815,1.8842138,0.08155051,-3.914119
771,1778516124310,0.7624835500000001,-0.2122075166666666,0.1305564,1.8073466666666669,-0.0020871226666666,-4.186717666666667
772,1778516124320,0.6902842,-0.3045452225,0.11797944875,1.7214946000000002,0.049480084,-4.24139015
773,1778516124330,0.6049539666666667,-0.3862826933333333,0.1288286666666666,1.694082,0.076358154,-4.2386413
774,1778516124340,0.5594229,-0.43295208,0.13598356,1.6814066,0.11453723,-4.170988
775,1778516124350,0.46435636,-0.5195425,0.13683724,1.6814066,0.11453723,-4.170988
776,1778516124360,-0.44045252,-0.8038274,0.0248795,2.0969477,-1.0647382,-1.7079792
777,1778516124370,,,,,,
778,1778516124380,-0.54582453,-0.8131267,0.0144520625,2.0969477,-1.0647382,-1.7079792
779,1778516124390,-0.65119654,-0.822426,0.004024625,2.0969477,-1.0647382,-1.7079791999999998
780,1778516124400,-0.74220796,-0.833448075,-0.04715213875,2.0969477,-1.0647382,-1.7079792
781,1778516124410,-0.8409637,-0.8398457666666667,-0.1666967266666666,2.1542163,-1.0360274,-1.0740538
782,1778516124420,-0.8135688,-0.7559282375,-0.3887574375,1.5013540625,-1.252579175,1.14819762
783,1778516124430,-0.4796621333333333,-0.7339655666666666,-0.41573566,0.31067589,-1.1189015,2.807333
784,1778516124440,-0.4063042,-0.7349209,-0.40910926,0.06841691,-1.0262536,3.043636
785,1778516124450,-0.4063042,-0.7349209,-0.40910926,0.06841691,-1.0262536,3.043636
786,1778516124460,-0.27904066,-0.75120234,-0.3740462,-0.3715588,-0.7796168,3.4182491
787,1778516124470,-0.0099396024999999,-0.794238435,-0.2431086949999999,-1.360816825,-0.102358115,4.35207125
788,1778516124480,0.2203583833333333,-0.8326502466666666,-0.148992435,-1.934457433333333,0.1741984033333333,5.1007757
789,1778516124490,0.940237775,-0.82494146,-0.06404337,-2.6363798249999997,0.2252565575,6.3266549
790,1778516124500,1.5628961,-0.7155295599999999,-0.09354204,-3.0703614,0.06688975,6.619794
791,1778516124510,1.620658625,-0.6833783200000001,-0.07968453,-3.179859,-0.046120327,6.4942613
792,1778516124520,1.6399128,-0.67266124,-0.07506536,-3.179859,-0.0461203269999999,6.494261300000001
793,1778516124530,1.641467725,-0.6249145025,-0.0185834034999999,-3.208608,-0.24106269175,6.3623141
794,1778516124540,1.9054567666666669,-0.2152361433333333,-0.081407188,-2.8901053,-0.6500115166666667,6.3761604
795,1778516124550,1.7671762666666666,-0.068073077,0.3934782033333333,-5.3669603,0.6605998566666668,5.644445533333333
796,1778516124560,2.0208495500000003,0.17209845625,0.98421895,-5.269667225,-0.263321115,5.18487155
797,1778516124570,2.116099,0.22787915,1.0392679,-4.9831333,-0.56107974,5.1300464
798,1778516124580,2.116099,0.22787915,1.0392679,-4.9831333,-0.56107974,5.1300464
799,1778516124590,2.25354615,0.549788165,0.9209379,-4.172400400000001,-1.304197285,4.648111825
800,1778516124600,2.2089703,0.6785152,0.860721,-3.4897203,-1.8796324,4.0501895
801,1778516124610,2.2089703,0.6785152,0.860721,-3.4897203,-1.8796324,4.0501895
802,1778516124620,2.0965247,0.7870581,0.9482261,-3.4099006666666667,-1.7658587666666667,3.7540215
803,1778516124630,1.9457232,0.81242543,1.5810679,-2.8286116,-1.0118983,3.2672129
804,1778516124640,1.954443266666667,0.81037247,1.6106427333333333,-2.8286116,-1.0118983,3.2672129
805,1778516124650,1.9718834,0.80626655,1.6697924,-2.8286116,-1.0118983,3.2672129
806,1778516124660,1.96337675,0.806632425,1.76299915,-2.5622742,-0.8231409,3.179401
807,1778516124670,1.9548701,0.8069983,1.8562059,-2.111862933333333,-0.6814201666666667,3.0658818666666665
808,1778516124680,1.9548701,0.8069983,1.8562059,-1.2110404,-0.3979787,2.8388436
809,1778516124690,1.9548701,0.8069983,1.8562059,-1.2110404,-0.3979787,2.8388436
810,1778516124700,1.9548701,0.8069983,1.8562059,-0.4955135466666666,-0.5100725,2.7742954
811,1778516124710,1.9916406,0.9496286,1.9692003,0.6436228900000001,-0.83245665,2.66512865
812,1778516124720,2.224215,1.1107966,2.0012145,1.4249959,-1.0987939,2.588236
813,1778516124730,2.224215,1.1107966,2.0012145,1.4249959,-1.0987939,2.588236
814,1778516124740,2.224215,1.1107966,2.0012145,1.4249959,-1.0987939,2.588236
815,1778516124750,2.401949,1.1714505333333334,1.9436501,2.175698366666667,-1.3050627,2.3440426333333337
816,1778516124760,2.7652832,0.96481237,0.682844735,3.697070975,-0.38751762635,-0.8754461999999998
817,1778516124770,2.8148594,0.9354204,0.6739418,3.5602752999999994,0.082619525,-2.1259637
818,1778516124780,2.8637037,0.8009613999999999,0.690833,3.5068755333333335,0.088677272,-2.2601504666666665
819,1778516124790,2.68634575,0.59190952,0.667157845,3.05176825,0.25175284,-3.124728475
820,1778516124800,2.6164942,0.53722644,0.65552604,3.0079005,0.27076602,-3.1867313
821,1778516124810,2.5565517,0.49637043,0.6279025,2.7618744,0.37782016,-3.500258
822,1778516124820,2.5565517,0.49637043,0.6279025,2.66211255,0.40725622,-3.608724725
823,1778516124830,2.4560377333333334,0.4462658733333333,0.6468670200000001,2.4471262,0.4438444933333333,-3.8143953
824,1778516124840,2.3418136,0.375997545,0.67836275,2.183996,0.5539021,-4.127464
825,1778516124850,1.7548382,0.07642722,0.7114032666666666,2.347606133333333,0.9680687666666667,-4.666756
826,1778516124860,1.4777082,-0.06256463,0.7243715,2.4294112,1.1751521,-4.936402
827,1778516124870,1.42069265,-0.095676315,0.7048277,2.6665413,1.148617575,-4.859013075
828,1778516124880,1.3062347666666667,-0.1733027933333333,0.6313783333333333,2.912758,1.0934488,-4.7624583
829,1778516124890,1.27076015,-0.2297542575,0.5759482674999999,2.9697975750000003,1.022512065,-4.729051575
830,1778516124900,1.2182621333333332,-0.3787822633333333,0.4553721033333333,3.1949780000000003,0.6269004533333333,-4.7399071
831,1778516124910,1.0942712,-0.49496788,0.35996002,3.1392365,0.5448918,-4.8574476
832,1778516124920,1.0001804,-0.5558251,0.32483602,3.1392365000000004,0.5448918,-4.8574476
833,1778516124930,1.0001804,-0.5558251,0.32483602,2.9773571,0.50335294,-4.8940997
834,1778516124940,0.9744878333333334,-0.5764157466666666,0.3290639066666667,2.759278233333333,0.4920010466666666,-4.869359333333334
835,1778516124950,0.828523975,-0.7014128749999999,0.42940005,2.711478,0.4251622,-4.772232
836,1778516124960,0.75004375,-0.7560197,0.500517,2.711478,0.4251622,-4.772232
837,1778516124970,0.7120943866666667,-0.7704920999999999,0.5301935333333333,2.856864,0.3785328266666667,-4.637841533333333
838,1778516124980,0.63619566,-0.7994369,0.5895466,2.929557,0.35521814,-4.5706463
839,1778516124990,0.63619566,-0.7994369,0.5895466,2.929557,0.35521814,-4.5706463
840,1778516125000,0.4219351899,-0.8330974000000001,0.4688281666666667,3.050152,0.2107994133333333,-4.015013533333334
841,1778516125010,-0.073921995225,-0.82770075,0.1041524,3.0347786,0.24801129,-1.6468927
842,1778516125020,-0.27593073,-0.6095478,-0.2655643,3.0347786000000005,0.24801129,-1.6468926999999998
843,1778516125030,-0.17153439,-0.51320064,-0.266357,0.24598781,1.3403910475,1.3504703500000002
844,1778516125040,0.0543730966666666,-0.5094199466666667,-0.0444334866666666,-0.9595675,2.1089613333333332,3.053104466666667
845,1778516125050,0.16732684,-0.5075296,0.06652827,-1.093296085,2.5582273,4.3105706
846,1778516125060,0.8365732,-0.3798392400000001,0.13037346,-0.4297946133333334,1.98571932,4.7255009333333335
847,1778516125070,1.4254794750000002,-0.1312119135,-0.4738386025,0.0337121249999999,1.441947365,4.834273025
848,1778516125080,1.1743977,-0.105920814,-0.62704873,-1.03686735,2.009402975,5.139781925
849,1778516125090,1.2249494666666667,-0.1290115926666666,-0.4613683466666667,-1.824349,2.2169826,5.530621
850,1778516125100,1.376940125,-0.1717173375,-0.089868044,-1.8462638,2.035937425,5.66627125
851,1778516125110,1.5296015,-0.1612899,0.030550564,-1.9120082,1.4928019,6.073222
852,1778516125120,1.7378911,-0.1082837525,0.1239096725,-1.655903,1.259146,5.967619
853,1778516125130,1.6500352333333332,-0.13321915,0.07606135,-0.5286020770000001,0.7479536133333333,5.5931842000000005
854,1778516125140,1.784738275,0.259664537,-0.2344801425,-0.910074728875,0.264313765,6.0996803
855,1778516125150,2.2502938666666665,0.8548669333333333,0.7352665066666666,-1.2108877,0.17531833,6.325051300000001
856,1778516125160,1.96545005,0.9413049,1.18314832,0.37934725,-0.4962516725,2.49653
857,1778516125170,1.757623,0.9516002333333334,1.2929616333333334,1.2854131,-0.7437284600000001,2.2036965
858,1778516125180,1.7885190999999998,0.935024075,0.9955611575,2.91852335,-0.645799095,1.4409548
859,1778516125190,1.82968,0.9466406,0.44661143,3.2986723999999996,-0.1994475,0.6953174
860,1778516125200,1.82968,0.9466406,0.44661143,3.2986724,-0.1994475,0.6953174
861,1778516125210,1.82968,0.9466406,0.44661143,3.2986724,-0.1994475,0.6953174
862,1778516125220,2.3446693,0.8438297,0.7476046,3.2986723999999996,-0.1994475,0.6953174
863,1778516125230,2.559219325,0.8047877999999999,0.7280608,3.5283577,-0.14156802,-0.39522982
864,1778516125240,2.7150364,0.7315671,0.6218656,3.7690387,-0.35705075,-1.0694723
865,1778516125250,2.7785005,0.5852780725,0.964599,3.59834,-0.2679025997374999,-1.611691575
866,1778516125260,2.9688928,0.14641099,1.9927992,3.0862439,-0.00045814895,-3.2383494
867,1778516125270,3.0218633999999995,0.0977089566666666,2.0201586,3.514816766666667,0.0304414520333333,-3.4498105666666667
868,1778516125280,3.033393625,0.0481735425,1.873158125,4.470846375000001,0.0853302405,-3.971349425
869,1778516125290,3.001212,0.040551145,1.7662616,4.767498,0.064599,-4.267199
870,1778516125300,2.8382754,0.023598937,1.5158201,4.847114,0.1258891466666666,-4.555731266666666
871,1778516125310,2.8382754,0.023598937,1.5158201,4.886922,0.15653422,-4.6999974
872,1778516125320,2.8382754,0.023598937,1.5158201,4.886922,0.15653422,-4.6999974
873,1778516125330,2.7420503333333333,0.0093704651999999,1.3482493666666666,4.464967,0.5876524,-5.0588803
874,1778516125340,2.6939378,0.0022562293,1.264464,4.309756266666667,0.7305439333333332,-5.1247012000000005
875,1778516125350,2.58298615,-0.107430045175,1.21282995,3.6237672,1.431295425,-5.504926825
876,1778516125360,2.0029624,-0.4797841033333332,1.1672429333333334,3.736051866666666,1.5798502333333333,-6.000936566666667
877,1778516125370,1.7600265,-0.6273689375,1.117351775,4.0425534,1.3944527,-6.149122
878,1778516125380,1.6500354,-0.68046653,1.0612814,4.0425534,1.3944526999999998,-6.149122000000001
879,1778516125390,1.2898923,-0.8102912,0.6782713,4.0425534,1.3944526999999998,-6.149122000000001
880,1778516125400,1.2898923,-0.8102912,0.6782713,4.0425534,1.3944527,-6.149122
881,1778516125410,1.272848625,-0.822380325,0.662965525,3.9195404,1.3552046,-6.05520165
882,1778516125420,1.0324992666666668,-0.9513563133333336,0.5105379166666667,3.372790633333333,1.3697635,-5.591860433333333
883,1778516125430,0.788201425,-1.05728725,0.4251162625,3.108922375,1.328326475,-4.9589275
884,1778516125440,0.5616791333333334,-1.0800833,0.4458186966666667,3.5581374,1.1049025,-4.1016545
885,1778516125450,0.4718568,-1.09157275,0.4478919799999999,3.78201935,0.99166335,-3.880979500000001
886,1778516125460,0.456612,-1.0953687,0.4463675,4.404949,0.68386364,-3.3443346
887,1778516125470,0.456612,-1.0953687,0.4463675,4.404949,0.68386364,-3.3443346
888,1778516125480,,,,,,
889,1778516125490,0.456612,-1.0953687,0.4463675,4.404949,0.68386364,-3.3443346
890,1778516125500,0.456612,-1.0953687,0.4463675,4.404949,0.6838636399999999,-3.3443346
891,1778516125510,0.42630536,-1.1161931,0.36779584,4.404949,0.68386364,-3.3443346
892,1778516125520,0.3959987199999999,-1.1370175,0.28922418,4.404949,0.6838636399999999,-3.3443346
893,1778516125530,0.35416701,-1.13165135,0.2311415299999999,4.404949,0.68386364,-3.3443346
894,1778516125540,0.1431790866666666,-1.0959176000000002,0.0893751333333333,5.01444,0.112399206,-2.8675541999999994
895,1778516125550,-0.19513334,-1.0351824,-0.07799236,5.01444,0.112399206,-2.8675542
896,1778516125560,-0.41740242,-0.9820695,-0.193182,4.840190666666666,-0.108479496,-2.3682736666666666
897,1778516125570,-0.41740242,-0.9820695,-0.193182,4.491692,-0.5502369,-1.3697126
898,1778516125580,-0.56661844,-0.9303591,-0.2622714,4.01808065,-0.220827795,-1.001819
899,1778516125590,-0.6208695766666666,-0.9050324333333334,-0.29552538,3.3974797999999997,0.1469640133333333,-0.5524767133333334
900,1778516125600,-0.833386985,-0.7959153425,-0.3974622175,2.1043543,0.8807531249999999,0.4083634225
901,1778516125610,-0.8352315999999999,-0.7912047000000001,-0.3919740999999999,1.4448490000000005,1.2753339,0.9640980999999998
902,1778516125620,-0.770395535,-0.7900613400000001,-0.323403025,0.95188075,1.6247488,1.4485142
903,1778516125630,-0.66479486,-0.78699714,-0.24373372,0.33280702,2.1350122,2.2141956499999997
904,1778516125640,-0.51856685,-0.77760637,-0.18183987,-0.2004656166666666,2.6089036,3.0161471333333334
905,1778516125650,-0.51856685,-0.77760637,-0.18183987,-0.36392298,2.7608054,3.2895093
906,1778516125660,-0.51856685,-0.77760637,-0.18183987,-0.36392298,2.7608054,3.2895093
907,1778516125670,-0.2006214525,-0.7824237,-0.073205489,-0.7066183699999999,2.9866346750000003,4.172935075
908,1778516125680,0.3879697983333333,-0.7327866333333333,0.0835211373333333,-0.8560767333333333,2.906191366666667,5.375003333333333
909,1778516125690,0.632033835,-0.70577285,0.1435449625,-0.77686787,2.7638597,5.843995
910,1778516125700,0.94054264,-0.6524161,0.19293809,-0.6351471366666667,2.7806585666666663,5.978996333333332
911,1778516125710,0.94054264,-0.6524161,0.19293809,-0.55283305,2.9037479499999996,6.117281
912,1778516125720,0.9802197466666668,-0.6292440066666667,0.1934665766666666,-0.54137933,3.0184379,6.188064999999999
913,1778516125730,0.9970704,-0.608938,0.20153615,-0.5729916150000001,3.1500794,6.262055999999999
914,1778516125740,0.994844665,-0.61017281,0.2163693325,-0.65813095,3.4271449499999997,6.41912475
915,1778516125750,1.0758554866666667,-0.5860301466666668,0.3274987866666667,-0.8751153666666668,4.066428033333334,6.824332000000001
916,1778516125760,1.1681373,-0.55749192,0.3693304933333333,-0.903317,4.1679335,6.902319000000001
917,1778516125770,1.4250222,-0.44944698,0.3903581499999999,-0.83184576,4.196186,6.8988066
918,1778516125780,1.5850315,-0.3706314,0.3943523,-0.7467827733333333,4.124663866666666,6.812012866666667
919,1778516125790,1.7848603,0.27086946,-0.29641974,0.07192938,2.185065,4.226882
920,1778516125800,1.600256033333333,0.3438005533333333,-0.3920350666666667,0.07192938,2.185065,4.226882
921,1778516125810,2.210952175,0.51454222,0.7906711375,-2.7055222,2.2904393,4.6715155
922,1778516125820,2.427356966666667,0.8181371999999999,0.7892534000000001,-2.3020456666666664,2.251853,3.9373319
923,1778516125830,2.3000731,0.9599951,0.8627943,-1.9190332,1.4503468,3.3872478
924,1778516125840,2.2495417333333334,0.9852607666666668,0.979671,-1.9190332,1.4503468,3.3872477999999995
925,1778516125850,2.1529305,1.02617265,1.45429215,-1.45783,0.6267477,3.3024902
926,1778516125860,2.22961185,0.974538585,2.230892425,1.0154108,-1.7131716,3.268129
927,1778516125870,2.711357266666667,0.84864708,2.276372633333333,3.8881064666666663,-2.4604634,2.951089933333334
928,1778516125880,2.8572397,0.8198649,2.2181172,5.3244543,-2.8341093,2.7925704
929,1778516125890,3.1675629,0.7885012933333333,1.6749555,7.142694466666666,-2.424727733333333,1.6452128333333331
930,1778516125900,3.5019119,0.82834107,0.49576062,6.8989975999999995,-1.8268307,0.4528802225
931,1778516125910,3.538092766666667,0.8347438466666667,0.4569982066666667,5.2799631,-1.2399546,-0.9409361333333334
932,1778516125920,3.43782245,0.513124455,0.90740051,3.874832775,-0.53553792,-2.132797825
933,1778516125930,3.2984443999999997,0.2382252866666666,1.2642200666666668,3.2110132,0.2028581733333333,-3.086447566666666
934,1778516125940,3.2337862,0.1091222175,1.400401775,3.36892185,0.159359477,-3.31860185
935,1778516125950,3.1909382333333336,0.0504297686666666,1.4382545999999998,3.5193473999999996,0.069791354,-3.4694092
936,1778516125960,2.91097765,-0.0906760205,1.3466182,4.334508975,-1.0008645075,-4.1396048
937,1778516125970,2.690157,-0.1949504,1.2483045,4.3661594,-1.0656544,-4.1858015
938,1778516125980,2.5080123,-0.3108108,1.129944,4.1819835,-0.8181013,-4.658153
939,1778516125990,2.3600159,-0.42575654,0.9618854,4.117384525,-0.68680345,-4.7049605
940,1778516126000,2.1405111333333333,-0.52722588,0.8318371466666666,3.6545014,0.1805106666666666,-4.967149
941,1778516126010,1.966944,-0.6077794,0.73217684,3.386675075,0.6233498,-5.0987015
942,1778516126020,1.2748101333333333,-0.7799032,0.5781841466666667,3.0632856,1.0527244333333334,-5.324912333333334
943,1778516126030,0.8453237499999999,-0.8895336,0.4752258725,3.028097275,0.9618455125,-5.2252265
944,1778516126040,0.6921948733333334,-0.9006826333333334,0.3773797366666667,3.025921,0.77732605,-4.88906
945,1778516126050,0.65624259,-0.886728575,0.31736607,2.948188425,0.4794146825,-4.241924425
946,1778516126060,0.6591086,-0.87322169,0.2829585775,2.887750875,0.4381431025,-3.798245525
947,1778516126070,0.6918899333333334,-0.8321014066666667,0.1939950633333333,2.8948903,0.4885394833333333,-3.2592205333333335
948,1778516126080,0.7996808,-0.77358174,0.12921485,2.9622383,0.44730607,-3.0016391
949,1778516126090,0.8330974000000001,-0.7527268499999998,0.042258564,3.1711032333333335,0.0697913526666666,-3.108896766666667
950,1778516126100,0.7808230224999999,-0.750714525,0.01426912545,3.2540027499999997,-0.184901274,-3.2289954
951,1778516126110,0.4821013,-0.78986317,-0.113116354,3.2265393333333336,-0.7340055033333334,-3.4311282666666667
952,1778516126120,0.3277020505,-0.8022419599999999,-0.1258152695,3.057418725,-1.108185895,-3.394005475
953,1778516126130,-0.1762297899999999,-0.8216332999999999,-0.07927292,2.613587,-1.9825631,-2.8588493000000006
954,1778516126140,-0.2712048449999999,-0.81154125,-0.047258856,2.51554315,-2.22988715,-2.64061775
955,1778516126150,-0.4955929125,-0.81695316,0.077306343,2.175940125,-2.859956575,-1.834542825
956,1778516126160,-0.5894246,-0.8452729,0.1590133433333333,2.0583105,-2.9503264,-1.5201380999999998
957,1778516126170,-0.65113555,-0.868190885,0.20156663,1.90471605,-2.8617891999999996,-1.059125775
958,1778516126180,-0.7023173666666667,-0.84460209,0.1777339433333333,1.5528195,-2.4120014,-0.20952678
959,1778516126190,-0.61960935,-0.7857623,0.055826428,0.1383227777,-0.0588721424999999,1.8754707625
960,1778516126200,-0.5039318,-0.74821436,0.026221042,-0.5477934,0.96837413,2.7983737000000004
961,1778516126210,-0.403270475,-0.74807717,0.023339776,-0.82940227,1.3991868,3.3331861
962,1778516126220,-0.3153639333333333,-0.7387016266666667,0.005732041,-0.82940227,1.3991868,3.3331861000000003
963,1778516126230,-0.2066584,-0.720042,-0.027562585,-1.0119746425,1.6635387,3.809775775
964,1778516126240,0.0653493333333333,-0.6400373333333333,-0.2015158216666666,-1.1668035,1.8417587333333336,4.211457666666667
965,1778516126250,0.2013532,-0.600035,-0.28849244,-2.2479842,2.0549507,5.4652586
966,1778516126260,0.4220978,-0.55051994,-0.38435167,-2.2479842,2.0549507,5.465258600000001
967,1778516126270,0.6555871,-0.52149385,-0.48752844,-3.068376,2.1844542,5.7270145
968,1778516126280,0.7410188866666667,-0.5064320000000001,-0.50533436,-3.068376,2.1844542,5.7270145
969,1778516126290,0.98749663,-0.461825735,-0.5374399000000001,-3.6011268999999997,2.2560016999999997,5.80703775
970,1778516126300,1.1591123666666665,-0.4529329233333333,-0.47968246,-5.453550333333333,2.474157066666667,5.841246333333333
971,1778516126310,1.40175865,-0.491187165,-0.2077255285,-6.40629665,2.5114198,5.582849925
972,1778516126320,1.4234977,-0.556404395,0.11982407325,-7.0559516,2.4555256,5.1970887
973,1778516126330,1.413863,-0.56911856,0.17452239,-7.233408,2.2867742,4.7977357
974,1778516126340,1.413863,-0.56911856,0.17452239,-7.233408,2.2867742,4.7977357
975,1778516126350,1.413863,-0.56911856,0.17452239,-7.008304,1.9068159,4.4429755
976,1778516126360,1.298520875,-0.588555665,0.361347285,-7.008304,1.9068159,4.4429755
977,1778516126370,1.2260472,-0.5347873,0.56680137,-7.008304,1.9068159,4.4429755
978,1778516126380,1.2260472,-0.5347873,0.56680137,-6.657871066666666,1.5839736333333334,4.3666173666666666
979,1778516126390,1.2260472,-0.5347873,0.56680137,-6.4826546,1.4225525,4.3284383
980,1778516126400,1.1913296666666666,-0.4040073133333333,0.6481475899999999,-6.152889266666667,1.1914927000000002,4.3111814
981,1778516126410,1.0074369,-0.19873111,0.49185795,-5.4933586,0.7293731,4.2766676
982,1778516126420,1.14020375,0.0545763625,0.5828846125,-5.098548699999999,0.181503325,4.860005699999999
983,1778516126430,1.8431155666666668,0.3721558666666666,1.0389020666666666,-3.065016333333333,-1.8423696666666665,6.463718
984,1778516126440,2.717201175,1.0080161125,1.43522095,-0.1803197999999999,-1.3055336249999998,4.256509125
985,1778516126450,2.7531483,1.6217409,1.0421339,0.6451246066666667,-0.2772819066666667,2.4884613666666664
986,1778516126460,2.3198915,1.9112091,0.52710396,0.23900102,0.38744128,1.7663169
987,1778516126470,2.240903166666667,1.9156402333333336,0.5683461733333334,-0.0475965866666666,0.53216542,1.59614
988,1778516126480,2.0829265,1.9245025,0.6508306,-0.673402575,0.79801905,1.16866155
989,1778516126490,2.0664215,1.8834432333333335,0.9018615333333332,-0.8312349,0.7272351,0.9072876
990,1778516126500,2.07739265,1.820838,1.11826645,-0.695508275,0.6232352875,0.769193875
991,1778516126510,2.1350636,1.6946112,1.3909348,0.0024434666666666,0.2049452948333333,0.1875865333333333
992,1778516126520,,,,,,
993,1778516126530,,,,,,
994,1778516126540,2.19634755,1.56807935,1.5067038,0.5839872,-0.0076358155,-0.1470658
995,1778516126550,2.28312095,1.32318695,1.5884159,1.189431,-0.07811438775,-0.434859685
996,1778516126560,2.2987723333333334,1.1496199333333337,1.4626463333333335,1.7948748,-0.14859296,-0.72265357
997,1778516126570,2.2938533,1.1220167,1.41679,2.4433084,-0.16035213,-1.024421
998,1778516126580,2.299544733333333,1.0981535000000002,1.2846481333333333,2.4433084,-0.16035213,-1.024421
999,1778516126590,2.3109276,1.0504271,1.0203644,3.388164,-0.24480425,-1.5451837
1000,1778516126600,2.3109276,1.0504271,1.0203644,3.388164,-0.24480425,-1.5451837
