id,timestamp,acc_x,acc_y,acc_z,gyro_x,gyro_y,gyro_z
0,1778516098490,-0.18153499,0.37307054,0.9122484,0.32238412,-0.5702427,0.13836098
1,1778516098500,-0.20836583,0.36270407,0.91791934,0.31215215,-0.6542367,0.12415836
2,1778516098510,-0.20836583,0.36270407,0.91791934,0.31215215,-0.6542367,0.1241583599999999
3,1778516098520,-0.20836583,0.36270407,0.91791934,0.31215215,-0.6542367,0.12415836
4,1778516098530,-0.20836583,0.36270407,0.91791934,0.31215215,-0.6542367,0.12415836
5,1778516098540,-0.20836583,0.36270407,0.91791934,0.31215215,-0.6542367,0.1241583599999999
6,1778516098550,-0.20836583,0.36270407,0.91791934,0.31215215,-0.6542367,0.12415836
7,1778516098560,-0.20836583,0.36270407,0.91791934,0.31215215,-0.6542367,0.1241583599999999
8,1778516098570,-0.20836583,0.36270407,0.91791934,0.31215215,-0.6542367,0.12415836
9,1778516098580,-0.26440567,0.35996002,0.89041775,0.31215215,-0.6542367,0.12415836
10,1778516098590,-0.26440567,0.35996002,0.89041775,0.31215215,-0.6542367,0.1241583599999999
11,1778516098600,-0.26440567,0.35996002,0.89041775,0.31215215,-0.6542367,0.12415836
12,1778516098610,-0.26440567,0.35996002,0.89041775,0.3163263833333333,-0.82639886,0.1884010266666666
13,1778516098620,-0.26440567,0.35996002,0.89041775,0.3184135,-0.91247994,0.22052236
14,1778516098630,-0.26440567,0.35996002,0.89041775,0.3184135,-0.91247994,0.22052236
15,1778516098640,-0.26440567,0.35996002,0.89041775,0.3184135,-0.91247994,0.22052236
16,1778516098650,-0.26440567,0.35996002,0.89041775,0.3184135,-0.91247994,0.22052236
17,1778516098660,-0.27605268,0.32648247,0.86498946,0.2518292,-0.9955576,0.35170567
18,1778516098670,-0.27605268,0.32648247,0.86498946,0.2518292,-0.9955576,0.35170567
19,1778516098680,-0.27605268,0.32648247,0.86498946,0.2330832725,-1.0023153,0.383737915
20,1778516098690,-0.2633995025,0.3301869525,0.876499295,0.17684549,-1.0225884,0.47983465
21,1778516098700,-0.2254399699999999,0.3413004,0.9110288,0.1768454899999999,-1.0225884,0.47983465
22,1778516098710,-0.22543997,0.3413004,0.9110288,0.17684549,-1.0225884,0.47983465
23,1778516098720,-0.22543997,0.3413004,0.9110288,0.17684549,-1.0225884,0.47983465
24,1778516098730,-0.2254399699999999,0.3413004,0.9110288,0.1768454899999999,-1.0225884,0.47983465
25,1778516098740,-0.2161863849999999,0.342779145,0.922874,0.17684549,-1.0225884,0.47983465
26,1778516098750,-0.18842563,0.34721538,0.9584096,0.1768454899999999,-1.0225884,0.47983465
27,1778516098760,-0.18842563,0.34721538,0.9584096,0.16699529,-1.02671175,0.5073236125
28,1778516098770,-0.18842563,0.34721538,0.9584096,0.16371189,-1.0280862,0.5164866
29,1778516098780,-0.18842563,0.34721538,0.9584096,0.16371189,-1.0280862,0.5164866
30,1778516098790,-0.18842563,0.34721538,0.9584096,0.16371189,-1.0280862,0.5164866
31,1778516098800,-0.18842563,0.34721538,0.9584096,0.16371189,-1.0280862,0.5164866
32,1778516098810,-0.18842563,0.34721538,0.9584096,0.16371189,-1.0280862,0.5164866
33,1778516098820,-0.18842563,0.34721538,0.9584096,0.16371189,-1.0280862,0.5164866
34,1778516098830,-0.18842563,0.34721538,0.9584096,0.16371189,-1.0280862,0.5164866
35,1778516098840,-0.18842563,0.34721538,0.9584096,0.16371189,-1.0280862,0.5164866
36,1778516098850,-0.18842563,0.34721538,0.9584096,0.16371189,-1.0280862,0.5164866
37,1778516098860,-0.18842563,0.34721538,0.9584096,0.16371189,-1.0280862,0.5164866
38,1778516098870,-0.18842563,0.34721538,0.9584096,0.176310985,-1.016250675,0.5141194875
39,1778516098880,-0.18842563,0.34721538,0.9584096,0.21410827,-0.9807441,0.50701815
40,1778516098890,-0.18842563,0.34721538,0.9584096,0.21410827,-0.9807441,0.50701815
41,1778516098900,-0.18842563,0.34721538,0.9584096,0.21410827,-0.9807441,0.50701815
42,1778516098910,-0.18842563,0.34721538,0.9584096,0.21410827,-0.9807441,0.50701815
43,1778516098920,-0.18842563,0.34721538,0.9584096,0.21410827,-0.9807441,0.50701815
44,1778516098930,-0.062686585,0.34623972,1.0314016,0.3417790999999999,-0.75945824,0.44913867
45,1778516098940,-0.06000350125,0.3511790299999999,1.0255933499999998,0.3578143175,-0.6894759874999999,0.433599785
46,1778516098950,-0.05195425,0.36599696,1.0081686,0.40591997,-0.47952923,0.38698313
47,1778516098960,-0.05195425,0.36599696,1.0081686,0.40591997,-0.47952923,0.38698313
48,1778516098970,-0.05195425,0.36599696,1.0081686,0.40591997,-0.47952923,0.38698313
49,1778516098980,-0.05195425,0.36599696,1.0081686,0.40591997,-0.47952923,0.38698313
50,1778516098990,-0.05195425,0.36599696,1.0081686,0.40591997,-0.47952923,0.38698313
51,1778516099000,-0.05195425,0.36599696,1.0081686,0.40591997,-0.47952923,0.38698313
52,1778516099010,-0.05195425,0.36599696,1.0081686,0.40591997,-0.47952923,0.38698313
53,1778516099020,-0.05195425,0.36599696,1.0081686,0.40591997,-0.47952923,0.38698313
54,1778516099030,-0.05195425,0.36599696,1.0081686,0.44135013,-0.28680122,0.32650748
55,1778516099040,-0.05195425,0.36599696,1.0081686,0.44135013,-0.28680122,0.32650748
56,1778516099050,-0.05195425,0.36599696,1.0081686,0.44135013,-0.28680122,0.32650748
57,1778516099060,-0.05195425,0.36599696,1.0081686,0.44135013,-0.28680122,0.32650748
58,1778516099070,-0.05195425,0.36599696,1.0081686,0.44135013,-0.28680122,0.32650748
59,1778516099080,-0.05195425,0.36599696,1.0081686,0.44135013,-0.28680122,0.32650748
60,1778516099090,-0.07335794,0.3784367,0.97889864,0.44135013,-0.28680122,0.32650748
61,1778516099100,-0.07335794,0.3784367,0.97889864,0.44135013,-0.28680122,0.32650748
62,1778516099110,-0.07335794,0.3784367,0.97889864,0.44135013,-0.28680122,0.32650748
63,1778516099120,-0.07335794,0.3784367,0.97889864,0.44135013,-0.28680122,0.32650748
64,1778516099130,-0.07335794,0.3784367,0.97889864,0.44135013,-0.28680122,0.32650748
65,1778516099140,-0.07335794,0.3784367,0.97889864,0.44135013,-0.28680122,0.32650748
66,1778516099150,-0.07335794,0.3784367,0.97889864,0.44135013,-0.28680122,0.32650748
67,1778516099160,-0.07335794,0.3784367,0.97889864,0.44135013,-0.28680122,0.32650748
68,1778516099170,-0.07335794,0.3784367,0.97889864,0.44135013,-0.28680122,0.32650748
69,1778516099180,-0.07335794,0.3784367,0.97889864,0.44135013,-0.28680122,0.32650748
70,1778516099190,-0.07335794,0.3784367,0.97889864,0.44135013,-0.28680122,0.32650748
71,1778516099200,-0.07335794,0.3784367,0.97889864,0.44135013,-0.28680122,0.32650748
72,1778516099210,-0.07335794,0.3784367,0.97889864,0.44135013,-0.28680122,0.32650748
73,1778516099220,-0.07335794,0.3784367,0.97889864,0.44135013,-0.28680122,0.32650748
74,1778516099230,-0.07335794,0.3784367,0.97889864,0.4992296,-0.2489276,0.29749137
75,1778516099240,-0.07335794,0.3784367,0.97889864,0.4992296,-0.2489276,0.29749137
76,1778516099250,-0.07335794,0.3784367,0.97889864,0.4992296,-0.2489276,0.29749137
77,1778516099260,-0.07335794,0.3784367,0.97889864,0.4992296,-0.2489276,0.29749137
78,1778516099270,-0.08029432,0.3782537625,0.97083413,0.4992296,-0.2489276,0.29749137
79,1778516099280,,,,,,
80,1778516099290,,,,,,
81,1778516099300,-0.10110346,0.37770495,0.9466406,0.4992296,-0.2489276,0.29749137
82,1778516099310,-0.10110346,0.37770495,0.9466406,0.4992296,-0.2489276,0.29749137
83,1778516099320,-0.10110346,0.37770495,0.9466406,0.4992296,-0.2489276,0.29749137
84,1778516099330,-0.1011034599999999,0.37770495,0.9466406,0.4992296,-0.2489276,0.29749137
85,1778516099340,-0.10110346,0.37770495,0.9466406,0.4992296,-0.2489276,0.29749137
86,1778516099350,-0.10110346,0.37770495,0.9466406,0.4992296,-0.2489276,0.29749137
87,1778516099360,-0.1011034599999999,0.37770495,0.9466406,0.4992296,-0.2489276,0.29749137
88,1778516099370,-0.10110346,0.37770495,0.9466406,0.4992296,-0.2489276,0.29749137
89,1778516099380,-0.1247024,0.40173078,0.8249262,0.7545713,-0.9775371,0.2251038399999999
90,1778516099390,-0.138056835,0.401258185,0.7944366,0.7545713,-0.9775371,0.22510384
91,1778516099400,-0.17812014,0.3998404,0.7029678,0.7545713,-0.9775371,0.22510384
92,1778516099410,-0.17812014,0.3998404,0.7029678,0.7545713,-0.9775371,0.2251038399999999
93,1778516099420,-0.17812014,0.3998404,0.7029678,0.7545713,-0.9775371,0.22510384
94,1778516099430,-0.17812014,0.3998404,0.7029678,0.7545713,-0.9775371,0.2251038399999999
95,1778516099440,-0.17812014,0.3998404,0.7029678,0.7545713,-0.9775371,0.22510384
96,1778516099450,-0.17812014,0.3998404,0.7029678,0.7545713,-0.9775371,0.22510384
97,1778516099460,-0.17812014,0.3998404,0.7029678,0.7545713,-0.9775371,0.22510384
98,1778516099470,-0.17812014,0.3998404,0.7029678,0.7545713,-0.9775371,0.2251038399999999
99,1778516099480,-0.17812014,0.3998404,0.7029678,0.7545713,-0.9775371,0.22510384
100,1778516099490,-0.17812014,0.3998404,0.7029678,0.7545713,-0.9775371,0.22510384
101,1778516099500,-0.17812014,0.3998404,0.7029678,0.7545713,-0.9775371,0.22510384
102,1778516099510,-0.17812014,0.3998404,0.7029678,0.7545713,-0.9775371,0.2251038399999999
103,1778516099520,-0.17812014,0.3998404,0.7029678,0.7370088999999999,-1.2040154,0.27656925
104,1778516099530,-0.17812014,0.3998404,0.7029678,0.7370089,-1.2040154,0.27656925
105,1778516099540,-0.17812014,0.3998404,0.7029678,0.7370088999999999,-1.2040154,0.27656925
106,1778516099550,-0.17812014,0.3998404,0.7029678,0.7370089,-1.2040154,0.27656925
107,1778516099560,-0.14872819,0.39703536,0.6383299,0.7370088999999999,-1.2040154,0.27656925
108,1778516099570,-0.14872819,0.39703536,0.6383299,0.7370089,-1.2040154,0.27656925
109,1778516099580,-0.14872819,0.39703536,0.6383299,0.7370089,-1.2040154,0.27656925
110,1778516099590,-0.14872819,0.39703536,0.6383299,0.7370088999999999,-1.2040154,0.27656925
111,1778516099600,-0.14872819,0.39703536,0.6383299,0.7370089,-1.2040154,0.27656925
112,1778516099610,-0.14872819,0.39703536,0.6383299,0.7370088999999999,-1.2040154,0.27656925
113,1778516099620,-0.14872819,0.39703536,0.6383299,0.7370089,-1.2040154,0.27656925
114,1778516099630,-0.14872819,0.39703536,0.6383299,0.7370088999999999,-1.2040154,0.27656925
115,1778516099640,-0.14872819,0.39703536,0.6383299,0.7370089,-1.2040154,0.27656925
116,1778516099650,-0.14872819,0.39703536,0.6383299,0.7021514099999999,-1.264643775,0.2989421875
117,1778516099660,-0.14872819,0.39703536,0.6383299,0.59757894,-1.4465289,0.366061
118,1778516099670,0.1583628995,0.3406753799999999,0.60383098,0.6794349,-2.449875,0.12034045
119,1778516099680,0.30379823,0.31538427,0.3808759,0.6794349,-2.449875,0.12034045
120,1778516099690,0.30379823,0.31538427,0.3808759,0.6794349,-2.449875,0.12034045
121,1778516099700,0.30379823,0.31538427,0.3808759,0.6794349,-2.449875,0.12034045
122,1778516099710,0.30379823,0.31538427,0.3808759,0.6794349,-2.449875,0.12034045
123,1778516099720,0.30379823,0.31538427,0.3808759,0.634192695,-2.47805115,-0.2434298
124,1778516099730,0.30379823,0.31538427,0.3808759,0.61911196,-2.4874432,-0.36468655
125,1778516099740,0.30379823,0.31538427,0.3808759,0.61911196,-2.4874432,-0.36468655
126,1778516099750,0.30379823,0.31538427,0.3808759,0.61911196,-2.4874432,-0.36468655
127,1778516099760,0.2115367436666666,0.33379998,0.4574860666666667,0.61911196,-2.4874432,-0.36468655
128,1778516099770,0.027013771,0.3706314,0.6107064,0.61911196,-2.4874432,-0.36468655
129,1778516099780,0.027013771,0.3706314,0.6107064,0.61911196,-2.4874432,-0.36468655
130,1778516099790,0.027013771,0.3706314,0.6107064,0.61911196,-2.4874432,-0.36468655
131,1778516099800,0.027013771,0.3706314,0.6107064,0.61911196,-2.4874432,-0.36468655
132,1778516099810,0.027013771,0.3706314,0.6107064,0.61911196,-2.4874432,-0.36468655
133,1778516099820,0.027013771,0.3706314,0.6107064,0.61911196,-2.4874432,-0.36468655
134,1778516099830,0.027013771,0.3706314,0.6107064,0.61911196,-2.4874432,-0.36468655
135,1778516099840,0.027013771,0.3706314,0.6107064,0.61911196,-2.4874432,-0.36468655
136,1778516099850,0.027013771,0.3706314,0.6107064,0.61911196,-2.4874432,-0.36468655
137,1778516099860,0.027013771,0.3706314,0.6107064,0.61911196,-2.4874432,-0.36468655
138,1778516099870,0.027013771,0.3706314,0.6107064,0.61911196,-2.4874432,-0.36468655
139,1778516099880,0.027013771,0.3706314,0.6107064,0.61911196,-2.4874432,-0.36468655
140,1778516099890,0.027013771,0.3706314,0.6107064,0.61911196,-2.4874432,-0.36468655
141,1778516099900,0.027013771,0.3706314,0.6107064,0.61911196,-2.4874432,-0.36468655
142,1778516099910,0.027013771,0.3706314,0.6107064,0.61911196,-2.4874432,-0.36468655
143,1778516099920,0.027013771,0.3706314,0.6107064,0.61911196,-2.4874432,-0.36468655
144,1778516099930,-0.087992944,0.35782576,0.55667883,0.61911196,-2.4874432,-0.36468655
145,1778516099940,-0.087992944,0.35782576,0.55667883,0.61911196,-2.4874432,-0.36468655
146,1778516099950,-0.087992944,0.35782576,0.55667883,0.61911196,-2.4874432,-0.36468655
147,1778516099960,-0.087992944,0.35782576,0.55667883,0.57925299,-2.468353666666667,-0.3579161266666666
148,1778516099970,-0.087992944,0.35782576,0.55667883,0.4610505374999999,-2.35625995,-0.276721955
149,1778516099980,-0.087992944,0.35782576,0.55667883,0.345597,-2.134516,-0.07376198
150,1778516099990,-0.087992944,0.35782576,0.55667883,0.345597,-2.134516,-0.07376198
151,1778516100000,-0.087992944,0.35782576,0.55667883,0.345597,-2.134516,-0.07376198
152,1778516100010,-0.087992944,0.35782576,0.55667883,0.345597,-2.134516,-0.07376198
153,1778516100020,-0.087992944,0.35782576,0.55667883,0.345597,-2.134516,-0.07376198
154,1778516100030,-0.177266431,0.31515559,0.5631273525,0.345597,-2.134516,-0.07376198
155,1778516100040,-0.20702426,0.3009322,0.56527686,0.345597,-2.134516,-0.07376198
156,1778516100050,-0.20702426,0.3009322,0.56527686,0.345597,-2.134516,-0.07376198
157,1778516100060,-0.20702426,0.3009322,0.56527686,0.345597,-2.134516,-0.07376198
158,1778516100070,-0.20702426,0.3009322,0.56527686,0.345597,-2.134516,-0.07376198
159,1778516100080,-0.273750725,0.2692839999999999,0.612017415,0.288557475,-1.70271055,0.172493065
160,1778516100090,-0.29599288,0.2587346,0.6275976,0.2695443,-1.5587754,0.25457808
161,1778516100100,-0.29599288,0.2587346,0.6275976,0.2695443,-1.5587754,0.25457808
162,1778516100110,-0.29599288,0.2587346,0.6275976,0.2695443,-1.5587754,0.25457808
163,1778516100120,-0.2994280366666667,0.25487259,0.640078,0.2695443,-1.5587754,0.25457808
164,1778516100130,-0.30629835,0.24714857,0.6650388,0.2695443,-1.5587754,0.25457808
165,1778516100140,-0.30629835,0.24714857,0.6650388,0.2695443,-1.5587754,0.25457808
166,1778516100150,-0.30629835,0.24714857,0.6650388,0.3481932,-0.7244862,0.8610145399999999
167,1778516100160,-0.2290529925,0.2227264025,0.664901625,0.504536505,-0.6679047975,1.164423635
168,1778516100170,-0.20330454,0.21458568,0.6648559,0.55665094,-0.64904433,1.26556
169,1778516100180,-0.20330454,0.21458568,0.6648559,0.55665094,-0.64904433,1.26556
170,1778516100190,-0.094456725,0.2123904399999999,0.6492452,0.99265605,-1.0112875,1.3611604999999998
171,1778516100200,-0.094456725,0.21239044,0.6492452,0.99265605,-1.0112875,1.3611605
172,1778516100210,-0.094456725,0.21239044,0.6492452,0.99265605,-1.0112875,1.3611605
173,1778516100220,-0.094456725,0.2123904399999999,0.6492452,1.4263704,-1.5378532,1.280679
174,1778516100230,-0.094456725,0.21239044,0.6492452,1.4263704,-1.5378532,1.280679
175,1778516100240,-0.03042860325,0.2285346625,0.489220625,1.4263704,-1.5378532,1.280679
176,1778516100250,-0.009085896,0.23391607,0.4358791,1.4263704,-1.5378532,1.280679
177,1778516100260,-0.009085896,0.23391607,0.4358791,1.4263704,-1.5378532,1.280679
178,1778516100270,-0.009085896,0.23391607,0.4358791,1.4263704,-1.5378532,1.280679
179,1778516100280,-0.009085896,0.23391607,0.4358791,1.4263704,-1.5378532,1.280679
180,1778516100290,0.0463594155,0.2263699025,0.35880143,1.4263704,-1.5378532,1.280679
181,1778516100300,0.21269535,0.2037314,0.12756842,1.482569933333333,-1.7566448,1.239242
182,1778516100310,0.21269535,0.2037314,0.12756842,1.5106697,-1.8660406,1.2185235
183,1778516100320,0.1604565166666666,0.2193014133333333,0.0572797653333333,1.5106697,-1.8660406,1.2185235
184,1778516100330,0.164399835,0.2192506,0.0017988854999999,1.36390935,-2.03883915,1.08833283
185,1778516100340,0.19446257,0.21141478,-0.018537667,1.217149,-2.2116377,0.95814216
186,1778516100350,0.19446257,0.21141478,-0.018537667,1.217149,-2.2116377,0.95814216
187,1778516100360,0.19446257,0.21141478,-0.018537667,1.217149,-2.2116377,0.95814216
188,1778516100370,0.19446257,0.21141478,-0.018537667,1.217149,-2.2116377,0.95814216
189,1778516100380,0.19446257,0.21141478,-0.018537667,1.217149,-2.2116377,0.95814216
190,1778516100390,0.19446257,0.21141478,-0.018537667,1.217149,-2.2116377,0.95814216
191,1778516100400,0.19446257,0.21141478,-0.018537667,1.0294607,-2.5445592,0.88346386
192,1778516100410,0.19446257,0.21141478,-0.018537667,1.0294607,-2.5445592,0.88346386
193,1778516100420,,,,,,
194,1778516100430,0.19446257,0.21141478,-0.018537667,1.0294607,-2.5445592,0.88346386
195,1778516100440,0.19446257,0.21141478,-0.018537667,1.0294607,-2.5445592,0.88346386
196,1778516100450,0.19446257,0.21141478,-0.018537667,1.0294607,-2.5445592,0.88346386
197,1778516100460,0.19446257,0.21141478,-0.018537667,1.0294607,-2.5445592,0.88346386
198,1778516100470,0.19446257,0.21141478,-0.018537667,1.0294607,-2.5445592,0.88346386
199,1778516100480,0.15284429,0.25992371,-0.0670161085,1.0294607,-2.5445592,0.88346386
200,1778516100490,0.11122601,0.30843264,-0.11549455,1.0294607,-2.5445592,0.88346386
201,1778516100500,0.11122601,0.30843264,-0.11549455,1.0294607,-2.5445592,0.88346386
202,1778516100510,0.11122601,0.30843264,-0.11549455,1.0294607,-2.5445592,0.88346386
203,1778516100520,0.11122601,0.30843264,-0.11549455,1.0294607,-2.5445592,0.88346386
204,1778516100530,0.11122601,0.30843264,-0.11549455,1.0294607,-2.5445592,0.88346386
205,1778516100540,0.11122601,0.30843264,-0.11549455,0.7921904433333333,-2.8534025,0.8274678733333333
206,1778516100550,0.11122601,0.30843264,-0.11549455,0.31764993,-3.4710891,0.7154759
207,1778516100560,0.11122601,0.30843264,-0.11549455,0.31764993,-3.4710891,0.7154759
208,1778516100570,0.11122601,0.30843264,-0.11549455,0.31764993,-3.4710891,0.7154759
209,1778516100580,0.11122601,0.30843264,-0.11549455,0.31764993,-3.4710891,0.7154759
210,1778516100590,0.11122601,0.30843264,-0.11549455,0.31764993,-3.4710891,0.7154759
211,1778516100600,0.08207796575,0.3121218799999999,-0.1225376425,-0.32910365,-3.9099958,0.70646566
212,1778516100610,-0.005366167,0.3231896,-0.14366692,-0.32910365,-3.9099958,0.70646566
213,1778516100620,-0.0103258063333333,0.3230269833333333,-0.10848194,-0.7431684833333333,-4.010890266666666,0.8430958199999999
214,1778516100630,-0.020245085,0.32270175,-0.03811198,-0.9502009,-4.0613375,0.9114109
215,1778516100640,-0.020245085,0.32270175,-0.03811198,-0.9502009,-4.0613375,0.9114109
216,1778516100650,-0.020245085,0.32270175,-0.03811198,-0.9502009,-4.0613375,0.9114109
217,1778516100660,-0.020245085,0.32270175,-0.03811198,-0.9502009,-4.0613375,0.9114109
218,1778516100670,-0.020245085,0.32270175,-0.03811198,-0.9502009,-4.0613375,0.9114109
219,1778516100680,0.16354613,0.3047739,0.4552704999999999,-1.5447255,-3.2264376,1.5377005
220,1778516100690,0.433104535,0.191779492,0.61549325,-1.8176295,-2.46064165,1.52441425
221,1778516100700,0.69735777,0.102505976,0.8887103999999999,-2.0905335,-1.6948457,1.511128
222,1778516100710,0.68674743,0.14994776,1.1146992,-2.0905335,-1.6948457,1.511128
223,1778516100720,0.68674743,0.14994776,1.1146992,-2.0905335,-1.6948457,1.511128
224,1778516100730,0.68674743,0.14994776,1.1146992,-2.0905335,-1.6948457,1.511128
225,1778516100740,0.68674743,0.14994776,1.1146992,-1.882037575,-1.4365260325,1.435686125
226,1778516100750,0.68674743,0.14994776,1.1146992,-1.2565498,-0.66156703,1.2093605
227,1778516100760,0.45213004,0.1846754099999999,1.15961025,-0.4027129,-0.50625455,1.295798
228,1778516100770,0.3524595799999999,0.17787623,1.117809,-0.4027129,-0.50625455,1.295798
229,1778516100780,0.26330805,0.16659509,0.84139055,0.23777929,-0.7292204,1.617113
230,1778516100790,0.26330805,0.16659509,0.84139055,0.23777929,-0.7292204,1.617113
231,1778516100800,0.26330805,0.16659509,0.84139055,0.23777929,-0.7292204,1.617113
232,1778516100810,0.26330805,0.16659509,0.84139055,0.23777929,-0.7292204,1.617113
233,1778516100820,0.26330805,0.16659509,0.84139055,0.23777929,-0.7292204,1.617113
234,1778516100830,0.26330805,0.16659509,0.84139055,0.23777929,-0.7292204,1.617113
235,1778516100840,0.3381752325,0.181550225,0.5722437725,0.2834796625,-0.95004815,1.739438825
236,1778516100850,0.36313096,0.18653527,0.4825281799999999,0.29871312,-1.0236574,1.7802141
237,1778516100860,0.409962955,0.121196095,0.60960874,0.213726485,-1.4866933,1.95049275
238,1778516100870,0.45679495,0.05585692,0.7366893,0.12873985,-1.9497292,2.1207714
239,1778516100880,0.468381,-0.0075004376,0.8310241,1.0398453,-2.6615398,2.4414756
240,1778516100890,0.468381,-0.0075004376,0.8310241,1.245019675,-2.7950901999999997,2.49011575
241,1778516100900,0.45100194,-0.13525179,0.7527268499999998,2.5404358,-3.5934148,2.8151724
242,1778516100910,0.45100194,-0.13525179,0.75272685,2.5404358,-3.5934148,2.8151724
243,1778516100920,0.45100194,-0.13525179,0.75272685,2.5404358,-3.5934148,2.8151724
244,1778516100930,0.4385418599999999,-0.1737296466666666,0.6647745666666666,2.5404358,-3.5934148,2.8151724
245,1778516100940,0.4136217,-0.25068536,0.48887,2.5404358,-3.5934148,2.8151724
246,1778516100950,0.4600471799999999,-0.3411377866666666,0.2732883133333333,3.5236235666666667,-4.044640466666666,3.788942666666667
247,1778516100960,0.494998415,-0.3896721199999999,0.154582195,3.65606675,-4.116658875,4.133381625
248,1778516100970,0.5302139,-0.39959648,0.1218363699999999,3.695582,-4.195575,4.3247733
249,1778516100980,0.5302139,-0.39959648,0.12183637,3.695582,-4.195575,4.3247733
250,1778516100990,0.5302139,-0.39959648,0.1218363699999999,3.8147007999999993,-4.565607,4.717865
251,1778516101000,0.7141118,-0.42571082,0.03448371775,3.8147008,-4.565607,4.717865
252,1778516101010,0.7754111,-0.4344156,0.005366167,3.8147008,-4.565607,4.717865
253,1778516101020,0.7754111,-0.4344156,0.005366167,3.8147007999999993,-4.565607,4.717865
254,1778516101030,0.7754111,-0.4344156,0.005366167,3.8147008,-4.565607,4.717865
255,1778516101040,0.7754111,-0.4344156,0.005366167,3.8147008,-4.565607,4.717865
256,1778516101050,0.7754111,-0.4344156,0.005366167,3.8147007999999993,-4.565607,4.717865
257,1778516101060,0.7754111,-0.4344156,0.005366167,3.8147008,-4.565607,4.717865
258,1778516101070,1.0296942333333334,-0.4294966133333333,-0.078622471,3.83771,-4.652858733333333,4.786180333333333
259,1778516101080,1.1568358,-0.42703712,-0.12061679,3.81317355,-4.6673158,4.8230865
260,1778516101090,1.2138920000000002,-0.41746338,-0.1820431433333333,3.6105699333333336,-4.471788,4.785925233333333
261,1778516101100,1.3400172,-0.41758534,-0.43679374,2.4449883,-3.414584,4.618447
262,1778516101110,1.3400172,-0.41758534,-0.43679374,1.6453656,-2.859613,4.691598
263,1778516101120,1.373251,-0.40752378,-0.2487340299999999,1.6453656,-2.859613,4.691598
264,1778516101130,1.373251,-0.40752378,-0.24873403,1.6453656,-2.859613,4.691598
265,1778516101140,1.373251,-0.40752378,-0.2487340299999999,1.6453656,-2.859613,4.691598
266,1778516101150,1.373251,-0.40752378,-0.24873403,1.6453656,-2.859613,4.691598
267,1778516101160,1.373251,-0.40752378,-0.24873403,1.6453656,-2.859613,4.691598
268,1778516101170,1.373251,-0.40752378,-0.24873403,1.6453656,-2.859613,4.691598
269,1778516101180,1.373251,-0.40752378,-0.2487340299999999,1.0772608933333334,-2.5690448,4.823442666666666
270,1778516101190,1.373251,-0.40752378,-0.24873403,0.684245445,-2.390850275,4.9308276
271,1778516101200,1.373251,-0.40752378,-0.2487340299999999,0.35735616,-2.292119,5.0552154
272,1778516101210,1.373251,-0.40752378,-0.24873403,0.35735616,-2.292119,5.0552154
273,1778516101220,1.373251,-0.40752378,-0.24873403,0.35735616,-2.292119,5.0552154
274,1778516101230,1.4514262,-0.4055317933333333,-0.1377519366666666,0.35735616,-2.292119,5.0552154
275,1778516101240,1.4905138,-0.4045358,-0.08226089,0.35735616,-2.292119,5.0552154
276,1778516101250,1.4905137999999998,-0.4045357999999999,-0.08226089,0.35735616,-2.292119,5.0552154
277,1778516101260,1.4905138,-0.4045358,-0.08226089,0.35735616,-2.292119,5.0552154
278,1778516101270,1.4905138,-0.4045358,-0.08226089,0.35735616,-2.292119,5.0552154
279,1778516101280,1.4905137999999998,-0.4045357999999999,-0.08226089,0.35735616,-2.292119,5.0552154
280,1778516101290,1.70025165,-0.32090286,0.0960117025,0.1121319495,-2.25970505,5.096334375
281,1778516101300,1.8055321,-0.26056397,0.18860857,-0.0257072446666666,-2.3007221333333336,5.073083233333333
282,1778516101310,2.0251791,-0.13897152,0.3295924,-0.05375614,-2.326633,5.0546045
283,1778516101320,2.0180039,-0.17220517,0.3484552866666666,-0.0401134833333333,-2.2950716333333334,4.8895691
284,1778516101330,2.0036535,-0.23867247,0.38618106,-0.01282817,-2.2319489,4.5594983
285,1778516101340,2.050160233333333,-0.1091933666666666,0.3698386333333334,-0.0645480966666666,-1.9580776333333336,4.483343566666666
286,1778516101350,2.19869525,0.03920960582,0.497742445,-0.109803025,-1.52235255,4.0385827
287,1778516101360,2.1525645,-0.0008537083599999,0.52082306,0.0086539333333333,-1.4659747333333335,3.8689150333333338
288,1778516101370,2.1525645,-0.00085370836,0.52082306,0.1777618,-1.4294246,3.6939023
289,1778516101380,2.139514975,0.01876633873,0.509862065,0.1777618,-1.4294246,3.6939023
290,1778516101390,2.1003664,0.07762648,0.47697908,0.1777618,-1.4294246,3.6939023
291,1778516101400,2.0617058,0.17488825,0.5228354,0.32528573,-1.5129606,3.4289393
292,1778516101410,2.0602422,0.1357396266666666,0.5295431,0.3731368466666667,-1.5135205,3.3311499333333336
293,1778516101420,2.057315,0.05744238,0.5429585,0.46883908,-1.5146403,3.1355712
294,1778516101430,2.057315,0.05744238,0.5429585,0.46883908,-1.5146403,3.1355712
295,1778516101440,2.1268314,0.14391084,0.5691389,0.49754976,-1.3895147666666663,2.8712702666666665
296,1778516101450,2.1615896,0.18714507,0.5822291,0.5119051,-1.326952,2.7391198
297,1778516101460,2.1615896,0.18714507,0.5822291,0.5119051,-1.326952,2.7391197999999997
298,1778516101470,2.1525341,0.213731985,0.58686353,0.5119051,-1.326952,2.7391198
299,1778516101480,2.1434786,0.2403189,0.59149796,0.5119051,-1.326952,2.7391198
300,1778516101490,2.1434786,0.2403189,0.59149796,0.5119051,-1.326952,2.7391197999999997
301,1778516101500,2.1287369,0.2601676175,0.58151262,0.5118669,-1.09772485,2.475149675
302,1778516101510,2.0638602,0.35207338,0.5356613666666666,0.4901175333333333,-0.4988223866666666,1.8509725999999995
303,1778516101520,2.16119325,0.6131759999999999,0.5476234,0.5246187125,-0.01091921625,1.1513283
304,1778516101530,2.2023847,0.6324759,0.5514346,0.5448918,0.021227567,1.0548116
305,1778516101540,2.2023847,0.6324759,0.5514346,0.6072000666666667,0.0570649956666666,0.8384634666666667
306,1778516101550,2.2023847,0.6324759,0.5514346,0.6383542,0.07498371,0.7302894
307,1778516101560,2.2023847,0.6324759,0.5514346,0.6383542,0.07498371,0.7302894
308,1778516101570,2.2023847,0.6324759,0.5514346,0.6383542,0.07498371,0.7302893999999999
309,1778516101580,2.2023847,0.6324759,0.5514346,0.6383542,0.07498371,0.7302894
310,1778516101590,2.2023847,0.6324759,0.5514346,0.6383542,0.07498371,0.7302894
311,1778516101600,2.2023847,0.6324759,0.5514346,0.6383542,0.07498371,0.7302894
312,1778516101610,2.2023847,0.6324759,0.5514346,0.6383542,0.07498371,0.7302894
313,1778516101620,2.22702015,0.6747649499999999,0.54994063,0.7733554,0.0888045349999999,0.33322699
314,1778516101630,2.2516556,0.717054,0.54844666,0.9083566,0.10262536,-0.06383542
315,1778516101640,2.2516556,0.717054,0.54844666,0.9083566,0.10262536,-0.06383542
316,1778516101650,2.2516556,0.717054,0.54844666,0.9083566,0.10262536,-0.06383542
317,1778516101660,2.2516556,0.717054,0.54844666,0.9083566,0.10262536,-0.06383542
318,1778516101670,2.2516556,0.717054,0.54844666,1.1754575,0.037110064,-0.8014552
319,1778516101680,2.2097832,0.7232332,0.5096639,1.1754575,0.037110064,-0.8014552
320,1778516101690,2.188847,0.7263228,0.49027252,1.1754575,0.037110064,-0.8014552
321,1778516101700,2.188847,0.7263228,0.49027252,1.1754575,0.037110064,-0.8014552
322,1778516101710,2.188847,0.7263228,0.49027252,1.1754575,0.037110064,-0.8014552
323,1778516101720,2.1625498,0.7083949375,0.47101835,1.217530825,0.024243714625,-0.932333075
324,1778516101730,1.8376073,0.4648441699999999,0.3031884,1.481501,-0.022143865,-1.9872974
325,1778516101740,1.8376073,0.46484417,0.3031884,1.481501,-0.022143865,-1.9872974
326,1778516101750,1.8376073,0.4648441699999999,0.3031884,1.5084808,-0.0846557416666666,-2.1003074
327,1778516101760,2.0415215,0.28196767,0.34928867,1.6420058,-0.34376442,-2.326633
328,1778516101770,2.0415215,0.28196767,0.34928867,1.6420058,-0.34376442,-2.326633
329,1778516101780,2.3017958,0.174491875,0.3529474175,1.8005253,-0.551764,-2.5622742
330,1778516101790,2.3885539,0.13866661,0.354167,1.8675168666666668,-0.6244060666666668,-2.6954428
331,1778516101800,2.3885539,0.13866661,0.354167,2.0015,-0.7696902,-2.96178
332,1778516101810,2.3885539,0.13866661,0.354167,2.0015,-0.7696902,-2.9617799999999996
333,1778516101820,2.394789075,0.1296569424999999,0.35111804,2.0015,-0.7696902,-2.96178
334,1778516101830,2.4134946,0.10262794,0.34197116,2.0015,-0.7696902,-2.96178
335,1778516101840,2.4134946,0.10262794,0.34197116,2.0275635666666667,-0.8013024833333334,-3.0415488333333336
336,1778516101850,2.4134946,0.10262794,0.34197116,2.0796907,-0.86452705,-3.2010865
337,1778516101860,2.4134946,0.10262794,0.34197116,2.0900755,-0.8323039,-3.712381
338,1778516101870,2.4134946,0.10262794,0.34197116,2.0900755,-0.8323039,-3.712381
339,1778516101880,2.4134946,0.10262794,0.34197116,2.0900755,-0.8323039,-3.712381
340,1778516101890,2.4594119,0.0001829375,0.3336170299999999,2.0900755,-0.8323039,-3.712381
341,1778516101900,2.4594119,0.0001829375,0.33361703,2.0900755,-0.8323039,-3.712381
342,1778516101910,2.45477745,-0.05390558625,0.34587383,2.0670917500000003,-0.7040222,-3.90159635
343,1778516101920,2.450143,-0.1079941099999999,0.35813063,2.044108,-0.5757405,-4.0908117
344,1778516101930,2.450143,-0.10799411,0.35813063,2.044108,-0.5757405,-4.0908117
345,1778516101940,2.450143,-0.10799411,0.35813063,2.044108,-0.5757405,-4.0908117
346,1778516101950,2.450143,-0.10799411,0.35813063,2.044108,-0.5757405,-4.0908117
347,1778516101960,2.450143,-0.1079941099999999,0.35813063,2.044108,-0.5757405,-4.0908117
348,1778516101970,2.450143,-0.10799411,0.35813063,2.044108,-0.5757405,-4.0908117
349,1778516101980,2.450143,-0.1079941099999999,0.35813063,2.044108,-0.5757405,-4.0908117
350,1778516101990,2.42880025,-0.11607385,0.3583897975,2.04406975,-0.51812827,-4.1504092749999995
351,1778516102000,2.364772,-0.14031307,0.3591673,1.9952894666666663,-0.2394082733333333,-4.435492666666667
352,1778516102010,2.364772,-0.14031307,0.3591673,1.9709567,-0.18646662,-4.488638
353,1778516102020,2.1285388,-0.09762765,0.36026493,1.9709567,-0.18646662,-4.488638
354,1778516102030,2.017191,-0.026221042,0.3902056999999999,1.8442022,-0.12156218,-4.39487
355,1778516102040,2.08640235,-0.0626865839999999,0.3799154675,1.8442022,-0.12156218,-4.39487
356,1778516102050,2.2483831999999997,-0.1976944633333333,0.4016900966666667,1.4349225,0.6049093,-4.267199
357,1778516102060,1.76312115,-0.24286478,0.4798907825,1.9144136,0.5196936,-4.5719445
358,1778516102070,1.501368,-0.24580702,0.46496618,2.5943446,0.22632557,-4.734969
359,1778516102080,1.501368,-0.24580702,0.46496618,2.5943446,0.22632557,-4.734969
360,1778516102090,1.501368,-0.24580702,0.46496618,2.5943446,0.22632557,-4.734969
361,1778516102100,1.45760025,-0.2769064075,0.4114112075,2.5943446,0.22632557,-4.734969
362,1778516102110,1.443011,-0.28727287,0.39355955,2.5943446,0.22632557,-4.734969
363,1778516102120,1.3228516,-0.30401166,0.339958865,2.61855015,0.389884735,-4.8207957
364,1778516102130,1.2026922,-0.32075045,0.28635818,2.6427557,0.5534439,-4.9066224
365,1778516102140,1.2026922,-0.32075045,0.28635818,2.6051877,0.73655075,-4.877759
366,1778516102150,0.99298483,-0.36392367,0.22794013,2.6051877,0.73655075,-4.877759
367,1778516102160,0.99298483,-0.36392367,0.22794013,2.6051877,0.73655075,-4.877759
368,1778516102170,0.8840759766666667,-0.3857135566666667,0.21350839,2.5787168333333335,0.81942481,-4.760473
369,1778516102180,0.82962155,-0.3966085,0.20629252,2.5654814,0.86086184,-4.70183
370,1778516102190,0.7276644,-0.4136217,0.178547,2.5740334999999996,0.84902632,-4.5371255
371,1778516102200,0.7276644,-0.4136217,0.178547,2.5825856,0.8371908,-4.372421
372,1778516102210,0.696702225,-0.397386,0.12517499,2.5825856,0.8371908,-4.372421
373,1778516102220,0.6863815,-0.3919740999999999,0.10738432,2.5825856,0.8371908,-4.372421
374,1778516102230,0.6863815,-0.3919741,0.10738432,2.5825856,0.8371908,-4.372421
375,1778516102240,0.6863815,-0.3919741,0.10738432,2.5825856,0.8371908,-4.372421
376,1778516102250,0.6863815,-0.3919740999999999,0.10738432,2.5825856,0.8371908,-4.372421
377,1778516102260,0.6863815,-0.3919741,0.10738432,2.5825856,0.8371908,-4.372421
378,1778516102270,0.6816251000000001,-0.3789448666666666,0.0502671603333333,2.5780041,0.6973027000000002,-4.298048
379,1778516102280,0.6728746525,-0.36387795,0.0221049485,2.426662225,-0.267558975,-4.2583416000000005
380,1778516102290,0.6699171700000001,-0.3630090000000001,0.033416584,2.3872614,-0.39935315,-4.260785
381,1778516102300,0.66991717,-0.363009,0.033416584,2.3195317,-0.37071884,-4.261625
382,1778516102310,0.66991717,-0.363009,0.033416584,2.251802,-0.34208453,-4.262465
383,1778516102320,0.6699171700000001,-0.3630090000000001,0.033416584,2.251802,-0.34208453,-4.262465
384,1778516102330,0.6552211,-0.39703536,0.0687845,2.251802,-0.34208453,-4.262465
385,1778516102340,0.6552211,-0.39703536,0.0687845,2.1371121,-0.15286903,-4.2468877
386,1778516102350,0.58776292,-0.426091945,0.12637933,2.118022525,-0.0931187724999999,-4.223980275000001
387,1778516102360,0.4676492325,-0.4633502025,0.2213391275,2.21683,0.34513888,-3.7866008
388,1778516102370,0.3202219366666667,-0.4700680766666666,0.1980603366666666,2.294969866666667,0.4050036666666667,-3.5313102
389,1778516102380,0.144093765,-0.4525569,0.13548047,2.362674075,0.3163900175,-2.83766005
390,1778516102390,0.11592139,-0.4475871,0.13659334,2.3620632,0.29260445,-2.7762299
391,1778516102400,0.0862397821,-0.423729,0.1418985275,2.3605360500000003,0.2448806025,-2.644473875
392,1778516102410,-0.0028050416,-0.3521547,0.15781409,2.3559546,0.10170906,-2.2492058
393,1778516102420,-0.0874136354,-0.277287525,0.1733637725,2.345989875,-0.0138590054999999,-1.959083
394,1778516102430,-0.1156165,-0.2523318,0.178547,2.3426683,-0.052381694,-1.8623754
395,1778516102440,-0.1156165,-0.2523318,0.178547,2.3426683,-0.052381694,-1.8623754
396,1778516102450,-0.1156165,-0.2523318,0.178547,2.3426683,-0.052381694,-1.8623754
397,1778516102460,-0.12343708,-0.228168805,0.1795684025,2.3426683,-0.052381694,-1.8623754
398,1778516102470,-0.14689882,-0.15567982,0.18263261,2.318793633333333,-0.1082249593333333,-1.730174
399,1778516102480,-0.14689882,-0.15567982,0.18263261,2.2710443,-0.21991149,-1.4657712
400,1778516102490,-0.14689882,-0.15567982,0.18263261,2.2710443,-0.21991149,-1.4657712
401,1778516102500,-0.14689882,-0.15567982,0.18263261,2.2710443,-0.21991149,-1.4657712
402,1778516102510,-0.14689882,-0.15567982,0.18263261,2.2710443,-0.21991149,-1.4657712
403,1778516102520,-0.14689882,-0.15567982,0.18263261,2.1407008249999997,-0.2784400125,-1.25353365
404,1778516102530,-0.06780884,-0.09524946,0.15531394,1.9016235,-0.2134973999999999,-1.0899363
405,1778516102540,-0.06780884,-0.09524946,0.15531394,1.9016235,-0.2134974,-1.0899363
406,1778516102550,-0.06780884,-0.09524946,0.15531394,1.9016235,-0.2134973999999999,-1.0899363
407,1778516102560,-0.11073817,-0.113299295,0.1478135,1.821752875,-0.137521035,-1.0649290125
408,1778516102570,-0.11073817,-0.1132992949999999,0.1478135,1.582141,0.09040806,-0.98990715
409,1778516102580,-0.21415883,-0.17263202,0.15403338,1.582141,0.09040806,-0.98990715
410,1778516102590,-0.21415883,-0.17263202,0.15403338,1.582141,0.09040806,-0.98990715
411,1778516102600,-0.21415883,-0.17263202,0.15403338,1.3563244666666667,0.3804672466666667,-0.82293729
412,1778516102610,-0.2635976825,-0.2010330725,0.170223345,1.2434162,0.52549684,-0.73945236
413,1778516102620,-0.2800773,-0.21050009,0.17562,1.1518373166666669,0.6702718933333333,-0.5937101066666667
414,1778516102630,-0.2800773,-0.21050009,0.17562,0.96867955,0.959822,-0.3022256
415,1778516102640,-0.2800773,-0.21050009,0.17562,0.96867955,0.959822,-0.3022256
416,1778516102650,-0.2800773,-0.21050009,0.17562,0.8867854374999999,1.1618657,0.0067958725
417,1778516102660,-0.30105415,-0.23720896,0.182998485,0.8594874,1.2292136,0.10980303
418,1778516102670,-0.3193479133333333,-0.2969278966666667,0.1691968633333333,0.8594874,1.2292136,0.1098030299999999
419,1778516102680,-0.31800637,-0.31343293,0.15860681,0.8594874,1.2292136,0.10980303
420,1778516102690,-0.31800637,-0.31343293,0.15860681,0.8594874,1.2292136,0.1098030299999999
421,1778516102700,-0.31800637,-0.31343293,0.15860681,0.8594874,1.2292136,0.10980303
422,1778516102710,-0.31800637,-0.31343293,0.15860681,0.844292125,1.3170255,0.328721865
423,1778516102720,-0.31800637,-0.31343293,0.15860681,0.82909685,1.4048374,0.5476407
424,1778516102730,-0.31800637,-0.31343293,0.15860681,0.82909685,1.4048374,0.5476407
425,1778516102740,,,,,,
426,1778516102750,,,,,,
427,1778516102760,-0.31800637,-0.31343293,0.15860681,0.82909685,1.4048374,0.5476407
428,1778516102770,-0.31800637,-0.31343293,0.15860681,0.82909685,1.4048374,0.5476407
429,1778516102780,-0.2986607275,-0.3223054025,0.12836114425,0.82909685,1.4048374,0.5476407
430,1778516102790,-0.2406237999999999,-0.34892282,0.037624147,0.8085310833333333,1.4762068,1.0099639
431,1778516102800,-0.2406238,-0.34892282,0.037624147,0.7982482,1.5118915,1.2411255
432,1778516102810,-0.2406238,-0.34892282,0.037624147,0.7982482,1.5118915,1.2411255
433,1778516102820,-0.06360127,-0.4130932266666666,-0.1182995766666666,0.5751805333333334,1.505986433333333,1.8994345
434,1778516102830,0.077031927,-0.5262959675,-0.187770105,0.12266937225,1.388038575,2.839989
435,1778516102840,0.14994776,-0.59149796,-0.20739016,0.009010263,1.3497068,3.043789
436,1778516102850,0.14994776,-0.59149796,-0.20739016,-0.39381718425,1.289918375,3.871205725
437,1778516102860,0.1727133266666667,-0.6147106533333333,-0.19596672,-0.6294457333333333,1.2588915,4.414570333333334
438,1778516102870,0.18409611,-0.626317,-0.190255,-0.8321512,1.2366967,4.9496884
439,1778516102880,0.4124326225,-0.6619441,-0.12203456,-0.8321512,1.2366967,4.9496884
440,1778516102890,0.5674112,-0.6741857000000001,-0.0837243999999999,-0.8321511999999999,1.2366967,4.9496884
441,1778516102900,1.35389001,-0.4381962975,-0.08858748175,-1.304693625,1.2775101,5.556162925
442,1778516102910,1.6788785,-0.25928342,-0.12927583,-1.4057536,1.4257593999999998,5.2079315
443,1778516102920,1.4522189,-0.069531495725,-0.2768606725,-1.7523051,1.4010576,4.604435125
444,1778516102930,1.3766657,-0.0062808543,-0.32605562,-1.8025106,1.3859005,4.563469
445,1778516102940,1.3766657,-0.0062808543,-0.32605562,-1.8025106,1.3859005,4.563469
446,1778516102950,1.3766657,-0.0062808543,-0.32605562,-1.8025106,1.3859005,4.563469
447,1778516102960,1.3766657,-0.0062808543,-0.32605562,-1.8025106,1.3859005,4.563469
448,1778516102970,1.3766657,-0.0062808543,-0.32605562,-1.8025106,1.3859005,4.563469
449,1778516102980,1.3766657,-0.0062808543,-0.32605562,-1.8025106,1.3859005,4.563469
450,1778516102990,1.3766657,-0.0062808543,-0.32605562,-1.8025106,1.3859005,4.563469
451,1778516103000,1.3766657,-0.0062808543,-0.32605562,-1.8025106,1.3859005,4.563469
452,1778516103010,1.1331758,0.082199916,-0.3603259,-1.9888245,1.3280719,4.552727900000001
453,1778516103020,1.1331758,0.082199916,-0.3603259,-2.5748351,1.162018375,4.592523175
454,1778516103030,1.0812826,0.11671413,-0.29568797,-2.6459627,1.1452196,4.612949
455,1778516103040,1.0812826,0.11671413,-0.29568797,-2.73847065,1.117959725,4.665407
456,1778516103050,1.0812826,0.11671413,-0.29568797,-3.0159945,1.0361801,4.822781
457,1778516103060,1.1061824333333332,0.14500846,-0.2338550986666666,-3.0159945,1.0361801,4.822781
458,1778516103070,1.1559821,0.20159712,-0.110189356,-3.0159945,1.0361801,4.822781
459,1778516103080,1.2304986333333332,0.2425548,-0.0565480156666666,-3.0159945,1.0361801,4.822781
460,1778516103090,1.3795317,0.32447016,0.050734665,-3.0159945,1.0361801,4.822781
461,1778516103100,1.3795317,0.32447016,0.0507346649999999,-3.0159945,1.0361801,4.822781
462,1778516103110,1.399731075,0.34201691,0.07046142625,-3.0079768500000004,1.0847439,4.7358855
463,1778516103120,1.4603292,0.39465716,0.12964171,-2.9999592000000006,1.1333077,4.64899
464,1778516103130,1.476564875,0.425710795,0.1676317325,-2.8324294,1.1058188,4.48535435
465,1778516103140,1.5252719,0.5188717,0.2816018,-2.6648996,1.0783299,4.3217187
466,1778516103150,1.531217375,0.5345433500000001,0.29201399,-2.6648996,1.0783299,4.3217187
467,1778516103160,1.665249575,0.647339575,0.2878674,-2.28371965,0.92126115,4.097416625
468,1778516103170,2.0138369,0.8446834,0.18171792,-1.3245085,0.50533825,3.3948836
469,1778516103180,2.0138369,0.8446834,0.18171792,-1.3245085,0.50533825,3.3948836
470,1778516103190,2.0138369,0.8446834,0.18171792,-1.3245085,0.50533825,3.3948836
471,1778516103200,2.0138369,0.8446834,0.18171792,-1.3245085,0.50533825,3.3948836
472,1778516103210,2.0528025999999997,0.8709197,0.1481031545,-1.3245085,0.50533825,3.3948836
473,1778516103220,2.1696997,0.9496286,0.0472588579999999,-1.3245085,0.50533825,3.3948836
474,1778516103230,2.1696997,0.9496286,0.047258858,-1.3245085,0.50533825,3.3948836
475,1778516103240,2.1696997,0.9496286,0.047258858,-1.3245085,0.50533825,3.3948836
476,1778516103250,2.1696997,0.9496286,0.0472588579999999,-1.2342023,0.42887831,3.0837495999999995
477,1778516103260,2.1962867,1.0037781,-0.046892982,-1.3238977,0.10995574,2.0879374
478,1778516103270,2.1838875666666664,1.0004242466666666,-0.03721762,-1.3238977,0.10995574,2.0879374
479,1778516103280,2.1590893,0.99371654,-0.017866896,-1.35356285,0.0687986949999999,2.00241625
480,1778516103290,2.1590893,0.99371654,-0.017866896,-1.4425583,-0.05467244,1.7458528
481,1778516103300,2.016703,0.94285995,0.18781583,-1.5213599,-0.18000162,1.538769533333333
482,1778516103310,2.016703,0.94285995,0.18781583,-1.5271631,-0.2863431,1.3541355
483,1778516103320,2.077026675,0.94651869,0.317213625,-1.334931475,-0.31295391,1.322294175
484,1778516103330,2.5831995,1.0510979,0.6008277,-0.9640980999999998,-0.35521814,1.2399037
485,1778516103340,2.5831995,1.0510979,0.6008277,-0.9640981,-0.35521814,1.2399037
486,1778516103350,2.660765,1.0765262333333334,0.6070475833333333,-0.8781697166666667,-0.36198856,1.1830423333333333
487,1778516103360,2.815896,1.1273829,0.61948735,-0.70631295,-0.3755294,1.0693196
488,1778516103370,2.815896,1.1273829,0.61948735,-0.70631295,-0.3755294,1.0693196
489,1778516103380,2.815896,1.1273829,0.61948735,-0.70631295,-0.3755294,1.0693196
490,1778516103390,2.815896,1.1273829,0.61948735,-0.70631295,-0.3755294,1.0693196
491,1778516103400,3.0833099999999996,1.2315352333333334,0.5889977833333333,-0.3640247833333334,-0.3972151333333333,0.62878396
492,1778516103410,3.217017,1.2836114,0.573753,-0.0176387349999999,-0.38805215,0.018784105
493,1778516103420,3.2731788666666666,1.2993847,0.5467595466666667,0.15760323,-0.3680463,-0.37094793
494,1778516103430,3.3855026,1.3309313,0.49277264,0.15760323,-0.3680463,-0.37094793
495,1778516103440,3.350500333333333,1.330402833333333,0.4403712333333333,0.3171408633333333,-0.25697064,-0.92876971
496,1778516103450,3.2184194,1.2905326,0.375387765,0.4644866399999999,-0.0780380334999999,-1.5870279
497,1778516103460,3.1038396,1.2509266,0.336605,0.5320636,0.045356743,-1.9663752
498,1778516103470,3.1038396,1.2509266,0.336605,0.5320636,0.045356743,-1.9663752
499,1778516103480,2.930293,1.1552503,0.30599347,0.5320636,0.045356743,-1.9663752
500,1778516103490,2.9302930000000003,1.1552503,0.30599347,0.5320636,0.045356743,-1.9663752
501,1778516103500,2.930293,1.1552503,0.30599347,0.5320636,0.045356743,-1.9663752
502,1778516103510,2.930293,1.1552503,0.30599347,0.5795584,0.20723604,-2.3324363
503,1778516103520,2.9302930000000003,1.1552503,0.30599347,0.61381775,0.2685770933333333,-2.5061256000000003
504,1778516103530,2.841995175,1.09645115,0.30305122,0.68233645,0.3912592,-2.8535042
505,1778516103540,2.5771017,0.9200537,0.29422447,0.6823364499999999,0.3912592,-2.8535042
506,1778516103550,2.5771017,0.9200537,0.29422447,0.68233645,0.3912592,-2.8535042
507,1778516103560,2.5771017,0.9200537,0.29422447,0.6823364499999999,0.3912592,-2.8535042
508,1778516103570,2.5771017,0.9200537,0.29422447,0.68233645,0.3912592,-2.8535042
509,1778516103580,2.325867475,0.7746945725,0.3046214275,0.8487590875,0.3808362999999999,-3.05463155
510,1778516103590,2.1409786,0.67180747,0.30007848,0.9042333,0.377362,-3.121674
511,1778516103600,2.1409786,0.67180747,0.30007848,0.9964739,0.34040466,-3.1612277
512,1778516103610,2.1409786,0.67180747,0.30007848,0.9964739,0.3404046600000001,-3.1612277
513,1778516103620,2.1409786,0.67180747,0.30007848,1.06725795,0.31375566,-3.168329
514,1778516103630,2.04246675,0.6424307524999999,0.2276657194999999,1.138042,0.28710666,-3.1754303
515,1778516103640,1.7886409333333333,0.5640979333333334,0.0484377853333333,0.9005172133333333,0.47790024,-3.0623693333333333
516,1778516103650,1.8696823,0.581131455,0.20549979,0.482278085,0.97528455,-3.06692535
517,1778516103660,1.8688896,0.58027774,0.23251356,0.5012149,1.0138836,-3.143818
518,1778516103670,1.8688896,0.58027774,0.23251356,0.5458080833333333,1.0366892333333333,-3.2267430000000004
519,1778516103680,1.8220271,0.56125227,0.2512646699999999,0.63499445,1.0823005,-3.392593
520,1778516103690,1.7751646,0.5422268,0.27001578,0.63499445,1.0823005,-3.392593
521,1778516103700,1.694656825,0.515655115,0.269146825,0.7289913375,1.090509,-3.48735345
522,1778516103710,1.4531335,0.43594006,0.26653996,1.010982,1.1151345,-3.7716348
523,1778516103720,1.4531335,0.43594006,0.26653996,1.010982,1.1151345,-3.7716348
524,1778516103730,1.26630865,0.379412365,0.211933105,1.232267925,1.038623625,-3.847916475
525,1778516103740,1.2040337,0.3605698,0.19373082,1.3060299,1.01312,-3.8733437
526,1778516103750,1.08424012,0.292730485,0.0918041389999999,1.5175802,0.818788525,-3.8873174
527,1778516103760,0.96444654,0.22489117,-0.010122542,1.5607607,0.7145596,-3.9086213
528,1778516103770,0.96444654,0.22489117,-0.010122542,1.5607607,0.7145596,-3.9086213
529,1778516103780,0.96444654,0.22489117,-0.010122542,1.5607607,0.7145596,-3.9086213
530,1778516103790,0.96444654,0.22489117,-0.010122542,1.5607607,0.7145596,-3.9086213
531,1778516103800,0.96444654,0.22489117,-0.010122542,1.5607607,0.7145596,-3.9086213
532,1778516103810,0.96444654,0.22489117,-0.010122542,1.5607607,0.7145596,-3.9086213
533,1778516103820,0.8167701975,0.116409235,-0.062488403,1.4398094,0.6445774,-4.0821452
534,1778516103830,0.76754475,0.08024859,-0.07994369,1.3466524,0.63270366,-4.167781
535,1778516103840,0.7065656,0.04402696,-0.08268775,1.3466524,0.63270366,-4.167781
536,1778516103850,0.5946485333333333,-0.02825368,-0.0628898466666666,1.2590950666666667,0.6936883933333333,-4.167068333333334
537,1778516103860,0.53869,-0.064394,-0.052990895,1.2153164,0.72418076,-4.166712
538,1778516103870,0.53869,-0.064394,-0.052990895,1.2153164,0.72418076,-4.166712
539,1778516103880,0.4569778666666666,-0.1054939533333333,-0.0199808401333333,1.2043208666666667,0.7496334533333333,-4.129754466666667
540,1778516103890,0.29090111,-0.1652535399999999,0.050429771,1.3395511,0.61506495,-3.94145535
541,1778516103900,0.27355254,-0.1741564999999999,0.060552314,1.4140003000000003,0.5308419,-3.8563923999999994
542,1778516103910,0.27355254,-0.1741565,0.060552314,1.4140003,0.5308419,-3.8563924
543,1778516103920,0.29520015,-0.18204314,0.0521778413333333,1.4526884333333332,0.4970915899999999,-3.7851248
544,1778516103930,0.33410487,-0.19537725,0.038355898,1.5300647,0.42959097,-3.6425896
545,1778516103940,0.37462552,-0.218976185,0.031892105,1.5209017500000002,0.4359287,-3.6180786
546,1778516103950,,,,,,
547,1778516103960,-0.6655266,-0.35971612,-0.0074394583,1.784032,-0.11224649,-1.9252945
548,1778516103970,-0.67894205,-0.36721656,-0.01896452115,1.784032,-0.11224649,-1.9252945
549,1778516103980,-0.6923575,-0.374717,-0.030489584,1.784032,-0.11224649,-1.9252945
550,1778516103990,-0.6923575,-0.374717,-0.030489584,1.784032,-0.11224649,-1.9252945
551,1778516104000,-0.55789841,-0.3332054175,-0.0920328085,0.837801689,0.20673970925,0.1269836355
552,1778516104010,-0.3939254300000001,-0.29983455,-0.17025384,0.018784106,0.5027421,1.5454891
553,1778516104020,-0.39392543,-0.29983455,-0.17025384,0.018784106,0.5027421,1.5454891
554,1778516104030,-0.3939254300000001,-0.29983455,-0.17025384,0.018784106,0.5027421,1.5454891
555,1778516104040,-0.39392543,-0.29983455,-0.17025384,-0.3149774035,0.5833763249999999,2.091030025
556,1778516104050,-0.39392543,-0.29983455,-0.17025384,-0.42623124,0.6102544,2.272877
557,1778516104060,-0.2915414,-0.38971785,-0.102445,-0.42623124,0.6102544,2.272877
558,1778516104070,-0.27865955,-0.4098562175,-0.074699479,-0.42623124,0.6102544,2.272877
559,1778516104080,-0.240014,-0.47027132,0.008537084,-0.42623124,0.6102544,2.272877
560,1778516104090,-0.0741811565,-0.58776293,0.1775713235,-0.735138135,0.79763728,4.06973675
561,1778516104100,-0.018903542,-0.6269268,0.23391607,-0.8381071,0.86009824,4.66869
562,1778516104110,-0.018903542,-0.6269268,0.23391607,-0.8381070999999999,0.86009824,4.66869
563,1778516104120,-0.018903542,-0.6269268,0.23391607,-0.8381071,0.86009824,4.66869
564,1778516104130,0.1961089993333333,-0.6730677333333334,0.24960805,-0.7825183666666667,0.8391252333333333,5.2456526666666665
565,1778516104140,0.534573855,-0.72325865,0.244419745,-0.71539955,0.822301,5.806885299999999
566,1778516104150,0.61156005,-0.7322988,0.24007498,-0.6760750999999999,0.81596327,6.0796366
567,1778516104160,0.6985620875,-0.7365216075000001,0.23103482,-0.6491207,0.84161961,6.31069615
568,1778516104170,1.1413471,-0.6814218533333333,0.15110638,-0.6260351,0.8871290666666667,6.620913666666667
569,1778516104180,1.5049049,-0.5458855,0.04549046,-0.6337727,0.9268353,6.7792296
570,1778516104190,1.5049049000000003,-0.5458855,0.04549046,-0.6337727,0.9268353,6.7792296
571,1778516104200,1.5049049,-0.5458855,0.04549046,-0.741208625,0.9191613,6.976348424999999
572,1778516104210,1.8036419,-0.43502536,-0.01975725,-0.7770205999999998,0.9166033,7.042054699999999
573,1778516104220,1.8036419,-0.43502536,-0.01975725,-0.88453288,0.8856018999999999,7.07557585
574,1778516104230,1.8036419,-0.43502536,-0.01975725,-0.99204516,0.8546005,7.109097
575,1778516104240,1.8036419,-0.43502536,-0.01975725,-0.99204516,0.8546005,7.109097000000001
576,1778516104250,1.8036419,-0.43502536,-0.01975725,-0.99204516,0.8546005,7.109097
577,1778516104260,1.8036419,-0.43502536,-0.01975725,-1.2803736,0.8202393,6.840622
578,1778516104270,1.8036419,-0.43502536,-0.01975725,-1.2803736,0.8202393,6.840622
579,1778516104280,1.862913625,-0.411411185,-0.0177449375,-1.2803736,0.8202393,6.840622
580,1778516104290,2.0798774,-0.19464551,0.11348223,-1.4023429333333333,0.9035205666666668,6.260401733333334
581,1778516104300,1.9692002,-0.1333157105,0.166488375,-1.4633276,0.9451612,5.9702916
582,1778516104310,1.9323078,-0.112872444,0.18415709,-1.4633276,0.9451612,5.9702916
583,1778516104320,1.6254607333333333,0.076488204,0.1844416633333333,-1.4481069666666666,1.1664980333333332,5.566967666666667
584,1778516104330,1.4932579,0.21415883,0.048905294,-1.4579827,1.2524265,5.4970236
585,1778516104340,1.4932579,0.21415883,0.048905294,-1.4579827,1.2524265,5.4970236
586,1778516104350,1.5771448666666668,0.2787967533333333,0.0601254593333333,-1.5361734,1.1856385333333332,5.321450666666667
587,1778516104360,1.7449188,0.4080726,0.08256579,-1.534073525,0.906218575,4.946633950000001
588,1778516104370,1.965511,0.59919655,0.2330776225,-1.113416425,0.4303927385,4.4183118
589,1778516104380,2.098232,0.8013271999999999,0.395206,-0.5878051,-0.008857546,3.8779254
590,1778516104390,2.098232,0.8013272,0.395206,-0.5878051,-0.008857546,3.8779254
591,1778516104400,2.098232,0.8013271999999999,0.395206,-0.5878051,-0.008857546,3.8779254
592,1778516104410,2.098232,0.8013272,0.395206,-0.0500145999999999,-0.397978723,3.4266486
593,1778516104420,2.098232,0.8013271999999999,0.395206,0.4877759,-0.7870999,2.9753718
594,1778516104430,2.0537174,1.0553055,0.39764515,0.4877759,-0.7870999,2.9753718
595,1778516104440,2.0537174,1.0553055,0.39764515,0.4877759,-0.7870999,2.9753718
596,1778516104450,2.1328683,1.2284253,-0.10500612,1.044045075,-1.352073825,2.01325915
597,1778516104460,2.1667422,1.19339275,-0.30382871,0.2060143,-1.054048,1.1181889
598,1778516104470,2.2184222,1.0935394,-0.5689966,-0.5331327,-0.64675355,0.8379544
599,1778516104480,2.33143185,0.855415775,-0.3446390025,-2.39657705,0.3648010925,0.3809890274999999
600,1778516104490,2.3958714,0.81663305,-0.01841571,-3.2734742000000003,0.8498663,0.08536842
601,1778516104500,2.3958714,0.81663305,-0.01841571,-3.2734742,0.8498663,0.08536842
602,1778516104510,2.5440511,0.8186453300000001,0.58637567,-3.2909984,0.6794730474999999,-0.31467194425
603,1778516104520,2.6355805,0.94139636,0.96389776,-3.0575333,0.46975538,-0.5172501
604,1778516104530,2.6043592,0.9254198375,0.8627180625,-1.811139125,0.1680261224999999,-1.0904326
605,1778516104540,2.5425873,0.8872469,0.67613703,-0.2919936,-0.16691893,-1.7994562
606,1778516104550,2.5425873,0.8872469,0.67613703,-0.2919936,-0.16691893,-1.7994562
607,1778516104560,2.49508455,0.84343335,0.543415865,0.0834594549999999,-0.12385293,-2.1035908
608,1778516104570,2.430263666666667,0.7332744666666667,0.32833218,0.24098633,-0.10354166,-2.251802
609,1778516104580,2.4216046,0.7001018,0.28715092,0.24098633,-0.10354166,-2.251802
610,1778516104590,2.4216046,0.7001018,0.28715092,0.255303485,-0.06918049025,-2.464841225
611,1778516104600,2.4216046,0.7001018,0.28715092,0.26007587,-0.0577267669999999,-2.5358543
612,1778516104610,2.3670282,0.6383299,0.248795,0.2026927175,0.00251981875,-2.719228325
613,1778516104620,2.3122486,0.6218655333333333,0.2446280933333333,0.15536339,0.0625627826666666,-2.8430175999999996
614,1778516104630,1.9675539,0.5547275,0.2089756,-0.052839845,0.32986724,-3.0920472
615,1778516104640,1.8797032333333337,0.5484669666666667,0.2063331866666666,-0.135917515,0.4193589866666666,-3.0884837333333333
616,1778516104650,1.794296825,0.53568675,0.21310696,-0.41599923,0.8126035,-3.019354
617,1778516104660,1.6698536,0.5067369,0.2373919,-0.41599923,0.8126035000000001,-3.019354
618,1778516104670,1.6043009,0.46551496,0.3032494,-0.44068837,0.9125817666666668,-3.021543
619,1778516104680,1.5402728,0.4276469,0.3817296,-0.36926803,1.3014483,-3.1513011
620,1778516104690,1.5402728,0.4276469,0.3817296,-0.36926803,1.3014483,-3.1513011
621,1778516104700,1.4670164666666663,0.3960190466666666,0.4134794,-0.11957687,1.3834571,-3.3269248
622,1778516104710,1.09876835,0.272134785,0.398651325,0.6859634775,1.2631166,-3.624378075
623,1778516104720,1.0376825,0.2541002,0.3855713,0.8381070999999999,1.2255484,-3.6650388
624,1778516104730,1.0376825,0.2541002,0.3855713,1.1465940333333335,1.0615310666666666,-3.6877426
625,1778516104740,0.980804175,0.233473995,0.3496393225,1.3008375,0.9795224,-3.6990945
626,1778516104750,0.8101692,0.17159538,0.24184339,1.6798794,0.7089091,-3.7281106
627,1778516104760,0.8101692000000001,0.17159538,0.24184339,1.6798794,0.7089091,-3.728110599999999
628,1778516104770,0.8101692,0.17159538,0.24184339,1.6798794,0.7089091,-3.7281106
629,1778516104780,0.7487835,0.1177304466666666,0.21285795,1.6798794,0.7089091,-3.728110599999999
630,1778516104790,0.71809065,0.09079798,0.19836523,1.80247245,0.65026604,-3.7622427
631,1778516104800,0.5595448433333333,0.0001016333333333,0.1264098166666666,2.1702516,0.47433686,-3.864639
632,1778516104810,0.4385621766666667,-0.0663250066666666,0.0585806566666666,2.2511911999999996,0.47998736,-3.8732929
633,1778516104820,0.3378703125,-0.1151591575,-0.02494048,2.43597785,0.51045427,-3.872122075
634,1778516104830,0.23752911,-0.14424622,-0.145221895,2.46499395,0.65015155,-3.672674625
635,1778516104840,0.22135438,-0.14726469,-0.16549747,2.390163,0.7153231999999999,-3.5280523
636,1778516104850,0.190255,-0.14171559,-0.24251415,2.091182725,0.7531968325,-3.2175035999999997
637,1778516104860,0.21989088,-0.1403333833333333,-0.2475957299999999,1.8699604,0.7209228,-3.0339640666666665
638,1778516104870,0.23470882,-0.13964228,-0.25013652,1.7857119,0.70448035,-2.9675834
639,1778516104880,0.2413555466666666,-0.1391951066666666,-0.2447500299999999,1.7857119,0.70448035,-2.9675834
640,1778516104890,0.254649,-0.13830076,-0.23397705,1.7546723,0.6835582124999999,-2.9463558
641,1778516104900,0.25594988,-0.1363900733333333,-0.23039961,1.5808174333333334,0.5040147333333334,-2.825048066666667
642,1778516104910,0.23074517,-0.1326297,-0.21556135,1.4461471,0.2761110865,-2.689868775
643,1778516104920,0.2307451699999999,-0.1326297,-0.21556135,1.340391,0.067500606,-2.5418103
644,1778516104930,0.2192658475,-0.136791525,-0.1765194425,1.3220268750000002,0.029016096,-2.4786621
645,1778516104940,0.28666306,-0.073540874,-0.15238695,0.9645562,0.066049806,-1.59145665
646,1778516104950,0.28666306,-0.073540874,-0.15238695,0.9106474,0.11728613,-1.5108223999999997
647,1778516104960,0.32129923,-0.012378771,-0.15933856,0.9106474,0.11728613,-1.5108224
648,1778516104970,0.301999315,-0.0137203125,-0.1499477699999999,0.84559025,0.17340937,-1.4552337
649,1778516104980,0.0991317953333333,-0.0138625973333333,-0.092566376,0.7470882,0.32910365,-1.2886202
650,1778516104990,-0.095493376,-0.05079565,-0.12122658,0.73471815,0.076549050875,-1.207756925
651,1778516105000,-0.095493376,-0.05079565,-0.12122658,0.7305948,-0.0076358155,-1.1808025
652,1778516105010,-0.315734899,-0.08351097,-0.1507862375,0.6290002875,-0.388815728875,-1.02949885
653,1778516105020,-0.44283074,-0.10171325,-0.15196009,0.3399465,-0.99280876,-0.6047566
654,1778516105030,-0.49707167,-0.11427496,-0.12104365,0.3399465,-0.99280876,-0.6047566
655,1778516105040,-0.5513126,-0.12683667,-0.09012721,0.20715967,-1.17309038,-0.325362105
656,1778516105050,,,,,,
657,1778516105060,,,,,,
658,1778516105070,1.55277355,0.391943605,-0.179400705,-0.8535315,-0.92255926,4.6218066
659,1778516105080,1.7528461,0.51131034,-0.20238985,-0.86269445,-0.98150773,4.40082595
660,1778516105090,1.7768719,0.55405673,-0.214235055,-0.90408055,-1.01773965,4.044882275
661,1778516105100,1.861206,0.8024249,-0.29513916,-1.0920234333333332,-0.8871290333333334,3.4461962333333336
662,1778516105110,1.861206,0.8024249,-0.29513916,-1.37158335,-0.70589295,2.91619435
663,1778516105120,1.861206,0.8024249,-0.29513916,-1.6626225,-0.5369505,2.4889705
664,1778516105130,1.858929533333333,0.8318168333333333,-0.3028632066666667,-1.6626225,-0.5369505,2.4889705
665,1778516105140,1.8577913,0.8465128,-0.30672523,-1.6626225,-0.5369505,2.4889705
666,1778516105150,1.8577913,0.8465127999999998,-0.30672523,-1.6626225,-0.5369505,2.4889705
667,1778516105160,1.860916525,0.8417869099999999,-0.28311104,-2.0878992,-0.36812265,1.91811685
668,1778516105170,1.8702922,0.82760924,-0.21226847,-2.284063325,-0.2737821625,1.633071825
669,1778516105180,1.8674871,0.7341892,-0.03872177,-2.447279,-0.15958855,1.3487903999999995
670,1778516105190,2.2184222,0.523933,0.18897444,-2.2840252,-0.41325033,0.6742425
671,1778516105200,2.2837512,0.4943784333333333,0.2237325599999999,-2.116444466666666,-0.5160284066666666,0.4542292056666666
672,1778516105210,2.3836757,0.44813593,0.27025967,-1.7343228,-0.69272118,-0.0344375315
673,1778516105220,2.4436181666666665,0.6172311433333334,0.3387799433333333,-1.6122261333333334,-0.4976006466666667,-0.0644462866666666
674,1778516105230,2.6341476000000004,0.778673475,0.4006788525,-1.5099062,-0.30100384,-0.18493946
675,1778516105240,2.6886325,0.8037664000000001,0.41508517,-1.5099062000000003,-0.30100384,-0.1849394599999999
676,1778516105250,2.74203505,0.8199868575,0.42421681,-1.461113325,-0.1744020225,-0.37369682
677,1778516105260,2.9022427,0.8686482300000001,0.45161173,-1.3147347,0.2054034299999999,-0.9399689
678,1778516105270,2.920048575,0.8758590225,0.4528008225,-1.3761267,0.0424169535,-0.6729826250000001
679,1778516105280,2.9734661999999994,0.8974914000000002,0.4563681,-1.3965907,-0.0119118719999999,-0.5839872
680,1778516105290,2.961529525,0.8941375500000001,0.4480444425,-1.334931475,0.159932171,-0.914923425
681,1778516105300,2.6513437,0.771386495,0.4125240525,-1.11173655,0.760221825,-2.106950525
682,1778516105310,2.3549545,0.6543065,0.42453694,-0.83016586,1.0955868,-2.8275425
683,1778516105320,2.101708,0.5601546,0.43837923,-0.83016586,1.0955868,-2.8275425
684,1778516105330,1.9129164,0.48368677,0.44033056,-0.717346695,1.138118325,-2.8133017
685,1778516105340,1.8355136,0.4517336966666667,0.4367124533333333,-0.50976706,1.2108877,-2.7794368000000005
686,1778516105350,1.7968122,0.43575716,0.4349034,-0.50976706,1.2108877,-2.7794368
687,1778516105360,1.5236255000000003,0.42648828,0.3972183,-0.08307768,1.2064588,-2.7608054
688,1778516105370,1.5236255,0.42648828,0.3972183,-0.08307768,1.2064588,-2.7608054
689,1778516105380,1.41903095,0.45571257,0.35418225,0.1006400475,1.129604425,-2.775695225
690,1778516105390,1.3349559,0.4985047,0.29934675,0.2677117,1.0010555,-2.7757716
691,1778516105400,1.3207326,0.5562214975,0.2749703175,0.405423625,0.8479191575,-2.8804587
692,1778516105410,1.3178818,0.58570486,0.27025968,0.47540587,0.78969604,-2.9675834
693,1778516105420,1.3178818,0.58570486,0.27025968,0.47540587,0.78969604,-2.9675834
694,1778516105430,1.31568655,0.5793020799999999,0.27657102,0.5615760525,0.9424505275,-3.2637003
695,1778516105440,1.3004824,0.5503573333333334,0.28845179,0.61941737,1.0571023,-3.4623842
696,1778516105450,1.1631471,0.3528559599999999,0.29933148,0.7987826849999999,1.32214145,-3.77216935
697,1778516105460,1.0750017,0.24519724,0.295627,1.0579168,1.6258178333333333,-4.137899566666667
698,1778516105470,1.032819375,0.2176041625,0.28966629,1.2174544,1.7030923,-4.2497897
699,1778516105480,0.70248,0.03439225,0.22592781,1.2174544,1.7030923,-4.2497897
700,1778516105490,0.70248,0.03439225,0.22592781,1.305075375,1.703703175,-4.268917275
701,1778516105500,0.70248,0.03439225,0.22592781,1.5679383,1.7055358,-4.3263
702,1778516105510,0.5434463325,-0.0244678915,0.1665950875,1.8434004,1.5860734,-4.309692225
703,1778516105520,0.42709813,-0.04835648,0.1062867,2.16910605,1.30801525,-4.1842358
704,1778516105530,0.4083978233333333,-0.0268105066666666,0.0254689693333333,2.302300133333333,1.1166108,-4.064493533333334
705,1778516105540,0.52521354,0.01597654,-0.13945936,2.2012529,0.6600780749999999,-3.60456315
706,1778516105550,0.52521354,0.01597654,-0.13945936,1.960572,0.6818783,-3.551876
707,1778516105560,0.67738709,0.021982989,-0.109396627,1.875585375,0.7405595500000001,-3.6341901
708,1778516105570,0.82956064,0.0279894379999999,-0.079333894,1.6206255,0.9166033,-3.8811324
709,1778516105580,-0.03591673,-0.5321042,-0.2598932,0.33059262625,-0.11587349875,2.5786149249999997
710,1778516105590,0.01626111,-0.5475522533333333,-0.2372089566666666,-0.0942259649999999,-0.027947085,3.1720705
711,1778516105600,0.12061679,-0.57844836,-0.19184047,-0.63174919125,0.26858980875,3.88017785
712,1778516105610,0.12061679,-0.57844836,-0.19184047,-1.1517864,0.47158796,4.7693305
713,1778516105620,0.57106996,-0.59765685,-0.013415418,-1.274723,0.3730859499999999,5.2290063
714,1778516105630,0.57106996,-0.59765685,-0.013415418,-1.274723,0.37308595,5.2290063
715,1778516105640,0.66430706,-0.58588785,-0.007622396,-1.274723,0.3730859499999999,5.2290063
716,1778516105650,0.66430706,-0.58588785,-0.007622396,-1.274723,0.37308595,5.2290063
717,1778516105660,0.66430706,-0.58588785,-0.007622396,-1.34481975,0.2365193914999999,5.528864824999999
718,1778516105670,0.7521170599999999,-0.56133355,-0.0104680906666666,-1.4217888,0.073303826,5.785657400000001
719,1778516105680,0.94298184,-0.51057856,0.004024625,-1.53907495,-0.025656342,6.0136628
720,1778516105690,1.0638425,-0.4781986199999999,0.016647313,-1.6048957,-0.08246681,6.1436243
721,1778516105700,1.3823367,-0.3310559,0.047990605,-1.608102775,-0.07624362,6.1253747999999995
722,1778516105710,1.5618594,-0.2209885,0.04853942,-1.617724,-0.05757405,6.0706263
723,1778516105720,1.5714737666666665,-0.0913264633333333,0.0093298133333333,-1.6237816333333337,0.1315905526666666,5.2350641
724,1778516105730,1.1938196,0.3754487425,0.1153573424999999,-1.872072875,0.5835290125,3.3049337
725,1778516105740,1.0615253,0.44459912,0.17683959,-1.9488128,0.68508536,2.8008173
726,1778516105750,1.339941,0.7416743725,0.58078084,-0.96436532,-0.1069396074999999,2.800015475
727,1778516105760,1.72003945,1.141194625,0.120494835,-0.63621616,-0.37094793,2.7997482
728,1778516105770,1.7540658,1.3147718,-0.5137495,-0.63621616,-0.37094793,2.7997482
729,1778516105780,1.7540658,1.3147718,-0.5137495,-0.63621616,-0.37094793,2.7997482
730,1778516105790,1.8995214666666669,1.3860768,-0.333169854,-1.7268142533333333,-0.41564289,1.50949896
731,1778516105800,2.5061372,1.529647175,0.4104660095,-2.797075625,-0.3562871425,0.70848915
732,1778516105810,2.611372,1.5299673,0.5379582,-3.0234776,-0.3587306,0.56153786
733,1778516105820,2.70363345,1.48511715,0.646287675,-2.6791023000000003,-0.4793765,0.2823724513
734,1778516105830,2.5377089666666666,1.3674171333333334,0.4245979166666666,-0.16722436,-0.7991645000000002,-1.6360499
735,1778516105840,2.408616,1.3309922,0.2595883,-0.16722436,-0.7991645,-1.6360499
736,1778516105850,2.3145252,1.26234495,0.19318199375,-0.2103667149999999,-0.51954091,-2.1126011
737,1778516105860,2.1786637,1.1606774,0.15354554,-0.25350907,-0.23991732,-2.5891523
738,1778516105870,2.1310085,1.1478413,0.192755155,-0.4446717175,-0.1242347204999999,-2.713081625
739,1778516105880,1.9467803,1.0730301333333334,0.2778210766666666,-0.78801614,0.113926366,-3.1059444
740,1778516105890,1.8085201,1.0016438,0.30111513,-0.84070327,0.226860083,-3.28301895
741,1778516105900,1.72799715,0.97145913,0.3089814349999999,-0.90430962,0.4229478249999999,-3.5576029
742,1778516105910,1.3995939999999998,0.8118766000000001,0.3325804,-0.91522884,0.50610185,-3.6551123
743,1778516105920,1.399594,0.8118766,0.3325804,-0.8912524,0.70081514,-3.815617
744,1778516105930,1.3995939999999998,0.8118766000000001,0.3325804,-0.8912524,0.70081514,-3.815617
745,1778516105940,1.399594,0.8118766,0.3325804,-0.8912524,0.70081514,-3.815617
746,1778516105950,1.399594,0.8118766,0.3325804,-0.8912524,0.70081514,-3.815617
747,1778516105960,1.399594,0.8118766,0.3325804,-0.8912524,0.70081514,-3.815617
748,1778516105970,1.1312855,0.6068037,0.34550798,-0.7432703,0.9456194,-3.8806741
749,1778516105980,1.1312855,0.6068037,0.34550798,-0.331648925,1.0185668466666666,-3.901290866666667
750,1778516105990,0.2252570599999999,-0.1220193133333333,-0.11362452,1.9361374,-0.052381694,-3.2183435
751,1778516106000,0.1400234125,-0.192069135,-0.2333367875,2.17804,-0.6267477,-3.1390839
752,1778516106010,0.10787215,-0.2046460799999999,-0.2619665,2.17804,-0.6267477,-3.1390839000000006
753,1778516106020,-0.024757542,-0.25300255,-0.06500379,1.3298536,-0.4900666299999999,-2.1852177
754,1778516106030,-0.47149092,-0.34404445,0.06445498,0.625831425,-0.565126675,1.326990225
755,1778516106040,0.4961264933333333,-0.4262037299999999,0.1566961333333333,-1.9570086,1.0200431333333333,4.723057533333333
756,1778516106050,1.390325,-0.346270225,0.0786631315,-1.9814942,0.044745877,6.0138154
757,1778516106060,1.4399620000000002,-0.33038515,0.029270003,-1.9814942,0.044745877,6.013815400000001
758,1778516106070,1.4572191,-0.3029750075,0.05228963725,-2.06667165,0.09918924025,6.0813924
759,1778516106080,1.520739133333333,-0.13915446,0.2134677333333333,-2.322204,0.26251933,6.284123400000001
760,1778516106090,1.544023025,-0.06790030525,0.2689333675,-2.33766675,0.357928855,6.3125286
761,1778516106100,1.5962516,0.023476979,0.29715148,-2.2725713,0.48548517,6.2738914
762,1778516106110,1.7390648666666666,0.1906818596666666,0.2653610133333333,-2.2473223,0.58699059,6.092464466666667
763,1778516106120,1.8104715,0.2742843,0.24946578,-2.28860665,0.716774,5.7999363
764,1778516106130,1.9646268333333332,0.4343546066666666,0.1607817333333333,-2.4080307666666667,0.8512916333333335,5.378973733333333
765,1778516106140,1.9652367,0.5003341,0.17525412,-2.50500565,0.90224797,4.66281075
766,1778516106150,1.8630203,0.64979402,0.4465352225,-2.47095,0.84223044,4.3849435
767,1778516106160,1.8005927999999998,0.7427872399999998,0.620707,-2.3671538,0.7679085133333334,4.289546666666667
768,1778516106170,1.75455355,0.85684877,0.67074038,-1.4772249,0.23144158,3.7912587
769,1778516106180,1.7085143,0.9709103,0.72077376,0.07498371,-0.57726765,3.1784847
770,1778516106190,1.7085143,0.9709103,0.72077376,0.2758438325,-0.6614143375,3.0948342749999997
771,1778516106200,1.8429124666666663,1.0760180333333331,0.4559209066666667,0.46838091,-0.8804095333333333,1.9934059133333333
772,1778516106210,2.0282283,1.1953746,0.19049892,-0.35170567,-0.8135198,0.29245174
773,1778516106220,2.0282283,1.1953746,0.19049892,-2.4659102,0.08674286,-0.86544335
774,1778516106230,2.0282283,1.1953746,0.19049892,-2.432503525,0.1102229925,-1.0139599375
775,1778516106240,2.3566213,1.2757045333333334,0.53153504,-2.143475233333333,0.17715092,-1.5690582333333332
776,1778516106250,2.448633625,1.098707425,0.26425322,0.5112942,-0.320780615,-3.5581373000000003
777,1778516106260,2.3412950749999997,1.039511885,0.1649486425,0.26725355,-0.20830505,-3.7953057
778,1778516106270,1.6316602,0.63257756,0.3248563633333333,-0.2029090633333333,0.6368269833333334,-3.9830452333333337
779,1778516106280,1.11773286,0.308310665,0.316055037,0.21162661,0.92576625,-4.1937809
780,1778516106290,0.40386504,-0.1934869,0.056649648,1.8724546,0.5102252,-4.4730606
781,1778516106300,0.32849479,-0.209829315,0.0417097509999999,1.9328539,0.4513912375,-4.4524058
782,1778516106310,0.25312454,-0.22617173,0.026769854,2.1140518,0.27488935,-4.3904414
783,1778516106320,0.25312454,-0.22617173,0.026769854,2.1140518,0.27488935,-4.3904414
784,1778516106330,0.05876867125,-0.3541365275,-0.130769821,2.409787,-0.03653738,-3.519385625
785,1778516106340,0.05512517,-0.3690459,-0.1842790399999999,2.3800838,-0.06429356,-3.1497738
786,1778516106350,0.05512517,-0.3690459,-0.18427904,2.3800838,-0.06429356,-3.1497738
787,1778516106360,-0.18578319,-0.4277485199999999,-0.097444708,0.91853772,0.8910487666666667,-2.519361
788,1778516106370,-0.622643035,-0.513307375,-0.06161944975,1.23944557,0.43073635,-2.0812179
789,1778516106380,-1.1013040666666667,-0.4977729333333333,-0.189848475,2.1474967,-0.9036224,-0.7699956
790,1778516106390,-1.1251266,-0.4549046,-0.23348923,2.1244366,-1.3669637,0.7470882
791,1778516106400,1.0549395333333331,-0.38555096,-0.037014358,0.8300131333333335,-0.9231701,2.9968540000000004
792,1778516106410,2.259278,0.58747333,0.67131966,-1.0630583,0.15515977,6.194937
793,1778516106420,2.259278,0.58747333,0.67131966,-1.0630583,0.15515977,6.194937
794,1778516106430,2.20244555,0.749083355,0.8916984050000001,-0.58505622,0.1803579599999999,6.21738635
795,1778516106440,2.2212882,1.0455488,1.1728734,1.6937766,0.10980303,6.3719354
796,1778516106450,2.2212882,1.0455488,1.1728734,3.3115004999999997,-0.182496,6.0675716
797,1778516106460,2.8983552,1.265241525,0.364198115,3.3115005,-0.182496,6.0675716
798,1778516106470,3.3156815,1.4060577,-0.15433827,3.3115004999999997,-0.182496,6.0675716
799,1778516106480,3.3156815,1.4060577,-0.15433827,3.4298556,-0.9460775,3.6344955
800,1778516106490,3.2604647,1.5806105,-0.692083035,3.4298556,-0.9460775,3.6344955
801,1778516106500,2.9309026999999994,1.5649084,-1.130127,3.4298556,-0.9460775,3.6344955
802,1778516106510,2.7783328,1.237389275,-0.65096790375,-0.0579558500000001,-0.01977675,1.34146008
803,1778516106520,2.543014,0.819316,0.080065645,-3.5457673,0.906524,-0.95157534
804,1778516106530,2.3949568,0.78992414,0.82913375,-1.5090407666666668,0.6043493333333333,-1.8877263133333333
805,1778516106540,2.2267153,0.8598063,0.31843323,0.3801109,0.0627664,-3.0088167
806,1778516106550,2.2267153,0.8598063000000001,0.31843323,0.3801109,0.0627664,-3.0088167
807,1778516106560,2.1153369,0.875264525,0.269344995,0.3286836824999999,-0.017676915,-3.050088275
808,1778516106570,2.0039585,0.89072275,0.22025676,0.17440203,-0.25900686,-3.173903
809,1778516106580,1.8908421333333332,0.8490943,0.25491325,0.17440203,-0.25900686,-3.1739030000000006
810,1778516106590,1.624180125,0.7258197625,0.4112130075,-0.4674646425,0.728189535,-3.20505725
811,1778516106600,1.6107037,0.71248055,0.4402086,-0.6814202000000001,1.057255,-3.215442
812,1778516106610,1.6107037,0.71248055,0.4402086,-0.63583435,1.13086425,-3.2404110499999996
813,1778516106620,1.4166679999999998,0.5722691599999999,0.4703932866666667,-0.1477275533333333,1.2899946333333334,-3.388011333333333
814,1778516106630,1.0297094325,0.27922361,0.416899315,1.03889096,1.3942617,-3.71058635
815,1778516106640,0.94365263,0.19123067,0.3577647799999999,1.1394165,1.3720033,-3.7363572
816,1778516106650,0.94365263,0.19123067,0.35776478,1.5477798,1.2705997,-3.923893
817,1778516106660,0.46545397,-0.0579607035,0.13394073675,2.3475552,1.0001391,-4.285983
818,1778516106670,0.18324239,-0.17744938,-0.0001626113333333,2.5576928,0.89934635,-4.057825
819,1778516106680,0.11665315,-0.2189152,-0.031709168,2.56158695,0.8498662625,-3.953939875
820,1778516106690,0.0974650383333333,-0.2471079066666666,-0.0321766746666666,2.562885,0.8333729,-3.919311500000001
821,1778516106700,0.059088815,-0.30349332,-0.033111688,2.60262945,0.778509575,-3.843029675
822,1778516106710,0.0275829103333333,-0.4013039066666666,-0.0228265353333333,2.6158776,0.7602218,-3.8176024
823,1778516106720,-0.1789891075,-0.6069408924999999,-0.1314405995,2.52321705,0.64087401,-3.912248325
824,1778516106730,-0.62302417,-0.8552938,-0.3533133,1.310764075,0.34616969,-3.3004668
825,1778516106740,-0.68542618,-0.8450086666666667,-0.3093879733333333,1.0266099333333334,0.37715838,-2.920394033333333
826,1778516106750,-0.8102302,-0.8244384,-0.22153732,0.6217080875000001,0.506369115,-2.268562575
827,1778516106760,-0.8102302,-0.8244384,-0.22153732,0.3486513500000001,0.66523224,-1.7461584
828,1778516106770,-0.661120915,-0.7908693124999999,-0.09477687,0.30631075,0.707191055,-1.6302467
829,1778516106780,-0.3683141633333333,-0.7545359,0.11210004,0.2164499133333333,0.8778133666666667,-1.05496429
830,1778516106790,-0.28041269,-0.745851475,0.173531465,0.29077184,0.9673051,-0.59986967
831,1778516106800,-0.2223300499999999,-0.7579711000000001,0.2245253,0.29077184,0.9673051,-0.59986967
832,1778516106810,-0.22233005,-0.7579711,0.2245253,0.8744536,0.7713701,-0.29168814
833,1778516106820,-0.2223300499999999,-0.7579711000000001,0.2245253,0.8744536000000002,0.7713701,-0.29168814
834,1778516106830,-0.3105669,-0.78766793,0.19958481,1.3938417,0.54534996,-0.004276057
835,1778516106840,-0.34920736,-0.8008394533333334,0.1752541266666666,1.3938417,0.54534996,-0.004276057
836,1778516106850,-0.42648828,-0.8271825,0.12659276,1.671709125,0.3808744875,0.30772336325
837,1778516106860,-0.48576006,-0.872185,0.015732625,2.0248656,0.065515295,0.97524637
838,1778516106870,-0.51637158,-0.882399025,-0.04600878,2.0654118,-0.0512363225,1.4423291850000002
839,1778516106880,-0.5469831,-0.89261305,-0.107750185,2.105958,-0.16798794,1.909412
840,1778516106890,-0.5016756,-0.7963879,-0.31422567,1.8469511,-0.2079996199999999,3.094185
841,1778516106900,0.6486354,-0.5483247,-0.65028185,1.8469511,-0.20799962,3.094185
842,1778516106910,0.6486354,-0.5483247,-0.65028185,1.8469511,-0.2079996199999999,3.094185
843,1778516106920,0.6486354,-0.5483247,-0.65028185,1.8469511,-0.20799962,3.094185
844,1778516106930,1.6566057500000002,-0.406883495,-0.026571675,-3.659884575,-0.0381409,6.49609385
845,1778516106940,2.6300314333333334,-0.267088752,0.6424968366666667,-4.216192,-0.7994189733333333,7.1357206333333325
846,1778516106950,2.5032252,0.276083182,0.754220845,-2.8159742750000003,-1.08417125,5.9964823
847,1778516106960,2.3133462666666667,0.9143419666666668,0.9773537666666666,-1.0545570599999998,-1.1840605,4.663192666666666
848,1778516106970,2.3958714,0.9738983,1.009815,-0.77457714,-1.2356277,4.489096
849,1778516106980,2.3958714,0.9738983,1.009815,-0.77457714,-1.2356277,4.489096
850,1778516106990,2.5176163999999996,1.0836608,0.986978335,-0.4846452175,-1.2752194,4.205998125
851,1778516107000,2.598291775,1.271812025,0.7967995925,0.38515055,-1.3939945,3.3567045
852,1778516107010,1.8720604666666667,0.5932866333333333,-0.01491957,-0.30176744,0.8402451000000001,-2.0459404
853,1778516107020,2.033883925,0.430589155,0.03427029,-0.55176403,1.1375838,-2.3016638250000003
854,1778516107030,2.1114037,0.35325232,0.08878566,-0.6762278,1.4440855,-2.6241243
855,1778516107040,2.1190566,0.354167,0.259466355,-0.05955936,0.75709112,-2.83861445
856,1778516107050,2.1267095,0.35508168,0.43014705,0.4845688433333333,0.0413352133333333,-2.944930533333333
857,1778516107060,2.163744166666667,0.3866282533333333,0.4365295366666666,0.6574437,-0.1872302,-2.976441
858,1778516107070,,,,,,
859,1778516107080,,,,,,
860,1778516107090,0.023172084,-0.31221333,0.11323831,2.4576635,0.09239337,-2.7038424
861,1778516107100,1.5884462666666668,0.6434318333333333,0.3094895833333333,0.1300124866666666,-0.2832378533333333,3.6311867
862,1778516107110,1.5938735,0.9934116,-0.16086306,-0.2657264,-0.43249258,3.4225252000000004
863,1778516107120,1.766429225,1.1015277,-0.10547872125,-0.57803124,-0.61850107,3.1538973
864,1778516107130,2.0803041,1.1491524,0.06841862,-0.7198537799999999,-0.7568620433333333,2.740036033333334
865,1778516107140,2.0803041,1.1491524,0.06841862,-0.79076505,-0.82604253,2.5331054
866,1778516107150,2.2143366,1.1252486,0.1326297,-0.8450556825,-0.8226063825000001,2.100040175
867,1778516107160,2.2505785333333335,1.1360825666666663,0.14691915,-0.8989899933333333,-0.7479535666666667,1.6500997666666668
868,1778516107170,2.2920545,1.1857704,0.17766281,-1.21928705,-0.144545992,0.43951754
869,1778516107180,2.1514060666666666,1.270744833333333,0.1701115566666666,-1.382439,0.146658564,0.2430734666666666
870,1778516107190,2.091555025,1.3086434,0.1852852075,-1.5117388,0.29794952,0.15928312
871,1778516107200,2.3315384,1.5018559,0.42429304,-1.3836097999999997,0.007788532,-0.1039998099999999
872,1778516107210,2.3315384,1.5018559,0.42429304,-1.3836098,0.007788532,-0.10399981
873,1778516107220,2.418637,1.2442798333333334,0.6828040466666666,0.482990783,-0.4730133299999999,-1.0451904666666667
874,1778516107230,2.4929961,1.1580859,0.536250825,0.7627416300000001,-0.15401441,-1.3629931
875,1778516107240,2.4214218,1.0558543,0.48722354,0.790650525,0.02703078,-1.670869175
876,1778516107250,2.3601377333333335,1.0412193,0.4768774033333333,0.8173377,0.2501493,-2.1615467
877,1778516107260,2.211485775,1.00784845,0.44792246,0.874148175,0.2693915625,-2.41788095
878,1778516107270,2.1332343,0.9955459,0.42313445,0.893085,0.27580565,-2.5033257
879,1778516107280,2.1332343,0.9955459,0.42313445,0.893085,0.27580565,-2.5033257
880,1778516107290,2.1332343,0.9955459,0.42313445,0.91782502,0.2026036366666666,-2.614910566666667
881,1778516107300,2.02273995,0.98168842,0.4003587125,0.9103801275,0.0818177625,-2.795090425
882,1778516107310,1.8659016,0.9604219,0.38349798,0.8043568,0.06719518,-2.9034426
883,1778516107320,1.8659016,0.9604219,0.38349798,0.8043568,0.06719518,-2.9034426
884,1778516107330,1.8409916,0.9563363,0.4002977425,0.624762445,0.20761783,-2.928182625
885,1778516107340,1.7662616,0.9440795,0.45069703,0.56489766,0.25442538,-2.9364293
886,1778516107350,1.76147475,0.9405579575,0.4607738375,0.54340283,0.2913063724999999,-2.94272885
887,1778516107360,1.71638065,0.882551515,0.60177293,0.54794612,0.712879725,-3.0754011
888,1778516107370,1.6856471,0.8351097,0.7125416000000001,0.6169739,1.0238101,-3.1891747
889,1778516107380,1.6856471,0.8351097,0.7125416,0.6169739,1.0238101,-3.1891747
890,1778516107390,1.6054748,0.7864483499999999,0.73545455,0.8190175749999999,1.21814165,-3.304246425
891,1778516107400,1.5787506999999998,0.7702279,0.7430922,1.0613784,1.4068227,-3.450014
892,1778516107410,1.5787507,0.7702279,0.7430922,1.0613784,1.4068227,-3.450014
893,1778516107420,1.4247172666666668,0.6649778333333333,0.6977236433333333,1.1971432,1.4940746,-3.5491779
894,1778516107430,1.015958675,0.3575208525,0.587488525,1.73554455,2.177925375,-3.8813996
895,1778516107440,0.822609,0.22598879,0.553142,1.8245018,2.3477077,-3.9260309
896,1778516107450,0.822609,0.22598879,0.553142,1.8245018,2.3477077,-3.9260309
897,1778516107460,0.67456682,0.1625552215,0.501248775,1.8616118,2.478623875,-3.863493575
898,1778516107470,0.479967,0.096895896,0.4180122,1.8509726,2.7638597333333332,-3.4118859333333336
899,1778516107480,0.46720713,0.1128571965,0.390983175,1.839468,2.8846583,-3.196505
900,1778516107490,0.6240201466666667,0.1987107833333333,0.35652486,1.580155666666667,2.9345456333333337,-2.9080748
901,1778516107500,0.7045533,0.23897736,0.34380054,1.3579534,2.9742264499999997,-2.7617217
902,1778516107510,0.76974,0.24281906,0.41081664,1.2654073,2.9889636,-2.7595837
903,1778516107520,0.76974,0.24281906,0.41081664,1.146975775,3.08448765,-2.8417069
904,1778516107530,0.7484786333333333,0.0179685266666666,0.8920845333333333,1.4632768,3.3442327000000005,-3.2384512
905,1778516107540,0.7046143,-0.10781116,1.0395728,1.6111571,3.3790011,-3.3084462
906,1778516107550,0.61994472,-0.3140732,1.1772029000000002,1.9045251,3.3967162,-3.3729688
907,1778516107560,0.59064424,-0.374656,1.200558,2.1978931,3.4144313,-3.4374914000000003
908,1778516107570,0.565490335,-0.43566568,1.1824014,3.324061475,3.3829335,-3.5199201249999996
909,1778516107580,0.5312505333333334,-0.5007406099999999,1.1133170666666663,3.8793506,3.321172433333333,-3.4924693333333336
910,1778516107590,0.463761835,-0.6590475875,0.8606600225,5.1590624,3.1238122,-3.4028249
911,1778516107600,0.39597838,-0.7430108,0.7154889433333333,5.602499566666666,3.009478533333333,-3.4243069666666663
912,1778516107610,0.1019266789999999,-0.80913255,0.463014785,6.017175,2.859002,-3.438866
913,1778516107620,-0.0801062946666666,-0.8280564,0.3003427186666667,6.123058333333333,2.734690933333334,-3.411784266666667
914,1778516107630,-0.2566613,-0.8562694,0.119397216,6.167601,2.1586452,-3.2432363
915,1778516107640,-0.3859675999999999,-0.8426405699999999,0.0028050479999999,5.848424,1.8761199,-3.0317242
916,1778516107650,-0.75595874,-0.74162865,-0.30288354,5.848423999999999,1.8761199,-3.0317242000000006
917,1778516107660,-0.82721291,-0.6715178625,-0.365448135,5.084079,1.6551393,-2.4839308
918,1778516107670,-0.8486877666666667,-0.6189182266666666,-0.3780911533333333,3.8932988666666666,1.7966565,-1.6324864666666663
919,1778516107680,-0.769069275,-0.5800185849999999,-0.2910688074999999,3.2979088,1.8674151,-1.2067643
920,1778516107690,-0.7429092,-0.5719236,-0.26343,3.2979088,1.8674151,-1.2067643
921,1778516107700,-0.7429092,-0.5719236,-0.26343,1.6743434499999998,2.57937855,-0.0871628374999999
922,1778516107710,-0.5903698175000001,-0.6353572000000001,-0.1204795905,-0.0472657025,3.490751175,1.3713924625
923,1778516107720,-0.39697438,-0.7229690333333334,-0.0136999861666666,-0.9200648566666666,3.834910133333333,2.507194533333333
924,1778516107730,-0.0497742474999999,-0.8035682375000001,0.005472880275,-1.8997909,3.743802225,4.296597075
925,1778516107740,0.3517888233333333,-0.79687575,0.0582960823333333,-2.4404067333333335,3.3436727000000004,5.310404166666667
926,1778516107750,0.53966564,-0.7751062,0.102384016,-2.7708848,2.8906143,5.9261565
927,1778516107760,0.5798305866666666,-0.7650243066666667,0.1814130186666666,-2.7708847999999997,2.8906143000000006,5.9261565
928,1778516107770,0.59991306,-0.75998336,0.22092752,-2.935131125,1.898378275,6.816912475
929,1778516107780,0.614731,-0.7192493,0.36130157,-2.9356656,1.7809776,6.9366803
930,1778516107790,0.7061997250000001,-0.6817928375,0.524664755,-2.7821858,1.3119859,7.6509347
931,1778516107800,0.79027475,-0.6667767124999999,0.61645365,-2.560097975,1.117272475,8.146880675
932,1778516107810,1.2178353,-0.6191824666666667,0.8396424499999999,-2.2821417,1.0290534,8.585863333333334
933,1778516107820,1.649974325,-0.51434403,0.992695125,-1.7797558999999998,1.090012675,8.882935250000001
934,1778516107830,2.089420775,-0.2708999549999999,1.08166375,-0.3490331204999999,0.7679721500000001,8.669132750000001
935,1778516107840,2.9595833,0.3912829733333333,1.0271737333333333,1.928807,0.1085813,7.048010299999999
936,1778516107850,3.493237425,1.1098666,0.7632915,2.930244225,0.00595594,2.508785325
937,1778516107860,2.8269943000000004,1.0704486466666667,0.4710234293333333,3.170492433333333,-0.0525853123333333,-0.31230485
938,1778516107870,1.3486153,0.70790714,0.047746688,2.2989914,0.65087694,-0.33001995
939,1778516107880,1.2736921666666667,0.6513184933333332,0.0998635493333333,1.8817704,1.2921327,0.35979962
940,1778516107890,1.2744798,0.6443821275,0.145603005,1.8817704,1.2921327,0.35979962
941,1778516107900,1.3892274,0.708456,0.2046460799999999,1.8817704,1.2921327,0.35979962
942,1778516107910,1.3892274,0.708456,0.20464608,1.64051685,1.700763375,1.3319916125
943,1778516107920,1.7779695999999998,0.8889543,0.2300744,1.6358971999999998,1.702176,1.4575243999999998
944,1778516107930,2.62115895,1.143618525,0.2878064325,1.856992125,1.009492985,1.08012426
945,1778516107940,3.0403602,1.2747085,0.34813008,2.1265745,0.43569964,0.48640144
946,1778516107950,3.15300405,1.291264375,0.39391017,2.382069,0.102319926,-0.07666359
947,1778516107960,3.190552,1.296783,0.4091702,2.5414539333333335,-0.0162897393333333,-0.4368195266666666
948,1778516107970,3.0819481,1.260485175,0.4263968174999999,2.97216485,-0.2613739625,-1.289040125
949,1778516107980,2.6128761333333332,1.1272813,0.40799129,3.437593266666666,-0.25971954,-1.7654005666666668
950,1778516107990,2.5251778500000004,1.1059792,0.25114271,3.5023959,-0.24709499,-1.8057177
951,1778516108000,2.513825466666667,1.1017106666666667,0.0573204216666666,3.4944546333333335,-0.1797980099999999,-1.8905261666666664
952,1778516108010,2.523257,1.1114674,-0.086712375,3.3437236500000003,-0.057497696,-2.0471622
953,1778516108020,2.537404233333333,1.2094609,-0.1175475083333333,2.3742296333333335,0.1972585626666666,-2.5406904333333333
954,1778516108030,2.5620399,1.317272,-0.04170975,1.270370625,0.09304241225,-3.245450675
955,1778516108040,2.526346633333333,1.3318663333333334,0.2120042366666666,1.1470522,0.038026363,-3.3672419
956,1778516108050,2.3151960000000003,1.2161075499999998,0.607230545,0.9673815125,0.0126754544999999,-3.96558455
957,1778516108060,1.0091645566666667,0.0583367366666666,0.7486209133333332,3.1566463,0.784351,-4.840649
958,1778516108070,0.83980507,-0.09000525,0.59857154,3.41511865,0.78022765,-4.861953
959,1778516108080,0.7823627025000001,-0.135023125,0.54698316,3.74513855,0.775493435,-4.870314175000001
960,1778516108090,0.3188194066666667,-0.4102272066666666,0.1527731366666666,3.814344466666667,0.7149159666666667,-4.604091333333333
961,1778516108100,0.18253098,-0.4603114066666666,0.1647250633333333,3.4170275,0.5682574,-4.457331
962,1778516108110,0.186931635,-0.4966295999999999,0.2457917825,3.1280500250000003,0.5830327,-4.46489025
963,1778516108120,0.19940189,-0.64162284,0.37447307,2.9680414,0.77503526,-4.6265407
964,1778516108130,0.1798275699999999,-0.7558368,0.4130728799999999,3.0338624,1.0250319,-4.7610836
965,1778516108140,0.16196067,-0.7759802433333333,0.4051455933333333,3.0338624,1.0250319,-4.7610836
966,1778516108150,0.12622687,-0.81626713,0.38929102,3.0753247999999997,1.156597,-4.7904053
967,1778516108160,0.12622687,-0.81626713,0.38929102,3.1167872,1.2881621,-4.819727
968,1778516108170,,,,,,
969,1778516108180,0.12622687,-0.81626713,0.38929102,3.1167872,1.2881621,-4.819727
970,1778516108190,0.12622687,-0.81626713,0.38929102,3.1167872,1.2881621,-4.819727
971,1778516108200,-0.0222777233333333,-0.80638851,0.32481572,3.133789633333333,1.4090625,-4.7631708999999995
972,1778516108210,-0.36875628,-0.53039679,0.19714566,2.96754515,1.864513425,-4.076990925
973,1778516108220,-0.5420031866666667,-0.201536144,0.1215111533333333,2.6618452,2.023033,-3.3154711999999997
974,1778516108230,-0.52350616,-0.022501312,0.09671296,2.2913556,2.0560198,-2.670703
975,1778516108240,-0.3767140475,0.337199547,0.056558179675,2.0020344750000003,2.175596575,-2.3676373
976,1778516108250,-0.22794013,0.6728441,0.0009756667,1.26556,2.5595255,-2.0187569
977,1778516108260,-0.1557408,0.94139636,-0.025794188,0.38881573,3.0546317,-1.9498819
978,1778516108270,-0.12244617125,0.932005595,0.0838616035,-0.166957085,3.454939325,-1.8876118
979,1778516108280,-0.081773065,0.86334306,0.29270002,-0.9758572,4.092288,-1.6745343666666666
980,1778516108290,-0.24864256125,0.72519474,0.478381565,-1.00937845,4.18469415,-1.37521035
981,1778516108300,-0.3609357,0.6494281,0.57728976,-0.9193522,4.1131086,-1.1012373
982,1778516108310,-0.37364986,0.6245943374999999,0.593845605,-0.700357,3.8363103,-0.4304309149999999
983,1778516108320,-0.41179234,0.55009305,0.64351314,-0.4813618,3.559512,0.24037547
984,1778516108330,-0.41179234,0.55009305,0.64351314,-0.4813618,3.559512,0.24037547
985,1778516108340,-0.23937373,0.4529075025,0.635555385,0.177952685,3.1430162,1.2365439500000002
986,1778516108350,-0.1819008599999999,0.42051232,0.6329028,0.46578476,2.9912543,1.5824465000000003
987,1778516108360,0.1185282575,0.1463804875,0.450407375,0.66935558,2.91504895,1.7767016
988,1778516108370,0.2438963433333333,-0.11187644,0.2092804993333333,0.9601274333333332,2.8431705,2.1857776666666666
989,1778516108380,0.23263553,-0.25660032,0.039758418,1.0419834,2.8805733,2.85491695
990,1778516108390,0.2187526033333333,-0.2927406533333333,0.0027643919999999,1.0111347,2.8901562999999997,2.9347494
991,1778516108400,0.13732508,-0.4569016425,-0.16930866,0.5608124725,2.6092346,3.902894349999999
992,1778516108410,0.12176015,-0.5852932625,-0.27548863,-0.105832405,2.1636846,5.317429
993,1778516108420,0.13689823,-0.5952786,-0.27800402,-0.105832405,2.1636846,5.317429
994,1778516108430,0.343007815,-0.5874428,-0.253063545,-0.17726545375,2.102101775,5.485836925
995,1778516108440,0.8125474266666667,-0.5208637333333334,-0.2119839166666667,-0.4749477333333333,1.7768542333333333,6.141232033333334
996,1778516108450,0.94426244,-0.4914921,-0.20391434,-0.5166393,1.7066047,6.2163177
997,1778516108460,1.050152755,-0.4547978849999999,-0.210332395,-0.5166393,1.7066047,6.2163177
998,1778516108470,1.3678237,-0.34471524,-0.22958656,-0.5166393,1.7066047,6.2163177
999,1778516108480,1.4051887,-0.32422624,-0.249831645,-0.59513545,1.4323263,5.94265
1000,1778516108490,1.5172837,-0.26275924,-0.3105669,-0.66645396,1.3213016,5.453194
