id,timestamp,acc_x,acc_y,acc_z,gyro_x,gyro_y,gyro_z
0,1778516340790,0.85279363,-0.18458393,0.47813767,0.21685717,0.28160888,0.38621956
1,1778516340800,0.9487139,-0.15452121,0.56478906,0.19211712,0.3462079,0.22327125
2,1778516340810,0.9487139,-0.15452121,0.56478906,0.19211712,0.3462079,0.22327125
3,1778516340820,0.9487139,-0.15452121,0.56478906,0.19211712,0.3462079,0.22327125
4,1778516340830,0.9487139,-0.15452121,0.56478906,0.19211712,0.3462079,0.22327125
5,1778516340840,0.9487139,-0.15452121,0.56478906,0.19211712,0.3462079,0.22327125
6,1778516340850,0.9487139,-0.15452121,0.56478906,0.19211712,0.3462079,0.22327125
7,1778516340860,0.9487139,-0.15452121,0.56478906,0.19211712,0.3462079,0.22327125
8,1778516340870,0.9487139,-0.15452121,0.56478906,0.19211712,0.3462079,0.22327125
9,1778516340880,0.9487139,-0.15452121,0.56478906,0.19211712,0.3462079,0.22327125
10,1778516340890,0.9487139,-0.15452121,0.56478906,0.19211712,0.3462079,0.22327125
11,1778516340900,0.9487139,-0.15452121,0.56478906,0.19211712,0.3462079,0.22327125
12,1778516340910,0.9487139,-0.15452121,0.56478906,0.19211712,0.3462079,0.22327125
13,1778516340920,0.9487139,-0.15452121,0.56478906,0.19211712,0.3462079,0.22327125
14,1778516340930,0.9487139,-0.15452121,0.56478906,0.19211712,0.3462079,0.22327125
15,1778516340940,0.9487139,-0.15452121,0.56478906,0.19211712,0.3462079,0.22327125
16,1778516340950,0.9487139,-0.15452121,0.56478906,0.19211712,0.3462079,0.22327125
17,1778516340960,0.9487139,-0.15452121,0.56478906,0.19211712,0.3462079,0.22327125
18,1778516340970,0.9487139,-0.15452121,0.56478906,0.19211712,0.3462079,0.22327125
19,1778516340980,0.9487139,-0.15452121,0.56478906,0.19211712,0.3462079,0.22327125
20,1778516340990,0.9487139,-0.15452121,0.56478906,0.19211712,0.3462079,0.22327125
21,1778516341000,0.9487139,-0.15452121,0.56478906,0.19211712,0.3462079,0.22327125
22,1778516341010,0.9487139,-0.15452121,0.56478906,0.19211712,0.3462079,0.22327125
23,1778516341020,0.93042013,-0.146410985,0.559118005,0.22525656,0.29520064,0.14210253
24,1778516341030,0.91212636,-0.13830076,0.55344695,0.258396,0.24419338,0.06093381
25,1778516341040,0.91212636,-0.13830076,0.55344695,0.258396,0.24419338,0.06093381
26,1778516341050,0.91212636,-0.13830076,0.55344695,0.258396,0.24419338,0.06093381
27,1778516341060,0.91212636,-0.13830076,0.55344695,0.258396,0.24419338,0.06093381
28,1778516341070,0.91212636,-0.13830076,0.55344695,0.258396,0.24419338,0.06093381
29,1778516341080,0.91212636,-0.13830076,0.55344695,0.258396,0.24419338,0.06093381
30,1778516341090,0.91212636,-0.13830076,0.55344695,0.258396,0.24419338,0.06093381
31,1778516341100,0.91212636,-0.13830076,0.55344695,0.258396,0.24419338,0.06093381
32,1778516341110,0.91212636,-0.13830076,0.55344695,0.258396,0.24419338,0.06093381
33,1778516341120,0.91212636,-0.13830076,0.55344695,0.258396,0.24419338,0.06093381
34,1778516341130,0.91212636,-0.13830076,0.55344695,0.258396,0.24419338,0.06093381
35,1778516341140,0.91212636,-0.13830076,0.55344695,0.258396,0.24419338,0.06093381
36,1778516341150,0.91212636,-0.13830076,0.55344695,0.258396,0.24419338,0.06093381
37,1778516341160,0.91212636,-0.13830076,0.55344695,0.258396,0.24419338,0.06093381
38,1778516341170,0.91212636,-0.13830076,0.55344695,0.258396,0.24419338,0.06093381
39,1778516341180,0.91212636,-0.13830076,0.55344695,0.2843577733333333,0.108784918,-0.00646499
40,1778516341190,0.91212636,-0.13830076,0.55344695,0.29733866,0.041080687,-0.04016439
41,1778516341200,0.91212636,-0.13830076,0.55344695,0.29733866,0.041080687,-0.04016439
42,1778516341210,0.91212636,-0.13830076,0.55344695,0.29733866,0.041080687,-0.04016439
43,1778516341220,0.91212636,-0.13830076,0.55344695,0.29733866,0.041080687,-0.04016439
44,1778516341230,0.91212636,-0.13830076,0.55344695,0.29733866,0.041080687,-0.04016439
45,1778516341240,0.85562918,-0.1323248,0.505059975,0.29733866,0.041080687,-0.04016439
46,1778516341250,0.799132,-0.12634884,0.456673,0.29733866,0.041080687,-0.04016439
47,1778516341260,0.7991319999999998,-0.12634884,0.456673,0.29733866,0.041080687,-0.04016439
48,1778516341270,0.799132,-0.12634884,0.456673,0.29733866,0.041080687,-0.04016439
49,1778516341280,0.799132,-0.12634884,0.456673,0.29733866,0.041080687,-0.04016439
50,1778516341290,0.799132,-0.12634884,0.456673,0.29733866,0.041080687,-0.04016439
51,1778516341300,0.7991319999999998,-0.12634884,0.456673,0.29733866,0.041080687,-0.04016439
52,1778516341310,0.799132,-0.12634884,0.456673,0.29733866,0.041080687,-0.04016439
53,1778516341320,0.799132,-0.12634884,0.456673,0.29733866,0.041080687,-0.04016439
54,1778516341330,0.7991319999999998,-0.12634884,0.456673,0.29733866,0.041080687,-0.04016439
55,1778516341340,0.799132,-0.12634884,0.456673,0.29733866,0.041080687,-0.04016439
56,1778516341350,0.799132,-0.12634884,0.456673,0.29733866,0.041080687,-0.04016439
57,1778516341360,0.7991319999999998,-0.12634884,0.456673,0.29733866,0.041080687,-0.04016439
58,1778516341370,0.7408207,-0.1073233349999999,0.3315894775,0.0944932174999999,-0.29199359825,-0.1308778725
59,1778516341380,0.7213836,-0.1009815,0.28989497,0.02687807,-0.40301836,-0.1611157
60,1778516341390,0.7213835999999999,-0.1009815,0.28989497,0.02687807,-0.4030183600000001,-0.1611157
61,1778516341400,0.7213836,-0.1009815,0.28989497,0.02687807,-0.40301836,-0.1611157
62,1778516341410,0.7213836,-0.1009815,0.28989497,0.02687807,-0.40301836,-0.1611157
63,1778516341420,0.7213835999999999,-0.1009815,0.28989497,0.02687807,-0.4030183600000001,-0.1611157
64,1778516341430,0.690711,-0.14098383,0.27702835,-0.1590540349999999,-0.39820778,-0.197920335
65,1778516341440,0.690711,-0.14098383,0.27702835,-0.34498614,-0.3933972,-0.23472497
66,1778516341450,0.690711,-0.14098383,0.27702835,-0.34498614,-0.3933972,-0.23472497
67,1778516341460,0.690711,-0.14098383,0.27702835,-0.34498614,-0.3933972,-0.23472497
68,1778516341470,0.690711,-0.14098383,0.27702835,-0.34498614,-0.3933972,-0.23472497
69,1778516341480,0.690711,-0.14098383,0.27702835,-0.34498614,-0.3933972,-0.23472497
70,1778516341490,0.690711,-0.14098383,0.27702835,-0.34498614,-0.3933972,-0.23472497
71,1778516341500,0.6501599,-0.17122951,0.32251883,-0.5458081,-0.31138855,-0.27259862
72,1778516341510,0.6501599,-0.17122951,0.32251883,-0.5458081,-0.31138855,-0.27259862
73,1778516341520,0.6501599,-0.17122951,0.32251883,-0.5458081,-0.31138855,-0.27259862
74,1778516341530,0.6501599,-0.17122951,0.32251883,-0.5458081,-0.31138855,-0.27259862
75,1778516341540,0.6501599,-0.17122951,0.32251883,-0.5458081,-0.31138855,-0.27259862
76,1778516341550,0.6501599,-0.17122951,0.32251883,-0.6203336333333334,-0.29163725,-0.27473664
77,1778516341560,0.6501599,-0.17122951,0.32251883,-0.6575964,-0.2817616,-0.27580565
78,1778516341570,0.6144871,-0.18360828,0.33941004,-0.6575964,-0.2817616,-0.27580565
79,1778516341580,0.6144871,-0.1836082799999999,0.33941004,-0.6575964,-0.2817616,-0.27580565
80,1778516341590,0.6144871,-0.18360828,0.33941004,-0.6575964,-0.2817616,-0.27580565
81,1778516341600,0.6144871,-0.18360828,0.33941004,-0.6575964,-0.2817616,-0.27580565
82,1778516341610,0.6144871,-0.1836082799999999,0.33941004,-0.6575964,-0.2817616,-0.27580565
83,1778516341620,0.5907662,-0.18305947,0.357094005,-0.6575964,-0.2817616,-0.27580565
84,1778516341630,0.5670453,-0.18251066,0.37477797,-0.6575964,-0.2817616,-0.27580565
85,1778516341640,0.5670453,-0.18251066,0.37477797,-0.6575964,-0.2817616,-0.27580565
86,1778516341650,0.5670453,-0.18251066,0.37477797,-0.6575964,-0.2817616,-0.27580565
87,1778516341660,0.5670453,-0.18251066,0.37477797,-0.6575964,-0.2817616,-0.27580565
88,1778516341670,0.5670453,-0.18251066,0.37477797,-0.6575964,-0.2817616,-0.27580565
89,1778516341680,0.5670453,-0.18251066,0.37477797,-0.6955464124999999,-0.2932535,-0.2654591225
90,1778516341690,0.5670453,-0.18251066,0.37477797,-0.80939645,-0.3277292,-0.23441954
91,1778516341700,0.5670453,-0.18251066,0.37477797,-0.80939645,-0.3277292,-0.23441954
92,1778516341710,0.5670453,-0.18251066,0.37477797,-0.80939645,-0.3277292,-0.23441954
93,1778516341720,0.5670453,-0.18251066,0.37477797,-0.80939645,-0.3277292,-0.23441954
94,1778516341730,0.5670453,-0.18251066,0.37477797,-0.80939645,-0.3277292,-0.23441954
95,1778516341740,0.5670453,-0.18251066,0.37477797,-0.80939645,-0.3277292,-0.23441954
96,1778516341750,0.5670453,-0.18251066,0.37477797,-0.80939645,-0.3277292,-0.23441954
97,1778516341760,0.5670453,-0.18251066,0.37477797,-0.80939645,-0.3277292,-0.23441954
98,1778516341770,,,,,,
99,1778516341780,,,,,,
100,1778516341790,0.80346155,0.11092111,0.8492569,-3.947106,0.2602286,3.3819027
101,1778516341800,0.8034615500000001,0.11092111,0.8492569,-3.947106,0.2602286,3.3819027
102,1778516341810,0.8034615500000001,0.11092111,0.8492569,-3.947106,0.2602286,3.3819027
103,1778516341820,0.8644711875,0.1311966825,0.7353782925,-4.52395365,0.2701169825,3.41679835
104,1778516341830,1.2592604333333333,0.1915355666666666,0.2576369833333333,-6.2544966,0.29978213,3.5214853
105,1778516341840,1.3651406,0.19129165,0.18958424,-6.2544966,0.29978213,3.5214853
106,1778516341850,1.3651406,0.19129165,0.18958424,-6.2544966,0.29978213,3.5214853
107,1778516341860,1.3651406,0.19129165,0.18958424,-6.2544966,0.29978213,3.5214853
108,1778516341870,1.3651406,0.19129165,0.18958424,-6.2544966,0.29978213,3.5214853
109,1778516341880,1.3651406,0.19129165,0.18958424,-6.2544966,0.29978213,3.5214853
110,1778516341890,1.3651406,0.19129165,0.18958424,-6.2544966,0.29978213,3.5214853
111,1778516341900,1.3651406,0.19129165,0.18958424,-6.2544966,0.29978213,3.5214853
112,1778516341910,1.4565483666666663,0.1514316,0.1976131633333333,-6.2544966,0.29978213,3.5214853
113,1778516341920,1.6393639,0.0717115,0.21367101,-6.2544966,0.29978213,3.5214853
114,1778516341930,1.6393639,0.0717115,0.21367101,-7.1607913,0.6131560149999999,3.35792625
115,1778516341940,1.6393639,0.0717115,0.21367101,-8.067086,0.9265299,3.1943672
116,1778516341950,1.6393639,0.0717115,0.21367101,-8.067086,0.9265299,3.1943672
117,1778516341960,1.6393639,0.0717115,0.21367101,-8.067086,0.9265299,3.1943672
118,1778516341970,1.6393639,0.0717115,0.21367101,-8.067086,0.9265299,3.1943672
119,1778516341980,1.6393639,0.0717115,0.21367101,-8.067086,0.9265299,3.1943672
120,1778516341990,1.6393639,0.0717115,0.21367101,-8.067086,0.9265299,3.1943672
121,1778516342000,1.6393639,0.0717115,0.21367101,-8.067086,0.9265299,3.1943672
122,1778516342010,1.6393639,0.0717115,0.21367101,-8.067086,0.9265299,3.1943672
123,1778516342020,1.6393639,0.0717115,0.21367101,-8.067086,0.9265299,3.1943672
124,1778516342030,1.6393639,0.0717115,0.21367101,-8.067086,0.9265299,3.1943672
125,1778516342040,1.5986908,0.017348573,0.303920185,-8.067086,0.9265299,3.1943672
126,1778516342050,1.5580177,-0.037014354,0.39416936,-9.390678,1.664455,2.796541
127,1778516342060,1.5580177,-0.037014354,0.39416936,-9.390678,1.664455,2.796541
128,1778516342070,1.5580177,-0.037014354,0.39416936,-9.390678,1.664455,2.796541
129,1778516342080,1.5580177,-0.037014354,0.39416936,-9.390678,1.664455,2.796541
130,1778516342090,1.5580177,-0.037014354,0.39416936,-9.390678,1.664455,2.796541
131,1778516342100,1.5580177,-0.037014354,0.39416936,-9.390678,1.664455,2.796541
132,1778516342110,1.5580177,-0.037014354,0.39416936,-9.390678,1.664455,2.796541
133,1778516342120,1.5580177,-0.037014354,0.39416936,-9.390678,1.664455,2.796541
134,1778516342130,1.5580177,-0.037014354,0.39416936,-9.390678,1.664455,2.796541
135,1778516342140,1.5580177,-0.037014354,0.39416936,-9.390678,1.664455,2.796541
136,1778516342150,1.5580177,-0.037014354,0.39416936,-9.390678,1.664455,2.796541
137,1778516342160,1.5580177,-0.037014354,0.39416936,-9.390678,1.664455,2.796541
138,1778516342170,1.5580177,-0.037014354,0.39416936,-9.390678,1.664455,2.796541
139,1778516342180,1.5580177,-0.037014354,0.39416936,-9.390678,1.664455,2.796541
140,1778516342190,1.5580177,-0.037014354,0.39416936,-9.390678,1.664455,2.796541
141,1778516342200,1.2195224,-0.07939488,0.77492326,-9.390678,1.664455,2.796541
142,1778516342210,1.2195224,-0.07939488,0.77492326,-10.25795475,2.1805599250000003,2.52039175
143,1778516342220,1.2195224,-0.07939488,0.77492326,-10.547047,2.3525949,2.428342
144,1778516342230,1.2195224,-0.07939488,0.77492326,-10.547047,2.3525949,2.428342
145,1778516342240,1.2195224,-0.07939488,0.77492326,-10.547047,2.3525949,2.428342
146,1778516342250,1.2195224,-0.07939488,0.77492326,-10.547047,2.3525949,2.428342
147,1778516342260,1.027499,-0.032623854,1.0863439,-10.813842,2.4326181,2.3429737
148,1778516342270,1.2777981333333333,0.2515797153333333,1.6664996333333333,-10.20257,1.628312166666667,2.2890139
149,1778516342280,1.4029477,0.3936815,1.9565775,-9.193446,0.6033821144999999,2.0761018499999997
150,1778516342290,1.4029477,0.3936815,1.9565775,-8.489958,-0.019394971,1.8901697
151,1778516342300,2.2121819333333335,1.1050848133333333,2.2921256,-7.630623333333332,-0.7517715140000001,1.5339334666666666
152,1778516342310,2.871692,1.6100329,2.137076,-5.911954,-2.2165246,0.821461
153,1778516342320,2.871692,1.6100329,2.137076,-5.911953999999999,-2.2165246,0.8214609999999999
154,1778516342330,2.871692,1.6100329,2.137076,-5.5448236,-2.7204883,0.1965459
155,1778516342340,3.10983085,1.71599945,1.79348885,-5.5448236,-2.7204883,0.1965459
156,1778516342350,3.4295294,1.8605353,1.1929965,-5.5448236,-2.7204883,0.1965458999999999
157,1778516342360,3.4295294,1.8605353,1.1929965,-6.097580425,-2.484427075,-0.657329175
158,1778516342370,3.4295294,1.8605353,1.1929965,-6.2818327,-2.40574,-0.9419542
159,1778516342380,3.4295294,1.8605353,1.1929965,-6.2818327,-2.40574,-0.9419542
160,1778516342390,3.4295294,1.8605353,1.1929965,-6.2818327,-2.40574,-0.9419542
161,1778516342400,3.4295294,1.8605353,1.1929965,-6.2818327,-2.40574,-0.9419542
162,1778516342410,3.4295294,1.8605353,1.1929965,-6.703215275,-2.0214294175000003,-1.1653781749999998
163,1778516342420,3.4259722,1.7699203,1.2007002,-7.967363,-0.86849767,-1.8356501
164,1778516342430,3.4188578,1.5886903,1.2161076,-7.967363,-0.86849767,-1.8356501
165,1778516342440,3.4188578,1.5886903000000003,1.2161076,-7.967363,-0.86849767,-1.8356501
166,1778516342450,3.1218589000000003,1.44657835,1.50057535,-7.967363,-0.86849767,-1.8356501
167,1778516342460,2.82486,1.3044664,1.7850431,-7.967363,-0.86849767,-1.8356501
168,1778516342470,2.8248599999999997,1.3044664,1.7850431,-7.967363,-0.86849767,-1.8356501
169,1778516342480,2.82486,1.3044664,1.7850431,-7.967363,-0.86849767,-1.8356501
170,1778516342490,2.82486,1.3044664,1.7850431,-7.967363,-0.86849767,-1.8356501
171,1778516342500,2.8248599999999997,1.3044664,1.7850431,-8.980279,0.2524400766666666,-2.3190481
172,1778516342510,2.82486,1.3044664,1.7850431,-9.486737,0.81290895,-2.5607471
173,1778516342520,2.8248599999999997,1.3044664,1.7850431,-9.486737,0.8129089500000001,-2.5607471
174,1778516342530,2.82486,1.3044664,1.7850431,-9.486737,0.81290895,-2.5607471
175,1778516342540,2.82486,1.3044664,1.7850431,-9.486737,0.81290895,-2.5607471
176,1778516342550,2.8248599999999997,1.3044664,1.7850431,-9.486737,0.8129089500000001,-2.5607471
177,1778516342560,2.82486,1.3044664,1.7850431,-9.486737,0.81290895,-2.5607471
178,1778516342570,2.8248599999999997,1.3044664,1.7850431,-9.486737,0.8129089500000001,-2.5607471
179,1778516342580,2.82486,1.3044664,1.7850431,-9.486737,0.81290895,-2.5607471
180,1778516342590,2.82486,1.3044664,1.7850431,-9.486737,0.81290895,-2.5607471
181,1778516342600,2.8248599999999997,1.3044664,1.7850431,-9.486737,0.8129089500000001,-2.5607471
182,1778516342610,2.0912805,1.206655775,2.786473675,-9.692675,1.071457675,-2.57853855
183,1778516342620,1.7745547000000002,1.150433,3.4011742999999997,-9.898613,1.3300064,-2.59633
184,1778516342630,1.7745547,1.150433,3.4011743,-9.898613,1.3300064,-2.59633
185,1778516342640,1.7745547,1.150433,3.4011743,-9.898613,1.3300064,-2.59633
186,1778516342650,1.7745547000000002,1.150433,3.4011742999999997,-9.898613,1.3300064,-2.59633
187,1778516342660,1.7745547,1.150433,3.4011743,-9.3782705,0.7876725499999999,-2.00371435
188,1778516342670,1.7745547000000002,1.150433,3.4011742999999997,-9.204823,0.6068946,-1.8061758
189,1778516342680,1.660356025,1.337623775,3.833592575,-8.576241999999999,0.0362701199999999,-1.372652325
190,1778516342690,1.6222898,1.4000207,3.977732,-8.366715,-0.15393804,-1.2281445
191,1778516342700,1.6222898,1.4000207,3.977732,-8.366715,-0.15393804,-1.2281445
192,1778516342710,1.6222898,1.4000207,3.977732,-8.366715,-0.15393804,-1.2281445
193,1778516342720,1.6222898,1.4000207,3.977732,-5.10607,-1.4585935,0.43020186
194,1778516342730,1.5296827333333332,2.0987606333333333,4.9182342666666665,-5.10607,-1.4585935,0.43020186
195,1778516342740,1.4833792,2.4481306,5.3884854,-5.10607,-1.4585935,0.43020186
196,1778516342750,1.4833792,2.4481306,5.3884854,-5.10607,-1.4585935,0.43020186
197,1778516342760,1.4833792,2.4481306,5.3884854,-5.10607,-1.4585935,0.43020186
198,1778516342770,1.4833792,2.4481306,5.3884854,-5.10607,-1.4585935,0.43020186
199,1778516342780,1.4833792,2.4481306,5.3884854,-5.10607,-1.4585935,0.43020186
200,1778516342790,3.6622055333333337,3.053003333333333,5.806598966666667,-2.036217566666666,-1.8271997666666664,0.7055493866666667
201,1778516342800,5.2297564,3.1673799,5.7758245,3.641215,-1.9630155,-1.00662945
202,1778516342810,5.2297564,3.1673799,5.7758245,5.9545617,-1.8872682,-2.598926
203,1778516342820,5.2297564,3.1673799,5.7758245,5.9545617,-1.8872682,-2.598926
204,1778516342830,4.6396611666666665,1.5859665333333333,3.7539182,6.6681542333333335,-2.0004818,-4.4774384
205,1778516342840,3.187655575,0.9778467,2.4303247,5.07315955,-1.056033235,-5.326973799999999
206,1778516342850,2.2354963,0.8462689,1.8223624,2.0200804,0.7097236433333333,-4.990463666666667
207,1778516342860,2.0185935,0.8619405,1.9495649,1.4694363,1.0920744,-4.867069
208,1778516342870,2.0185935,0.8619404999999999,1.9495648999999995,1.4694363,1.0920744,-4.867069
209,1778516342880,1.71711235,0.782926745,3.048470475,1.71282795,1.508417175,-4.431140125000001
210,1778516342890,1.3889225,0.646745,4.009807,1.7939585,1.6471981,-4.2858305
211,1778516342900,1.3889225000000005,0.646745,4.009807,1.7939584999999998,1.6471981,-4.2858305
212,1778516342910,1.3889225,0.646745,4.009807,1.7939585,1.6471981,-4.2858305
213,1778516342920,1.3889225,0.646745,4.009807,1.7939585,1.6471981,-4.2858305
214,1778516342930,1.3889225000000005,0.646745,4.009807,1.7939584999999998,1.6471981,-4.2858305
215,1778516342940,1.3889225,0.646745,4.009807,1.7939585,1.6471981,-4.2858305
216,1778516342950,1.3889225,0.646745,4.009807,1.7939585,1.6471981,-4.2858305
217,1778516342960,1.3889225,0.646745,4.009807,1.7939585,1.6471981,-4.2858305
218,1778516342970,,,,,,
219,1778516342980,2.4445329,2.1590283,1.87639,-1.3539828,-0.60139686,-5.1844134
220,1778516342990,2.0501196,1.7102216,2.2518997,-0.24740042,-0.6786713,-5.513517
221,1778516343000,2.0501196,1.7102216,2.2518997,-0.24740042,-0.6786713,-5.513517
222,1778516343010,2.0501196,1.7102216,2.2518997,-0.24740042,-0.6786713,-5.513517
223,1778516343020,2.0501196,1.7102216,2.2518997,-0.24740042,-0.6786713,-5.513517
224,1778516343030,2.0501196,1.7102216,2.2518997,-0.24740042,-0.6786713,-5.513517
225,1778516343040,1.749507625,1.119272625,2.29403625,1.585500825,-0.44829873,-5.72701465
226,1778516343050,1.701075,0.9118215,2.285865,2.3758078,-0.31322116,-5.809787
227,1778516343060,1.6861147,0.8351097,2.3024716666666665,2.627535133333333,-0.3405573799999999,-5.856161666666666
228,1778516343070,1.6561941,0.6816861,2.335685,3.1309898,-0.39522982,-5.948911
229,1778516343080,1.6561941,0.6816861,2.335685,4.348902,-0.72234815,-6.0865088
230,1778516343090,1.6561940999999998,0.6816861,2.335685,4.348902,-0.7223481499999999,-6.0865088
231,1778516343100,1.5183965,0.3486941275,2.27385215,4.348902,-0.72234815,-6.0865088
232,1778516343110,1.4313639,0.10342067,2.1910424,4.808578266666667,-0.8199847833333335,-6.112063133333333
233,1778516343120,1.4313639,0.10342067,2.1910424,5.0384164,-0.8688031,-6.1248403
234,1778516343130,1.3705880333333331,-0.0612637433333333,2.0647750000000005,5.671426,-0.8831584500000002,-6.192341
235,1778516343140,1.3402001,-0.14360595,2.0016413,5.671426,-0.8831584500000002,-6.192341
236,1778516343150,1.3028809,-0.30623737,1.7205882,5.823124,-0.62506787,-6.1461188
237,1778516343160,1.3028809,-0.30623737,1.7205882,5.867208000000001,-0.35979962,-6.088646399999999
238,1778516343170,1.28969405,-0.35625554,1.507404975,5.770767675,-0.42035164,-6.0084323
239,1778516343180,1.3161743,-0.24891695,1.43112,5.4814467,-0.6020077,-5.767790000000001
240,1778516343190,1.653191,-0.0059759525,1.3907823,5.094081675,-1.04297605,-5.65863575
241,1778516343200,1.7655299,0.07500438,1.3773364,4.96496,-1.1899655,-5.622251000000001
242,1778516343210,1.7655299,0.07500438,1.3773364,4.96496,-1.1899655,-5.622251
243,1778516343220,1.7655299,0.07500438,1.3773364,4.96496,-1.1899655,-5.622251000000001
244,1778516343230,1.7655299,0.07500438,1.3773364,3.6771033,-1.4598153,-5.6650114
245,1778516343240,1.7655299,0.07500438,1.3773364,3.6771033,-1.4598153,-5.6650114
246,1778516343250,1.7655299,0.07500438,1.3773364,3.6771033,-1.4598153,-5.6650114
247,1778516343260,1.7655299,0.07500438,1.3773364,3.6771033,-1.4598153,-5.6650114
248,1778516343270,1.9964579,0.14561825,1.5386264,3.6771033,-1.4598153,-5.6650114
249,1778516343280,1.9964579,0.14561825,1.5386264,3.6771033,-1.4598153,-5.6650114
250,1778516343290,2.24375895,0.11567748,1.79998315,3.6771033,-1.4598153,-5.6650114
251,1778516343300,2.49106,0.08573671,2.0613399,3.6771033,-1.4598153,-5.6650114
252,1778516343310,2.49106,0.08573671,2.0613399,3.6771033,-1.4598153,-5.6650114
253,1778516343320,2.49106,0.08573671,2.0613399,3.6771033,-1.4598153,-5.6650114
254,1778516343330,2.49106,0.08573671,2.0613399,3.4212017333333336,-1.146950446666667,-5.804288700000001
255,1778516343340,2.49106,0.08573671,2.0613399,2.9093986,-0.52122074,-6.0828433
256,1778516343350,2.49106,0.08573671,2.0613399,2.9093986,-0.52122074,-6.0828433
257,1778516343360,2.49106,0.08573671,2.0613399,2.9093986,-0.52122074,-6.0828433
258,1778516343370,2.49106,0.08573671,2.0613399,2.8878655749999997,-0.2235002924999999,-6.227312975
259,1778516343380,2.49106,0.08573671,2.0613399,2.8232665000000003,0.6696610499999999,-6.660722
260,1778516343390,2.55370085,0.0031556724999999,2.178450375,2.8232665,0.66966105,-6.660722
261,1778516343400,2.7416234,-0.24458744,2.5297818,2.8232665000000003,0.6696610499999999,-6.660722
262,1778516343410,2.7416234,-0.24458744,2.5297818,2.8232665,0.66966105,-6.660722
263,1778516343420,2.628628975,-0.333495065,2.5977430999999997,2.8232665,0.66966105,-6.660722
264,1778516343430,2.2896457,-0.60021794,2.801627,2.8232665000000003,0.6696610499999999,-6.660722
265,1778516343440,2.2896457,-0.60021794,2.801627,2.8232665,0.66966105,-6.660722
266,1778516343450,2.2896457,-0.60021794,2.801627,3.1570024333333335,1.42010895,-7.013904
267,1778516343460,2.2896457,-0.60021794,2.801627,3.3238704,1.7953329,-7.190495
268,1778516343470,1.9660294,-0.78594521,2.884589075,3.3238704,1.7953329,-7.190495
269,1778516343480,1.8581573,-0.8478543,2.9122431,3.6252306,1.8169677333333336,-7.210042666666666
270,1778516343490,1.8581573,-0.8478543,2.9122431,4.227951,1.8602374,-7.249138
271,1778516343500,1.8581573,-0.8478543,2.9122431,5.7474785,1.0761919,-6.976692
272,1778516343510,1.5008802,-1.1437863,2.7994926,5.7474785,1.0761919,-6.976692
273,1778516343520,1.5008802,-1.1437863,2.7994926,5.7474785,1.0761919,-6.976692
274,1778516343530,1.5008802,-1.1437863,2.7994926,5.7474785,1.0761919,-6.976692
275,1778516343540,1.5008802,-1.1437863,2.7994926,5.7474785,1.0761919,-6.976692
276,1778516343550,1.440510825,-1.21869915,2.4894135,6.782780375,0.245453305,-6.75529155
277,1778516343560,1.4203877,-1.2436701,2.3860538,7.1278809999999995,-0.03145956,-6.6814914
278,1778516343570,1.4689271,-1.264464,1.8774267,7.492262,-0.426994795,-6.6361346999999995
279,1778516343580,1.4689271,-1.264464,1.8774267,7.856643,-0.82253003,-6.590778
280,1778516343590,1.4689271,-1.264464,1.8774267,7.856643000000001,-0.8225300299999999,-6.590778
281,1778516343600,1.4161192,-1.311418,1.5031365,7.9647665,-1.0587822,-6.665303
282,1778516343610,1.1804347,-1.4066675,1.0954298,7.9647665,-1.0587822,-6.665303
283,1778516343620,1.1804347,-1.4066675,1.0954298,7.9647665,-1.0587822,-6.665302999999999
284,1778516343630,1.1804347,-1.4066675,1.0954298,7.92299855,-1.065539875,-6.67503875
285,1778516343640,1.1804347,-1.4066675,1.0954298,7.7976947,-1.0858129,-6.704246
286,1778516343650,1.1804347,-1.4066675,1.0954298,7.7976947,-1.0858129,-6.704246
287,1778516343660,1.039085,-1.5226194,0.93511555,7.6481092,-1.1515573,-6.691188800000001
288,1778516343670,0.7956358333333333,-1.7196125999999998,0.7024393666666667,7.319998299999999,-1.6453656,-6.526789699999999
289,1778516343680,0.20324357,-2.0883536,0.30050534,7.3199983,-1.6453656,-6.5267897
290,1778516343690,0.20324357,-2.0883536,0.30050534,7.3199983,-1.6453656,-6.5267897
291,1778516343700,0.20324357,-2.0883536,0.30050534,7.319998299999999,-1.6453656,-6.526789699999999
292,1778516343710,0.0831298575,-2.137975375,0.181474005,7.1620515000000005,-2.1302780500000003,-6.25774175
293,1778516343720,-0.27721128,-2.2868407,-0.17562,6.7460904,-3.111442,-5.630345000000001
294,1778516343730,-0.27721128,-2.2868407,-0.17562,6.7460904,-3.111442,-5.630345
295,1778516343740,-0.27721128,-2.2868407,-0.17562,6.23052,-3.1084641,-5.304983
296,1778516343750,-0.3368489266666667,-2.3904240333333333,-0.2517626666666666,5.7149496,-3.1054862,-4.979621
297,1778516343760,-0.36666775,-2.4422157,-0.289834,5.7149496,-3.1054862,-4.979621
298,1778516343770,-0.36666775,-2.4422157,-0.289834,5.7149496,-3.1054862,-4.979621
299,1778516343780,-0.47167388,-2.652289,-0.1934869,4.8441615,-2.4915667,-4.597983
300,1778516343790,-0.47167388,-2.652289,-0.1934869,4.2328890333333336,-1.8621718333333332,-4.203771
301,1778516343800,-0.64351319,-2.8197073,-0.120860711,3.9272528,-1.5474744,-4.006665
302,1778516343810,-1.035365366666667,-3.159371466666667,0.0292903286666666,3.9272528,-1.5474743999999998,-4.006665
303,1778516343820,-1.1453718,-3.2454944,0.068052754,3.9272528,-1.5474744,-4.006665
304,1778516343830,-1.1453718,-3.2454944,0.068052754,3.9272528,-1.5474743999999998,-4.006665
305,1778516343840,-1.1453718,-3.2454944,0.068052754,3.761402825,-1.36169505,-3.69947625
306,1778516343850,-1.3170891,-3.388155,0.07625445,3.515300375,-1.1387292,-2.774359025
307,1778516343860,-1.4888064000000003,-3.5308156,0.084456146,3.451694,-1.0850494,-2.5001187
308,1778516343870,-1.555441375,-3.560512475,0.0519694945,3.451694,-1.0850494,-2.5001187
309,1778516343880,-1.7553463,-3.6496031,-0.04549046,3.451694,-1.0850494,-2.5001187
310,1778516343890,-1.7553463,-3.6496031,-0.04549046,3.451694,-1.0850494,-2.5001187
311,1778516343900,-1.728728925,-3.642163675,-0.0558264285,2.731369425,-0.53187273,-0.7565948025
312,1778516343910,-1.6488768,-3.6198454,-0.086834334,2.3585508,-0.22296582,-0.15195273
313,1778516343920,-1.6488768,-3.6198454,-0.086834334,2.3585508,-0.22296582,-0.15195273
314,1778516343930,-1.4209975,-3.5867338,-0.09994486,2.3585508,-0.22296582,-0.15195273
315,1778516343940,-1.4209974999999997,-3.5867337999999997,-0.0999448599999999,2.3585508,-0.22296582,-0.15195273
316,1778516343950,-1.4209975,-3.5867338,-0.09994486,1.95507425,0.14622589,0.33987016
317,1778516343960,-1.4209975,-3.5867338,-0.09994486,1.5515977,0.5154176,0.83169305
318,1778516343970,-1.4209974999999997,-3.5867337999999997,-0.0999448599999999,1.5515977,0.5154176,0.83169305
319,1778516343980,-1.4209975,-3.5867338,-0.09994486,1.5515977,0.5154176,0.83169305
320,1778516343990,-0.7564262166666667,-3.4337778,-0.1317759766666666,-0.98471475,2.611907,2.6565003
321,1778516344000,0.05570446,-3.16029115,0.0163881544999999,-0.98471475,2.611907,2.6565003
322,1778516344010,0.18135203,-3.10573,0.062076796,-1.649336183333333,3.0566169999999997,2.7908907
323,1778516344020,0.18135203,-3.10573,0.062076796,-1.9816469,3.278972,2.8580859
324,1778516344030,0.18135203,-3.10573,0.062076796,-2.207628875,3.49254575,2.785583825
325,1778516344040,0.0642923666666666,-2.6724526666666666,0.517489532,-2.976542766666667,4.4856345,2.5326473000000003
326,1778516344050,-0.27672347,-2.0323138,0.6336955,-3.2302554,4.749325,3.2391129
327,1778516344060,-0.2793252566666667,-1.9298281333333331,0.6054011666666667,-3.6763906,4.8485395,3.6208528333333327
328,1778516344070,-0.28062615,-1.8785853,0.591254,-4.568661,5.0469685,4.3843327
329,1778516344080,-0.333891435,-1.7572671999999998,0.5957665,-4.568661,5.0469685,4.3843327
330,1778516344090,-0.3871567199999999,-1.6359491000000002,0.600279,-4.568661,5.0469685,4.3843327
331,1778516344100,-0.38715672,-1.6359491,0.600279,-4.568661,5.0469685,4.3843327
332,1778516344110,,,,,,
333,1778516344120,-0.38715672,-1.6359491,0.600279,-4.568661,5.0469685,4.3843327
334,1778516344130,-0.41078616,-1.51002715,0.6633314299999999,-4.568661,5.0469685,4.3843327
335,1778516344140,-0.4344156,-1.3841051999999998,0.72638386,-4.568661,5.0469685,4.3843327
336,1778516344150,-0.4344156,-1.3841052,0.72638386,-4.568661,5.0469685,4.3843327
337,1778516344160,-0.4344156,-1.3841051999999998,0.72638386,-4.568661,5.0469685,4.3843327
338,1778516344170,-0.4344156,-1.3841052,0.72638386,-5.788254,5.159673,5.2209125
339,1778516344180,-0.4344156,-1.3841051999999998,0.72638386,-5.788253999999999,5.159673,5.2209125
340,1778516344190,0.3495325749999999,-1.14842065,1.52295468,-8.083885500000001,4.6670105,6.348646199999999
341,1778516344200,0.8291947,-1.1589091,2.0674376,-9.291261,4.376544,6.854519
342,1778516344210,1.5485456666666666,-1.0653466666666669,3.0804643000000005,-9.375763333333332,4.073554966666666,7.928114566666667
343,1778516344220,1.697843,-1.0078636,3.2952533,-9.175043,3.9639046,8.208349
344,1778516344230,1.697843,-1.0078636,3.2952533,-9.175043,3.9639046,8.208349
345,1778516344240,1.697843,-1.0078636,3.2952533,-9.175043,3.9639046,8.208349
346,1778516344250,1.697843,-1.0078636,3.2952533,-9.175043,3.9639046,8.208349
347,1778516344260,1.8543765,-0.94446561,3.397982766666667,-9.175043,3.9639046,8.208349
348,1778516344270,2.1674435,-0.81766963,3.6034417,-9.175043,3.9639046,8.208349
349,1778516344280,2.1674435,-0.81766963,3.6034417,-9.175043,3.9639046,8.208349
350,1778516344290,2.1674435,-0.81766963,3.6034417,-9.175043,3.9639046,8.208349
351,1778516344300,2.1674435,-0.81766963,3.6034417,-9.175043,3.9639046,8.208349
352,1778516344310,2.8844976,0.1606801,3.4881303,-6.6872945,3.1626022,7.496691000000001
353,1778516344320,2.8844976,0.1606801,3.4881303,-6.6872945,3.1626022,7.496691
354,1778516344330,2.8844976,0.1606801,3.4881303,-6.6872945,3.1626022,7.496691000000001
355,1778516344340,2.8844976,0.1606801,3.4881303,-6.6872945,3.1626022,7.496691
356,1778516344350,2.8844976,0.1606801,3.4881303,-6.6872945,3.1626022,7.496691
357,1778516344360,2.8844976,0.1606801,3.4881303,-6.6872945,3.1626022,7.496691000000001
358,1778516344370,2.8844976,0.1606801,3.4881303,-5.880379625,2.849457325,7.12455975
359,1778516344380,2.8844976,0.1606801,3.4881303,-5.611408,2.7450756999999997,7.000516
360,1778516344390,2.7305863,0.46411243,3.085241,-3.780187,2.6403122,6.0235896
361,1778516344400,2.7305863,0.4641124299999999,3.085241,-3.780187,2.6403122,6.0235896
362,1778516344410,2.7305863,0.46411243,3.085241,-3.780187,2.6403122,6.0235896
363,1778516344420,2.645017225,0.5726858575,2.6963159,-3.780187,2.6403122,6.0235896
364,1778516344430,2.6164942,0.608877,2.5666742,-3.5199583333333333,2.6792040666666668,5.794616866666666
365,1778516344440,2.4217267,0.6541845,2.175066,-3.389844,2.69865,5.6801305
366,1778516344450,2.0329234333333335,0.7207331,1.4664474666666667,-3.3804264333333336,2.7668123333333337,5.549303533333333
367,1778516344460,1.71266085,0.73806135,0.7807773499999999,-3.3615913,2.903137,5.2876496
368,1778516344470,1.5867999,0.7221153,0.4494165,-3.3615913,2.903137,5.2876496
369,1778516344480,1.5867999,0.7221153,0.4494165,-3.9280671,3.0107512,5.3395732
370,1778516344490,1.6221373,0.70926395,0.3629785225,-4.53594175,3.093765275,5.373208925
371,1778516344500,1.7281495,0.6707099,0.10366459,-5.5098519999999995,3.1813862,5.3962307
372,1778516344510,1.8878541,0.5775337,0.052442085,-6.7047043,3.048523,4.9932127
373,1778516344520,1.8709018333333332,0.5206198,0.0769150616666666,-7.0486214333333335,2.895705,4.757113166666667
374,1778516344530,1.7393088,0.50307816,0.3817296,-7.6526146,2.1326833,4.075082
375,1778516344540,1.7067256000000002,0.5297463733333334,0.4715925666666667,-7.502799833333333,1.9049832666666668,3.9553015666666664
376,1778516344550,1.6415592,0.5830828,0.6513185,-7.2031703,1.4495832,3.7157407
377,1778516344560,1.5389313,0.7011384700000001,0.79096075,-6.76655435,1.066188915,3.66702415
378,1778516344570,1.643591933333333,0.9663368933333332,0.72945308,-4.830009666666666,-0.6360634433333333,3.874565666666667
379,1778516344580,2.058169,1.2606224,0.32715324,-4.811556375,-0.8857164375000001,3.968524425
380,1778516344590,2.058169,1.2606224,0.32715324,-5.695096500000001,-0.73945236,3.9681807
381,1778516344600,2.8867845,1.422766,-0.37919893,-5.6950965,-0.73945236,3.9681807
382,1778516344610,3.7154,1.5849096,-1.0855511,-6.98722925,-0.316122755,3.74177875
383,1778516344620,3.7154,1.5849096000000005,-1.0855511,-8.279362,0.10720685,3.5153768
384,1778516344630,3.7154,1.5849096,-1.0855511,-8.279362,0.10720685,3.5153768
385,1778516344640,3.7154,1.5849096000000005,-1.0855511,-8.279362,0.10720685,3.5153768
386,1778516344650,3.46905915,1.600520275,0.4938398074999999,-9.962029,0.7103598875,2.89653215
387,1778516344660,3.2598853,1.6344247,1.5938735,-11.116526,1.1178834,2.3942864
388,1778516344670,3.2598853,1.6344247,1.5938735,-11.116526,1.1178834,2.3942864
389,1778516344680,3.2598853,1.6344247,1.5938735,-11.116526,1.1178834,2.3942864
390,1778516344690,3.2598853,1.6344247,1.5938735,-11.116526,1.1178834,2.3942864
391,1778516344700,3.2949483,1.7768109999999997,2.6582038,-10.387,0.93187493,2.485
392,1778516344710,3.515555725,1.89584235,2.9327778,-9.531216,0.816230505,2.506189375
393,1778516344720,4.177378,2.2529364,3.7564998,-6.963864,0.46929723,2.5697575
394,1778516344730,4.177378,2.2529364,3.7564998,-6.963864,0.46929723,2.5697575
395,1778516344740,4.177378,2.2529364,3.7564998,-5.866851733333333,0.3639229733333333,2.3127868
396,1778516344750,4.4971525,2.7760461000000003,3.515250825,-3.6728272,0.15317446,1.7988454
397,1778516344760,4.603744,2.950416,3.4348345,-2.49141385,0.043142355,1.35566267
398,1778516344770,4.603744,2.950416,3.4348344999999996,-1.3100005,-0.06688975,0.91247994
399,1778516344780,4.603744,2.950416,3.4348344999999996,-1.3100005,-0.06688975,0.91247994
400,1778516344790,4.603744,2.950416,3.4348345,-1.3100005,-0.06688975,0.91247994
401,1778516344800,4.397553266666667,3.029079133333333,3.319482266666667,-1.3100005,-0.06688975,0.91247994
402,1778516344810,3.9851718,3.1864054,3.0887778000000004,-1.3100005,-0.06688975,0.91247994
403,1778516344820,3.91192055,3.194515625,3.0057394,0.623387975,-0.4748713675,0.24037546875
404,1778516344830,3.950921866666667,3.2911270333333333,2.397253666666667,2.407725333333333,-0.86579968,-0.1718058516666666
405,1778516344840,4.0802994,3.3272674,2.2175684,5.1213416249999995,-1.800868925,-0.967534175
406,1778516344850,4.0802994,3.3272674,2.2175684,5.8359013,-2.0700696,-1.2014192
407,1778516344860,4.0802994,3.3272674,2.2175684,5.8359013,-2.0700696,-1.2014192
408,1778516344870,4.460280733333334,3.468738933333333,1.456711,5.8359013,-2.0700696,-1.2014192
409,1778516344880,4.14176605,3.15033625,1.2901056999999998,3.0218741,-1.755474015,-2.7791696
410,1778516344890,3.6332607,2.7611978,1.5039291,-1.0094548,-0.95554596,-4.972443
411,1778516344900,3.6332607,2.7611978,1.5039291,-1.0094548,-0.95554596,-4.972443
412,1778516344910,3.424757775,2.50993295,1.9979519999999995,-1.0094548,-0.95554596,-4.972443
413,1778516344920,3.3552568,2.426178,2.1626263,-1.0094548,-0.95554596,-4.972443
414,1778516344930,3.3552568,2.426178,2.1626263,-1.0094548,-0.95554596,-4.972443
415,1778516344940,3.3552568,2.426178,2.1626263,-1.0094548,-0.95554596,-4.972443
416,1778516344950,3.3552568,2.426178,2.1626263,-1.0094548,-0.95554596,-4.972443
417,1778516344960,3.2295787249999997,2.32162925,2.310089125,-1.0094548,-0.95554596,-4.972443
418,1778516344970,2.8525445,2.007983,2.7524776,-1.0094548,-0.95554596,-4.972443
419,1778516344980,2.8525445,2.007983,2.7524776,0.22693644,-0.77442443,-6.139501
420,1778516344990,2.8525445,2.007983,2.7524776,1.399454085,-0.8657105825,-6.344408275
421,1778516345000,2.8525445,2.007983,2.7524776,2.1440861,-0.9786570333333332,-6.440301466666667
422,1778516345010,2.8525445,2.007983,2.7524776,2.8516717,-1.1436925,-6.495483
423,1778516345020,2.8525445,2.007983,2.7524776,2.8516716999999994,-1.1436925,-6.495483
424,1778516345030,3.2213923,2.3999875499999996,2.1499577125,2.8516717,-1.1436925,-6.495483
425,1778516345040,4.3279357,3.5760012,0.34239805,2.8516716999999994,-1.1436925,-6.495483
426,1778516345050,4.3279357,3.5760012,0.34239805,2.8516717,-1.1436925,-6.495483
427,1778516345060,4.170832866666667,3.5246364666666667,0.27672348,2.8516716999999994,-1.1436925,-6.495483
428,1778516345070,3.8566272,3.421907,0.14537434,2.8516717,-1.1436925,-6.495483
429,1778516345080,3.81869825,3.2746727499999997,0.43328749,0.4931209749999999,-1.2421945,-4.824499275
430,1778516345090,3.7807693000000007,3.1274385,0.7212006399999998,-0.2930626,-1.2750285,-4.2675047
431,1778516345100,3.7807693,3.1274385,0.72120064,-0.8206975,-0.8717047,-5.572771
432,1778516345110,3.4451856750000003,2.73958055,1.28722453,-0.8206975,-0.8717047,-5.572771
433,1778516345120,2.2754986,1.320199,3.0020044,-0.8206975,-0.8717047,-5.572771
434,1778516345130,2.2754986,1.320199,3.0020044,-0.8206975,-0.8717047,-5.572771
435,1778516345140,2.23171555,1.160723225,2.927518375,5.47152,-1.6326901,-6.7354
436,1778516345150,2.1003664,0.6822959000000001,2.7040603,5.471520000000001,-1.6326901000000005,-6.735400000000001
437,1778516345160,2.1003664,0.6822959,2.7040603,5.47152,-1.6326901,-6.7354
438,1778516345170,1.8732802,0.0629305,1.8577303,6.5486283,-1.8075503,-6.8676524
439,1778516345180,1.8732802,0.0629305,1.8577303,6.5486283,-1.8075503,-6.8676524
440,1778516345190,1.8732802,0.0629305,1.8577303,6.73249865,-1.9033798,-6.87689185
441,1778516345200,1.8628525,-0.14982581,1.5621033,7.2473054,-2.576935,-6.9084277
442,1778516345210,1.8628525,-0.14982581,1.5621033,7.2473054,-2.576935,-6.9084277
443,1778516345220,1.8490103,-0.19891405,1.4241076,7.2473054,-2.576935,-6.9084277
444,1778516345230,-0.7128465,-2.180432,0.16080207,1.9877555,-1.2945762,-4.138154
445,1778516345240,-1.06893435,-2.5435173,0.3050635425,1.621465475,-0.925422675,-3.066658025
446,1778516345250,-1.1260413,-2.681376,0.4591730999999999,1.4993688,-0.8023715,-2.7094927
447,1778516345260,-1.029252135,-2.68165035,0.270396855,2.056477825,-0.2793563,-0.716354
448,1778516345270,-0.6625386466666666,-2.6915798333333334,-0.1601109666666666,1.3735305,0.70631295,0.4381431
449,1778516345280,-0.6278415,-2.69906,-0.17476629,1.3735305,0.70631295,0.4381431
450,1778516345290,-0.013537374,-2.6711924,-0.5860708,1.3735305,0.70631295,0.4381431
451,1778516345300,-0.013537374,-2.6711924,-0.5860708,0.3392338333333333,1.4078916999999995,0.6218608200000001
452,1778516345310,-0.013537374,-2.6711924,-0.5860708,-1.7293595,2.8110492,0.98929626
453,1778516345320,-0.013537374,-2.6711924,-0.5860708,-1.1679234366666666,2.4263567666666668,0.9175704933333334
454,1778516345330,-0.1491397935,-2.6948371250000003,-0.4983065125,-2.1507038275,3.0168724250000003,0.8744536150000001
455,1778516345340,-0.1943406,-2.7027187,-0.46905175,-2.852588,3.4701726,0.9078985
456,1778516345350,-0.1943406,-2.7027187,-0.46905175,-2.8525879999999995,3.4701726,0.9078985
457,1778516345360,-0.1943406,-2.7027187,-0.46905175,-2.852588,3.4701726,0.9078985
458,1778516345370,0.086448138,-2.639950933333333,-0.2363349333333333,-3.5314629333333336,3.8790450666666665,0.6291403
459,1778516345380,0.093785964,-2.6132014,-0.08085837,-3.8709004,4.0834813,0.4897612
460,1778516345390,0.093785964,-2.6132014,-0.08085837,-4.041179,3.9639046,0.41447207
461,1778516345400,0.093785964,-2.6132014,-0.08085837,-4.041179,3.9639046,0.41447207
462,1778516345410,-0.33471465,-2.4623387,0.26428372,-4.041179,3.9639046,0.41447207
463,1778516345420,-0.33471465,-2.4623387,0.26428372,-4.041179,3.9639046,0.41447207
464,1778516345430,-0.33471465,-2.4623387,0.26428372,-4.041179,3.9639046,0.41447207
465,1778516345440,-0.5977788,-2.2194588,0.6538186,-3.9639045666666664,3.832263133333333,0.5131268133333333
466,1778516345450,-0.64967203,-1.967005,0.8734046,-3.0448577,3.1143436,1.5007432
467,1778516345460,-0.64967203,-1.9670049999999997,0.8734046000000001,-3.0448577,3.1143436,1.5007431999999998
468,1778516345470,-0.6683316875,-1.6283725,0.7517969125,-2.4405594,2.923143,2.339003
469,1778516345480,-0.7202656133333334,-1.4132328666666665,0.6170685233333333,-2.426407766666667,2.7272078,3.099123
470,1778516345490,-0.6310429200000001,-1.1614092,0.545062305,-2.5428793,2.4911084,3.6465602
471,1778516345500,-0.570765,-1.077075,0.51923764,-2.5428793,2.4911084,3.6465602
472,1778516345510,-0.570765,-1.077075,0.51923764,-2.6825383499999997,2.3855815,3.9316051
473,1778516345520,-0.570765,-1.077075,0.51923764,-2.8221974,2.2800546,4.21665
474,1778516345530,-0.536616675,-0.988838135,0.5152434699999999,-2.8221974,2.2800546,4.21665
475,1778516345540,-0.4565103766666666,-0.8766567933333334,0.5340555333333333,-3.8020761333333337,2.3948972000000004,5.328373933333334
476,1778516345550,0.1455725199999999,-0.5874275600000001,0.6929520275000001,-5.4898458,3.218191,6.862002
477,1778516345560,0.31562817,-0.5069808,0.73071337,-5.4898458,3.218191,6.862002
478,1778516345570,0.31562817,-0.5069808,0.73071337,-5.4898458,3.2181909999999996,6.862002
479,1778516345580,0.31562817,-0.5069808,0.73071337,-5.4898458,3.218191,6.862002
480,1778516345590,0.5704194466666667,-0.4468350166666666,0.7565685333333333,-6.103154533333334,3.490535,7.017009000000001
481,1778516345600,1.9268198,0.0066467295,1.2837944,-7.9247546,4.0474405,6.9473705
482,1778516345610,1.9268198,0.0066467295,1.2837944,-7.9247546,4.0474405,6.9473705
483,1778516345620,1.9268198,0.0066467295,1.2837944,-7.9247546,4.0474405,6.947370500000001
484,1778516345630,1.7940072,0.1671439,1.7252836,-7.62222365,3.128393675,6.5309895
485,1778516345640,1.8395382333333332,0.2327371666666666,1.9867827333333337,-7.538535,3.0140092,6.508922000000001
486,1778516345650,1.8808415,0.2667229,2.122685,-6.86803425,2.4236842000000003,6.335970725
487,1778516345660,1.8808415,0.2667229,2.122685,-6.644534,2.2269092,6.2783203
488,1778516345670,1.4005086,0.28971204,1.7863847,-3.7148242,1.1160508,5.519931
489,1778516345680,1.249951,0.28849244,1.2594638,-3.7148242,1.1160508,5.519931
490,1778516345690,1.249951,0.28849244,1.2594638,-3.7148242,1.1160508,5.519931
491,1778516345700,1.2508352,0.29385862,1.04109735,-2.9129109,0.69253029,5.50454475
492,1778516345710,1.1064061,0.42221975,0.38971785,-2.811431025,0.4612796074999999,5.6131642
493,1778516345720,1.1064061,0.42221975,0.38971785,-2.8918362,0.453262,5.6520304999999995
494,1778516345730,1.146469375,0.4914615874999999,0.1505270775,-2.8918362,0.453262,5.6520305
495,1778516345740,1.1598238,0.5145422,0.07079682,-3.5992181,0.5468771,5.945093
496,1778516345750,1.1598238,0.5145422,0.07079682,-3.5992181,0.5468771,5.945093
497,1778516345760,1.2520242,0.51204205,-0.12695862,-3.5992181,0.5468771,5.945093
498,1778516345770,1.3154121,0.447556585,-0.20016411,-5.55314705,1.27709015,6.289239650000001
499,1778516345780,1.3788,0.38307112,-0.2733696,-6.7283754,1.7724255,6.4510426999999995
500,1778516345790,1.5615546,0.389382475,-0.17805918,-6.7283754,1.7724255,6.4510427
501,1778516345800,1.6224728,0.39148626,-0.14628904,-6.7283754,1.7724255,6.4510426999999995
502,1778516345810,1.6224728,0.39148626,-0.14628904,-7.12196355,1.923920125,6.449095525000001
503,1778516345820,1.6224728,0.39148626,-0.14628904,-8.302728,2.378404,6.443254
504,1778516345830,1.6224728,0.39148626,-0.14628904,-8.302728,2.378404,6.443254
505,1778516345840,1.6224728,0.39148626,-0.14628904,-8.302728,2.378404,6.443254
506,1778516345850,1.6675363666666667,0.3777049733333333,-0.07669148,-8.302728,2.378404,6.443254
507,1778516345860,1.7576635,0.3501424,0.06250364,-9.7113065,2.32327315,5.92233875
508,1778516345870,1.7576635,0.3501424,0.06250364,-9.976346,2.133294,5.7690115
509,1778516345880,1.7731929666666666,0.3844533333333333,0.2343835866666666,-9.976346,2.133294,5.7690115
510,1778516345890,1.89892185,0.5559623,0.49818457,-9.8741405,1.629864775,5.448727175
511,1778516345900,2.2528143,1.0190228,1.0317676,-9.50827,0.7076873999999999,4.8099527
512,1778516345910,2.2528143,1.0190228,1.0317676,-9.50827,0.7076874,4.8099527
513,1778516345920,2.229378,1.2022652,1.0756522333333334,-9.186598666666669,0.4539746976666666,4.485176066666667
514,1778516345930,2.03394485,2.109894375,1.02502935,-8.077318,-0.22785273,3.1245756
515,1778516345940,2.1574225666666664,2.2513101333333334,1.1662876,-8.083426666666666,-0.1350012146666666,3.014772633333333
516,1778516345950,2.21561705,2.8873942,2.3901088,-7.4885205,0.1680643004999999,2.35202215
517,1778516345960,2.0682304,3.3640379999999994,3.3611104,-6.1926464999999995,0.29749137,1.8116736
518,1778516345970,2.0682304,3.364038,3.3611104,-6.1926465,0.29749137,1.8116736
519,1778516345980,2.57136955,4.252535,4.104538,-3.7054322,0.24098633,1.85596135
520,1778516345990,2.9015718000000006,4.417514,4.024503,0.3866777,0.09941832,1.4760032
521,1778516346000,2.9015718,4.417514,4.024503,0.3866777,0.09941832,1.4760032
522,1778516346010,2.9015718000000006,4.417514,4.024503,0.3866777,0.09941832,1.4760032
523,1778516346020,2.9015718,4.417514,4.024503,0.3866777,0.09941832,1.4760032
524,1778516346030,2.9015718,4.417514,4.024503,0.3866777,0.09941832,1.4760032
525,1778516346040,2.9015718000000006,4.417514,4.024503,0.3866777,0.09941832,1.4760032
526,1778516346050,2.9015718,4.417514,4.024503,0.3866777,0.09941832,1.4760032
527,1778516346060,3.218297475,4.4561595,3.678979825,2.04093895,-0.0657825525,0.6938665800000001
528,1778516346070,3.550146,4.456053,3.1362195000000006,4.983285933333334,-0.3721187466666666,-1.0190759399999998
529,1778516346080,3.550146,4.456053,3.1362195,5.997017,-0.539394,-1.8223637
530,1778516346090,3.4417454666666667,4.284599833333333,2.7794304666666663,5.997017,-0.539394,-1.8223636999999997
531,1778516346100,3.119755,3.6385052,1.3854467,5.997017,-0.539394,-1.8223637
532,1778516346110,3.119755,3.6385052,1.3854467,6.243806533333333,-0.8349509533333334,-2.1269819
533,1778516346120,3.0418696,3.4984664,0.8998848125,6.3672013,-0.98272943,-2.279291
534,1778516346130,2.848703,3.2577512,0.083480485,6.1114016,-1.5903877,-2.5998425
535,1778516346140,2.848703,3.2577512,0.083480485,6.1114016,-1.5903877,-2.5998425
536,1778516346150,2.848703,3.2577512,0.083480485,5.247867149999999,-1.7915914,-2.7557659
537,1778516346160,2.848703,3.2577512,0.083480485,4.3843327,-1.9927950999999997,-2.9116893000000004
538,1778516346170,2.83495215,3.1810089,0.1401606175,4.3843327,-1.9927951,-2.9116893
539,1778516346180,2.8212013,3.1042666000000003,0.19684075,4.3843327,-1.9927950999999997,-2.9116893000000004
540,1778516346190,2.8212013,3.1042666,0.19684075,3.33257545,-1.76723315,-3.03852015
541,1778516346200,2.6362514,2.9059014,0.66345334,0.8194757,-0.87109387,-3.4341316
542,1778516346210,2.4571351333333333,2.749916733333333,1.0732333799999998,0.8194757,-0.87109387,-3.4341316
543,1778516346220,2.367577,2.6719244,1.2781234,0.8194757,-0.87109387,-3.4341316
544,1778516346230,2.367577,2.6719244,1.2781234,0.15344171,-0.351552955,-3.640871425
545,1778516346240,2.367577,2.6719244,1.2781234,-0.06856962,-0.17837265,-3.7097847
546,1778516346250,2.367577,2.6719244,1.2781234,-0.06856962,-0.17837265,-3.7097847
547,1778516346260,2.2203732666666665,2.4906941333333332,1.8200656666666664,-0.0770199266666666,-0.1555670166666666,-3.8375573666666662
548,1778516346270,2.1467714,2.400079,2.0910368,0.95852391,-0.6475934999999999,-4.05690885
549,1778516346280,2.1467714,2.400079,2.0910368,1.9982929,-1.1510228,-4.212374
550,1778516346290,1.961273,2.2159067500000003,2.579845625,3.26553295,-1.259031425,-4.398382475
551,1778516346300,1.8994402,2.154516,2.7427819,3.6879463,-1.2950343,-4.4603853
552,1778516346310,1.8994402,2.154516,2.7427819,3.6879463,-1.2950343,-4.4603853
553,1778516346320,1.8994402,2.154516,2.7427819,3.6879463,-1.2950343,-4.4603853
554,1778516346330,1.7991904333333333,1.8331761,2.6298485,3.6879463,-1.2950343,-4.4603853
555,1778516346340,1.6529623249999998,1.29466395,2.3211263,3.6879463,-1.2950343,-4.4603853
556,1778516346350,1.709673,1.61722855,2.8491296,3.6879463,-1.2950343,-4.4603853
557,1778516346360,1.6758906,1.4716103,2.7152193,4.897154,-0.97020674,-4.6746464
558,1778516346370,1.6758906,1.4716103,2.7152193,4.897154,-0.97020674,-4.6746464
559,1778516346380,1.6758906,1.4716103,2.7152193,4.897154,-0.97020674,-4.6746464
560,1778516346390,1.6758906,1.4716103,2.7152193,5.681658,-0.7330383,-4.858364
561,1778516346400,1.6269649666666666,1.2709278333333334,2.4645543,6.2767424,-0.6861035000000001,-5.0170873333333335
562,1778516346410,1.54201075,0.62131672,1.59649555,6.83512405,-0.8158105499999999,-5.27192
563,1778516346420,1.5867694,0.2602895699999999,1.09302107,7.0593114,-1.2544118,-5.6309557
564,1778516346430,,,,,,
565,1778516346440,,,,,,
566,1778516346450,2.6035666,-0.06085721,2.186042,5.6296577,-6.1743205,-7.5047085
567,1778516346460,2.6035666,-0.06085721,2.186042,5.7809234,-6.5550423,-7.564955
568,1778516346470,2.6035666,-0.06085721,2.186042,5.7809234,-6.5550423,-7.564955
569,1778516346480,3.0193834,-0.042075627,2.1609797,6.3039765,-7.454694,-7.963238999999999
570,1778516346490,3.0193834,-0.042075627,2.1609797,6.3039765,-7.454694,-7.963239
571,1778516346500,3.228664,-0.08483726925,2.01243455,6.5005223999999995,-7.988781,-8.51210175
572,1778516346510,3.2984242,-0.09909115,1.9629195,6.576626,-8.296262666666665,-8.862433
573,1778516346520,3.4133089,-0.16696097,1.920234,6.5978026,-8.555168,-9.197187
574,1778516346530,3.4133089,-0.16696097,1.920234,6.597802599999999,-8.555168,-9.197187
575,1778516346540,3.0997845,-0.28358362,1.73293645,6.368575549999999,-8.13557975,-9.5033835
576,1778516346550,2.7862601,-0.40020627,1.5456389,6.1393485,-7.7159915,-9.80958
577,1778516346560,2.7862601,-0.40020627,1.5456389,6.1393485,-7.7159915,-9.80958
578,1778516346570,2.7862601,-0.40020627,1.5456389,6.1393485,-7.7159915,-9.80958
579,1778516346580,2.7862601,-0.40020627,1.5456389,6.1393485,-7.7159915,-9.80958
580,1778516346590,2.7862601,-0.40020627,1.5456389,6.1393485,-7.7159915,-9.80958
581,1778516346600,2.7862601,-0.40020627,1.5456389,6.1393485,-7.7159915,-9.80958
582,1778516346610,2.7862601,-0.40020627,1.5456389,5.7296104,-6.942636,-9.5030775
583,1778516346620,2.6461452,-0.4280280199999999,1.471732175,5.7296104,-6.942636,-9.5030775
584,1778516346630,2.2258005,-0.51149327,1.250012,5.729610400000001,-6.942636,-9.5030775
585,1778516346640,1.47342435,-0.60840443,0.4481968925,4.83072235,-6.442795500000001,-8.2130451
586,1778516346650,1.1871119499999998,-0.69087875,0.1472951785,3.440660425,-5.636797325,-6.907053325
587,1778516346660,0.8540132766666666,-1.199135,0.1091323826666666,1.73602815,-4.765156266666668,-5.833966766666666
588,1778516346670,0.40093803,-1.9146239,0.23458686,-0.27565295,-4.070806,-4.6480737
589,1778516346680,-0.2349324066666666,-2.334364,1.1260819333333334,-1.4356859999999998,-3.5902078,-4.151135
590,1778516346690,-1.0768615625,-2.9510715249999997,2.280605575,-1.4886786,0.1201113625,-1.51838197
591,1778516346700,-1.047683,-3.0534708,2.3455637,-0.9797769533333334,0.9501499666666668,-0.4879795233333333
592,1778516346710,0.036282603,-2.9909062,1.8222406,-0.5182809975,2.9210048,0.8868235975000001
593,1778516346720,0.15580176225,-2.9548218,1.668847475,-0.963143535,4.038773675,1.0581713499999998
594,1778516346730,0.51435924,-2.8465686,1.2086681,-1.1036807,4.318359,1.0688615
595,1778516346740,0.51435924,-2.8465686,1.2086681,-1.1036807,4.318359,1.0688615
596,1778516346750,0.3641269099999999,-2.7232890333333333,1.1520997666666666,-1.481093633333333,4.662021666666667,1.1170180333333333
597,1778516346760,0.06366225,-2.4767299,1.0389631,-2.2359195,5.349347,1.2133311
598,1778516346770,-0.0898019833333333,-2.363166366666667,1.0487197333333331,-2.4384213333333333,5.587177199999999,1.5226325333333337
599,1778516346780,-0.500334075,-1.9639561,0.98624652,-2.843425,6.0628376,2.1412354
600,1778516346790,-0.6039377,-1.7918729000000002,0.90426004,-3.041854333333333,6.185366933333333,2.5600853333333333
601,1778516346800,-0.6039377,-1.7918729,0.90426004,-3.438713,6.4304256,3.3977852
602,1778516346810,-0.34615842,-1.4574021333333336,0.9172079866666666,-3.9639046,6.475019,4.2994223
603,1778516346820,-0.24166043,-1.3765438,0.9374937,-4.372726125,6.5105255,4.917694225
604,1778516346830,0.3164412333333333,-1.0982144666666669,1.1459001666666666,-5.7531288,6.6005008,7.002653566666666
605,1778516346840,0.740592,-1.0031683425,1.33626695,-6.061005,6.5674124,7.4629407
606,1778516346850,1.47597025,-0.799924735,1.7771768,-7.077790224999999,6.629987975000001,8.769734750000001
607,1778516346860,1.6671094999999998,-0.7243714999999998,1.9278563,-7.355428,6.6853094,9.205892
608,1778516346870,1.827682875,-0.6861680649999999,1.96230955,-7.55415055,6.81920315,9.53278175
609,1778516346880,2.309403,-0.57155776,2.0656693,-7.6203914,6.863834399999999,9.641745
610,1778516346890,2.309403,-0.57155776,2.0656693,-7.6203914,6.8638344,9.641745
611,1778516346900,2.309403,-0.57155776,2.0656693,-7.6203914,6.863834399999999,9.641745
612,1778516346910,2.995372875,-0.3077161225,2.2641108250000004,-7.6203914,6.8638344,9.641745
613,1778516346920,3.2240295,-0.21976891,2.330258,-7.6988112,6.87483005,9.644761
614,1778516346930,3.616654033333333,0.0260584366666666,2.7096296,-7.823911066666668,6.6832222,9.310197333333331
615,1778516346940,3.553256,0.309255845,3.45568945,-7.05671525,6.4257679,8.4094765
616,1778516346950,3.293545700000001,0.46953958,4.0120635,-4.9976414,6.1357343333333345,7.0501485
617,1778516346960,2.615625175,0.476186325,3.19460705,-2.3329326,5.927798225,6.34849325
618,1778516346970,2.5053291,0.48874804,2.9812105,0.17608191,5.3323956,6.035654
619,1778516346980,2.6760707,1.3420905,0.25239277,0.93477654,5.115691,6.309169
620,1778516346990,2.6760707,1.3420905,0.25239277,0.93477654,5.115691,6.309169
621,1778516347000,2.7006250333333335,1.3899998,-0.10992512,-1.9782871333333336,6.5009297,6.655020666666666
622,1778516347010,2.74817875,1.3754461,-0.88962505,-6.0749023,7.5806086,6.30542765
623,1778516347020,2.7466238,1.2650738,-0.9446892,-8.7496265,7.880314333333334,5.7497692
624,1778516347030,2.5331357,0.90153125,-0.31117667625,-10.4036455,7.8247256,5.220149
625,1778516347040,2.461973,0.7803504,-0.100005835,-10.908374,7.193701700000001,4.8204904
626,1778516347050,2.176590475,0.679429875,0.31582634875,-10.686439,6.7282606000000005,4.79834655
627,1778516347060,1.614453975,0.7625292,1.5219333000000002,-8.67230125,4.0569088749999995,5.14344705
628,1778516347070,1.8829757,1.0014608,1.4654514,-8.222857,3.6318994,5.2806244
629,1778516347080,1.8829757,1.0014608,1.4654514,-6.711118,2.4129176,5.482821
630,1778516347090,1.8829757,1.0014608,1.4654514,-6.711118,2.4129176,5.482821
631,1778516347100,2.5679343666666665,1.3616851333333333,1.1517338866666669,-6.711118,2.4129176,5.482821
632,1778516347110,2.9104137,1.5417973,0.99487513,-6.711118,2.4129176,5.482821
633,1778516347120,2.9104137,1.5417973,0.99487513,-5.628168775,1.9269362,4.97839905
634,1778516347130,3.194820566666667,1.7097339,0.6446108033333333,-5.2671857,1.7649424,4.8102584
635,1778516347140,3.276776575,1.86198365,0.28466603,-5.02478645,1.7435621,3.218229125
636,1778516347150,3.0960343,2.066828,-0.2697718,-5.728846999999999,1.5882496999999998,1.5291485
637,1778516347160,2.630885175,1.9051112,0.025413077,-6.7994264,1.289651075,1.041105275
638,1778516347170,2.584175,1.9685296,0.3793514,-7.1562862,1.1901182,0.8784242
639,1778516347180,2.907197,2.11359895,0.7446776374999999,-7.90803265,0.7612144750000001,1.0217485000000002
640,1778516347190,3.34461575,2.2944022,1.523442525,-7.77963635,0.7081455299999999,0.77976946
641,1778516347200,3.6743605,2.426849,2.180432,-7.259828,0.8452847599999999,0.41370848
642,1778516347210,3.6743605,2.426849,2.180432,-6.01648825,0.97898788,0.162032
643,1778516347220,4.0326135333333335,2.8005698999999997,3.1369513999999996,-4.7731485,1.112691,-0.0896444799999999
644,1778516347230,3.9584017,2.94825125,3.33001125,-2.075262,0.79259765,-0.6027713
645,1778516347240,3.8456514,2.9881620000000004,3.3330603,-0.4840598,0.5390885833333333,-0.8105672666666667
646,1778516347250,3.473769825,3.082862925,2.86167595,3.451694,-0.51144695,-1.0876455
647,1778516347260,3.4643485999999997,3.0768870000000006,2.7660758,4.208301533333334,-0.8499172,-1.1141163666666667
648,1778516347270,3.4643486,3.076887,2.7660758,5.7215166,-1.5268577,-1.1670581
649,1778516347280,3.5263035499999997,3.09048525,0.8337681400000001,6.5465665,-2.25745255,-1.43858765
650,1778516347290,3.5350845,3.1188404999999997,0.3978890799999999,7.3716164,-2.988047400000001,-1.7101172
651,1778516347300,3.4756296,3.3599522,-0.33831242,6.5877235999999995,-3.138892875,-1.89498035
652,1778516347310,3.4756296,3.3599522,-0.33831242,6.326426,-3.1891747,-1.9566014
653,1778516347320,3.4756296,3.3599522,-0.33831242,6.3264260000000005,-3.1891747,-1.9566014
654,1778516347330,3.4678245,3.5903316,-0.5928395,4.3661594,-3.3527339,-2.313194
655,1778516347340,3.495752833333333,3.6217969333333335,-0.5757652999999999,4.074013033333333,-3.3579262666666665,-2.3793710666666668
656,1778516347350,3.509717,3.6375296,-0.5672282,3.4897203,-3.368311,-2.5117252
657,1778516347360,3.5007327333333333,3.484674866666667,-0.30282254,1.4839443666666667,-3.0251064666666667,-3.258100733333334
658,1778516347370,3.16533715,3.033713625,0.3679330325,-0.614835875,-2.3981042749999997,-4.204318125
659,1778516347380,2.712902,2.5923464,1.1492743,-0.9801333,-2.2463043,-4.395328
660,1778516347390,1.9332835,1.4774643800000002,2.39562765,0.5122869000000001,-1.2902237,-6.1012457
661,1778516347400,1.6382664,0.8643797599999999,2.660826,2.792876,-1.318858,-6.4177504
662,1778516347410,1.8472877,0.48473868,2.1417713000000003,4.92105415,-2.38336715,-6.5334328500000005
663,1778516347420,2.2253127,0.08268775,1.5563713,5.5794907,-2.870914,-6.611089
664,1778516347430,2.2253127,0.08268775,1.5563712999999997,5.5794907,-2.8709140000000004,-6.611089
665,1778516347440,2.2985792,0.010092055,1.54332175,5.428301425,-2.709989125,-6.881167974999999
666,1778516347450,2.3718457,-0.06250364,1.5302722,5.291416566666666,-2.5352435,-7.087869533333333
667,1778516347460,2.3718457,-0.06250364,1.5302722,5.1184397,-2.2930355,-7.32122
668,1778516347470,2.3718457,-0.06250364,1.5302722,4.7480519,-1.7845919,-7.638666333333333
669,1778516347480,2.008394575,-0.2667533825,1.584879025,4.40536925,-1.533920825,-7.73668465
670,1778516347490,1.9007003,-0.3410158433333333,1.693838633333333,4.331289,-1.7202983666666667,-7.651850666666667
671,1778516347500,1.9276125,-0.35337427,1.8753533,4.288121,-2.0906863,-7.5226526
672,1778516347510,1.9276124999999995,-0.35337427,1.8753533,4.288121,-2.0906863,-7.5226526
673,1778516347520,1.8497726,-0.34957832,1.8635843,4.367800750000001,-2.230421725,-7.36665295
674,1778516347530,1.7199174,-0.22568391,1.5583836,4.4320562500000005,-2.71227985,-6.5408398
675,1778516347540,1.9902177333333333,-0.1689732833333333,1.4064235333333333,3.974187333333333,-2.6411268,-6.212957866666667
676,1778516347550,2.1253679,-0.14061797,1.3304435,3.7743835,-2.5951083,-6.1086526
677,1778516347560,,,,,,
678,1778516347570,2.3204403,-0.764008,2.3899565,0.89904094,2.2721133,-7.6900296
679,1778516347580,1.9043794,-1.0247549,2.8150423,0.89904094,2.2721133,-7.6900296
680,1778516347590,1.9043794,-1.0247549,2.8150423,3.5097263,0.91874135,-7.361995
681,1778516347600,1.9043794,-1.0247549,2.8150423,3.5097263,0.91874135,-7.361995
682,1778516347610,1.7264828333333335,-1.2345435666666666,2.6915594333333335,3.5097263,0.91874135,-7.361995
683,1778516347620,1.6143014,-1.3763608,2.549539,4.716796,0.17165314,-7.2277575
684,1778516347630,1.6143013999999998,-1.3763607999999998,2.549539,4.716796,0.17165314,-7.2277575
685,1778516347640,1.6143014,-1.3763608,2.549539,6.4977736,-1.3078625,-7.040069
686,1778516347650,1.4349009,-1.6475961,1.6775979,6.4977735999999995,-1.3078625,-7.040069
687,1778516347660,1.2682905,-1.814618175,1.2839622,7.0036849000000005,-1.6630424,-6.9911615000000005
688,1778516347670,1.2127537,-1.8702922,1.1527503,7.172322,-1.7814357,-6.974859
689,1778516347680,0.7614671799999999,-2.182911933333333,0.4672020999999999,7.5889316,-2.476295,-6.827488
690,1778516347690,0.1164092229999999,-2.4997494,-0.37913797,7.0975668,-2.8144853,-6.4878469
691,1778516347700,-0.034270294,-2.5305743,-0.52783567,6.606202,-3.1526756,-6.1482058
692,1778516347710,-0.69947172,-2.7315212,-0.5004763433333334,6.125247566666666,-2.999246566666667,-5.929516033333333
693,1778516347720,-0.9605439,-2.804249,-0.40856043,4.55571855,-2.400776875,-5.152762625
694,1778516347730,-0.9605439,-2.804249,-0.40856043,4.3531785,-2.303573,-5.039638
695,1778516347740,-1.1193946,-2.8669965666666664,-0.3498171666666667,3.8024834666666663,-1.7783306566666666,-4.3278273333333335
696,1778516347750,-1.4794307999999998,-3.055772825,-0.221705015,2.49969875,-0.5162193325,-2.5563946499999997
697,1778516347760,-1.5124663,-3.5812454,-0.22934265,1.8955148,0.11866058,-1.5129606000000002
698,1778516347770,-1.09982025,-3.7964717,-0.311512075,0.43027822,1.3149638,0.3765220549999999
699,1778516347780,-0.3451420699999999,-3.896569075,-0.2505938925,-0.411570445,1.924149125,1.0800861
700,1778516347790,0.0766711394266666,-3.4475384666666664,0.2497909933333333,-2.081574133333333,3.407406233333333,1.9477438333333332
701,1778516347800,0.00079272914,-3.3345847,0.33532444,-2.37741105,3.83810445,1.9757291
702,1778516347810,0.00079272914,-3.3345847,0.33532444,-2.3102922,4.047135,1.7880025999999998
703,1778516347820,-0.360752755,-3.0616269,0.37061614,-1.90086,3.527594,1.8101465
704,1778516347830,-0.6706489,-2.8497396,0.44008666,-1.6904932499999998,3.2390365,1.91246635
705,1778516347840,-0.6706489000000001,-2.8497396,0.44008666,-1.4801265,2.950479,2.0147862
706,1778516347850,-0.6706489,-2.8497396,0.44008666,-1.4801265,2.950479,2.0147862
707,1778516347860,-0.6706489000000001,-2.8497396,0.44008666,-1.3471106,2.802089666666667,2.1437297333333336
708,1778516347870,-0.8904483249999999,-2.72076855,0.4957910949999999,-1.0810788,2.505311,2.4016168
709,1778516347880,-1.3694701,-2.4150798,0.36642382,-1.172594075,2.3446154,4.198858475
710,1778516347890,-1.5565542,-2.2799501,0.2004994999999999,-1.297936,2.3545802,4.4901648
711,1778516347900,-1.396468665,-2.1810572,0.00798826875,-3.1373659,2.807689425,6.0699768999999995
712,1778516347910,-0.97591066,-2.061218,-0.2537953,-4.45107,3.1720705,7.079317
713,1778516347920,-0.50746864,-2.0265207,-0.25471,-8.235036000000001,4.2869760999999995,8.60128825
714,1778516347930,0.5161277,-2.028289,0.0151838129999999,-9.496358,4.6586113,9.108612
715,1778516347940,1.1097598,-2.0701816,0.5617401,-9.496358,4.6586113,9.108612
716,1778516347950,1.1097598,-2.0701816,0.5617401,-10.50176625,4.58126045,9.3499035
717,1778516347960,1.1097598,-2.0701816,0.5617401,-11.5071745,4.5039096,9.591195
718,1778516347970,1.62924145,-2.05396115,1.2890080999999998,-11.5071745,4.5039096,9.591195
719,1778516347980,2.1487231,-2.0377407,2.0162761,-12.038678333333332,4.062203066666666,9.721462333333331
720,1778516347990,2.6040544000000003,-1.898845575,2.9160085,-13.101686,3.17879,9.981997
721,1778516348000,2.7558315000000007,-1.8525472,3.2159193,-12.871694666666665,2.2879448666666664,9.901973
722,1778516348010,3.0190938750000003,-1.1289988,4.077966825,-9.89082475,0.8429176700000001,9.20341075
723,1778516348020,2.794431466666667,-0.40636518,3.5935228,-4.378223866666667,-0.3293581833333333,8.277733333333332
724,1778516348030,2.568717025,-0.26978708,2.964304025,-2.2102633,-1.2405146,7.992255
725,1778516348040,2.4158728,-0.22428137,2.5724063,-1.2823589,-1.380402733333333,7.942469866666666
726,1778516348050,2.4646713499999997,-0.163058288,2.3985851499999997,-0.69356112,-1.357877075,7.9597651
727,1778516348060,2.93233575,0.3409650349999999,0.87194112,-1.327791975,0.14569134,7.884972124999999
728,1778516348070,2.9234023,0.41740242,0.49283364,-2.9640708,1.4807373,7.5223475
729,1778516348080,2.8509133,0.4329978525,0.33815997,-3.4651332,1.8000672,7.46065
730,1778516348090,2.6954622500000003,0.3296229,0.31206088,-5.4672439,2.6182447499999997,7.2695255
731,1778516348100,2.2853162,-0.0882368499999999,0.7430922,-7.4693546,3.4364223,7.078401
732,1778516348110,2.2853162,-0.08823685,0.7430922,-8.79775765,3.4480288750000003,6.851426425
733,1778516348120,2.214783733333334,-0.0757971,1.8467338,-9.206757333333334,2.3739242,6.6624527
734,1778516348130,2.3231843,0.055552024,2.7275982000000005,-8.220108000000002,1.3972015666666666,6.5457266333333335
735,1778516348140,2.3231843,0.055552024,2.7275982000000005,-7.8198385,1.138042,6.503271600000001
736,1778516348150,3.0616114249999997,0.6907109935,2.466409125,-6.4619615,0.7512115500000001,6.14125755
737,1778516348160,3.388734266666667,1.39221535,1.7107705666666666,-5.1040845,0.3643810999999999,5.7792435
738,1778516348170,3.2876512333333334,1.7486182666666668,1.1628117866666667,-3.8559341,0.27137688,4.249026
739,1778516348180,3.0045047,1.9716394,0.73546976,-3.88445385,0.361250425,4.022509525
740,1778516348190,2.7234821499999997,2.0546930999999997,0.48527222,-4.887914425,1.012089165,2.9573132749999997
741,1778516348200,2.7382085000000003,2.0890243,0.85200095,-6.396675599999999,0.7425067,2.7727172
742,1778516348210,3.24284165,2.3315993500000003,1.3114941875,-6.323295375,0.4914410849999999,2.741104925
743,1778516348220,3.4110527000000004,2.4124577,1.4646586,-6.1031547,-0.26175576,2.6462681
744,1778516348230,3.5249007,2.696194,1.7584562,-5.573382,-0.86162543,2.286316
745,1778516348240,3.5249007,2.696194,1.7584562,-5.573382,-0.86162543,2.286316
746,1778516348250,3.342817,3.1677458,2.098354,-5.0926309,-0.3090596325,2.3816873
747,1778516348260,3.4667266666666663,3.3680419333333336,2.3655242,-4.7563496,0.0954476999999999,2.496759
748,1778516348270,3.5286815,3.46819,2.4991093,-4.7563496,0.0954477,2.496759
749,1778516348280,4.622586833333333,3.8752260333333335,3.2505961000000005,-1.7126116466666668,0.4941391,1.649998
750,1778516348290,5.690301675,4.126856625,3.84068125,-0.19074267,0.6934848,1.2266175
751,1778516348300,5.712101425,3.34223775,3.4326545,4.884936575,-0.8795314125,-1.86821684
752,1778516348310,5.494040000000001,2.9866378,3.104998,6.7615147,-1.8307631,-2.9639182
753,1778516348320,5.025125525,2.440340725,2.15957725,7.951785175,-2.77546625,-3.94023355
754,1778516348330,4.8409939,2.2443384,1.7754695,8.340906666666667,-3.1303791000000003,-4.349055066666667
755,1778516348340,4.448506525,2.2613515,1.152018385,8.337089,-3.150385,-4.3907466
756,1778516348350,3.4380052,2.3958106,-0.30452996,1.174083,-0.06688975,-5.126992
757,1778516348360,3.0196273,2.3516006,-0.004451479,1.174083,-0.06688975,-5.126992
758,1778516348370,3.0196273,2.3516006,-0.004451479,1.174083,-0.06688975,-5.126992
759,1778516348380,3.0196273,2.3516006,-0.004451479,0.0022398266666666,0.6735807500000001,-5.268712666666667
760,1778516348390,2.7785769,2.1153674,1.132688,-0.58368176,1.043816,-5.339573
761,1778516348400,2.5952733,1.8516934,1.9608461,-0.014202617,0.8538369,-5.7615285
762,1778516348410,2.5952733,1.8516934,1.9608461,-0.014202617,0.8538369,-5.7615285
763,1778516348420,2.5647838,1.5975931999999995,2.561308,-0.014202617,0.8538369,-5.7615285
764,1778516348430,2.5647838,1.5975932,2.561308,0.30008756225,0.6849708375,-5.846591475
765,1778516348440,2.601574533333333,1.4721590333333332,2.6434469000000003,2.5370761666666666,-0.3280346299999999,-6.460358133333333
766,1778516348450,2.7434528,0.18153499,2.4077623,4.334089,-0.77503526,-7.0603805
767,1778516348460,2.7434528,0.1815349899999999,2.4077623,6.25694,-0.9228647,-8.0863285
768,1778516348470,2.503576025,-0.2449837925,2.100427375,7.037625800000001,-1.022855675,-8.410812625
769,1778516348480,2.0732918,-0.75004375,1.6270462,7.297854400000001,-1.056186,-8.518974
770,1778516348490,1.959779,-0.7420402375,1.173818425,6.522971675,-2.06461,-7.996684325
771,1778516348500,1.9813554333333332,-0.7331322,1.0770546666666667,5.552561333333333,-2.4426464333333335,-7.687535466666667
772,1778516348510,2.100869425,-0.6915952,1.4033898,4.51585945,-2.3573671750000003,-7.7419535
773,1778516348520,2.151324666666667,-0.6471312433333333,1.9056192333333335,3.8148026,-2.134006833333333,-7.689419099999999
774,1778516348530,2.160187,-0.62796347,1.91154435,3.6952765,-2.0344868,-7.6613193
775,1778516348540,2.1500645,-0.5937694225,1.790515975,3.7489945,-1.82110385,-7.682279325
776,1778516348550,2.1451252,-0.58747333,1.7563219000000003,3.7669005,-1.7499762,-7.689266
777,1778516348560,2.125947225,-0.5945164225,1.7212894,3.7669005,-1.7499762,-7.689266
778,1778516348570,2.0684133,-0.6156457,1.6161918999999998,3.6974146,-1.7081319,-7.7424116
779,1778516348580,2.0684133,-0.6156457,1.6161919,3.59032225,-1.707559275,-7.71835865
780,1778516348590,1.966761,-0.6138163,1.4605120000000005,3.5614970666666665,-1.7499253,-7.7107482
781,1778516348600,1.9405401,-0.5966811,1.3937398,3.5752416,-1.8350391,-7.7115626
782,1778516348610,1.8012024999999998,-0.61985326,1.2952585,3.6862664,-2.1418462,-7.678271
783,1778516348620,1.30400895,-0.85187893,0.90999212,3.5300376499999997,-2.43704685,-7.1184127
784,1778516348630,0.42159473625,-1.481427825,0.3836046925,2.983542325,-2.2224805,-5.9476512999999995
785,1778516348640,-0.028904125,-2.2021406,0.26519838,2.0024164,-1.3634512,-3.7003162
786,1778516348650,-0.0834347375,-2.1403992250000003,0.72182568,2.5444828,-1.2431871375,-4.33844145
787,1778516348660,1.3819709,-0.76272744,0.7308963,3.1148019999999996,-2.48164,-6.1257567
788,1778516348670,1.3819709,-0.76272744,0.7308963,3.114802,-2.48164,-6.1257567
789,1778516348680,1.3819709,-0.76272744,0.7308963,3.114802,-2.48164,-6.1257567
790,1778516348690,0.35739893,-1.3858125,0.36044785,3.114802,-2.48164,-6.1257567
791,1778516348700,-0.023294043,-1.3840442,0.82437736,-3.2262847,4.3036985,5.966779
792,1778516348710,0.1376096546666666,-1.1951917333333333,0.55598772,-4.401284233333333,3.8529817,7.043531000000001
793,1778516348720,0.11201873,-1.159214,0.5032611,-5.1071772499999994,3.5828392250000003,7.66200665
794,1778516348730,0.11201873,-1.159214,0.5032611,-5.462357,3.448487,7.902305600000001
795,1778516348740,0.11201873,-1.159214,0.5032611,-5.462357,3.448487,7.9023056
796,1778516348750,0.52783567,-1.3298947,0.7332744999999999,-5.985817566666667,3.326059466666667,8.2685704
797,1778516348760,1.607929175,-1.254112825,1.358874975,-8.07953285,2.6119071,9.8260735
798,1778516348770,2.9167961333333334,-0.9550760566666666,2.345705966666667,-9.141293333333332,1.8894571,10.571278
799,1778516348780,3.825711,-0.66388017,3.2812889,-9.171226,1.3831517,10.41174
800,1778516348790,3.825711,-0.66388017,3.2812889,-9.04531125,1.281977125,10.27765525
801,1778516348800,3.825711,-0.66388017,3.2812889,-8.667567,0.9784534,9.875401
802,1778516348810,3.7247295333333335,-0.4680150933333333,3.4333303333333336,-7.1538938666666665,1.1006773533333334,8.863044
803,1778516348820,3.18296015,0.058326575,3.4742271,-3.87594,1.6727017,7.3526797
804,1778516348830,2.8431537,0.19293809,3.211041,-3.6788595,1.64987065,7.3184712
805,1778516348840,2.6339545666666666,0.2197282699999999,2.926593466666666,-3.481779,1.6270396,7.2842627
806,1778516348850,2.19069175,0.234312455,2.2057384,-3.481779,1.6270396,7.2842627
807,1778516348860,2.077804,0.23470882,2.0128613,-3.155068066666667,1.4555900666666668,7.315314900000001
808,1778516348870,2.077804,0.23470882,2.0128613,-2.9917126,1.3698653,7.330841
809,1778516348880,1.93863445,0.1964291425,1.72958255,-2.9917126,1.3698653,7.330841
810,1778516348890,1.8922446,0.18366925,1.6351563,-3.1819970000000004,1.2525792,7.608479499999999
811,1778516348900,1.9199596,0.15119785,1.5838119000000002,-3.32096885,1.3148111,7.7082796
812,1778516348910,2.006174,0.0748620986666666,1.4928310333333332,-3.4599407,1.3770429999999998,7.8080797
813,1778516348920,2.2204802999999997,0.0353831619999999,1.2612016499999998,-4.241962675,1.88108315,7.837286625
814,1778516348930,2.84877915,0.2122837225,0.77742345,-6.1605761249999995,2.123940275,7.376618
815,1778516348940,2.9392567,0.19635291,0.8491959000000001,-6.4273715,2.1114557,7.242724
816,1778516348950,2.9392567,0.19635291,0.8491959,-6.846004925,2.1469622,6.8445925
817,1778516348960,2.9392567,0.19635291,0.8491959000000001,-7.4878335,2.1051943,5.775731
818,1778516348970,2.492797825,0.2851233374999999,1.470954825,-7.4878335,2.1051943,5.775731
819,1778516348980,2.3439782,0.31471348,1.6782078,-7.4878335,2.1051943,5.775731
820,1778516348990,2.3439782,0.31471348,1.6782078,-6.468452,1.750129,5.632025
821,1778516349000,2.042314275,0.4985809049999999,2.26844035,-5.67921425,1.53411175,5.66127
822,1778516349010,2.0559532333333332,0.8231374266666666,2.4616477666666667,-4.8899765,1.3180945,5.690515
823,1778516349020,2.3131227,1.0290844,2.1902497,-3.8088976,0.96982495,5.645692800000001
824,1778516349030,2.3131227,1.0290844,2.1902497,-2.2429953333333335,0.46186504,5.4024922
825,1778516349040,2.65424025,1.1476889,1.73037535,-1.2733486,0.14248432,5.0057354
826,1778516349050,2.9953578,1.2662934,1.270501,-1.2733486,0.14248432,5.0057354
827,1778516349060,3.4394487666666667,1.4569752666666669,0.4970412133333333,-1.3829989333333332,0.1461495066666666,4.5182648
828,1778516349070,3.705521175,1.65155975,-0.1756352405,-2.479044,0.37797287,3.488804
829,1778516349080,3.4971552,1.7335157,0.011829958,-4.2482624,1.0025826,2.8441887
830,1778516349090,3.24942745,1.78333575,0.467161379,-4.2482624,1.0025826,2.8441887
831,1778516349100,3.0016997,1.8331558,0.9224928,-5.208351674999999,1.62501605,3.316692875
832,1778516349110,2.998325433333333,1.9158434666666664,1.3939837333333334,-5.186246,1.6351335,3.4434474
833,1778516349120,3.831976525,2.288990225,2.43872465,-4.59595925,1.46718375,3.687258925
834,1778516349130,4.357774399999999,2.531346866666667,2.7722146,-2.3466387999999996,0.9253081333333334,4.400215
835,1778516349140,4.852478,2.7948582,2.8998642,-1.3897184,0.8492554,4.363258
836,1778516349150,5.354174266666667,3.4954274,3.4201387333333333,-0.1767436666666667,1.021061233333333,4.164574
837,1778516349160,5.873056200000001,4.085634499999999,3.35601905,4.29621515,1.07794805,3.1628312
838,1778516349170,6.109990775,3.5818401250000003,0.8768956775000001,9.1366345,-0.91064737,0.4725805999999999
839,1778516349180,4.450483299999999,2.987288066666667,-0.6217232433333333,9.021207333333336,-2.288148533333333,-1.9891808333333336
840,1778516349190,3.58155045,2.9414215,-1.959779,7.36741665,-2.42223345,-2.0757965
841,1778516349200,3.502806066666667,3.239152366666667,-3.094144,6.072611300000001,-2.5176811,-2.143679
842,1778516349210,3.901813,3.5088634,-2.1668336,-4.1641154,-0.90285885,-3.353192
843,1778516349220,3.901813,3.5088634000000005,-2.1668336,-4.1641154,-0.90285885,-3.353192
844,1778516349230,3.901813,3.5088634000000005,-2.1668336,-4.1641154,-0.90285885,-3.353192
845,1778516349240,3.4983442,2.8598926,0.1477830625,-6.264041150000001,-0.0171424124999999,-4.919145275
846,1778516349250,2.8422389999999997,2.3410309333333337,2.18354205,-5.3777523,0.13041973,-6.4779205
847,1778516349260,2.45204855,1.929350425,3.281090775,-2.872822975,-0.0533361725,-6.838789125
848,1778516349270,2.3764801,1.1224130799999998,3.16957515,1.933083,0.023671025,-7.3863535
849,1778516349280,2.3903832,-0.1204948349999999,2.5969198,5.176625,0.020616703,-7.722406
850,1778516349290,2.3537043,-0.4142924812499999,2.387502175,5.889848000000001,-0.1957441242499999,-7.79926
851,1778516349300,2.1798224,-0.7494949700000001,2.0072513,6.719008666666667,-0.6259332666666667,-7.910195733333334
852,1778516349310,2.130444525,-0.7680174025,1.8359913,7.04148195,-1.052177225,-7.9065052
853,1778516349320,1.9823109,-0.8235847,1.3222113,7.1217723,-1.7938058,-7.767457
854,1778516349330,2.0172926,-0.7946602333333334,1.3134913,7.1217723,-1.7938058,-7.767457
855,1778516349340,2.087256,-0.7368113,1.2960513,6.8758228,-1.9008599,-7.70759225
856,1778516349350,2.087256,-0.7368113,1.2960513,6.6298733,-2.007914,-7.647727499999999
857,1778516349360,2.1697608749999997,-0.7276187,1.384410075,6.0125937,-2.058616,-7.6309285
858,1778516349370,2.1972625,-0.7245545,1.413863,6.0125937,-2.058616,-7.6309285
859,1778516349380,2.1972625,-0.7245545,1.413863,5.81146635,-2.0282253999999997,-7.68827375
860,1778516349390,2.3959324333333334,-0.7210177,1.587653666666667,5.559433666666666,-1.9841920666666668,-7.826761933333333
861,1778516349400,2.417503875,-0.790564405,1.785469975,5.533981,-1.9773707,-7.8673334
862,1778516349410,2.32416,-0.7357746400000001,1.8260821333333332,5.228395666666667,-2.3267347333333332,-8.248309666666666
863,1778516349420,2.388020525,-0.6800702,1.9464246,4.344626225,-2.09332065,-8.158831
864,1778516349430,2.3428807,-0.6073525,2.1416492,3.9583049,-1.8255707333333333,-8.103942333333334
865,1778516349440,2.314250975,-0.5983428399999999,2.126709375,3.958406775,-1.832099375,-8.07934225
866,1778516349450,2.2149260666666666,-0.5641996066666667,2.0502213333333335,4.157243666666666,-1.8919514666666668,-8.047589666666667
867,1778516349460,2.205204775,-0.594516375,1.85132755,4.363563,-1.6846136,-7.986605
868,1778516349470,2.20153075,-0.64311677,1.7551633999999998,4.473977,-1.5102116,-8.025394
869,1778516349480,2.0182478,-0.8230358233333334,1.5210440333333333,4.655302333333333,-1.416851,-8.079354666666667
870,1778516349490,1.4896753500000002,-1.417216875,1.08530723,5.08163545,-1.3969725,-7.97179125
871,1778516349500,0.16155414,-2.8230103,0.1255357733333333,5.813655100000001,-2.358499866666667,-7.525248833333333
872,1778516349510,-0.23586741,-3.1841493,-0.12384869,5.7695454999999995,-2.615877775,-7.3917366
873,1778516349520,-1.8303303666666668,-4.242686333333334,-0.1354957066666666,2.5445592,-1.0506883,-3.9585595
874,1778516349530,-2.2994635,-4.451113,-0.07366284,2.5445592,-1.0506883,-3.9585595
875,1778516349540,-2.3134277,-4.469529,-0.14775252,0.9230174,0.31749722,0.0627664
876,1778516349550,-1.6286317,-4.2772007,-0.26379588,0.594600965,0.67237174,0.5450827
877,1778516349560,-0.822609,-3.8915074,-0.30337137,-1.5367843,2.972623,2.9811752000000005
878,1778516349570,0.22604977,-3.316047,-0.22800112,-2.546200825,3.685388125,3.4482579500000003
879,1778516349580,0.3971979766666667,-3.1604281333333333,-0.1298653066666666,-3.280041,3.976122,3.4063373
880,1778516349590,0.0924444399999999,-2.45178925,0.3918521299999999,-2.92573905,3.06829975,3.6835936
881,1778516349600,-0.16133055,-1.4447184999999998,0.67304738,-2.264172,2.2319489,5.676923300000001
882,1778516349610,0.24138603,-1.024998875,0.5031238650000001,-2.6925414,2.4013114,6.2179976
883,1778516349620,1.0022738999999998,-0.4767351633333334,0.4769790566666667,-4.2159376,2.7682377666666667,6.839501866666667
884,1778516349630,1.7352994,-0.01571738225,1.2873769925,-6.660492850000001,3.0454304,7.169038025
885,1778516349640,1.8349851,0.0492101869999999,1.5342969,-7.694764,2.604424,6.9302664
886,1778516349650,1.8330337,0.09829842,1.943406,-7.694764,2.604424,6.9302664
887,1778516349660,1.7879497666666666,0.13691856,2.453883,-6.3169574666666675,1.6450601666666664,6.653697
888,1778516349670,1.738653275,0.2127105825,3.025374675,-5.58621,1.353372,6.578866
889,1778516349680,1.7297351,0.2315379,3.1307923999999994,-5.58621,1.353372,6.5788660000000005
890,1778516349690,1.7051605,0.24983165,3.10176635,-4.277431,1.3406965,6.518696
891,1778516349700,1.6805859,0.2681254,3.0727403,-4.277431,1.3406965,6.518696
892,1778516349710,1.5811695,0.3701638766666666,2.2751530666666664,-2.884658333333333,1.498147,6.4623436000000005
893,1778516349720,1.566067,0.3811198,2.1232336,-2.1595614,1.7724255,6.4489045
894,1778516349730,1.4811027333333333,0.3850631133333333,1.425388,-2.380491033333333,1.8697058,6.471455566666667
895,1778516349740,1.47057365,0.3982397024999999,0.97583435,-2.8223503,2.0642664,6.5165577
896,1778516349750,1.5664328,0.4318545,0.6739418,-2.8223503,2.0642664,6.5165577
897,1778516349760,1.5664328,0.4318545,0.6739418,-3.9645154,2.3475552,6.2995477
898,1778516349770,1.5664328,0.4318545,0.6739418,-3.9645154,2.3475552,6.2995477
899,1778516349780,1.6869887,0.3997794399999999,0.4547826,-4.573242733333333,2.4606670666666663,6.122804166666666
900,1778516349790,1.568292725,0.311009005,0.4650118749999999,-4.8776064,2.517223,6.0344324
901,1778516349800,1.1298830333333332,-0.0599425266666666,0.5521054,-6.679659,2.54517,5.861405
902,1778516349810,0.938164525,-0.275686815,0.616743295,-6.90025765,2.4586563000000003,5.9287527
903,1778516349820,0.8513504833333334,-0.4385824966666667,0.7384170666666666,-7.1208563,2.3721426,5.9961004
904,1778516349830,1.1030064875,-0.4454223399999999,0.9045497575,-7.117649,1.7825048,6.29573
905,1778516349840,1.3225569,-0.34682919,1.0056887666666663,-6.8200559,1.4930564766666663,6.164801199999999
906,1778516349850,1.578705025,0.2035637075,0.4125393025,-4.65609125,-0.6850090274999999,5.764544475
907,1778516349860,1.7668511333333334,0.3454673133333333,0.2405628133333333,-4.897612,-0.9931142,6.302755
908,1778516349870,2.1536622,0.38538834,0.3714241,-5.235497,-0.4795292319999999,6.266408500000001
909,1778516349880,3.0895095,0.6651608,0.7765697,-5.573382,0.034055736,6.230062
910,1778516349890,3.59618535,1.14110315,0.7526048750000001,-5.4929767,-0.162566517,5.615455150000001
911,1778516349900,4.1229234,1.7374184,0.5742408,-5.696012933333333,-0.78669259,4.704985766666667
912,1778516349910,4.2176545,1.7356500499999998,0.754739135,-5.8377337,-1.0004445,4.5570545
913,1778516349920,4.3722673,1.71796615,1.110704985,-6.4075182250000005,-0.7286094925,4.390212
914,1778516349930,4.432149,1.7020506,1.2861725,-7.1174965,-0.19914207,4.108374
915,1778516349940,,,,,,
916,1778516349950,-0.60747445,-1.5002095,0.25019753,-1.9173533,3.4147367,3.6690094
917,1778516349960,-0.60747445,-1.5002094999999998,0.25019753,-2.5656849666666663,3.7771324666666666,4.1819834333333334
918,1778516349970,-0.60747445,-1.5002095,0.25019753,-3.8623483,4.501924,5.2079315
919,1778516349980,-0.60747445,-1.5002095,0.25019753,-3.8623483,4.501924,5.2079315
920,1778516349990,-0.5204572,-1.4088017,0.3661799,-3.8623483,4.501924,5.2079315
921,1778516350000,-0.5204572,-1.4088017,0.3661798999999999,-4.163403033333333,4.572377166666667,5.561826233333334
922,1778516350010,-0.32995828,-1.3438385000000002,0.4073611666666667,-5.049717666666666,4.691903233333334,6.6546644666666666
923,1778516350020,0.291892025,-1.201868925,0.47231415,-6.1503822249999995,4.567477675,8.009474
924,1778516350030,0.8451711999999999,-1.0580496,0.5813754,-6.913416366666667,4.299676666666667,8.728398666666665
925,1778516350040,1.3242846,-0.8835272,0.79309505,-7.2062244,4.179387,8.990409
926,1778516350050,1.55788055,-0.8015864349999999,0.9426159625,-7.4541212,3.714175075,9.220514625
927,1778516350060,2.2586684,-0.55576414,1.3911787,-7.793419,2.728735,9.5330105
928,1778516350070,2.5367944,-0.39362052,1.8080323,-7.199047,1.9387336,9.156412
929,1778516350080,2.7122110666666663,-0.0974243799999999,1.8458801,-5.975280066666667,1.7724764666666666,8.638398666666665
930,1778516350090,2.69152895,0.2192505974999999,1.525592125,-4.8800497,1.7249308,7.9268928
931,1778516350100,2.6553988,0.2754429,1.4125214999999998,-4.9138002,1.612837,7.7353864
932,1778516350110,2.61153955,0.4066090875,1.20278355,-4.9138002,1.612837,7.7353864
933,1778516350120,2.572934633333333,0.4540712133333333,1.094962233333333,-4.9138002,1.612837,7.7353864
934,1778516350130,2.497127325,0.4493554999999999,1.08145035,-5.491411575,1.3416892,7.4301068
935,1778516350140,2.3058054,0.34562993,1.4916724,-5.6779923,1.2589933,7.313278700000001
936,1778516350150,2.3058054,0.34562993,1.4916724,-5.6237018249999995,1.13494945,7.1938163
937,1778516350160,2.3803828,0.3125792,1.5420412,-5.009502166666667,0.9864455666666666,6.584211
938,1778516350170,2.6910717,0.3954499,1.3803854,-4.8098,0.9726502,6.3487225
939,1778516350180,2.513602,0.4125444066666666,1.1604742,-4.824511766666666,1.0949759666666667,5.799249166666667
940,1778516350190,1.9381314,0.42722006,0.7194932,-5.33544965,1.30587725,5.102023
941,1778516350200,1.4920382000000003,0.5895466,0.7315671,-5.551543,0.36713,4.678617
942,1778516350210,1.5083196,0.7323598,0.6034498,-5.5458925,0.317191775,4.6188285
943,1778516350220,1.6525150666666668,0.8358821133333333,0.4095564033333334,-5.8344758,0.4313726899999999,4.435136
944,1778516350230,1.7846773,0.90456504,0.28416294,-5.9815927,0.51343226,4.373184
945,1778516350240,1.8175146,0.92680718,0.3274429,-6.39071955,0.76991929,4.180876375
946,1778516350250,1.9442598,1.1553723,0.87651455,-6.7912943,0.5637268,3.767562366666666
947,1778516350260,2.00941605,1.19738695,0.9644007875,-6.7474647,0.34605515,3.7038288
948,1778516350270,2.3775371,1.4180705666666666,1.3184306,-5.867360766666667,-0.6544402800000001,3.7736201
949,1778516350280,2.7228417,1.6073499,1.4991728,-5.4208183,-0.9111055,3.8450913
950,1778516350290,3.0399945,2.0921953,1.6146674,-5.2149567333333335,-0.9342165666666666,3.9005782
951,1778516350300,3.0399945,2.0921953,1.6146674,-4.3479862,-0.97471185,4.10409815
952,1778516350310,3.49334425,2.46584515,1.7301924,-3.8927388,-0.968985,4.1966443
953,1778516350320,5.565019666666667,3.9775694,2.2928980666666665,0.1543962,-1.7911586999999998,1.678097816666667
954,1778516350330,4.9311108500000005,3.238131,0.66885001,1.734781025,-2.438955925,-3.2069279374999997
955,1778516350340,4.142315,2.669973,0.632293,1.0968086,-2.2545000666666666,-4.249891266666666
956,1778516350350,3.6873189,2.5757296,0.7455008375,-0.1474476249999999,-1.6206255175,-4.581107525
957,1778516350360,2.8097574333333335,2.388716533333333,1.0829290666666669,-1.6911805,-0.34330627,-4.6743407
958,1778516350370,2.5701501,2.3313556,1.3145279,-2.085494,0.48472157,-4.682435
959,1778516350380,2.4922185,2.0473754,1.9677976,-1.5097534999999995,1.4556919,-5.0904927
960,1778516350390,2.447536125,1.8387353,2.1868654000000003,-0.40515637,1.5868752,-5.6422567
961,1778516350400,2.335685066666666,1.5197432,2.3162733333333336,-0.40515637,1.5868752,-5.6422567
962,1778516350410,2.2872066,1.3950205,2.344466,0.293138965,1.65116875,-5.890420649999999
963,1778516350420,2.2839138,1.2679094,2.3305018000000004,2.1778872,1.6891952,-6.4197354
964,1778516350430,2.280621,1.1407983,2.3165376,2.1778872,1.6891951999999997,-6.4197354
965,1778516350440,2.3166749,1.001476125,2.264446125,2.548109775,1.630246675,-6.5081200500000005
966,1778516350450,2.4248366,0.5835096,2.1081717,3.6587775,1.4534011,-6.773274
967,1778516350460,2.471160466666667,0.4007143999999999,1.9436296333333336,4.6029715,1.1499029,-7.091636666666666
968,1778516350470,2.5638082,0.035124,1.6145455,5.0750685,0.9981538,-7.250818
969,1778516350480,2.6511913333333332,-0.44102167,0.9975785333333334,5.407277499999999,0.8200865999999999,-7.687280866666666
970,1778516350490,2.640413275,-0.572609625,0.8447139375,5.525848949999999,0.7363598825,-7.942889725
971,1778516350500,2.602225,-0.6782103,0.76614225,5.383249799999999,0.7522805299999998,-8.055022
972,1778516350510,2.4785744999999997,-0.756720975,0.8168007,5.277150175,0.7365889375,-8.0873215
973,1778516350520,2.107623,-0.992253,0.96877605,4.769178,0.19685133,-8.053189
974,1778516350530,2.059734,-0.9694468,1.0004444833333332,4.741383466666666,0.0594575533333333,-7.985688499999999
975,1778516350540,2.150582625,-0.8852346,1.0392374750000002,4.4440446,-0.44929138,-7.5984
976,1778516350550,2.3673942,-0.78772885,1.0760384,4.233449,-0.42424592,-7.561137
977,1778516350560,2.3673942,-0.78772885,1.0760384,4.233449,-0.42424592,-7.561137
978,1778516350570,2.3673942,-0.78772885,1.0760384,4.233449,-0.42424592,-7.561137
979,1778516350580,2.48150145,-0.7756397375,1.102808275,3.90381065,-0.2159026925,-7.69846725
980,1778516350590,2.8238232,-0.7393724,1.1831179,3.7939312,-0.14645495,-7.744244
981,1778516350600,2.8238232,-0.7393724,1.1831179,3.7939312,-0.14645495,-7.744243999999999
982,1778516350610,2.8238232,-0.7393724,1.1831179,3.7232236,-0.08552114,-7.841219000000001
983,1778516350620,2.952164066666666,-0.7711222266666667,1.2559269666666666,3.412853266666666,0.0943277766666666,-8.339532666666667
984,1778516350630,2.9788018249999997,-0.61694148,1.238974675,3.0560062,-0.1469131,-8.700249
985,1778516350640,2.8745986333333335,-0.4186219933333333,1.3923983333333334,1.9852611333333332,0.276976482,-8.900255333333334
986,1778516350650,2.723283925,-0.416792615,1.558215925,1.51544215,0.90350789,-8.878354
987,1778516350660,2.4211168,-0.49948034,1.8365095,1.4520267,1.0465649,-8.853576
988,1778516350670,2.3112934,-0.5262502,2.0809143,1.534417125,1.143043425,-8.772827125
989,1778516350680,2.3112934,-0.5262502,2.0809143,1.7815884,1.432479,-8.5305805
990,1778516350690,2.2864952333333335,-0.62505679,1.8390503333333337,2.408489,1.4610369,-8.278751
991,1778516350700,2.2536073,-0.63936657,1.724003,2.56960465,1.4145348000000002,-8.206287
992,1778516350710,2.218889766666667,-0.7104276233333332,1.5464316666666666,3.1094567666666664,1.0059932333333337,-7.966344333333333
993,1778516350720,1.45252375,-1.4112714,0.636927425,3.89846565,0.8908706,-7.505930299999999
994,1778516350730,0.6351996599999999,-2.3036708999999997,0.0841919033333333,3.9637518666666662,1.3543900666666666,-6.869739666666667
995,1778516350740,-0.7042280533333333,-3.5970392,-0.3669929666666666,5.046866766666667,0.6900740813333334,-5.496820066666667
996,1778516350750,-1.5110485,-4.306958399999999,-1.264402975,5.28429,-0.397826,-3.4009922
997,1778516350760,-1.3373951,-4.504043,-2.0996957,3.359351666666667,0.0172060266666666,-1.8394170333333335
998,1778516350770,-1.084484075,-4.4533235,-2.1280967,1.391551,0.6041457,-0.517861
999,1778516350780,-1.0001804,-4.436417,-2.1375637,1.391551,0.6041457,-0.517861
1000,1778516350790,-1.0001804,-4.436417,-2.1375637,-1.5558738,1.9297233,0.67011917
