id,timestamp,acc_x,acc_y,acc_z,gyro_x,gyro_y,gyro_z
0,1778516309010,0.6737588,-0.29105356,0.5171033,0.090713486,0.17104226,-0.13225232
1,1778516309020,0.7580930599999999,-0.26769856,0.5418609,0.0050396384,0.106137834,-0.14737125
2,1778516309030,0.7580930599999999,-0.26769856,0.5418609,0.0050396384,0.106137834,-0.14737125
3,1778516309040,0.75809306,-0.26769856,0.5418609,0.0050396384,0.106137834,-0.14737125
4,1778516309050,0.7580930599999999,-0.26769856,0.5418609,-0.035277467,0.08506299,-0.3061962
5,1778516309060,0.75809306,-0.26769856,0.5418609,-0.035277467,0.08506299,-0.3061962
6,1778516309070,0.84675672,-0.24830718,0.6016611666666667,-0.035277467,0.08506299,-0.3061962
7,1778516309080,0.89108855,-0.23861149,0.6315613,-0.035277467,0.08506299,-0.3061962
8,1778516309090,0.89108855,-0.23861149,0.6315613,-0.035277467,0.08506299,-0.3061962
9,1778516309100,0.89108855,-0.23861149,0.6315613,-0.035277467,0.08506299,-0.3061962
10,1778516309110,0.89108855,-0.23861149,0.6315613,-0.035277467,0.08506299,-0.3061962
11,1778516309120,0.89108855,-0.23861149,0.6315613,-0.035277467,0.08506299,-0.3061962
12,1778516309130,0.9222489,-0.22188287,0.6591645233333333,-0.0156788736666666,0.0954986033333333,-0.3785837333333333
13,1778516309140,0.9845696,-0.18842563,0.71437097,0.023518313,0.11636983,-0.5233588
14,1778516309150,0.9845696,-0.18842563,0.71437097,0.023518313,0.11636983,-0.5233588
15,1778516309160,0.9845696,-0.18842563,0.71437097,0.023518313,0.11636983,-0.5233588
16,1778516309170,1.0196327,-0.13092227,0.73510385,0.13439035,0.23197608,-0.77534074
17,1778516309180,1.0196327,-0.13092227,0.7351038500000001,0.13439035,0.23197608,-0.77534074
18,1778516309190,1.0196327,-0.13092227,0.73510385,0.13439035,0.23197608,-0.77534074
19,1778516309200,1.0196327,-0.13092227,0.7351038500000001,0.13439035,0.23197608,-0.77534074
20,1778516309210,1.0196327,-0.13092227,0.73510385,0.13439035,0.23197608,-0.77534074
21,1778516309220,1.0196327,-0.13092227,0.7351038500000001,0.1882992099999999,0.33322698,-0.92347556
22,1778516309230,1.01611115,-0.1176440565,0.7241733375,0.18829921,0.33322698,-0.92347556
23,1778516309240,1.0055465,-0.077809416,0.6913818,0.18829921,0.33322698,-0.92347556
24,1778516309250,1.0055465,-0.077809416,0.6913817999999999,0.1882992099999999,0.33322698,-0.92347556
25,1778516309260,1.0055465,-0.077809416,0.6913818,0.18829921,0.33322698,-0.92347556
26,1778516309270,1.0055465,-0.077809416,0.6913818,0.18829921,0.33322698,-0.92347556
27,1778516309280,0.9953833,-0.0644143263333333,0.6490216000000001,0.1882992099999999,0.33322698,-0.92347556
28,1778516309290,0.9750569,-0.037624147,0.5643012,0.18829921,0.33322698,-0.92347556
29,1778516309300,0.9750569,-0.037624147,0.5643012,0.15225816,0.41645738,-1.0201449
30,1778516309310,,,,,,
31,1778516309320,2.1702487,0.8132182,2.4544725,3.4782667,2.5697575,-3.530343
32,1778516309330,2.1702487,0.8132182,2.4544725,3.73819,2.5734227,-3.6566393
33,1778516309340,2.1702487,0.8132182,2.4544725,3.73819,2.5734227,-3.6566393
34,1778516309350,2.1702487,0.8132182,2.4544725,3.73819,2.5734227,-3.6566393
35,1778516309360,2.1702487,0.8132182,2.4544725,3.73819,2.5734227,-3.6566393
36,1778516309370,2.1702487,0.8132182,2.4544725,3.73819,2.5734227,-3.6566393
37,1778516309380,2.1702487,0.8132182,2.4544725,3.73819,2.5734227,-3.6566393
38,1778516309390,2.1702487,0.8132182,2.4544725,3.73819,2.5734227,-3.6566393
39,1778516309400,2.1702487,0.8132182,2.4544725,3.73819,2.5734227,-3.6566393
40,1778516309410,2.1702487,0.8132182,2.4544725,3.73819,2.5734227,-3.6566393
41,1778516309420,2.1702487,0.8132182,2.4544725,3.73819,2.5734227,-3.6566393
42,1778516309430,2.1008542,0.67772245,2.5186226,3.73819,2.5734227,-3.6566393
43,1778516309440,2.1008542,0.67772245,2.5186226,3.73819,2.5734227,-3.6566393
44,1778516309450,2.1008542,0.67772245,2.5186226,3.73819,2.5734227,-3.6566393
45,1778516309460,2.1008542,0.67772245,2.5186226,3.73819,2.5734227,-3.6566393
46,1778516309470,2.1008542,0.67772245,2.5186226,3.73819,2.5734227,-3.6566393
47,1778516309480,2.1008542,0.67772245,2.5186226,3.73819,2.5734227,-3.6566393
48,1778516309490,2.1008542,0.67772245,2.5186226,3.73819,2.5734227,-3.6566393
49,1778516309500,2.1008542,0.67772245,2.5186226,3.73819,2.5734227,-3.6566393
50,1778516309510,2.1008542,0.67772245,2.5186226,3.73819,2.5734227,-3.6566393
51,1778516309520,2.1008542,0.67772245,2.5186226,3.73819,2.5734227,-3.6566393
52,1778516309530,2.1008542,0.67772245,2.5186226,3.73819,2.5734227,-3.6566393
53,1778516309540,2.1008542,0.67772245,2.5186226,3.73819,2.5734227,-3.6566393
54,1778516309550,2.1008542,0.67772245,2.5186226,3.73819,2.5734227,-3.6566393
55,1778516309560,2.1008542,0.67772245,2.5186226,3.73819,2.5734227,-3.6566393
56,1778516309570,2.1008542,0.67772245,2.5186226,3.73819,2.5734227,-3.6566393
57,1778516309580,2.1008542,0.67772245,2.5186226,3.73819,2.5734227,-3.6566393
58,1778516309590,2.1081108,0.62021911,2.55865535,3.73819,2.5734227,-3.6566393
59,1778516309600,2.1153674,0.56271577,2.5986881,3.73819,2.5734227,-3.6566393
60,1778516309610,2.1153674,0.56271577,2.5986881,3.73819,2.5734227,-3.6566393
61,1778516309620,2.1153674,0.56271577,2.5986881,3.73819,2.5734227,-3.6566393
62,1778516309630,2.1153674,0.56271577,2.5986881,3.73819,2.5734227,-3.6566393
63,1778516309640,2.1153674,0.56271577,2.5986881,3.73819,2.5734227,-3.6566393
64,1778516309650,2.1153674,0.56271577,2.5986881,3.73819,2.5734227,-3.6566393
65,1778516309660,2.1930853,0.4348729349999999,2.6748511500000003,4.48008585,1.95110355,-3.8761691
66,1778516309670,2.2708032,0.3070301,2.7510142,4.8560734,1.5673275,-4.0022364
67,1778516309680,2.276702925,0.2780345074999999,2.74291925,4.9815298,1.433738925,-4.0670263
68,1778516309690,2.2944021,0.19104773,2.7186344,5.357899,1.0329732,-4.261396
69,1778516309700,2.2944021,0.19104773,2.7186344000000005,5.357899,1.0329732,-4.261396
70,1778516309710,2.2944021,0.19104773,2.7186344,5.5759016500000005,0.8164978,-4.45878175
71,1778516309720,2.1748831,-0.039392542,2.7453432,5.974109000000001,0.33460143,-4.969389
72,1778516309730,2.1196512000000003,-0.1349316465,2.8105909,6.066120625,0.312495745,-4.99695425
73,1778516309740,1.9539555,-0.42154896,3.0063340000000003,6.3421555,0.24617869,-5.07965
74,1778516309750,1.9539555,-0.42154896,3.0063340000000003,6.3421555,0.24617869,-5.07965
75,1778516309760,2.0536563,-0.26153967,2.8795583,6.3421555,0.24617869,-5.07965
76,1778516309770,2.0536563,-0.26153967,2.8795583,6.3421555,0.24617869,-5.07965
77,1778516309780,2.0536563,-0.26153967,2.8795583,6.3421555,0.24617869,-5.07965
78,1778516309790,2.0536563,-0.26153967,2.8795583,6.280649125,0.2502256725,-5.081329875
79,1778516309800,2.0536563,-0.26153967,2.8795583,6.09613,0.26236662,-5.0863695
80,1778516309810,1.9326432,-0.456551035,3.0397200499999997,6.09613,0.26236662,-5.0863695
81,1778516309820,1.8116300999999997,-0.6515624,3.1998818,6.09613,0.26236662,-5.0863695
82,1778516309830,1.792955225,-0.76882535,3.1721058,6.5353039,0.10064005,-5.013447375
83,1778516309840,1.7369306,-1.1206142,3.0887778,7.8528256,-0.38453966,-4.794681
84,1778516309850,1.7369306,-1.1206142,3.0887778000000004,7.8528256,-0.38453966,-4.794681
85,1778516309860,1.7369306,-1.1206142,3.0887778,8.701776,-0.7510588,-4.7256536
86,1778516309870,1.7369306,-1.1206142,3.0887778000000004,8.701776,-0.7510588,-4.7256536
87,1778516309880,1.7369306,-1.1206142,3.0887778,8.701776,-0.7510588,-4.7256536
88,1778516309890,1.7369306,-1.1206142,3.0887778,8.701776,-0.7510588,-4.7256536
89,1778516309900,1.7369306,-1.1206142,3.0887778000000004,8.701776,-0.7510588,-4.7256536
90,1778516309910,1.7369306,-1.1206142,3.0887778,8.701776,-0.7510588,-4.7256536
91,1778516309920,1.7369306,-1.1206142,3.0887778000000004,8.701776,-0.7510588,-4.7256536
92,1778516309930,1.7369306,-1.1206142,3.0887778,8.701776,-0.7510588,-4.7256536
93,1778516309940,1.7369306,-1.1206142,3.0887778000000004,8.701776,-0.7510588,-4.7256536
94,1778516309950,1.7369306,-1.1206142,3.0887778,8.701776,-0.7510588,-4.7256536
95,1778516309960,1.7369306,-1.1206142,3.0887778,8.701776,-0.7510588,-4.7256536
96,1778516309970,1.7369306,-1.1206142,3.0887778000000004,8.701776,-0.7510588,-4.7256536
97,1778516309980,1.7369306,-1.1206142,3.0887778,8.701776,-0.7510588,-4.7256536
98,1778516309990,1.7369306,-1.1206142,3.0887778,8.701776,-0.7510588,-4.7256536
99,1778516310000,1.7369306,-1.1206142,3.0887778000000004,8.701776,-0.7510588,-4.7256536
100,1778516310010,1.7369306,-1.1206142,3.0887778,9.160077,-1.0175488,-4.786587
101,1778516310020,1.7369306,-1.1206142,3.0887778,9.160077,-1.0175488,-4.786587
102,1778516310030,1.7850431,-1.1963502,2.772296,9.160077,-1.0175488,-4.786587
103,1778516310040,1.7850431,-1.1963502,2.772295999999999,9.160077,-1.0175488,-4.786587
104,1778516310050,1.7850431,-1.1963502,2.772295999999999,9.160077,-1.0175488,-4.786587
105,1778516310060,1.7850431,-1.1963502,2.772296,9.160077,-1.0175488,-4.786587
106,1778516310070,1.7880311333333332,-1.2009846666666666,2.7461766,9.182475333333333,-1.0402017,-4.795801
107,1778516310080,1.7940072,-1.2102536,2.6939378,9.227272,-1.0855075,-4.814229
108,1778516310090,1.7940072,-1.2102536,2.6939378,9.227272,-1.0855075,-4.814229
109,1778516310100,1.7940072,-1.2102536,2.6939378,9.227272,-1.0855075,-4.814229
110,1778516310110,1.7940072,-1.2102536,2.6939378,9.227272,-1.0855075,-4.814229
111,1778516310120,1.4327055,-1.1420178,1.4740494,9.023243,-1.5963436,-5.207168
112,1778516310130,1.4327055,-1.1420178,1.4740494,9.023243,-1.5963436,-5.207168
113,1778516310140,1.4327055,-1.1420178,1.4740494,9.023243,-1.5963436,-5.207168
114,1778516310150,1.4327055,-1.1420178,1.4740494,8.581995000000001,-1.4348715333333333,-5.190878333333334
115,1778516310160,1.4327055,-1.1420178,1.4740494,8.361371,-1.3541355,-5.1827335
116,1778516310170,1.4327055,-1.1420178,1.4740494,8.361371,-1.3541355,-5.1827335
117,1778516310180,1.4327055,-1.1420178,1.4740494,8.361371,-1.3541355,-5.1827335
118,1778516310190,1.4327055,-1.1420178,1.4740494,8.361371,-1.3541355,-5.1827335
119,1778516310200,1.4327055,-1.1420178,1.4740494,8.361371,-1.3541355,-5.1827335
120,1778516310210,1.4327055,-1.1420178,1.4740494,8.361371,-1.3541355,-5.1827335
121,1778516310220,1.4327055,-1.1420178,1.4740494,8.361371,-1.3541355,-5.1827335
122,1778516310230,1.4327055,-1.1420178,1.4740494,8.361371,-1.3541355,-5.1827335
123,1778516310240,1.4327055,-1.1420178,1.4740494,8.361371,-1.3541355,-5.1827335
124,1778516310250,1.4327055,-1.1420178,1.4740494,8.361371,-1.3541355,-5.1827335
125,1778516310260,1.4327055,-1.1420178,1.4740494,8.361371,-1.3541355,-5.1827335
126,1778516310270,1.4327055,-1.1420178,1.4740494,8.361371,-1.3541355,-5.1827335
127,1778516310280,1.4327055,-1.1420178,1.4740494,8.361371,-1.3541355,-5.1827335
128,1778516310290,,,,,,
129,1778516310300,1.483867,-0.9906676,1.0598788,6.0741386,-1.0273226,-5.5385623
130,1778516310310,1.483867,-0.9906676,1.0598788,6.0741386,-1.0273226,-5.5385623
131,1778516310320,1.483867,-0.9906676,1.0598788,6.0741386,-1.0273226,-5.5385623
132,1778516310330,1.350139675,-1.0291302249999998,1.122763675,6.0741386,-1.0273226,-5.5385623
133,1778516310340,1.150433,-1.1219556,1.1647631,5.930890600000001,-1.4824171999999998,-5.660125
134,1778516310350,1.150433,-1.1219556,1.1647631,5.9308906,-1.4824172,-5.660125
135,1778516310360,1.150433,-1.1219556,1.1647631,5.9308906,-1.4824172,-5.660125
136,1778516310370,1.150433,-1.1219556,1.1647631,5.930890600000001,-1.4824171999999998,-5.660125
137,1778516310380,1.150433,-1.1219556,1.1647631,5.9308906,-1.4824172,-5.660125
138,1778516310390,1.150433,-1.1219556,1.1647631,5.9504385,-1.8781052,-5.6908207
139,1778516310400,1.150433,-1.1219556,1.1647631,5.9504385,-1.8781052,-5.6908207
140,1778516310410,1.150433,-1.1219556,1.1647631,5.9504385,-1.8781052,-5.6908207
141,1778516310420,1.150433,-1.1219556,1.1647631,5.9504385,-1.8781052,-5.6908207
142,1778516310430,1.150433,-1.1219556,1.1647631,5.974453125,-1.951828975,-5.68184865
143,1778516310440,1.150433,-1.1219556,1.1647631,6.046497,-2.1730003,-5.6549325
144,1778516310450,0.9929848,-1.1735846666666667,1.0221937666666667,6.0530127333333335,-2.2559761666666667,-5.635384833333333
145,1778516310460,0.9142607,-1.1993992,0.9509091,6.0562706,-2.2974641,-5.625611
146,1778516310470,0.9142607,-1.1993992,0.9509091,6.0562706,-2.2974641,-5.625611
147,1778516310480,0.9142607,-1.1993992,0.9509091,5.8935513,-2.27692375,-5.54932915
148,1778516310490,0.9142607,-1.1993992,0.9509091,5.730832,-2.2563834,-5.4730473
149,1778516310500,0.9142607,-1.1993992,0.9509091,5.730832,-2.2563834,-5.4730473
150,1778516310510,0.804925025,-1.1676443,0.695680805,5.421467,-2.055676,-5.390122325
151,1778516310520,0.6959551999999999,-1.0971981,0.37581462,4.493372,-1.4535538,-5.1413474
152,1778516310530,0.6959552,-1.0971981,0.37581462,4.493372,-1.4535538,-5.1413474
153,1778516310540,0.6959552,-1.0971981,0.37581462,4.289381175,-1.2926671825,-5.117676375
154,1778516310550,0.6639208333333334,-1.0841486,0.3672775366666667,3.677408699999999,-0.81000733,-5.0466633
155,1778516310560,0.5998521,-1.0580496,0.35020337,3.349374,-0.5152648,-5.012455
156,1778516310570,0.5998521,-1.0580496,0.35020337,3.3493739999999996,-0.5152648,-5.012455
157,1778516310580,0.5998521,-1.0580496,0.35020337,3.349374,-0.5152648,-5.012455
158,1778516310590,0.5998521,-1.0580496,0.35020337,3.349374,-0.5152648,-5.012455
159,1778516310600,0.5998521,-1.0580496,0.35020337,3.3493739999999996,-0.5152648,-5.012455
160,1778516310610,0.5998521,-1.0580496,0.35020337,3.349374,-0.5152648,-5.012455
161,1778516310620,0.5998521,-1.0580496,0.35020337,3.349374,-0.5152648,-5.012455
162,1778516310630,0.5998521,-1.0580496,0.35020337,3.3493739999999996,-0.5152648,-5.012455
163,1778516310640,0.4744789,-1.1045157,0.34227607,3.23781475,-0.3969860249999999,-5.004360925
164,1778516310650,0.4744789,-1.1045157,0.34227607,2.9031369999999996,-0.0421496999999999,-4.9800787
165,1778516310660,0.4744789,-1.1045157,0.34227607,2.903137,-0.0421497,-4.9800787
166,1778516310670,0.4484103,-1.11590355,0.3297296025,2.903137,-0.0421497,-4.9800787
167,1778516310680,0.3702045,-1.1500671,0.2920902,2.9031369999999996,-0.0421496999999999,-4.9800787
168,1778516310690,0.3702045,-1.1500671,0.2920902,2.903137,-0.0421497,-4.9800787
169,1778516310700,0.3702045,-1.1500671,0.2920902,2.7612636,0.16233744,-4.969236
170,1778516310710,0.3702045,-1.1500671,0.2920902,2.7612636,0.16233744,-4.969236
171,1778516310720,0.3702045,-1.1500671,0.2920902,2.7612636,0.16233744,-4.969236
172,1778516310730,-0.13677627,-1.5171617,-0.067321,2.673299,0.35338554,-4.9732065
173,1778516310740,-0.13677627,-1.5171617,-0.067321,2.673299,0.35338554,-4.9732065
174,1778516310750,-0.13677627,-1.5171617,-0.067321,2.673299,0.3533855399999999,-4.9732065
175,1778516310760,-0.13677627,-1.5171617,-0.067321,2.673299,0.35338554,-4.9732065
176,1778516310770,-0.13677627,-1.5171617,-0.067321,2.6736043333333335,0.3878994266666666,-4.9264755
177,1778516310780,-0.13677627,-1.5171617,-0.067321,2.673757,0.40515637,-4.90311
178,1778516310790,-0.13677627,-1.5171617,-0.067321,2.7458394,0.28619036,-4.8177414
179,1778516310800,-0.13677627,-1.5171617,-0.067321,2.7458394,0.28619036,-4.8177414
180,1778516310810,-0.13677627,-1.5171617,-0.067321,2.7458394,0.28619036,-4.8177414
181,1778516310820,-0.13677627,-1.5171617,-0.067321,2.7458394,0.28619036,-4.8177414
182,1778516310830,-0.13677627,-1.5171617,-0.067321,2.7458394,0.28619036,-4.8177414
183,1778516310840,-0.13677627,-1.5171617,-0.067321,2.7458394,0.28619036,-4.8177414
184,1778516310850,-0.13677627,-1.5171617,-0.067321,2.7458394,0.28619036,-4.8177414
185,1778516310860,-0.13677627,-1.5171617,-0.067321,2.7458394,0.28619036,-4.8177414
186,1778516310870,-0.33489759,-1.601175725,-0.1596129775,2.7458394,0.28619036,-4.8177414
187,1778516310880,-1.0254866766666666,-1.9022045333333333,-0.43669215,3.2184454,-0.8216137466666668,-4.2971824666666665
188,1778516310890,-1.427751,-2.098171275,-0.612947345,3.663206175,-1.88543555,-3.6671004
189,1778516310900,-1.6977210000000005,-2.2765353,-0.77224016,3.9461894,-2.6215281,-3.0498974000000003
190,1778516310910,-1.697721,-2.2765353,-0.77224016,3.9461894,-2.6215281,-3.0498974
191,1778516310920,-1.6977210000000005,-2.2765353,-0.77224016,3.9461894,-2.6215281,-3.0498974000000003
192,1778516310930,-1.6977210000000005,-2.2765353,-0.77224016,3.9461894,-2.6215281,-3.0498974000000003
193,1778516310940,-1.7833967,-2.3278493,-0.8625503299999999,3.901367175,-2.6274458999999997,-2.9357038
194,1778516310950,-1.8690724,-2.3791633,-0.9528605,3.385924166666667,-2.4231497666666666,-2.1023946
195,1778516310960,-1.8690724,-2.3791633,-0.9528605,3.195436,-2.312125,-1.8570304
196,1778516310970,-1.8690724,-2.3791633,-0.9528605,3.1954359999999995,-2.312125,-1.8570304
197,1778516310980,-1.8690724,-2.3791633,-0.9528605,3.195436,-2.312125,-1.8570304
198,1778516310990,-1.8690724,-2.3791633,-0.9528605,3.1954359999999995,-2.312125,-1.8570304
199,1778516311000,-2.046750325,-2.384239825,-1.01858075,3.195436,-2.312125,-1.8570304
200,1778516311010,-2.1059763,-2.385932,-1.0404875,3.1954359999999995,-2.312125,-1.8570304
201,1778516311020,-2.1059763,-2.385932,-1.0404875,3.195436,-2.312125,-1.8570304
202,1778516311030,-2.1059763,-2.385932,-1.0404875,3.195436,-2.312125,-1.8570304
203,1778516311040,-2.1059763,-2.385932,-1.0404875,3.195436,-2.312125,-1.8570304
204,1778516311050,-2.1059763,-2.385932,-1.0404875,3.1954359999999995,-2.312125,-1.8570304
205,1778516311060,-2.10798865,-2.3784925,-1.0253952,2.31166675,-1.630933865,-0.965472545
206,1778516311070,-2.110001,-2.371053,-1.0103029,1.4278975,-0.94974273,-0.07391469
207,1778516311080,-2.110001,-2.371053,-1.0103029,1.4278975,-0.94974273,-0.07391469
208,1778516311090,-2.110001,-2.371053,-1.0103029,0.56749381,-0.1232420625,0.7209737025
209,1778516311100,-1.9247870666666664,-2.3368843333333333,-0.8423052533333332,0.0156788866666666,0.4174754833333333,1.2431107666666668
210,1778516311110,-1.7345525,-2.2954998,-0.6775395,-0.5143485,0.94791013,1.7574593
211,1778516311120,-1.7345525,-2.2954998,-0.6775395,-0.5143485,0.94791013,1.7574593
212,1778516311130,-1.7345525000000002,-2.2954998,-0.6775395,-0.5143485,0.94791013,1.7574593
213,1778516311140,-1.375217375,-2.24281395,-0.5047093275,-1.245668775,1.7243580325,2.501264225
214,1778516311150,-1.255439,-2.225252,-0.44709927,-1.4894422,1.983174,2.7491992
215,1778516311160,-0.781219325,-1.99676285,-0.2919682575,-1.77922135,2.3181954,3.0031282
216,1778516311170,-0.6231461,-1.9205998,-0.24025792,-2.279545433333334,2.7460429000000004,3.3164383666666666
217,1778516311180,-0.6231461,-1.9205998,-0.24025792,-3.0870075,3.3783903,3.7737727
218,1778516311190,-0.6231461,-1.9205998,-0.24025792,-3.0870075,3.3783903,3.7737727
219,1778516311200,-0.5370638466666667,-1.8653730333333336,-0.1974098933333333,-3.0870075,3.3783903,3.7737727
220,1778516311210,-0.36489934,-1.7549195,-0.11171384,-3.0870075,3.3783903,3.7737727
221,1778516311220,-0.1722356591675,-1.631345175,0.048371726,-3.5119406250000003,3.721773,3.94386055
222,1778516311230,-0.00024391667,-1.551249,0.2087317,-3.653585,3.8362339,4.0005565
223,1778516311240,-0.00024391667,-1.551249,0.2087317,-3.653585,3.8362339,4.0005565
224,1778516311250,-0.00024391667,-1.551249,0.2087317,-3.8065049,4.003661833333333,4.043622500000001
225,1778516311260,0.0119976507475,-1.53784885,0.2396024,-4.355774525,4.55579485,4.20416555
226,1778516311270,0.048722353,-1.4976484,0.3322145,-5.086064,5.2076263,4.4273987
227,1778516311280,-0.0038721784999999,-1.39776445,0.4257413225,-5.086064,5.2076263,4.4273987
228,1778516311290,0.06079623,-1.0921369,0.9214562,-5.921117,4.3295074,4.94923
229,1778516311300,0.06079623,-1.0921369,0.9214562,-6.231029266666667,3.6249762,5.385082466666667
230,1778516311310,0.06079623,-1.0921369,0.9214562,-6.3859854,3.2727106,5.6030087
231,1778516311320,0.06079623,-1.0921369,0.9214562,-6.3859854,3.2727106,5.6030087
232,1778516311330,0.16118319,-1.071465025,1.037667275,-6.3859854,3.2727106,5.6030087
233,1778516311340,0.19464551,-1.0645744,1.0764043,-6.3859854,3.2727106,5.6030087
234,1778516311350,0.19464551,-1.0645744,1.0764043,-6.3859854,3.2727106,5.6030087
235,1778516311360,0.19464551,-1.0645744,1.0764043,-6.3859854,3.2727106,5.6030087
236,1778516311370,0.19464551,-1.0645744,1.0764043,-6.3859854,3.2727106,5.6030087
237,1778516311380,0.19464551,-1.0645744,1.0764043,-6.3859854,3.2727106,5.6030087
238,1778516311390,0.19464551,-1.0645744,1.0764043,-6.3859854,3.2727106,5.6030087
239,1778516311400,0.19464551,-1.0645744,1.0764043,-6.3859854,3.2727106,5.6030087
240,1778516311410,0.91962683,-1.0075588,1.5594813,-6.840622,2.24157,6.639189
241,1778516311420,0.91962683,-1.0075588,1.5594813,-6.840622,2.24157,6.639188999999999
242,1778516311430,0.91962683,-1.0075588,1.5594813,-6.840622,2.24157,6.639189
243,1778516311440,,,,,,
244,1778516311450,,,,,,
245,1778516311460,1.3716043,-0.8881616,1.6999164,-6.8693323,2.2886066,6.7593765
246,1778516311470,1.3716043,-0.8881616,1.6999164,-6.8693323,2.2886066,6.7593765
247,1778516311480,1.428558875,-0.839881325,1.689793825,-6.9093058,2.34923495,6.751511625
248,1778516311490,1.5994225999999998,-0.6950404999999998,1.6594261,-7.0292263,2.53112,6.727917000000001
249,1778516311500,1.5994226,-0.6950405,1.6594261,-7.0292263,2.53112,6.727917
250,1778516311510,1.5994226,-0.6950405,1.6594261,-7.0292263,2.53112,6.727917
251,1778516311520,1.5884463333333334,-0.6474767666666666,1.6212125000000002,-7.1438654333333345,2.538959466666667,6.703838666666666
252,1778516311530,1.5829582,-0.6236949,1.6021057,-7.3731437,2.5546384,6.655682
253,1778516311540,1.5829582,-0.6236949,1.6021057,-7.3731437,2.5546384,6.655682
254,1778516311550,1.5829582,-0.6236949,1.6021057,-7.3731437,2.5546384,6.655682
255,1778516311560,1.6252167999999998,-0.61607254,1.6782686,-7.531052,2.3677137,6.6309423
256,1778516311570,1.6252168,-0.61607254,1.6782686,-7.531052,2.3677137,6.6309423
257,1778516311580,1.6252168,-0.61607254,1.6782686,-7.531052,2.3677137,6.6309423
258,1778516311590,1.6252167999999998,-0.61607254,1.6782686,-7.531052,2.3677137,6.6309423
259,1778516311600,1.6252168,-0.61607254,1.6782686,-7.531052,2.3677137,6.6309423
260,1778516311610,1.6252168,-0.61607254,1.6782686,-7.531052,2.3677137,6.6309423
261,1778516311620,1.6252168,-0.61607254,1.6782686,-7.531052,2.3677137,6.6309423
262,1778516311630,1.6252167999999998,-0.61607254,1.6782686,-7.531052,2.3677137,6.6309423
263,1778516311640,1.73257065,-0.5915284199999999,1.8951716,-7.3505413,1.9469039,6.49265765
264,1778516311650,1.8399245,-0.5669843,2.1120746,-7.1700306,1.5260941,6.354373
265,1778516311660,1.8399244999999995,-0.5669843,2.1120746,-7.1700306,1.5260941,6.354373
266,1778516311670,1.8399245,-0.5669843,2.1120746,-6.6323166,1.0372492,6.123771
267,1778516311680,1.8399244999999995,-0.5669843,2.1120746,-6.6323166,1.0372492,6.1237710000000005
268,1778516311690,1.8955679,-0.5237196,2.1981160500000003,-6.6323166,1.0372492,6.123771
269,1778516311700,1.9512113,-0.4804549,2.2841575,-6.6323166,1.0372492,6.123771
270,1778516311710,1.9512113,-0.4804549,2.2841575,-6.6323166,1.0372492,6.123771
271,1778516311720,1.9512113,-0.4804549,2.2841575,-6.6323166,1.0372492,6.1237710000000005
272,1778516311730,1.9512113,-0.4804549,2.2841575,-6.6323166,1.0372492,6.123771
273,1778516311740,1.9512113,-0.4804549,2.2841575,-6.6323166,1.0372492,6.123771
274,1778516311750,1.9512113,-0.4804549,2.2841575,-6.6323166,1.0372492,6.1237710000000005
275,1778516311760,1.9512113,-0.4804549,2.2841575,-6.6323166,1.0372492,6.123771
276,1778516311770,1.9512113,-0.4804549,2.2841575,-6.6323166,1.0372492,6.123771
277,1778516311780,1.9029158333333336,-0.3492277,2.3141595,-6.6323166,1.0372492,6.1237710000000005
278,1778516311790,1.8787681,-0.2836141,2.3291605,-5.212666,0.07269296,5.595831
279,1778516311800,1.8787681,-0.2836141,2.3291605,-5.212666,0.07269296,5.595831
280,1778516311810,1.8787681,-0.2836141,2.3291605,-5.212666,0.07269296,5.595831
281,1778516311820,1.7772378,-0.17147341,2.1240873,-5.212666,0.07269296,5.595831
282,1778516311830,1.7772378,-0.17147341,2.1240873,-4.933958666666666,-0.0713694266666666,5.525428833333334
283,1778516311840,1.7772378,-0.17147341,2.1240873,-4.376544,-0.3594942,5.3846245
284,1778516311850,1.7772378,-0.17147341,2.1240873,-4.376544,-0.3594942,5.3846245
285,1778516311860,1.6210091333333334,-0.0410999553333333,1.5528751666666665,-4.050749333333333,-0.4548909999999999,5.291874833333334
286,1778516311870,1.4920585333333332,0.0078459863333333,1.1668973666666669,-4.161570433333334,-0.1651372466666666,5.175708566666667
287,1778516311880,1.390386,-0.024635585,0.9661539,-4.7090073,0.50976706,5.0361257
288,1778516311890,1.390386,-0.024635585,0.9661539,-4.7090073,0.50976706,5.0361257
289,1778516311900,1.252695,-0.11872645,0.8159013,-5.353775766666668,1.0021244866666668,4.996724966666666
290,1778516311910,1.2397826749999998,-0.196276695,0.869806865,-6.188065,1.4480943000000002,4.92937705
291,1778516311920,1.3587378,-0.35032532,1.212022,-6.9565334000000005,1.1233811,4.5987463
292,1778516311930,1.4104938500000002,-0.334973815,1.249386975,-6.9565334,1.1233811,4.5987463
293,1778516311940,1.565762,-0.2889193,1.3614819,-6.9565334000000005,1.1233811,4.5987463
294,1778516311950,1.565762,-0.2889193,1.3614819,-6.8635290499999995,0.8883507725,4.500015325
295,1778516311960,1.6746098,-0.12916912,1.576341975,-5.692156975,-0.6254878275,3.7740019
296,1778516311970,1.4362627,0.0773419086666666,1.7186572,-4.714658,-1.4622587000000002,3.5779905
297,1778516311980,1.3870931,0.38130274,1.8840125,-3.722002,-0.80557853,4.2701006
298,1778516311990,2.359344966666667,1.0306089133333334,1.6476368,-3.3471342666666666,-0.263333822,4.158210466666667
299,1778516312000,3.1096935,1.5527126,1.3886176,-3.1597004,0.007788532,4.1022654
300,1778516312010,3.1096935,1.5527126,1.3886176,-3.181347975,0.080863284,3.6807684
301,1778516312020,3.1096935,1.5527126000000002,1.3886176,-3.2462907,0.30008754,2.4162774
302,1778516312030,3.1096935,1.5527126,1.3886176,-3.2462907,0.30008754,2.4162774
303,1778516312040,3.3097055,1.800105,1.1218338,-3.2462907,0.30008754,2.4162774
304,1778516312050,3.31873035,1.87889005,0.999875425,-3.2462907,0.30008754,2.4162774
305,1778516312060,3.3277552,1.9576751,0.87791705,-3.2462907,0.30008754,2.4162774
306,1778516312070,3.3277552,1.9576751,0.8779170500000001,-3.2462907,0.30008754,2.4162774
307,1778516312080,3.3277552,1.9576751,0.87791705,-3.2462907,0.30008754,2.4162774
308,1778516312090,3.3277552,1.9576751,0.87791705,-3.75666855,0.2985985575,1.710269925
309,1778516312100,3.3277552,1.9576751,0.8779170500000001,-3.9267945,0.29810223,1.4749340999999998
310,1778516312110,2.84191885,2.198054975,1.5448614875,-4.83629655,0.7737372075,1.2400182
311,1778516312120,2.6799734,2.2781816,1.7671763,-4.8192687,1.0781772,1.3171781
312,1778516312130,2.6799734,2.2781816,1.7671763,-4.8192687,1.0781772,1.3171781
313,1778516312140,2.6799734,2.2781816,1.7671763,-4.8192687,1.0781772,1.3171781
314,1778516312150,2.7539716750000003,2.335410575,1.888616325,-4.8192687,1.0781772,1.3171781
315,1778516312160,2.9759665,2.5070975,2.2529364,-4.8192687,1.0781772,1.3171781
316,1778516312170,3.1382016000000004,2.63625135,2.4408741999999997,-4.26284685,1.04839745,1.24547785
317,1778516312180,3.604763066666667,3.1523790666666667,2.964075466666667,-2.1972823,0.70112056,0.74006325
318,1778516312190,3.740462,3.3828804,3.170673,-0.39354995,0.34391713,0.08674286
319,1778516312200,3.7664392,3.4404038666666668,3.183275266666667,-0.39354995,0.34391713,0.08674286
320,1778516312210,3.772933575,3.4572899500000003,3.15251625,1.62501615,-0.1057178655,-0.71360515
321,1778516312220,3.7534508999999994,3.421663,3.0413358,2.9567406,-0.52274793,-1.2454015
322,1778516312230,3.7534509,3.421663,3.0413358,2.9567406,-0.52274793,-1.2454015
323,1778516312240,3.7534509,3.421663,3.0413358,2.9567406,-0.52274793,-1.2454015
324,1778516312250,3.754589033333333,3.3783475333333333,2.952306266666667,3.8535926,-0.8328638633333334,-1.6500997
325,1778516312260,3.7568653,3.2917166,2.7742472,4.3020186,-0.98792183,-1.8524488
326,1778516312270,3.81567985,3.2131904,2.5121434999999996,4.3020186,-0.98792183,-1.8524488
327,1778516312280,3.8352847,3.187015,2.4247756,4.3020186,-0.98792183,-1.8524488
328,1778516312290,3.8352847,3.187015,2.4247756,4.441066825,-0.9899071475,-1.9709185
329,1778516312300,3.9298637,3.0430434,1.9295027,4.1022654,-0.3837761,-3.9613085
330,1778516312310,3.9298637,3.0430434,1.9295027,4.1022654,-0.3837761,-3.9613085
331,1778516312320,3.9298637,3.0430434,1.9295027,4.1022654,-0.3837761,-3.9613085
332,1778516312330,3.9298637,3.0430434,1.9295027,4.1022654,-0.3837761,-3.9613085
333,1778516312340,3.764259425,2.84775765,1.58910185,4.1022654,-0.3837761,-3.9613085
334,1778516312350,3.709058,2.7826624,1.4756349,4.1022654,-0.3837761,-3.9613085
335,1778516312360,3.709058,2.7826624,1.4756349,4.1022654,-0.3837761,-3.9613085
336,1778516312370,3.709058,2.7826624,1.4756349,4.1022654,-0.3837761,-3.9613085
337,1778516312380,3.550674733333333,2.6939580333333333,1.3975205666666666,2.9964467999999997,-0.08536842,-4.6350927
338,1778516312390,3.2339082,2.5165493,1.2412919,2.9964468,-0.08536842,-4.6350927
339,1778516312400,3.2339082,2.5165493,1.2412919,2.9964467999999997,-0.08536842,-4.6350927
340,1778516312410,2.596127,1.9665782,1.5824704,0.9356546775,0.561919645,-5.4911823250000005
341,1778516312420,2.5358186666666667,1.8931999333333336,1.6602594666666668,0.8168796,0.6753115,-5.6170588
342,1778516312430,2.415202,1.7464434,1.8158376,0.8168796,0.6753115,-5.6170588
343,1778516312440,2.1687037,1.289770366666667,2.152280033333333,1.2783373666666666,0.6792312866666667,-6.084574233333334
344,1778516312450,1.927078825,0.79003085,2.354131175,1.8690568,0.645608225,-6.320660849999999
345,1778516312460,1.795714425,0.4520080849999999,2.4169701,2.213928375,0.669546485,-6.391368525
346,1778516312470,1.7666274,0.20714624,2.3898954,3.123964766666667,0.7772241933333334,-6.454249533333333
347,1778516312480,1.806629775,0.154475482125,2.3577899,3.7244453,0.8622363,-6.443254
348,1778516312490,1.9266369,-0.0035367914999999,2.2614734,3.7244453000000006,0.8622362999999998,-6.443254
349,1778516312500,1.9266369,-0.0035367915,2.2614734,4.0442333,0.882853,-6.4382143
350,1778516312510,1.9266369,-0.0035367915,2.2614734,4.3640213,0.9034697,-6.4331746
351,1778516312520,1.9348487,-0.3748592638333333,2.015117533333333,5.0893221,0.8596910333333333,-6.637814333333334
352,1778516312530,1.9389546,-0.5605205,1.8919396,5.4519725,0.8378017,-6.7401342
353,1778516312540,1.9389546,-0.5605205,1.8919396,5.4519725,0.8378017,-6.7401342
354,1778516312550,1.9555409,-0.70632176,1.71842355,5.671082125,0.6514877675,-6.811223975
355,1778516312560,2.02472175,-0.803690205,1.678878425,5.731366749999999,0.332692496,-6.952486425
356,1778516312570,1.9902381,-0.9185292,1.7339426,5.7199892000000006,-0.057930384,-7.153435666666667
357,1778516312580,1.9902381,-0.9185292,1.7339426,5.6757016,-0.1386664,-7.2094316
358,1778516312590,1.9902381,-0.9185292,1.7339426,5.6757016,-0.1386664,-7.2094316
359,1778516312600,1.9902381,-0.9185292,1.7339426,5.6757016,-0.1386664,-7.2094316
360,1778516312610,,,,,,
361,1778516312620,,,,,,
362,1778516312630,2.00816605,-1.2653787,1.76177955,5.3104043,1.7592919,-6.5964284
363,1778516312640,1.8587061,-1.3603842,1.7433944,5.60873565,1.66399695,-6.7543371
364,1778516312650,1.7663429333333334,-1.4300833666666666,1.6801996666666668,6.0840141999999995,1.4259631333333334,-6.9409054333333335
365,1778516312660,1.3105948,-1.805196725,1.04968015,7.07954635,0.495640785,-7.070955875
366,1778516312670,1.2202542,-1.8837684,0.8816368,7.2934256,0.28069258,-7.0951996
367,1778516312680,0.9449942,-2.1377468,0.29849303,7.332979,0.061850104,-7.091229
368,1778516312690,0.9449942,-2.1377468,0.29849303,7.332979,0.061850104,-7.091229
369,1778516312700,0.9449942,-2.1377468,0.29849303,7.332978999999999,0.0618501039999999,-7.091229000000001
370,1778516312710,0.4816135,-2.5395384,-0.32367742,6.8349714,0.30955598,-6.946149
371,1778516312720,0.4816135000000001,-2.5395384,-0.32367742,6.8349714,0.30955598,-6.946149000000001
372,1778516312730,0.176290785,-2.7441845,-0.555001885,6.2918355749999995,0.57436607,-6.634607475
373,1778516312740,-0.12903193,-2.9488306,-0.78632635,6.1107903,0.6626361,-6.5307603
374,1778516312750,-0.12903193,-2.9488305999999995,-0.78632635,6.110790300000001,0.6626361,-6.5307603
375,1778516312760,-0.12903193,-2.9488306,-0.78632635,6.1107903,0.6626361,-6.5307603
376,1778516312770,-0.12903193,-2.9488305999999995,-0.78632635,6.110790300000001,0.6626361,-6.5307603
377,1778516312780,-0.12903193,-2.9488306,-0.78632635,6.1107903,0.6626361,-6.5307603
378,1778516312790,-0.3811655425,-3.122255275,-0.9221574625,6.1107903,0.6626361,-6.5307603
379,1778516312800,-0.46521008,-3.1800635000000006,-0.9674345,5.755877833333334,0.6970481666666667,-6.167397433333334
380,1778516312810,-0.46521008,-3.1800635,-0.9674345,5.5784216,0.7142542,-5.985716
381,1778516312820,-0.46521008,-3.1800635000000006,-0.9674345,5.578421600000001,0.7142542,-5.985716
382,1778516312830,-1.0754286,-3.5725257,-1.1788493,5.5784216,0.7142542,-5.985716
383,1778516312840,-1.0754286,-3.5725257,-1.1788493,5.45949375,0.665308625,-5.76672075
384,1778516312850,-1.0754286,-3.5725257,-1.1788493,4.5495715,0.3903429,-3.9484801
385,1778516312860,-1.18006885,-3.627300225,-1.23905095,4.5495715,0.3903429,-3.9484801
386,1778516312870,-1.4939896,-3.7916238,-1.4196558999999995,4.5495715,0.3903429,-3.9484801
387,1778516312880,-1.4939896,-3.7916238,-1.4196559,4.1457896,0.4145484299999999,-3.2280409
388,1778516312890,-1.4939896,-3.7916238,-1.4196559,3.7420077,0.43875396,-2.5076017
389,1778516312900,-1.6702803,-3.827845,-1.5431387,3.7420077,0.4387539599999999,-2.5076017
390,1778516312910,-1.643769625,-3.827906125,-1.55995375,3.7420077,0.43875396,-2.5076017
391,1778516312920,-1.5642376,-3.828089499999999,-1.6103989,3.7420077,0.4387539599999999,-2.5076017
392,1778516312930,-1.522634575,-3.810893325,-1.6168779,3.7420077,0.43875396,-2.5076017
393,1778516312940,-1.3978255,-3.7593048,-1.6363148999999997,3.7420077,0.4387539599999999,-2.5076017
394,1778516312950,-1.3978255,-3.7593048,-1.6363149,3.7420077,0.43875396,-2.5076017
395,1778516312960,-1.3978255,-3.7593048,-1.6363149,3.7420077,0.43875396,-2.5076017
396,1778516312970,-1.3978255,-3.7593048,-1.6363148999999997,2.6117033666666667,0.6684393200000001,-0.9316712666666668
397,1778516312980,-1.3978255,-3.7593048,-1.6363149,0.898964525,1.2246321,0.706312925
398,1778516312990,-0.87174295,-3.528574725,-1.6003677,-0.24862215,1.6659822,1.5563319
399,1778516313000,-0.6963821,-3.4516647,-1.5883853,-0.24862215,1.6659822,1.5563319
400,1778516313010,-0.5101517250000001,-3.37403835,-1.5353335,-0.24862215,1.6659822,1.5563319
401,1778516313020,-0.32392135,-3.296412,-1.4822817,-1.171945,2.0793853,1.9055941
402,1778516313030,0.06652827,-3.0038948,-1.1528112,-1.171945,2.0793853,1.9055941
403,1778516313040,0.06652827,-3.0038948,-1.1528112,-1.49658175,2.222175075,1.927203475
404,1778516313050,0.06652827,-3.0038948,-1.1528112,-2.470492,2.6505444,1.9920316
405,1778516313060,-0.0077900879999999,-2.8200884,-0.865965195,-3.00366265,2.723962725,1.887688225
406,1778516313070,-0.032562874,-2.7588196000000003,-0.77034986,-3.1813862,2.7484355,1.8529071
407,1778516313080,-0.032562874,-2.7588196,-0.77034986,-3.24491615,2.670702875,1.8846339
408,1778516313090,-0.032562874,-2.7588196000000003,-0.77034986,-3.435506,2.437505,1.9798143
409,1778516313100,-0.140313062,-2.638904,-0.6217131300000001,-3.435506,2.437505,1.9798143
410,1778516313110,-0.24806325,-2.5189884,-0.4730764,-3.435506,2.437505,1.9798143
411,1778516313120,-0.24806325,-2.5189884,-0.4730764,-3.5005632,2.2864176666666665,2.1657208333333333
412,1778516313130,-0.263445245,-2.472537475,-0.4252992175,-3.5330918,2.210874,2.2586741
413,1778516313140,-0.30959123,-2.3331847,-0.28196767,-3.5330918,2.210874,2.2586741
414,1778516313150,-0.30959123,-2.3331847,-0.28196767,-3.5330918,2.210874,2.2586741
415,1778516313160,-0.30959123,-2.3331847,-0.28196767,-3.5330918,2.210874,2.2586741
416,1778516313170,-0.30959123,-2.3331847,-0.28196767,-3.5330918,2.210874,2.2586741
417,1778516313180,-0.413103365,-1.894577,0.131638781225,-3.7614028,2.7594311,3.0680707
418,1778516313190,-0.6022912,-1.7061361,0.18836464,-3.7614028,2.7594311,3.0680707
419,1778516313200,-0.599455675,-1.6117556,0.15113686,-4.156174425,3.054784375,3.9487094
420,1778516313210,-0.5673501766666668,-1.3196095,0.03681109,-5.044474433333334,2.7949120666666665,5.363855
421,1778516313220,-0.52015233,-1.3016003,0.03152623,-5.148067,2.7278187,5.460677
422,1778516313230,0.0278267799999999,-1.0874211533333331,0.2003165533333333,-6.185112666666666,2.3469442333333332,5.512447900000001
423,1778516313240,1.09045995,-0.729371815,0.936426535,-9.385829875,1.504522975,5.149441425
424,1778516313250,1.0399387,-0.7855336,1.1720805,-9.952216,1.4579827,4.9367075
425,1778516313260,0.9282096625,-0.8726576125000001,1.7161824,-9.952216,1.4579827,4.9367075
426,1778516313270,0.8875924833333334,-0.87405505,2.371805033333333,-9.7099575,0.98272946,5.061425866666666
427,1778516313280,0.8859054,-0.8602331,2.6089327,-9.496358,0.82802784,5.115233
428,1778516313290,0.8859054,-0.8602331,2.6089327,-9.496358,0.82802784,5.115233
429,1778516313300,1.0201205,-0.5838755,3.1764657,-7.794793000000001,-0.19608775,5.4655643
430,1778516313310,1.18973405,-0.40456627,3.22216975,-5.3542337,-1.2188289,5.6983037
431,1778516313320,1.3593476000000002,-0.22525704,3.2678738,-5.354233699999999,-1.2188289,5.6983037
432,1778516313330,1.3963619,-0.0213579535,2.78853155,-3.6404514,-1.3264939,5.6447005
433,1778516313340,1.3586768,0.067503944,2.438069,-3.1756593,-1.1947761,5.6023216
434,1778516313350,1.3586768000000002,0.067503944,2.438069,-2.7108672000000005,-1.0630583,5.5599427
435,1778516313360,1.3586768,0.067503944,2.438069,-2.7108672,-1.0630583,5.5599427
436,1778516313370,1.33748655,0.083663423,2.3091286,-2.47026265,-0.8670468849999999,5.49236585
437,1778516313380,1.1237850666666669,0.1330565433333333,1.3520911466666667,-2.377436633333333,0.02372193,5.184464
438,1778516313390,0.9621903,0.1247024,0.81638914,-2.7200303,0.34025195,5.086522
439,1778516313400,0.9621903,0.1247024,0.81638914,-2.7200303,0.34025195,5.086522
440,1778516313410,1.1319868,0.177937215,0.487589445,-5.11553835,0.637514245,4.4306819
441,1778516313420,1.3017833,0.23117203,0.15878975,-7.511046400000001,0.93477654,3.774841799999999
442,1778516313430,1.28135525,0.130769828,0.15699087,-8.152302200000001,0.8347473400000001,3.61769665
443,1778516313440,1.1909028,-0.0058743259999999,0.48230456,-9.279501,-0.07162395,3.4229834
444,1778516313450,1.050854,-0.07835823,1.1365297,-9.279501,-0.07162395,3.4229834
445,1778516313460,1.050854,-0.07835823,1.1365297,-9.279501,-0.07162395,3.4229834
446,1778516313470,1.0308122,-0.046242534,1.651315833333333,-9.096241666666666,-0.3442225666666667,3.4679838000000003
447,1778516313480,1.0128335125,0.0328677705,2.0113216,-8.33678375,-1.079208,3.633121025
448,1778516313490,0.98896015,0.22202514,2.3191597,-7.157965999999999,-1.6485726000000005,3.8585303
449,1778516313500,1.2391577,0.5873514,1.8766339,-7.157966,-1.6485726,3.8585303
450,1778516313510,1.2391577,0.5873514,1.8766339,-7.157966,-1.6485726,3.8585303
451,1778516313520,1.2391577,0.5873514,1.8766339,-6.3301418,-1.7896824666666664,4.1509311
452,1778516313530,1.2391577,0.5873514,1.8766339,-5.9162297,-1.8602374,4.2971315
453,1778516313540,1.2391577,0.5873514,1.8766339,-5.9162297,-1.8602374,4.2971315
454,1778516313550,1.2391577,0.5873514,1.8766339,-5.9162297,-1.8602374,4.2971315
455,1778516313560,1.5540541,0.8045591,1.3385537,-5.924324,-1.4912748,4.3374486
456,1778516313570,1.5540541,0.8045591,1.3385537,-5.924324000000001,-1.4912748,4.3374486
457,1778516313580,1.5540541,0.8045591,1.3385537,-5.924324,-1.4912748,4.3374486
458,1778516313590,1.5540541,0.8045591,1.3385537,-5.924324,-1.4912748,4.3374486
459,1778516313600,1.5462487666666669,0.7872613666666667,1.3402611333333334,-5.924324000000001,-1.4912748,4.3374486
460,1778516313610,1.5390837,0.7657916499999999,1.5419040000000002,-6.33200025,-1.159269525,4.33424165
461,1778516313620,1.5644205,0.8051689,2.136588,-6.739676499999999,-0.8272642500000001,4.3310347
462,1778516313630,1.5644205,0.8051689,2.136588,-6.7396765,-0.82726425,4.3310347
463,1778516313640,1.5644205,0.8051689,2.136588,-6.776939233333334,-0.7674503666666667,4.379751233333334
464,1778516313650,1.5644205,0.8051689,2.136588,-6.8514647,-0.6478226,4.4771843
465,1778516313660,1.5644205,0.8051689,2.136588,-6.8514647,-0.6478226,4.4771843
466,1778516313670,1.5644205,0.8051689,2.136588,-6.3918903333333335,-0.7299839666666667,4.5678467666666664
467,1778516313680,1.5644205,0.8051689,2.136588,-5.4727416,-0.8943067,4.7491717
468,1778516313690,1.5644205,0.8051689,2.136588,-5.4727416,-0.8943067,4.7491717
469,1778516313700,1.5644205,0.8051689,2.136588,-5.4727416,-0.8943067,4.7491717
470,1778516313710,2.89747085,1.9536658,3.024139875,-3.618918375,-0.18612301,4.623066275
471,1778516313720,4.109203,3.0135295,3.1122549,-1.6893479000000002,1.0856602,4.07554
472,1778516313730,4.05729475,3.237536575,3.368595975,-0.89652113,1.2314662,3.3233740000000003
473,1778516313740,4.039992,3.3122056,3.454043,0.04772383,1.1757629,2.7672958000000003
474,1778516313750,4.039992,3.3122056,3.454043,0.7276932,1.0714576,2.4619396
475,1778516313760,4.011651875,3.35943395,3.45564375,0.7276932,1.0714576,2.4619396
476,1778516313770,3.926631500000001,3.5011190000000005,3.4604459999999997,0.7276932,1.0714576,2.4619396
477,1778516313780,3.94394955,3.5299774,3.34946385,0.7276932,1.0714576,2.4619396
478,1778516313790,3.9959037,3.6165526,3.0165174,0.7276932,1.0714576,2.4619396
479,1778516313800,,,,,,
480,1778516313810,3.9959037,3.6165526,3.0165174,0.7276932,1.0714576,2.4619396
481,1778516313820,4.171219,3.6283214,2.3293433,2.4721715,0.8147415,1.7524197
482,1778516313830,4.171219,3.6283214,2.3293433,3.7044396,0.8126035,0.9877691
483,1778516313840,4.171219,3.6283214,2.3293433,3.7044396,0.8126035,0.9877691
484,1778516313850,4.171219,3.628321399999999,2.3293433,3.915544466666667,0.8303694899999999,0.663043317
485,1778516313860,4.18350635,3.603502925,2.1314201500000003,4.3351579000000005,0.8627708024999999,-0.19436968675
486,1778516313870,3.7706164,3.47114765,0.94536005,3.42046335,0.66271245,-1.3665819
487,1778516313880,2.6310072,3.3644037,0.10287185,2.5135577,0.4720461,-1.9149098
488,1778516313890,2.6310072,3.3644037,0.10287185,2.5135577,0.4720461,-1.9149098
489,1778516313900,2.6310072,3.3644037,0.10287185,2.5135577,0.4720461,-1.9149098
490,1778516313910,2.5831386,3.3239743500000003,0.246203385,1.7625371,0.333226995,-2.054874275
491,1778516313920,2.5481366000000003,3.2605711,0.47362519,1.39475805,0.2467895675,-2.205185325
492,1778516313930,2.5721825333333332,3.030786466666666,1.0126606666666669,1.0325659,-0.0034106659999999,-2.8935668
493,1778516313940,2.5649056,2.950355,1.156043,1.0276281,-0.068264194,-3.0822732
494,1778516313950,2.5649056,2.950355,1.156043,1.0276281,-0.068264194,-3.0822732
495,1778516313960,2.5049632,2.754246,1.3889835,1.1116984,-0.151036432,-3.30852245
496,1778516313970,2.4470737333333332,2.593708266666667,1.5590341,1.6880242666666667,-0.2221513166666666,-4.382449066666667
497,1778516313980,2.418129,2.5134394,1.6440594,1.7895297,-0.1601994,-4.5367436
498,1778516313990,2.2639735,2.2467775,1.8871223,1.7895297,-0.1601994,-4.5367436
499,1778516314000,2.2639735,2.2467775,1.8871223,1.7895297,-0.1601994,-4.5367436
500,1778516314010,2.2639735,2.2467775,1.8871223,1.7895297,-0.1601994,-4.5367436
501,1778516314020,2.0482902666666667,1.8545187666666667,2.185473,2.2748112666666667,0.12863805,-4.745812233333333
502,1778516314030,1.9241368,1.5745431,2.341661,3.2453744,0.70631295,-5.1639495
503,1778516314040,1.9247872,1.3839628333333334,2.3843058000000004,3.2453744000000007,0.70631295,-5.1639495
504,1778516314050,1.8973668666666663,1.034348933333333,2.2918817333333337,4.2655702,0.7534004666666666,-5.3642112
505,1778516314060,1.8418758,0.5257014,2.0643888,5.9880066,0.46838093,-5.75206
506,1778516314070,1.8179922666666664,0.3924415933333333,1.9423898,6.4515004,0.2368629999999999,-5.8872137
507,1778516314080,1.7702251999999998,0.12592198,1.6983918000000002,6.4515004,0.2368629999999999,-5.8872137
508,1778516314090,1.7221128,-0.13720313,1.457463,6.573979,-0.056963183,-6.0295453
509,1778516314100,1.7700424,-0.48228425,1.2678179,5.965557166666667,-0.4108577866666666,-6.2032348
510,1778516314110,1.7700424,-0.48228425,1.2678179,4.9819117,-0.43860126,-6.439131
511,1778516314120,1.6439171,-0.62113381,1.827626966666667,4.646444566666666,-0.41874812,-6.531066
512,1778516314130,1.45917055,-0.709065785,2.3024819,4.5425465,-0.4451680449999999,-6.48166205
513,1778516314140,1.3450785,-0.76150787,2.6047251,4.839198075,-0.601282305,-6.29363005
514,1778516314150,1.3489811000000005,-0.79260725,3.2351277,5.9624521,-1.1455250666666668,-5.9552236
515,1778516314160,1.7529682,-0.98145974,3.3175106,7.138367666666667,-1.6467909,-5.8269926666666665
516,1778516314170,1.9370947,-0.8153067350000001,1.816142525,7.378412150000001,-1.528728425,-7.0616025
517,1778516314180,1.5228328,-0.7968756999999999,1.6715,4.0607266,0.9944886,-7.320761700000001
518,1778516314190,1.471717,-0.8075928125,1.675295925,4.0607266,0.9944886,-7.3207617
519,1778516314200,1.2640373,-0.8905397699999998,1.574848,4.681977,0.600786,-6.6712594
520,1778516314210,1.229568775,-0.9184987025,1.50196265,4.8029664,0.5074763250000001,-6.6291097500000005
521,1778516314220,0.99011874,-1.1014667,1.0429877,5.289431266666667,0.12583824,-6.4256916
522,1778516314230,0.66662425,-1.3925812,0.46057564,5.3511796,0.07498371,-6.387207
523,1778516314240,0.66662425,-1.3925811999999995,0.46057564,5.351179599999999,0.07498371,-6.387207
524,1778516314250,0.66662425,-1.3925812,0.46057564,5.3636642000000005,0.0222965799999999,-6.306534625
525,1778516314260,0.66662425,-1.3925811999999995,0.46057564,5.401118,-0.13576481,-6.0645175
526,1778516314270,0.66662425,-1.3925812,0.46057564,5.401118,-0.13576481,-6.0645175
527,1778516314280,0.35117903,-1.7575415,-0.004695396,5.401118,-0.13576481,-6.0645175
528,1778516314290,0.35117903,-1.7575415,-0.004695396,5.273854333333333,-0.1271108833333333,-5.912768333333333
529,1778516314300,0.1897671715,-1.97319425,-0.108878303,5.019327,-0.10980303,-5.60927
530,1778516314310,0.028355313,-2.188847,-0.21306121,5.019327,-0.1098030299999999,-5.6092699999999995
531,1778516314320,0.028355313,-2.188847,-0.21306121,5.019327,-0.10980303,-5.60927
532,1778516314330,-0.16555844,-2.453497,-0.30361527,4.6979099333333325,-0.4270457433333334,-4.567948333333334
533,1778516314340,-0.441291,-3.0342013999999997,-0.5770001275,4.5372014,-0.5856671,-4.0472875
534,1778516314350,-0.59751962,-3.48012675,-0.822624225,4.2976278500000005,-0.7200192425,-3.356169975
535,1778516314360,-0.8279751333333333,-3.7549142,-1.1150244333333337,3.954589,-0.88453287,-2.7104091999999995
536,1778516314370,-0.89236915,-3.7974777,-1.1864717,3.954589,-0.88453287,-2.7104092
537,1778516314380,-0.89236915,-3.7974777,-1.1864717,3.3324227,-1.0592403,-2.1294763
538,1778516314390,-0.89236915,-3.7974777,-1.1864717,3.3324227,-1.0592403,-2.1294763
539,1778516314400,-0.9307453666666669,-3.7898553,-1.1877522333333337,3.3324227,-1.0592403,-2.1294763
540,1778516314410,-1.0074978,-3.7746105,-1.1903133,2.132836,-0.9660834,-1.260215
541,1778516314420,-1.0149169333333334,-3.738775,-1.1560023666666666,2.132836,-0.9660834,-1.260215
542,1778516314430,-1.0297552,-3.667104,-1.0873805,2.132836,-0.9660834,-1.260215
543,1778516314440,-1.0297552,-3.667104,-1.0873805,1.3550009333333335,-0.65138598,-0.775188
544,1778516314450,-1.0297552,-3.667104,-1.0873805,0.9660834,-0.49403727,-0.5326745
545,1778516314460,-0.9401971333333332,-3.5811234000000005,-0.8650911,0.9660834,-0.49403727,-0.5326745
546,1778516314470,-0.8954181,-3.5381331,-0.7539464,0.9660834,-0.49403727,-0.5326745
547,1778516314480,-0.839713625,-3.4702176,-0.586314675,0.40832525,-0.1130100774999999,-0.19708041
548,1778516314490,-0.6726002000000001,-3.2664711,-0.0834195,-2.2531765,1.7140878,1.6563611
549,1778516314500,-0.6726002,-3.2664711,-0.0834195,-2.2531765,1.7140878,1.6563611
550,1778516314510,-0.6726002000000001,-3.2664711,-0.0834195,-2.2531765,1.7140878,1.6563611
551,1778516314520,-0.6726002,-3.2664711,-0.0834195,-2.2531765,1.7140878,1.6563611
552,1778516314530,-0.6726002,-3.2664711,-0.0834195,-2.5462771749999997,1.906281375,2.097558575
553,1778516314540,-0.6246909233333333,-2.8007528666666666,0.40864172,-3.1066060666666666,2.7769934333333333,3.1523701333333336
554,1778516314550,-0.61377055,-2.16706245,0.407859145,-5.252295849999999,4.4720683,5.742477
555,1778516314560,-0.5991203,-2.0008485,0.3691678599999999,-5.890421,4.902652,6.454555
556,1778516314570,-0.26702777,-1.846998,0.40788963,-6.9134674,5.010775,7.1417785
557,1778516314580,-0.26702777,-1.846998,0.4078896299999999,-8.2396555,4.8447723,7.715686299999999
558,1778516314590,0.1791568,-1.7362598,0.53265303,-8.2396555,4.8447723,7.7156863
559,1778516314600,0.1791568,-1.7362598,0.53265303,-8.746775833333333,4.7126217,7.871762433333333
560,1778516314610,0.51692045,-1.6996723,0.69333315,-9.557598,4.26338125,7.96606475
561,1778516314620,0.51692045,-1.6996723,0.69333315,-10.11486,3.8802161,7.982329
562,1778516314630,0.51692045,-1.6996723000000002,0.69333315,-10.11486,3.8802161,7.982329
563,1778516314640,0.51692045,-1.6996723,0.69333315,-10.11486,3.8802161,7.982329
564,1778516314650,0.51692045,-1.6996723000000002,0.69333315,-10.11486,3.8802161,7.982329
565,1778516314660,0.8763773875,-1.55786525,0.8969425874999999,-10.22974075,3.62132375,7.86737175
566,1778516314670,1.9547482,-1.1324441,1.5077709,-10.635520333333332,2.4335344,7.341073000000001
567,1778516314680,2.1093304,-0.8606599,1.9351128,-10.757795,1.6113098,6.978219
568,1778516314690,2.1093304,-0.8606599,1.9351128,-10.757795,1.6113098,6.978219
569,1778516314700,1.99526885,-0.8616356000000001,2.4091039,-10.7015195,1.1617893499999998,6.79053065
570,1778516314710,1.8812073,-0.8626113,2.883095,-10.4032265,0.45593456,6.5301112
571,1778516314720,1.8812073,-0.8626112999999999,2.8830949999999995,-10.322554,0.37048978,6.5058675
572,1778516314730,1.7109535,-0.77492326,3.699606,-10.322554,0.37048978,6.5058675
573,1778516314740,1.5978981666666667,-0.71048862,3.761316933333333,-7.766082666666667,-0.0970257533333333,6.656343833333334
574,1778516314750,1.5413705,-0.6782713,3.7921724,-4.5017715,-0.37232238,7.0200634
575,1778516314760,1.54303215,-0.63860435,3.646721875,-4.5017715,-0.37232238,7.0200634
576,1778516314770,1.6046260666666663,-0.4784019066666666,3.0554018666666667,-4.5017715,-0.37232238,7.020063400000001
577,1778516314780,1.717844,-0.39599872,2.745465,-4.03186335,-0.3690389699999999,7.087564
578,1778516314790,1.717844,-0.3959987199999999,2.745465,-3.5619552,-0.36575556,7.1550646
579,1778516314800,1.717844,-0.39599872,2.745465,-3.5619552,-0.36575556,7.1550646
580,1778516314810,1.717844,-0.39599872,2.745465,-3.5619552,-0.36575556,7.1550646
581,1778516314820,1.8534210333333336,-0.3096725433333333,2.4706725666666665,-3.4741433333333336,-0.3045163233333333,7.0496394
582,1778516314830,2.1245751,-0.13702019,1.9210877,-3.2985196,-0.18203785,6.838789
583,1778516314840,2.1245751,-0.13702019,1.9210877,-3.2985196,-0.18203785,6.838789000000001
584,1778516314850,2.1245751,-0.13702019,1.9210877,-3.2985196,-0.18203785,6.838789
585,1778516314860,2.0120381,0.16653411,1.12933415,-4.564538,0.6041457,5.853769
586,1778516314870,1.7809169,0.1443986733333333,1.1345174,-5.9090524,1.0916162,5.4498343
587,1778516314880,1.8406715,0.0001524475,1.4892027250000002,-7.2053084,1.3938417,5.3750033
588,1778516314890,1.8833417,-0.02414775,1.5616155,-7.2053084,1.3938417,5.3750033
589,1778516314900,1.8833417,-0.02414775,1.5616155,-7.2053084,1.3938417,5.3750033
590,1778516314910,1.8961473,-0.1175678366666666,1.8100447,-7.351101533333334,0.5278384533333333,4.392172066666666
591,1778516314920,1.9025501,-0.16427788,1.9342593,-7.1628532,-0.1600467,3.7841575
592,1778516314930,1.9025501,-0.16427788,1.9342593,-7.1628532,-0.1600467,3.784157500000001
593,1778516314940,1.9025501,-0.16427788,1.9342593,-7.1628532,-0.1600467,3.7841575
594,1778516314950,1.9025501,-0.16427788,1.9342593,-7.1628532,-0.1600467,3.7841575
595,1778516314960,,,,,,
596,1778516314970,3.606308,1.9597485,1.7602856000000002,-4.190994,-1.0615311,2.9092457
597,1778516314980,3.606308,1.9597485,1.7602856,-4.190994,-1.0615311,2.9092457
598,1778516314990,3.6653561,2.0651815,1.7419919,-4.137645,-1.0178033133333333,2.743039466666667
599,1778516315000,5.134873,3.5715501,3.217139,0.41783184,-0.31658092,0.4558582
600,1778516315010,5.221178733333333,3.4919314999999997,3.191792,0.6714426933333333,-0.3077233733333333,0.1281289866666666
601,1778516315020,4.7288737,2.6658263,2.7977852999999997,2.4238114666666664,-0.4282674533333333,-2.0888028133333334
602,1778516315030,4.7288737,2.6658263,2.7977852999999997,3.222823266666667,-0.5667302433333333,-3.042821566666667
603,1778516315040,4.7288737,2.6658263,2.7977852999999997,3.5756998,-0.70539665,-3.3893857
604,1778516315050,4.3703766,2.447155,2.5660036,3.5756998,-0.70539665,-3.3893857
605,1778516315060,4.016087866666667,2.318488933333333,2.1682566666666667,3.5756998,-0.70539665,-3.3893857
606,1778516315070,3.8389435,2.2541559,1.9693832,3.5756998,-0.70539665,-3.3893857
607,1778516315080,3.647286,2.1447592,1.2920876,1.2086987013333337,0.304669004,-4.6254208666666665
608,1778516315090,3.647286,2.1447592,1.2920876,0.055283304,1.161102,-5.0159674
609,1778516315100,3.51804075,2.029874575,1.5055757,0.055283304,1.161102,-5.0159674
610,1778516315110,3.1161982,1.8079510666666667,2.1748017,-0.148338432,1.3593278666666666,-5.135696733333333
611,1778516315120,2.57685775,1.481626025,3.0951957,0.74724095,1.5948545749999998,-5.628359525
612,1778516315130,2.4195313,1.2868433,3.4256268,2.048384,1.2541064,-5.7140336
613,1778516315140,2.4195313,1.2868433,3.4256268,2.048384,1.2541064,-5.7140336
614,1778516315150,2.4195313,1.2868433,3.4256268,3.2103513333333336,0.9669996866666668,-5.8089212
615,1778516315160,2.4361787,1.0162787,3.474593,3.791335,0.82344633,-5.856365
616,1778516315170,2.4361787,1.0162787,3.474593,3.791335,0.82344633,-5.856365
617,1778516315180,2.5916758,0.6358298,3.2112849,4.993976,0.5884923,-6.08528675
618,1778516315190,2.5916758,0.6358298,3.2112849000000003,6.196617,0.35353827,-6.3142085
619,1778516315200,2.52869955,0.4324032925,2.944424825,7.2932348,0.20937407,-6.705964225
620,1778516315210,2.2879384,-0.4487457000000001,1.8390707,8.076402,0.23151793,-7.059464000000001
621,1778516315220,2.25284485,-0.5910711,1.74580315,8.022188,0.11224649,-7.1788883
622,1778516315230,2.2177513,-0.7333965,1.6525356,8.022188,0.11224649,-7.1788883
623,1778516315240,2.2177513,-0.7333965,1.6525356,8.022188,0.11224649,-7.1788883
624,1778516315250,2.1860422333333336,-0.86133074,1.6069638,8.001571199999999,-0.0086030233333333,-7.207751733333333
625,1778516315260,2.1701877,-0.92529786,1.5841779,7.9603376,-0.25030205,-7.2654786
626,1778516315270,2.1701877,-0.92529786,1.5841779,7.909178,-0.8622362999999998,-7.391011
627,1778516315280,2.1940916,-1.0455488,1.5971054,7.85053485,-1.1496102,-7.481953675
628,1778516315290,2.258729475,-1.04532015,1.65881625,7.514902375,-2.1557434,-7.826405524999999
629,1778516315300,2.3517227,-1.0017658,1.7964462,6.753115333333334,-2.5548421,-8.121758499999999
630,1778516315310,2.46712575,-0.929688395,2.5376481,5.8541507,-1.97584365,-8.331972749999998
631,1778516315320,2.5152688,-0.89017385,3.0350552,5.520542,-1.4627168,-8.381224
632,1778516315330,2.5152688,-0.89017385,3.0350552,5.520542,-1.4627168,-8.381224
633,1778516315340,2.4003686,-0.985057475,3.41311065,6.969362,-1.3607023,-8.318458
634,1778516315350,2.3351972,-1.0529273,3.2914116,7.204748666666667,-1.4706580333333334,-8.344063333333333
635,1778516315360,2.3351972,-1.0529273,3.2914116,7.675522,-1.6905695,-8.395274
636,1778516315370,2.0417044,-1.1364688,2.7715032,8.609076666666667,-2.0460423,-8.298553333333333
637,1778516315380,2.0417044,-1.1364688,2.7715032,8.702081,-2.0702224,-8.263174
638,1778516315390,2.0318460999999997,-1.1397819666666666,2.597326366666667,9.096395,-2.193617,-7.8780236
639,1778516315400,2.01652,-1.1234802,2.031887,9.16527,-2.3918428,-7.6907935
640,1778516315410,2.01652,-1.1234802,2.031887,9.16527,-2.3918428,-7.6907935
641,1778516315420,1.9477965,-1.0512808666666666,1.765997466666667,8.699637333333333,-2.958420333333333,-7.2663948
642,1778516315430,1.729414875,-0.6854973375,0.61471577,8.079609,-3.4793358,-6.8224483
643,1778516315440,1.7535372333333334,-0.7236397999999999,0.4973664333333333,7.482386600000001,-3.663715266666667,-6.583600100000001
644,1778516315450,1.6822933,-1.108204925,0.520624875,4.6603671,-3.283744425,-6.25487845
645,1778516315460,1.45267625,-1.51679585,0.7316280500000001,3.82668885,-2.8346438999999997,-6.316193999999999
646,1778516315470,1.0307715466666665,-2.070120766666667,0.9881268,3.3571627,-2.5329528,-6.381862000000001
647,1778516315480,0.58655864,-2.5617347,1.1693976,3.3571627,-2.5329528,-6.381862
648,1778516315490,-0.29928576,-3.4090708000000003,1.2268399,3.339753,-1.956754,-5.8168878500000005
649,1778516315500,-0.66314846,-3.691008,1.2173271,3.6587264666666663,-1.8344792,-5.074203100000001
650,1778516315510,-0.66314846,-3.691008,1.2173271,3.747811,-1.7986927,-4.829348
651,1778516315520,-1.1618971,-4.0740185,1.109638,3.747811,-1.7986927,-4.829348
652,1778516315530,-1.3991059666666663,-4.282688833333334,0.7442914333333333,3.626045133333333,-1.685886233333333,-3.8232528
653,1778516315540,-1.5177104,-4.387024,0.56161815,3.33425515,-1.4984524,-3.045506775
654,1778516315550,-1.1383388333333333,-4.2308771,0.4316308666666666,-0.1328122866666666,0.824973569,-0.2127847266666667
655,1778516315560,-0.97761805,-4.143244975,0.6004618575,-0.6394232,1.210735,0.14095716
656,1778516315570,-0.804925,-4.016149,0.74754363,-0.8251771333333333,1.363807633333333,0.2971350399999999
657,1778516315580,-0.804925,-4.016149,0.74754363,-1.196685,1.6699529,0.6094908
658,1778516315590,-0.6392750949999999,-3.593242975,0.8760572325,-1.8266398,2.17972,1.26556
659,1778516315600,-0.5507028566666666,-3.2952327666666665,0.9510921,-2.043751533333334,2.3825781,1.5061391333333336
660,1778516315610,-0.37160705,-2.59539545,1.07442245,-3.1951688,3.79324405,3.006258775
661,1778516315620,-0.25922245,-2.2096412,1.1333588,-3.6975672,4.515974,3.7496436
662,1778516315630,-0.0715285675,-1.699992525,0.9919786,-5.791155325,6.146526225000001,5.75939025
663,1778516315640,0.20159712,-1.2554391333333337,0.91915929,-7.0058609333333335,6.6150088333333334,6.508413
664,1778516315650,1.0496344333333332,-0.8890965666666667,1.438132666666667,-8.627300666666667,6.648402700000001,7.158984333333333
665,1778516315660,1.97622815,-0.2904895,2.39744165,-9.6651865,5.466823875,7.23501175
666,1778516315670,2.0518423,-0.112887675,2.52455275,-9.524764,5.20335,7.144222
667,1778516315680,2.157992,0.069638215,2.6223483,-8.836267666666666,3.9072977666666664,6.905271533333334
668,1778516315690,2.1256120000000003,0.09041686625,2.643568975,-8.48885075,3.57898315,6.891552575
669,1778516315700,2.229947333333333,0.18633202,2.654911,-7.975151,3.1734449999999996,7.062366
670,1778516315710,2.330685,0.20312162,2.628751,-7.847442125000001,3.12052875,6.826190025
671,1778516315720,2.3714596666666665,0.1961699866666666,2.576309,-7.769187766666666,3.1171435333333335,6.613583466666667
672,1778516315730,2.391847,0.19269417,2.550088,-7.6978183,3.1456506,6.345821
673,1778516315740,2.391847,0.19269417,2.550088,-7.584757333333333,3.1011084,6.091955566666667
674,1778516315750,2.20666825,0.205728465,2.3792242750000003,-7.3586354,3.012024,5.5842247
675,1778516315760,2.144942,0.21007323,2.3222697,-7.3586354,3.012024,5.5842247
676,1778516315770,2.144942,0.21007323,2.3222697,-7.3586354,3.012024,5.5842247
677,1778516315780,1.8204518,0.20513392,1.9650942333333337,-7.213554933333333,2.6528351666666663,5.351994033333334
678,1778516315790,1.6445472,0.21830542,1.7823601,-6.995056125,1.784642825,4.918572275000001
679,1778516315800,1.4753300000000005,0.1504356,1.1101258,-8.238739,1.478701133333333,5.1646111333333335
680,1778516315810,1.4722962750000002,-0.02512341775,1.145417425,-8.998579750000001,1.688431525,5.128137199999999
681,1778516315820,1.5688415,0.031892104,1.32144905,-8.499732,1.1739303,5.077512
682,1778516315830,2.2879384,0.47838157,1.4126434,-7.842746299999999,0.4578435,4.8577533
683,1778516315840,2.2879384,0.47838157,1.4126434,-7.28876785,-0.17272215,4.20130215
684,1778516315850,2.5557589333333333,0.67158388,1.3991467,-6.7347894,-0.8032878,3.544851
685,1778516315860,3.0914,1.0579885,1.3721533,-6.7347894,-0.8032878,3.544851
686,1778516315870,3.00967265,1.21536055,1.218165625,-6.61704505,-0.94279415,3.26721275
687,1778516315880,2.5877322,1.3279433,0.9148298,-6.390871999999999,-1.4246396,1.9470312000000003
688,1778516315890,2.3903832,1.358006,0.7888265,-6.454402,-1.4563028,1.7033978
689,1778516315900,2.3903832,1.3580060000000005,0.7888265,-6.454401999999999,-1.4563028000000002,1.7033978
690,1778516315910,1.99127475,1.3148175,0.8327619825,-7.97942725,-0.55420750925,2.1423808
691,1778516315920,2.3759315,1.384715,1.5610057,-8.882897,0.032986723,2.4901922
692,1778516315930,3.34659765,1.7190028,2.8252868500000003,-7.776009,-0.50610185,1.7669277
693,1778516315940,3.63133995,2.1868959,3.8435322,-6.2922175,-0.829631325,1.16522545
694,1778516315950,3.3478782,2.613872,4.3189716,-4.808426,-1.1531608,0.5635232
695,1778516315960,,,,,,
696,1778516315970,,,,,,
697,1778516315980,0.14763056,-1.8373024,0.4665516,-7.064351,4.4177775,8.827614
698,1778516315990,0.14763056,-1.8373024,0.4665516,-7.651392666666666,3.194519833333333,8.714604
699,1778516316000,0.14763056,-1.8373024,0.4665516,-8.825476,0.7480045,8.488584
700,1778516316010,1.13652978,-0.80337009,1.0706418000000002,-5.3110915,0.81016002,7.7528725
701,1778516316020,2.125429,0.23056222,1.674732,-2.786309,0.86009824,6.993338
702,1778516316030,2.1792125,0.2018816966666666,1.21543682,-3.6541449,1.5581136466666667,6.9128565
703,1778516316040,1.86724305,0.776508735,1.3672444,-5.6573756,0.390571965,5.0620113
704,1778516316050,2.0259109,1.1929355,1.4427671,-5.1587569,0.6461427066666666,5.231450133333333
705,1778516316060,2.6906143499999997,1.59536745,1.42651615,-5.25122665,1.22127235,4.15892335
706,1778516316070,2.944623,2.2232394,1.4930139999999998,-5.199532,1.2545645,3.5570682999999996
707,1778516316080,2.944623,2.2232394,1.493014,-4.8857,1.0238101,2.7139215
708,1778516316090,3.75206325,3.5180712,2.923036525,-2.3607269,1.7079410499999998,3.4865898
709,1778516316100,4.02121,3.9496818,3.3997107,-1.5190692,1.9359847,3.7441459
710,1778516316110,4.02121,3.9496818,3.3997107,-1.5190692,1.9359847,3.7441459
711,1778516316120,4.920632366666667,3.4165205333333333,1.9110667333333335,3.1971669000000005,-0.1946623666666667,0.0042760666666665
712,1778516316130,4.112679,2.8598619,0.5455806,5.462662325,-2.409214325,-2.757292975
713,1778516316140,4.1466648,2.9237680333333333,0.3229253533333333,5.277112,-2.6096163,-2.8522825
714,1778516316150,4.1636577,2.9557211,0.21159773,3.377626675,-2.2583306249999997,-3.3807572500000003
715,1778516316160,4.0263325666666665,2.9153529,0.3764447566666667,2.7444649,-2.1412354,-3.5569155
716,1778516316170,2.8943152,2.5187445,2.086585,-1.2325734,0.1919644,-5.389206
717,1778516316180,2.8110329,1.91965467,1.935539625,-1.2325734,0.1919644,-5.389206
718,1778516316190,2.3462953333333334,-0.24743314,1.2264130333333334,4.247804066666666,-1.3919073666666666,-7.280292333333333
719,1778516316200,2.058976825,-0.52500015,1.680570575,6.25094575,-2.955251475,-8.16173275
720,1778516316210,2.040362975,-0.5234299450000001,2.03019465,5.574451,-4.2685738,-7.946135
721,1778516316220,2.2599895666666665,-0.3832337633333333,2.5102279000000003,5.4393476666666665,-3.9251656,-7.737219066666666
722,1778516316230,2.7763815,-0.311268165,2.76668585,4.21993335,-3.3299029,-8.4781221
723,1778516316240,2.874253133333333,-0.40982067,3.129918333333333,3.225623,-2.2253821333333335,-8.996976
724,1778516316250,2.657639875,-0.51958824,3.0951196999999997,3.806988625,-1.165950875,-8.4201285
725,1778516316260,2.6221448666666665,-0.5740172466666666,2.9428140666666667,4.152102,-1.0103202,-8.2093672
726,1778516316270,2.4191656,-0.92792004,2.1737852,4.846337500000001,-0.838336175,-7.8463732
727,1778516316280,2.0174754666666668,-1.6036505466666666,1.4374822,6.058663,-0.9957613,-7.453981333333334
728,1778516316290,1.49353225,-2.2103424499999997,0.8277617500000001,6.4073655,-1.4711926,-7.34748715
729,1778516316300,0.6733929499999999,-2.7742472,0.36776537,6.223495,-2.7505734,-6.702718700000001
730,1778516316310,0.0451855625,-3.2095928,0.05773202975,6.10765975,-2.827313375,-6.5655031
731,1778516316320,-0.94084756,-3.704911133333333,-0.1262268766666666,5.760154,-3.0575333,-6.1538563
732,1778516316330,-1.1617141,-3.781074,-0.12372673,5.760154,-3.0575333,-6.1538563
733,1778516316340,-1.1617141,-3.781074,-0.12372673,5.0269628,-3.0569224,-5.153412
734,1778516316350,-1.3808123,-3.9066305,-0.3055666,4.0123158,-2.5211935,-3.6829066
735,1778516316360,-1.3808123,-3.9066305,-0.3055666,3.57951775,-2.28127625,-3.1832187999999997
736,1778516316370,-1.3223332,-3.9244974,-0.48990667,0.47861293,-0.5873469,-0.754724
737,1778516316380,-0.71872079,-3.914110433333333,-0.69975631,-2.156507,0.6469063133333334,0.1902336
738,1778516316390,-0.036465544,-3.8503463,-0.09854234,-5.315405675,2.1620813,0.870024825
739,1778516316400,-0.02109879325,-3.853044725,0.0120281374999999,-6.467383,3.0906727,0.8958339
740,1778516316410,-0.1300075806666666,-3.8004453333333337,0.54501148,-6.466466666666666,3.425274133333333,0.8494590466666666
741,1778516316420,-0.53218042,-3.607878075,1.005317825,-6.464634,4.094477,0.75670934
742,1778516316430,-0.8086447,-3.3943443,1.1786054,-6.464634,4.094477,0.75670934
743,1778516316440,-0.811769875,-3.336276925,1.200176775,-5.575443375000001,3.939699,1.394223585
744,1778516316450,-0.6855278,-2.8936446,1.1984847,-3.942066166666667,3.2871167999999997,2.7345891333333334
745,1778516316460,-0.3529474,-2.5154517,1.0153031,-3.0546317,2.9078712,3.92542
746,1778516316470,-0.028904125,-2.1848836,0.90596753,-3.0424144,3.1221323,4.591874
747,1778516316480,-0.028904125,-2.1848836,0.90596753,-3.366173,3.4398841,4.899342666666667
748,1778516316490,0.1140615374999999,-1.83371975,0.7838262500000001,-4.000365725,3.769000425,5.224004825
749,1778516316500,0.21653701,-1.3945936,0.7304084999999999,-5.417306,4.2797217,5.7367883
750,1778516316510,0.2235343725,-1.338645225,0.75627891,-5.417306,4.2797217,5.7367883
751,1778516316520,0.24452646,-1.1708001,0.83389014,-6.471201,4.1114287,6.2050166
752,1778516316530,0.38939772,-1.087609275,0.94423193,-7.22035075,3.6164751,6.6102493
753,1778516316540,1.0929296,-0.74516547,1.4615487,-8.955844333333333,2.569044666666666,7.327582966666667
754,1778516316550,1.7146122,-0.6027791,2.2658029,-9.647853,2.4295638,7.4603443
755,1778516316560,1.7146122,-0.6027791,2.2658029,-9.750936666666666,2.6087000666666667,7.487527866666667
756,1778516316570,1.6849765,-0.5665574,3.5028875,-9.660108875,3.1813862,7.68632655
757,1778516316580,1.6849765,-0.5665574,3.5028875,-9.5611105,3.2528574,7.7344704
758,1778516316590,2.0194267333333333,-0.26023875,3.7724964,-8.35679,2.9123,7.947204
759,1778516316600,2.2720838,-0.08591965,3.7898552,-5.414404,1.4633276,7.24532
760,1778516316610,2.4139823333333332,0.0703089833333333,3.655823033333333,-5.414404,1.4633276000000002,7.24532
761,1778516316620,2.6977794,0.38276625,3.3877587,-5.414404,1.4633276,7.24532
762,1778516316630,2.5092114333333333,0.5164732333333334,3.019790066666667,-5.236642333333333,1.4954998666666668,6.885011333333334
763,1778516316640,2.1320755,0.7838872,2.2838528,-4.881119,1.5598444,6.164394
764,1778516316650,1.99148815,0.83965265,2.0701818,-5.53589,1.63719525,6.10727815
765,1778516316660,1.8117928,0.8731810333333333,1.7508134666666668,-6.190661000000001,1.7145461,6.0501623
766,1778516316670,1.7171429,0.77474033,1.70375795,-6.190661,1.7145461,6.0501623
767,1778516316680,1.642047,0.68741816,1.7095511,-7.9316778,2.264222866666667,5.872298600000001
768,1778516316690,1.605444275,0.663758245,1.71580145,-8.332202,2.3672554,5.7984858
769,1778516316700,1.4956360999999998,0.5927785,1.7345525000000002,-8.332202,2.3672554,5.798485799999999
770,1778516316710,1.847059,0.49374834,1.7083925,-8.88763075,1.78483375,5.41348775
771,1778516316720,1.847059,0.49374834,1.7083925,-8.78638,1.4779885,5.100572
772,1778516316730,2.0794303333333333,0.5811924466666667,1.7920151666666666,-8.78638,1.4779884999999997,5.100572
773,1778516316740,2.195616,0.6249145,1.8338265,-8.78638,1.4779885,5.100572
774,1778516316750,2.1379297,0.7319939,1.8655356,-8.066934,0.77396625,4.0602684
775,1778516316760,2.0506074,0.77059376,1.856023,-7.9368196,0.72265357,3.9385536
776,1778516316770,2.0506074,0.77059376,1.856023,-7.9368196,0.72265357,3.9385536
777,1778516316780,1.6375956,0.96554414,1.731854175,-7.4863827,0.6154467275,3.797634625
778,1778516316790,1.5333822,1.1925696,1.5313089,-6.135072,0.2938262,3.3748777000000003
779,1778516316800,1.5333822,1.1925696,1.5313089,-6.135072,0.2938262,3.3748777
780,1778516316810,1.5333822,1.1925696,1.5313089,-5.8485765,0.21533,3.4565809
781,1778516316820,2.092683,1.4888673,1.4097164,-5.4979781249999995,-0.023709205,3.32245795
782,1778516316830,2.092683,1.4888673,1.4097164,-5.381111999999999,-0.10338894,3.2777502999999997
783,1778516316840,2.3284895,1.6344855,1.3219674,-5.2616878,-0.20922135,2.8637362
784,1778516316850,2.3554727499999997,1.6954952,1.2499205,-5.33247175,-0.1871156625,2.68883785
785,1778516316860,2.382456,1.7565049,1.1778736,-5.5448236,-0.1207986,2.1641428
786,1778516316870,2.382456,1.7565049,1.1778736,-5.5448236,-0.1207986,2.1641428
787,1778516316880,2.2054335333333333,1.7472766999999998,1.2766395333333334,-5.5448236,-0.1207986,2.1641428
788,1778516316890,1.8513886,1.7288203,1.4741714,-5.7729437,-0.0031688599999999,2.1087068
789,1778516316900,1.8513886,1.7288203,1.4741714,-6.457304,0.34972036,1.9423988
790,1778516316910,1.6682682,1.8324239,2.3636746,-6.457304,0.34972036,1.9423988
791,1778516316920,1.9229171,2.3932494,3.5529208,-5.5130969,0.5629504949999999,3.4427983749999997
792,1778516316930,4.7116165,4.529837,4.800829,0.43478334,-0.6430884,4.9335003
793,1778516316940,4.7116165,4.529837,4.800829,1.25708433,-0.87235375,4.761885400000001
794,1778516316950,5.227622,4.8023534,3.7860744,3.7239873,-1.5601498000000005,4.2470407
795,1778516316960,5.227622,4.8023534,3.7860744,6.4828076,-1.8822285,2.1094704
796,1778516316970,5.227622,4.8023534,3.7860744,6.4828076,-1.8822285,2.1094704
797,1778516316980,4.905164233333333,4.637221833333334,3.2098416333333333,6.8323244,-1.9287051333333336,0.7563529666666667
798,1778516316990,3.725583275,3.956130425,0.7306676175,2.056096165,-0.5174028350000001,-3.961308325
799,1778516317000,2.8482557000000006,2.9937926666666663,2.0532498,-1.2973759566666667,0.89787011,-5.332395233333333
800,1778516317010,2.4404473,2.3962374,3.2066505000000003,-1.5749633,1.161713,-5.5669675
801,1778516317020,2.173012866666667,1.8401480666666667,3.700520733333333,0.54402644,0.4826853666666666,-5.734395633333333
802,1778516317030,2.07705705,1.559938625,3.650487325,2.8921416,-0.29061913,-5.88981
803,1778516317040,1.9674318,1.1873864,3.3470856999999996,5.1505103,-0.72586066,-6.011983
804,1778516317050,1.94964115,1.09001789,3.198997775,5.1505103,-0.72586066,-6.011983
805,1778516317060,1.8962692,0.7979123600000001,2.7547340000000005,5.623930866666666,-0.7287622533333334,-6.033108766666667
806,1778516317070,1.8962692,0.79791236,2.754734,6.72135025,-0.7354817425,-6.098573225
807,1778516317080,1.8441015,0.64140934,2.55374655,7.173085,-0.73823065,-6.168212
808,1778516317090,1.7919338,0.48490632,2.3527591,7.173085,-0.7382306499999999,-6.168212
809,1778516317100,1.7919338,0.48490632,2.3527591,7.173085,-0.73823065,-6.168212
810,1778516317110,1.70308715,0.14933797,2.12366045,7.449997850000001,-0.84845365,-6.186346875
811,1778516317120,1.5993006,-0.29282197,1.8518764,8.012567,-1.396438,-6.222884
812,1778516317130,1.5993006,-0.29282197,1.8518764,8.012567,-1.396438,-6.222884
813,1778516317140,,,,,,
814,1778516317150,,,,,,
815,1778516317160,1.601435,-0.5617401,1.6047888,8.012567,-1.396438,-6.222884
816,1778516317170,1.6669874,-0.60857207,1.5557615,7.9146757,-2.9743028,-6.4165287
817,1778516317180,1.6669874,-0.60857207,1.5557615,7.9146757,-2.9743028,-6.4165287
818,1778516317190,1.676866075,-0.613313215,1.60824935,7.696138599999999,-3.188182,-6.4761643499999995
819,1778516317200,1.7065021,-0.62753665,1.7657129,7.165258375,-3.5690566500000003,-6.607385625
820,1778516317210,1.9074893,-0.5780215,2.1989696,5.735566600000001,-3.1038063,-7.0519810000000005
821,1778516317220,1.9397168,-0.49249822,2.3877306999999997,5.226334100000001,-2.50706735,-7.065191
822,1778516317230,2.012475166666667,-0.39374247,2.7034301666666667,4.7171016,-1.9103284,-7.078401
823,1778516317240,2.0935369,-0.36727753,2.9573069,4.660634625,-1.820645725,-7.008648
824,1778516317250,2.1132941666666665,-0.3649806466666667,2.9948903333333328,4.682027633333333,-1.8078557,-6.987687666666666
825,1778516317260,2.202826825,-0.3921112774999999,2.976698025,5.4274232,-1.524795975,-7.113258625
826,1778516317270,2.17189505,-0.43438509,2.7434831500000003,5.866902625,-1.059125825,-7.182935475
827,1778516317280,2.1211603,-0.45173368,2.6280801,5.8971405,-0.9957104,-7.1854553
828,1778516317290,1.8862077,-0.51417637,2.3202572,6.07749845,-0.75411315,-7.05518815
829,1778516317300,1.7465653,-0.55186146,2.1511621,6.1092634,-0.7461718999999999,-6.9965453
830,1778516317310,1.4895991,-0.6332077,1.8753533,6.1092634,-0.7461719,-6.9965453
831,1778516317320,1.45252375,-0.6620660875000001,1.8214477,6.183521725,-0.7897724125,-6.828595475
832,1778516317330,1.30342965,-0.838737975,1.4884405,6.4913597,-0.977689875,-6.181956250000001
833,1778516317340,1.2475727333333333,-1.026360733333333,1.2418408,6.602995233333334,-1.0327186333333334,-5.997678666666666
834,1778516317350,1.211595,-1.2214128,1.0912222,6.6561403,-1.0285443,-5.914703
835,1778516317360,0.8786081733333333,-1.6979445666666664,0.8623877200000001,6.6972211,-1.0273735000000002,-5.914397466666667
836,1778516317370,0.1815959775,-2.547084475,0.44286121,7.15086475,-1.114103675,-5.609499325
837,1778516317380,-0.8172631833333334,-3.5931161333333335,-0.28269942,7.289760333333334,-1.4204143666666669,-4.298149566666667
838,1778516317390,-0.9629831,-3.7299738,-0.4013039,7.2569265,-1.5201381,-3.8203511
839,1778516317400,-0.9629831,-3.7299738,-0.4013039,7.2569265,-1.5201380999999998,-3.8203511
840,1778516317410,-1.056418325,-3.85862445,-0.652156955,7.042054425,-1.671212775,-3.300123125
841,1778516317420,-1.0875634,-3.901508,-0.73577464,5.9092047,-1.8060995,-2.2698989000000003
842,1778516317430,-0.9062317,-3.912707900000001,-1.1479328266666666,3.8141915,-1.7200438666666666,-1.0937033
843,1778516317440,-0.284391595,-3.879586175,-1.844741775,0.26435195,-0.89690291,-0.26389379
844,1778516317450,-0.1979993599999999,-3.861079,-1.8022393,-1.2179126,-0.41493022,-0.07284568
845,1778516317460,-0.25461851,-3.8849218,-1.46804295,-1.2179126,-0.41493022,-0.07284568
846,1778516317470,-0.31123766,-3.9087646,-1.1338466,-1.2179126,-0.41493022,-0.07284568
847,1778516317480,-0.31123766,-3.9087646,-1.1338466,-5.729534225,1.815147925,0.2540054175
848,1778516317490,-0.42627488,-3.97142065,-0.753763475,-6.1501913,2.0659463,0.3013093
849,1778516317500,-0.6361550333333333,-4.0326539666666665,-0.0759393999999999,-6.1501913,2.0659463,0.3013093
850,1778516317510,-0.8258409,-4.0298085,0.5195425,-6.4440938,2.38802495,0.65408395
851,1778516317520,-1.0052822666666668,-3.6888738,1.296945646666667,-4.776304466666667,1.8241454,1.9561941666666665
852,1778516317530,-0.8164501066666667,-3.289500933333333,1.5053724,-3.163722033333334,1.2404128,2.8015806666666663
853,1778516317540,-0.611194205,-2.81156645,1.231108425,-2.12855995,1.155527975,3.4916675
854,1778516317550,-0.5716491850000001,-1.9195327,0.5983123525,-3.5049539750000003,2.5705591,5.56288255
855,1778516317560,-0.58546096,-1.6743049999999997,0.50155365,-4.565607,3.0524936,6.267477500000001
856,1778516317570,-0.58546096,-1.6743049999999997,0.50155365,-4.565607,3.0524936,6.267477500000001
857,1778516317580,-0.58546096,-1.674305,0.50155365,-4.565607,3.0524936,6.2674775
858,1778516317590,-0.16569564,-1.43641005,0.6614867624999999,-6.051689,3.0644054,7.2929673
859,1778516317600,-0.26184455,-1.4204488,0.6121089,-7.0138018666666655,2.8214847333333335,7.750912833333333
860,1778516317610,0.302517625,-1.26797035,0.8917899,-7.88382715,2.6006061000000003,8.048149800000001
861,1778516317620,0.8668798,-1.1154919,1.1714709,-8.272796,2.5011878,8.116414
862,1778516317630,1.9116817,-0.52597582,2.347484475,-9.277745,2.47003355,8.069683000000001
863,1778516317640,2.259949,-0.32947046,2.739489,-10.329884,2.2782218,7.664221
864,1778516317650,2.259949,-0.32947046,2.7394890000000003,-10.274906,2.178650933333333,7.405010333333333
865,1778516317660,2.6944865,0.075278779,4.03444265,-10.247417,2.1288655,7.275405
866,1778516317670,2.608729533333334,0.22844829,4.505953866666666,-9.900954333333331,2.2540927666666666,7.029226333333334
867,1778516317680,2.444655,0.33483663,4.821379,-9.727723,2.3167064,6.906137
868,1778516317690,2.2974207499999997,0.475393615,4.95361225,-7.53731345,3.0678417,6.67202305
869,1778516317700,2.1501865,0.6159506,5.0858455,-4.7729955,2.8877127,6.6254444
870,1778516317710,2.06792555,0.9201604025,4.385606425,-3.2641585,2.7444649,6.44249
871,1778516317720,2.031887,1.0443293,3.7807693000000007,-3.2641585,2.7444649,6.44249
872,1778516317730,2.012861475,1.0544518,3.616399975,-3.2641585,2.7444649,6.44249
873,1778516317740,1.9557849,1.0848193,3.1232920000000006,-3.044756,2.7866146,6.37896
874,1778516317750,1.9557849,1.0848193,3.123292,-2.605951,2.870914,6.2519
875,1778516317760,1.9557849,1.0848193,3.123292,-2.42349325,3.043407025,6.0874250000000005
876,1778516317770,1.9443614333333337,1.0855511,2.7178618,-2.362674,3.1009046999999996,6.0325999999999995
877,1778516317780,1.9917016,1.0873805,1.7091241,-2.539863,3.354948375,5.626909025
878,1778516317790,1.9941408,1.0861202333333333,1.6338351666666666,-3.2651255666666668,3.6850446333333338,4.960225833333333
879,1778516317800,1.2890690500000002,0.723182435,0.71165737,-4.5007024,4.1129556,4.0197988
880,1778516317810,1.1273218,0.6161335,0.62015814,-4.5007024,4.1129556,4.0197988
881,1778516317820,1.06756225,0.5753384500000001,0.50441967,-4.7812424,3.8136318,3.9159517
882,1778516317830,0.9658083666666668,0.5306000666666667,0.133422414,-4.871345,3.214372899999999,3.9127445
883,1778516317840,1.08608465,0.6055536275,-0.17604685725,-5.066364,2.6166413,4.051411
884,1778516317850,1.1331758,0.63119537,-0.2366601499999999,-5.3363662666666665,2.1763093,4.164828333333333
885,1778516317860,1.1331758,0.63119537,-0.23666015,-5.4713674,1.9561433,4.221537
886,1778516317870,1.3225771333333334,0.7421368166666666,-0.3086155833333333,-5.9579215,1.2586879,4.279264
887,1778516317880,1.6677497,0.93910967,-0.541616985,-6.20066405,1.09925205,4.217108250000001
888,1778516317890,1.9182216,1.0806118,-0.73864067,-7.463399,0.8098546,3.7942367
889,1778516317900,1.9182216,1.0806118,-0.73864067,-7.463399,0.8098546,3.7942367
890,1778516317910,1.96872765,1.04772885,-0.6207069175,-9.287901,0.9625709,3.4136677
891,1778516317920,1.9371252,0.9719469,-0.22519606,-10.029491666666669,1.0086912333333335,3.351359366666667
892,1778516317930,1.9285882,1.0215839,0.7135782,-10.909442,0.82970774,3.428023
893,1778516317940,1.9285882,1.0215839,0.7135782,-10.909442,0.82970774,3.428023
894,1778516317950,2.244704,1.191289,1.3778853,-10.909442,0.82970774,3.428023
895,1778516317960,2.244704,1.191289,1.3778853,-10.807084,0.68939962,3.471012625
896,1778516317970,2.6894454,1.4276442666666669,1.8742963666666668,-10.50001,0.26847526,3.5999815
897,1778516317980,2.9118161,1.5458219,2.1225019,-10.2148125,0.04848742,3.601775975
898,1778516317990,3.055706733333333,1.6986356666666669,2.330074966666667,-9.35922,-0.6114761,3.6071594
899,1778516318000,3.343488,2.0042632,2.7452211,-9.35922,-0.6114761,3.6071594
900,1778516318010,3.4556285,2.2546437,2.9435254000000004,-7.92567135,-1.02537545,3.5270978
901,1778516318020,3.567769,2.5050242,3.1418297,-6.528164399999999,-1.2038627,3.49644
902,1778516318030,3.5892947,2.906267,3.6668603,-5.6285886000000005,-1.185880325,3.46826385
903,1778516318040,3.5892947,2.906267,3.6668603,-5.32873,-1.1798862,3.4588717999999994
904,1778516318050,4.03000645,3.82831785,4.380163875,-3.5419110875,-1.333518775,3.2911511
905,1778516318060,4.144754,3.992367,4.4173307,0.05100725,-1.8171713,2.8513663
906,1778516318070,4.3161055,4.0723108,4.15899265,0.05100725,-1.8171713,2.8513663
907,1778516318080,4.487457,4.1522546,3.9006546,0.7370089375000001,-2.0250564,2.576476925
908,1778516318090,4.4090986,4.1457295,3.3740382,4.2626176,-2.7792842000000006,0.7374670499999999
909,1778516318100,4.4090986,4.1457295,3.3740382,4.2626176,-2.7792842,0.73746705
910,1778516318110,4.225592,4.032796033333334,2.9841375333333335,4.2626176,-2.7792842000000006,0.7374670499999999
911,1778516318120,4.095528525,3.948446675,2.6390107250000003,5.1665455,-2.582471,-0.2404136425
912,1778516318130,3.9405551333333335,3.8366669333333334,1.6238142333333332,5.1573318,-2.514423133333333,-1.6298903000000002
913,1778516318140,3.69221245,3.64711815,0.89217093,1.74989993,-1.6059265,-3.132708
914,1778516318150,2.381277133333333,2.270864233333333,2.728797466666667,-1.0832677333333334,1.1788172,-4.900615666666667
915,1778516318160,1.853401,0.9837769,3.7506456,4.020715,0.52671856,-5.2746687
916,1778516318170,1.8274034666666668,0.8554157666666665,3.6268579666666665,4.6733736666666665,0.4669046733333333,-5.350721366666666
917,1778516318180,1.673725675,0.1101131375,2.607499825,7.3395075,0.182572355,-5.6923859
918,1778516318190,1.62218305,-0.21758892,2.01100155,8.63316725,-0.13587934,-5.9354338250000005
919,1778516318200,1.6039351,-0.43167153,1.5389313,9.126174,-0.43386704,-6.12652
920,1778516318210,1.5714637,-0.505852695,1.3092075,9.0915455,-0.515150295,-6.17153325
921,1778516318220,1.5606399,-0.53057975,1.2326329,8.98766,-0.75900006,-6.306573
922,1778516318230,1.4598718,-0.5989679,1.098768375,8.87289425,-0.84685014,-6.34288125
923,1778516318240,1.355506,-0.6173531,0.9712152,8.549670166666667,-1.0149017,-6.343530333333334
924,1778516318250,1.38194045,-0.571176625,1.1339381,7.395210875,-1.7284432,-6.223304175
925,1778516318260,1.750407,-0.45777062,1.5243572,7.0287679999999995,-2.1969768,-6.2229859
926,1778516318270,1.9175508,-0.4364279,1.6171066,6.838178,-2.641992,-6.3035183
927,1778516318280,,,,,,
928,1778516318290,1.9175508,-0.4364279,1.6171066,6.838178,-2.641992,-6.3035183
929,1778516318300,1.9175508,-0.4364279,1.6171066,6.558402,-3.0143147,-6.655835
930,1778516318310,1.661270675,-0.33806851,2.3229099250000003,5.390733,-1.8987983,-6.3719355
931,1778516318320,1.6739391,-0.3557524699999999,2.2819014,5.7861156,-2.0702224,-6.414085
932,1778516318330,1.4979228,-0.45542292,1.7185758,6.462725125,-2.6657013999999997,-6.519154
933,1778516318340,1.335931566666667,-0.52521358,1.4035574999999998,6.7398799333333335,-3.0568714666666668,-6.574487933333333
934,1778516318350,0.919748825,-0.7642671750000001,0.9043210625,6.3081002,-2.7979155,-6.4245842
935,1778516318360,0.5429991566666666,-1.1453513666666666,0.5261282566666666,5.625763666666667,-2.2772038,-5.9412244
936,1778516318370,0.09756667,-1.5671645,0.08439517,5.117982,-2.1027508,-5.520389
937,1778516318380,-0.23873344,-1.8606575,-0.0224403329999999,5.117982,-2.1027508,-5.520388999999999
938,1778516318390,-0.2771503174999999,-1.929685925,-0.01132687975,4.43858525,-2.717777575,-4.893832225000001
939,1778516318400,-0.39573448,-2.2458222666666665,0.017643306,4.128533,-3.2896620999999997,-4.5297184
940,1778516318410,-0.40240154,-2.4639244,0.008902958,3.9212969,-3.4891096,-4.36455585
941,1778516318420,-0.4689094933333333,-2.766624933333333,-0.0181311406666666,3.0292808,-3.3545155666666666,-3.8462113
942,1778516318430,-0.5704905925,-3.040680525,-0.0432189845,2.520239075,-3.04065815,-3.5707745749999997
943,1778516318440,-0.5932663,-3.0815822999999996,-0.047075916,2.4646885,-2.9917126,-3.5378260000000004
944,1778516318450,-0.5932663,-3.0815823,-0.047075916,2.4646885,-2.9917126,-3.537826
945,1778516318460,-0.848143975,-3.428568975,-0.07785515025,1.2896128649999998,-1.585882565,-2.548148
946,1778516318470,-0.9331032,-3.5442312,-0.0881148949999999,0.11453723,-0.18005253,-1.55847
947,1778516318480,-0.8035376999999999,-3.6348312,-0.04169450525,-0.3292181775,0.3094032525,-1.1231521425
948,1778516318490,-0.7144319133333333,-3.6638116,0.017399392,-1.9676478333333336,2.2047145,0.4498513533333333
949,1778516318500,-0.951396935,-3.461147025,0.06927233925,-2.850449875,3.57928845,1.6435711
950,1778516318510,-1.1446806333333333,-3.2608406,-0.0102851533333333,-3.0071368666666665,3.7113118333333337,2.3908248
951,1778516318520,-1.1378103,-3.1695752,-0.054759294,-3.0407345,3.6905425,2.654515
952,1778516318530,-1.1378103,-3.1695752,-0.0547592939999999,-3.116990833333334,3.531310166666666,3.2319863333333334
953,1778516318540,-1.08405715,-3.0878631,-0.1139395769999999,-3.3336444,3.364493,4.0331615
954,1778516318550,-0.91456556,-2.8874855,-0.21385394,-3.875431066666667,3.2508212000000003,5.043557866666666
955,1778516318560,-0.75586724,-2.7537582499999997,-0.193868015,-4.8145347,3.2533157,5.9621973
956,1778516318570,-0.22976951,-2.596249,0.07543123,-7.4160566,3.7591121,7.3429055
957,1778516318580,1.02301705,-2.4107505,0.91859017,-10.505508,2.9658271000000003,8.867549
958,1778516318590,2.6799938,-1.8510632666666669,2.8357548666666665,-11.050704666666666,0.9700031166666668,8.677493666666665
959,1778516318600,2.651130375,-1.20860715,3.961450625,-8.3475115,-0.607505505,7.902801875
960,1778516318610,2.6574111333333335,-0.6866457600000001,3.3396256333333327,-4.9841004,-1.53902411,7.8669771
961,1778516318620,2.68931845,-0.40554194,2.872347375,-3.6282341,-1.8768835,7.8803144
962,1778516318630,2.9709508,-0.09541715,2.40178635,-4.4904704,-0.16920967,7.710952
963,1778516318640,3.035543,-0.03506302,2.367516,-4.4904704,-0.16920967,7.710952
964,1778516318650,2.906739675,-0.002012312475,2.50417055,-4.741306850000001,0.22422572,7.49734
965,1778516318660,2.6295435,-0.01536675,2.5724063,-4.963891,1.1695015,6.8543663
966,1778516318670,2.3917655,-0.0204076946666666,2.4133725,-4.963891,1.1695015,6.8543663
967,1778516318680,2.0418264,-0.04437759175,2.0841917,-4.76784125,1.614974975,6.493192225
968,1778516318690,1.9648097,-0.0515274,2.0009704,-4.667621,1.7322611,6.391483
969,1778516318700,1.8904457,-0.055094679,1.8615721,-4.522541,1.6216946,6.370561
970,1778516318710,1.8137034000000003,0.03664848,1.6856471,-4.406171133333333,1.5167275666666669,6.352591433333334
971,1778516318720,1.72790565,0.243093435,1.536141425,-3.45906255,0.835243675,6.23727785
972,1778516318730,1.7000991666666667,0.3796359666666666,1.4147573333333334,-3.2209396,0.6780604,6.210819699999999
973,1778516318740,1.7609412,0.5872446575000001,1.1059487,-2.3597724,0.16691893,6.137974
974,1778516318750,2.3543447,1.0121728833333332,0.04008364,-1.9533434666666667,-0.3807217566666667,5.568342266666666
975,1778516318760,2.83268055,1.295319475,-0.628314085,-2.9776245,-0.780991225,4.5407905
976,1778516318770,2.9228535,1.3549571,-0.7563246,-5.572313,-0.9950995,3.1876476
977,1778516318780,2.7504450333333335,1.3498755000000002,-0.8975523533333334,-5.572313,-0.9950995,3.1876476
978,1778516318790,2.602575625,1.284983525,-0.8735113225,-6.6487337,-0.7545713000000001,3.0982321500000003
979,1778516318800,2.4175801,1.09793,-0.5895466,-7.7251544,-0.5140431,3.0088167
980,1778516318810,2.4175801,1.09793,-0.5895466,-7.7251544,-0.5140431,3.0088167
981,1778516318820,2.4634516,1.008290525,0.170238575,-8.8073022,-0.0124463749999999,3.08929825
982,1778516318830,2.5861061333333333,1.0505694,0.8295199333333333,-10.137105,0.7247407,3.1327206333333333
983,1778516318840,2.884101225,1.237236825,1.81788045,-10.216569,1.1325442,2.7249172
984,1778516318850,3.1339023000000004,1.3642869,2.3468442,-9.651824,0.9706649,2.5727099
985,1778516318860,3.15945255,1.448727825,2.51927805,-8.522334,0.6469063,2.2682953
986,1778516318870,3.192503275,1.783945625,3.14422315,-8.522334,0.6469063,2.2682953
987,1778516318880,3.0617032,2.0296307,3.4671538,-7.6585703,0.4552473000000001,2.1986568
988,1778516318890,4.2487995000000005,3.5039239749999997,3.625302975,-1.2080624,-1.19546325,2.78898165
989,1778516318900,5.22067,4.092129,3.3473904,2.6303347666666665,-2.215964566666667,2.5176302
990,1778516318910,5.22067,4.092129,3.3473904,3.4744487,-2.4510968,2.283567
991,1778516318920,6.105783,3.893581,2.3479419,4.531041966666667,-2.5873198,0.8991427399999999
992,1778516318930,6.105783,3.893581,2.3479419,5.0593386,-2.6554313,0.20693061
993,1778516318940,6.105783,3.893581,2.3479419,5.1064898,-2.592741225,-0.2703460425
994,1778516318950,5.8791842,3.4499571,1.4583167999999995,5.2479434,-2.404671,-1.702176
995,1778516318960,5.8791842,3.4499571,1.4583168,5.2479434,-2.404671,-1.702176
996,1778516318970,5.4303775,3.073472,0.8479153,4.305073,-1.9843957,-2.7904325
997,1778516318980,4.9844674,2.722872275,0.507057025,1.6169985475,-1.533806275,-3.840967925
998,1778516318990,4.5230992,2.4597776,0.50938948,-1.2408200425,-0.6837872899999999,-4.6574278499999995
999,1778516319000,4.2103677,2.3135495,0.62534136,-1.8947513,-0.4505131199999999,-4.812855
1000,1778516319010,4.2103677,2.3135495,0.62534136,-1.8947513,-0.45051312,-4.812855
