id,timestamp,acc_x,acc_y,acc_z,gyro_x,gyro_y,gyro_z
0,1778516199070,1.4475235,1.9794447,3.0311525,1.185384,-1.6708691,-3.38175
1,1778516199080,1.4475235,1.9794447,3.0311524999999997,1.185384,-1.6708691,-3.38175
2,1778516199090,1.476442875,1.9799783,3.030527475,1.452561175,-1.779488625,-3.3937382499999997
3,1778516199100,1.563201,1.9815791,3.0286524,2.2540927,-2.1053472,-3.429703
4,1778516199110,1.563201,1.9815791,3.0286524,2.2540927,-2.1053472,-3.429703
5,1778516199120,1.563201,1.9815791,3.0286524,2.2540927,-2.1053472,-3.429703
6,1778516199130,1.563201,1.9815791,3.0286524,2.2540927,-2.1053472,-3.429703
7,1778516199140,1.563201,1.9815791,3.0286524,2.2540927,-2.1053472,-3.429703
8,1778516199150,1.563201,1.9815791,3.0286524,2.2540927,-2.1053472,-3.429703
9,1778516199160,1.563201,1.9815791,3.0286524,2.2540927,-2.1053472,-3.429703
10,1778516199170,1.563201,1.9815791,3.0286524,2.2540927,-2.1053472,-3.429703
11,1778516199180,1.563201,1.9815791,3.0286524,2.2540927,-2.1053472,-3.429703
12,1778516199190,1.563201,1.9815791,3.0286524,2.2540927,-2.1053472,-3.429703
13,1778516199200,1.563201,1.9815791,3.0286524,2.2540927,-2.1053472,-3.429703
14,1778516199210,1.563201,1.9815791,3.0286524,2.2540927,-2.1053472,-3.429703
15,1778516199220,1.563201,1.9815791,3.0286524,2.2540927,-2.1053472,-3.429703
16,1778516199230,1.563201,1.9815791,3.0286524,2.958573,-2.346486,-3.4910948000000004
17,1778516199240,1.563201,1.9815791,3.0286524,2.958573,-2.346486,-3.4910948
18,1778516199250,1.563201,1.9815791,3.0286524,2.958573,-2.346486,-3.4910948
19,1778516199260,1.563201,1.9815791,3.0286524,2.958573,-2.346486,-3.4910948000000004
20,1778516199270,1.563201,1.9815791,3.0286524,2.958573,-2.346486,-3.4910948
21,1778516199280,1.563201,1.9815791,3.0286524,2.958573,-2.346486,-3.4910948000000004
22,1778516199290,1.563201,1.9815791,3.0286524,2.958573,-2.346486,-3.4910948
23,1778516199300,1.563201,1.9815791,3.0286524,2.958573,-2.346486,-3.4910948000000004
24,1778516199310,1.563201,1.9815791,3.0286524,2.958573,-2.346486,-3.4910948
25,1778516199320,1.563201,1.9815791,3.0286524,2.958573,-2.346486,-3.4910948
26,1778516199330,1.563201,1.9815791,3.0286524,2.958573,-2.346486,-3.4910948000000004
27,1778516199340,1.563201,1.9815791,3.0286524,2.958573,-2.346486,-3.4910948
28,1778516199350,1.6811957,1.9433452,3.0573125,3.27156515,-2.4307091,-3.57012555
29,1778516199360,1.6811957,1.9433452,3.0573125,3.5845573,-2.5149322,-3.6491563
30,1778516199370,1.6811957,1.9433452,3.0573125,3.5845573,-2.5149322,-3.6491563
31,1778516199380,1.6811957,1.9433452,3.0573125,3.5845573,-2.5149322,-3.6491563
32,1778516199390,1.6811957,1.9433452,3.0573125,3.5845573,-2.5149322,-3.6491563
33,1778516199400,1.6811957,1.9433452,3.0573125,3.5845573,-2.5149322,-3.6491563
34,1778516199410,1.6811957,1.9433452,3.0573125,3.5845573,-2.5149322,-3.6491563
35,1778516199420,1.6811957,1.9433452,3.0573125,3.5845573,-2.5149322,-3.6491563
36,1778516199430,1.6811957,1.9433452,3.0573125,3.5845573,-2.5149322,-3.6491563
37,1778516199440,1.7492078333333332,1.9023264666666664,3.0613371666666667,3.5845573,-2.5149322,-3.6491563
38,1778516199450,1.7832139,1.8818171,3.0633495,3.5845573,-2.5149322,-3.6491563
39,1778516199460,1.7832139,1.8818171,3.0633494999999997,3.668093133333333,-2.5242479,-3.6990436333333334
40,1778516199470,1.7832139,1.8818171,3.0633495,3.8351648,-2.5428793,-3.7988183
41,1778516199480,1.7832139,1.8818171,3.0633495,3.8351648,-2.5428793,-3.7988183
42,1778516199490,1.7832139,1.8818171,3.0633495,3.8351648,-2.5428793,-3.7988183
43,1778516199500,1.7832139,1.8818171,3.0633494999999997,3.8351648,-2.5428793,-3.7988183
44,1778516199510,1.7832139,1.8818171,3.0633495,3.8351648,-2.5428793,-3.7988183
45,1778516199520,1.7832139,1.8818171,3.0633495,3.8351648,-2.5428793,-3.7988183
46,1778516199530,1.7832139,1.8818171,3.0633494999999997,3.8351648,-2.5428793,-3.7988183
47,1778516199540,1.7832139,1.8818171,3.0633495,3.8351648,-2.5428793,-3.7988183
48,1778516199550,1.7832139,1.8818171,3.0633495,3.8351648,-2.5428793,-3.7988183
49,1778516199560,1.7832139,1.8818171,3.0633494999999997,3.8351648,-2.5428793,-3.7988183
50,1778516199570,1.7832139,1.8818171,3.0633494999999997,3.8351648,-2.5428793,-3.7988183
51,1778516199580,1.7832139,1.8818171,3.0633494999999997,3.8351648,-2.5428793,-3.7988183
52,1778516199590,1.7832139,1.8818171,3.0633495,3.8351648,-2.5428793,-3.7988183
53,1778516199600,1.7832139,1.8818171,3.0633495,3.8351648,-2.5428793,-3.7988183
54,1778516199610,1.7832139,1.8818171,3.0633494999999997,3.8351648,-2.5428793,-3.7988183
55,1778516199620,1.7832139,1.8818171,3.0633495,3.8351648,-2.5428793,-3.7988183
56,1778516199630,1.7832139,1.8818171,3.0633494999999997,3.8351648,-2.5428793,-3.7988183
57,1778516199640,1.7832139,1.8818171,3.0633495,3.8351648,-2.5428793,-3.7988183
58,1778516199650,1.7832139,1.8818171,3.0633495,3.8351648,-2.5428793,-3.7988183
59,1778516199660,1.7832139,1.8818171,3.0633494999999997,3.8351648,-2.5428793,-3.7988183
60,1778516199670,1.7832139,1.8818171,3.0633495,3.8351648,-2.5428793,-3.7988183
61,1778516199680,1.7832139,1.8818171,3.0633494999999997,3.8351648,-2.5428793,-3.7988183
62,1778516199690,1.7832139,1.8818171,3.0633495,3.8351648,-2.5428793,-3.7988183
63,1778516199700,1.7832139,1.8818171,3.0633495,3.8351648,-2.5428793,-3.7988183
64,1778516199710,1.9017166333333335,1.6633490333333334,3.0752607,3.9448150666666666,-2.3396648333333334,-4.0682099
65,1778516199720,1.960968,1.554115,3.0812163,3.9996402,-2.2380576,-4.2029057
66,1778516199730,1.960968,1.554115,3.0812163,3.9996402,-2.2380576,-4.2029057
67,1778516199740,1.960968,1.554115,3.0812163,3.9996402,-2.2380576,-4.2029057
68,1778516199750,1.960968,1.554115,3.0812163,3.920495025,-1.819653,-4.482605675
69,1778516199760,1.960968,1.554115,3.0812163,3.894113299999999,-1.6801848,-4.575839
70,1778516199770,1.960968,1.554115,3.0812163,3.8941133,-1.6801848,-4.575839
71,1778516199780,1.960968,1.554115,3.0812163,3.8941133,-1.6801848,-4.575839
72,1778516199790,1.960968,1.554115,3.0812163,3.894113299999999,-1.6801848,-4.575839
73,1778516199800,1.960968,1.554115,3.0812163,3.8941133,-1.6801848,-4.575839
74,1778516199810,1.960968,1.554115,3.0812163,3.894113299999999,-1.6801848,-4.575839
75,1778516199820,1.90727585,1.4464868,3.1186881,3.8941133,-1.6801848,-4.575839
76,1778516199830,1.8535837,1.3388586,3.1561599,3.8941133,-1.6801848,-4.575839
77,1778516199840,1.8535837,1.3388586,3.1561599,3.894113299999999,-1.6801848,-4.575839
78,1778516199850,1.8535837,1.3388586,3.1561599,3.8941133,-1.6801848,-4.575839
79,1778516199860,1.8535837,1.3388586,3.1561599,3.894113299999999,-1.6801848,-4.575839
80,1778516199870,1.8535837,1.3388586,3.1561599,3.8941133,-1.6801848,-4.575839
81,1778516199880,1.8535837,1.3388586,3.1561599,3.8941133,-1.6801848,-4.575839
82,1778516199890,1.8535837,1.3388586,3.1561599,3.8941133,-1.6801848,-4.575839
83,1778516199900,1.8535837,1.3388586,3.1561599,3.894113299999999,-1.6801848,-4.575839
84,1778516199910,1.8535837,1.3388586,3.1561599,3.8524218,-1.19134,-4.883562
85,1778516199920,1.728683125,1.122077625,3.247445625,3.9694023,-0.9433287,-5.065753
86,1778516199930,1.6870496,1.0498173,3.2778742,3.9694023,-0.9433287,-5.065753
87,1778516199940,1.6870496,1.0498173,3.2778742,3.9694023,-0.9433287,-5.065753
88,1778516199950,1.6870496,1.0498173,3.2778742,3.9694023,-0.9433287,-5.065753
89,1778516199960,1.6870496,1.0498173,3.2778742,3.9694023,-0.9433287,-5.065753
90,1778516199970,1.6870496,1.0498173,3.2778742,3.9694023,-0.9433287,-5.065753
91,1778516199980,1.6870496,1.0498173,3.2778742,3.9694023,-0.9433287,-5.065753
92,1778516199990,1.6870496,1.0498173,3.2778742,3.9694023,-0.9433287,-5.065753
93,1778516200000,1.6870496,1.0498173,3.2778742,3.9694023,-0.9433287,-5.065753
94,1778516200010,1.6870496,1.0498173,3.2778742,3.9694023,-0.9433287,-5.065753
95,1778516200020,1.6870496,1.0498173,3.2778742,3.9694023,-0.9433287,-5.065753
96,1778516200030,1.6870496,1.0498173,3.2778742,3.9694023,-0.9433287,-5.065753
97,1778516200040,1.6870496,1.0498173,3.2778742,3.9694023,-0.9433287,-5.065753
98,1778516200050,1.6870496,1.0498173,3.2778742,3.9694023,-0.9433287,-5.065753
99,1778516200060,1.4803913,0.78108215,3.4238582,4.054503475000001,-0.9220247575,-5.087095
100,1778516200070,1.4803913,0.78108215,3.4238582,4.309807,-0.85811293,-5.151121
101,1778516200080,1.4803913,0.78108215,3.4238582,4.309807,-0.85811293,-5.151121
102,1778516200090,1.4803913,0.78108215,3.4238582,4.309807,-0.85811293,-5.151121
103,1778516200100,1.4803913,0.78108215,3.4238582,4.309807,-0.85811293,-5.151121
104,1778516200110,1.4803913,0.78108215,3.4238582,4.309807,-0.85811293,-5.151121
105,1778516200120,1.4803913,0.78108215,3.4238582,4.309807,-0.85811293,-5.151121
106,1778516200130,1.4803913,0.78108215,3.4238582,4.309807,-0.85811293,-5.151121
107,1778516200140,1.4803913,0.78108215,3.4238582,4.309807,-0.85811293,-5.151121
108,1778516200150,1.2334865,0.4850283,3.5028875,4.309807,-0.85811293,-5.151121
109,1778516200160,1.2334865,0.4850283,3.5028875,4.309807,-0.85811293,-5.151121
110,1778516200170,1.2334865,0.4850283,3.5028875,4.309807,-0.85811293,-5.151121
111,1778516200180,1.2334865,0.4850283,3.5028875,4.309807,-0.85811293,-5.151121
112,1778516200190,1.2334865,0.4850283,3.5028875,4.309807,-0.85811293,-5.151121
113,1778516200200,1.2334865,0.4850283,3.5028875,4.540485,-0.9225973975,-5.132069749999999
114,1778516200210,1.2334865,0.4850283,3.5028875,5.232519,-1.1160508,-5.074916
115,1778516200220,1.2334865,0.4850283,3.5028875,5.232519,-1.1160508,-5.074916
116,1778516200230,1.2334865,0.4850283,3.5028875,5.232519,-1.1160508,-5.074916
117,1778516200240,1.2334865,0.4850283,3.5028875,5.232519,-1.1160508,-5.074916
118,1778516200250,,,,,,
119,1778516200260,,,,,,
120,1778516200270,0.60399866,-1.6363759,0.76291037,5.9617395,-2.286316,-6.6732445
121,1778516200280,0.60399866,-1.6363759,0.76291037,5.9617395,-2.286316,-6.6732445
122,1778516200290,0.60399866,-1.6363759,0.7629103699999998,5.9617395,-2.286316,-6.6732445
123,1778516200300,0.60399866,-1.6363759,0.76291037,5.9617395,-2.286316,-6.6732445
124,1778516200310,0.60399866,-1.6363759,0.76291037,5.9617395,-2.286316,-6.6732445
125,1778516200320,0.2593444,-2.1789076,0.20732918,5.4710617,-2.663525,-5.850409
126,1778516200330,0.2593444,-2.1789076,0.20732918,5.4710617,-2.663525,-5.850409
127,1778516200340,0.2593444,-2.1789076,0.20732918,5.4710617,-2.663525,-5.850409
128,1778516200350,0.2593444,-2.1789076,0.20732918,5.4710617,-2.663525,-5.850409
129,1778516200360,0.2593444,-2.1789076,0.20732918,5.4710617,-2.663525,-5.850409
130,1778516200370,0.2593444,-2.1789076,0.20732918,5.4710617,-2.663525,-5.850409
131,1778516200380,0.2593444,-2.1789076,0.20732918,5.4710617,-2.663525,-5.850409
132,1778516200390,0.2593444,-2.1789076,0.20732918,5.035515,-2.5350907,-5.608812
133,1778516200400,0.2593444,-2.1789076,0.20732918,5.035515,-2.5350907,-5.608812
134,1778516200410,0.2593444,-2.1789076,0.20732918,5.035515,-2.5350907,-5.608812
135,1778516200420,0.2593444,-2.1789076,0.20732918,5.035515,-2.5350907,-5.608812
136,1778516200430,0.2593444,-2.1789076,0.20732918,5.035515,-2.5350907,-5.608812
137,1778516200440,0.2593444,-2.1789076,0.20732918,5.035515,-2.5350907,-5.608812
138,1778516200450,0.2303792933333333,-2.2078523333333333,0.18318142,5.035515,-2.5350907,-5.608812
139,1778516200460,0.17244908,-2.2657418,0.1348859,5.035515,-2.5350907,-5.608812
140,1778516200470,0.17244908,-2.2657418,0.1348859,5.035515,-2.5350907,-5.608812
141,1778516200480,0.17244908,-2.2657418,0.1348859,5.035515,-2.5350907,-5.608812
142,1778516200490,0.17244908,-2.2657418,0.1348859,5.035515,-2.5350907,-5.608812
143,1778516200500,0.17244908,-2.2657418,0.1348859,5.035515,-2.5350907,-5.608812
144,1778516200510,0.17244908,-2.2657418,0.1348859,5.035515,-2.5350907,-5.608812
145,1778516200520,0.17244908,-2.2657418,0.1348859,5.035515,-2.5350907,-5.608812
146,1778516200530,0.17244908,-2.2657418,0.1348859,5.035515,-2.5350907,-5.608812
147,1778516200540,0.17244908,-2.2657418,0.1348859,5.035515,-2.5350907,-5.608812
148,1778516200550,0.17244908,-2.2657418,0.1348859,5.035515,-2.5350907,-5.608812
149,1778516200560,-0.29349273,-2.9132187,-0.16866837,2.7440066,-1.2889256,-4.640285
150,1778516200570,-0.7429092,-3.2126265,-0.11817763,2.7440066,-1.2889256,-4.640285
151,1778516200580,-0.7429092,-3.2126265000000003,-0.1181776299999999,2.7440066,-1.2889256,-4.640285
152,1778516200590,-0.7429092,-3.2126265,-0.11817763,2.7440066,-1.2889256,-4.640285
153,1778516200600,-0.7429092,-3.2126265000000003,-0.1181776299999999,2.7440066,-1.2889256,-4.640285
154,1778516200610,-0.7429092,-3.2126265,-0.11817763,1.322828675,-0.3244076075,-3.872198375
155,1778516200620,-0.7429092,-3.2126265000000003,-0.1181776299999999,0.8491027,-0.00290161,-3.6161695
156,1778516200630,-0.7429092,-3.2126265,-0.11817763,0.8491027,-0.00290161,-3.6161695
157,1778516200640,-0.7429092,-3.2126265,-0.11817763,0.8491027,-0.00290161,-3.6161695
158,1778516200650,-0.7429092,-3.2126265000000003,-0.1181776299999999,0.8491027,-0.00290161,-3.6161695
159,1778516200660,-0.7429092,-3.2126265,-0.11817763,0.8491027,-0.00290161,-3.6161695
160,1778516200670,-0.8803156,-3.3053148333333335,-0.0387827516,-0.2948951866666666,0.9470956966666666,-2.590374
161,1778516200680,-0.9490188,-3.351659,0.0009146876,-1.5656476,2.0662518,-1.2812898
162,1778516200690,-0.9490188,-3.351659,0.0009146875999999,-1.5656476,2.0662518,-1.2812898
163,1778516200700,-0.9490188,-3.351659,0.0009146876,-1.5656476,2.0662518,-1.2812898
164,1778516200710,-0.9490188,-3.351659,0.0009146876,-1.5656476,2.0662518,-1.2812898
165,1778516200720,-0.9490188,-3.351659,0.0009146876,-1.5656476,2.0662518,-1.2812898
166,1778516200730,-0.9490188,-3.351659,0.0009146875999999,-1.5656476,2.0662518,-1.2812898
167,1778516200740,-1.13428875,-3.45858605,0.2153174219,-1.5656476,2.0662518,-1.2812898
168,1778516200750,-1.1960454,-3.4942283999999995,0.286785,-1.5656476,2.0662518,-1.2812898
169,1778516200760,-1.1960454,-3.4942284,0.286785,-1.5656476,2.0662518,-1.2812898
170,1778516200770,-1.1981796,-3.5439262,0.37861964,-2.482251,3.3554828,1.1209377
171,1778516200780,-1.1667753,-3.336841,0.49130917,-2.482251,3.355482799999999,1.1209377
172,1778516200790,-1.1667753,-3.336841,0.49130917,-2.482251,3.3554828,1.1209377
173,1778516200800,-1.1667753,-3.336841,0.49130917,-2.482251,3.355482799999999,1.1209377
174,1778516200810,-1.1667753,-3.336841,0.49130917,-2.482251,3.3554828,1.1209377
175,1778516200820,-1.1667753,-3.336841,0.49130917,-2.482251,3.3554828,1.1209377
176,1778516200830,-1.1667753,-3.336841,0.49130917,-2.482251,3.355482799999999,1.1209377
177,1778516200840,-1.1667753,-3.336841,0.49130917,-2.482251,3.3554828,1.1209377
178,1778516200850,-1.1667753,-3.336841,0.49130917,-2.482251,3.3554828,1.1209377
179,1778516200860,-1.1667753,-3.336841,0.49130917,-2.482251,3.355482799999999,1.1209377
180,1778516200870,-1.1667753,-3.336841,0.49130917,-2.482251,3.3554828,1.1209377
181,1778516200880,-0.9943873,-3.1209748000000004,0.5753385,-2.482251,3.355482799999999,1.1209377
182,1778516200890,-0.89584495,-3.0199933,0.57357008,-2.3585126,3.5491652,2.0946950749999997
183,1778516200900,-0.7973026,-2.9190118,0.57180166,-2.2638667,3.631441,2.57159
184,1778516200910,-0.661745925,-2.288731125,0.1980603425,-2.0448713,3.6511416,3.8084393
185,1778516200920,-0.6502209,-2.1793344,0.09579827,-2.0448713,3.6511416,3.8084393
186,1778516200930,-0.6502209,-2.1793344,0.09579827,-2.0448713,3.6511416,3.8084393
187,1778516200940,-0.6502209,-2.1793344,0.09579827,-2.0448713,3.6511416,3.8084393
188,1778516200950,-0.6502209,-2.1793344,0.09579827,-2.0448713,3.6511416,3.8084393
189,1778516200960,-0.6502209,-2.1793344,0.09579827,-2.19644235,3.67840145,4.02705265
190,1778516200970,-0.6502209,-2.1793344,0.09579827,-2.3480134,3.705661300000001,4.245666
191,1778516200980,-0.6502209,-2.1793344,0.09579827,-2.3480134,3.7056613,4.245666
192,1778516200990,-0.6502209,-2.1793344,0.09579827,-2.3480134,3.7056613,4.245666
193,1778516201000,-0.6469483333333333,-2.1678296666666665,0.0848016933333333,-2.4322109333333333,3.731826700000001,4.321362466666667
194,1778516201010,-0.6404032,-2.1448202,0.06280854,-2.600606,3.7841575,4.4727554
195,1778516201020,-0.6404032,-2.1448202,0.06280854,-2.600606,3.784157500000001,4.4727554
196,1778516201030,-0.6404032,-2.1448202,0.06280854,-2.600606,3.7841575,4.4727554
197,1778516201040,-0.6079013124999999,-2.055607675,0.0197267574999999,-2.600606,3.7841575,4.4727554
198,1778516201050,-0.51039565,-1.7879701,-0.10951859,-2.600606,3.784157500000001,4.4727554
199,1778516201060,-0.51039565,-1.7879701,-0.10951859,-3.6308684,4.012430125,5.0515121
200,1778516201070,-0.3207504233333333,-1.662922166666667,-0.1243161966666666,-5.206709933333333,4.2760565999999995,5.7268110000000005
201,1778516201080,-0.22592781,-1.6003982,-0.131715,-5.8229203,4.3698244,5.968001
202,1778516201090,-0.1090307485,-1.58125075,-0.0469844475,-6.52617885,4.4642794,6.1816510000000005
203,1778516201100,0.007866313,-1.5621032999999998,0.037746105,-7.229437399999999,4.5587344,6.395301
204,1778516201110,0.007866313,-1.5621032999999998,0.037746105,-7.229437399999999,4.5587344,6.395301
205,1778516201120,0.18623037325,-1.5154999500000002,0.29600812125,-7.2294374,4.5587344,6.395301
206,1778516201130,0.24568506,-1.4999655,0.38209546,-7.229437399999999,4.5587344,6.395301
207,1778516201140,0.24568506,-1.4999655,0.38209546,-8.4033296,4.6967521,6.76640175
208,1778516201150,0.24568506,-1.4999655,0.38209546,-8.794627,4.742758,6.890102
209,1778516201160,0.24568506,-1.4999655,0.38209546,-8.794627,4.742758,6.890102
210,1778516201170,0.39230949,-1.467951525,0.5883574899999999,-9.295689,4.7405435,7.0896259
211,1778516201180,0.4411843,-1.4572802000000002,0.6571115,-9.796751,4.738329,7.2891498
212,1778516201190,0.4411843,-1.4572802,0.6571115,-9.796751,4.738329,7.2891498
213,1778516201200,0.4411843,-1.4572802000000002,0.6571115,-10.712286,4.485278,7.717213
214,1778516201210,0.4411843,-1.4572802,0.6571115,-10.712286,4.485278,7.717213
215,1778516201220,0.4411843,-1.4572802000000002,0.6571115,-10.712286,4.485278,7.717213
216,1778516201230,0.98078895,-1.3478225,1.0962834,-10.712286,4.485278,7.717213
217,1778516201240,0.98078895,-1.3478225,1.0962834,-10.712286,4.485278,7.717213
218,1778516201250,,,,,,
219,1778516201260,0.98078895,-1.3478225,1.0962834,-10.712286,4.485278,7.717213
220,1778516201270,0.98078895,-1.3478225,1.0962834,-10.712286,4.485278,7.717213
221,1778516201280,1.1603725666666669,-1.2933681,1.2909086333333333,-10.751279666666669,4.255032666666667,7.65801
222,1778516201290,1.5195398,-1.1844593,1.6801591,-10.829267,3.794542,7.539604
223,1778516201300,1.5195397999999998,-1.1844593,1.6801591,-10.829267,3.794542,7.539604
224,1778516201310,1.685509925,-1.036097,2.0656998250000003,-9.95431675,2.9888108,7.10329375
225,1778516201320,1.7408333,-0.9866429,2.1942134,-8.668178,2.0749564,6.60101
226,1778516201330,1.7408333,-0.9866429,2.1942134,-8.668178,2.0749564,6.60101
227,1778516201340,1.7408333,-0.9866429,2.1942134,-8.668178,2.0749564,6.60101
228,1778516201350,1.7408333,-0.9866429,2.1942134,-8.668178,2.0749564,6.60101
229,1778516201360,1.8047394333333333,-0.8390326733333334,2.3746711333333335,-8.668178,2.0749564,6.60101
230,1778516201370,1.8366925,-0.76522756,2.4649,-8.668178,2.0749564,6.60101
231,1778516201380,1.8366925,-0.76522756,2.4649,-8.668178,2.0749564,6.60101
232,1778516201390,1.5709454,-0.33782458,2.2726934,-5.431203,0.42119157,5.8317776
233,1778516201400,1.5709454,-0.33782458,2.2726934,-5.431203,0.42119157,5.8317776
234,1778516201410,1.5709454,-0.33782458,2.2726934,-5.431203,0.42119157,5.8317776
235,1778516201420,1.5709454,-0.33782458,2.2726934,-5.431203,0.42119157,5.8317776
236,1778516201430,1.5709454,-0.33782458,2.2726934,-4.5395432,-0.1196277766666666,5.916484533333333
237,1778516201440,1.5709454,-0.33782458,2.2726934,-4.0937133,-0.39003745,5.958838
238,1778516201450,1.5709454,-0.33782458,2.2726934,-4.0937133,-0.39003745,5.958838
239,1778516201460,1.5709454,-0.33782458,2.2726934,-4.0937133,-0.39003745,5.958838
240,1778516201470,1.3858736,-0.0837244,1.8607793,-3.96848595,-0.499458675,6.0717716500000005
241,1778516201480,1.4029274333333337,0.00150415,1.6395468666666666,-3.8432586,-0.6088799,6.1847053
242,1778516201490,1.612975125,0.2301811175,0.901820875,-4.62990015,-0.1848630875,6.3031366
243,1778516201500,1.6716217999999998,0.24958774,0.8034005,-4.892114,-0.04352415,6.3426137
244,1778516201510,2.0595407,0.2921206975,0.803583425,-4.892114,-0.04352415,6.3426137
245,1778516201520,2.188847,0.30629835,0.8036444,-4.892114,-0.04352415,6.3426137
246,1778516201530,2.214077175,0.299041825,0.8662852750000001,-5.833915625,0.509423425,6.0007583
247,1778516201540,2.2897677,0.27727225,1.0542079,-7.404603,1.4355333,5.2181635
248,1778516201550,2.2897677,0.27727225,1.0542079,-7.404602999999999,1.4355333,5.2181635
249,1778516201560,2.2897677,0.27727225,1.0542079,-7.404603,1.4355333,5.2181635
250,1778516201570,2.2897677,0.27727225,1.0542079,-7.404603,1.4355333,5.2181635
251,1778516201580,2.2897677,0.27727225,1.0542079,-7.404602999999999,1.4355333,5.2181635
252,1778516201590,2.2897677,0.27727225,1.0542079,-7.940637000000001,1.640096775,4.536094375
253,1778516201600,1.9307225,0.15238695,1.2628176,-8.119315,1.7082846,4.308738
254,1778516201610,1.83233255,0.1197326,1.2976367,-8.2073565,1.6512451,4.1141775
255,1778516201620,1.7339426,0.08707825,1.3324558,-7.943692,0.8168795615,3.83249225
256,1778516201630,1.5238896666666666,0.069658536,1.5772668,-7.591986000000001,0.039553523,3.7453675
257,1778516201640,1.0914203,0.0515578884999999,2.13187735,-7.591986,0.039553523,3.7453675
258,1778516201650,1.0543298,0.10177423,2.326843,-7.591986000000001,0.039553523,3.7453675
259,1778516201660,1.0543298,0.10177423,2.326843,-7.591986,0.039553523,3.7453675
260,1778516201670,1.0543298,0.10177423,2.326843,-6.760597999999999,-0.8756753,3.9019017
261,1778516201680,1.0543298,0.10177423,2.326843,-6.760598,-0.8756753,3.9019017
262,1778516201690,1.0543298,0.10177423,2.326843,-6.283919666666667,-1.1939361,4.014199133333333
263,1778516201700,1.1205989,0.2487645025,2.608292425,-5.330563,-1.8304577,4.238794
264,1778516201710,1.1426886,0.29776126,2.7021089,-5.330563,-1.8304577,4.238794
265,1778516201720,1.1426886,0.29776126,2.7021089,-5.330563,-1.8304577,4.238794
266,1778516201730,1.1426886,0.29776126,2.7021089000000003,-5.330563,-1.8304577,4.238794
267,1778516201740,1.1426886,0.29776126,2.7021089,-5.330563,-1.8304577,4.238794
268,1778516201750,1.6645483,0.7104073,2.5130124,-3.424816,-1.9587394,4.532773
269,1778516201760,1.6645483,0.7104073,2.5130124,-3.424816,-1.9587394,4.532773
270,1778516201770,1.6645483,0.7104073,2.5130124,-3.424816,-1.9587394,4.532773
271,1778516201780,1.75580365,0.8365427,2.3764192,-3.07272855,-1.65483395,4.43427085
272,1778516201790,2.004019333333334,1.1984642333333333,1.82594,-2.7206411,-1.3509285,4.3357687
273,1778516201800,2.0824995,1.3163573,1.618997,-2.7206411,-1.3509285,4.3357687
274,1778516201810,2.0824995,1.3163573,1.618997,-2.6405414,-0.8637634599999999,4.12303495
275,1778516201820,2.0824995,1.3163573,1.618997,-2.5604417,-0.3765984199999999,3.9103012000000006
276,1778516201830,2.146116075,1.38126965,1.5254701750000002,-2.5604417,-0.37659842,3.9103012
277,1778516201840,2.3369658,1.5760067,1.2448897,-2.5604417,-0.37659842,3.9103012
278,1778516201850,2.3369658,1.5760067,1.2448897,-2.5604417,-0.3765984199999999,3.9103012000000006
279,1778516201860,2.3369658,1.5760067,1.2448897,-2.828344325,0.07548004,3.48021385
280,1778516201870,2.3369658,1.5760067,1.2448897,-2.9176452,0.22617286,3.3368514
281,1778516201880,2.3369658,1.5760067,1.2448897,-2.9176452000000004,0.22617286,3.3368514
282,1778516201890,2.3369658,1.5760067,1.2448897,-2.9176452,0.22617286,3.3368514
283,1778516201900,2.3369658,1.5760067,1.2448897,-2.9176452000000004,0.22617286,3.3368514
284,1778516201910,2.3369658,1.5760067,1.2448897,-2.9176452,0.22617286,3.3368514
285,1778516201920,2.3958715500000003,1.7162282,0.89675965,-3.3762522,0.2884811125,2.9317332
286,1778516201930,2.4155068,1.7629687,0.7807163,-3.5291212,0.30925053,2.7966938
287,1778516201940,2.4155068,1.7629687,0.7807163,-3.5291212,0.30925053,2.7966938
288,1778516201950,2.4155068,1.7629687,0.7807163,-3.5291212,0.30925053,2.7966938
289,1778516201960,2.3138342,1.8287042333333332,0.7032321,-3.5291212,0.30925053,2.7966938
290,1778516201970,2.2629979,1.861572,0.66449,-3.5291212,0.30925053,2.7966938
291,1778516201980,2.2264712,1.9337105,0.8359634000000001,-4.5906525,0.17379116,2.411696
292,1778516201990,2.2264712,1.9337105,0.8359634,-5.785962875,-0.132519581,2.419331725
293,1778516202000,2.2888733,1.9887136666666667,0.9934523,-5.9831195,-0.17440203,2.4281893
294,1778516202010,2.4136775,2.09872,1.3084301,-5.9831195,-0.17440203,2.4281893
295,1778516202020,2.8465075,2.4263,1.8650479,-5.9191823,0.1360193233333333,2.3269893666666666
296,1778516202030,3.0629225,2.59009,2.1433568,-5.8872137,0.29123,2.2763894
297,1778516202040,3.231468833333333,2.7777026666666664,2.524964466666667,-5.8872137,0.29123,2.2763894
298,1778516202050,3.315742,2.871509,2.7157683,-5.8872137,0.29123,2.2763894
299,1778516202060,3.315742,2.871509,2.7157683,-5.272785233333333,0.1583668133333333,1.9895881333333332
300,1778516202070,3.36568405,3.139238,3.379053825,-3.985819375,-0.1939497049999999,1.5381968499999998
301,1778516202080,3.3823314,3.228481,3.600149,-1.372767,-0.6348417,0.8874345
302,1778516202090,3.3823314,3.228481,3.600149,-1.3727670000000003,-0.6348417,0.8874345
303,1778516202100,3.3823314,3.228481,3.600149,0.514348575,-0.691652175,0.4899903
304,1778516202110,3.3823314,3.228481,3.600149,1.1433871,-0.710589,0.3575089
305,1778516202120,3.3376337,3.2854967,3.5000822,1.1433871,-0.710589,0.3575089
306,1778516202130,3.2929359999999996,3.3425124,3.4000153999999996,1.1433871,-0.710589,0.3575089
307,1778516202140,3.21451685,3.3397682,3.1285057,1.1433871,-0.710589,0.3575089
308,1778516202150,3.1360977,3.337024,2.856996,1.1433871,-0.710589,0.3575089
309,1778516202160,3.1360977,3.337024,2.856996,1.652276,-0.72162275,0.247056825
310,1778516202170,3.1360977,3.337024,2.856996,3.1789427,-0.754724,-0.0842994
311,1778516202180,3.1360977,3.337024,2.856996,3.1789427,-0.754724,-0.0842993999999999
312,1778516202190,3.115501975,3.31885215,2.743422275,3.8993056,-0.77801325,-0.248469435
313,1778516202200,3.0537148,3.2643366,2.4027011,4.6196685,-0.8013024999999999,-0.41263947
314,1778516202210,3.059980425,3.2494577,2.27987385,4.6196685,-0.8013025,-0.41263947
315,1778516202220,3.0798444,3.195003375,1.714078725,4.868519625,-0.7740044500000001,-0.6318255525
316,1778516202230,3.0830457,3.1655505,1.1221386,5.615073,-0.6921103,-1.2893838
317,1778516202240,2.677493533333333,3.137357833333333,0.2809106933333333,4.4966808,-0.38973202,-2.230116333333333
318,1778516202250,2.5791748,3.126219,0.16671704,3.9374847,-0.23854288,-2.7004826
319,1778516202260,2.5791748,3.126219,0.16671704,3.9374847,-0.23854288,-2.7004826
320,1778516202270,,,,,,
321,1778516202280,,,,,,
322,1778516202290,1.1859533999999998,-0.95993408,1.65729185,6.1143792999999995,-0.6017786300000001,-7.51371885
323,1778516202300,1.0419511,-1.0077418,1.5789336,6.376364,-0.6411031,-7.3613844
324,1778516202310,1.0419511,-1.0077418,1.5789336,6.376364,-0.6411031,-7.3613844
325,1778516202320,1.0419511,-1.0077418,1.5789336,6.540177666666666,-0.71038539,-7.2019995
326,1778516202330,0.8780085499999999,-1.00960165,1.4670063,6.867805,-0.84894997,-6.8832297
327,1778516202340,0.714066,-1.0114615,1.355079,6.867805,-0.84894997,-6.8832297
328,1778516202350,0.714066,-1.0114615,1.355079,6.867805,-0.84894997,-6.8832297
329,1778516202360,0.714066,-1.0114615,1.355079,6.867805,-0.84894997,-6.8832297
330,1778516202370,0.714066,-1.0114615,1.355079,6.948642899999999,-0.9704612466666666,-6.737640033333334
331,1778516202380,0.714066,-1.0114615,1.355079,7.1103187,-1.2134838,-6.4464607
332,1778516202390,0.714066,-1.0114615,1.355079,7.1103187,-1.2134838,-6.4464607
333,1778516202400,0.6538795749999999,-1.010272375,1.270013075,7.1103187,-1.2134838,-6.4464607
334,1778516202410,0.346819015,-1.01594335,0.8090563625,7.1103187,-1.2134838,-6.4464607
335,1778516202420,0.30465192,-1.0190228,0.74047005,7.1103187,-1.2134838,-6.4464607
336,1778516202430,0.30465192,-1.0190228,0.74047005,7.1103187,-1.2134838,-6.4464607
337,1778516202440,0.30465192,-1.0190228,0.74047005,7.129052033333333,-1.6397659999999998,-6.0631429
338,1778516202450,0.30465192,-1.0190228,0.74047005,7.1384187,-1.8529071,-5.871484
339,1778516202460,0.30465192,-1.0190228,0.74047005,7.1384187,-1.8529071,-5.871484
340,1778516202470,0.30465192,-1.0190228,0.74047005,7.1384187,-1.8529071,-5.871484
341,1778516202480,0.30465192,-1.0190228,0.74047005,7.1384187,-1.8529071,-5.871484
342,1778516202490,0.30465192,-1.0190228,0.74047005,7.1384187,-1.8529071,-5.871484
343,1778516202500,0.22944428,-1.0500205666666669,0.6300571066666666,7.050097633333333,-1.9825632,-5.672698333333333
344,1778516202510,-0.45167267,-1.6094842,-0.4471602,5.9067616,-2.0395262,-4.280638
345,1778516202520,-0.45167267,-1.6094842,-0.4471602,5.6241345,-2.0819814,-4.1021635666666665
346,1778516202530,-0.45167267,-1.6094842,-0.4471602,4.0764946,-2.26344665,-3.330131775
347,1778516202540,-0.45167267,-1.6094842,-0.4471602,3.749032699999999,-2.2956316,-3.1917708
348,1778516202550,-0.6877841,-1.6629019,-0.6746735,3.7490327,-2.2956316,-3.1917708
349,1778516202560,-0.6877841,-1.6629019000000005,-0.6746735,3.749032699999999,-2.2956316,-3.1917708
350,1778516202570,-0.6877841,-1.6629019,-0.6746735,3.7490327,-2.2956316,-3.1917708
351,1778516202580,-0.72892468,-1.6832689666666667,-0.7329695666666667,3.749032699999999,-2.2956316,-3.1917708
352,1778516202590,-0.7494949700000001,-1.6934525,-0.7621176,2.301587533333333,-1.919644,-2.7290913333333333
353,1778516202600,-0.74949497,-1.6934525,-0.7621176,0.7903069,-1.4431691,-2.2747095
354,1778516202610,-0.7492916766666666,-1.7745141,-0.6922354999999999,0.7903069,-1.4431690999999998,-2.2747095
355,1778516202620,-0.74919003,-1.8150449,-0.65729445,0.7903069,-1.4431691,-2.2747095
356,1778516202630,-0.74919003,-1.8150449,-0.65729445,0.7903069,-1.4431690999999998,-2.2747095
357,1778516202640,-0.74919003,-1.8150449,-0.65729445,0.7903069,-1.4431691,-2.2747095
358,1778516202650,-0.75433262,-1.8717352333333332,-0.5297463533333333,0.0885245666666666,-0.9817113266666668,-2.0463986000000003
359,1778516202660,-0.7716507333333333,-2.0269882666666668,-0.1814739955666666,-1.3150401,-0.05879578,-1.5897768
360,1778516202670,-0.7857166,-2.110733,0.0048783333,-1.3150401,-0.05879578,-1.5897768
361,1778516202680,-0.7857166000000001,-2.110733,0.0048783333,-1.6927075333333337,0.3582724466666667,-1.4029029666666668
362,1778516202690,-0.7857166,-2.110733,0.0048783333,-2.4480424,1.1924089,-1.0291553
363,1778516202700,-0.7857166000000001,-2.110733,0.0048783333,-2.4480424,1.1924089,-1.0291553
364,1778516202710,-0.8128523249999999,-2.15701615,0.14997826665,-2.6573402,1.5656476,-0.8192467
365,1778516202720,-0.88533622,-2.2187067,0.3544109333333333,-2.866638,1.9388863,-0.6093381
366,1778516202730,-0.97603256,-2.2495215,0.4730764,-2.895654,2.6398542,-0.03940081
367,1778516202740,-0.97603256,-2.2495215,0.4730764,-2.895654,2.6398542,-0.03940081
368,1778516202750,-0.97603256,-2.2495215,0.4730764,-2.895654,2.6398542,-0.03940081
369,1778516202760,-0.97603256,-2.2495215,0.4730764,-2.895654,2.6398542,-0.03940081
370,1778516202770,-0.9879031733333332,-2.247204333333334,0.5384460466666666,-2.7796913999999995,2.757293,0.1414662033333333
371,1778516202780,-0.782164575,-2.1009305,0.1587897555,-0.1361084125,3.234760525,1.923881875
372,1778516202790,-0.7746184,-2.057925,0.048905294,0.06414085,3.1630602,2.0564778
373,1778516202800,-0.7746184,-2.057925,0.048905294,0.06414085,3.1630602,2.0564778
374,1778516202810,-0.7746184,-2.057925,0.048905294,0.06414085,3.1630602,2.0564778
375,1778516202820,-0.7132733,-1.8901713,-0.33941004,0.2649628,2.5590672,2.588694
376,1778516202830,-0.6832715566666666,-1.8278099333333333,-0.3900837333333333,0.2649628,2.5590672,2.588694
377,1778516202840,-0.62326807,-1.7030872,-0.49143112,0.04367686525,2.086486575,2.8729755
378,1778516202850,-0.62326807,-1.7030872,-0.4914311199999999,-0.030085113,1.9289597,2.967736
379,1778516202860,-0.5546665024999999,-1.5994226,-0.4274639725,-0.33971743475,1.863711675,3.150346575
380,1778516202870,-0.3202016,-1.1768572833333333,-0.1256170866666666,-1.2686144,1.6679676,3.6981783
381,1778516202880,-0.2628812,-0.95371425,0.0942738,-1.970613125,2.077438275,3.878574375
382,1778516202890,-0.2628812,-0.95371425,0.0942738,-2.2046127,2.2139285,3.9387064
383,1778516202900,-0.2697718449999999,-0.9232399,0.112963915,-2.3763803500000003,2.357099975,3.99482965
384,1778516202910,-0.146207721,-0.6240810999999999,0.27757716,-5.0016117,4.171904,4.9835916
385,1778516202920,0.029574897,-0.4475261,0.33001924,-5.0016117,4.171904,4.9835916
386,1778516202930,0.05829608525,-0.4287597625,0.3523376175,-5.687919,4.29759,5.1584516
387,1778516202940,0.14445965,-0.3724607499999999,0.41929275,-5.687919,4.29759,5.1584516
388,1778516202950,0.659154335,-0.1181776255,0.9635318625,-6.4768515,4.245246375,5.165094875
389,1778516202960,0.83071923,-0.033416584,1.1449449,-6.739829,4.2277985,5.1673093
390,1778516202970,0.926944315,0.010244498,1.29955755,-6.739829,4.2277985,5.1673093
391,1778516202980,1.0231694,0.05390558,1.4541702,-6.816492666666666,4.1656939,4.980384433333334
392,1778516202990,1.10329605,0.127141565,1.60292885,-6.8548245,4.1346416,4.886922
393,1778516203000,1.1834227,0.20037755,1.7516875,-6.680676900000001,3.9915464,4.722344666666667
394,1778516203010,1.210497475,0.2472552874999999,1.758867775,-6.26644645,3.654806875,4.358027
395,1778516203020,1.195466075,0.32645198,1.693391525,-5.566738675,3.094834375,3.959895725
396,1778516203030,1.1874473,0.34764224,1.6707683,-5.399438,2.958726,3.8623482999999994
397,1778516203040,1.1874473,0.34764224,1.6707683,-5.399438,2.958726,3.8623483
398,1778516203050,1.1437658666666668,0.3539230933333333,1.5661077,-5.246976133333333,2.8307496666666663,3.774078266666667
399,1778516203060,1.056403,0.3664848,1.3567865,-4.9420524,2.574797,3.5975382
400,1778516203070,1.0165633333333333,0.3470324433333333,1.2892215666666669,-4.903058933333333,2.5305093,3.5481599
401,1778516203080,0.7806553,0.25135612,0.9848745,-4.84282525,2.457510875,3.404733825
402,1778516203090,0.7806553,0.25135612,0.9848745,-4.848743,2.4627032,3.389844
403,1778516203100,0.7806552999999999,0.25135612,0.9848745,-4.848743,2.4627032,3.389844
404,1778516203110,0.5877171875,0.1405112525,0.776752675,-5.026161050000001,2.40119675,3.450892275
405,1778516203120,0.5660086,0.036892395,0.5812534,-5.113298400000001,2.2478823,3.4887531333333333
406,1778516203130,0.5810704624999999,0.04754850525,0.552379765,-5.202662975,1.888260825,3.53236635
407,1778516203140,0.72931085,0.160903692,0.3381904533333333,-5.5318429,1.2280428,3.5548793333333335
408,1778516203150,0.78083825,0.20159712,0.27440625,-5.64638,1.0389291,3.5532503
409,1778516203160,1.0517484,0.25241309,0.2832279033333333,-7.3636752,0.4731660499999999,3.3436726333333335
410,1778516203170,1.0963445,0.23056222,0.34532502,-8.331897,0.77564615,3.1581733
411,1778516203180,0.9191390375,0.24906941,0.9286823,-8.8427325,1.1663326625,3.016605325
412,1778516203190,0.86645305,0.25544173,1.0285357,-9.013011,1.2965615,2.9694160000000003
413,1778516203200,0.86645305,0.25544173,1.0285357,-9.013011,1.2965615,2.969416
414,1778516203210,0.86645305,0.25544173,1.0285357,-9.013011,1.2965615,2.9694160000000003
415,1778516203220,0.86645305,0.25544173,1.0285357,-9.013011,1.2965615,2.969416
416,1778516203230,0.86645305,0.25544173,1.0285357,-9.407477,1.972942,2.7594311
417,1778516203240,0.86645305,0.25544173,1.0285357,-9.407477,1.972942,2.7594311
418,1778516203250,0.7527472166666667,0.3030867766666666,1.2203761,-9.407477,1.972942,2.7594311
419,1778516203260,0.6958943,0.3269093,1.3162963,-9.3470015,2.02505645,2.7842475
420,1778516203270,0.70390286,0.4444365,1.3532903,-8.915018333333334,2.0834577999999997,2.9589803
421,1778516203280,0.70790714,0.5032001,1.3717873,-8.78974,2.0344868,3.0091221
422,1778516203290,0.70790714,0.5032001,1.3717873,-8.78974,2.0344868,3.0091221
423,1778516203300,1.2004968133333334,0.9440388,1.2467393666666666,-8.270300666666666,1.3647748,3.064914433333333
424,1778516203310,1.6979648,1.3524569,1.1959234,-7.7329939,-0.3447825266666666,2.4591398000000004
425,1778516203320,,,,,,
426,1778516203330,,,,,,
427,1778516203340,0.64235455,0.4124631,1.2466581,-3.487735,-1.0566442,3.728416
428,1778516203350,0.7153466,0.5022244,0.67272216,-4.009261,-0.78969604,3.8628063
429,1778516203360,0.7792934266666668,0.4945003866666666,0.4528719399999999,-4.913138,-0.3326670266666667,3.863519033333333
430,1778516203370,1.0052416,0.40856043,0.2602591,-7.0054026,0.6606508,3.5914295
431,1778516203380,1.0125184333333337,0.31020103,0.4426071333333333,-7.759363066666666,1.0145453666666666,3.298519666666666
432,1778516203390,1.0270721,0.11348223,0.8073032,-9.267284,1.7223345,2.7127
433,1778516203400,0.7944366,0.007622396,1.1989725,-9.267284,1.7223345,2.7127
434,1778516203410,0.7944366,0.007622396,1.1989725,-9.4514595,1.7779233,2.5463155
435,1778516203420,0.7944366,0.007622396,1.1989725,-9.635635,1.8335121,2.379931
436,1778516203430,0.7944366,0.007622396,1.1989725,-9.635635,1.8335121,2.379931
437,1778516203440,0.6283903,0.013781292,1.4646586,-9.635635,1.8335121,2.379931
438,1778516203450,0.6283903,0.013781292,1.4646586,-9.635635,1.8335121,2.379931
439,1778516203460,0.6283903,0.013781292,1.4646586,-9.635635,1.8335121,2.379931
440,1778516203470,0.6484930999999999,0.0344125763333333,1.4910829333333335,-9.551641333333334,1.6771305666666667,2.363997566666667
441,1778516203480,0.7944671,0.2740098725,1.6661033,-8.752477500000001,0.0788779499999999,2.7210991499999997
442,1778516203490,1.5908246,0.8653554,2.057437,-8.231868,-0.59635717,3.5816557
443,1778516203500,1.5908246,0.8653554,2.057437,-8.231868,-0.59635717,3.5816557
444,1778516203510,1.5908246,0.8653554,2.057437,-8.1136652,-0.123929285,3.57325625
445,1778516203520,1.5908246,0.8653554,2.057437,-7.9954624,0.3484986,3.5648568
446,1778516203530,2.1592723333333335,1.3132676666666667,3.047901333333334,-7.272605266666667,0.40337468,3.4197764
447,1778516203540,2.4729490999999997,2.197892433333333,3.812173633333334,-4.5779767,-0.15302174,3.0349312000000004
448,1778516203550,2.4864864,2.333002,3.7625976,-4.5779767,-0.15302174,3.0349312
449,1778516203560,2.5863705,2.6041155,3.5602078,-0.30466905,-1.687668,2.7812696
450,1778516203570,2.5863705,2.6041155,3.5602078,-0.30466905,-1.6876679999999995,2.7812696
451,1778516203580,2.5863705,2.6041155,3.5602078,-0.30466905,-1.687668,2.7812696
452,1778516203590,2.5863705,2.6041155,3.5602078,-0.30466905,-1.6876679999999995,2.7812696
453,1778516203600,2.7883335,2.8327872,3.377956225,0.304058175,-1.5179238,2.6742153
454,1778516203610,2.8556545,2.9090111,3.3172057,0.9127854,-1.3481796,2.567161
455,1778516203620,2.8556545,2.9090110999999994,3.3172057,0.9127854,-1.3481796,2.567161
456,1778516203630,3.165154175,3.15728785,3.084692325,1.2724323,-1.034347575,2.40398365
457,1778516203640,3.3219925999999997,3.28680775,2.75997805,1.99817835,-0.4306218125,1.8972709925
458,1778516203650,3.304949,3.2980585,2.6467397,3.6566393,0.52778757,0.23258694
459,1778516203660,3.304949,3.2980585,2.6467397,3.6566393,0.52778757,0.23258694
460,1778516203670,2.8344948,3.1446957999999996,1.8308995,3.6566393,0.52778757,0.23258694
461,1778516203680,2.8344948,3.1446958,1.8308995,3.730019475,0.4591034075,0.108123145
462,1778516203690,2.8344948,3.1446957999999996,1.8308995,3.95016,0.25305092,-0.26526824
463,1778516203700,2.8344948,3.1446958,1.8308995,3.95016,0.25305092,-0.26526824
464,1778516203710,2.804553975,3.1275606,1.7506509,3.95016,0.25305092,-0.26526824
465,1778516203720,2.7147315000000005,3.076155,1.5099051,3.95016,0.25305092,-0.26526824
466,1778516203730,2.7147315,3.076155,1.5099051,3.95016,0.25305092,-0.26526824
467,1778516203740,2.7147315,3.076155,1.5099051,3.95016,0.25305092,-0.26526824
468,1778516203750,2.7147315000000005,3.076155,1.5099051,3.95016,0.25305092,-0.26526824
469,1778516203760,2.5924683,2.9999921,1.2190346,3.6291504,-0.6600399,-1.1420126
470,1778516203770,2.4790064333333333,2.8859611,1.0667086,3.335527933333333,-0.8511389,-1.438791266666667
471,1778516203780,2.4222755,2.8289456,0.9905456,3.1887167,-0.9466884,-1.5871806
472,1778516203790,2.4222755,2.8289455999999995,0.9905456,3.1887167,-0.9466884,-1.5871806
473,1778516203800,2.3702603499999997,2.7372938,1.0431706,1.989588075,-0.7969882374999999,-2.3272438
474,1778516203810,1.9513943,2.1784198,1.7780915,0.26939157,-0.11285736,-3.6942077
475,1778516203820,1.9513943,2.1784198,1.7780914999999995,0.5069163233333334,-0.2696460933333333,-3.3493741666666668
476,1778516203830,1.8662369,2.10716565,1.908403975,0.6310237750000001,-0.2851213425,-3.39007305
477,1778516203840,1.6107647,1.8934032,2.2993414,0.647059,-0.09636399,-4.02942
478,1778516203850,1.564222375,1.82975615,2.3908712,0.647059,-0.09636399,-4.02942
479,1778516203860,1.4245954,1.638815,2.6654606,1.6986635,-0.15561792,-4.184885
480,1778516203870,1.4245954,1.638815,2.6654606,2.787339875,-0.163750065,-4.268726225
481,1778516203880,1.3722142,1.3878249,2.8111396,4.3994517,-0.13713925,-4.404033
482,1778516203890,1.3530973,1.228852275,2.726256625,4.3994517,-0.13713925,-4.404033
483,1778516203900,1.346725,1.1758614,2.6979623,4.3994517,-0.13713925,-4.404033
484,1778516203910,1.571799,0.39685243,1.7366867,7.648644,-0.8213083,-5.1503577
485,1778516203920,1.5717989999999995,0.39685243,1.7366867,7.648644,-0.8213083,-5.1503577
486,1778516203930,1.5851381999999998,0.3578562524999999,1.67493005,7.648644,-0.8213083,-5.1503577
487,1778516203940,1.6251558,0.24086772,1.4896601,7.648644,-0.8213083,-5.1503577
488,1778516203950,1.6251558,0.24086772,1.4896601,7.648644,-0.8213083,-5.1503577
489,1778516203960,1.628692575,0.0352002265,1.154655775,7.58141025,-1.4626022500000002,-5.723501925
490,1778516203970,1.7268691,-0.050307814,1.0209132,7.558999,-1.6763669000000003,-5.914550000000001
491,1778516203980,1.7268691,-0.050307814,1.0209132,7.558999,-1.6763669,-5.91455
492,1778516203990,1.7268691,-0.050307814,1.0209132,7.558999,-1.6763669000000003,-5.914550000000001
493,1778516204000,1.7268691,-0.050307814,1.0209132,7.092145525,-1.68106295,-6.122434999999999
494,1778516204010,1.7268691,-0.050307814,1.0209132,6.9365277,-1.6826283,-6.19173
495,1778516204020,1.7268691,-0.050307814,1.0209132,6.9365277,-1.6826283,-6.19173
496,1778516204030,1.7653622,-0.047838157,1.048704475,6.9365277,-1.6826283,-6.19173
497,1778516204040,1.8808415,-0.040429186,1.1320783,6.9365277,-1.6826283,-6.19173
498,1778516204050,2.1990306,0.037563168,1.5138077999999997,6.2387667,-1.847562,-6.500981
499,1778516204060,2.1990306,0.037563168,1.5138078,5.914053675,-2.110195725,-6.72089225
500,1778516204070,2.1990306,0.037563168,1.5138077999999997,5.805816,-2.1977403,-6.794196
501,1778516204080,2.4713027,0.10573788,1.9522481,5.456859,-2.8168523,-7.3624535
502,1778516204090,2.4713027,0.10573788,1.9522481,5.456859,-2.8168523,-7.3624535
503,1778516204100,2.4713027,0.10573788,1.9522481,5.456858999999999,-2.8168522999999994,-7.3624535
504,1778516204110,2.3948348,-0.15348457,2.5724673,5.1126366,-3.2933273,-8.394815
505,1778516204120,2.3948348,-0.15348457,2.5724673,5.1126366,-3.2933273,-8.394815
506,1778516204130,2.3948348,-0.15348457,2.5724673,5.1647638,-2.884149366666667,-8.559443666666667
507,1778516204140,2.2304349333333335,-0.3595128433333333,2.827685366666667,5.1908274,-2.6795604,-8.641758
508,1778516204150,2.148235,-0.46252698,2.9552944,5.1908274,-2.6795604,-8.641758
509,1778516204160,2.148235,-0.46252698,2.9552944,5.1908274,-2.6795604,-8.641758
510,1778516204170,2.0267188000000003,-0.603983415,2.98401565,5.3822572,-2.1617757500000003,-8.6009825
511,1778516204180,1.9862134,-0.65113556,2.9935894,5.573687,-1.6439911,-8.560207
512,1778516204190,1.9864981333333336,-0.7469541599999999,2.8930144666666666,5.573687,-1.6439911,-8.560207
513,1778516204200,1.9866405,-0.79486346,2.842727,5.573687,-1.6439911,-8.560207
514,1778516204210,1.9866405,-0.7948634599999999,2.842727,5.573687,-1.6439911,-8.560207
515,1778516204220,1.9866405,-0.79486346,2.842727,5.96643545,-0.876018925,-8.433529
516,1778516204230,1.9866405,-0.7948634599999999,2.842727,6.0973516,-0.6200282,-8.391303
517,1778516204240,1.9866405,-0.79486346,2.842727,6.0973516,-0.6200282,-8.391303
518,1778516204250,1.96089195,-0.9238801775,2.60275865,6.0973516,-0.6200282,-8.391303
519,1778516204260,1.9523091,-0.96688575,2.5227692,6.0973516,-0.6200282,-8.391303
520,1778516204270,1.9523091,-0.96688575,2.5227692,6.0973516,-0.6200282,-8.391303
521,1778516204280,1.9523091,-0.96688575,2.5227692,6.2609615666666665,-0.4810563633333333,-8.369515333333334
522,1778516204290,1.9523091,-0.96688575,2.5227692,6.986885624999999,-0.2428571025,-8.266724499999999
523,1778516204300,1.808078125,-1.0701234625,2.293457025,7.119787,-0.25610524,-8.246986
524,1778516204310,1.3753852,-1.3798366,1.6055205,7.88062,-1.0331259,-7.9142175
525,1778516204320,1.33047405,-1.380095775,1.453560425,7.949724250000001,-1.225319375,-7.864355625
526,1778516204330,1.1957406,-1.3808733,0.9976802,7.965937666666666,-2.114357266666667,-7.63607
527,1778516204340,1.053842,-1.4594754,0.5431415,7.870388,-2.270586,-7.59672
528,1778516204350,0.5936118666666667,-1.6486733999999998,-0.0184360333333333,7.370598,-2.3172154666666667,-7.446243666666667
529,1778516204360,-0.20542356,-1.857394925,-0.5136885,5.27249235,-2.32254785,-6.384191025
530,1778516204370,-0.4843575,-1.922917,-0.5815583,3.752392500000001,-2.3257167,-5.531996
531,1778516204380,-0.552959065,-1.994537,-0.555245825,3.427450325,-2.28364335,-5.287268
532,1778516204390,-0.62156063,-2.066157,-0.52893335,2.4526238,-2.1574233,-4.553084
533,1778516204400,-0.62156063,-2.066157,-0.52893335,2.4526238,-2.1574233,-4.553084
534,1778516204410,-0.62156063,-2.066157,-0.52893335,2.4526238,-2.1574233,-4.553084
535,1778516204420,-0.62156063,-2.066157,-0.52893335,2.4526238,-2.1574233,-4.553084
536,1778516204430,-0.62156063,-2.066157,-0.52893335,1.80052525,-1.99172615,-4.1134901500000005
537,1778516204440,-0.62156063,-2.066157,-0.52893335,1.1484267,-1.826029,-3.6738963
538,1778516204450,-0.685832665,-2.2052505499999997,-0.33529398,0.91568703,-1.70946825,-3.509802625
539,1778516204460,-0.82669455,-2.4513624,0.28519958,-0.5893831333333334,-0.3306817,-1.9110918666666663
540,1778516204470,-0.82669455,-2.4513624,0.28519958,-0.63255095,-0.18219055,-1.75975
541,1778516204480,-0.8518789666666667,-2.4728881,0.3567687866666666,-0.63255095,-0.1821905499999999,-1.7597499999999997
542,1778516204490,-0.9022478,-2.5159395,0.4999072,-0.63255095,-0.18219055,-1.75975
543,1778516204500,,,,,,
544,1778516204510,-0.9022478,-2.5159395,0.4999072,-0.63255095,-0.18219055,-1.75975
545,1778516204520,-0.9022478,-2.5159395,0.4999072,-0.63255095,-0.18219055,-1.75975
546,1778516204530,-0.9022478,-2.5159395,0.4999072,-0.63255095,-0.1821905499999999,-1.7597499999999997
547,1778516204540,-0.940756135,-2.571400075,0.5929614325,-0.3018437834999999,0.2118938749999999,-0.92301736
548,1778516204550,-0.95334834,-2.643447,0.6610142,0.028863383,0.6059783,-0.08628472
549,1778516204560,-0.95334834,-2.643447,0.6610142,0.028863383,0.6059783,-0.08628472
550,1778516204570,-0.95334834,-2.643447,0.6610142,0.1846340215,0.74701185,0.24694227
551,1778516204580,-0.8832222,-2.6207018,0.5279576,0.3404046600000001,0.8880453999999999,0.58016926
552,1778516204590,-0.8832222,-2.6207018,0.5279576,0.34040466,0.8880454,0.58016926
553,1778516204600,-0.8066171625,-2.59541045,0.4538222,0.34040466,0.8880454,0.58016926
554,1778516204610,-0.78108215,-2.58698,0.4291104,0.3404046600000001,0.8880453999999999,0.58016926
555,1778516204620,-0.78108215,-2.58698,0.4291104,0.41179953,1.27961,1.06260013
556,1778516204630,-0.78108215,-2.58698,0.4291104,0.4831944000000001,1.6711745999999998,1.545031
557,1778516204640,-0.7587485300000001,-2.57973875,0.42752494,0.4831944,1.6711746,1.545031
558,1778516204650,-0.69174767,-2.558015,0.42276856,0.4831944,1.6711746,1.545031
559,1778516204660,-0.5723504633333333,-2.4782136666666665,0.2572711133333333,0.77666426,2.746908233333333,2.4062490666666663
560,1778516204670,-0.51265186,-2.438313,0.17452239,0.81504697,2.8651106,2.525775
561,1778516204680,-0.51265186,-2.438313,0.17452239,0.81504697,2.8651106,2.525775
562,1778516204690,-0.490562155,-2.40017055,0.1052043175,0.81504697,2.8651106,2.525775
563,1778516204700,-0.42429304,-2.2857432,-0.1027499,0.7245370566666667,3.037883666666667,2.7972027333333336
564,1778516204710,-0.42429304,-2.2857432,-0.1027499,0.6792821,3.1242702,2.9329166
565,1778516204720,-0.39801102,-2.0848778666666665,-0.18029508,0.1281289733333333,3.227353733333333,3.3792046333333334
566,1778516204730,-0.35928926,-1.9163314,-0.21147576,-0.45372015,3.3808336,3.8098137
567,1778516204740,-0.35928926,-1.9163314,-0.21147576,-1.3066789125,3.9086212,4.227072975
568,1778516204750,-0.35928926,-1.9163314,-0.21147576,-1.5909985000000002,4.0845504,4.3661594
569,1778516204760,-0.35928926,-1.9163314,-0.21147576,-1.5909985,4.0845504,4.3661594
570,1778516204770,-0.3074569533333333,-1.6987576666666666,-0.1763111066666667,-1.5909985000000002,4.0845504,4.3661594
571,1778516204780,-0.27733323,-1.3019662,-0.13311753,-5.448918,5.887061,5.6731057
572,1778516204790,-0.2414978133333333,-1.2442596,-0.0984000546666666,-5.448918,5.887061,5.6731057
573,1778516204800,-0.16982698,-1.1288464,-0.028965104,-5.448918,5.887061,5.6731057
574,1778516204810,-0.1048536779999999,-1.0846365,0.030550563,-5.9101975,5.93852635,5.81994235
575,1778516204820,-0.039880376,-1.0404266,0.0900662299999999,-6.371477,5.9899917,5.966779
576,1778516204830,-0.039880376,-1.0404266,0.09006623,-6.371477,5.9899917,5.966779
577,1778516204840,0.176519443,-0.994494025,0.2508682975,-8.009054,5.724724,6.382778
578,1778516204850,0.8257189,-0.8566963,0.7332744999999999,-8.009054,5.724723999999999,6.382777999999999
579,1778516204860,0.8257189,-0.8566963,0.7332745,-8.26237225,5.54226615,6.4443991
580,1778516204870,0.8257189,-0.8566963,0.7332745,-9.022327,4.9948926,6.6292624
581,1778516204880,0.8257189,-0.8566963,0.7332744999999999,-9.022327,4.9948926,6.629262399999999
582,1778516204890,0.8257189,-0.8566963,0.7332745,-9.022327,4.9948926,6.6292624
583,1778516204900,1.1672226,-0.7227657333333334,1.0889456666666668,-9.178352,4.605415066666667,6.624528266666666
584,1778516204910,1.85023,-0.4549046,1.800288,-9.44619075,3.5612299,6.544275875
585,1778516204920,1.85023,-0.4549046,1.800288,-9.313557,2.7655396,6.331923499999999
586,1778516204930,1.85023,-0.4549046,1.800288,-9.313557,2.7655396,6.3319235
587,1778516204940,1.85023,-0.4549046,1.800288,-9.313557,2.7655396,6.331923499999999
588,1778516204950,1.9776764,-0.21263437,2.1465886,-9.313557,2.7655396,6.3319235
589,1778516204960,1.9776764,-0.21263437,2.1465886,-8.589224,1.6781995,5.809176
590,1778516204970,1.7359549,-0.061893854,2.1903718,-8.589224,1.6781995,5.809176
591,1778516204980,1.7359549,-0.061893854,2.1903718,-7.889783,1.1646146,5.552307
592,1778516204990,1.5652133,-0.04329521,2.168297,-7.547240300000001,1.4034629,5.6016345
593,1778516205000,1.4283353666666667,-0.0237818763333333,2.1171966,-7.547240300000001,1.4034629,5.6016345
594,1778516205010,1.2558659,-0.022806209,1.9193194,-6.6846986,1.9578232,5.79818
595,1778516205020,1.2558659,-0.022806209,1.9193194,-6.4599,1.8364136,5.797722
596,1778516205030,1.5555176,0.10310052775,1.927414375,-5.6142717,1.2452869249999998,5.666462475
597,1778516205040,1.4939896,0.46136835,1.3981913,-3.8482983,0.08277224,4.949383
598,1778516205050,1.4939896,0.46136835,1.3981913,-3.8482983,0.08277224,4.949383
599,1778516205060,1.4939896,0.46136835,1.3981913,-3.8482983,0.08277224,4.949383
600,1778516205070,1.4939896,0.46136835,1.3981913,-3.8482983,0.08277224,4.949383
601,1778516205080,1.3359317,0.5253965,0.72540814,-3.952641825,-0.1686369925,4.9233829
602,1778516205090,1.3797146333333332,0.5373891000000001,0.4831582733333333,-3.987423,-0.25244007,4.9147162
603,1778516205100,1.4016061,0.5433854,0.36203334,-4.797125,-0.21197024,4.9643493
604,1778516205110,1.4016060999999995,0.5433854,0.36203334,-4.797125,-0.21197024,4.9643493
605,1778516205120,1.36215265,0.51713385,0.34401397,-6.1412192,0.1678352275,4.9966488
606,1778516205130,1.3226992,0.4908823,0.3259946,-6.5892506,0.29443705,5.0074153
607,1778516205140,1.3226992,0.4908823,0.3259946,-6.5892506,0.29443705,5.0074153
608,1778516205150,1.368067675,0.505974625,1.456731425,-7.72477265,1.0498101625,4.816596325
609,1778516205160,1.3831905000000002,0.5110054,1.8336437000000003,-8.10328,1.3016012,4.75299
610,1778516205170,1.3831905,0.5110054,1.8336437,-7.5513635,1.3683381,4.59615
611,1778516205180,1.4901073,0.5954005666666667,1.9318201333333331,-7.163769433333333,1.2743667,4.476369666666667
612,1778516205190,1.7039409,0.7641909,2.128173,-6.3885813,1.0864239,4.236809
613,1778516205200,1.7039409,0.7641909,2.128173,-6.388581300000001,1.0864239,4.236809
614,1778516205210,1.744248125,0.90282705,2.077346825,-5.5382951,0.80851837725,3.89094465
615,1778516205220,1.8011416666666669,1.7993325666666664,1.206005233333333,-2.4744115,-0.4344779303333332,2.628451333333333
616,1778516205230,2.2916274999999997,2.3422098,0.9808499,-2.24221905,-0.912594525,2.5956809
617,1778516205240,3.5326451999999997,3.102193,1.2707449,-2.0370828333333333,-0.9776389333333334,2.241468166666667
618,1778516205250,3.5326452,3.102193,1.2707449,-1.7121025,-1.0108292,1.6258179
619,1778516205260,3.5326452,3.102193,1.2707449,-1.7121025,-1.0108292,1.6258179
620,1778516205270,3.5188639000000004,3.153263075,1.252938975,-1.376279425,-0.676838675,0.960700155
621,1778516205280,3.3333448666666663,3.3514150333333332,1.1453513666666666,-1.2643384,-0.5655085,0.7389942399999999
622,1778516205290,3.0449946,3.4412985,1.0370117,-1.2643384,-0.5655085,0.73899424
623,1778516205300,3.0449946000000003,3.4412985,1.0370117,-1.1053606,-0.049632803,0.3052799
624,1778516205310,2.6913764,3.4854472,0.9699956,-0.90354608,0.517937375,0.20723603
625,1778516205320,2.6913764,3.4854472,0.9699956,-0.77579886,0.68279463,0.24465153
626,1778516205330,2.6913764,3.4854472,0.9699956,-0.77579886,0.68279463,0.2446515299999999
627,1778516205340,2.6913764,3.4854472,0.9699956,-0.77579886,0.68279463,0.24465153
628,1778516205350,2.5329934,3.5204492666666667,1.0795142,-0.77579886,0.68279463,0.2446515299999999
629,1778516205360,2.51118315,3.56093945,1.32782135,0.039820785,0.8287150575,0.255303495
630,1778516205370,2.5685644,3.5839286,1.5213692,0.311694,0.8773551999999999,0.25885415
631,1778516205380,2.6350623,3.45366195,0.6883937975,3.612351475,0.281265263,-0.37514761375
632,1778516205390,2.6512523,3.4173946,0.39270583,4.6734754,-0.3904446753333333,-0.7531459266666666
633,1778516205400,2.6562525,3.4357493000000003,0.2253180199999999,4.9049425,-0.6267477,-0.87689704
634,1778516205410,2.6612527,3.4541039999999996,0.05793021,4.9049425,-0.6267477,-0.8768970399999999
635,1778516205420,2.67602495,3.47401375,-0.115159155,4.9157853,-1.0425943,-1.0958922
636,1778516205430,2.7203417,3.533743,-0.63442725,4.3503532499999995,-1.3938418,-1.40957155
637,1778516205440,2.7203417,3.533743,-0.63442725,3.7849212,-1.7450893,-1.7232509
638,1778516205450,2.7203417,3.533743,-0.63442725,3.7849212,-1.7450893,-1.7232509
639,1778516205460,2.7203417,3.533743,-0.63442725,3.1845169,-1.8490891,-1.9550742
640,1778516205470,2.6957061,3.5174003,-0.7271156,2.5841126,-1.9530889,-2.1868975
641,1778516205480,2.6400016500000003,3.414315,-0.5693624749999999,2.5841126,-1.9530889,-2.1868975
642,1778516205490,2.5842972,3.3112297,-0.41160935,2.0736838333333334,-1.9751818333333333,-2.3936754
643,1778516205500,2.5842972,3.3112297,-0.41160935,1.0528263,-2.0193677,-2.8072312
644,1778516205510,2.152016,2.7079017,0.5670453,-0.2247220275,-1.97698895,-3.57073645
645,1778516205520,2.4049573,3.0823750000000003,-0.029818814,-0.65057147,-1.9628627,-3.8252382
646,1778516205530,2.4049573,3.082375,-0.029818814,-0.386219545,-1.9911152,-3.62151465
647,1778516205540,2.2360044,2.8433569999999997,0.3620942906666666,-0.7846563999999999,-1.7664696,-4.2077928
648,1778516205550,1.8980986,2.365321,1.1459205,-0.7846564,-1.7664696,-4.2077928
649,1778516205560,1.615399133333333,1.9325720666666664,1.682415233333333,0.0937677999999999,-1.3982196,-4.591110266666667
650,1778516205570,1.4740494,1.7161976,1.9506626,0.5329799,-1.2140946,-4.782769
651,1778516205580,1.2976366,1.4579508,2.1235995,1.3457361666666667,-1.0847948,-4.889059933333333
652,1778516205590,1.2976366,1.4579508,2.1235995,1.7521143,-1.0201449,-4.9422054
653,1778516205600,1.2976366,1.4579508,2.1235995,1.7521143,-1.0201449,-4.9422054
654,1778516205610,1.2247462,1.2947706,2.1527069,2.2843815666666667,-0.9522370733333334,-4.967047133333334
655,1778516205620,1.1838496,0.8687092,2.0679865,2.5505152,-0.91828316,-4.979468
656,1778516205630,1.1838496,0.8687092,2.0679865,3.0639982333333333,-0.89415399,-5.012861999999999
657,1778516205640,1.1850082,0.75592825,2.0092635,4.0909643,-0.84589565,-5.07965
658,1778516205650,,,,,,
659,1778516205660,,,,,,
660,1778516205670,1.22491905,0.0210987924999999,1.05487863,6.4796004,-1.6186402,-5.6479073
661,1778516205680,1.2240348,-0.03872177,0.91816336,6.4796004,-1.6186402,-5.6479073
662,1778516205690,1.2139936,-0.0494744299999999,0.8989549066666666,6.4796004,-1.6186402,-5.6479073
663,1778516205700,1.1939112,-0.07097975,0.860538,6.4796004,-1.6186402,-5.6479073
664,1778516205710,1.1939112,-0.07097975,0.860538,6.0965877,-1.7276796,-5.712964500000001
665,1778516205720,1.2094608,-0.0668331675,0.8915154000000001,5.84972185,-1.82587625,-5.74900555
666,1778516205730,1.2950552,-0.0399616816666666,1.0094897333333333,5.602856,-1.9240729,-5.7850466
667,1778516205740,1.3989841,-0.017257104,1.2159246,4.848132,-2.307696,-6.0067905999999995
668,1778516205750,1.3989841,-0.017257104,1.2159246,4.848132,-2.307696,-6.0067906
669,1778516205760,1.4279289000000002,-0.0027440623999999,1.4330510666666667,4.762407333333333,-2.350049333333333,-6.076225733333334
670,1778516205770,1.4648416,0.007256521,1.6461326,4.785747499999999,-2.39379005,-6.200167875
671,1778516205780,1.5306381,-0.037563168,1.6930255999999997,4.884224,-2.3763168,-6.272975266666667
672,1778516205790,1.5334838,-0.0551861486666666,1.6619871999999998,5.165323666666667,-2.2732840666666667,-6.456540133333334
673,1778516205800,1.5086856000000002,-0.1703758,1.41020415,5.3234615,-2.079728875,-6.66675415
674,1778516205810,1.4774643,-0.20507295,1.299466,5.331479,-2.0393736,-6.695083
675,1778516205820,1.4774643,-0.20507295,1.299466,5.331479,-2.0393736,-6.695083
676,1778516205830,1.4275426666666666,-0.22322441,1.2313726333333337,5.301699433333333,-1.950747233333333,-6.706791333333334
677,1778516205840,1.31158565,-0.2771808025,1.045777525,5.2421403,-1.7734945,-6.730208
678,1778516205850,1.2632444,-0.33014122,0.8975524,5.0026301,-1.5677857,-6.623459066666666
679,1778516205860,1.1687268,-0.3795953,0.62686586,4.8146873,-1.4419475,-6.547712
680,1778516205870,1.137383466666667,-0.4008363833333333,0.5431008,4.8146873,-1.4419475000000002,-6.547712
681,1778516205880,1.0746968,-0.44331855,0.37557068,4.696561225,-1.3944909,-6.5125109
682,1778516205890,1.0746968,-0.44331855,0.37557068,4.342183,-1.2521211,-6.4069076
683,1778516205900,0.89377165,-0.5699113,0.14275223,4.115628325,-1.182711525,-6.332152875
684,1778516205910,0.89377165,-0.5699113,0.14275223,3.4359643,-0.9744828,-6.1078887
685,1778516205920,0.8785573375,-0.59082715,0.1302210125,3.0949869249999997,-0.8576547750000001,-5.99335155
686,1778516205930,0.8329144,-0.6535747,0.09262736,2.9813278,-0.8187121,-5.9551725
687,1778516205940,0.7997011,-0.7436409333333334,0.0549422333333333,2.447838866666667,-0.4555527333333333,-5.7901368333333325
688,1778516205950,0.7332745,-0.9237734,-0.02042802,2.1810944,-0.27397305,-5.707619
689,1778516205960,0.6041205666666667,-1.1066296666666666,-0.12596264,2.1810944,-0.27397305,-5.707619
690,1778516205970,0.1530119549999999,-1.454810575,-0.30122185,1.349439575,0.102396285,-4.842977749999999
691,1778516205980,-0.5576544800000001,-1.7956841,-0.562776745,0.9735665,-0.150731015,-4.0789
692,1778516205990,-0.7920584,-1.8779145,-0.67906404,0.8749116999999998,-0.52931476,-3.603036
693,1778516206000,-0.75786435,-1.990847775,-0.677630995,-0.3431153624999999,-1.5191455,-1.999171
694,1778516206010,-0.7002848,-2.0363383,-0.43862313,-0.8559749,-1.5334245,-1.5601498000000005
695,1778516206020,-0.659794625,-2.0629709750000003,-0.37816229,-1.8883371,-0.21212296,-0.8695667
696,1778516206030,-0.42941532,-2.2133,-0.012500729,-2.144137,0.34254268,-0.71944654
697,1778516206040,-0.42941532,-2.2133,-0.012500729,-2.144137,0.34254268,-0.71944654
698,1778516206050,-0.4270371333333333,-2.2502736999999997,0.0985829973333333,-2.144137,0.34254268,-0.71944654
699,1778516206060,-0.42228076,-2.3242211,0.32075045,-2.182087,0.74907351,-0.622242605
700,1778516206070,-0.5760092,-2.402884,0.35495973,-2.295937,1.968666,-0.3306308
701,1778516206080,-0.6875096225,-2.406176875,0.2997583425,-1.271592375,2.4524713,0.2753475174999999
702,1778516206090,-0.7850610124999999,-2.307421175,-0.0176839575,-0.3309744304999999,2.064151825,1.282626135
703,1778516206100,-0.758215,-2.0836582,-0.28995594,-0.069027774,1.9336939,1.5830573
704,1778516206110,-0.758215,-2.0836582,-0.28995594,-0.008323041,1.38185355,2.45308205
705,1778516206120,-0.7564059333333333,-2.0591242333333333,-0.3043267,-0.16126843,1.0497719,3.0790662999999996
706,1778516206130,-0.81606895,-1.950159525,-0.30456046,-0.3093268975,1.0640890500000002,3.230637225
707,1778516206140,-1.0087377333333334,-1.7543706666666663,-0.1982432833333333,-1.1667017,1.2562443666666667,4.085008666666667
708,1778516206150,-0.7426347950000001,-1.527939725,-0.1280257625,-1.9931005,1.5546521,4.884326
709,1778516206160,-0.2888786499999999,-1.2969455666666667,-0.0743742575333333,-4.168951666666667,2.1141536666666667,6.523989833333334
710,1778516206170,0.19848719,-1.0832338,-0.0045124586,-6.2054744,1.7142406,7.0112057
711,1778516206180,0.19848719,-1.0832338,-0.0045124586,-6.2054744,1.7142406,7.0112057000000005
712,1778516206190,0.5055020674999999,-0.915663175,0.13881906535,-6.2054744,1.7142406,7.0112057
713,1778516206200,0.60784036,-0.8598063000000001,0.18659624,-6.465703033333334,1.6018414,6.9959850333333335
714,1778516206210,1.175724115,-0.677234625,0.7503181475,-8.371831575,1.21691995,6.852380925
715,1778516206220,1.3247115,-0.638085985,1.130492775,-8.833722,1.1635456,6.81466
716,1778516206230,1.1618970333333334,-0.5914369333333334,1.473399,-9.413026,1.7042122333333332,6.789003666666667
717,1778516206240,1.2222817,-0.53643374,1.5290374249999998,-9.573174,1.9770653,7.011053
718,1778516206250,1.7238404333333337,-0.4226262999999999,1.6583488,-9.523745333333332,1.7492126,7.0001592
719,1778516206260,1.92212435,-0.3756469225,1.7190027250000002,-9.394344,1.4747814,6.840927
720,1778516206270,2.137076,-0.29044378,1.8018733,-9.20859,1.3574952666666666,6.597955466666666
721,1778516206280,2.0721788,-0.1719917425,1.8234601,-7.7897535,0.660803475,5.1193944
722,1778516206290,1.989003175,-0.1126437659999999,1.800760625,-7.104668,0.3481932,4.5277333
723,1778516206300,1.8043735,-0.053051874,1.7110753999999997,-7.104668,0.3481932,4.5277333
724,1778516206310,1.571219725,0.0020123122499999,1.54743785,-6.658583800000001,0.0198531299999999,4.29094665
725,1778516206320,1.4935018,0.020367041,1.492892,-6.2124996,-0.30848694,4.05416
726,1778516206330,0.8494550925,-0.00669246375,1.1384963250000002,-5.295972475,-1.4971544,4.421557
727,1778516206340,1.0263404,0.03079448,0.93072504,-5.3398786,-1.2956452,5.008637
728,1778516206350,1.548200125,0.082413343,0.757193595,-5.975254825,-0.463226775,4.8422141750000005
729,1778516206360,1.8754956333333332,0.1755793466666666,0.78098053,-6.996697999999999,0.50854534,3.4483342
730,1778516206370,1.7780306,0.32434819,1.188148585,-6.7605222000000005,0.2822961125,2.8648816000000004
731,1778516206380,1.2857457,0.6642460566666667,1.6619669333333336,-5.551594233333333,-1.1800898666666668,2.4296146666666663
732,1778516206390,1.8073007,1.1074426,1.6708902,-4.656778233333333,-2.4736988666666666,2.9654453333333333
733,1778516206400,1.979719275,1.1690011,1.638510275,-4.341877350000001,-2.9717830999999997,3.209486
734,1778516206410,2.64553545,1.4097012,1.5345713,-4.3003387,-3.057686,3.2733214
735,1778516206420,3.0912168,1.577775,1.5141737,-4.3003387,-3.057686,3.2733214
736,1778516206430,3.143125425,1.6550661,1.686958175,-4.955987925,-2.3926827499999996,2.90588595
737,1778516206440,3.13396335,1.7075386,1.892519,-5.179335525,-2.098932875,2.7806585750000004
738,1778516206450,3.107498399999999,1.7342474,2.040485,-6.024048,-0.8193230000000001,2.2180517
739,1778516206460,3.1074984,1.7342474,2.040485,-6.024048,-0.819323,2.2180517
740,1778516206470,3.0640202666666667,1.863401366666667,2.3214159999999997,-5.506186899999999,-0.7992153533333334,2.1096740333333335
741,1778516206480,3.0294451,2.2744621,3.093717,-4.4704647,-0.75900006,1.8929187
742,1778516206490,3.167237666666667,2.5143337666666667,3.4219069,-4.4704647,-0.75900006,1.8929187
743,1778516206500,3.30516235,2.7031454750000004,3.636020225,-2.22633655,-1.12338119,1.2184852925
744,1778516206510,2.983812333333333,2.6154371333333333,3.2395589333333334,1.7296649000000002,-1.3435981,-0.12858713
745,1778516206520,2.8724847,2.549722,3.073411,1.7296649,-1.3435981,-0.12858713
746,1778516206530,2.74714205,2.51475035,2.2008297,1.46722195,-0.8032114499999999,-1.35138664
747,1778516206540,2.7024747999999996,2.517281,1.6733904,0.2932662033333333,-0.0918843133333333,-2.5924612
748,1778516206550,2.1171357,2.0944922,2.2405169,-0.0538579533333333,1.08616932,-3.5583409666666665
749,1778516206560,1.6730549,1.610124475,2.69692555,1.37108701,1.6934711999999998,-4.2160393
750,1778516206570,1.5284429,1.3065397,2.798395,2.4695754,1.8274034,-4.4539714
751,1778516206580,1.4844768333333331,0.9381441166666667,2.600050066666667,3.3544137999999997,1.8554014,-4.545906466666667
752,1778516206590,1.5236255000000003,0.73662835,2.4526432,5.1051536,1.7421877,-4.6777005
753,1778516206600,1.5236255,0.73662835,2.4526432,5.1051536,1.7421877,-4.6777005
754,1778516206610,1.5236255,0.73662835,2.4526432,5.1051536,1.7421877,-4.6777005
755,1778516206620,1.7498987666666668,0.4519369366666666,2.0194472,6.289010533333333,1.3556117666666667,-4.941288833333333
756,1778516206630,2.01057465,0.1529052575,1.482799975,6.880939,1.1623238,-5.073083
757,1778516206640,2.0597544,0.1006766,1.3761169000000002,7.2732673,0.7144068999999998,-5.6401186
758,1778516206650,2.067788375,0.0812547365,1.33849275,7.228979,0.6203337,-5.829029
759,1778516206660,2.0918903,0.022989146,1.2256203,7.228979,0.6203337,-5.829029000000001
760,1778516206670,2.017480475,-0.082611529,1.141011675,7.14991025,0.587881475,-5.9326852500000005
761,1778516206680,1.9926772,-0.117811754,1.1128088,6.912704000000001,0.4905248,-6.243654
762,1778516206690,1.9645658,-0.279452285,1.170708575,6.829473625,0.4903339,-6.288972425
763,1778516206700,1.9490162,-0.4177073,1.2666593,6.158438,0.5308419,-6.556722
764,1778516206710,1.940601,-0.46911272,1.3331876,6.0655866,0.52106804,-6.6017733000000005
765,1778516206720,1.940601,-0.46911272,1.3331876,6.0655866,0.52106804,-6.6017733
766,1778516206730,2.011276,-0.66229475,1.4157534,6.0655866,0.52106804,-6.6017733000000005
767,1778516206740,2.011276,-0.66229475,1.4157534,6.0871194,0.4864778,-6.6726720749999995
768,1778516206750,2.011276,-0.66229475,1.4157534,6.094297,0.47494772,-6.696305
769,1778516206760,2.1442258,-0.6915189875000001,1.384059525,6.097046,0.310625,-6.8445926
770,1778516206770,2.296612625,-0.792134625,1.4426757,6.0546673,0.2381611,-6.9917348
771,1778516206780,2.2437894,-0.9088335,1.5902756,5.7769527,-0.20845777,-7.841829999999999
772,1778516206790,,,,,,
773,1778516206800,,,,,,
774,1778516206810,2.2437894,-0.9088335,1.5902756,5.7769527,-0.20845777,-7.84183
775,1778516206820,1.7352233,-1.2102536,1.69455,5.706703,-0.4082107,-8.113512
776,1778516206830,1.6155821,-1.2300514666666666,1.6748741333333337,5.6143095999999995,-0.2571742666666666,-7.9070907
777,1778516206840,1.49206875,-1.23656605,1.6584809,5.602703,-0.14752395,-7.6833105
778,1778516206850,1.4207332666666668,-1.2185467,1.6543647666666663,5.602703000000001,-0.14752395,-7.6833105
779,1778516206860,1.38912065,-1.193941625,1.646620425,5.719073,-0.1777617825,-7.548270975
780,1778516206870,1.3401392,-1.2079364,1.6087524,6.24457,-0.52824575,-7.4356046
781,1778516206880,1.114684,-1.43744675,1.557987275,7.65532475,-1.562593325,-7.522652750000001
782,1778516206890,0.8433418666666667,-1.8406561666666663,1.270765266666667,8.134739333333334,-1.904474233333333,-7.622070866666667
783,1778516206900,0.7183346,-1.9538335,1.1992164,8.294786,-1.9740111,-7.6825466
784,1778516206910,0.7183346,-1.9538335,1.1992164,8.294786,-1.9740111,-7.682546599999999
785,1778516206920,0.579881395,-2.025453575,1.10828119,8.294786,-1.9740111,-7.6825466
786,1778516206930,0.16452178,-2.2403138,0.83547556,8.373384333333334,-1.8524489,-7.5805322
787,1778516206940,-0.253078805,-2.327803475,0.531250495,7.878558275,-1.47355965,-6.86520905
788,1778516206950,-0.7523812666666667,-2.361885566666667,0.1379145466666666,7.2053084,-1.2116512,-6.085134
789,1778516206960,-0.9324324,-2.364345,-0.00804925,7.2053084,-1.2116512,-6.085134
790,1778516206970,-1.020791225,-2.34847525,-0.0991673775,5.8001657,-1.0374019,-4.6784644
791,1778516206980,-1.2858677,-2.300866,-0.37252176,5.8001657,-1.0374019,-4.6784644
792,1778516206990,-1.1592953,-2.2274673,-0.5504792533333333,3.9671116,-0.65057147,-3.2675183000000003
793,1778516207000,-1.1186019,-2.2164097,-0.5605205,2.760691,-0.14374422425,-2.515352075
794,1778516207010,-0.180254426,-2.4103845333333336,-0.0796997813333333,-4.180150833333333,5.075424866666666,-0.092138842
795,1778516207020,-0.439934225,-2.45486885,0.069607718,-4.328362325,5.24446905,0.2153681842499999
796,1778516207030,-0.5266771,-2.4539847,0.12134854,-4.334242,5.2445836,0.3042109
797,1778516207040,-0.6278415500000001,-2.40794535,0.17802868,-4.334242,5.2445836,0.3042109
798,1778516207050,-0.729006,-2.361906,0.23470882,-4.334242,5.2445836,0.3042109
799,1778516207060,-0.685100975,-2.243804625,0.158027516,-3.815273675,4.521090075,1.095357775
800,1778516207070,-0.5335677,-1.7923301500000002,-0.1176593029999999,-2.4803801,2.24477715,3.93687385
801,1778516207080,-0.4561038466666667,-1.5398256666666663,-0.2275742566666666,-2.994156,2.0738876,4.7499356
802,1778516207090,-0.42728102,-1.4621586,-0.25971028,-2.994156,2.0738876,4.7499356
803,1778516207100,-0.3732941333333333,-1.3978662,-0.2684099666666666,-2.994156,2.0738876,4.7499356
804,1778516207110,-0.165893835,-1.193636625,-0.25310928,-4.601648075,2.149176625,5.73678825
805,1778516207120,0.20982932,-0.9736544,-0.07817529,-6.5668015,2.5590672,6.615976
806,1778516207130,0.39560236,-0.8374879,0.066314845,-6.5668015,2.5590672,6.615976
807,1778516207140,0.5813754,-0.7013214,0.21080498,-7.540317166666667,2.784781933333333,7.018434399999999
808,1778516207150,1.393480625,-0.3560573575,0.6718685125,-9.04554,2.94375955,7.3498543
809,1778516207160,1.8935249999999997,-0.15799703,0.95164096,-10.064005,2.9898798,7.480045
810,1778516207170,1.9932869,-0.1040304635,1.04835383,-10.2977755,3.0025934999999997,7.149948625
811,1778516207180,2.0229431666666664,-0.050633037,1.2888962666666668,-10.63608,3.2084169999999994,6.0422210000000005
812,1778516207190,1.8827319,-0.051771317,1.5765554,-10.303769,3.206279,5.532301
813,1778516207200,1.7685178666666663,-0.078459868,1.6683697000000002,-10.303769,3.206279,5.532301
814,1778516207210,1.5400897999999998,-0.13183697,1.8519983,-10.303769,3.206279,5.532301
815,1778516207220,1.2814163,-0.122629106,2.098781,-10.05476525,3.049401125,5.4673584
816,1778516207230,1.2814163,-0.122629106,2.098781,-9.307754,2.5787675,5.2725306
817,1778516207240,1.2356209,0.010854292,2.239704,-8.894249,2.226960066666667,5.251506733333333
818,1778516207250,1.2075704,0.12836114,2.1006713,-7.3739835,0.95012453,5.2279374999999995
819,1778516207260,1.2126723333333334,0.1600499866666666,1.928100266666667,-6.2151977333333335,-0.02779436,5.281388
820,1778516207270,1.2228762,0.22342768,1.5829582,-5.2841372,-0.8371908,5.351332
821,1778516207280,1.3734540333333332,0.32629953,1.2102128333333333,-4.964807133333333,-0.7301876133333334,5.3321407333333335
822,1778516207290,1.4257538749999998,0.37262844,1.1657997,-5.15341185,-0.334525102,5.2082368
823,1778516207300,1.5238085,0.4228905,1.1703732,-5.315444,-0.048716504,5.106375
824,1778516207310,1.5370613000000002,0.4186626333333333,1.2090339333333333,-5.315444,-0.048716504,5.106375
825,1778516207320,1.5436877,0.4165487,1.2283643,-5.504430275000001,0.3741549489999999,4.9102875
826,1778516207330,1.5436877000000002,0.4165487,1.2283643,-5.5674257,0.5151121,4.844925
827,1778516207340,1.3005027,0.41465837,1.3004417,-5.736711725,1.05309355,4.606916475
828,1778516207350,1.2770054666666666,0.4932198333333333,1.3258497666666669,-5.641035,1.4315627,4.288732
829,1778516207360,1.3853858,0.5575325,1.2855629,-5.641035,1.4315627,4.288732
830,1778516207370,1.3853858,0.5575325,1.2855629,-5.549659833333333,1.371901533333333,4.204890866666667
831,1778516207380,1.3853858,0.5575325,1.2855629,-5.3669095,1.2525792,4.0372086
832,1778516207390,1.3853858,0.5575325,1.2855629,-5.366909500000001,1.2525792,4.0372086
833,1778516207400,1.30100585,0.654900975,1.29753005,-5.0183726250000005,1.0231229425,3.7664425
834,1778516207410,1.045213475,1.0402131,1.357807925,-3.972762,0.33475417,2.9541442
835,1778516207420,1.0443293,1.071282,1.3659334,-3.5248961333333333,0.3211115033333333,3.1167363333333333
836,1778516207430,1.125355375,1.136057125,1.343294875,-3.2195272,0.3247512375,3.219947175
837,1778516207440,1.3684336,1.3303825,1.2753793,-2.8086821000000004,0.399200435,3.25461375
838,1778516207450,1.3684336,1.3303825,1.2753793,-2.642145,0.4422664299999999,3.2235360000000006
839,1778516207460,1.8995314999999997,1.6656307,0.947723,-2.6678013,0.4502840449999999,3.0441706
840,1778516207470,2.18625555,1.9236488,0.592565075,-2.6934576,0.45830166,2.8648052
841,1778516207480,2.1594553,1.9884087,0.4487457000000001,-3.079829866666667,0.5576690866666667,2.539315866666666
842,1778516207490,2.1594553,1.9884087,0.4487457,-3.43798775,0.667141235,2.3384302999999997
843,1778516207500,1.9533455,2.054754,0.54259264,-3.932903,0.84650654,2.2240076
844,1778516207510,1.9533455,2.054754,0.54259264,-3.932903,0.84650654,2.2240076
845,1778516207520,1.888814525,2.143113,0.892003285,-4.4220533,1.2044735,2.3371704
846,1778516207530,2.3673332,2.613872,2.0243254,-1.0987939,0.5662721,2.2409592
847,1778516207540,3.27767605,3.2070163750000003,2.2601625,1.0986412,-0.0664316,1.4643967
848,1778516207550,3.255251,3.2043943,2.195921,1.0986412,-0.0664316,1.4643967
849,1778516207560,3.0803015,3.0348113,1.4761837,4.2966733,-1.5438092,0.18035796
850,1778516207570,3.0803014999999996,3.0348113,1.4761837,4.2966733,-1.5438092,0.18035796
851,1778516207580,3.0803015,3.0348113,1.4761837,5.109124,-1.9124664,-0.20845777
852,1778516207590,2.9577182,3.02107575,1.04964965,5.056055125,-2.1597904,-0.8192466425
853,1778516207600,2.7841868,3.0086513,0.3902056999999999,4.8359146,-2.260354,-1.1760683
854,1778516207610,2.7841868,3.0086513,0.3902057,3.5277467,-2.097864,-1.690875
855,1778516207620,2.6483252,3.0337136,0.036282603,3.5277467,-2.097864,-1.690875
856,1778516207630,,,,,,
857,1778516207640,2.6483252,3.0337136,0.036282603,3.5277467,-2.097864,-1.690875
858,1778516207650,2.6483252,3.0337136,0.036282603,3.5277467,-2.097864,-1.690875
859,1778516207660,2.61971075,3.0081786,0.0201536134999999,2.8670196,-1.9038761,-1.924187325
860,1778516207670,2.4485576,2.865756733333334,0.0900459066666666,0.3178535333333333,-1.0488047333333332,-2.862463533333333
861,1778516207680,2.277938,2.734123,0.32660443,-0.816116,-0.5025894,-3.3391420000000003
862,1778516207690,2.1678501999999997,2.6506222,0.5448691866666667,-0.816116,-0.5025894,-3.3391420000000003
863,1778516207700,1.9476746,2.4836206,0.9813987,-1.1328496,-0.2864958099999999,-3.52446335
864,1778516207710,1.9476746,2.4836206,0.9813987,-1.4495832,-0.07040222,-3.7097847
865,1778516207720,1.9476746,2.4836206,0.9813987,-1.43030275,-0.06311001625,-3.762242775
866,1778516207730,1.735141933333333,2.2282398666666663,1.808825033333333,-0.58093286,-0.31413746,-4.178013
867,1778516207740,1.61764005,2.0528331,2.242082,0.5021312,-0.62018096,-4.3579125
868,1778516207750,1.5359228666666669,1.8395179,2.3821307333333333,1.0286461333333332,-0.6868670733333334,-4.426838533333334
869,1778516207760,1.5075879,1.7521145,2.411482,2.081676,-0.8202393,-4.5646906
870,1778516207770,1.4927903,1.6437341,2.3669672666666663,2.686738,-0.8179995,-4.6375872
871,1778516207780,1.504661,0.9755447,1.5315528,5.3418636,-0.32436943,-5.2505393
872,1778516207790,1.5046609999999998,0.9755447,1.5315528,5.3418636,-0.32436943,-5.2505393
873,1778516207800,1.425449,0.671594075,1.180998825,5.65191615,-0.332157985,-5.542609325
874,1778516207810,1.3483104,0.4514084666666667,0.9480431666666668,5.6679129999999995,-0.5069163433333334,-5.7366864
875,1778516207820,1.2696168,0.32953142,0.8472750499999999,5.55700275,-0.6423247975,-5.796385775
876,1778516207830,1.2162905,0.26708874,0.8045591,5.355303,-0.7903069,-5.8304033
877,1778516207840,1.3158288,0.0139235763333333,1.2998929233333334,4.5631634666666665,-1.2057462,-5.840584333333333
878,1778516207850,1.3754461,-0.10122542,1.71583175,4.475962375,-1.291292725,-5.8738129
879,1778516207860,1.396057,-0.15775311,1.8946836,4.959004066666666,-1.0627528,-5.9047254
880,1778516207870,1.396057,-0.15775311,1.8946836,5.2790976,-0.968985,-5.902791
881,1778516207880,1.396057,-0.15775311,1.8946836,5.2790976,-0.968985,-5.902791
882,1778516207890,1.3872353333333332,-0.18051867,1.9257424,5.2790976,-0.968985,-5.902791
883,1778516207900,1.449093675,-0.2085030225,1.922520675,5.3797377,-0.96104375,-5.9014165
884,1778516207910,1.4711834,-0.21403688,1.9162703,5.8699571,-1.0344494,-5.942191666666667
885,1778516207920,1.87193845,-0.189858645,1.6372297,6.42530985,-1.6910276999999998,-6.4338618
886,1778516207930,1.7547365,-0.31886008,1.4954531,6.4800587,-1.977218,-6.7286806
887,1778516207940,1.43601365,-0.399444055,1.492526075,6.0298127,-2.108592275,-6.9955906500000005
888,1778516207950,1.3297727,-0.42630538,1.4915504000000002,5.9255457,-2.0850358,-6.982648
889,1778516207960,1.2070826,-0.44587969,1.4817633,5.9255457,-2.0850358,-6.982648
890,1778516207970,0.9878421466666666,-0.47468218,1.4358765333333334,5.87744,-2.0334177,-6.757238400000001
891,1778516207980,0.8762096349999999,-0.523719585,1.29791115,5.87744,-2.0334177,-6.7572384
892,1778516207990,0.8128523,-0.5681429,1.1779956,5.813401066666667,-1.9966639666666663,-6.325255066666666
893,1778516208000,0.537058775,-1.0190686625,0.5028494649999999,5.470565475,-1.9863047,-5.4959165
894,1778516208010,0.32256454825,-1.300792375,0.1504661,4.6644144999999995,-2.19052455,-5.186322325
895,1778516208020,0.014391083,-1.6910131999999998,-0.2361723,3.5960109999999994,-2.3402247,-5.1068335
896,1778516208030,-0.21528695425,-1.9013915,-0.25336845,3.596011,-2.3402247,-5.1068335
897,1778516208040,-0.5856439,-2.176123,-0.1248243666666666,2.0121902666666664,-1.9467257666666664,-4.808069466666667
898,1778516208050,-1.1732391,-2.5853338,0.1437279,-0.10919216,-0.25870144,-3.72414
899,1778516208060,-1.3476397,-2.7125974,0.26391783,-0.27142779,0.0149152899999999,-3.5020905
900,1778516208070,-1.36044535,-2.7808940499999997,0.330141215,-0.8275696749999999,1.178588125,-2.3406829
901,1778516208080,-1.373251,-2.8491907,0.3963646,-1.0592403,1.7950275,-1.6233743
902,1778516208090,-1.244142775,-2.86876495,0.4319002,-0.9771171225,2.210454075,-0.8527678625
903,1778516208100,-1.0105468,-2.8360800000000004,0.3423370699999999,-0.94974273,2.3489296,-0.59589905
904,1778516208110,-1.0105468,-2.83608,0.34233707,-0.8620072125,2.42196615,-0.3877467175
905,1778516208120,-0.883832065,-2.7616855,0.179217785,-0.47403143,2.70032975,0.51121784
906,1778516208130,-0.7571173300000001,-2.687291,0.0160985,-0.3492622,2.7595837,0.7857254
907,1778516208140,-0.5782045,-2.303244175,-0.3343945075,-0.23125067,2.7396543,2.1668153500000003
908,1778516208150,-0.5618011,-2.2487898,-0.37191194,-0.4008803,2.5575402,2.5949554
909,1778516208160,-0.5618011,-2.2487898,-0.37191194,-0.4008803,2.5575402,2.5949554
910,1778516208170,-0.5429890125000001,-2.152381725,-0.4015173225,-0.6631324000000001,2.4680484,2.85170975
911,1778516208180,-0.48655275,-1.8631575,-0.49033347,-1.4498887,2.199573,3.6219728
912,1778516208190,-0.40328572,-1.729140475,-0.500730425,-2.02612555,2.330718225,3.9614612
913,1778516208200,-0.30861557,-1.5825924,-0.48935783,-2.2182045,2.3744333,4.074624
914,1778516208210,-0.30861557,-1.5825924,-0.48935783,-3.6650388,2.7792842,4.6630397
915,1778516208220,-0.1944219099999999,-1.4803506000000002,-0.3630496233333333,-5.477170533333333,2.9658016000000003,5.3045499000000005
916,1778516208230,-0.03524596,-1.3984352,-0.12701961,-7.174765,2.9568932,5.958074
917,1778516208240,-0.03524596,-1.3984352,-0.12701961,-7.174765,2.9568932,5.958074
918,1778516208250,0.138468455,-1.356374825,0.0227604674999999,-7.79093725,2.75950735,6.3094361249999995
919,1778516208260,0.9310706,-1.1650273333333334,0.6099949333333333,-9.847046333333331,2.0587685333333337,7.427205233333333
920,1778516208270,1.7563525,-0.894991275,1.1363162999999998,-10.470383,1.65720105,7.437819
921,1778516208280,2.104025233333333,-0.67510035,1.5483220666666666,-10.678535000000002,1.4727961,7.3210673
922,1778516208290,2.2083807666666666,-0.4951101833333333,1.9690784,-10.631601000000002,1.3575970333333334,6.6875491333333335
923,1778516208300,2.1558573,-0.45588025,2.1646996,-10.480921,1.4989105,6.4159180000000005
924,1778516208310,2.061888475,-0.4490200924999999,2.23092295,-10.3324805,1.585042525,6.3147815
925,1778516208320,1.2803795,-0.3141037,2.7983950000000006,-7.280597,0.89934635,5.78413
926,1778516208330,1.2803795,-0.3141037,2.798395,-7.280597,0.89934635,5.78413
927,1778516208340,1.2803795,-0.3141037,2.7983950000000006,-7.280597,0.89934635,5.78413
928,1778516208350,1.22138225,-0.2322391675,2.653417,-6.2318178500000005,0.332539765,5.82521075
929,1778516208360,1.248228275,-0.11124125,2.257189625,-5.1830387,-0.23426682,5.8662915
930,1778516208370,1.2637322,-0.08000467,2.1412225,-4.0876557,-0.9340130066666664,6.009335833333334
931,1778516208380,1.709657675,0.239587155,1.28746849,-2.31426295,-1.39903415,5.74870025
932,1778516208390,1.6955867666666666,0.5002934466666668,0.7158547733333332,-3.94003,-0.3915137433333333,5.096397933333333
933,1778516208400,1.4727689,0.4485018,0.869319,-6.392781025,1.0766881175,4.5658357
934,1778516208410,1.4850663333333334,0.4940328999999999,1.0949215666666667,-6.4050746,1.1588113,4.533078
935,1778516208420,1.5931722,0.7951074,1.790576975,-6.4050746,1.1588113,4.533078
936,1778516208430,1.6210092000000005,0.8651114999999999,1.8720604,-5.031951566666667,0.5672392866666667,4.172260666666666
937,1778516208440,1.7127066,1.0458994499999998,1.90576675,-4.70015,0.4353942,4.074166
938,1778516208450,1.7432723999999995,1.1061621,1.9170022,-4.2660284,0.3214169283333333,3.847433133333334
939,1778516208460,1.860077925,1.4703754249999998,1.440449925,-3.33990575,0.09456957625,3.3306665000000004
940,1778516208470,1.607654733333333,1.8776705333333332,0.9438559,-3.1987449333333333,0.3498730633333333,2.4414248666666665
941,1778516208480,1.4597802999999998,2.12542895,0.8246518199999999,-3.2149837,0.47586402,2.0917554
942,1778516208490,1.440084,2.2064703,0.88029534,-3.3429601000000004,0.44944412,2.051438
943,1778516208500,1.440084,2.2064703,0.88029534,-3.3429601,0.44944412,2.051438
944,1778516208510,1.5130150999999998,2.2604571666666664,0.9165982433333334,-3.2890512,0.3784819366666667,2.054696
945,1778516208520,2.1355667250000003,2.614741025,1.00998272,-3.0279064,0.12018774,1.9168952
946,1778516208530,2.5602105,2.8220549,1.0670135,-2.9908471666666667,0.1166243566666666,1.7311412333333334
947,1778516208540,2.6177747,2.897486,1.2636713,-2.8644998,0.16638442,1.14147805
948,1778516208550,2.5975499,2.8890505666666666,1.3658114,-2.696359166666667,0.3210606,0.7917831566666665
949,1778516208560,2.58629425,2.841049925,1.939122225,-1.73890425,0.674777035,0.4023311349999999
950,1778516208570,2.7286348,2.86321585,2.20607375,0.63377265,0.522518855,0.1814651649999999
951,1778516208580,2.838946,2.8958397,2.2850113,1.1827878,0.4190535499999999,0.14996742
952,1778516208590,3.0339727,2.9407356499999997,1.923801225,2.54730805,-0.1136972949999999,-0.11950051
953,1778516208600,3.2437258,2.9841986000000005,1.317028,3.9118283,-0.64644814,-0.38896844
954,1778516208610,3.2437258,2.9841986,1.317028,4.553007575,-1.06977781,-0.755373035
955,1778516208620,3.2425672,2.98432055,1.2348586,4.805485875,-1.266743675,-0.9523007
956,1778516208630,3.2390914,2.9846863999999997,0.9883504,4.9217415,-1.4343116,-1.1766791
957,1778516208640,3.2363473000000003,2.9932234500000003,0.693820985,4.6482265,-1.5167784,-1.4853188
958,1778516208650,3.2001054,2.9854993666666663,0.24720955,4.3747115,-1.5992451999999997,-1.7939584999999998
959,1778516208660,3.1833565,2.9773688,0.17116854,3.2453744,-1.4668401,-2.387414
960,1778516208670,3.000927133333333,2.873948166666666,0.23962781,2.0371847,-1.0601566,-2.9479846999999997
961,1778516208680,2.52235755,2.598261275,0.60582806,0.384806913,-0.4114941075,-3.891898775
962,1778516208690,1.9282832999999997,2.230374,1.2172662,0.0263690146666666,-0.2782491233333333,-4.398331466666666
963,1778516208700,1.8268292,2.09853705,1.38787065,0.586354295,-0.409317905,-4.635665325
964,1778516208710,1.5224669000000002,1.7030262,1.899684,2.2525147333333333,-0.61621032,-5.0902382
965,1778516208720,1.5224669,1.7030262,1.899684,2.845563,-0.5862779,-5.190522
966,1778516208730,1.4307543,1.4822205,1.9396253,2.845563,-0.5862779,-5.190522
967,1778516208740,,,,,,
968,1778516208750,,,,,,
969,1778516208760,1.3880078,1.1819592,1.9157825,4.1754165,-0.5009095,-5.3841662
970,1778516208770,1.3880078,1.1819592,1.9157825,4.1754165,-0.5009095,-5.3841662
971,1778516208780,1.372519,0.8848077,1.7157708,4.1754165,-0.5009095,-5.3841662
972,1778516208790,1.4279491333333334,0.5949127566666667,1.5120597666666669,5.453703233333333,-0.5985970566666666,-5.5894170999999995
973,1778516208800,1.51367065,0.2732933975,1.26449455,6.24105765,-0.91713785,-5.87866165
974,1778516208810,1.56317055,-0.00872002,1.015730075,6.3099327,-1.0173961,-5.965252
975,1778516208820,1.5441145999999997,-0.10262794,0.94359165,6.3099327,-1.0173961,-5.965252
976,1778516208830,1.5441146,-0.10262794,0.94359165,6.2062764,-1.235933125,-6.16145425
977,1778516208840,1.5441146,-0.10262794,0.94359165,5.983272299999999,-1.46286955,-6.296340799999999
978,1778516208850,1.4758585333333334,-0.1501103866666666,0.9318429833333334,5.7948203000000005,-1.6169603,-6.365826600000001
979,1778516208860,1.4417305,-0.17385161,0.92596865,5.7948203,-1.6169603,-6.3658266
980,1778516208870,1.4417305,-0.1738516099999999,0.92596865,5.7948203000000005,-1.6169603,-6.365826600000001
981,1778516208880,1.4588961,-0.169186705,0.9925121625,5.321285125,-1.79342405,-6.33879575
982,1778516208890,1.7097337999999995,-0.076528855,1.4818548,4.6276097,-1.9973767,-6.357427
983,1778516208900,1.7097338,-0.076528855,1.4818548,4.6282206,-1.9233092,-6.564205
984,1778516208910,1.8980376,-0.0849439799999999,1.7318083,4.6282206,-1.9233092,-6.564205
985,1778516208920,1.8980376,-0.08494398,1.7318083,4.6282206,-1.9233092,-6.564205
986,1778516208930,1.922109075,-0.1241383375,1.777329225,4.6542204499999995,-1.8997909,-6.611967075
987,1778516208940,1.9525529,-0.21458568,1.8198012,4.803895,-1.7563903000000003,-6.8715213
988,1778516208950,1.92907595,-0.290367535,1.7558493249999998,4.9342641,-1.611500675,-7.169381725
989,1778516208960,1.8586450999999995,-0.5177131,1.5639937,4.766123266666667,-1.5968017666666663,-7.445531
990,1778516208970,1.8586451,-0.5177131,1.5639937,4.507727,-1.5625933,-7.605883
991,1778516208980,1.4350024,-0.6849993066666666,1.4804116,3.7379352,-0.9606874,-7.6015053
992,1778516208990,1.135066215,-0.76745328,1.46115235,3.4637203999999997,-0.63865961,-7.403381375
993,1778516209000,0.93188363,-0.81815743,1.454841,3.084029525,0.0207312399999999,-6.56542715
994,1778516209010,0.8246416099999999,-0.83645121,1.4121556000000002,3.0744848,0.0720821,-6.444934
995,1778516209020,0.7710206,-0.8455981,1.3908129,3.0744848,0.0720821,-6.444934
996,1778516209030,0.5600733333333333,-0.9114759666666666,1.1022188,3.2048026666666662,0.30512718,-5.6857299999999995
997,1778516209040,0.5250154,-0.9492627125,1.004448875,3.3641112499999997,0.40908881,-5.1259992500000005
998,1778516209050,0.3980923166666666,-1.0982145,0.7163019833333334,3.6738964,0.3311398733333333,-4.533536600000001
999,1778516209060,0.17872995,-1.2640373,0.37124115,3.7285688,0.25060746,-4.4293838
