id,timestamp,acc_x,acc_y,acc_z,gyro_x,gyro_y,gyro_z
0,1778516150840,-0.38612008,0.110616215,0.9576168,4.3902884,1.1381947,2.1168008
1,1778516150850,-0.294864765,0.1179642075,0.8817282500000001,4.3902884,1.1381947,2.1168008
2,1778516150860,-0.20360945,0.1253122,0.8058397,4.552065866666666,0.8288932333333333,1.9692768
3,1778516150870,-0.1259219899999999,0.1392611825,0.758230225,4.6329546,0.6742425,1.8955148
4,1778516150880,0.10714039,0.18110813,0.6154018,4.6329546,0.6742425,1.8955148
5,1778516150890,0.10714039,0.18110813,0.6154018,4.6329546,0.6742425,1.8955148
6,1778516150900,0.10714039,0.18110813,0.6154018,4.6329546,0.6742425,1.8955148
7,1778516150910,0.10714039,0.18110813,0.6154018,4.6329546,0.6742425,1.8955148
8,1778516150920,0.10714039,0.18110813,0.6154018,4.6329546,0.6742425,1.8955148
9,1778516150930,0.10714039,0.18110813,0.6154018,4.6329546,0.6742425,1.8955148
10,1778516150940,0.10714039,0.18110813,0.6154018,4.6329546,0.6742425,1.8955148
11,1778516150950,0.3619113599999999,0.2167199599999999,0.37941238,4.4926085,0.9436341,1.5357152
12,1778516150960,0.36191136,0.21671996,0.37941238,4.4926085,0.9436341,1.5357152
13,1778516150970,0.3619113599999999,0.2167199599999999,0.37941238,4.4926085,0.9436341,1.5357152
14,1778516150980,0.36191136,0.21671996,0.37941238,4.4926085,0.9436341,1.5357152
15,1778516150990,0.36191136,0.21671996,0.37941238,4.4926085,0.9436341,1.5357152
16,1778516151000,0.3619113599999999,0.2167199599999999,0.37941238,4.4926085,0.9436341,1.5357152
17,1778516151010,0.36191136,0.21671996,0.37941238,4.4926085,0.9436341,1.5357152
18,1778516151020,0.36191136,0.21671996,0.37941238,4.4926085,0.9436341,1.5357152
19,1778516151030,0.3619113599999999,0.2167199599999999,0.37941238,4.4926085,0.9436341,1.5357152
20,1778516151040,0.38569323,0.21393017,0.208228615,3.662099,1.8007162499999998,0.896482925
21,1778516151050,0.39362052,0.21300024,0.15116736,3.3852625,2.0864103,0.6834055
22,1778516151060,0.39362052,0.21300024,0.15116736,3.3852625,2.0864103,0.6834055
23,1778516151070,0.39362052,0.21300024,0.15116736,3.3852625,2.0864103,0.6834055
24,1778516151080,0.39362052,0.21300024,0.15116736,3.3852625,2.0864103,0.6834055
25,1778516151090,0.20409729,0.15604569,-0.16427788,3.3852625,2.0864103,0.6834055
26,1778516151100,0.20409729,0.15604569,-0.16427788,3.3852625,2.0864103,0.6834055
27,1778516151110,0.20409729,0.15604569,-0.16427788,3.3852625,2.0864103,0.6834055
28,1778516151120,0.20409729,0.15604569,-0.16427788,3.3852625,2.0864103,0.6834055
29,1778516151130,0.20409729,0.15604569,-0.16427788,3.3852625,2.0864103,0.6834055
30,1778516151140,0.20409729,0.15604569,-0.16427788,3.3852625,2.0864103,0.6834055
31,1778516151150,0.20409729,0.15604569,-0.16427788,3.3852625,2.0864103,0.6834055
32,1778516151160,0.20409729,0.15604569,-0.16427788,3.3852625,2.0864103,0.6834055
33,1778516151170,0.20409729,0.15604569,-0.16427788,3.3852625,2.0864103,0.6834055
34,1778516151180,0.1246617566666666,0.1353737533333333,-0.2107236766666666,3.3852625,2.0864103,0.6834055
35,1778516151190,-0.03420931,0.09402988,-0.30361527,3.3852625,2.0864103,0.6834055
36,1778516151200,-0.03420931,0.09402988,-0.30361527,3.3852625,2.0864103,0.6834055
37,1778516151210,-0.03420931,0.09402988,-0.30361527,3.3852625,2.0864103,0.6834055
38,1778516151220,-0.03420931,0.09402988,-0.30361527,3.3852625,2.0864103,0.6834055
39,1778516151230,-0.03420931,0.09402988,-0.30361527,2.8510609,2.212554,0.5991061
40,1778516151240,-0.03420931,0.09402988,-0.30361527,2.8510609,2.212554,0.5991061
41,1778516151250,-0.03420931,0.09402988,-0.30361527,2.8510609,2.212554,0.5991061
42,1778516151260,-0.03420931,0.09402988,-0.30361527,2.7338893,2.1844159999999997,0.693408425
43,1778516151270,-0.03420931,0.09402988,-0.30361527,2.3823745,2.100002,0.9763154
44,1778516151280,-0.03420931,0.09402988,-0.30361527,2.3823745,2.100002,0.9763154000000002
45,1778516151290,-0.03420931,0.09402988,-0.30361527,2.3823745,2.100002,0.9763154
46,1778516151300,-0.03420931,0.09402988,-0.30361527,2.3823745,2.100002,0.9763154
47,1778516151310,-0.03420931,0.09402988,-0.30361527,2.3823745,2.100002,0.9763154000000002
48,1778516151320,-0.03420931,0.09402988,-0.30361527,2.3823745,2.100002,0.9763154000000002
49,1778516151330,-0.03420931,0.09402988,-0.30361527,2.3823745,2.100002,0.9763154
50,1778516151340,-0.35233763,0.044331856,-0.30648127,2.3823745,2.100002,0.9763154000000002
51,1778516151350,-0.35233763,0.044331856,-0.30648127,2.3823745,2.100002,0.9763154
52,1778516151360,-0.35233763,0.044331856,-0.30648127,2.3823745,2.100002,0.9763154
53,1778516151370,-0.35233763,0.044331856,-0.30648127,2.3823745,2.100002,0.9763154000000002
54,1778516151380,-0.35233763,0.044331856,-0.30648127,2.3823745,2.100002,0.9763154
55,1778516151390,-0.35233763,0.044331856,-0.30648127,2.3823745,2.100002,0.9763154
56,1778516151400,-0.35233763,0.044331856,-0.30648127,2.3823745,2.100002,0.9763154000000002
57,1778516151410,-0.2476973825,-0.0394992485,-0.4235155524999999,2.2685245,1.9050596,1.11085845
58,1778516151420,-0.2128173,-0.06744295,-0.46252698,2.1546745,1.7101172,1.2454015
59,1778516151430,-0.2128173,-0.06744295,-0.46252698,2.1546745,1.7101172,1.2454015
60,1778516151440,-0.2128173,-0.06744295,-0.46252698,2.1546745,1.7101172,1.2454015
61,1778516151450,-0.2128173,-0.06744295,-0.46252698,2.1546745,1.7101172,1.2454015
62,1778516151460,-0.2128173,-0.06744295,-0.46252698,2.1546745,1.7101172,1.2454015
63,1778516151470,-0.2128173,-0.06744295,-0.46252698,2.1546745,1.7101172,1.2454015
64,1778516151480,-0.2128173,-0.06744295,-0.46252698,2.1546745,1.7101172,1.2454015
65,1778516151490,-0.2128173,-0.06744295,-0.46252698,2.1546745,1.7101172,1.2454015
66,1778516151500,-0.2128173,-0.06744295,-0.46252698,2.1546745,1.7101172,1.2454015
67,1778516151510,-0.2128173,-0.06744295,-0.46252698,2.1546745,1.7101172,1.2454015
68,1778516151520,-0.2128173,-0.06744295,-0.46252698,2.1546745,1.7101172,1.2454015
69,1778516151530,-0.2557161599999999,-0.07430311,-0.4371444075,2.1546745,1.7101172,1.2454015
70,1778516151540,-0.27001578,-0.07658983,-0.4286835499999999,2.1546745,1.7101172,1.2454015
71,1778516151550,-0.27001578,-0.07658983,-0.42868355,1.8490891,0.46502116,1.6513215
72,1778516151560,-0.27001578,-0.07658983,-0.4286835499999999,1.8490891,0.46502116,1.6513215
73,1778516151570,-0.27001578,-0.07658983,-0.42868355,1.8490891,0.46502116,1.6513215
74,1778516151580,-0.27001578,-0.07658983,-0.42868355,1.8490891,0.46502116,1.6513215
75,1778516151590,-0.27001578,-0.07658983,-0.4286835499999999,1.8490891,0.46502116,1.6513215
76,1778516151600,-0.27001578,-0.07658983,-0.42868355,1.8490891,0.46502116,1.6513215
77,1778516151610,-0.27001578,-0.07658983,-0.42868355,1.8490891,0.46502116,1.6513215
78,1778516151620,-0.27001578,-0.07658983,-0.42868355,1.8490891,0.46502116,1.6513215
79,1778516151630,-0.19281614,-0.13195892,-0.45240447,1.806634,-0.2790127,2.0715969
80,1778516151640,-0.19281614,-0.13195892,-0.45240447,1.806634,-0.2790127,2.0715969
81,1778516151650,-0.19281614,-0.13195892,-0.45240447,1.806634,-0.2790127,2.0715969
82,1778516151660,-0.19281614,-0.13195892,-0.45240447,1.806634,-0.2790127,2.0715969
83,1778516151670,-0.19281614,-0.13195892,-0.45240447,1.806634,-0.2790127,2.0715969
84,1778516151680,-0.19281614,-0.13195892,-0.45240447,1.806634,-0.2790127,2.0715969
85,1778516151690,-0.19281614,-0.13195892,-0.45240447,1.806634,-0.2790127,2.0715969
86,1778516151700,-0.152508908,-0.14888064,-0.468594415,1.7947221,-0.5038111000000001,2.2085833499999996
87,1778516151710,-0.112201676,-0.16580236,-0.4847843600000001,1.7828102,-0.7286095,2.3455698
88,1778516151720,-0.112201676,-0.16580236,-0.48478436,1.7828102,-0.7286095,2.3455698
89,1778516151730,-0.112201676,-0.16580236,-0.48478436,1.7828102,-0.7286095,2.3455698
90,1778516151740,-0.112201676,-0.16580236,-0.4847843600000001,1.7828102,-0.7286095,2.3455698
91,1778516151750,-0.112201676,-0.16580236,-0.48478436,1.7828102,-0.7286095,2.3455698
92,1778516151760,-0.112201676,-0.16580236,-0.48478436,1.7828102,-0.7286095,2.3455698
93,1778516151770,-0.112201676,-0.16580236,-0.48478436,1.7828102,-0.7286095,2.3455698
94,1778516151780,-0.112201676,-0.16580236,-0.4847843600000001,1.7828102,-0.7286095,2.3455698
95,1778516151790,-0.112201676,-0.16580236,-0.48478436,1.7828102,-0.7286095,2.3455698
96,1778516151800,,,,,,
97,1778516151810,0.47203976,-0.56454515,0.40984097,5.979149,1.0538952,-4.3563857
98,1778516151820,0.47203976,-0.56454515,0.40984097,5.979149,1.0538952,-4.3563857
99,1778516151830,0.47203976,-0.56454515,0.40984097,5.979149,1.0538952,-4.3563857
100,1778516151840,0.47203976,-0.56454515,0.40984097,5.979149,1.0538952,-4.3563857
101,1778516151850,0.4631672799999999,-0.5898210125000001,0.3421845875,6.0214132,0.84379575,-4.3051111749999995
102,1778516151860,0.43654984,-0.6656486,0.13921544,6.1482058,0.2134973999999999,-4.1512876
103,1778516151870,0.4140027975,-0.6739417625,0.0808126425,6.11708985,0.0359265125,-4.13376335
104,1778516151880,0.34636167,-0.69882125,-0.09439575,6.023742000000001,-0.49678615,-4.0811906
105,1778516151890,0.34636167,-0.69882125,-0.09439575,6.023742,-0.49678615,-4.0811906
106,1778516151900,0.302639605,-0.700803075,-0.17735791,6.023742,-0.49678615,-4.0811906
107,1778516151910,0.25891754,-0.7027849,-0.26032007,6.023742000000001,-0.49678615,-4.0811906
108,1778516151920,0.25891754,-0.7027849,-0.26032007,6.023742,-0.49678615,-4.0811906
109,1778516151930,0.25891754,-0.7027849,-0.26032007,6.023742,-0.49678615,-4.0811906
110,1778516151940,0.25891754,-0.7027849,-0.26032007,6.023742000000001,-0.49678615,-4.0811906
111,1778516151950,0.25891754,-0.7027849,-0.26032007,6.023742,-0.49678615,-4.0811906
112,1778516151960,0.25891754,-0.7027849,-0.26032007,5.628665000000001,-1.1079569,-3.9495492
113,1778516151970,0.25891754,-0.7027849,-0.26032007,5.628665,-1.1079569,-3.9495492
114,1778516151980,0.25891754,-0.7027849,-0.26032007,5.628665000000001,-1.1079569,-3.9495492
115,1778516151990,0.25891754,-0.7027849,-0.26032007,5.628665,-1.1079569,-3.9495492
116,1778516152000,0.25891754,-0.7027849,-0.26032007,5.628665,-1.1079569,-3.9495492
117,1778516152010,0.25891754,-0.7027849,-0.26032007,5.628665000000001,-1.1079569,-3.9495492
118,1778516152020,0.2385200075,-0.692860525,-0.30710633,5.628665,-1.1079569,-3.9495492
119,1778516152030,0.23172083,-0.6895524,-0.32270175,5.628665,-1.1079569,-3.9495492
120,1778516152040,0.23172083,-0.6895523999999998,-0.32270175,5.628665000000001,-1.1079569,-3.9495492
121,1778516152050,0.23172083,-0.6895524,-0.32270175,5.628665,-1.1079569,-3.9495492
122,1778516152060,0.23172083,-0.6895524,-0.32270175,5.628665,-1.1079569,-3.9495492
123,1778516152070,0.23172083,-0.6895523999999998,-0.32270175,5.628665000000001,-1.1079569,-3.9495492
124,1778516152080,0.23172083,-0.6895524,-0.32270175,5.628665,-1.1079569,-3.9495492
125,1778516152090,0.23172083,-0.6895524,-0.32270175,5.628665,-1.1079569,-3.9495492
126,1778516152100,0.23172083,-0.6895523999999998,-0.32270175,5.628665000000001,-1.1079569,-3.9495492
127,1778516152110,0.23172083,-0.6895524,-0.32270175,5.25366995,-1.3327934,-3.8438313
128,1778516152120,0.23172083,-0.6895524,-0.32270175,5.1286716,-1.4077389,-3.808592
129,1778516152130,0.3659156633333333,-0.6554854,-0.39933225,4.934416733333333,-1.4703526333333332,-3.7672568
130,1778516152140,0.43301308,-0.6384519,-0.4376475,4.8372893,-1.5016595,-3.7465892
131,1778516152150,0.43301308,-0.6384519,-0.4376475,4.8372893,-1.5016595,-3.7465892
132,1778516152160,0.43301308,-0.6384519,-0.4376475,4.8372893,-1.5016595,-3.7465892
133,1778516152170,0.43301308,-0.6384519,-0.4376475,4.8372893,-1.5016595,-3.7465892
134,1778516152180,0.43301308,-0.6384519,-0.4376475,3.647171,-1.4601207,-3.9037344
135,1778516152190,0.37528105,-0.6772651425,-0.3664085825,3.647171,-1.4601207,-3.9037344
136,1778516152200,0.20208496,-0.79370487,-0.15269183,3.647171,-1.4601207,-3.9037344
137,1778516152210,0.20208496,-0.79370487,-0.15269183,3.647171,-1.4601207,-3.9037344
138,1778516152220,0.20208496,-0.79370487,-0.15269183,3.647171,-1.4601207,-3.9037344
139,1778516152230,0.20208496,-0.79370487,-0.15269183,3.647171,-1.4601207,-3.9037344
140,1778516152240,0.20208496,-0.79370487,-0.15269183,3.647171,-1.4601207,-3.9037344
141,1778516152250,0.20208496,-0.79370487,-0.15269183,3.647171,-1.4601207,-3.9037344
142,1778516152260,0.20208496,-0.79370487,-0.15269183,3.647171,-1.4601207,-3.9037344
143,1778516152270,0.20208496,-0.79370487,-0.15269183,3.647171,-1.4601207,-3.9037344
144,1778516152280,0.20208496,-0.79370487,-0.15269183,3.647171,-1.4601207,-3.9037344
145,1778516152290,0.20208496,-0.79370487,-0.15269183,3.647171,-1.4601207,-3.9037344
146,1778516152300,0.043630594,-0.8035834749999999,-0.041740239,2.5481861,-0.03149775,-3.47788485
147,1778516152310,-0.10817704,-0.83236563,0.029513916,2.1818578,0.4447099,-3.3359350000000005
148,1778516152320,-0.10817704,-0.83236563,0.029513916,2.1818578,0.4447099,-3.335935
149,1778516152330,-0.10817704,-0.83236563,0.029513916,2.0965403,0.5933537666666666,-3.278106466666667
150,1778516152340,-0.10817704,-0.83236563,0.029513916,1.9259053,0.8906415,-3.1624494
151,1778516152350,-0.10817704,-0.83236563,0.029513916,1.9259053,0.8906415,-3.1624494
152,1778516152360,-0.21553087,-0.832579065,0.0414963245,1.9259053,0.8906415,-3.1624494
153,1778516152370,-0.3228847,-0.8327925,0.053478733,1.9259053,0.8906415,-3.1624494
154,1778516152380,-0.3228847,-0.8327925,0.053478733,1.9259053,0.8906415,-3.1624494
155,1778516152390,-0.3228847,-0.8327925,0.053478733,1.9259053,0.8906415,-3.1624494
156,1778516152400,-0.3228847,-0.8327925,0.053478733,1.9259053,0.8906415,-3.1624494
157,1778516152410,-0.3228847,-0.8327925,0.053478733,1.9259053,0.8906415,-3.1624494
158,1778516152420,-0.3228847,-0.8327925,0.053478733,1.73577355,1.251090225,-2.79764835
159,1778516152430,-0.3228847,-0.8327925,0.053478733,1.6723963,1.3712398,-2.676048
160,1778516152440,-0.3228847,-0.8327925,0.053478733,1.6723963,1.3712398,-2.676048
161,1778516152450,-0.5524255375,-0.86992875,0.07986746575,1.6723963,1.3712398,-2.676048
162,1778516152460,-0.62893915,-0.8823075,0.08866371,1.6723963,1.3712398,-2.676048
163,1778516152470,-0.62893915,-0.8823075,0.08866371,1.6723963,1.3712398,-2.676048
164,1778516152480,-0.62893915,-0.8823075,0.08866371,1.64490735,1.416062,-2.52516425
165,1778516152490,-0.8184013750000001,-0.9027051,0.053021386,1.6174184,1.4608842,-2.3742805
166,1778516152500,-1.0078636,-0.9231027,0.017379062,1.6174184,1.4608842,-2.3742805
167,1778516152510,-1.0078636,-0.9231027,0.017379062,1.48753325,1.482188175,-1.816255075
168,1778516152520,-1.0078636,-0.9231027,0.017379062,1.4442382,1.4892895,-1.6302466000000002
169,1778516152530,-1.0078636,-0.9231027,0.017379062,1.4442382,1.4892895,-1.6302466
170,1778516152540,-1.1353101333333333,-0.9313958333333332,-0.0168912306666666,1.3649784,1.4744251000000002,-1.3492995
171,1778516152550,-1.1990334,-0.9355424,-0.034026377,1.2064588,1.4446963,-0.7874053
172,1778516152560,-1.1990334,-0.9355424,-0.034026377,1.2064588,1.4446963,-0.7874053
173,1778516152570,-1.2255389666666667,-0.9285298,-0.0381729603333333,1.143387,1.4647530333333334,-0.5949318433333334
174,1778516152580,-1.2851359,-0.897034025,-0.0617718955,1.0172434,1.5048665,-0.20998493
175,1778516152590,-1.2917217,-0.87956345,-0.077077664,1.0172434,1.5048665,-0.20998493
176,1778516152600,-1.2917217,-0.87956345,-0.077077664,1.0172434,1.5048665,-0.20998493
177,1778516152610,-1.2917217,-0.87956345,-0.077077664,0.5213735,1.6751453,1.206917
178,1778516152620,-1.2917217,-0.87956345,-0.077077664,0.5213735,1.6751452999999998,1.206917
179,1778516152630,-1.2917217,-0.87956345,-0.077077664,0.5213735,1.6751453,1.206917
180,1778516152640,-1.2917217,-0.87956345,-0.077077664,0.5213735,1.6751452999999998,1.206917
181,1778516152650,-1.2917217,-0.87956345,-0.077077664,0.5213735,1.6751453,1.206917
182,1778516152660,-1.2917217,-0.87956345,-0.077077664,0.45081856,1.6698384000000002,1.422552425
183,1778516152670,-1.2494021666666668,-0.8909056166666667,-0.079882708,0.23915374,1.6539177,2.0694587
184,1778516152680,-1.2282424,-0.8965767,-0.08128523,0.23915374,1.6539177,2.0694587
185,1778516152690,-1.2282424,-0.8965767000000001,-0.08128523,0.23915374,1.6539177,2.0694587
186,1778516152700,-1.2282424,-0.8965767,-0.08128523,0.23915374,1.6539177,2.0694587
187,1778516152710,-1.0379467333333334,-0.9316194333333332,-0.0738051206666666,0.0196495,1.5937474333333337,2.7939449
188,1778516152720,-0.9427989,-0.9491408,-0.070065066,-0.09010262,1.5636623,3.156188
189,1778516152730,-0.9427989,-0.9491408,-0.070065066,-0.09010262,1.5636623,3.156188
190,1778516152740,-0.6877434,-0.9775977333333332,-0.0600238266666666,-0.3218241733333333,1.4672474333333334,3.90236
191,1778516152750,-0.56021565,-0.9918262,-0.055003207,-0.43768495,1.41904,4.275446
192,1778516152760,-0.56021565,-0.9918262,-0.055003207,-0.43768495,1.41904,4.275446
193,1778516152770,-0.33038515,-1.0287185,-0.05469831,-0.43768495,1.41904,4.275446
194,1778516152780,-0.33038515,-1.0287185,-0.05469831,-0.5265658375,1.395788875,4.5034895
195,1778516152790,-0.33038515,-1.0287185,-0.05469831,-0.5561928,1.3880384999999995,4.579504
196,1778516152800,-0.33038515,-1.0287185,-0.05469831,-0.807945675,1.30694625,5.17727395
197,1778516152810,-0.33038515,-1.0287185,-0.05469831,-0.8918633,1.2799155,5.3765306
198,1778516152820,-0.1851327653333333,-1.0532118333333331,-0.0460595956666666,-0.8918633000000001,1.2799155,5.3765306
199,1778516152830,0.105372004,-1.1021985,-0.028782167,-0.8918633,1.2799155,5.3765306
200,1778516152840,0.105372004,-1.1021985,-0.028782167,-0.8918633,1.2799155,5.3765306
201,1778516152850,0.105372004,-1.1021985,-0.028782167,-0.8918633000000001,1.2799155,5.3765306
202,1778516152860,0.105372004,-1.1021985,-0.028782167,-0.8918633,1.2799155,5.3765306
203,1778516152870,0.105372004,-1.1021985,-0.028782167,-0.9710721333333332,1.227381066666667,5.562640733333333
204,1778516152880,0.105372004,-1.1021985,-0.028782167,-1.1294898,1.1223122,5.934861
205,1778516152890,0.105372004,-1.1021985,-0.028782167,-1.1294898,1.1223122,5.934861
206,1778516152900,0.105372004,-1.1021985,-0.028782167,-1.1294898,1.1223122,5.934861000000001
207,1778516152910,0.105372004,-1.1021985,-0.028782167,-1.1294898,1.1223122,5.934861
208,1778516152920,0.105372004,-1.1021985,-0.028782167,-1.1294898,1.1223122,5.934861
209,1778516152930,,,,,,
210,1778516152940,0.105372004,-1.1021985,-0.028782167,-1.1294898,1.1223122,5.934861
211,1778516152950,0.105372004,-1.1021985,-0.028782167,-1.1294898,1.1223122,5.934861
212,1778516152960,0.228549922,-1.1190592,-0.014238635585,-1.1294898,1.1223122,5.934861
213,1778516152970,0.3517278399999999,-1.1359199,0.00030489583,-1.1833477666666667,1.0808751666666667,6.0705241
214,1778516152980,0.35172784,-1.1359199,0.00030489583,-1.2910637,0.9980011,6.3418503
215,1778516152990,0.58052164,-1.15897,0.038172957,-1.2910637,0.9980011,6.3418503
216,1778516153000,0.9103275,-1.15543325,0.065552607,-1.55434665,0.894154025,6.968827125
217,1778516153010,0.989387,-1.1519574,0.068052754,-1.6893479,0.8507826,7.275558
218,1778516153020,0.989387,-1.1519574,0.068052754,-1.6893479000000002,0.8507826,7.275558
219,1778516153030,0.989387,-1.1519574,0.068052754,-1.6893479,0.8507826,7.275558
220,1778516153040,0.989387,-1.1519574,0.068052754,-1.6893479000000002,0.8507826,7.275558
221,1778516153050,0.989387,-1.1519574,0.068052754,-1.6893479,0.8507826,7.275558
222,1778516153060,0.989387,-1.1519574,0.068052754,-1.6893479,0.8507826,7.275558
223,1778516153070,0.989387,-1.1519574,0.068052754,-1.6893479,0.8507826,7.275558
224,1778516153080,0.989387,-1.1519574,0.068052754,-1.6893479000000002,0.8507826,7.275558
225,1778516153090,1.12256555,-1.15284165,0.076864242,-1.85115085,0.874835415,7.487375500000001
226,1778516153100,1.2557441,-1.1537259,0.08567573,-2.0129538,0.89888823,7.699193
227,1778516153110,1.3506682333333335,-1.1480344999999998,0.1133196233333333,-2.3151283333333335,1.0181087433333331,7.9819216666666675
228,1778516153120,2.5303305000000003,-0.4919341949999999,0.37505238,-2.55601285,1.092570675,8.01882825
229,1778516153130,2.599054,-0.40910926,0.3939254300000001,-2.5463917,1.0923798,7.963545
230,1778516153140,2.599054,-0.40910926,0.39392543,-2.5463917,1.0923798,7.963545
231,1778516153150,2.59794115,-0.3455079825,0.38276624,-1.9908098,1.0737484,6.6103253
232,1778516153160,2.438618,0.172693,0.21421981,-1.9908098,1.0737484,6.6103253
233,1778516153170,2.438618,0.172693,0.21421981,-1.88986435,1.03091147,6.3287928
234,1778516153180,2.438618,0.172693,0.21421981,-1.7889189,0.98807454,6.0472603000000005
235,1778516153190,2.438618,0.172693,0.21421981,-1.7889189,0.98807454,6.0472603
236,1778516153200,2.2461677,0.46258798,0.21958598,-1.7889189,0.98807454,6.0472603000000005
237,1778516153210,2.2461677,0.46258798,0.21958598,-1.7889189,0.98807454,6.0472603
238,1778516153220,2.2461677,0.46258798,0.21958598,-1.7889189,0.98807454,6.0472603
239,1778516153230,2.2461677,0.46258798,0.21958598,-1.7779233,0.7015787333333332,5.869396766666667
240,1778516153240,2.2461677,0.46258798,0.21958598,-1.7724255,0.55833083,5.780465
241,1778516153250,2.2461677,0.46258798,0.21958598,-1.7724255,0.55833083,5.780465
242,1778516153260,2.2461677,0.46258798,0.21958598,-1.70797925,0.3910301149999999,5.7341155
243,1778516153270,2.2461677,0.46258798,0.21958598,-1.643533,0.2237294,5.687766
244,1778516153280,2.2867797666666667,0.5700738933333334,0.3644725,-1.4217380000000002,0.0461712333333333,5.5662549
245,1778516153290,2.3430178,0.6572639225,0.51079202,-0.978148,-0.3089451,5.3232327
246,1778516153300,2.714874,0.9417215966666668,0.7894363200000001,-0.7748825866666667,-0.3887648333333333,5.226359566666667
247,1778516153310,3.0979247,1.4942945,-0.10921369,0.7641924,0.0016798794,1.1971432
248,1778516153320,2.997593633333333,1.520739133333333,-0.2002555933333333,0.9868019,-0.1272126804,1.4559464666666664
249,1778516153330,2.7969315,1.5736284,-0.3823394,1.4320209,-0.3849978,1.973553
250,1778516153340,2.7969315,1.5736283999999998,-0.3823394,1.4320209000000002,-0.3849978,1.973553
251,1778516153350,2.7969315,1.5736284,-0.3823394,1.4320209,-0.3849978,1.973553
252,1778516153360,2.7969315,1.5736284,-0.3823394,0.1301143,0.2958115,0.97433007
253,1778516153370,2.7969315,1.5736283999999998,-0.3823394,0.1301143,0.2958115,0.97433007
254,1778516153380,2.6543926,1.593782,-0.467588265,0.1301143,0.2958115,0.97433007
255,1778516153390,2.5118537,1.6139356,-0.55283713,0.1301143,0.2958115,0.97433007
256,1778516153400,2.5118537,1.6139356000000002,-0.55283713,-0.3452916,0.4182899666666667,0.8861618466666666
257,1778516153410,2.5118537,1.6139356,-0.55283713,-1.2961034,0.6632469,0.7098254
258,1778516153420,2.4259343,1.718454,-0.34934965,-1.2961034,0.6632469,0.7098254
259,1778516153430,2.4259343,1.718454,-0.34934965,-1.2961034,0.6632469,0.7098254
260,1778516153440,2.4259343,1.718454,-0.34934965,-1.2961034,0.6632469,0.7098254
261,1778516153450,2.497605066666667,1.7327230666666666,-0.1895029266666666,-1.3782647666666668,0.5627086766666666,0.4924082833333333
262,1778516153460,2.8066678666666665,1.7123559666666666,0.4450666300000001,-1.133918633333333,0.2709187366666666,-0.42857289
263,1778516153470,2.9597460000000004,1.665158,0.74754363,-0.9295842,0.22556199,-0.67164636
264,1778516153480,2.959746,1.665158,0.74754363,-0.9295842,0.22556199,-0.67164636
265,1778516153490,2.9597460000000004,1.665158,0.74754363,-0.9295842,0.22556199,-0.67164636
266,1778516153500,2.959746,1.665158,0.74754363,-0.9295842,0.22556199,-0.67164636
267,1778516153510,2.9597460000000004,1.665158,0.74754363,-0.9295842,0.22556199,-0.67164636
268,1778516153520,2.9717586,1.6666217,0.8055348,-0.9295842,0.22556199,-0.67164636
269,1778516153530,2.9717586,1.6666217,0.8055348,-0.8248208125,0.1985693825,-0.76373427
270,1778516153540,2.9717586,1.6666217,0.8055348,-0.51053065,0.11759156,-1.039998
271,1778516153550,2.9717586,1.6666217,0.8055347999999999,-0.51053065,0.11759156,-1.039998
272,1778516153560,2.9717586,1.6666217,0.8055348,-0.51053065,0.11759156,-1.039998
273,1778516153570,2.9717586,1.6666217,0.8055347999999999,-0.51053065,0.11759156,-1.039998
274,1778516153580,2.9717586,1.6666217,0.8055348,-0.51053065,0.11759156,-1.039998
275,1778516153590,2.9717586,1.6666217,0.8055348,-0.51053065,0.11759156,-1.039998
276,1778516153600,3.0340388,1.6256842333333337,0.7680529333333332,-0.51053065,0.11759156,-1.039998
277,1778516153610,3.0651789,1.6052155,0.749312,-0.51053065,0.11759156,-1.039998
278,1778516153620,3.1170112,1.569740925,0.70815105,0.2269364475,-0.16737708,-1.8280906
279,1778516153630,3.2725081,1.4633172,0.5846682,0.6785186,-0.3426954199999999,-2.5308146
280,1778516153640,3.2725081,1.4633172,0.5846682,0.6785186,-0.34269542,-2.5308146
281,1778516153650,3.3018593333333333,1.4263028333333334,0.5569430333333333,0.6785186,-0.3426954199999999,-2.5308146
282,1778516153660,3.3605618,1.3522741,0.5014927,0.7165449,-0.2359467,-3.1367931
283,1778516153670,3.3605618,1.3522741,0.5014927,0.7165449,-0.2359467,-3.1367931
284,1778516153680,3.3605618000000006,1.3522741,0.5014927,0.7165449,-0.2359467,-3.1367931
285,1778516153690,3.3544436666666666,1.2972099,0.4859023533333333,0.6773477233333334,-0.148083916,-3.336546
286,1778516153700,3.3422074,1.1870815,0.45472166,0.59895337,0.027641652,-3.7360518
287,1778516153710,3.273626,1.0661801000000002,0.45573798,0.59895337,0.027641652,-3.7360518
288,1778516153720,2.937183675,0.67383506,0.6297928349999999,0.3225750275,0.71967561,-4.758487575
289,1778516153730,2.734367,0.45240447,0.7565685,0.59372282,0.7170412675,-5.20640455
290,1778516153740,2.734367,0.45240447,0.7565684999999999,0.68325275,0.6739371,-5.2711563
291,1778516153750,2.734367,0.45240447,0.7565685,0.68325275,0.6739371,-5.2711563
292,1778516153760,2.4953895,0.2876997,0.73662835,1.0290025,0.47555858,-5.3910384
293,1778516153770,2.4953895,0.2876997,0.73662835,1.0290025,0.47555858,-5.3910384
294,1778516153780,2.4953895,0.2876997,0.73662835,1.0290025,0.47555858,-5.3910384
295,1778516153790,2.3661137,0.1795633133333333,0.6842269166666667,1.0290025,0.47555858,-5.3910384
296,1778516153800,2.13972855,0.0454599624999999,0.61578288,1.2428435,0.36861899,-5.454530275
297,1778516153810,1.4497187333333332,-0.28835017,0.4217725733333333,1.6818647,0.2017382433333333,-5.529450333333333
298,1778516153820,1.3473347,-0.3352025,0.3881324,1.7218764,0.1994475,-5.5136695
299,1778516153830,1.3473347,-0.3352025,0.3881324,1.8220583,0.28527406,-5.366451299999999
300,1778516153840,1.07695305,-0.431702,0.32934848,1.88100685,0.33040173,-5.1408129
301,1778516153850,0.8065714,-0.5282015,0.27056456,1.9399554,0.3755294,-4.9151745
302,1778516153860,0.8065714,-0.5282015,0.27056456,1.9399554,0.3755294,-4.9151745
303,1778516153870,0.739966925,-0.565200625,0.27507702,2.1325307,0.3126103,-4.6097417
304,1778516153880,0.044758707,-1.2948927,0.0439659799999999,3.5874588,-1.1158981,-4.276362
305,1778516153890,-0.0693942965,-1.3576096999999998,-0.0584180449999999,3.738075225,-1.6145932,-4.24669725
306,1778516153900,-0.3022127333333333,-1.4452875333333333,-0.2593647266666666,3.7882807,-1.7808249,-4.236809
307,1778516153910,-0.5395436,-1.4952092,-0.45649004,3.4171803,-2.28036,-3.8892262
308,1778516153920,-0.5395436,-1.4952092,-0.45649004,3.4171803,-2.28036,-3.8892262
309,1778516153930,-0.5395436,-1.4952092,-0.45649004,3.4171803,-2.28036,-3.8892262
310,1778516153940,-0.5395436,-1.4952092,-0.45649004,3.100039433333334,-2.2363776666666664,-3.6764416
311,1778516153950,-0.566222,-1.4944622,-0.4747228175,2.941469,-2.2143865,-3.5700493
312,1778516153960,-0.6462572,-1.4922212,-0.52942115,2.941469,-2.2143865,-3.5700493
313,1778516153970,-0.6462572,-1.4922212,-0.52942115,2.941469,-2.2143865,-3.5700493
314,1778516153980,-0.6462572,-1.4922212,-0.52942115,2.941469,-2.2143865,-3.5700492999999995
315,1778516153990,-0.8764536,-1.4249002,-0.6007668,1.4856243,-1.5477798,-2.5993843
316,1778516154000,,,,,,
317,1778516154010,,,,,,
318,1778516154020,-0.8764536,-1.4249002,-0.6007668,1.4856243,-1.5477798,-2.5993843
319,1778516154030,-0.8764536,-1.4249002,-0.6007668,1.4856243,-1.5477798,-2.5993843
320,1778516154040,-0.8812099833333334,-1.4119319666666663,-0.5781841666666666,1.4856243000000002,-1.5477798,-2.5993843
321,1778516154050,-0.89072275,-1.3859955,-0.5330189,1.4856243,-1.5477798,-2.5993843
322,1778516154060,-0.89072275,-1.3859955,-0.5330189,0.6597345,-1.0264063,-2.0172298
323,1778516154070,-0.8690751,-1.3327607,-0.42276856,0.23419048,-0.7035640400000001,-1.6810248
324,1778516154080,-0.8690751,-1.3327607,-0.42276856,-0.19135354,-0.38072178,-1.3448198
325,1778516154090,-0.8690751,-1.3327607,-0.42276856,-0.19135354,-0.38072178,-1.3448198
326,1778516154100,-0.7811431,-1.1991553,-0.27215004,-0.19135354,-0.38072178,-1.3448198
327,1778516154110,-0.7811431,-1.1991553,-0.27215004,-0.19135354,-0.38072178,-1.3448198
328,1778516154120,-0.7811431,-1.1991553,-0.27215004,-0.19135354,-0.38072178,-1.3448198
329,1778516154130,-0.7309978999999999,-1.1505752333333332,-0.2359487366666667,-0.6497569966666666,0.0165951653333333,-0.83754714
330,1778516154140,-0.6307075,-1.0534151,-0.16354613,-0.98914355,0.31230485,-0.43127087
331,1778516154150,-0.6307075,-1.0534151,-0.16354613,-0.98914355,0.31230485,-0.4312708699999999
332,1778516154160,-0.5725181375,-0.99621664,-0.122263232925,-0.98914355,0.31230485,-0.43127087
333,1778516154170,-0.39795005,-0.82462126,0.0015854583,-1.063134575,0.43699771,-0.2387719549999999
334,1778516154180,-0.39795005,-0.8246212600000001,0.0015854583,-1.1371256,0.56169057,-0.04627304
335,1778516154190,-0.39795005,-0.82462126,0.0015854583,-1.1371256,0.56169057,-0.04627304
336,1778516154200,-0.355661005,-0.74806193,0.05113102915,-0.9979247125,0.56909732,0.0826577
337,1778516154210,-0.20970736,-0.50624907,0.2067193699999999,-0.7301367,0.5403103,0.2848159
338,1778516154220,-0.20970736,-0.50624907,0.20671937,-0.7301367,0.5403103,0.2848159
339,1778516154230,-0.1331581733333333,-0.4133168033333333,0.2721703566666666,-0.7301367,0.5403103,0.2848159
340,1778516154240,-0.09488358,-0.36685067,0.30489585,-0.7301367,0.5403103,0.2848159
341,1778516154250,-0.09488358,-0.36685067,0.30489585,-0.0590248515,0.35643986,0.4727333299999999
342,1778516154260,-0.0874441266666666,-0.3409548366666666,0.3257913699999999,0.052687127,0.33322698,0.49968776
343,1778516154270,-0.0837244,-0.32800692,0.33623913,0.052687127,0.33322698,0.49968776
344,1778516154280,-0.0837243999999999,-0.32800692,0.33623913,0.052687127,0.33322698,0.49968776
345,1778516154290,-0.0837244,-0.32800692,0.33623913,0.052687127,0.33322698,0.49968776
346,1778516154300,-0.0837243999999999,-0.32800692,0.33623913,0.052687127,0.33322698,0.49968776
347,1778516154310,-0.06933331,-0.22556195,0.40764573,1.141974395,0.204410785,0.8732700250000001
348,1778516154320,-0.06933331,-0.22556195,0.40764573,1.5972599,0.14049901,1.0795516
349,1778516154330,-0.08878566,-0.15933856,0.3731925,1.5972599,0.14049901,1.0795516
350,1778516154340,-0.08878566,-0.15933856,0.3731925,1.5972599,0.14049901,1.0795516
351,1778516154350,-0.08878566,-0.15933856,0.3731925,1.5972599,0.14049901,1.0795516
352,1778516154360,-0.092474905,-0.121013155,0.26736316,1.90735035,0.09193522,1.3293955
353,1778516154370,-0.09616415,-0.08268775,0.16153382,2.2174408,0.04337143,1.5792393999999998
354,1778516154380,0.010793312,-0.077382565,-0.30782285,2.2740986,0.23854288,2.2747095
355,1778516154390,0.010793312,-0.077382565,-0.30782285,2.2740986,0.23854288,2.2747095
356,1778516154400,0.0248032765,-0.08212369525,-0.3494106375,2.22148785,0.28328876,2.338468525
357,1778516154410,0.06683317,-0.096347086,-0.474174,2.0636556,0.4175264,2.5297456
358,1778516154420,0.06683317,-0.096347086,-0.4741739999999999,2.0636556,0.4175264,2.5297456
359,1778516154430,0.06683317,-0.096347086,-0.474174,2.0636556,0.4175264,2.5297456
360,1778516154440,0.06683317,-0.096347086,-0.4741739999999999,2.0636556,0.4175264,2.5297456
361,1778516154450,0.19976775,-0.17452239,-0.7762038,0.59635717,1.4353806,3.4735324
362,1778516154460,0.19976775,-0.17452239,-0.7762038,0.59635717,1.4353806,3.4735324
363,1778516154470,0.26151931,-0.24753477,-0.72583502,0.59635717,1.4353806,3.4735324
364,1778516154480,0.29239509,-0.28404096,-0.70065063,0.2931007625,1.5993216,3.64827805
365,1778516154490,0.29239509,-0.28404096,-0.70065063,-0.61666846,2.0911446,4.172515
366,1778516154500,0.29239509,-0.28404096,-0.70065063,-0.61666846,2.0911446,4.172515
367,1778516154510,0.323982315,-0.33376947,-0.627628085,-1.00502603,2.2150738,4.4633632
368,1778516154520,0.35556954,-0.38349798,-0.55460554,-1.3933836,2.339003,4.7542114
369,1778516154530,0.35556954,-0.38349798,-0.55460554,-1.3933836,2.339003,4.7542114
370,1778516154540,0.35556954,-0.38349798,-0.55460554,-1.3933836,2.339003,4.7542114
371,1778516154550,0.35556954,-0.38349798,-0.55460554,-1.3933836,2.339003,4.7542114
372,1778516154560,0.35556954,-0.38349798,-0.55460554,-1.3933836,2.339003,4.7542114
373,1778516154570,0.42615293,-0.479509665,-0.46085007,-1.3933836,2.339003,4.7542114
374,1778516154580,0.4967363199999999,-0.57552135,-0.3670946,-1.6264796,2.3560054666666663,5.0145928
375,1778516154590,0.49673632,-0.57552135,-0.3670946,-2.0926716,2.3900104,5.5353556
376,1778516154600,0.4967363199999999,-0.57552135,-0.3670946,-2.0926716,2.3900104,5.5353556
377,1778516154610,1.1377493,-0.85248876,-0.023537958,-2.6519186,1.9488128,6.77419
378,1778516154620,1.1377493,-0.85248876,-0.023537958,-2.6519186,1.9488128,6.77419
379,1778516154630,1.1377493,-0.85248876,-0.023537958,-2.6519186,1.9488128,6.77419
380,1778516154640,1.1377493,-0.85248876,-0.023537958,-2.6519186,1.9488128,6.77419
381,1778516154650,1.6028374,-0.9085286,0.18214478,-2.5657866333333335,1.718872966666667,6.9178961333333335
382,1778516154660,1.6028374,-0.9085286,0.18214478,-2.3935227,1.2589933,7.2053084
383,1778516154670,1.6028374,-0.9085286,0.18214478,-2.3935227,1.2589933,7.2053084
384,1778516154680,1.6028374,-0.9085286,0.18214478,-2.3935227,1.2589933,7.2053084
385,1778516154690,1.6028374,-0.9085286,0.18214478,-2.3935227,1.2589933,7.2053084
386,1778516154700,1.7391868,-0.9000525100000001,0.23448523,-2.3935227,1.2589933,7.2053084
387,1778516154710,2.0118856,-0.88310033,0.33916613,-2.274327625,1.112042025,7.2148913
388,1778516154720,2.0118856,-0.88310033,0.33916613,-1.9167424,0.6711882,7.24364
389,1778516154730,1.9465567333333336,-0.8642780433333334,0.30001751,-1.1016445333333331,0.2198605866666666,7.632354
390,1778516154740,1.9138923,-0.8548668999999999,0.2804432,-0.6940956000000001,-0.00580322,7.826711
391,1778516154750,1.7617492,-0.8529461,0.129885631,-0.6940956,-0.00580322,7.826711
392,1778516154760,1.6096061,-0.8510253,-0.020671938,-0.6940956,-0.00580322,7.826711
393,1778516154770,1.6090572666666667,-0.8683840133333334,-0.0619345086666666,-1.0371982666666666,0.1651372366666666,8.258185666666668
394,1778516154780,1.796141325,-0.90910789,-0.1187874199999999,-1.7234036,0.50701815,9.121135
395,1778516154790,3.0432466333333337,-0.7485802533333333,0.1750305366666666,-1.7692184666666666,0.2704096833333333,8.881980666666665
396,1778516154800,3.3845267,-0.65930676,0.28343117,-1.69572375,0.0408897924999999,8.482054625
397,1778516154810,3.3845267,-0.65930676,0.28343117,-1.4065173,-0.29275718,7.641008
398,1778516154820,3.7894893,-0.34447134,0.46990547,-1.4065173,-0.29275718,7.641008
399,1778516154830,3.5752493666666667,-0.0591701233333333,0.4753529366666666,-1.4065173,-0.29275718,7.641008
400,1778516154840,2.8680942,0.40563342,0.3284948,-0.4859433,-0.56245416,4.763985
401,1778516154850,2.8680942,0.40563342,0.3284948,-0.4859433,-0.56245416,4.763985
402,1778516154860,2.683815133333333,0.4635026466666667,0.3157501399999999,-0.4859433,-0.56245416,4.763985
403,1778516154870,2.315257,0.5792411,0.29026082,-0.4878904325,-0.518166435,4.602602125
404,1778516154880,2.2839544666666667,0.8758437666666666,0.4019340199999999,1.0183632566666667,-0.8690066866666667,2.9601511666666664
405,1778516154890,2.2683032,1.0241451,0.45777062,1.7744108,-1.1108584,2.381
406,1778516154900,2.3062321999999997,1.1065483,0.211821304,1.7744108,-1.1108584,2.381
407,1778516154910,2.3251967,1.1477499,0.088846646,1.8707748,-1.1647672999999998,1.9198731
408,1778516154920,2.3251967,1.1477499,0.088846646,1.9671388,-1.2186762,1.4587462
409,1778516154930,2.3251967,1.1477499,0.0888466459999999,1.9671388,-1.2186762,1.4587462
410,1778516154940,2.3251967,1.1477499,0.088846646,1.9671388,-1.2186762,1.4587462
411,1778516154950,2.3251967,1.1477499,0.0888466459999999,1.7921259,-1.1919508,0.54336464
412,1778516154960,2.3251967,1.1477499,0.088846646,1.7921259,-1.1919508,0.54336464
413,1778516154970,2.289422233333333,1.1636045,0.005162904,1.7921259,-1.1919508,0.54336464
414,1778516154980,2.2178733,1.1953137,-0.16220458,1.7921259,-1.1919508,0.54336464
415,1778516154990,2.1483977333333333,1.1822031666666666,-0.21623212,1.5889623000000002,-1.1052588433333332,0.2344195433333332
416,1778516155000,2.0094466,1.1559821,-0.3242872,1.1826351,-0.93187493,-0.38347065
417,1778516155010,2.0094466,1.1559821,-0.3242872,1.1826351,-0.93187493,-0.38347065
418,1778516155020,2.0094466,1.1559821,-0.3242872,0.5497787199999999,-0.5653557766666667,-0.8164723500000001
419,1778516155030,1.9197462,0.9464576,-0.3383734,0.23335053,-0.3820962,-1.0329732
420,1778516155040,1.9197462,0.9464576,-0.3383734,0.2333505299999999,-0.3820962,-1.0329732
421,1778516155050,2.05821455,0.7950159,-0.252911095,-0.2044107825,-0.0273743924999999,-1.189774575
422,1778516155060,2.2405574,0.6603434,-0.15336262,-0.35033122,0.09086621,-1.2420417
423,1778516155070,2.4338919,0.53003093,0.155984705,-0.87097932,0.5784512024999999,-1.91189365
424,1778516155080,2.590593325,0.408590915,0.3297296075,-0.78786343,0.5309946,-2.8904617
425,1778516155090,2.5783823,0.4115484,0.2845288,-0.7878634300000001,0.5309946,-2.8904617
426,1778516155100,2.5783823,0.4115484,0.2845288,-0.78786343,0.5309946,-2.8904617
427,1778516155110,2.5783823,0.4115484,0.2845288,-0.78786343,0.5309946,-2.8904617
428,1778516155120,,,,,,
429,1778516155130,2.5783823,0.4115484,0.2845288,-0.78786343,0.5309946,-2.8904617
430,1778516155140,2.5783823,0.4115484,0.2845288,-0.29275718,0.076052725,-3.2904255
431,1778516155150,2.8137617,0.36752144,0.6451596,-0.29275718,0.076052725,-3.2904255
432,1778516155160,2.8137617,0.36752144,0.6451596,-0.29275718,0.076052725,-3.2904255
433,1778516155170,2.889213233333334,0.3560980133333333,0.6548349333333334,0.0564541199999999,-0.1616756716666667,-3.5800775666666667
434,1778516155180,3.0692034,0.30135906,0.5388729,0.51053065,-0.49877146,-4.057367
435,1778516155190,3.0692034000000006,0.30135906,0.5388729,0.51053065,-0.49877146,-4.057367
436,1778516155200,3.0692034,0.30135906,0.5388729,0.5677992625,-0.56520304,-4.352185625
437,1778516155210,3.1259547333333337,0.2771706533333333,0.48240619,0.5868888,-0.5873469,-4.4504585
438,1778516155220,3.2394574,0.22879384,0.36947277,0.5868888,-0.5873469,-4.4504585
439,1778516155230,3.2394574,0.22879384,0.36947277,0.5868888,-0.5873469,-4.4504585
440,1778516155240,3.2394574000000005,0.22879384,0.36947277,0.5868888,-0.5873469,-4.4504585
441,1778516155250,3.2394574,0.22879384,0.36947277,0.5868888,-0.5873469,-4.4504585
442,1778516155260,3.2394574000000005,0.22879384,0.36947277,0.5868888,-0.5873469,-4.4504585
443,1778516155270,3.2394574,0.22879384,0.36947277,0.5868888,-0.5873469,-4.4504585
444,1778516155280,3.3365364,0.110189356,0.20885365,0.38744128,-0.4297437,-4.849048
445,1778516155290,3.3365364,0.110189356,0.20885365,0.38744128,-0.4297437,-4.849048
446,1778516155300,3.3611717,0.03823394,0.123055965,0.15745051,-0.2510656,-5.0874386
447,1778516155310,3.3551957,-0.04734016,0.041018655,0.15745051,-0.2510656,-5.0874386
448,1778516155320,3.3522077,-0.09012721,0.0,0.15745051,-0.2510656,-5.0874386
449,1778516155330,3.3522076999999997,-0.09012721,0.0,0.15745051,-0.2510656,-5.0874386
450,1778516155340,3.3522076999999997,-0.09012721,0.0,-0.2596686433333333,-0.0266744466666666,-5.376581533333333
451,1778516155350,3.245006375,-0.15360652,-0.000960421875,-0.923170105,0.2203314625,-5.76534625
452,1778516155360,3.09109495,-0.220561645,0.05094809375,-1.0748174,0.26526824,-5.846744
453,1778516155370,2.9729173,-0.266357,0.10317675,-1.0748174,0.26526824,-5.846744
454,1778516155380,2.824737966666667,-0.3151403466666667,0.1848888433333333,-1.7012596666666664,0.4962771066666666,-6.054030866666667
455,1778516155390,2.72499135,-0.34655987,0.2438861925,-2.0144808,0.61178154,-6.1576743
456,1778516155400,2.6480205,-0.36764342,0.2983101,-2.0144808,0.61178154,-6.1576743
457,1778516155410,2.6480205,-0.36764342,0.2983101,-2.172695,0.7699956,-6.178902
458,1778516155420,2.6480205,-0.36764342,0.2983101,-2.172695,0.7699956,-6.178902
459,1778516155430,2.6480205,-0.36764342,0.2983101,-2.2284364,1.0311405,-6.23609415
460,1778516155440,2.6480205,-0.36764342,0.2983101,-2.2841778,1.2922854,-6.293286300000001
461,1778516155450,2.6480205,-0.36764342,0.2983101,-2.2841778,1.2922854,-6.2932863
462,1778516155460,2.6480205,-0.36764342,0.2983101,-2.2841778,1.2922854,-6.2932863
463,1778516155470,2.3276968,-0.45411184,0.4238662,-2.2841778,1.2922854,-6.293286300000001
464,1778516155480,2.3276968,-0.45411184,0.4238662,-2.2841778,1.2922854,-6.2932863
465,1778516155490,1.0155470533333333,-0.5165951866666667,0.6335125766666666,-0.7651087233333334,2.3418028,-5.802863466666667
466,1778516155500,0.6980742950000001,-0.50949619,0.5502760274999999,0.725249765,1.98691555,-5.32048375
467,1778516155510,0.5505809,-0.47624728,0.38361996,1.1523973,1.8029687,-5.2144985
468,1778516155520,0.5505809,-0.47624728,0.38361996,1.862871675,1.409037075,-5.01963225
469,1778516155530,0.5241972566666667,-0.4826501,0.33091363,2.2450824,1.1797335,-4.883562
470,1778516155540,0.47142997,-0.49545574,0.22550097,2.4567473,1.0447323,-4.775286
471,1778516155550,0.47142997,-0.49545574,0.22550097,2.4567473,1.0447323,-4.775286
472,1778516155560,0.4415196775,-0.5090388475,0.1852089825,2.4567473,1.0447323,-4.775286
473,1778516155570,0.372689445,-0.5409157125,0.151014915,2.750993525,0.9236664375,-4.560070725
474,1778516155580,0.34965453,-0.57296026,0.1411058,2.8490756000000004,0.88331115,-4.4883323
475,1778516155590,0.34965453,-0.57296026,0.1411058,2.8490756,0.88331115,-4.4883323
476,1778516155600,0.34965453,-0.57296026,0.1411058,3.0900618666666664,0.8740463833333334,-4.322787766666667
477,1778516155610,0.36337486,-0.5902783,0.111896776,3.393662,0.8923214,-4.1303654
478,1778516155620,0.36337486,-0.5902783,0.1118967759999999,3.5642968666666666,0.9286678666666668,-4.031812466666667
479,1778516155630,0.4175090825,-0.719264525,0.0655068715,3.6496143,0.9468411,-3.982536
480,1778516155640,0.4216709,-0.7372991,0.06158896,4.0333905,1.484708,-3.7618608
481,1778516155650,0.58972954,-1.106299275,-0.1526308549999999,4.2902594,1.7505871,-3.6377025
482,1778516155660,0.544437275,-1.1348223000000002,-0.190255,4.759671225,1.22291401,-3.7516288
483,1778516155670,0.4054505,-1.1693976,-0.23178181,5.3743925,0.13622294,-3.9623773
484,1778516155680,0.3166953182499999,-1.18375815,-0.2485968175,5.4189092500000005,0.0108428549999999,-3.9618429
485,1778516155690,0.0504297729999999,-1.2268398,-0.29904184,5.546554666666666,-0.5809837533333334,-3.867998766666666
486,1778516155700,0.050429773,-1.2268398,-0.29904184,5.712812,-1.5138768,-3.6813793
487,1778516155710,-0.75772715,-1.0796971,-0.734738,5.328425,-2.1216877,-3.1442761000000004
488,1778516155720,-0.86312965,-0.9652239825,-0.657782275,3.594331025,-1.46267865,-1.984663125
489,1778516155730,-0.9756667,-0.8005345,-0.6744296,3.086702,-0.9833403,-1.6592628
490,1778516155740,-0.9756667,-0.8005345,-0.6744296,2.4194336666666665,-0.4111632,-1.2695307333333334
491,1778516155750,-0.9756667,-0.8005345,-0.6744296,2.0857995,-0.12507465,-1.0746647
492,1778516155760,-1.0051603,-0.763947,-0.7286604333333333,1.3970489,0.2022473166666666,-0.7077382999999999
493,1778516155770,-1.0641475,-0.690772,-0.8371221,1.0526736,0.3659083,-0.5242751
494,1778516155780,-1.0641475,-0.690772,-0.8371221,1.0526736,0.3659083,-0.5242751
495,1778516155790,-1.0641475,-0.690772,-0.8371220999999999,1.0526736,0.3659083,-0.5242751
496,1778516155800,-1.0641475,-0.690772,-0.8371221,1.0526736,0.3659083,-0.5242751
497,1778516155810,-1.0786605,-0.667417,-0.87901473,-0.17180584,0.7113526,0.088728175
498,1778516155820,-1.1173823,-0.6811373,-0.8241945,-0.17180584,0.7113526,0.088728175
499,1778516155830,-1.1173823,-0.6811373,-0.8241945,-0.17180584,0.7113526,0.088728175
500,1778516155840,-1.1792151,-0.7791308,-0.6406471,-2.3977988,1.6600263,1.5364788
501,1778516155850,-1.1792151,-0.7791308,-0.6406471,-3.1629076,2.1039727,2.414445
502,1778516155860,-1.1792151,-0.7791308,-0.6406471,-3.1629076,2.1039727,2.414445
503,1778516155870,-1.1644784666666668,-0.8066527333333333,-0.5304780800000001,-3.1629076,2.1039727,2.414445
504,1778516155880,-0.844317525,-0.974523325,-0.163195495,-3.8831178,2.048536675,4.034803
505,1778516155890,-0.3348975999999999,-1.156287,0.07890704,-4.7300825,1.9043725,6.112469999999999
506,1778516155900,-0.16130515,-1.1614245,0.124245055,-4.7300825,1.9043725,6.11247
507,1778516155910,0.3594722000000001,-1.176837,0.2602591,-4.8055243,1.6508633,6.8074822
508,1778516155920,1.1196995,-1.1079915,0.46258798,-4.69564485,1.3949870999999998,7.04778145
509,1778516155930,1.1196995,-1.1079915,0.46258798,-4.5857654,1.1391109,7.288080699999999
510,1778516155940,1.21589415,-1.0932803,0.48272636,-4.514026899999999,1.0464121075,7.302894125
511,1778516155950,1.6258063333333332,-1.00997771,0.5484263333333333,-4.0563997333333335,0.5403102866666666,7.268838266666667
512,1778516155960,1.83468025,-0.871941115,0.48722354,-3.33814945,-0.120111385,7.0733615
513,1778516155970,1.742845566666667,-0.8148443,0.3353651066666667,-3.1047225,-0.32452217,7.034876999999999
514,1778516155980,1.7138195,-0.8161452,0.29532212,-3.0011810249999997,-0.4926628174999999,7.215273
515,1778516155990,1.66006635,-0.8411466249999999,0.325232385,-2.9666672,-0.5487097,7.275405
516,1778516156000,1.6063132,-0.86614805,0.35514265,-2.9666672,-0.5487097,7.275405
517,1778516156010,1.4880747,-0.87858784,0.42228076,-3.0752482,-0.13515393,8.027075
518,1778516156020,1.5750767,-0.873282655,0.4670699625,-3.0752482,-0.13515393,8.027075
519,1778516156030,1.8360826999999995,-0.8573670999999999,0.60143757,-2.9666672,0.034513887,9.292482
520,1778516156040,1.8360827,-0.8573671,0.60143757,-2.9666672,0.034513887,9.292482
521,1778516156050,1.8360826999999995,-0.8573670999999999,0.60143757,-2.9666672,0.034513887,9.292482
522,1778516156060,1.8360827,-0.8573671,0.60143757,-2.9666672,0.034513887,9.292482
523,1778516156070,2.582422025,-0.7169167974999999,0.68037507,-2.7756189499999997,-0.16432274325,9.4137765
524,1778516156080,2.8312018,-0.67010003,0.70668757,-2.7119362,-0.2306016199999999,9.454208
525,1778516156090,3.981025,-0.19684075,0.7505316,-2.7119362,-0.23060162,9.454208
526,1778516156100,3.981025,-0.19684075,0.7505316,-2.1765128666666667,-0.6303111133333333,8.806793333333333
527,1778516156110,3.981025,-0.19684075,0.7505316,-1.737300775,-0.937563595,8.08201475
528,1778516156120,3.981025,-0.19684075,0.7505316,-1.2227995,-1.2597568,6.878801
529,1778516156130,4.03572335,-0.044606258,0.69540643,-1.2227995,-1.2597568,6.878801
530,1778516156140,4.0904217,0.107628234,0.64028126,-1.2227995,-1.2597568,6.878801
531,1778516156150,4.0904217,0.107628234,0.64028126,-1.2227995,-1.2597568,6.878801
532,1778516156160,3.3857058,0.3425403246666667,0.55923994,-0.7418448999999999,-1.3569862,5.237915
533,1778516156170,2.5280135,0.5603376,0.51649356,-0.5013676,-1.4056009,4.417472
534,1778516156180,2.5280135,0.5603376,0.51649356,-0.5013676,-1.4056009,4.417472
535,1778516156190,2.0529246,0.7236398,0.60655975,-0.5013676,-1.4056009000000005,4.417472
536,1778516156200,2.0529246,0.7236398,0.60655975,-0.5013676,-1.4056009,4.417472
537,1778516156210,2.0529246,0.7236398,0.60655975,-0.45519638,-1.2905037,4.379038333333334
538,1778516156220,2.0566139,0.8283105500000001,0.563295025,-0.15859589,-0.51572299,4.3040038
539,1778516156230,2.0603032,0.9329813,0.5200303,-0.09911288,-0.27351493,4.2739186
540,1778516156240,2.0603032,0.9329813,0.5200303,-0.09911288,-0.27351493,4.2739186
541,1778516156250,2.120535375,0.966077725,0.4734879649999999,-0.09911288,-0.27351493,4.2739186
542,1778516156260,2.3012319,1.065367,0.33386096,-0.12023864,-0.11280646,4.181118000000001
543,1778516156270,2.552130675,1.1751295,0.2187017899999999,-0.3443752925,0.5872705699999999,3.3895003
544,1778516156280,2.7274762666666668,1.2524511333333332,0.1901940266666666,-0.4851288233333333,0.7364998666666667,2.2459478666666666
545,1778516156290,2.5621006,1.2270228,0.37429014,-0.2096795,0.29901853,0.38515055
546,1778516156300,,,,,,
547,1778516156310,2.4465451,1.112077,0.37599754,-0.2096795,0.29901853,0.38515055
548,1778516156320,2.4465451,1.112077,0.37599754,-0.2096795,0.29901853,0.38515055
549,1778516156330,2.4465451,1.112077,0.37599754,0.28787026,-0.16279559,-0.5412266
550,1778516156340,2.3520274,0.9860636,0.33559884,0.50239849,-0.3557908174999999,-0.87155195
551,1778516156350,2.2575097,0.8600502,0.29520014,0.5739079,-0.42012256,-0.9816604
552,1778516156360,2.2575097,0.8600502,0.29520014,0.5739079,-0.42012256,-0.9816604
553,1778516156370,2.2575097,0.8600502,0.29520014,0.5739079,-0.42012256,-0.9816604
554,1778516156380,2.20372605,0.8008089,0.249526745,0.625144225,-0.456850845,-1.054162475
555,1778516156390,2.1499424,0.7415676000000001,0.20385335,0.7788532,-0.5670357,-1.2716687
556,1778516156400,2.1499424,0.7415676,0.20385335,0.7788532,-0.5670357,-1.2716687
557,1778516156410,2.0634742,0.69558936,0.037868064,0.7788532,-0.5670357,-1.2716687
558,1778516156420,2.0634742,0.69558936,0.037868064,0.7977900333333334,-0.6070982666666667,-1.332348
559,1778516156430,2.0634742,0.69558936,0.037868064,0.8356637,-0.6872234,-1.4537066
560,1778516156440,2.0634742,0.69558936,0.037868064,0.8356637,-0.6872234,-1.4537066
561,1778516156450,2.0634742,0.69558936,0.037868064,0.8356637,-0.6872234,-1.4537066
562,1778516156460,2.0634742,0.69558936,0.037868064,0.8356637,-0.6872234,-1.4537066
563,1778516156470,2.12170925,0.74745218,-0.0464661279999999,0.569021,-0.6760751,-1.4909693
564,1778516156480,2.241025066666667,0.8234220666666667,-0.0874238036333333,0.3798563733333333,-0.6305656333333334,-1.5145894333333334
565,1778516156490,2.3631866,0.8716362,-0.0006707709,0.13988813,-0.53324717,-1.5714508
566,1778516156500,2.3631866,0.8716361999999999,-0.0006707709,-0.29626966,-0.30955598,-1.7066047
567,1778516156510,2.3631866,0.8716362,-0.0006707709,-0.29626966,-0.30955598,-1.7066047
568,1778516156520,2.5569785,0.8798074,0.14208147,-0.5028948400000001,-0.12171490475,-1.941520675
569,1778516156530,2.5569785,0.8798074000000001,0.14208147,-0.5717699,-0.059101213,-2.019826
570,1778516156540,2.5569785,0.8798074,0.14208147,-0.5717699,-0.059101213,-2.019826
571,1778516156550,2.6644238999999996,0.8444395333333334,0.24855109,-0.5823582333333334,0.2759583823333333,-2.448857
572,1778516156560,2.740221,0.8167702425000001,0.262423845,-0.5886832,0.4174882225,-3.02233215
573,1778516156570,2.7707105,0.79919297,0.17244908,-0.6444628,0.25411993,-3.8325686
574,1778516156580,2.71153025,0.7648464724999999,0.1147780325,-0.6444628,0.25411993,-3.8325686
575,1778516156590,2.629025425,0.72839618,0.0829469082499999,-0.71536135,0.2451096725,-3.916180825
576,1778516156600,2.4406912,0.6533918,0.045124583,-0.928057,0.2180789,-4.1670175
577,1778516156610,2.2492471,0.590735675,0.06607092575,-0.928057,0.2180789,-4.1670175
578,1778516156620,2.1854324,0.5698503,0.07305304,-0.928057,0.2180789,-4.1670175
579,1778516156630,2.1854324,0.5698503,0.07305304,-1.2687671,0.37598756,-4.366312
580,1778516156640,2.1854324,0.5698503,0.07305304,-1.2687671,0.37598756,-4.366312
581,1778516156650,2.1854324,0.5698503,0.07305304,-1.411251425,0.4890358099999999,-4.417968475
582,1778516156660,1.7499192,0.37990022,0.22854991,-1.6899587,0.91629785,-4.544379
583,1778516156670,1.5710062666666669,0.3001191433333333,0.3128434533333333,-1.6999362333333334,1.009658416666667,-4.558123666666667
584,1778516156680,1.3113569,0.19092578,0.43423265,-1.704925,1.0563387,-4.564996
585,1778516156690,1.3113569,0.19092578,0.43423265,-1.704925,1.0563387,-4.564996
586,1778516156700,1.3113569,0.19092578,0.43423265,-1.704925,1.0563387,-4.564996
587,1778516156710,1.137794975,0.1485757399999999,0.479418215,-1.49417635,1.400637675,-4.57576255
588,1778516156720,1.079941,0.13445906,0.49448007,-0.89919364,1.6247488,-4.529413
589,1778516156730,1.079941,0.13445906,0.49448007,-0.89919364,1.6247488,-4.529413
590,1778516156740,1.079941,0.13445906,0.49448007,-0.89919364,1.6247488,-4.529413
591,1778516156750,1.079941,0.13445906,0.49448007,-0.89919364,1.6247488,-4.529413
592,1778516156760,0.9326154,0.07768746,0.48935783,0.36346483,1.2991576,-4.3678393
593,1778516156770,0.9326154,0.07768746,0.48935783,0.36346483,1.2991576,-4.3678393
594,1778516156780,0.9326154,0.07768746,0.48935783,0.36346483,1.2991576,-4.3678393
595,1778516156790,0.75368727,-0.02620579895,0.4047644575,0.705473015,1.1807261,-4.3269876499999995
596,1778516156800,0.6627216,-0.09128582,0.33886123,1.0474812,1.0622946,-4.286136
597,1778516156810,0.401410615,-0.3126401949999999,0.192846625,2.0434207,0.632474605,-4.10894665
598,1778516156820,0.26708874,-0.4346798166666666,0.0908183106666666,2.9615765666666665,0.2657772866666666,-3.9095883
599,1778516156830,0.22537899,-0.4726495,0.053234816,3.360217,0.11056661,-3.8240163
600,1778516156840,0.17769329,-0.5055173,0.006219875,3.7226129,0.022296581,-3.6998582
601,1778516156850,-0.0790899804999999,-0.580384465,-0.30648129875,3.6859609,0.0061850115,-3.321427125
602,1778516156860,-0.33416584,-0.5558861,-0.641074,3.2157984,-0.11412999,-2.6015224666666668
603,1778516156870,-0.33416584,-0.5558861,-0.641074,3.022256,-0.19517145,-2.4194846
604,1778516156880,-0.33416584,-0.5558861,-0.641074,3.022256,-0.19517145,-2.4194846
605,1778516156890,-0.240547585,-0.5021481875,-0.6164689,3.022256,-0.19517145,-2.4194846
606,1778516156900,-0.2093414999999999,-0.48423555,-0.6082672,2.8105911333333338,-0.2866485133333333,-2.245286166666667
607,1778516156910,-0.048600398,-0.43283013,-0.4964314,2.17078605,-0.6036875700000001,-1.76280435
608,1778516156920,0.037288761,-0.393041225,-0.403255235,1.83900985,-0.84154325,-1.58740965
609,1778516156930,0.12510893,-0.3567281266666666,-0.3029445033333333,1.547678,-0.9843584666666666,-1.5509868333333332
610,1778516156940,-0.10884781,-0.33654402,-0.320689435,0.98555472,-0.97425373,-1.3231341
611,1778516156950,-0.34666657,-0.3094083,-0.3527035,0.5343034666666666,-0.98135502,-0.8693630333333333
612,1778516156960,-0.434750965,-0.304331775,-0.3979805349999999,-0.0514654015,-1.18145155,-0.382325275
613,1778516156970,-0.57424083,-0.34310945,-0.3248360366666666,-1.1285226333333334,-1.3962852,0.5597053
614,1778516156980,-0.54492509,-0.4393701525,0.127050085,-2.179490775,-0.7480045,2.60988355
615,1778516156990,-0.5055173,-0.45069703,0.23586741,-2.4097106,-0.5529858,3.1584787
616,1778516157000,0.0566039275,-0.582960805,0.4340801774999999,-2.50718195,-0.357928875,3.7743454
617,1778516157010,0.3301615466666667,-0.6350776733333333,0.5126925,-2.5357015,0.13362677,4.8557677
618,1778516157020,0.5025293,-0.65113556,0.5377753,-2.51378675,0.2129629,4.9535825
619,1778516157030,0.5025293,-0.65113556,0.5377753,-2.491872,0.29229903,5.0513973
620,1778516157040,1.2563537,-0.6421716,0.55686176,-2.0270545666666666,0.8309803533333334,5.3802465999999995
621,1778516157050,1.259829525,-0.641333125,0.53181457,-1.7672331,0.91996306,5.345529
622,1778516157060,1.1527503,-0.65387964,0.21708584,-1.1271991,0.54728436,5.395874466666666
623,1778516157070,1.1527503,-0.65387964,0.21708584,-1.0980303,0.49739704,5.437617
624,1778516157080,1.220437,-0.63625664,0.063540295,-1.0758864,0.15760323,5.913023
625,1778516157090,1.2469629666666666,-0.6188369266666667,0.0476247316666666,-1.1250101666666663,0.06724608,6.115779233333334
626,1778516157100,2.0125563,-0.13939838,0.09579827,-1.2341005,-0.2286163099999999,6.681339
627,1778516157110,2.0125563,-0.13939838,0.09579827,-1.1583532,-0.3034473,6.617045
628,1778516157120,2.2733035,0.17940071,0.15122834,-1.111125685,-0.29126818,6.523315375
629,1778516157130,2.2733035,0.17940071,0.15122834,-0.9033169733333332,-0.21818071,6.088901
630,1778516157140,2.31716275,0.2529720725,0.1645065525,-0.77106464,-0.14508049,5.78245
631,1778516157150,2.6920472666666666,1.013758333333333,0.1460654366666667,-0.14681129,-0.0208712326666666,3.8474328
632,1778516157160,2.74543455,1.338888975,0.04306653725,0.1610775274999999,-0.334525085,2.225000325
633,1778516157170,2.709304533333333,1.276985066666667,-0.20155647,-0.58653245,0.1659517233333333,-0.6567310333333333
634,1778516157180,2.676650075,1.179504775,-0.2489169475,-0.6872234,0.2640465,-0.7707592
635,1778516157190,2.6568015,1.1134796,-0.24245316,-1.067487,0.5509495666666667,-1.1432852
636,1778516157200,2.6369526,1.07241005,-0.19882257,-1.4722616,0.7784713974999999,-1.54442005
637,1778516157210,2.62722635,1.04257605,-0.0480210925,-1.683811875,0.6797402925,-1.84866915
638,1778516157220,2.8103876,1.1433187666666669,0.2222080933333333,-1.3322971666666668,0.119067816,-2.6673940000000003
639,1778516157230,2.9673684,1.1579335,0.2827604,-1.135904,-0.076816306,-2.9946141
640,1778516157240,3.0393644,1.0924011,0.2614176933333333,-1.135904,-0.076816306,-2.9946141
641,1778516157250,3.0724506,1.0391764175,0.2439929,-1.132162425,0.0173333029999999,-3.102393675
642,1778516157260,3.0637151999999994,0.97780097,0.22373258,-1.1362093666666666,0.4813109099999999,-3.644523866666667
643,1778516157270,2.9998548,0.943576415,0.2071919774999999,-1.19706685,0.8175668,-4.1293726
644,1778516157280,2.4965482,0.7107122,0.14433768,-1.2502885,1.0630583,-4.5048256
645,1778516157290,2.4965482,0.7107122,0.14433768,-1.3726143,1.2194397,-4.8754683
646,1778516157300,2.4965482,0.7107122,0.14433768,-1.3726143,1.2194397,-4.8754683
647,1778516157310,2.029854266666667,0.4807597566666666,0.1287067033333333,-1.4654657,1.3257303,-5.066058
648,1778516157320,1.7901654,0.37502187,0.12256813,-1.4654657,1.3257303,-5.066058
649,1778516157330,1.7901654,0.37502187,0.12256813,-1.491885625,1.376508475,-5.10274815
650,1778516157340,1.4559183333333332,0.2484291333333333,0.1626111166666666,-1.590489466666667,1.6467399666666669,-5.2087463000000005
651,1778516157350,1.2157416,0.155131,0.22147635,-1.5816828,1.7673858,-5.1786103
652,1778516157360,,,,,,
653,1778516157370,1.2157416,0.155131,0.22147635,-1.5816828,1.7673858,-5.1786103
654,1778516157380,0.94968957,0.049515083,0.30581054,-1.5816828,1.7673858,-5.1786103
655,1778516157390,0.3026396,-0.1878768199999999,0.33617815,0.5543602,1.3058772,-4.1996984
656,1778516157400,0.29745638,-0.19923927,0.3320722266666667,0.7022914266666667,1.2940671333333336,-4.120286
657,1778516157410,0.3190836733333333,-0.3799815233333333,0.2420873033333333,2.078570813333333,1.0582222,-3.779117766666667
658,1778516157420,0.172159437915,-0.65113556,-0.21670471395,4.15495265,0.4050418249999999,-3.487964175
659,1778516157430,0.00030489583,-0.71760285,-0.49021152,4.4173193,0.2237294,-3.4002287
660,1778516157440,-0.17501022,-0.661563,-0.65820915,4.04102635,0.166308065,-3.06234385
661,1778516157450,-0.20314194,-0.5729399333333333,-0.5967421166666667,3.1957924666666666,-0.11448633,-2.320167933333334
662,1778516157460,-0.201246495,-0.5073618875,-0.526448425,2.5354725250000003,-0.40771438,-1.86890405
663,1778516157470,-0.2009263533333333,-0.4655962566666667,-0.4583397666666666,2.3935227,-0.46822822,-1.7858646
664,1778516157480,-0.2034265,-0.44825786,-0.4308788,2.3935227,-0.46822822,-1.7858646
665,1778516157490,-0.2034265,-0.44825786,-0.4308788,2.3180299333333334,-0.4788674466666666,-1.7581211
666,1778516157500,-0.25684425,-0.38947394,-0.3447761999999999,2.1670444,-0.5001459,-1.7026341
667,1778516157510,-0.25684425,-0.38947394,-0.3447762,2.14016635,-0.498580565,-1.694311075
668,1778516157520,-0.25684425,-0.38947394,-0.3447761999999999,2.0595322,-0.49388456,-1.669342
669,1778516157530,-0.445559535,-0.37299431,-0.2988588949999999,1.886580925,-0.4006512425,-1.6195183000000002
670,1778516157540,-0.5362304666666667,-0.37372098,-0.3013793666666666,1.7226399666666667,-0.30136019,-1.5596408000000002
671,1778516157550,-0.626317,-0.3740462,-0.3141037,1.6694947,-0.26725355,-1.538006
672,1778516157560,-0.626317,-0.3740462,-0.3141037,1.6694947000000002,-0.26725355,-1.538006
673,1778516157570,-0.768916795,-0.3983311699999999,-0.35924353,1.5257123,-0.2429716499999999,-1.43064645
674,1778516157580,-0.86858724,-0.4389687066666667,-0.4016901066666666,0.97494095,-0.3181589833333333,-0.9549860433333331
675,1778516157590,-0.9728616,-0.5040538,-0.45649004,0.424933165,-0.5146157825,-0.4372268189999999
676,1778516157600,-1.001481133333333,-0.5340962,-0.4498636533333333,-0.11362094,-0.7522805299999998,0.093767814
677,1778516157610,-1.0157909,-0.5491174,-0.44655046,-0.27588203,-0.8225682225,0.293978893
678,1778516157620,-1.02024245,-0.58657386,-0.3601429625,-0.7626653,-1.0334313,0.89461213
679,1778516157630,-1.0073149,-0.60814524,-0.29672462,-1.1910854333333334,-1.0793480333333332,1.5838717766666666
680,1778516157640,-0.5618163199999999,-0.74815345,-0.102079125,-2.4439191,-0.399544075,4.092262625
681,1778516157650,0.4186829466666666,-0.9950377866666664,0.2022069199999999,-3.6212091,0.8950703,6.5558057
682,1778516157660,0.54826367,-1.0161569,0.231233,-3.9063306,1.4054482,7.2929673
683,1778516157670,1.5077506000000005,-0.94369328,0.2962571266666667,-4.0317106,1.6653714,8.017607
684,1778516157680,1.7143074,-0.91724867,0.29745638,-3.9918517,1.58214095,8.183380249999999
685,1778516157690,2.1756758,-0.7969977299999998,0.2366804733333333,-3.7690386,1.1563169666666668,8.235431166666666
686,1778516157700,2.50038975,-0.544970795,0.0231263477499999,-3.531412075,0.261946652,7.67930175
687,1778516157710,2.531733,-0.48100364,-0.037929043,-3.5667913,-0.1704823093333333,7.472918333333333
688,1778516157720,2.4460878,-0.38029657,-0.0577167814999999,-4.0190352,-0.6427066,7.448891
689,1778516157730,2.516854,-0.2338551,0.23629428,-4.530532966666667,-0.5902994666666667,7.526979933333333
690,1778516157740,2.516854,-0.2338551,0.23629428,-4.6442556,-0.5193882,7.5380774
691,1778516157750,2.516854,-0.2338551,0.23629428,-4.6442556,-0.5193882,7.5380774
692,1778516157760,3.0370064,0.4210916575,0.7958848325,-3.66068625,-0.43317983,5.95532535
693,1778516157770,3.082883133333333,1.4782976,1.2068184,-1.4143058,-1.6455183,3.057686
694,1778516157780,3.018225,1.5480171,1.232389,-0.917328725,-1.912504575,2.60618015
695,1778516157790,3.0483485333333333,1.6594870666666666,0.6842879166666668,0.4436408999999999,-0.5013676,0.062002823
696,1778516157800,3.0654228,1.4124604,0.450819,0.3552945,-0.05108358,-0.3705661385
697,1778516157810,2.9948088666666663,1.3277603333333332,0.4100645866666667,0.2669481,0.39920044,-0.8031351
698,1778516157820,2.208116575,0.88311558,0.2340837725,-0.19120082,1.4921147,-2.3375523
699,1778516157830,2.1268923,0.86877024,0.2294646,-0.2406809,1.3759739,-2.4631615
700,1778516157840,2.1268923,0.86877024,0.2294646,-0.2406809,1.3759739,-2.4631615
701,1778516157850,2.228971533333333,1.0844535,0.4868577,-0.3930917999999999,0.13912456,-2.349235
702,1778516157860,2.2880604,1.1031741,0.5311286,-0.389541135,-0.0474565955,-2.350151275
703,1778516157870,2.5330136999999997,1.22391285,0.6196703,-0.38835758,-0.109650314,-2.3504567
704,1778516157880,2.844922,1.331663,0.66638035,-0.4071416866666666,-0.0830776749333333,-2.8382326666666664
705,1778516157890,2.8646944999999997,1.310792925,0.6671273375,-0.42241332,-0.0025961774,-2.9831605
706,1778516157900,2.8840097,1.1899272666666667,0.6773362666666666,-0.52763486,0.39293906,-3.474907
707,1778516157910,2.8040051,1.0734164,0.6932722,-0.5965862900000001,0.926109965,-3.955849
708,1778516157920,2.694928625,1.022513975,0.7182430975,-0.6195701,1.1038336,-4.116163
709,1778516157930,2.369650533333333,0.8454964733333332,0.7811634433333333,-0.61529404,1.4181237,-4.4354925
710,1778516157940,2.2251909,0.76547146,0.8084618,-0.61529404,1.4181237,-4.4354925
711,1778516157950,2.2251909,0.76547146,0.8084618,-0.30848694,1.538006,-4.9955034
712,1778516157960,2.16517215,0.72857907,0.815291475,-0.132939545,1.41667285,-5.09232545
713,1778516157970,1.9851159,0.6179019,0.8357805,0.04260785,1.2953397,-5.1891475
714,1778516157980,1.8377901666666665,0.5353767666666667,0.8330567266666667,0.4052582166666666,1.0106765400000002,-5.3091824999999995
715,1778516157990,1.67177435,0.4309093,0.7875764350000001,1.07726085,0.551916755,-5.554674
716,1778516158000,1.3686367333333334,0.2636332866666667,0.6316628766666667,1.5679383,0.23548855,-5.7401480000000005
717,1778516158010,1.030364945,0.1367305475,0.478945625,1.711568025,0.1989511749999999,-5.748165725
718,1778516158020,0.55344695,0.01683025,0.30513975,1.8622227,0.27977628,-5.482668399999999
719,1778516158030,0.55344695,0.01683025,0.30513975,1.8622227,0.27977628,-5.4826684
720,1778516158040,0.45726245,-0.0148789166666666,0.27253623,1.8696549,0.3346523466666666,-5.344510799999999
721,1778516158050,0.3546853175,-0.05178656,0.24074576,1.89498035,0.4466188399999999,-5.0322315
722,1778516158060,0.162738154,-0.121592465,0.17004041125,1.9713385,0.5643631,-4.500320725
723,1778516158070,0.18671821,-0.13738607,0.03164819,2.3299928,0.1711949899999999,-3.3939673999999997
724,1778516158080,0.18671821,-0.13738607,0.03164819,2.3299928,0.17119499,-3.3939674
725,1778516158090,0.217512685,-0.1542468075,0.00977191225,2.3837488999999996,0.0500909519999999,-3.32012905
726,1778516158100,0.30605444,-0.22720838,-0.06945527,2.4627542000000004,-0.1188132933333333,-3.128800866666667
727,1778516158110,0.30605444,-0.22720838,-0.06945527,2.4469736,-0.09468412,-3.0535626
728,1778516158120,0.30605444,-0.22720838,-0.06945527,2.4469736,-0.09468412,-3.0535626
729,1778516158130,0.29006265,-0.2837208275,-0.06213777125,2.409863475,0.0359265144499999,-3.011260175
730,1778516158140,0.24989262,-0.34678853,-0.036892395,2.3988678,0.13408493,-2.968194200000001
731,1778516158150,0.24989262,-0.34678853,-0.036892395,2.3988678,0.13408493,-2.9681942
732,1778516158160,0.24989262,-0.34678853,-0.036892395,2.4717135,0.23915374,-2.8524354
733,1778516158170,0.16153382,-0.44398934,0.0062808543,2.5835018,0.2947425,-2.7203357
734,1778516158180,0.16153382,-0.44398934,0.0062808543,2.5835018,0.2947425,-2.7203357
735,1778516158190,0.1314710899999999,-0.4605553366666666,-0.0006910974666666,2.5835018,0.2947425,-2.7203357
736,1778516158200,0.07134563,-0.49368733,-0.014635001,2.8177686,0.21502456,-2.4883597
737,1778516158210,-0.11315701,-0.5016959466666667,-0.1280156066666666,3.2304590333333336,-0.7314093,-1.8667533
738,1778516158220,-0.09921311,-0.49978524,-0.1214705,3.28141545,-1.04236515,-1.6779705
739,1778516158230,-0.09921311,-0.49978524,-0.1214705,3.3161202750000003,-1.275181175,-1.538044175
740,1778516158240,-0.09661133,-0.50033406,-0.1148034433333333,3.34464,-1.4172074,-1.4515684999999998
741,1778516158250,-0.206932805,-0.48075978,-0.1701623625,3.303941,-1.37719565,-1.50792085
742,1778516158260,-0.2922121766666666,-0.4655556433333334,-0.2383878833333333,3.1812842666666667,-1.3271556,-1.5777631333333335
743,1778516158270,-0.4412910049999999,-0.4407574275,-0.3601277025,3.0066788,-1.2728904,-1.643533
744,1778516158280,-0.60790133,-0.41624376,-0.4533801,2.729142266666667,-1.2492703333333333,-1.6736689333333334
745,1778516158290,-0.60790133,-0.41624376,-0.4533801,2.590374,-1.2374603,-1.6887369
746,1778516158300,-1.0579276,-0.49356538,-0.6019254,1.6029104,-1.2154691,-1.5839735
747,1778516158310,-1.2064118,-0.5494833,-0.53643376,0.7687739,-1.1386528,-1.3176364
748,1778516158320,-1.29111185,-0.6078860925,-0.44941648,-0.1241583775,-0.8286386935,-0.6682102575
749,1778516158330,-1.545212,-0.78309447,-0.18836464,-2.4372505666666666,0.269646102,1.6763161333333334
750,1778516158340,-1.545212,-0.78309447,-0.18836464,-3.1136310666666667,0.90423324,3.3213253333333337
751,1778516158350,-0.2577437250000001,-0.7493577825000001,0.1970694275,-3.897243925,1.17354845,6.2687756
752,1778516158360,3.1540252999999994,-0.11457986,0.68272275,-4.3299656,-0.2565634,8.183609
753,1778516158370,2.721195375,1.0507168,0.91108975,0.5685628500000001,-1.1181125,4.19458245
754,1778516158380,2.6055179,1.1895816,0.6246096,2.4616342,-0.8790351,2.9191723
755,1778516158390,2.6055179,1.1895816,0.6246096,2.4616342,-0.8790351,2.9191723
756,1778516158400,,,,,,
757,1778516158410,2.6055179,1.1895816,0.6246096,2.1533,-0.5874997,1.9834795
758,1778516158420,2.6055179,1.1895816,0.6246096,2.1533,-0.5874997,1.9834795
759,1778516158430,2.4602046,1.4105701,0.102262065,2.1533,-0.5874997,1.9834795
760,1778516158440,2.4602046,1.4105701,0.102262065,1.3759739666666668,0.0525853,1.1585059666666666
761,1778516158450,2.63212005,1.426348375,-0.03869128125,0.8922068625,0.439212125,0.589943125
762,1778516158460,2.6894252,1.4316078,-0.08567573,0.6068946,0.6389651,0.1217149
763,1778516158470,2.6894252,1.4316078,-0.08567573,-0.060170226,0.86162543,-1.0690142
764,1778516158480,2.6894252,1.4316078,-0.08567573,-0.060170226,0.86162543,-1.0690142
765,1778516158490,2.7448858,1.28382485,0.027562585,0.04230241725,-0.350293035,-3.1380911
766,1778516158500,2.643447,1.0579276,0.06597946,0.059864793,-0.30787608,-3.5013267999999997
767,1778516158510,2.643447,1.0579276,0.06597946,-0.12431108175,-0.1966604324999999,-3.718718575
768,1778516158520,2.5370991,0.97767895,0.06780884,-0.36010506,-0.1250746633333333,-3.9126428333333334
769,1778516158530,2.5370991,0.97767895,0.06780884,-0.44730607,-0.10781772,-3.973373
770,1778516158540,2.4991498,0.9396279666666668,0.0922208299999999,-0.7693848,-0.047494773,-4.2664356
771,1778516158550,2.4232512,0.863526,0.14104481,-0.77988404,-0.04234059725,-4.2794928500000005
772,1778516158560,2.3544056,0.8104131,0.17324181,-0.81138176,-0.02687807,-4.3186646
773,1778516158570,2.3544056,0.8104131,0.17324181,-0.94383772,0.1859066633333333,-4.547535266666666
774,1778516158580,2.03046905,0.6395494724999999,0.2321019525,-1.0100657,0.29229903,-4.6619706
775,1778516158590,1.5993617,0.49563867,0.32032356,-1.0323622,0.4972443,-4.7111454
776,1778516158600,1.48929425,0.4552094949999999,0.34532501,-0.83566363,0.7326565199999999,-4.654335
777,1778516158610,1.3792268000000003,0.41478032,0.37032646,-0.7073819599999999,0.83658,-4.62425
778,1778516158620,1.1635435,0.28038222,0.40856043,-0.65992537,0.86273265,-4.619515825
779,1778516158630,0.66345334,-0.07799236,0.43575716,-0.0115300899999999,1.034653,-4.5883616499999995
780,1778516158640,0.54893446,-0.1636681,0.39032766,0.93477654,1.1114693,-4.535827
781,1778516158650,0.54893446,-0.1636681,0.39032766,0.93477654,1.1114693,-4.535827
782,1778516158660,0.54893446,-0.1636681,0.39032766,1.2211705133333333,1.0497719666666667,-4.494695466666666
783,1778516158670,0.33995885,-0.30898145,0.28050417,1.7599027,0.8547532,-4.386165
784,1778516158680,0.25385627,-0.3709362833333333,0.24233121,2.488257733333333,0.4645630133333333,-4.0560944999999995
785,1778516158690,0.17278447,-0.4311837,0.21281729,2.7015514,0.35430184,-3.9338195
786,1778516158700,0.13476396,-0.4604537,0.20238985,2.7015514,0.35430184,-3.9338195
787,1778516158710,0.13476396,-0.4604537,0.20238985,2.7015514,0.35430184,-3.9338195
788,1778516158720,0.13476396,-0.4604537,0.20238985,3.5678348499999997,-0.2948952,-2.4735461
789,1778516158730,0.1411057933333333,-0.4609821666666667,-0.0794965033333333,3.5101845,-0.3388775,-2.3938282
790,1778516158740,0.15232596,-0.44533083,-0.22306179,3.2614095,-0.42088616,-2.3354905
791,1778516158750,0.15232596,-0.44533083,-0.22306179,3.2614095000000005,-0.42088616,-2.3354905
792,1778516158760,0.1044573125,-0.411030055,-0.214921075,3.11720715,-0.463837625,-2.41898815
793,1778516158770,0.056588665,-0.37672928,-0.20678036,2.7773497,-0.6315837733333334,-2.6944247666666663
794,1778516158780,0.06273231775,-0.5187193,0.144124255,3.095407,0.17363845,-3.675118
795,1778516158790,0.03437700625,-0.526036825,-0.105402485,3.095407,0.17363845,-3.675118
796,1778516158800,0.0590481619999999,-0.5148674666666667,-0.1805796333333333,3.1948761999999995,-0.01109738,-3.2301535666666665
797,1778516158810,0.10201815,-0.5022244,-0.20440216,3.3938146,-0.38056904,-2.3402247
798,1778516158820,-0.88864946,-0.46667355,-0.36892396,3.3938146,-0.3805690399999999,-2.3402247
799,1778516158830,-1.17833098,-0.54454395,-0.327702045,1.791515055,-0.67279172,-1.7272978499999998
800,1778516158840,-1.5224059333333333,-0.7570563266666667,-0.00465474,-1.0454449633333334,-0.2131410733333333,2.5023585333333336
801,1778516158850,-1.290685,-0.8707215,0.13128816,-1.72947405,0.306921605,4.61943935
802,1778516158860,-0.65316816,-0.9986151666666668,0.1993815533333333,-2.1316652,1.2030482166666667,6.430731166666667
803,1778516158870,-0.33440974,-1.062562,0.23342825,-2.2327125,1.4349225,6.873303
804,1778516158880,-0.33440974,-1.062562,0.23342825,-2.4010057,1.7628044,7.543727399999999
805,1778516158890,-0.089182028725,-1.101116125,0.233931335,-2.4010057,1.7628044,7.5437274
806,1778516158900,0.88066113,-1.0601228,0.2163540899999999,-2.4998640666666665,1.8766798333333337,7.959879600000001
807,1778516158910,2.718192125,-0.4565815225,-0.12293400475,-3.34486905,1.89322415,8.580747500000001
808,1778516158920,2.279970366666667,-0.0696382073333333,0.214362097,-4.3233988000000005,1.2955433666666665,6.978422733333333
809,1778516158930,1.8035808,0.18342534,1.0054855,-4.5807257,1.1030699,6.5182376
810,1778516158940,1.978835,0.2736135,1.0972592,-4.5807257,1.1030699,6.5182376
811,1778516158950,1.978835,0.2736135,1.0972592,-3.767358675,0.8057694224999999,6.431494799999999
812,1778516158960,1.978835,0.2736135,1.0972592,-2.3145685,0.23487769,6.115372
813,1778516158970,1.978835,0.2736135,1.0972592,1.0824532333333332,-0.8335256366666668,3.2269974666666665
814,1778516158980,1.978835,0.2736135,1.0972592,2.7809641,-1.3677273,1.7828102
815,1778516158990,1.8026662,1.3668480999999997,0.21342708,2.7809641,-1.3677273,1.7828102
816,1778516159000,1.94538785,1.3766047499999998,0.5280491199999999,2.006272415,-0.7405214250000001,1.0050260249999998
817,1778516159010,2.0881095,1.3863614,0.84267116,-0.31780264,1.1410962,-1.3283265
818,1778516159020,2.1977501,1.3899591,0.91883408,-0.31780264,1.1410962,-1.3283265
819,1778516159030,2.362912275,1.3746228,0.987618525,0.22231677,0.962799925,-1.572710775
820,1778516159040,2.529477,1.3178208,0.9654831,1.842675,0.4279111,-2.3058636
821,1778516159050,2.613567,1.0845145,0.52356714,1.87909785,0.5112942,-2.5218808
822,1778516159060,2.613567,1.0845145,0.52356714,1.9155207,0.5946773,-2.737898
823,1778516159070,2.6537523,1.0250598,0.46319774,1.82656345,0.6682102249999999,-2.8194485
824,1778516159080,2.646099425,1.00301585,0.454965555,1.5425111,0.925002725,-3.0550898
825,1778516159090,2.1401045,0.62292254,0.62515841,1.347416,1.1082623,-3.2091806
826,1778516159100,1.625628375,0.3341048525,0.723716,1.441489275,1.9110156,-3.94393705
827,1778516159110,1.1918379,0.13891055,0.6619289,2.0677788,1.8956676,-3.886783
828,1778516159120,1.06501635,0.07520256275,0.601010675,2.311743075,1.898760075,-3.8314615
829,1778516159130,1.0227425,0.053966567,0.5807046,2.3930645,1.8997909,-3.813021
830,1778516159140,0.4469925275,-0.1224309182499999,0.164613261,2.3930645,1.8997909,-3.813021
831,1778516159150,0.25507587,-0.18123008,0.025916148,3.2630894,2.0711386,-2.9912543
832,1778516159160,0.25507587,-0.18123008,0.025916148,2.5808548,2.1305962,-2.3296873
833,1778516159170,0.327747785,-0.08922776425,0.1778457339999999,1.9976821,2.2058345,-1.93934445
834,1778516159180,0.6032669,0.02555027,0.6991871,1.7556267,2.251344,-1.8797851
835,1778516159190,0.4192317699999999,-0.1340322,0.7676667,2.8076893999999997,2.3758078,-2.64917
836,1778516159200,0.2431239606749999,-0.23133972,0.6785914325,3.222925,2.415514,-2.745992
837,1778516159210,-0.5916808666666666,-0.4748244799999999,0.1168157579999999,4.164166666666667,2.4690664,-3.0457741666666664
838,1778516159220,-0.7607761,-0.5029562,0.007561417,4.167781,2.4956899,-3.0182853
839,1778516159230,-1.188865075,-0.45379172,-0.28410194325,2.6476426,2.42620395,-0.57619864
840,1778516159240,-1.2776761666666667,-0.4136420133333333,-0.40669039,1.8883371333333336,2.4052310666666665,0.43692134
841,1778516159250,-0.8042847000000001,-0.455941225,-0.2993314875,0.21998785,2.7987173999999997,2.331787125
842,1778516159260,-0.5032813733333333,-0.4888903,-0.2379610333333333,-0.7139487,3.061504,3.300505
843,1778516159270,-0.0327458075,-0.46989021,-0.107612985,-1.11879965,3.05447895,3.6078465
844,1778516159280,0.5578984,-0.3822174,0.14244732,-1.803936,2.1473440333333333,4.2911756
845,1778516159290,0.5578984,-0.3822174,0.14244732,-1.77799965,0.88896166,4.98561475
846,1778516159300,0.5578984,-0.3822174,0.14244732,-1.7470746,0.73639804,5.1983104
847,1778516159310,0.62095086,-0.3169239625,0.1409228424999999,-1.8027397,0.76025997,5.3598843
848,1778516159320,0.81010824,-0.12104365,0.13634941,-1.969735,0.8318457599999999,5.844606
849,1778516159330,1.560334985,0.26338426875,0.68857671,-2.2103396,1.04358688,5.7506854999999995
850,1778516159340,1.9812334333333332,1.0829493666666667,0.7828302533333334,-2.4509442,1.255328,5.656765
851,1778516159350,1.7190026,1.2777575,0.5439342,1.4515685,-0.0983493,2.6041186
852,1778516159360,1.8096179,1.2738549,0.8266336,1.4515684999999998,-0.0983493,2.6041186
853,1778516159370,1.8096179,1.2738549,0.8266336,1.4515685,-0.0983493,2.6041186
854,1778516159380,1.8096179,1.2738549,0.8266336,2.0023653666666665,0.0952949799999999,2.481131
855,1778516159390,2.0329845,1.3305655,0.8505984,2.2777638,0.19211712,2.4196372
856,1778516159400,2.3596499000000004,1.5298046666666665,0.5013910333333333,2.2982786666666666,0.3189225666666667,1.2866857733333332
857,1778516159410,2.5705159,1.7732131,-0.011708,0.92343735,0.88896165,-0.509919765
858,1778516159420,2.499383775,1.69326955,0.28474221,0.458301635,1.19928115,-0.581925515
859,1778516159430,2.5955783666666665,1.5872471333333331,0.8221821,0.2665408633333333,1.5257886666666665,-0.7818566233333334
860,1778516159440,2.7114996999999996,1.5392972,1.1342735,0.68707068,1.517542,-1.1186469666666667
861,1778516159450,2.8351197,1.40938105,1.2529390500000002,1.312902125,1.441451025,-1.5449164
862,1778516159460,2.7444283666666665,1.1377899666666669,1.1143130133333334,1.973349266666667,1.5046119999999998,-2.2063434666666666
863,1778516159470,,,,,,
864,1778516159480,,,,,,
865,1778516159490,0.689339,-0.37456453,0.49667534,3.0503557,1.9685133,-4.822476
866,1778516159500,0.5763141,-0.43075684,0.43106174,3.0503557,1.9685133,-4.822476
867,1778516159510,0.48086646,-0.460545155,0.350752175,3.5979964250000003,1.6970982,-4.70140965
868,1778516159520,0.1945235399999999,-0.5499101,0.10982348,4.358625333333333,0.9637417,-4.3759332
869,1778516159530,0.19452354,-0.5499101,0.10982348,4.49383,0.7780896,-4.297437
870,1778516159540,0.01683025,-0.5739969,-0.05646671,4.651535133333333,0.3903938,-4.101247666666667
871,1778516159550,-0.0046953949999999,-0.57353955,-0.083084115,4.7303877,0.1965459,-4.003153
872,1778516159560,-0.06927233,-0.5721675,-0.16293633,4.74795,-0.1826487,-3.7285688
873,1778516159570,-0.0879624475,-0.50801744,-0.23464784,4.410905400000001,-0.58536162,-3.23712765
874,1778516159580,-0.066772185,-0.47624728,-0.23470882,3.962275666666667,-0.7076365133333334,-2.9093475666666664
875,1778516159590,-0.0002744054999999,-0.4545691975,-0.1902092725,3.8374555,-0.7110472,-2.8440359
876,1778516159600,0.021891521,-0.44734317,-0.17537609,3.719762166666667,-0.6651304666666666,-2.821739266666667
877,1778516159610,0.107628234,-0.43130565,-0.10488417,3.1867313,-0.33750305,-2.7620273
878,1778516159620,0.107628234,-0.4313056499999999,-0.10488417,2.9527699,-0.1150462885333333,-2.7592783
879,1778516159630,0.14805742,-0.41874394,-0.084212236,2.8357892,-0.0038179078,-2.7579038
880,1778516159640,0.133087039,-0.403697335,-0.03678568475,1.99176425,0.74055955055,-2.67280265
881,1778516159650,0.116592176,-0.4007551,0.026708877,1.6105970666666665,1.0920234133333333,-2.6325746999999997
882,1778516159660,0.049515083,-0.37721714,0.12189735,1.2111931,1.4202617,-2.598926
883,1778516159670,0.0495150829999999,-0.37721714,0.12189735,1.2111931,1.4202617,-2.598926
884,1778516159680,-0.1068202565,-0.3488008325,0.1997372674999999,1.218599825,1.420299875,-2.5567384
885,1778516159690,-0.7751062000000001,-0.2907487,0.28879735,1.7825556666666664,1.2974777666666666,-2.2140810666666666
886,1778516159700,-0.7751062,-0.2907487,0.28879735,2.4026856,1.2669345,-1.7418822
887,1778516159710,-1.129944,-0.3584355425,0.07090352775,2.4938573,1.388840325,-1.1204413675
888,1778516159720,-1.2276326,-0.38398582,-0.046283185,2.5738807,1.5308284,-0.15561792
889,1778516159730,-1.04009115,-0.3285862349999999,-0.235044215,2.45877085,1.53918955,0.439173945
890,1778516159740,-0.9289566,-0.30373722,-0.2936757,2.1394028333333335,1.6696474,1.3288355
891,1778516159750,-0.9289566,-0.30373722,-0.2936757,1.5976799000000002,1.9488129,2.2527182999999997
892,1778516159760,-0.62960994,-0.2830043,-0.38831535,1.4639386,2.0205896,2.4454463
893,1778516159770,-0.62960994,-0.2830043,-0.38831535,1.4639386,2.0205896,2.4454463
894,1778516159780,-0.2598017625,-0.280854785,-0.4598896275,0.6657286,2.3915756,3.0863966
895,1778516159790,0.7568937666666667,-0.28867538,-0.4029706666666666,-2.682563866666667,2.990389033333333,4.243121066666667
896,1778516159800,1.1139369499999998,-0.3469714675,-0.1265622595,-3.2717943,3.0155363,4.3252316
897,1778516159810,1.1278707,-0.34880084,-0.085004956,-4.0173554,2.8464794,4.4703116
898,1778516159820,1.15226235,-0.360158215,-0.0273643995,-4.0173554,2.8464794,4.4703116
899,1778516159830,1.2336288666666666,-0.4286225933333333,0.2039143333333333,-4.761694666666667,2.2714006,4.980027766666667
900,1778516159840,1.2056954,-0.532759775,0.49670584,-4.92785,2.0323486,5.1579933
901,1778516159850,1.3854670333333334,-0.4964924,0.6871133,-4.832402233333333,1.4754431766666667,5.936744900000001
902,1778516159860,2.245710325,-0.1408923605,0.9961862,-4.1892757750000005,0.3707570125,7.095238075
903,1778516159870,2.6667105,0.1682415279999999,1.08439255,-3.7286451,-0.098196595,6.7110419
904,1778516159880,2.9306588,0.39087647,1.1573846,-3.3841933999999996,-0.43463063,6.3039765
905,1778516159890,2.941513,0.6009497,1.2611711,-3.247003266666667,-0.51964271,6.120920666666667
906,1778516159900,2.941513,0.6009497,1.2611711,-2.8113164,-0.7461337175,5.5762072499999995
907,1778516159910,2.7102802,1.1388469,1.3357487,-1.521818,-0.9114109,4.1935897
908,1778516159920,2.7102802,1.1388469,1.3357487,-1.521818,-0.9114109,4.1935897
909,1778516159930,2.7102802,1.1388469,1.3357487,-1.521818,-0.9114109,4.1935897
910,1778516159940,2.4034329333333333,1.2410480333333334,1.1942363666666669,-1.521818,-0.9114109,4.1935897
911,1778516159950,2.2500093,1.2921486,1.1234802,-0.8535315,-0.56214875,3.3334916
912,1778516159960,2.0993909,1.3451190666666666,1.1207564,-0.45280387,-0.38000909,3.0213904333333335
913,1778516159970,2.0240817,1.3716043,1.1193945,0.01863139,-0.23350324,2.712089
914,1778516159980,2.0181055,1.4376448,1.1614093,0.4584543300000001,-0.18952094,2.3834434666666664
915,1778516159990,2.2974917666666665,1.5865763333333334,0.9302168833333332,0.9075421333333332,-0.12650001,1.9633718333333336
916,1778516160000,2.5314587,1.639242,0.56369141,1.5445728,0.105450612,0.2238821
917,1778516160010,2.1810724,1.4284979249999998,0.2451515,1.662126175,0.24575873,-1.0795898
918,1778516160020,2.026276733333334,1.373515066666667,0.147305345,1.5942055333333334,0.3066034666666666,-1.7386751666666669
919,1778516160030,1.8757191,1.39822185,0.04314276175,1.5123496,0.3135266,-1.8483255
920,1778516160040,1.8557790666666667,1.4615893,0.0061385695,0.9900598666666666,0.096160375,-1.9047287666666664
921,1778516160050,1.965312925,1.501139375,0.0633726,0.728915,-0.0125227375,-1.9329304
922,1778516160060,2.2295203,1.5670427,0.2205616499999999,0.7289150000000001,-0.0125227375,-1.9329304
923,1778516160070,2.283303975,1.57904035,0.2783698925,0.2231185375,-0.4805218875,-2.13863925
924,1778516160080,2.444655,1.6150332999999997,0.45179462,0.09666943,-0.56046885,-2.335185
925,1778516160090,2.605106375,1.5927301,0.599166055,0.09644035,-0.345597,-3.056655075
926,1778516160100,2.8142088666666667,1.4885828333333333,0.75347892,0.09636399,-0.27397305,-3.2971451
927,1778516160110,2.8616912,1.4111799,0.78400916,0.15286903,-0.21792617,-3.49147665
928,1778516160120,2.668280675,1.12209285,0.76452629,0.374231335,-0.050854532,-4.1082216
929,1778516160130,2.6038105,1.0257305,0.758032,0.5390886,0.060170226,-4.530635
930,1778516160140,2.426955675,0.9571137,0.7073735750000001,0.60868905,0.0645226409999999,-4.6528843250000005
931,1778516160150,1.8963912,0.7512633000000001,0.5553983,0.84956084,0.0542651953333333,-5.064734766666667
932,1778516160160,1.782893725,0.7071753749999999,0.52780522,0.86559606,0.04260785,-5.087286
933,1778516160170,1.32385775,0.5019804999999999,0.44703829,0.892703205,-0.086590145,-4.9816825
934,1778516160180,1.0570129,0.27184513,0.4723446,0.91981035,-0.21578814,-4.876079
935,1778516160190,0.975087365,0.192968575,0.4603622,1.047023,-0.26526824,-4.6900706
936,1778516160200,0.89316183,0.11409202,0.4483797999999999,1.2471832,-0.1981748666666666,-4.6076038666666665
937,1778516160210,0.73717713,0.019086478,0.40227956,1.5322027,-0.110413894,-4.5185704
938,1778516160220,0.67900302,-0.0122161613333333,0.3823190566666666,1.6197091666666663,-0.1045597693333333,-4.492252166666667
939,1778516160230,0.31605503,-0.19635291,0.24470939,2.2444715,-0.19303341,-4.20092
940,1778516160240,0.13915445,-0.2909926,0.15415533,2.2444715,-0.19303341,-4.20092
941,1778516160250,0.13915445,-0.2909926,0.15415533,2.4741569,-0.29932398,-4.000862
942,1778516160260,-0.0334775626666666,-0.3997997533333333,-0.0049189842,2.700686166666667,-0.4241441133333333,-3.612657
943,1778516160270,-0.08171208,-0.45844138,-0.09939604,2.83765995,-0.449329565,-3.1718414
944,1778516160280,-0.070552894,-0.5235061666666666,-0.1243568433333333,2.7743971,-0.19440787,-2.8354838
945,1778516160290,-0.05968336075,-0.80350727,-0.21220751,2.672611875,0.3566307775,-2.53211275
946,1778516160300,-0.1871857233333333,-0.961113,-0.3093676466666666,2.6842947,0.4222606,-2.4883597
947,1778516160310,-0.26775953,-1.0122542,-0.3503863,2.6880362,0.36537377,-2.39672985
948,1778516160320,-0.4105727,-1.033048,-0.39532796,2.630334866666667,0.0294742473333333,-1.9243272666666664
949,1778516160330,-0.5410834375,-1.0204711875,-0.47847304,2.4630087,-0.095333153,-1.6296739
950,1778516160340,-0.65477401,-0.8891372166666667,-0.5658460466666667,1.6409876,-0.2929098733333333,-0.7297803466666667
951,1778516160350,-0.63589078,-0.7892534000000001,-0.5159853866666667,0.8979209866666666,-0.2156354266666666,-0.1795434756666666
952,1778516160360,-0.59991306,-0.7658374,-0.47228366,0.63697976,-0.14080444,-0.012980887
953,1778516160370,-0.579881385,-0.7651970875,-0.42000926,0.5295056475,-0.0864374325,0.04791473975
954,1778516160380,-0.61040145,-0.7619347,-0.36422858,0.20708331,0.07666359,0.2306016199999999
955,1778516160390,-0.61040145,-0.7619347,-0.36422858,0.135726616,0.1242729025,0.2767219475
956,1778516160400,-0.6774378833333333,-0.7285587666666666,-0.3533742933333333,-0.3131193353333333,0.3958915933333333,0.66675941
957,1778516160410,-0.7570106000000001,-0.703226975,-0.3773086,-0.4914410775,0.4640285175,0.8825475625000001
958,1778516160420,-0.7723621,-0.7003457000000001,-0.38709575,-0.6742425,0.47525316,1.1523973
959,1778516160430,-0.79105225,-0.71339525,-0.43103124,-1.2001211,0.299629403,1.87291285
960,1778516160440,-0.7310792999999999,-0.7446166,-0.51021266,-1.7259997,0.124005646,2.5934284
961,1778516160450,-0.66913969,-0.746385,-0.495852075,-1.7259997,0.124005646,2.5934284
962,1778516160460,-0.3249783,-0.760024,-0.41419084,-2.9869783,-0.065515295,4.190383
963,1778516160470,-0.24580702,-0.7641909,-0.3949011,-4.032627,0.24953845,5.2264104
964,1778516160480,-0.24580702,-0.7641909,-0.3949011,-4.032627,0.24953845,5.2264104
965,1778516160490,0.813584,-0.87944156,0.05689356,-4.498640699999999,0.577420375,5.590256950000001
966,1778516160500,0.813584,-0.87944156,0.05689356,-4.9646544,0.9053023,5.9541035
967,1778516160510,1.1436846,-0.9255011866666668,0.2554417333333333,-5.0921726000000005,1.0515027,6.056779666666667
968,1778516160520,1.3087349,-0.948531,0.35471582,-5.3901987,1.5016595,6.37857835
969,1778516160530,1.3087349,-0.948531,0.35471582,-5.4331884,1.6594155,6.495024699999999
970,1778516160540,2.36207375,-0.8677640600000001,0.52243901,-4.50104605,-0.4849888000000001,8.175323925
971,1778516160550,3.7425356,-0.5142373,0.7628494,-3.8143953333333336,-2.123469366666667,9.770942333333332
972,1778516160560,4.778007425,-0.10980823075,0.772407895,-3.677905075,-1.15304633,9.225249
973,1778516160570,5.1231647,0.025001459,0.77559406,-3.6618316000000006,-0.56062156,8.73125
974,1778516160580,5.177192,0.6946747,0.89303994,-3.6618316,-0.56062156,8.73125
975,1778516160590,4.346351,1.0316455,0.9646295,-3.145956,0.1366811,3.6664133
976,1778516160600,,,,,,
977,1778516160610,,,,,,
978,1778516160620,3.051916,1.54679765,1.31407055,-2.71399795,-0.3258966,3.35930075
979,1778516160630,2.7822356,1.6607677,1.5346017,-2.2820399,-0.7884743,3.0521882
980,1778516160640,2.7822356,1.6607677,1.5346017000000003,-2.2820399,-0.7884743,3.0521882
981,1778516160650,2.7713203,1.797117,1.8021784,-1.534799,-1.144226975,2.70628565
982,1778516160660,2.8523006,1.890598,1.7901044,0.13164146,-1.4304937,1.7632625
983,1778516160670,2.6299706,1.8341315,1.0938443,1.6444491999999995,-0.57528234,-0.1731802999999999
984,1778516160680,2.6299706,1.8341315,1.0938443,1.86378805,0.0212275725,-1.0507646
985,1778516160690,2.2889344,1.5833037666666667,0.7698416733333332,1.9775235333333336,0.3317507233333333,-1.5466089666666667
986,1778516160700,2.1184163,1.4578899,0.60784036,2.115808075,0.43925029,-2.100574775
987,1778516160710,1.9181199666666664,1.2506421,0.4545793733333332,2.1551325,0.45646906,-2.251344
988,1778516160720,1.7704692,0.97676426,0.29160237,2.2421045,0.296040575,-2.38802505
989,1778516160730,1.7704692,0.97676426,0.29160237,2.4363850333333334,-0.17307849,-2.680985833333333
990,1778516160740,2.0047511499999997,0.723426375,0.163805295,2.509739775,-0.61960827,-2.9516627
991,1778516160750,2.0857517333333333,0.64312694,0.12984498,2.4743605333333334,-0.7994699000000001,-3.1379129666666667
992,1778516160760,2.1050618,0.60107166,0.013415418,2.0722077,-0.7512115,-3.4585662
993,1778516160770,2.1675045666666666,0.73254272,-0.0042685416666666,1.8692986,-0.6645195533333333,-3.482542666666667
994,1778516160780,2.3396183,0.82323402,0.14729518225,0.6897814139999999,-0.1882992049999999,-3.672140075
995,1778516160790,2.6539556999999996,0.8221617666666666,0.6397121466666666,0.0396044306666666,0.0475965826666666,-4.365752133333333
996,1778516160800,2.6683874,0.79882705,0.73723817,0.1108338635,0.0109192169999999,-4.668614025
997,1778516160810,2.5149028,0.6669901,0.8774901600000001,0.3498730699999999,-0.076358154,-5.007873
998,1778516160820,2.4070611,0.57158822,0.90480885,0.603229435,-0.216322652,-5.167385299999999
999,1778516160830,2.0709744000000003,0.3479268166666666,0.7562433,1.1987212333333332,-0.65780005,-5.476712333333334
1000,1778516160840,1.6144844,0.09140777,0.40447482,1.5601498,-1.2922854,-5.6624155
