id,timestamp,acc_x,acc_y,acc_z,gyro_x,gyro_y,gyro_z
0,2.38e-07,0.5199127514285714,0.8176653,1.2313523285714285,0.5401198571428572,0.7917016942857142,-1.2144080142857143
1,0.010000238,0.6527515,0.8684958,1.0110955,0.6270347,0.8304468399999999,-2.0814621
2,0.020000238,0.6434827,0.8294386000000001,0.8717582,0.6184828,0.72171605,-2.4041421
3,0.030000238,0.22492167,0.8040713,0.4085299399999999,0.2043284,0.42484426,-3.112725
4,0.040000238,-0.09866864714285714,0.7869884,0.7228688200000001,-0.14839225285714286,-0.029451568571428555,-3.0776448000000003
5,0.050000238,-0.2491253,0.7304135416666666,1.1106593166666665,-0.1330628975,-0.374143945,-2.9392442666666665
6,0.060000238,-0.17773684714285715,0.6935509285714286,1.2120916000000002,0.17919640357142858,-0.29613001857142857,-2.7285892857142855
7,0.070000238,-0.110616215,0.6893695,1.1575371,0.4278985,0.15851486,-2.6142735
8,0.080000238,-0.06908067999999999,0.7366631971428571,0.9835416571428571,0.5748509142857143,0.8135176557142857,-2.5650567142857144
9,0.090000238,-0.07894769149999999,0.7870936666666667,0.834357645,0.52502326,0.9752176316666666,-2.5766046166666667
10,0.100000238,-0.10347293314285715,0.8198213428571428,0.7847975271428572,0.3692571657142857,0.8601165857142857,-2.559122785714286
11,0.110000238,-0.1038649422857143,0.8212543357142856,1.0112218885714286,0.32265823714285713,0.5367165614285714,-2.510604142857143
12,0.120000238,-0.21702486,0.87898415,1.2068082,0.40957308,0.27701923,-2.496991
13,0.130000238,-0.26325576714285714,0.9185988385714285,1.6830032142857143,1.1130509114285714,-1.4691312528571427,-2.3500822
14,0.140000238,-0.09647920166666668,0.8669510133333334,1.3060620333333333,1.9510969666666664,-2.297498266666667,-2.370240133333333
15,0.150000238,0.15008715714285717,0.7184696285714286,0.9032234285714286,2.122017871428571,-2.5824441428571427,-2.615844342857143
16,0.160000238,0.26137704333333334,0.6231867783333334,0.5943893533333334,1.9077268833333332,-2.7252951333333333,-2.933339366666667
17,0.170000238,0.19474567714285712,0.5256447657142856,0.22959963428571428,1.2620758714285714,-1.863913157142857,-3.2523470857142853
18,0.180000238,-0.19599721333333334,0.5777013666666667,0.16746403833333334,0.6023971833333334,-0.40448270333333336,-3.36602295
19,0.190000238,-0.58017612,0.7803198666666668,0.40455612,0.18396682666666664,0.31224475,-3.2754138333333334
20,0.200000238,-1.024328,0.9744166,0.8075471,-0.26602398714285713,0.36672651285714286,-3.032965742857143
21,0.210000238,-1.178331,0.9831975999999999,0.9867039,-0.33932567,-0.06994201,-2.8915982
22,0.220000238,-1.2810808,1.0947286,0.9869477999999999,-0.06810947,-1.2562073,-1.8530052
23,0.230000238,-1.1097686342857143,1.1403279142857143,1.2101402857142856,0.36142523285714284,-1.3649381571428572,-1.0515735000000002
24,0.240000238,-0.74443364,1.0966798,1.6402482,0.8984036,-1.0705098,-0.5005893
25,0.250000238,-0.38008752285714287,0.8862799785714286,1.8112250428571428,1.9712258714285713,-1.8825877142857144,-0.5909947314285714
26,0.260000238,-0.41377413333333335,0.8217603666666667,1.6659458,2.891394533333333,-2.7210191666666668,-0.79827554
27,0.270000238,-0.6537358285714286,0.8971168,1.3302126714285714,3.3526132428571427,-3.2484420000000003,-0.8742532857142857
28,0.280000238,-0.9668116171428572,1.0823018285714288,0.9112857857142858,3.5086412142857144,-3.239017514285714,-0.5255468171428571
29,0.290000238,-0.9689081166666668,1.144462,0.8280615083333333,3.3277431833333337,-3.0282752333333334,-0.2990097216666667
30,0.300000238,-0.8605947,1.277273942857143,0.7707941142857143,2.9066948,-2.8018253428571427,-0.11767536228571429
31,0.310000238,-0.8488605000000001,1.3285226,0.8737095,2.744384,-2.8175329999999996,-0.09254335600000001
32,0.320000238,-1.0174984,1.4510298,1.6634201999999998,2.64054,-3.361187,0.13469182
33,0.330000238,-1.0358175,1.5875672666666667,2.694405266666667,3.404506216666667,-3.72301235,0.3586691416666667
34,0.340000238,-0.8972344285714285,1.3122760714285715,3.3762510857142862,4.714999114285715,-4.198593228571428,0.39979952714285716
35,0.350000238,-0.18986735142857142,1.2655224,3.1004466857142856,6.645756400000001,-4.844825857142857,-0.09585938142857144
36,0.360000238,0.050241753333333326,1.4165105,2.3311116666666667,6.5854935999999995,-5.015056333333333,-1.49387784
37,0.370000238,-0.15944310857142857,1.9696010000000002,0.9196834857142857,3.9048193571428578,-3.0831644714285713,-2.7278910571428567
38,0.380000238,-0.4057553866666667,1.9700337,1.9701251333333332,2.5713107,-1.2509134000000002,-2.838658
39,0.390000238,-0.4126808571428571,1.7816892285714285,3.2226532142857143,2.1005511,-0.741874,-2.8647208
40,0.400000238,-0.2072682,1.51643,3.8976665,2.3277862,-0.5867188,-2.8622775
41,0.410000238,-0.0882542742857143,1.1150127714285714,4.263959557142857,2.855732842857143,-0.6251149214285715,-2.8718765714285714
42,0.420000238,0.030016996333333334,0.4397817333333333,3.8175906166666667,5.2910319999999995,-0.5836645416666667,-2.9089055
43,0.430000238,-0.11658345542857143,0.24187387285714285,2.9365824857142857,6.351327771428571,-0.6654308514285715,-3.0539090857142854
44,0.440000238,-0.2133661,0.19711517,2.5170982,6.7932324,-0.69789296,-3.0382016
45,0.450000238,-0.36419807666666665,0.17280480166666667,2.3189005166666665,6.6111998000000005,-0.9634079333333334,-2.670675166666667
46,0.460000238,-0.2731300482857143,0.07026107428571429,2.4873141142857143,6.590082142857143,-1.4019381428571427,-2.399233457142857
47,0.470000238,0.04514491066666667,-0.29601319333333337,2.821445166666667,7.3550085,-2.1745144499999998,-2.3068900666666665
48,0.480000238,0.20421924285714285,-0.6693203714285715,2.6486476857142853,9.049702428571427,-2.7885614142857142,-2.4636561142857145
49,0.490000238,0.25555862999999995,-0.8628551666666667,2.309743633333333,10.0954725,-2.9918280833333335,-2.6578474
50,0.500000238,0.22077507999999998,-0.964538,1.8550168,11.02396,-3.11807,-2.9306924000000003
51,0.510000238,0.04116094,-0.9730751,0.98816746,11.327638857142857,-3.1117868857142854,-3.086720342857143
52,0.520000238,-0.03424997,-0.8321572666666667,-0.13455053333333333,10.780028999999999,-2.7599097666666665,-3.222473733333333
53,0.530000238,0.34106520285714287,-0.5321303342857143,-1.1157488714285715,9.539601357142857,-2.282954242857143,-3.3314082285714286
54,0.540000238,0.6048523857142857,-0.3878013742857143,-1.6370249285714285,7.023914585714286,-1.0968634771428571,-3.835444457142857
55,0.550000238,0.35110789333333337,-0.15471432333333332,-1.7803071666666668,4.7113123,0.04367558,-4.5457726
56,0.560000238,-0.21289570142857145,0.19530757,-1.5817647857142858,3.0039069142857144,1.2492916857142855,-4.116434328571428
57,0.570000238,-0.09853362142857143,0.09608575571428571,-1.0506449657142858,2.0059569571428573,1.8629314000000001,-3.6247894
58,0.580000238,-0.16725569333333334,-0.28047367666666667,0.02336519666666668,1.9105774666666668,1.9443776666666668,-3.343014333333333
59,0.590000238,-0.24552390428571427,-0.2895073257142857,0.5237718657142857,2.5934174000000003,1.3524158628571428,-2.9898574000000004
60,0.600000238,-0.2698415157142857,-0.3941780371428571,0.6963211128571428,3.52016,0.34176904,-2.6851318
61,0.610000238,-0.19873111,-0.5740579,0.64967203,4.396115,-0.57205844,-2.4896606999999995
62,0.620000238,0.07196558166666668,-0.6995479833333333,0.05296547999999999,5.312386083333333,-1.3732864066666666,-2.363291783333333
63,0.630000238,0.6007668,-0.7863874,-1.3585854000000002,5.1231977,-0.8999961360000001,-2.6647120714285717
64,0.640000238,0.49128736285714286,-0.8426841714285713,-1.9343723428571429,4.041998071428572,0.07247266257142858,-3.0256354428571433
65,0.650000238,0.026840995333333336,-0.7035776333333333,-2.029651,2.7409226833333338,0.7037978316666668,-3.004808633333333
66,0.660000238,0.04562548142857143,-0.5906703571428571,-1.721903542857143,1.3962878285714286,0.3286794542857142,-2.5906686714285714
67,0.670000238,0.26724990857142855,-0.7221109285714286,-1.2419322285714287,0.5724075371428572,-0.5270302942857142,-2.2266691857142855
68,0.680000238,0.38530993999999996,-0.7928729071428572,-0.907343842857143,0.31462996857142855,-1.0453778485714287,-2.0188066
69,0.690000238,0.5172863,-0.8566658500000001,-0.6057061,0.19984885833333332,-1.5836215500000002,-1.6394122500000001
70,0.700000238,0.7803809,-0.96551365,-0.32529336,0.23853585000000002,-1.7302248,-1.4755015
71,0.710000238,0.9345449857142857,-1.052330607142857,-0.057342193714285714,0.47920966,-1.7290032,-1.3472236
72,0.720000238,1.1166112428571429,-1.2526297857142856,0.2528501142857143,1.189145022857143,-1.428815457142857,-1.4725345571428572
73,0.730000238,1.0184131666666667,-1.4768747666666666,0.21835623666666668,1.83890475,-1.06969544,-1.7015150666666665
74,0.740000238,0.8156181571428572,-1.5851578285714285,0.13928512914285715,2.3405268285714285,-0.7753833428571429,-1.8299674571428572
75,0.750000238,0.4381527571428571,-1.6780247571428573,-0.08956968485714287,2.6328608428571427,-0.6575770428571428,-1.7617271142857143
76,0.760000238,0.18515454285714286,-1.7016671285714284,-0.36397157999999996,2.7105256428571427,-0.7460626285714287,-1.5388551714285714
77,0.770000238,0.06566440466666666,-1.6839091666666668,-0.6554142399999999,2.4976016666666667,-0.9361233999999999,-1.1924756666666667
78,0.780000238,-0.00905975771428571,-1.6666999714285713,-0.8990942371428572,2.057442714285714,-1.050613657142857,-0.8606401428571429
79,0.790000238,-0.10500612,-1.688879,-0.9573728999999999,1.628977,-1.1108258,-0.645971
80,0.800000238,-0.29411124,-1.6566559142857142,-0.9586273628571428,1.0844502571428571,-1.1610897714285715,-0.26166078285714284
81,0.810000238,-0.20123995999999997,-1.5330728142857144,-0.9277240000000001,0.29388297142857145,-1.2233961857142857,0.22649343857142856
82,0.820000238,-0.298066175,-1.6338453499999999,-0.5820461499999999,-0.5751127,-1.2114119,0.6547264666666667
83,0.830000238,-0.4380830642857143,-1.6200249142857144,-0.5030476328571429,-0.7958903285714286,-1.2192074714285714,0.8287888285714285
84,0.840000238,-0.7650184871428571,-1.5410916571428572,-0.3833890957142857,-0.9702436,-1.1385756571428571,1.2712167857142858
85,0.850000238,-1.1506507314285714,-1.3618564857142859,-0.21112292928571427,-0.9650077714285714,-1.0530570285714285,1.6289987571428572
86,0.860000238,-1.4267644285714287,-1.2162556,-0.07654192014285714,-0.7941450285714285,-1.0190241142857144,2.0899266857142855
87,0.870000238,-1.6438865666666667,-1.1304927666666666,-0.040906859999999996,-0.5262448816666666,-1.0731568500000002,2.4884899666666667
88,0.880000238,-1.78262695,-1.109782725,-0.11608147475,-0.1626380875,-1.153585075,2.8847452625
89,0.890000238,-2.0715537,-1.0331091,-0.1993714,0.24464433,-1.1963444,3.4065425
90,0.900000238,-2.2699494,-0.94331723,-0.33678794000000006,0.52563405,-1.1877925,3.875673
91,0.910000238,-2.3436732,-0.7966318,-0.71016335,0.83121043,-1.1425898,4.951986
92,0.920000238,-1.9636410666666666,-0.7072414833333335,-0.944567325,0.6382590383333333,-0.8758531783333333,5.73102
93,0.930000238,-1.1749813828571427,-0.52686438,-1.2038072,0.20816801142857141,-0.5169076914285714,6.124638371428572
94,0.940000238,-0.6826668466666667,-0.27950817066666667,-1.3673461166666667,-0.22815146,-0.25686127,6.0356293
95,0.950000238,-0.40074635999999997,-0.04295546571428571,-1.5113120714285715,-1.4311714857142857,0.1450762235714286,5.265438085714286
96,0.960000238,-0.47988426285714286,0.10214881714285715,-1.2594768,-2.640998057142857,0.48749973142857145,4.508161742857142
97,0.970000238,-0.5775032,0.137569,-1.0166752,-3.3208711666666666,0.6296817,4.089876866666667
98,0.980000238,-0.854478175,-0.17988092,-0.20425736100000003,-3.861471,0.645971,3.7192962
99,0.990000238,-1.1302081833333333,-0.34707309166666667,0.16030407666666666,-4.108253,0.5128063,3.5592542
100,1.000000238,-1.3960266000000001,-0.5286894,0.43831828,-4.040187285714286,0.41960844571428574,3.712140714285714
101,1.010000238,-1.5936905,-0.84447,0.29849303,-3.9396594,0.7107208,4.820043
102,1.020000238,-1.11057288,-0.9926087166666666,0.3836047083333334,-4.078932533333334,1.0673538166666667,5.8723292166666665
103,1.030000238,-0.1609414485714286,-1.0560328428571428,0.6686322428571428,-4.181205714285714,1.2370748142857144,6.729900714285714
104,1.040000238,0.6592370857142856,-1.0774713714285713,0.9074875857142858,-4.170559542857143,1.0459232285714286,7.099376142857143
105,1.050000238,1.1939162,-1.1096378500000001,1.1723396833333333,-4.077303633333334,0.7601994,7.192981083333334
106,1.060000238,1.5630092714285715,-1.1336288285714287,1.6161962857142858,-3.6214951714285712,0.3145427142857143,7.152606857142857
107,1.070000238,1.6294287142857142,-1.1107529142857142,1.8809938857142858,-2.9792329142857144,-0.05301282285714285,7.142484485714285
108,1.080000238,1.5439925,-1.0370117,1.9550836,-2.1596505166666664,-0.42871298333333335,7.231057249999999
109,1.090000238,1.5085462,-0.9549947285714285,1.8291399,-1.6831896,-0.6099310000000001,7.39904
110,1.100000238,1.7468092,-0.9870088,1.5553347,-0.8402204,-0.7223269,7.8779445
111,1.110000238,1.9711210333333333,-1.0491110166666668,1.1478007000000001,-0.6121707833333333,-0.48959406999999994,7.932513416666667
112,1.120000238,2.0523932,-1.0729328142857144,0.4465417057142857,-0.790829042857143,0.027444491428571433,7.841991571428571
113,1.130000238,1.8305641142857143,-1.098382957142857,0.11464954742857143,-1.6913923571428573,0.7378162,7.702020142857143
114,1.140000238,1.639333542857143,-1.1292471285714285,0.141737372,-2.589163314285714,1.0543223000000002,7.685789285714286
115,1.150000238,1.4717627999999998,-1.2139733,0.5176217,-3.6562262000000003,0.9526163,7.771657
116,1.160000238,1.5226716285714286,-1.316980214285714,0.7063870571428571,-3.937565014285714,0.6758152285714285,7.789633471428571
117,1.170000238,1.546836842857143,-1.4376012142857142,0.9669248714285714,-4.142111714285714,0.08311886714285713,7.7487939714285705
118,1.180000238,1.4846902999999998,-1.4836231,1.0767397,-4.037395,-0.41323817,7.736228
119,1.190000238,1.4239246,-1.5082892,1.0745444,-3.955715885714286,-0.5734546871428572,7.774973171428571
120,1.200000238,1.4155225142857142,-1.530215642857143,0.9747607428571429,-3.696193185714286,-0.8766094571428572,7.964161228571428
121,1.210000238,1.6319854500000002,-1.57917755,0.81414815,-3.4794878,-0.8469397,8.138165166666667
122,1.220000238,1.808624642857143,-1.5698564285714287,0.7866051285714286,-3.4433023714285715,-0.7642135285714285,8.1444485
123,1.230000238,1.9998465714285716,-1.5469804857142857,0.8018063571428572,-3.433005257142857,-0.6752044,8.0503781
124,1.240000238,2.0079349428571427,-1.4648633857142859,0.86152672,-3.364241257142857,-0.7094118285714286,7.807435071428571
125,1.250000238,1.770787142857143,-1.2726308714285715,0.9054665428571429,-3.226364385714286,-0.8869066171428571,7.6636242857142856
126,1.260000238,1.6194498999999998,-1.1989593428571428,0.8061315,-3.182383328571429,-0.9600337371428571,7.716331714285714
127,1.270000238,1.8288393,-1.187495257142857,0.6810110142857143,-3.1649304428571425,-0.8734679142857144,7.932746285714286
128,1.280000238,2.4730579999999995,-1.1992032857142856,0.6070214642857142,-3.1919823,-0.5549547,7.984232
129,1.290000238,2.7320192,-1.2088206,0.53131145,-3.265284,-0.18722469,7.777765300000001
130,1.300000238,3.1786306000000004,-1.0001804,0.5044502,-3.8443671428571426,1.0161007585714286,6.840551328571428
131,1.310000238,3.1082780857142858,-0.6199447342857143,0.85818164,-4.441819571428572,1.7315120571428573,5.7188612
132,1.320000238,3.2004763,-0.08986805400000002,1.3596068,-4.635363533333333,1.8547868333333335,4.771175366666667
133,1.330000238,3.2891858,0.05558251200000001,1.4994473,-4.5324867428571425,1.7475685714285714,4.094182099999999
134,1.340000238,3.456512633333333,0.24628978166666668,1.4477623833333333,-4.3061676,1.6711254,3.3747785
135,1.350000238,3.4879171,0.21652396714285713,1.2581003857142856,-4.644271600000001,2.2166992142857143,2.017148628571429
136,1.360000238,2.8703301666666667,0.35923844,1.7446240666666668,-5.229310566666666,2.547894783333333,1.46552445
137,1.370000238,2.3059273,0.6439705,2.459991,-5.4705954,2.5153162,1.6569232
138,1.380000238,2.2711951,0.7404046942857143,2.8022148857142857,-5.404623857142858,2.399080857142857,1.934422342857143
139,1.390000238,2.7923427333333333,0.8882682933333333,3.8968636999999995,-4.348927,2.0791714,3.0339255
140,1.400000238,3.7797325,1.0005157,4.959770999999999,-2.7106347,1.6821207,3.5103865
141,1.410000238,4.9803872,1.2496562666666666,5.442446449999999,-0.6632783166666666,1.0416218333333334,3.6386644166666664
142,1.420000238,6.584622214285714,1.4326489,5.157966357142857,3.4744338,-1.0064580857142857,2.725491342857143
143,1.430000238,7.482804333333333,1.3077795666666667,3.573755,5.7257259666666664,-2.4025640666666668,0.609931
144,1.440000238,7.395000228571428,1.1887540428571428,1.6028679885714285,5.466494028571428,-2.447010542857143,-1.9268957857142859
145,1.450000238,6.607153733333334,0.7576153666666666,0.19475731,4.269262416666667,-1.8255170383333332,-3.21901225
146,1.460000238,5.863695857142857,0.15681663142857144,0.04414456428571429,1.7600037457142856,-0.08525685000000004,-4.491843571428572
147,1.470000238,5.174204142857143,-0.23965249857142856,0.40665264857142863,0.04795152285714287,1.2210181999999998,-4.9906441428571435
148,1.480000238,4.828635,-0.39590725,0.79949784,-0.6997255,1.9215728,-5.108974
149,1.490000238,3.8319309,-0.60872453,2.48856,-1.5878974,3.6808128000000004,-5.023455
150,1.500000238,3.5263898499999997,-0.5979515616666666,3.0972894833333338,-0.6875085833333333,3.9117132,-4.763845166666667
151,1.510000238,3.408944657142857,-0.6209247714285714,3.3036771000000003,0.7497495428571429,3.5795868142857143,-4.518022428571429
152,1.520000238,3.4938666857142855,-0.6849398171428572,2.9014105714285714,2.1820554571428574,2.8870604714285717,-4.487654714285715
153,1.530000238,3.4503841666666664,-0.7043957833333333,2.6017116666666666,3.0589703833333335,2.4088252666666663,-4.667534783333333
154,1.540000238,3.1092145428571425,-0.67555335,2.1038771714285716,3.9461823571428574,1.9018511714285715,-5.055568214285714
155,1.550000238,2.8777289333333336,-0.6580160666666667,1.792696033333333,4.435616466666667,1.5790910333333332,-5.365529666666667
156,1.560000238,2.621477057142857,-0.6203628714285714,1.5055277285714286,4.608689628571428,1.3901356285714286,-5.551925228571428
157,1.570000238,2.5275257,-0.6006753,1.4188938,4.674661,1.228872,-5.6733966
158,1.580000238,2.3640099,-0.5955530399999999,1.2212298,4.6990952,1.1079242,-5.7784624
159,1.590000238,2.3310985285714283,-0.6719686457142858,1.0713081428571427,4.640453771428571,1.105829857142857,-5.9124997142857145
160,1.600000238,2.3436377499999996,-0.8641205166666667,0.8815758666666667,4.4824482833333334,1.2009766,-6.196281783333333
161,1.610000238,2.329134114285714,-1.1779215571428572,0.9302720714285714,4.347596357142857,1.4852532571428572,-6.615846885714285
162,1.620000238,2.27480755,-1.3353422166666666,1.0624603833333335,4.426657483333334,1.4884820333333335,-6.880227383333334
163,1.630000238,2.0137325857142856,-1.700661,1.2733669714285714,4.917255,1.0228855428571428,-7.382198357142856
164,1.640000238,1.7811405333333334,-1.9258440666666665,1.3050050000000002,5.399533333333333,0.4138489859999999,-7.571502766666666
165,1.650000238,1.6113962142857141,-2.0415260285714285,1.2429863571428572,5.816073314285715,-0.18338506714285716,-7.640499242857143
166,1.660000238,1.440084083333333,-2.08146795,1.0540808,6.092666950000001,-0.6463781866666667,-7.649080116666667
167,1.670000238,1.296378,-2.046042714285714,0.8243730428571429,6.154962514285715,-0.9338545457142857,-7.580112885714286
168,1.680000238,1.143024,-1.9531628,0.5064015,5.9537754000000005,-1.125486,-7.380104
169,1.690000238,1.1691536,-1.8104105,0.31629896,5.458989,-1.0680665,-7.1186614
170,1.700000238,1.253043457142857,-1.7095859,0.2537604628571429,4.827373,-0.9226848,-6.920747
171,1.710000238,1.327303,-1.6005203000000001,0.43734258,4.2495117,-0.77363807,-6.759483
172,1.720000238,1.438533342857143,-1.547986657142857,0.9526644571428572,4.045837685714286,-0.8526991485714286,-6.6158465714285715
173,1.730000238,1.4550035166666666,-1.5700712833333332,1.2748660333333335,4.12693475,-1.0973871,-6.48215825
174,1.740000238,1.2390923142857144,-1.5564845428571428,1.3617083714285714,4.917778571428571,-1.4401596285714287,-6.3449797142857145
175,1.750000238,1.1083776833333334,-1.472474133333333,1.2119355333333333,5.2433604166666665,-1.461248433333333,-6.218476
176,1.760000238,0.9984946642857142,-1.3448040428571428,0.9527254714285714,5.456371357142857,-1.3984475,-5.98999
177,1.770000238,0.9727854416666667,-1.2281610833333334,0.8061395083333333,5.43720235,-1.4121770833333336,-5.765838
178,1.780000238,0.9560924,-0.973319,0.67455155,5.256362442857143,-1.5239330285714285,-5.243883671428572
179,1.790000238,1.2768036142857144,-0.8384418,0.74742164,5.148853471428572,-1.7274324285714286,-4.852941642857142
180,1.800000238,1.4542007000000001,-0.8193465999999999,0.7951073599999999,5.155601716666667,-1.9810794999999999,-4.7025569166666665
181,1.810000238,1.5979286,-0.7924852400000001,0.8705386,5.2635183,-2.3679494999999995,-4.661834
182,1.820000238,1.5422952333333333,-0.7571884733333333,0.8140718933333334,5.398515333333333,-2.6128991666666663,-4.618463516666666
183,1.830000238,1.4214199714285713,-0.7442420142857143,0.89862818,5.610304857142857,-2.8135189142857144,-4.3787495
184,1.840000238,1.3813458166666666,-0.8114904166666667,1.08296455,5.874390583333334,-2.9340011666666665,-4.14159525
185,1.850000238,1.5935425857142858,-1.1703731714285712,1.0202598742857145,6.500898214285714,-2.9468581142857144,-4.124462657142857
186,1.860000238,1.7411993,-1.5129236,0.75214756,6.945769399999999,-2.6723258142857143,-4.409117457142857
187,1.870000238,1.4668844000000003,-1.7679385000000003,0.35584393,7.0913258,-2.3288553,-4.9232764
188,1.880000238,0.75062305,-1.8597121,0.1911087,6.953099942857143,-2.3665530428571424,-5.529585485714286
189,1.890000238,-0.09703817499999999,-1.8354984333333333,-0.08202715,6.589005716666667,-2.7749773333333336,-6.10098975
190,1.900000238,-1.21442626,-1.8894438571428573,-0.6318574171428571,5.867951542857143,-2.9688485285714283,-6.1680082999999994
191,1.910000238,-2.093610857142857,-2.1998670285714286,-0.2725507285714286,3.574089128571429,-2.2318176571428574,-4.895177257142857
192,1.920000238,-2.3260808,-2.41197,0.3333731,3.265640416666667,-2.059267983333333,-4.216933283333334
193,1.930000238,-2.584501857142857,-2.5614430571428572,0.3661189257142857,3.3358587428571425,-1.9523988285714284,-3.372945785714286
194,1.940000238,-2.7045175666666665,-2.531976933333333,0.08355161666666666,3.3279467166666667,-1.7322610666666665,-2.6657629166666665
195,1.950000238,-2.574318357142857,-2.4979940285714286,-0.3831713214285714,2.9337465999999996,-1.1869198428571426,-1.8519579285714285
196,1.960000238,-2.2979033166666665,-2.5096026166666667,-0.8713262416666666,2.179553933333333,-0.5952706633333333,-1.3639200500000002
197,1.970000238,-1.9922199,-2.5693877,-1.2036372,1.0963181,-0.07605048,-1.1664128
198,1.980000238,-2.076109842857143,-2.6070467,-1.2592763999999999,-0.23790318571428573,0.3417690342857143,-1.206205142857143
199,1.990000238,-2.5441830666666667,-2.765943866666667,-0.7480721133333333,-2.2545353333333336,0.7921671,-1.1525669666666667
200,2.000000238,-2.8836918714285713,-2.9382943142857143,-0.16102856142857142,-3.0792373714285715,0.7854186685714285,-0.9053193
201,2.010000238,-2.9988437,-3.0207148666666668,0.14187819999999998,-3.6177429,0.65085775,-0.13652435999999998
202,2.020000238,-2.9557952142857147,-2.993750342857143,0.21630182571428572,-3.882763271428572,0.7393433285714286,0.5195256
203,2.030000238,-2.844922,-2.8942237,0.20915854,-4.135741366666667,1.0361241833333334,1.1275222666666667
204,2.040000238,-2.4785504285714284,-2.6683438571428573,0.30175540714285715,-4.436212542857143,1.4065412285714287,1.7787436571428572
205,2.050000238,-2.1384565714285713,-2.5439419428571424,0.4381353057142857,-4.652059799999999,1.6590830142857145,2.3634117142857143
206,2.060000238,-1.7154863333333334,-2.3552085666666667,0.8716565266666666,-4.572599,1.7313956333333334,2.9796620333333332
207,2.070000238,-1.478257,-2.2362585,1.2400113000000001,-4.325715,1.6100407,3.3283541
208,2.080000238,-0.9753008,-2.0668888,1.3593476000000002,-3.4998492999999997,1.1396883,3.7816026
209,2.090000238,-0.7069663285714285,-1.8737547714285714,1.0185177,-2.8328041,0.988765362857143,4.108318371428572
210,2.100000238,-0.5514498200000001,-1.6532468666666666,0.6007362666666667,-2.2856886333333333,1.2512697166666666,4.78379945
211,2.110000238,-0.38936506857142855,-1.4374053,0.29635439714285716,-2.3100934,1.6274934142857143,5.796177014285715
212,2.120000238,-0.16016178285714286,-1.3753545857142857,0.2518657514285714,-2.546404142857143,1.693814,6.624136785714286
213,2.130000238,0.29279147333333333,-1.3368767666666665,0.24656927666666664,-2.888187766666667,1.6063756333333332,7.469898533333333
214,2.140000238,0.7467160285714286,-1.3070754142857142,0.2905613785714286,-3.1923315285714287,1.4896165428571428,8.013399942857143
215,2.150000238,1.4478995166666666,-1.28384525,0.35836439999999997,-3.5491245,1.4263793166666667,8.373698166666667
216,2.160000238,2.000160242857143,-1.2656705142857143,0.43266895,-3.8546643714285715,1.4812391285714288,8.3121262
217,2.170000238,2.6329281,-1.2283643,0.5686307,-4.2829556,1.6027105,7.881609399999999
218,2.180000238,2.7668165428571427,-1.0881688914285714,1.0110563428571429,-4.4628937,1.5103853142857144,7.106706014285714
219,2.190000238,2.6205231285714286,-0.8973650785714286,1.7227615571428572,-4.039314642857143,0.9083953285714285,6.108930771428571
220,2.200000238,2.0822861666666665,-0.7101634,2.1489260666666667,-2.7228516000000003,0.05263466666666664,5.590932133333332
221,2.210000238,1.4813189857142857,-0.5301049942857142,1.963119742857143,-1.231337157142857,-0.4652474742857143,5.684304571428571
222,2.220000238,1.3382436833333333,-0.480927455,1.6336166166666668,-0.5897730649999999,-0.47554461499999995,6.0152674
223,2.230000238,1.555813742857143,-0.44148044999999997,1.17495966,-0.144727166,0.010864352857142847,6.582773542857142
224,2.240000238,1.90010575,-0.44817657,0.8727185733333335,-0.070552856,0.44805645999999993,6.8052964
225,2.250000238,2.0430765,-0.44594067,0.72995114,-0.33688226,1.1213628,6.703896
226,2.260000238,2.073208928571429,-0.39113781000000003,0.4358398742857143,-0.8597675,1.6906725,6.415576
227,2.270000238,1.801233,-0.33831242,0.2889498,-1.4950485999999998,2.0058696,6.1028223
228,2.280000238,1.5297016285714287,-0.3347582085714286,0.2552892857142857,-2.076226085714286,2.058228,5.9384169
229,2.290000238,1.33855875,-0.47644037333333333,0.38549503333333335,-3.0221668333333334,1.9244233166666669,5.8163349
230,2.300000238,1.1182795428571428,-0.6916605428571428,0.7173763142857144,-3.5356275285714287,1.706030942857143,5.780818342857144
231,2.310000238,0.8848280666666667,-0.7090352433333335,1.0093881666666666,-3.5503461499999998,1.5004953833333332,5.943187583333334
232,2.320000238,0.7104508714285714,-0.7044356928571428,1.2095827857142858,-3.127581542857143,1.2728529857142856,6.353269757142857
233,2.330000238,0.7409230428571429,-0.7047754428571428,1.1512736428571428,-2.5123710285714287,1.0408401285714286,6.8358390857142854
234,2.340000238,0.9832585333333334,-0.6760760333333332,0.902573,-2.0940861,0.9110786666666666,7.098503333333333
235,2.350000238,1.315054942857143,-0.6573292714285713,0.5994165285714285,-1.839741042857143,0.9243864285714285,7.156446571428572
236,2.360000238,1.5315528,-0.6580262,0.39999285,-1.7943638999999998,1.037066,7.087508
237,2.370000238,1.910808342857143,-0.5971603142857143,0.3270007757142857,-1.9032692142857144,1.1909994285714287,6.841424000000001
238,2.380000238,2.084816733333333,-0.5553678,0.34859755333333337,-2.0201736833333332,1.1861126666666666,6.120333333333334
239,2.390000238,2.073557442857143,-0.4347248657142857,0.38950444285714286,-2.128584542857143,0.8157865285714285,5.2762585714285715
240,2.400000238,1.604170342857143,-0.31816318,0.37128038857142853,-2.221084171428571,0.5262449314285714,5.307673857142857
241,2.410000238,1.5715754000000002,-0.3074874533333333,0.2744875686666667,-2.3363888666666663,0.3633523066666666,5.934228666666667
242,2.420000238,1.9004157142857143,-0.36680276571428566,0.051875852857142864,-2.6416962285714285,0.5587070857142857,6.656773428571428
243,2.430000238,2.5600478,-0.38337603,-0.15602536333333333,-3.3683136333333334,1.0536606333333334,7.194609799999999
244,2.440000238,3.2193951285714286,-0.4976727614285714,-0.2179961695714286,-4.1768644,1.3622111999999997,7.275299814285715
245,2.450000238,3.999113942857143,-0.76441308,0.060835428285714276,-5.3152655,1.5093381714285716,6.7086084
246,2.460000238,4.4340086,-0.86251986,0.74361044,-6.201168499999999,1.2862916,5.827941
247,2.470000238,4.4438394714285705,-0.5766886957142857,2.1671212,-6.061895571428572,0.54771185,5.184457285714286
248,2.480000238,4.443440333333333,0.08037054,2.952733366666667,-4.581150833333333,-0.5785741666666667,4.938547533333334
249,2.490000238,5.024592,0.38916904,2.7291837,-3.2029777000000004,-0.8603784,5.028952600000001
250,2.500000238,5.7544619,0.36347141833333335,2.0625339833333336,-2.9798147,0.13652435333333332,4.6095044
251,2.510000238,5.969416142857142,0.28737304142857145,1.566920657142857,-3.7080610857142853,2.6432233614285714,3.008401014285714
252,2.520000238,5.059572142857142,0.22268285285714287,2.694534357142857,-4.3632384,3.4883087857142856,2.0627003714285714
253,2.530000238,4.547658883333333,0.31589749833333336,3.7366610833333334,-3.7169037333333335,2.7103802,2.013250766666667
254,2.540000238,4.343494114285714,0.5434114771428572,4.540234485714286,-1.7086707142857145,1.1614605771428572,2.127275557142857
255,2.550000238,4.402269,0.7982173,4.2500954,0.6038225,-0.18600298,2.1150587
256,2.560000238,4.285764,1.0301821,3.543041942857143,1.2709985857142858,-0.35564399714285716,2.0270967285714283
257,2.570000238,3.8272965,1.7151,2.400445,2.1120699142857147,-0.4006721742857143,1.8867762571428572
258,2.580000238,3.728627166666667,2.3060491333333335,1.5192756,1.8810532333333334,0.059150365,1.5907480833333334
259,2.590000238,4.119038342857142,2.9715365714285715,0.5089844257142857,0.7206688828571428,0.78600772,0.9528781000000001
260,2.600000238,4.4000026,3.0251257333333332,0.7683477066666667,-0.3759764933333334,1.3917646000000001,0.007228366666666671
261,2.610000238,4.621375771428572,2.8646619142857146,1.484141542857143,-1.4870204000000002,1.9210491714285713,-1.6258135857142857
262,2.620000238,4.3629121,2.4540202,2.147589883333333,-1.5976710166666666,1.8733158666666665,-2.927027266666667
263,2.630000238,3.6078498,1.979766957142857,2.524746642857143,-1.1983514599999998,1.7096960857142858,-4.333546714285714
264,2.640000238,2.865045,1.6321075,2.7316227000000004,-0.6480071226666667,1.6082081666666665,-5.108363083333333
265,2.650000238,2.025540642857143,1.1985194057142858,2.768545742857143,0.132619302,1.5953803285714285,-5.528887857142857
266,2.660000238,1.5864645,0.80065644,2.6591491999999994,0.84587073,1.6833423,-5.541454
267,2.670000238,1.3627471666666666,0.5415458233333333,2.604648866666667,1.6411939,2.057181,-5.2665725
268,2.680000238,1.4090499571428572,0.11751992,2.4765904,2.6731766857142856,2.335552642857143,-4.789413285714285
269,2.690000238,1.6691217666666667,-0.16586333333333333,2.403778433333333,3.363986666666667,2.3218813833333334,-4.516248133333334
270,2.700000238,2.0634653,-0.3745862999999999,2.362977642857143,4.3416624285714285,1.9522897285714287,-4.372291785714286
271,2.710000238,2.7412066999999998,-0.6516030533333333,2.2204343333333334,5.2848979,1.6018960833333333,-4.504845666666666
272,2.720000238,3.2445579285714286,-0.9760848571428572,1.9859521714285715,6.038465257142858,1.520857014285714,-5.086808857142857
273,2.730000238,3.3796223714285714,-1.3194977142857145,1.5878495714285716,6.485191028571429,1.435512942857143,-5.756995428571429
274,2.740000238,3.3353775999999997,-1.5897065000000001,1.1939720666666667,6.645611,1.34981975,-6.296460733333333
275,2.750000238,3.2628124,-1.7061971,0.9871918,6.609978,1.300952,-6.6812944
276,2.760000238,3.0717341999999994,-1.8999888000000003,0.79218036,6.369304,1.2826265,-6.963506
277,2.770000238,2.9736185,-1.9992934,0.6916257,6.0790248333333325,1.3040061666666667,-7.0907659999999995
278,2.780000238,2.919695657142857,-2.04863,0.7707418314285714,5.360032028571429,1.2669190428571429,-7.1916141428571425
279,2.790000238,2.93601475,-2.0688097333333335,0.9240173,5.2289035,1.1640967666666666,-7.235333399999999
280,2.800000238,2.9622592142857145,-2.173140857142857,1.1720544142857143,5.136636314285714,0.8861212,-7.3858634
281,2.810000238,2.922624766666667,-2.25694075,1.23037665,5.208949283333333,0.8131394783333333,-7.461346549999999
282,2.820000238,2.794039342857143,-2.2940711,1.2661191428571428,5.425828785714286,0.6829708671428572,-7.611200599999999
283,2.830000238,2.7494983714285715,-2.3243385714285716,1.329080214285714,5.6474793,0.39465095857142857,-7.713604857142856
284,2.840000238,2.7095788000000005,-2.340716,1.358372,5.866424516666666,0.07605048833333333,-7.789117166666666
285,2.850000238,2.4692597999999997,-2.427332457142857,1.3969021428571426,6.1417638000000006,-0.3219601385714285,-7.821637142857143
286,2.860000238,2.3540094,-2.4622474,1.3395903999999998,6.3827430000000005,-0.63925165,-7.845721999999999
287,2.870000238,1.9312668285714287,-2.3257368142857144,1.1574672857142858,6.536676428571428,-0.8664868128571428,-7.856193885714285
288,2.880000238,1.6531655333333333,-2.2065007666666667,1.2409159,6.838435166666667,-1.3181066333333333,-7.486493233333334
289,2.890000238,1.540860857142857,-2.1185600285714288,1.3975293142857144,7.1780663,-1.7644323,-7.0905623
290,2.900000238,1.5557223714285715,-2.092138685714286,1.2397936285714286,7.6637770000000005,-2.448232128571429,-6.8690865714285705
291,2.910000238,1.5173649833333334,-2.0081354,0.8378487,8.218338666666666,-3.3544676333333334,-6.6916788333333335
292,2.920000238,1.5201584285714287,-1.9314280000000001,0.21591417999999998,8.304992,-3.7404359857142855,-6.788629
293,2.930000238,1.47836375,-1.9752676166666667,-0.29914854166666666,8.045061883333334,-3.724437633333333,-7.0691825
294,2.940000238,1.35389,-1.9661207,-0.5124994,7.7620363,-3.5920873,-7.29825
295,2.950000238,0.3325499,-1.7838234999999998,-0.8761182,6.4047337,-2.754005,-8.096169
296,2.960000238,-0.63890056,-1.6223159285714286,-0.9009977400000001,5.578388242857143,-2.364458942857143,-8.155857857142857
297,2.970000238,-1.9091183285714286,-1.5575343142857143,-0.8066672214285714,4.5170625285714285,-2.1862659,-7.198071671428572
298,2.980000238,-2.0476398000000002,-1.5590340999999999,-0.81875708,3.53115535,-2.7643892499999994,-5.05094335
299,2.990000238,-1.5803274999999999,-1.4531205428571428,-1.0278778942857143,2.966907085714286,-3.2329090571428574,-4.262339542857143
300,3.000000238,-1.1829857566666666,-1.4710106666666667,-1.2347061666666668,2.1673370833333334,-3.4978131666666665,-3.9469387166666667
301,3.010000238,-0.8500974785714286,-1.5746606857142855,-1.1905921485714288,0.7877094285714286,-3.121560457142857,-3.9598827714285716
302,3.020000238,-0.5373788933333333,-1.8799674,-0.8605888466666668,-0.28007346666666666,-2.451024633333333,-4.20430885
303,3.030000238,-0.38325842857142856,-2.472992714285714,-0.5309325657142857,-1.370784885714286,-1.3572590371428572,-4.89413
304,3.040000238,-0.8002427142857143,-2.994185857142857,-0.12170572571428573,-1.9214201,-0.62336963,-5.526793500000001
305,3.050000238,-1.7603772,-3.3464450000000006,0.5274088,-2.0753536,0.010689827,-5.9849286
306,3.060000238,-3.005023,-3.6324682000000004,1.0081686,-1.4973175428571428,0.04419916357142857,-5.711618314285714
307,3.070000238,-3.6957542166666664,-3.5379704833333334,0.7713204433333334,-0.2880144883333334,-0.28251685833333334,-4.040169
308,3.080000238,-3.5976489571428574,-3.3841696142857143,0.2314333702857143,0.41620514000000003,-0.5275538671428571,-1.9231652428571429
309,3.090000238,-2.8031208666666667,-3.2366929,-0.21279696866666667,0.48206029666666667,-0.26948545133333335,-0.76366082
310,3.100000238,-1.8704967142857143,-3.0713203,-0.6555086071428572,0.12090411571428569,0.21907600714285716,0.5277284142857143
311,3.110000238,-1.2137293666666666,-3.0298212,-0.9419349666666667,-0.6309034133333333,0.6268311066666666,1.1377030666666668
312,3.120000238,-0.8669756914285714,-3.0214961428571425,-1.1293297714285715,-1.402898,0.9561286857142858,1.4007164142857143
313,3.130000238,-0.90669924,-2.9256890000000007,-1.2326634,-2.3746688,1.3583716,1.5860649
314,3.140000238,-1.16520004,-2.8311204166666664,-1.1720653166666668,-3.5218399,1.7920731000000003,2.1003983
315,3.150000238,-1.4819157,-2.7185123,-0.85245824,-4.359573357142858,1.8967898142857142,2.8712439285714284
316,3.160000238,-1.4289858000000002,-2.608201,-0.09759716,-5.035672,1.4096828,4.2091956
317,3.170000238,-0.7675317885714286,-2.4580789,0.8129350571428571,-4.6532817,0.12552911,5.6642337
318,3.180000238,0.19450176571428573,-2.270014757142857,1.0378393571428572,-3.688164785714286,-0.7136004857142856,6.589056642857143
319,3.190000238,0.9519153,-2.074018383333333,0.9900679916666668,-2.6230800000000003,-1.061957933333333,7.142484199999999
320,3.200000238,1.4529027428571428,-1.8640373428571428,0.8705908785714287,-2.226494642857143,-0.9987788999999999,7.111941985714286
321,3.210000238,1.6972738666666667,-1.7053943,0.7446775833333333,-1.9234562333333332,-0.9011015133333333,6.873711433333334
322,3.220000238,1.7583037142857145,-1.6084823857142858,0.6434260142857143,-1.8434061,-0.7479824714285714,6.663230928571428
323,3.230000238,1.7087276000000002,-1.4936236999999999,0.567899,-1.8652220999999998,-0.5708368,6.558514
324,3.240000238,1.591386457142857,-1.356629642857143,0.6114119857142857,-1.9510897285714286,-0.3519789142857143,6.592023657142858
325,3.250000238,1.5241351714285716,-1.272487157142857,0.7056901299999999,-1.9852971714285716,-0.14376726571428572,6.781910085714286
326,3.260000238,1.6031067833333335,-1.1872339166666668,0.8151339466666667,-1.8381411833333334,-0.120031488,7.14105885
327,3.270000238,1.6735036285714284,-1.0870800142857144,0.9366051657142858,-1.635718057142857,-0.31044130285714283,7.444591714285714
328,3.280000238,1.7358330000000002,-1.0507015,0.9918261999999999,-1.4681714,-0.5586198,7.622609999999999
329,3.290000238,2.5876946142857142,-0.9452250285714285,1.0852201285714285,-0.9869982285714285,-0.9197178285714286,7.654897928571429
330,3.300000238,3.0742735142857143,-0.8668450214285714,0.9575733142857142,-0.7197962257142858,-0.8150011285714286,7.0342769857142855
331,3.310000238,3.076612466666667,-0.6776208333333334,0.6920424,-0.7188654400000001,-0.5655427333333334,6.312953866666668
332,3.320000238,2.7655924,-0.5255097257142858,0.4771576357142857,-0.9154419285714285,-0.2507528,5.712752614285714
333,3.330000238,2.1215516333333335,-0.4082402783333334,0.38845256333333333,-1.3785804666666668,0.19353678333333332,5.255170000000001
334,3.340000238,1.5108198,-0.29047427,0.42709813,-1.8041373,0.3991887,5.2134285
335,3.350000238,1.0947286,-0.2790102,0.5405803,-2.2427256,0.42850934999999996,5.665456
336,3.360000238,1.2877972857142856,-0.41212770857142855,0.6737588142857144,-2.4554750285714286,0.4543394542857143,6.212775
337,3.370000238,1.7723638285714287,-0.6282553071428572,0.8097990142857142,-2.687422542857143,0.5269430185714286,6.818560857142857
338,3.380000238,1.9795057,-0.7710206350000001,0.7491138500000001,-2.7399554333333334,0.5751126833333333,6.707968166666666
339,3.390000238,1.8268573857142858,-0.8094374614285714,0.7209610885714286,-2.7902194142857146,0.6204899214285715,6.466538242857142
340,3.400000238,1.60001205,-0.803791775,0.7240158500000001,-2.8452246666666667,0.5201364833333333,6.345939433333332
341,3.410000238,1.4026603142857144,-0.80818738,0.6893825142857143,-2.9137849428571427,0.2546796742857143,6.427094714285714
342,3.420000238,1.3483155166666665,-0.715463475,0.66731535,-2.98531225,0.145890685,6.539374250000001
343,3.430000238,1.2631226000000002,-0.5071942,0.6494281,-3.033162,0.24769856000000004,6.6208205
344,3.440000238,1.1018326,-0.36320715000000003,0.6585750166666666,-3.0722563,0.65207946,6.778419500000001
345,3.450000238,1.0744529571428572,-0.3875705114285714,0.7489548285714286,-3.062657228571428,0.7629045885714286,6.995706285714285
346,3.460000238,1.618465557142857,-0.7080029857142857,0.8095899328571429,-2.8650918142857145,0.46079699,7.382809142857143
347,3.470000238,2.2029436,-0.8513911466666667,0.5849935,-2.8584598,0.14304006633333335,7.845773
348,3.480000238,2.7176715714285713,-0.7284136,0.4974245057142857,-3.258826542857143,-0.03172042642857143,8.20592557142857
349,3.490000238,3.500935933333333,-0.58020157,0.480505675,-3.821562333333333,-0.10170607,8.442927333333333
350,3.500000238,4.476881571428572,-0.20291253571428575,1.0464722285714285,-4.466253514285714,0.24944383714285714,8.263760142857143
351,3.510000238,5.126222714285714,0.09201320642857143,1.8112512571428572,-4.457068842857143,0.4730139285714286,7.765548542857142
352,3.520000238,5.570538333333334,0.20184104666666666,2.231238,-3.8484396000000003,0.2310020766666667,7.014613766666667
353,3.530000238,5.700851,0.21861032,2.2369292,-3.3801234,-0.18844637,6.5023165
354,3.540000238,5.5492873,0.45094094,2.0446315,-2.9146576,-0.7821899,5.8352714
355,3.550000238,5.420747457142857,0.5601284942857142,1.9707900571428572,-2.8612521142857146,-0.9979062714285715,5.611701242857143
356,3.560000238,5.10856,1.2047958,1.8030319,-3.1541097,-1.4089192,5.3050556
357,3.570000238,5.321015842857142,1.2028053,1.7775469857142858,-3.3904203571428573,-0.6639909714285713,5.107141085714287
358,3.580000238,5.891127671428571,1.1802082285714286,1.8868086571428573,-4.208955842857143,1.6213850571428572,4.2432285428571435
359,3.590000238,5.527243333333334,1.4494036666666668,2.5149943,-4.508561866666667,2.0465929666666667,3.5128298
360,3.600000238,5.140234914285714,1.9291588,3.496645642857143,-4.216634857142857,1.436167317142857,2.857608914285714
361,3.610000238,4.79759175,2.3993219833333335,4.22111025,-3.229651233333333,0.4507034666666667,2.3369997999999996
362,3.620000238,4.5598344285714285,2.958870485714286,4.295498785714286,-1.5819634967142857,-0.3350497214285714,1.8815404571428573
363,3.630000238,4.642679,3.2508910000000006,3.6118875,-0.021685077,-0.43767205,1.3600514
364,3.640000238,4.664004457142857,3.3481612857142857,3.215488071428571,0.37012981371428566,-0.3416817714285714,0.9010433285714285
365,3.650000238,4.405183028571428,3.349441914285714,2.5931695285714285,0.5659499671428572,0.19765271714285712,-0.62118802
366,3.660000238,3.663547233333334,3.0560524,1.8602915,0.048562356666666674,1.3174447999999999,-1.9835483166666663
367,3.670000238,3.312013885714286,2.8054947142857145,1.960758942857143,-0.5482353942857142,2.6284102000000003,-2.671518771428571
368,3.680000238,2.883013866666667,2.272409,2.3618146666666666,-0.7206979616666667,3.752078466666667,-3.2984226
369,3.690000238,2.5740264285714285,1.8899273714285714,2.5626887714285713,-0.22483542428571426,4.487829428571429,-3.837713342857143
370,3.700000238,2.2839180714285714,1.4967424428571428,2.6229666857142857,0.7773685942857143,4.615932571428572,-4.255183685714286
371,3.710000238,2.1255610666666667,1.1552402333333334,2.497351,1.727119766666667,4.343378433333334,-4.520524133333334
372,3.720000238,2.052310685714286,0.8368999214285715,2.2526794714285714,2.553799742857143,3.9593592999999996,-4.705465485714286
373,3.730000238,2.0286856,0.54634285,1.9706943,3.2721560000000003,3.5268792999999996,-4.842644
374,3.740000238,2.085579085714286,0.16605064142857143,1.7067763571428571,4.012851971428572,3.067696785714286,-4.953818542857143
375,3.750000238,2.183908,-0.21214652,1.4984715,4.660001,2.6949053,-5.0124598
376,3.760000238,2.319943628571429,-0.5535471071428572,1.3636291285714286,5.016735885714286,2.5528397857142857,-5.006700328571428
377,3.770000238,2.455275466666667,-0.7201030083333334,1.2909696666666666,5.397700866666667,2.4357025333333335,-5.080263866666667
378,3.780000238,2.5712389428571427,-0.8985498571428572,1.1590877000000002,5.688144242857143,2.322463028571429,-5.239345928571429
379,3.790000238,2.673840642857143,-1.0751367857142857,1.0625184857142858,5.819214714285715,2.230137942857143,-5.3915339285714285
380,3.800000238,2.761400866666667,-1.2277036666666665,1.0160552666666667,5.9260839333333335,2.090166566666667,-5.732445066666666
381,3.810000238,2.764838857142857,-1.2989303142857143,1.0230475428571428,5.989553857142858,1.8517616428571428,-6.033447314285715
382,3.820000238,2.7460138571428567,-1.3792181285714287,1.0579449857142857,6.046798657142857,1.2871424571428574,-6.451267142857143
383,3.830000238,2.718116,-1.4470357,1.1482377,6.0698365999999995,0.8524374,-6.683738000000001
384,3.840000238,2.539046257142857,-1.5486967,1.2988474714285714,6.2226576,0.13425551428571428,-7.003996571428572
385,3.850000238,2.4196534,-1.6244545,1.2004664,6.410842,-0.41568157,-7.311689
386,3.860000238,2.3897300285714285,-1.5933551285714285,0.8525280114285714,6.256515857142857,-0.11549377285714287,-7.3570662
387,3.870000238,2.414266766666667,-1.5051081333333334,0.46971238000000004,5.754639433333334,0.4281021,-7.312096333333334
388,3.880000238,2.4503607,-1.4290424000000002,0.30028320571428574,5.163862828571429,0.8275016857142857,-7.2233779
389,3.890000238,2.5663868,-1.2899228571428571,0.42846141142857136,4.3306672142857146,1.1651693428571428,-7.144491299999999
390,3.900000238,2.6500224666666665,-1.1990638999999998,0.8999814,3.593461766666666,1.1588281,-7.274631066666667
391,3.910000238,2.510298942857143,-1.1621888142857144,1.2914734285714284,3.698527414285714,0.92864052,-7.280797571428572
392,3.920000238,2.3305628,-1.1163456,1.8935555,4.1077952,0.48959407000000005,-7.200515
393,3.930000238,2.3058924285714286,-1.129098942857143,1.9935438714285714,4.488963885714286,0.2278023957142857,-7.163863914285714
394,3.940000238,2.2854078,-1.0509454,1.3754461000000002,5.802285,-0.37170056,-7.099114
395,3.950000238,2.252100057142857,-0.9286386714285715,0.14923780142857143,5.650271642857143,0.10353861714285716,-6.973803114285714
396,3.960000238,2.0800080857142857,-0.7325035428571428,-0.24249236999999998,4.852679571428572,0.64195686,-6.9177797142857145
397,3.970000238,1.7238607333333331,-0.56512445,-0.20783734111,4.01005975,1.0143373333333334,-6.861087583333333
398,3.980000238,1.4629424857142854,-0.6958028071428571,0.13419772333571428,3.3129956714285713,1.3379518428571429,-6.655639014285714
399,3.990000238,1.2682447,-0.8439822,0.46908223999999993,3.1585386,1.5281872000000003,-6.4907103
400,4.000000238,0.8289464714285714,-1.1177960857142857,1.0084124857142858,3.8830032,1.4096828,-6.127867
401,4.010000238,0.7615993,-1.2715681999999997,1.0230476,4.468020285714286,1.249269942857143,-6.001159885714286
402,4.020000238,0.5072857,-1.5812508,0.75190365,5.287952,0.9465078,-5.878640999999999
403,4.030000238,0.27423639285714285,-1.7088497999999999,0.39090695000000003,5.831605928571428,0.5224052857142857,-5.787014071428572
404,4.040000238,-0.16984729666666668,-2.0921952666666663,-1.1544880766666668,5.874568916666667,0.15261,-5.895134083333333
405,4.050000238,-0.8786879942857143,-2.287132542857143,-2.3908842714285714,4.502926028571428,0.3773727171428572,-6.055612285714285
406,4.060000238,-1.8385624666666667,-2.3343030000000002,-2.5297818333333333,2.9215296333333334,0.7994972733333334,-5.536159666666666
407,4.070000238,-2.2745926285714284,-2.441231514285714,-2.2770927571428574,1.6551560714285714,0.8726825857142858,-4.618725314285713
408,4.080000238,-2.21784285,-2.5789159,-1.7871469500000001,0.7786520833333334,0.8960111166666667,-3.5708602333333332
409,4.090000238,-1.9932304285714284,-2.6922826571428575,-1.531552757142857,0.5382001,0.9875654714285714,-2.8434285285714287
410,4.100000238,-1.6530319571428573,-2.9350405285714287,-1.2527822142857143,0.5635066,1.0993724,-2.4297976
411,4.110000238,-1.5085331,-3.1109436,-1.1633605,0.9219976000000001,1.1329689833333332,-2.215873766666667
412,4.120000238,-1.611527,-3.2278406999999993,-1.4547495,1.4689349,0.9526163,-2.0509198
413,4.130000238,-1.9307275333333334,-3.2246241833333333,-2.0424108166666666,1.4410395500000002,0.23588884133333332,-1.6455207333333333
414,4.140000238,-2.0322526,-3.1724412,-2.4084942,1.0963181,-0.7308788,-1.0589037
415,4.150000238,-1.9694702714285715,-2.9761274285714285,-2.3981711714285714,-0.03250579999999998,-1.5570932857142858,-0.19760909857142855
416,4.160000238,-1.8891650999999998,-2.8525342666666664,-2.2372187833333332,-0.8239311333333333,-1.8084133,0.44703838
417,4.170000238,-1.7478415999999999,-2.662267857142857,-1.9331311142857142,-1.5147702571428572,-1.8251679428571428,1.1062880142857143
418,4.180000238,-1.4495458999999997,-2.485531266666667,-1.4158651333333332,-2.3746687333333334,-1.6715834999999999,2.2009844666666667
419,4.190000238,-1.2204239142857143,-2.3854831142857145,-1.0859169857142856,-2.8022618,-1.6324893,2.68559
420,4.200000238,-0.85478056,-2.3021261666666666,-0.7604508733333333,-3.1125722000000002,-1.6642534,3.3442361
421,4.210000238,-0.39530179314285707,-2.1920922285714286,-0.48830375142857146,-3.316595257142857,-1.7023003714285714,3.827154285714286
422,4.220000238,0.008641620571428572,-2.088932857142857,-0.2473140757142857,-3.4851890000000005,-1.80597,4.232408
423,4.230000238,0.7432039333333332,-1.9944252666666664,0.09510717666666667,-3.5340569333333334,-2.0657835666666666,4.735338966666666
424,4.240000238,1.0154294428571429,-2.0066327,0.13655849,-3.4963588571428574,-1.9354694714285714,4.742552671428571
425,4.250000238,0.9855808666666667,-1.9059903,0.250436365,-3.448945466666667,-1.7208585666666665,4.749999233333334
426,4.260000238,0.8289813514285714,-1.7386250714285716,0.40731906285714287,-3.3740148999999997,-1.6988099142857145,4.893868428571429
427,4.270000238,0.79111326,-1.6446997,0.5054258,-3.2420719000000005,-1.869498,5.175556
428,4.280000238,0.947307,-1.5306381142857144,0.5901041428571429,-3.0417139000000004,-2.1785866857142855,5.680988428571429
429,4.290000238,1.4568750571428573,-1.3404702285714285,0.666058042857143,-2.9293181285714285,-2.304595857142857,6.172109857142857
430,4.300000238,2.058824433333333,-1.2134295000000002,0.7349209416666667,-2.9289109166666667,-2.1521168166666667,6.143952616666667
431,4.310000238,2.531863942857143,-1.0152117,0.8493352428571429,-2.9612565999999996,-1.8710687714285714,5.7940826
432,4.320000238,2.686864,-0.8447139,0.9915823,-2.9842941999999995,-1.565296,5.246414
433,4.330000238,1.9808821142857143,-0.6305202485714286,1.2887599285714286,-2.6233707714285717,-1.4745416571428573,4.331539514285714
434,4.340000238,1.3119929514285715,-0.47209636,1.317868742857143,-2.297702,-1.6508148000000002,4.0210547
435,4.350000238,0.83065826,-0.40932268,1.1699768,-1.9629576,-1.9782288,4.243403
436,4.360000238,0.7289362285714286,-0.49042931714285715,0.9532960885714286,-1.7535243285714286,-2.0593843142857144,4.914462642857144
437,4.370000238,0.83099361,-0.6016967166666667,0.8430167166666668,-1.7011078333333334,-1.847303916666667,5.389352566666666
438,4.380000238,0.9674693657142858,-0.6710932057142858,0.7300557000000001,-1.7554441285714286,-1.428291757142857,6.019746871428572
439,4.390000238,1.3314365428571429,-0.6776440571428572,0.7663121571428572,-1.8950663285714284,-1.1197266857142858,6.446991214285714
440,4.400000238,1.7133469666666665,-0.6611158,0.8160689833333333,-1.9535913999999999,-0.9202414183333333,6.574803766666666
441,4.410000238,1.9571873,-0.6533918,0.8024249,-1.9800614,-0.83472276,6.5462976
442,4.420000238,2.9016325,-0.50914556,0.99060655,-2.041146,-0.7113316,5.842601300000001
443,4.430000238,2.8247161142857142,-0.37306618857142854,1.0508714,-1.879882457142857,-0.9186706514285714,5.040471328571428
444,4.440000238,2.0485240333333334,-0.15137062,0.9290176133333333,-1.60663005,-1.3075186,4.068904416666666
445,4.450000238,1.4990726714285714,-0.10271069714285715,0.7735947685714286,-1.5053458714285715,-1.534928242857143,3.8617108285714288
446,4.460000238,1.1005825,-0.14747812,0.61817634,-1.5084872999999999,-1.6532580999999997,3.9685218
447,4.470000238,0.9067601685714285,-0.29121472285714284,0.49667532571428563,-1.6062229,-1.6789137,4.2751675
448,4.480000238,0.8592835714285715,-0.3320707685714286,0.4982172457142857,-1.7879063,-1.5726262857142856,4.668901857142857
449,4.490000238,0.5312911666666666,-0.07450637199999999,0.7574527299999999,-1.8092277666666667,-1.4111590166666668,4.895380883333334
450,4.500000238,0.2800773,0.095828764,0.97642887,-1.5231476,-1.3673816,5.2903953
451,4.510000238,0.25812483,0.15683842,1.0733248,-1.3105727,-1.4113625999999997,5.560390000000001
452,4.520000238,1.1594839757142859,0.017753649142857143,1.0664254,-0.8435364371428572,-1.4605793999999999,6.196020228571428
453,4.530000238,2.292176383333333,-0.179776755,0.9574136333333333,-0.6095237450000001,-1.0841520666666666,6.22254835
454,4.540000238,2.802158228571429,-0.4253776285714285,0.740078042857143,-0.7152584785714285,-0.7380343885714286,5.939987928571428
455,4.550000238,2.3664010714285717,-0.35272095142857135,0.8658998285714287,-1.0569838428571428,-0.5013746942857142,5.509427928571428
456,4.560000238,1.160006725,0.20459527,1.3460134666666665,-1.3488525333333332,-0.5932345,5.224423933333333
457,4.570000238,0.6402725499999999,0.4635461985714286,1.6275209428571429,-1.02783778,-1.0485193285714285,6.023412114285715
458,4.580000238,1.3259919666666666,0.4011412733333333,1.4346669666666667,-0.4305455,-1.6683256499999999,7.796523666666668
459,4.590000238,2.4255073,0.37672928,1.0894233,-0.4887214342857143,-1.4651171,9.09857
460,4.600000238,4.0325522,0.5058527,0.9330117,-0.84999394,-1.0766183,9.531050000000002
461,4.610000238,5.772349000000001,0.63275033,0.97691673,-1.61049874,-0.4779879666666667,9.005721666666666
462,4.620000238,5.930498542857143,0.5727076185714287,1.3984309328571427,-3.2017558428571427,0.3866663228571428,7.1273222
463,4.630000238,5.404444285714286,0.6182372571428572,2.138805142857143,-4.539511,1.0737168,5.6214747
464,4.640000238,4.588895533333333,0.9564277333333333,3.0357055,-4.764023283333334,1.3453401333333332,4.9719405
465,4.650000238,4.106733485714286,1.2843041,3.471500257142857,-4.389352085714285,1.5168427857142857,4.833481714285715
466,4.660000238,4.1153521,1.4255608333333332,3.6033604666666665,-3.5890331,1.6580939,4.9027109
467,4.670000238,4.081518885714286,1.5756711285714287,3.7450572857142856,-2.8279173428571434,1.6269697857142857,4.793689257142857
468,4.680000238,3.7932092166666664,1.7109737999999999,3.7568757166666664,-1.6557015333333334,1.2811757333333333,4.720067616666667
469,4.690000238,3.5757575000000004,1.7904399142857144,3.5514876857142856,-0.2775428428571428,0.8726825714285714,4.845873071428571
470,4.700000238,3.4839227,1.8852016,3.395442,0.70155805,0.67895675,4.928774
471,4.710000238,3.5813369500000003,2.1241634333333335,2.986856166666667,1.2229416750000002,0.6911736666666667,4.975605666666667
472,4.720000238,4.3278437,2.6497889,2.5349345,1.7555095428571428,0.8171827214285715,4.920047714285714
473,4.730000238,5.181928399999999,3.0595434166666666,2.3256184833333333,2.304370233333333,0.96720025,3.6396825833333337
474,4.740000238,5.380279085714286,3.4057823999999997,1.6224378285714285,2.4731679142857144,1.5458144285714286,0.9895289285714286
475,4.750000238,4.328580583333333,3.578989333333334,0.844983295,2.0531086166666666,2.1634683,-0.4038718416666667
476,4.760000238,3.3963785,3.4378922857142853,0.6151622214285714,1.2886260057142855,2.890900057142857,-1.4009782000000002
477,4.770000238,2.960412414285714,3.0772612857142856,0.7265493428571429,0.6399497771428572,3.361252471428571,-2.170144
478,4.780000238,2.5382884666666667,2.60272805,0.9264920999999999,0.33667863333333337,3.5089612,-2.823794166666667
479,4.790000238,2.1638763,2.3418133000000005,1.0843011,0.37623828,3.379577885714286,-3.290394185714286
480,4.800000238,1.8029406000000001,2.1768343,1.2290351,0.60137916,3.104173,-3.5427613
481,4.810000238,1.6922415999999998,2.0230797285714286,1.3188051714285716,1.0015277657142856,2.8277211142857146,-3.7019307571428572
482,4.820000238,1.6918277857142858,1.6769793714285712,1.5161033142857143,1.9551693714285714,2.258411457142857,-3.8576094857142857
483,4.830000238,2.114544,1.3246452833333333,1.6206331333333335,3.1023404666666665,1.5155629,-4.130396466666666
484,4.840000238,2.5096889999999994,1.1759832,1.1333588,3.4981693999999997,1.2533058999999998,-4.43582
485,4.850000238,2.711733433333333,1.0273668249999999,0.2686183066666667,3.099693483333333,1.6458770999999999,-5.136461833333333
486,4.860000238,2.7208338285714286,0.8784528271428572,-0.12656662,2.138074542857143,2.3718545714285715,-5.757868114285714
487,4.870000238,2.692461142857143,0.7014215985714286,-0.10126026428571429,1.3526558000000002,2.890202114285714,-6.05282
488,4.880000238,2.653645666666667,0.45948311166666667,0.10397456583333335,0.676106105,3.3228565,-6.253497916666666
489,4.890000238,2.603414,0.22153732,0.41636577,0.22858776857142857,3.662138457142857,-6.370809771428571
490,4.900000238,2.501396,-0.04277688599999999,0.8963937,0.1395786,3.7919872,-6.4210734
491,4.910000238,2.3681564,-0.30050534,1.3486153,0.44500223,3.6539357000000003,-6.3722057
492,4.920000238,2.292024,-0.5494223,1.8310825,1.5740007,3.0015507000000006,-6.1461926
493,4.930000238,2.605008342857143,-0.7178554942857142,1.8938213857142858,2.872487457142857,2.528405857142857,-5.970617557142858
494,4.940000238,2.8603802,-0.8686482300000001,1.8498946,3.6020136,2.3381705,-5.9898157
495,4.950000238,3.0334174285714286,-1.2864034,1.6693133714285715,4.708170571428572,1.9690443714285715,-6.314960928571429
496,4.960000238,2.988690533333333,-1.6143522666666665,1.5025165333333332,5.307702666666667,1.6493385,-6.555460116666667
497,4.970000238,2.732624485714286,-1.8153193428571428,1.3547176,5.7937335,1.033706297142857,-6.832784785714286
498,4.980000238,2.4799268000000003,-1.8212517714285714,1.2317226,5.982048857142857,0.3527643028571429,-6.877812742857143
499,4.990000238,2.3139763,-1.7220517,1.0975031,5.950110383333333,-0.1436509116666667,-6.72833
500,5.000000238,2.3671808,-1.6588467,1.0169495,5.8035073,-0.21288027,-6.639757
501,5.010000238,2.5735953,-1.5170956999999998,1.08854925,5.37795005,-0.14161476166666667,-6.585798666666666
502,5.020000238,2.8135396571428575,-1.3488767,1.4929878,4.987414942857143,-0.24656413285714285,-6.632601371428572
503,5.030000238,2.9281943666666663,-1.2132720166666666,1.8265294333333333,4.816785133333333,-0.4413371466666667,-6.7778085
504,5.040000238,3.0534752714285713,-1.1114934571428572,2.172160757142857,4.919523857142857,-0.4737992914285714,-6.952336214285714
505,5.050000238,3.033312885714286,-1.0861042857142857,2.317203914285714,5.11325,-0.37780902,-7.168751
506,5.060000238,2.530686333333333,-1.0546855333333334,2.3010489,5.566701999999999,0.14996300833333334,-7.702860416666667
507,5.070000238,1.940749242857143,-1.0434450285714285,2.226388557142857,5.891469,0.60199,-8.009429
508,5.080000238,1.2623907,-0.9691724,2.1102757,6.3766346,1.1714523,-7.866491
509,5.090000238,0.7928206300000001,-0.772728,1.7974219,6.595492228571429,1.388215842857143,-7.489380285714286
510,5.100000238,1.0158824,-0.59165037,1.2641591,6.727261000000001,1.4793193,-6.669078
511,5.110000238,1.6805553285714285,-0.32911327,0.45777495714285715,6.1285215,1.4583760142857145,-6.463135142857142
512,5.120000238,2.1850716,-0.152839204,-0.5141915499999999,4.2963432500000005,1.9242197666666667,-6.997102666666667
513,5.130000238,2.138792014285714,-0.7544473500000001,-0.64232842,2.7710868571428575,2.5929811428571425,-7.786448285714286
514,5.140000238,1.4220515857142857,-1.659731,0.000557527142857125,2.101772857142857,3.2942338571428573,-8.691134714285715
515,5.150000238,0.6107673,-2.469077,0.55838627,2.5831205,3.592850933333333,-9.327434
516,5.160000238,-2.167622142857143,-3.8547546,1.2948403285714287,4.683213142857143,3.1324466,-9.319958285714284
517,5.170000238,-3.015775533333333,-4.1217855666666665,0.9626121333333333,5.917353766666667,2.3799118666666668,-8.525976933333334
518,5.180000238,-3.7238190857142857,-4.368286485714285,-0.0304590857142857,7.575116700000001,0.9836385314285714,-6.5151442
519,5.190000238,-3.3376644,-4.463675,-1.1299134,7.7657013,0.4798205199999999,-5.0124598
520,5.200000238,-2.344893,-4.3545833,-2.5424654,7.123787871428571,0.7866403599999999,-4.224990571428572
521,5.210000238,-1.579630457142857,-3.993821957142857,-3.011865685714286,4.209741171428571,2.1964322142857142,-2.9826798571428577
522,5.220000238,-1.3188370666666667,-3.7934528666666663,-2.615112,1.8967060666666669,2.422060383333333,-2.1539491833333333
523,5.230000238,-1.214705,-3.7469258,-2.28306,0.5366292857142858,1.7376204857142856,-1.4718365085714284
524,5.240000238,-0.96253075,-3.8467793,-2.053448083333333,-0.3723114,1.1983296,-0.92207396
525,5.250000238,-0.9860897571428572,-3.847959614285714,-1.4165199642857143,-1.4877184428571428,0.9677565657142857,0.17081907142857142
526,5.260000238,-1.2245328666666666,-3.657367733333333,-0.5042672233333333,-1.4661352,0.5966959733333334,0.8974364
527,5.270000238,-1.2708929714285713,-3.4560248857142857,-0.08257014471428571,-1.0575075314285713,-0.01915442285714286,2.0609986285714283
528,5.280000238,-1.1000032,-3.1119194,0.017836407,-0.48043135,-0.5054761,3.352380666666667
529,5.290000238,-0.907431,-2.9466964999999994,-0.05174082,-0.33077379999999995,-0.5329642,3.796263
530,5.300000238,-0.39935255,-2.6138110000000006,-0.26794246,-0.21104772,-0.3826958,4.670996
531,5.310000238,0.22260952999999997,-2.15582705,-0.5327394066666667,-0.74920417,0.12430741666666667,5.429872183333333
532,5.320000238,0.6604261785714286,-1.9209963,-0.4370377085714286,-1.4536856142857142,0.3227455,5.930214314285714
533,5.330000238,1.22833385,-1.6826438000000001,-0.24012072000000004,-2.1804193,0.06118653333333334,6.0792028333333334
534,5.340000238,1.5039509285714285,-1.5324760857142858,-0.10701843562857143,-2.7773043,-0.3106158357142857,5.8797757142857145
535,5.350000238,1.644791,-1.4038318,0.0036587503,-3.0844731,-0.51097375,5.680116
536,5.360000238,1.5815861,-1.2603174,0.15253939,-3.3835847,-0.6351793466666668,5.48321975
537,5.370000238,1.4039930142857142,-1.1242859571428572,0.51589684,-3.576117928571428,-0.7022562114285715,5.4399659428571425
538,5.380000238,1.4073380999999998,-1.0475307,0.7206823,-3.5645993,-0.7504259000000001,5.5530596
539,5.390000238,1.5724175428571427,-0.9849485857142858,0.7478398,-3.2933830571428575,-0.7410013428571428,5.643465157142857
540,5.400000238,1.6648227,-0.8852346,0.633787,-3.0514874000000005,-0.625813,5.577493700000001
541,5.410000238,1.5861639714285716,-0.7870581171428571,0.5920336642857142,-2.9849924,-0.6142942,5.518852314285715
542,5.420000238,1.4342518,-0.6961686714285714,0.5595709714285715,-2.952006657142857,-0.6467563714285715,5.516583414285714
543,5.430000238,1.3648663,-0.6743685999999999,0.5637524,-2.9598603000000003,-0.6807893000000002,5.5933757
544,5.440000238,1.7638835,-0.66095316,0.68699133,-2.9415349999999996,-0.92757154,5.7338705
545,5.450000238,2.2188692666666667,-0.7179788933333334,0.9868563333333333,-2.6240980666666665,-1.1674309066666666,5.389963533333333
546,5.460000238,2.119714157142857,-0.7000713514285714,1.0213183285714285,-2.208867357142857,-1.4155512428571428,5.0533866000000005
547,5.470000238,1.6467423000000003,-0.6053097,0.8366037,-1.4119735,-1.8658329,4.672218
548,5.480000238,1.4386118142857143,-0.5672325857142857,0.6433171285714285,-1.2627522142857142,-1.926917614285714,4.672218
549,5.490000238,1.0468555142857143,-0.47386040285714287,0.23163807428571428,-1.1664128714285715,-2.013134357142857,4.897358571428571
550,5.500000238,0.9390893416666667,-0.5372111916666668,-0.21290875833333334,-1.9525732666666666,-1.7330754666666666,5.880473666666667
551,5.510000238,1.2359039714285716,-0.6701262185714285,-0.13253821714285716,-2.6629886571428574,-1.2247923571428572,6.523957714285714
552,5.520000238,1.5673424999999999,-0.7304288333333334,0.088272425,-3.0722563,-0.8958075,6.8651595
553,5.530000238,2.1260997,-0.8343997571428572,0.3944655142857143,-3.478207957142857,-0.7605484614285715,7.069007942857143
554,5.540000238,2.638761666666667,-0.7537736333333332,0.6791605500000001,-3.5053469666666666,-0.9790863499999999,6.809165149999999
555,5.550000238,2.977638757142857,-0.24862511314285715,1.1583864142857145,-3.114317542857143,-1.4651171285714286,5.875936
556,5.560000238,2.216910714285714,0.24585929571428572,1.1326576000000002,-2.6301772857142858,-1.7120739714285713,5.153565742857142
557,5.570000238,1.231139,0.8009004000000001,0.9393536,-2.037481,-1.7864227999999998,4.7650666
558,5.580000238,0.7859517785714286,1.1669364857142859,0.7350429071428571,-1.8126892,-1.7033476,4.915335
559,5.590000238,0.5541482,1.6975074999999997,-0.01975725,-1.5671287000000003,-1.4028107,5.9855394
560,5.600000238,1.2559661142857141,1.7255493000000002,-0.6547681614285714,-2.4505883,-0.7598503571428571,6.308765171428571
561,5.610000238,1.5177308666666667,1.7321844333333332,-0.7290466033333334,-3.757627,-0.6286636333333333,6.0482532
562,5.620000238,0.9933941914285713,1.8140388142857142,0.013885821428571437,-4.687205714285715,-1.4015890714285713,5.841728571428571
563,5.630000238,0.5785572457142857,1.9695879428571428,1.4473449857142857,-4.957636571428572,-2.878639614285714,6.310859428571428
564,5.640000238,1.5427322833333335,2.2864087,2.774979116666666,-3.9274426666666673,-5.024066166666667,7.288884066666667
565,5.650000238,4.495685085714286,2.7335218571428572,3.047603828571429,-2.083381857142857,-5.257234928571428,6.853815285714285
566,5.660000238,6.9274473,3.164971,2.6288729,-1.1077715,-4.587921,5.7534175
567,5.670000238,7.415768,4.0742927,1.3356878,-1.8859908571428572,-1.9761345142857143,1.8879980285714286
568,5.680000238,6.6372469999999995,4.2387843,1.0862525,-2.6043472,-0.9593355999999998,0.6722373999999999
569,5.690000238,3.7082869142857144,3.4629196714285717,1.9708859,-4.697764685714286,1.4126278571428572,-1.4095300571428573
570,5.700000238,0.8937890742857143,2.9871646857142857,3.8355155857142855,-5.033032457142857,1.8243390142857143,-1.5716663714285715
571,5.710000238,-0.19670864200000002,2.8359176,4.7818644,-3.4082221999999995,0.5425341600000001,-0.04896959000000004
572,5.720000238,0.2729035262857143,2.8906348285714287,4.728246457142857,-1.5774257205714284,-0.3812995714285714,1.3569099357142858
573,5.730000238,2.3093673166666666,3.126564566666667,3.6181585,0.047747891666666674,-0.4034645833333334,2.1899893
574,5.740000238,3.5920389,3.3775444,2.868521,0.30747431999999997,0.47757348571428576,1.6963664571428574
575,5.750000238,4.285829499999999,3.648399083333333,2.52736785,0.014558525000000008,1.2950470833333334,0.37556925
576,5.760000238,4.028301285714286,3.6093437571428573,2.4967484142857144,-0.29290125,1.6747905,-0.8878665
577,5.770000238,3.670397,3.5154183,2.4814863,-0.45625926285714286,1.932218957142857,-1.7165462999999999
578,5.780000238,2.14729,2.9919430000000005,2.3130922,-0.66673976,2.4578967,-2.7303345
579,5.790000238,1.4611654285714286,2.7451079999999997,2.3730477714285714,-0.6030371457142857,2.7161978428571425,-2.905735
580,5.800000238,0.37770495,2.3835232,2.5371299,-0.1719535,2.7107875,-2.8390653
581,5.810000238,-0.12486356,2.2985661571428575,2.6825475142857145,0.49790597142857146,2.2598076714285713,-2.356648757142857
582,5.820000238,0.021185173333333345,2.2031367166666667,2.718131083333333,1.5300197333333332,1.7248799000000001,-1.7116958
583,5.830000238,0.7932605714285714,1.8937907142857142,2.3060491428571432,2.8908129,1.4231214142857145,-1.3800348857142857
584,5.840000238,1.0899372714285716,1.771113642857143,1.6113527571428572,3.335509657142857,1.5541918142857143,-1.6194869714285713
585,5.850000238,1.1365195666666668,1.6875983666666665,1.1493861666666667,3.3346660333333333,1.8038829166666666,-1.9191803500000002
586,5.860000238,1.1106876142857143,1.563784642857143,0.7858690428571428,3.011760457142857,2.135893,-2.2403042
587,5.870000238,1.0920454,1.471031,0.6340309,2.644205,2.344279,-2.4016988
588,5.880000238,1.4758744857142858,1.172738257142857,0.6037155571428572,1.8797733714285714,2.5442878857142857,-2.631028228571428
589,5.890000238,1.8185614,0.9110389333333333,0.8080451333333333,1.3923754333333331,2.6729149,-2.9054440666666665
590,5.900000238,2.1785985285714284,0.5672717857142857,1.2125794857142858,1.1209265857142856,2.8001456857142855,-3.2937102285714284
591,5.910000238,2.1557659714285715,0.03042860571428571,1.745337,1.5570715,2.8971831142857143,-4.1255095
592,5.920000238,1.9032818,-0.2862667033333333,1.9311085833333335,2.31984505,2.789993883333333,-4.411997066666667
593,5.930000238,1.8238128571428571,-0.5238676842857143,1.9217279142857142,3.114033785714286,2.6809431714285714,-4.479626485714286
594,5.940000238,1.75926935,-0.7455516366666667,1.7071576333333336,4.045081466666667,2.6065362333333333,-4.547401766666667
595,5.950000238,1.6434451285714287,-0.8837928214285714,1.369600857142857,4.590539,2.5704671571428572,-4.546121785714286
596,5.960000238,1.5869116333333333,-0.9318480433333334,1.1027269566666666,4.9063759,2.5309947333333334,-4.474099833333333
597,5.970000238,1.5928063,-0.9184072599999998,0.87883174,5.0631604,2.4688919,-4.384509
598,5.980000238,1.5845132,-0.847397,0.64528155,5.0863724,2.340614,-4.312429
599,5.990000238,1.7115479666666664,-0.7568276749999999,0.4348526033333333,4.8955844,2.1581742,-4.239737916666667
600,6.000000238,1.9009384571428571,-0.6975276714285714,0.33096879285714287,4.5113033428571425,1.932917,-4.245933871428571
601,6.010000238,1.9976776,-0.6687586,0.3158111,4.17152685,1.8798315333333333,-4.3358447
602,6.020000238,2.0617796142857143,-0.6373586142857144,0.3621683314285714,3.7288951999999997,1.9929546714285717,-4.434249171428571
603,6.030000238,2.0592663833333336,-0.6051064216666666,0.55440225,3.4124472000000003,2.3326729833333335,-4.365368916666667
604,6.040000238,2.1304598,-0.62482303,0.8492874,3.4114292,2.6228254,-4.2146935
605,6.050000238,2.3089804857142857,-0.7356744071428573,1.304501157142857,4.106573428571428,2.6104340142857145,-4.058490914285715
606,6.060000238,2.3996217,-0.8205661000000001,1.4157228,4.844273433333333,2.3275826,-4.093542083333333
607,6.070000238,2.5009081,-0.9123092999999999,1.2419627,5.6007056,1.9081341,-4.251344
608,6.080000238,2.483346,-0.9845696,0.74019563,6.2214794,1.3424895999999997,-4.5555463
609,6.090000238,2.401965,-1.013421542857143,0.23732657000000001,6.351328142857143,1.0901223142857144,-4.811054842857144
610,6.100000238,2.2380007857142856,-1.0862306857142858,-0.2635824485714286,6.226366285714286,1.166390957142857,-5.009667371428571
611,6.110000238,2.1279696833333333,-1.3437624,-0.6598555666666667,5.83835085,1.2883278166666667,-5.248857883333334
612,6.120000238,1.8722826,-1.5487576571428572,-1.0447908571428572,5.571210585714286,1.101401257142857,-5.553496014285714
613,6.130000238,1.3556786666666667,-1.5713112,-1.4167593666666667,5.201211600000001,0.7343401900000001,-5.883527866666667
614,6.140000238,0.6599731428571428,-1.5421196,-1.7650027000000001,4.555807885714286,0.23914669800000002,-6.1708006285714285
615,6.150000238,0.049906363333333335,-1.7290490500000002,-1.9486705833333335,3.7653133666666663,-0.052431056,-6.32455975
616,6.160000238,-0.47621682,-2.0483513,-1.9631025,2.9936097,-0.044286426,-6.342885
617,6.170000238,-0.9830582314285714,-2.3154923857142857,-1.9587117857142857,2.2056167,0.3735331,-6.103433
618,6.180000238,-1.5428949333333335,-2.73495125,-1.8987133500000002,1.7199931166666669,0.7787284333333333,-5.783756333333333
619,6.190000238,-2.2196024285714286,-3.033021028571429,-1.8124272142857143,1.2211055428571427,0.7445791985714286,-4.778418185714286
620,6.200000238,-2.5014670999999997,-3.137540733333333,-1.9331616333333332,0.9402975666666666,0.23670331646666667,-3.5977376
621,6.210000238,-2.391454857142857,-3.1269421142857143,-1.9675276571428573,0.6383790142857143,-0.086173099,-2.882871742857143
622,6.220000238,-2.2638516,-3.0809116,-1.9526139999999998,0.3295521126666667,-0.30450736666666667,-2.359321066666667
623,6.230000238,-1.9113485000000001,-3.0403254000000004,-1.892057342857143,-0.08224621714285715,-0.43435602714285715,-1.8784862142857144
624,6.240000238,-1.5389566666666668,-3.0599345000000002,-1.8942365499999998,-0.45864447166666666,-0.47330483,-1.6575340166666666
625,6.250000238,-1.3787085,-3.050178,-1.8183683,-0.89641833,-0.41934663,-1.5475815999999998
626,6.260000238,-1.4136452285714287,-2.9379763142857143,-1.5285212285714285,-1.4297752857142856,-0.34377611428571425,-1.2631012714285714
627,6.270000238,-1.325992,-2.847605,-1.2492802,-1.7198404,-0.2935121,-0.9269607
628,6.280000238,-1.1749640285714285,-2.891745457142857,-1.0187527771428573,-1.845675,-0.20677179000000004,-0.6410842
629,6.290000238,-1.3211441666666666,-2.806805133333333,-0.8504917133333333,-1.7756311666666666,-0.23873946999999998,-0.26093359666666666
630,6.300000238,-1.4816805714285712,-2.6350665714285713,-0.8910058571428571,-1.6706236,-0.4334834071428571,0.8935386142857142
631,6.310000238,-1.363276457142857,-2.5822152285714286,-1.0023538,-1.8118165714285712,-0.4682144357142857,1.8687999285714287
632,6.320000238,-1.2459365,-2.3939202,-0.92818422,-2.0480690666666668,-0.5793886333333332,2.7902994
633,6.330000238,-0.8923561285714285,-2.202253942857143,-0.81782648,-2.2109616285714284,-0.9472932142857141,3.6629237714285714
634,6.340000238,-0.4603927016666666,-2.042751366666667,-0.849307685,-2.3400539666666664,-1.4182855166666666,4.325664000000001
635,6.350000238,0.022631987142857142,-1.8081498571428571,-0.986172542857143,-2.625290542857143,-1.8373848857142858,4.922840057142857
636,6.360000238,0.4124935916666666,-1.6844020666666666,-1.0699252166666666,-3.0294970000000006,-2.0551956,5.3783574
637,6.370000238,0.7144929,-1.6339674,-1.0921063,-3.576118,-1.9839882857142859,5.6757525428571425
638,6.380000238,0.7932866857142857,-1.545939542857143,-0.93817755,-4.143682357142857,-1.9119083285714287,5.910318114285714
639,6.390000238,1.0184181666666667,-1.4632917166666666,-0.4891901443333333,-4.878633316666666,-2.206889316666667,6.396843583333333
640,6.400000238,1.4632997,-1.4626462571428571,0.17724466228571428,-5.3273078,-2.7714576571428573,6.916296185714286
641,6.410000238,1.6391912,-1.44951035,0.44924877166666666,-5.2653505,-3.0476188833333335,7.067349933333333
642,6.420000238,1.7625592714285714,-1.4164458999999998,0.7263228442857143,-4.998846628571429,-3.2107441142857143,7.146673028571429
643,6.430000238,1.7886104999999999,-1.4104989666666665,0.8730488533333333,-4.5392060333333335,-3.2369813666666665,7.2536584
644,6.440000238,1.8868827857142858,-1.3873065714285715,0.9854320285714285,-4.2524133,-3.1889281000000005,7.358724
645,6.450000238,2.2412589,-1.2735194,1.1521404,-3.7954993,-3.1315086,7.5444217
646,6.460000238,2.7613196,-1.0848498,1.2912644,-3.317817,-3.208475,7.468676599999999
647,6.470000238,2.9638793857142858,-0.9248230857142857,1.4378539714285714,-2.9244312857142853,-3.3828284285714285,7.1967624571428574
648,6.480000238,3.202612942857143,-0.5683389314285714,1.8440361428571428,-2.0968204571428575,-3.7776104,6.686094
649,6.490000238,3.177456916666667,-0.36210447166666665,1.9453118166666667,-1.3156632000000001,-3.9003615000000003,6.226620666666666
650,6.500000238,2.798939428571429,-0.14485601,1.7377669428571427,-0.461844142,-3.523846928571428,5.682733857142857
651,6.510000238,2.3359391333333335,-0.06564407433333334,1.4427366666666668,0.11331217166666667,-2.8763778833333333,5.3013905
652,6.520000238,1.923775085714286,-0.026286377,1.0435147314285713,0.4348796357142857,-2.3061666142857145,5.113424199999999
653,6.530000238,1.6942453000000002,0.025966962,0.5691998833333333,0.2963627286666667,-1.7041620000000002,5.176370466666667
654,6.540000238,1.7585173,0.06875401,0.34678853,0.008857286,-1.4174710000000001,5.2855086
655,6.550000238,1.9525529,0.10781116,0.18720604,-0.58366454,-1.0277505,5.1425705
656,6.560000238,1.7507119,0.33501956,0.15205155,-1.0653613057142857,-0.6486761571428571,4.853552385714286
657,6.570000238,1.3956301,0.591254,0.3492277,-1.4524638714285714,-0.28077158571428573,4.6556380428571424
658,6.580000238,1.2817821333333332,0.6135876333333333,0.3539942333333333,-1.52314765,-0.22285744666666665,4.500570016666667
659,6.590000238,1.188401214285714,0.5748070428571429,0.13239448314285715,-1.5036004857142857,-0.34499781428571424,4.2364223
660,6.600000238,1.08760416,0.5609168533333334,-0.06945527,-1.5646852000000002,-0.39735615,4.1395593
661,6.610000238,0.9581961,0.4387886714285715,-0.29412864857142856,-2.011301885714286,-0.6282564071428572,4.061894285714286
662,6.620000238,0.9097177,0.2962063,-0.3504472699999999,-2.3429046,-0.8176191,4.0662575
663,6.630000238,0.7626664357142856,0.38664276285714283,-0.28786522242857143,-2.5743284571428573,-0.9003452571428571,4.079347142857143
664,6.640000238,0.40626061571428573,0.9827402857142857,0.004651840142857143,-2.971553842857143,-1.4612774857142856,4.594727457142858
665,6.650000238,0.9316905266666667,1.2200000666666668,0.013191827566666668,-3.1292687333333333,-2.1814373333333332,5.231754
666,6.660000238,1.7316124,1.4966727142857141,-0.016908652828571426,-3.3385855999999996,-2.6807032,5.48098
667,6.670000238,2.703481,1.8407782,-0.12421456999999998,-4.110697,-2.9506977000000005,5.3258247
668,6.680000238,3.2186156285714285,1.8932027714285715,-0.11221038428571428,-5.045402214285715,-2.4157700571428573,4.752500914285714
669,6.690000238,3.8309553,1.7741585,0.5447269,-7.013770142857143,-0.09572847142857142,2.8940852571428572
670,6.700000238,2.8662445,1.8138964166666665,2.3657680833333337,-7.223116166666666,0.9254590266666667,1.8955608666666668
671,6.710000238,2.0521886714285715,2.0963810857142855,4.753313071428572,-5.165477285714286,-0.07744671428571429,1.2429432857142857
672,6.720000238,2.0607402,2.2946054,5.5611068333333336,-2.863550183333333,-2.08410905,1.1153053666666666
673,6.730000238,2.2224992,2.6360771857142855,5.198630985714286,-0.5433486,-3.8840723,1.1010522
674,6.740000238,2.7557096,3.0810335,3.9667559000000003,0.9238301416666665,-3.8576023166666666,1.1134728166666668
675,6.750000238,3.1366463,3.306016,3.1428359,0.75775605,-2.7295709,0.9923214
676,6.760000238,3.542981,3.478831,2.4011767,-1.0918895,0.92207396,0.5745019000000001
677,6.770000238,3.1603367,3.4036437999999998,3.5599332,-1.7913095833333335,2.4727351600000005,0.295548275
678,6.780000238,2.912107914285714,3.323456085714286,4.0888187714285715,-1.7095433142857142,2.8779849714285715,0.10973434571428572
679,6.790000238,2.8517313666666664,3.20311365,4.356738133333333,-0.7288426133333333,2.4108613666666665,-0.026368239666666664
680,6.800000238,2.944653485714286,3.079896642857143,4.105405142857143,0.3319300457142857,2.0611949714285713,-0.22274108571428572
681,6.810000238,2.8667424666666665,3.1061568333333334,3.7689900833333336,1.1987368666666667,2.0938317833333335,-0.48959406666666666
682,6.820000238,2.825286814285714,3.020015042857143,3.1634904285714285,1.7473068,2.2318832142857143,-0.7065320857142857
683,6.830000238,2.8614576,2.8782980333333334,2.8359278,1.9673863333333335,2.303556,-0.9741995583333334
684,6.840000238,2.8328178,2.7725399000000004,2.5383494,2.077339,2.3870385,-1.3569970999999998
685,6.850000238,2.7408001,2.6895776,2.2757425,2.0333579,2.4933257,-1.6062229
686,6.860000238,2.384255,2.4506614,1.8123009,1.6566687333333334,3.0441063666666666,-2.1610757333333335
687,6.870000238,2.0588876571428574,2.1202370571428575,1.7349749571428572,1.3698031285714285,3.7026288714285718,-2.713034357142857
688,6.880000238,1.855870483333333,1.8576541833333333,1.7169905166666668,1.3465618833333333,3.9837932166666667,-3.09663915
689,6.890000238,1.6775064,1.6272290999999999,1.7029651,1.5872647285714285,3.9129348,-3.5129171
690,6.900000238,1.4287114428571428,1.2218831285714287,1.7166594714285714,1.9366693857142856,3.706642942857143,-3.7251429000000003
691,6.910000238,1.3207173,0.8371779650000001,1.7102015000000002,2.3566995499999996,3.4949116,-3.8720079999999997
692,6.920000238,1.3635246857142855,0.5319561,1.7048817285714288,2.8159405428571427,3.2898705714285716,-3.9604063571428574
693,6.930000238,1.4627428833333331,0.10726743550000001,1.6847883666666668,3.3120648833333335,3.0768885833333335,-4.045895949999999
694,6.940000238,1.5152103,-0.051557887000000004,1.6609812,3.6154523,2.9587915,-4.0937457
695,6.950000238,1.7716888,-0.6067732,1.5704576,4.2311864,2.8195183,-4.1658254
696,6.960000238,1.9596267,-0.92575526,1.4669758,4.6282371499999995,2.7940663833333335,-4.189241233333333
697,6.970000238,2.043499128571429,-1.1462820085714287,1.3323338,5.227390814285714,2.7910702285714284,-4.251518885714286
698,6.980000238,2.0571628,-1.2823613999999999,1.1538681666666666,5.7249115999999995,2.7551755666666664,-4.309578466666667
699,6.990000238,2.0408812,-1.321571,1.0318285,5.968436,2.7071222999999995,-4.347858
700,7.000000238,1.8666434666666667,-1.3408607333333336,0.4908822866666667,6.2312527,2.476222,-4.4504805
701,7.010000238,1.7389734000000001,-1.2976236285714287,0.23256582142857146,6.0426319571428575,2.3763921142857143,-4.489574642857143
702,7.020000238,1.5879323,-1.2150404,0.016956561142857148,5.6078613142857145,2.2762132285714287,-4.490621771428572
703,7.030000238,1.50398,-1.1457172333333332,-0.062066629333333324,5.1849224000000005,2.2119288333333333,-4.4574032
704,7.040000238,1.476641,-1.0985397,-0.07979124,4.8542504,2.1671333,-4.427268
705,7.050000238,1.422461,-0.98310614,-0.14324006,4.353356,2.16469,-4.419938
706,7.060000238,1.3189183999999998,-0.9069518771428572,-0.23444748285714284,3.868517514285714,2.2809254285714284,-4.401089428571429
707,7.070000238,1.1179006,-0.74830586,-0.23623328,3.1744206,2.4982126,-4.247679
708,7.080000238,1.0141096857142857,-0.5839408771428571,0.03365178942857143,2.6768418285714284,2.570117985714286,-3.702454371428572
709,7.090000238,1.2263520857142858,-0.5107135857142857,0.4168013214285714,2.769167,2.3887835714285717,-3.1039985428571426
710,7.100000238,1.6474842666666667,-0.5045111333333333,0.6236237766666667,3.2640114,2.0091274666666665,-2.743365933333333
711,7.110000238,2.0083314571428574,-0.5578853171428572,0.5570185585714286,3.8182535428571427,1.523998457142857,-2.823881514285714
712,7.120000238,2.3214615999999997,-0.6207628116666667,0.40841305,4.225688766666667,1.0639177433333333,-3.1080418333333335
713,7.130000238,2.3329148857142856,-0.66318326,0.11485427285714286,4.422992428571429,0.5709240142857143,-3.7249683714285715
714,7.140000238,2.2283006,-0.6590018,-0.05417998999999999,4.404667,0.4382829,-3.9666893
715,7.150000238,1.5925624,-0.5643012,-0.40609077,3.7950413,0.4187358,-4.627626
716,7.160000238,1.1952527,-0.46179524,-0.3638627,3.3112503285714285,0.6302634857142857,-4.704069171428571
717,7.170000238,1.0871467833333333,-0.5128093966666667,-0.4362195816666667,2.7590442833333335,1.1888614916666667,-4.4787831
718,7.180000238,1.2436658,-0.7938573142857143,-0.6934682,2.3848567,1.905690785714286,-4.193401071428572
719,7.190000238,1.2932156666666668,-1.0452540666666668,-0.8750510666666665,2.1860695666666667,2.201340866666667,-4.207363333333333
720,7.200000238,1.1740057099999999,-1.1792150428571428,-0.9609751,2.0956643,2.1695766,-4.280665
721,7.210000238,0.8896657583333334,-1.3503531666666666,-1.1252079833333333,2.0113673,1.8714833000000002,-4.4504805
722,7.220000238,0.4678191114285714,-1.4628903142857144,-1.2353464142857145,1.8708724999999997,1.6271443,-4.703371
723,7.230000238,-0.10720572857142856,-1.5350547142857143,-1.1929572714285714,1.8206084571428571,1.4459844857142858,-4.810356814285714
724,7.240000238,-0.8210539999999998,-1.7081485,-1.1308892,1.9588344,1.260636,-4.6532817
725,7.250000238,-1.2298061428571427,-1.954177642857143,-1.4413384571428571,2.2040459571428572,1.0533624714285714,-4.3045751999999995
726,7.260000238,-1.5254650333333333,-2.3333984,-2.413047366666667,2.3114969166666666,0.9870528,-3.7087082666666666
727,7.270000238,-1.6416158142857142,-2.570938385714286,-3.0603440857142856,1.44236304,1.2784378142857142,-3.138904
728,7.280000238,-1.8957407666666668,-2.8138532,-3.6473469333333335,0.35276430833333333,1.2528986166666667,-2.8083193166666667
729,7.290000238,-1.9247944,-2.897960942857143,-3.7769884857142855,-0.8478996000000001,1.0824431428571428,-2.490685971428572
730,7.300000238,-1.8823964857142859,-3.0280644857142858,-3.3505528,-2.1177637857142857,1.0293430685714287,-2.0978676
731,7.310000238,-1.9199087333333333,-3.108646933333334,-2.7296512333333336,-2.651586233333333,0.91067146,-1.6844113333333333
732,7.320000238,-2.052802657142857,-3.1330965714285717,-2.381010071428572,-2.676776342857143,0.8171827142857142,-1.3407660428571428
733,7.330000238,-2.1852798,-3.0762769999999997,-2.2744925,-2.5689182,0.7156075999999999,-1.0674555
734,7.340000238,-2.4632535,-2.7600086,-2.0231364,-1.9385238,-0.24342263,0.45599747000000007
735,7.350000238,-2.1986954,-2.5637777,-2.006062,-1.537808,-1.0155336,1.649593
736,7.360000238,-1.6832689,-2.3763583,-2.0077696,-1.3749153666666667,-1.5997071833333336,2.730410866666667
737,7.370000238,-0.6484306942857143,-2.028585185714286,-1.925421642857143,-1.5074402,-2.3065156428571427,4.033446314285714
738,7.380000238,-0.3746865,-1.9338933,-1.8911165,-1.8210374999999999,-2.5589409333333335,4.490796333333333
739,7.390000238,0.2701812657142857,-1.7285199285714286,-1.7059183857142857,-2.421616685714286,-2.902178942857143,4.909924828571428
740,7.400000238,0.5535332999999999,-1.6292007666666668,-1.5423765500000002,-2.981443666666667,-3.274650333333333,5.128521
741,7.410000238,0.8444525285714286,-1.5087030428571429,-1.2314829385714285,-3.52917,-3.697153,5.296504
742,7.420000238,1.1618055571428572,-1.4412077571428572,-0.8135405014285714,-4.210722671428571,-4.204527085714285,5.510125957142857
743,7.430000238,1.3703340833333335,-1.3975256333333332,-0.45481312,-4.6569467,-4.455978,5.6410217
744,7.440000238,1.550121,-1.3586768,-0.06271707,-5.023455,-4.611133,5.757083
745,7.450000238,1.7429168333333334,-1.32877155,0.3722930383333333,-5.127299166666667,-4.691561583333333,5.800860166666666
746,7.460000238,1.9078072857142858,-1.2588931142857143,0.8983842442857143,-4.818668657142857,-4.507747271428571,5.760224314285715
747,7.470000238,1.9013304666666666,-1.1934486833333333,1.0657227166666665,-4.380691233333334,-4.1259676333333335,5.722061
748,7.480000238,1.765577857142857,-1.1114237857142857,1.088700342857143,-4.107031442857143,-3.8372988714285716,5.805950514285714
749,7.490000238,1.7609043,-1.0724755,1.1323222142857143,-3.8335464285714282,-3.733978442857143,5.952728214285714
750,7.500000238,2.1492413666666668,-0.9985440466666667,1.3033077333333332,-3.6232405,-3.7680113,6.060063
751,7.510000238,2.5469650142857145,-0.9310778314285715,1.5240087142857142,-3.179241785714286,-4.2279138000000005,5.949237714285714
752,7.520000238,2.7035987142857145,-0.8766147228571428,1.6180865285714285,-2.7235498000000002,-4.684958371428571,5.598960285714286
753,7.530000238,2.7952242,-0.7370857000000001,1.6417117,-2.0753536,-5.0765986,5.024066
754,7.540000238,2.634666,-0.61116374,1.421089,-1.6526473,-4.9556513,4.5903645
755,7.550000238,2.388782583333333,-0.5089880033333333,1.13300311,-1.6139602499999999,-4.348443616666667,4.267429866666666
756,7.560000238,1.9477224714285715,-0.3734015628571429,0.9243962571428571,-1.8941936857142856,-3.2168525142857143,4.017215071428571
757,7.570000238,1.5352246428571428,-0.2570838185714286,0.9930283357142857,-2.044462142857143,-2.378421,4.075332857142857
758,7.580000238,1.1857399166666667,-0.20458002666666666,1.1928288,-1.9737492166666666,-1.9201984,4.283719216666667
759,7.590000238,1.2751789428571427,-0.15437747999999998,1.1907837285714287,-1.6149492142857143,-2.070554057142857,4.515143071428572
760,7.600000238,1.7355078666666668,-0.13535341999999997,1.0041846566666666,-1.3305271666666667,-2.361026416666667,4.564709000000001
761,7.610000238,2.105306,-0.1164702,0.87712437,-1.173743,-2.5829675,4.363129
762,7.620000238,2.3317823,0.016525354,0.6711367,-1.1871816,-2.636722,3.7144093999999996
763,7.630000238,2.0690579,0.20458510771428573,0.4266015228571428,-1.4227942285714283,-2.2733554000000002,3.0189598571428573
764,7.640000238,1.3850401666666665,0.4740774833333334,0.3028631766666667,-1.8855836666666665,-1.5938023833333335,2.441861933333333
765,7.650000238,0.47173049542857143,0.7799366,0.41743724571428575,-2.6720639999999998,-0.545704768,2.5500036571428573
766,7.660000238,0.14966466285714283,0.8200957999999999,0.7281435142857143,-2.9359501285714287,0.10825085914285713,3.1334064714285716
767,7.670000238,0.8508423666666666,0.6143549833333334,0.8427930333333333,-2.8222161,0.15199916166666666,3.562715783333333
768,7.680000238,1.5443323142857144,0.5073771642857142,0.7034905285714286,-2.6546112714285712,-0.42510605714285715,3.430627285714286
769,7.690000238,1.9627212,0.4510222566666666,0.4539797566666666,-2.8425777,-1.1886069333333333,2.843290266666667
770,7.700000238,1.8860290142857141,0.5048029742857143,0.3116601857142857,-3.228109557142857,-1.6509892,2.279463842857143
771,7.710000238,1.4041318166666665,0.6911175333333333,0.5268295666666667,-3.72138325,-1.6707690833333333,1.8263314833333333
772,7.720000238,0.6193044,1.0012474,1.0352434,-3.8187117571428573,-1.4946123714285715,1.8836348142857144
773,7.730000238,-0.02058047,1.5776834,1.4623414,-3.532137014285714,-1.463022742857143,2.4435418714285713
774,7.740000238,0.8503341999999999,2.3646602666666667,1.4590790333333334,-3.28646005,-1.7774636666666666,3.278875333333333
775,7.750000238,2.2489771428571426,2.6085536,1.2874619571428572,-3.6183538,-1.9098139999999997,3.5384855
776,7.760000238,3.1320222333333336,2.820388133333333,2.4136266666666666,-4.381098333333333,-1.6683256,2.2380425
777,7.770000238,3.1876643285714286,2.859008457142857,3.7400569999999997,-4.272658142857143,-1.8370358,0.9736468685714286
778,7.780000238,2.829682416666667,2.8721443333333334,4.774257266666667,-3.492111833333334,-2.1523202666666665,-0.070756475
779,7.790000238,2.1463753142857143,2.997104428571429,5.201139828571429,-1.992278342857143,-2.2841760285714288,-0.9006070285714286
780,7.800000238,1.6040439714285715,3.0187953999999997,4.411598857142857,-1.1342997714285714,-1.7584983285714286,-1.104804542857143
781,7.810000238,1.410880116666667,2.9773788333333333,3.6966181666666666,-1.2686279166666667,-0.6759025183333334,-0.8677085433333334
782,7.820000238,1.4456637,2.886266,3.5845689999999997,-2.1278865,0.63131064,-0.31489176
783,7.830000238,1.8622428,2.634422,4.2491198,-2.5237155,1.2300937,-0.05222743999999999
784,7.840000238,2.1090778285714284,2.388632428571429,4.774150571428572,-2.496489214285714,1.6447717,-0.03128410571428571
785,7.850000238,2.1561115833333333,2.1276089166666665,5.4624272000000005,-1.6693438333333335,1.8839038666666665,-0.14181837500000002
786,7.860000238,1.9056469000000003,2.232107714285714,5.5974344714285715,-0.13403735142857146,1.9060397571428571,-0.27841546
787,7.870000238,1.8626390666666666,2.4435572000000003,5.070489066666667,1.1899813933333334,2.1288536666666666,-0.3234436333333333
788,7.880000238,2.1044389142857143,2.3803915714285715,4.454985571428572,1.8186886857142857,2.528056914285714,-0.4143726142857143
789,7.890000238,2.2539685142857144,2.1955549428571426,3.978925542857143,2.418191542857143,3.259502857142857,-0.9667530657142857
790,7.900000238,2.0932623833333333,1.9205337666666666,3.27089205,2.6185496,3.5562,-1.2885823
791,7.910000238,1.643048942857143,1.6512852428571427,2.5393556285714287,2.5904504999999998,4.1867690714285715,-1.9699388285714288
792,7.920000238,1.3089788,1.4646891,2.1646996,2.4585075,4.3050985,-2.121778
793,7.930000238,1.0581106,1.29971,1.9479796,2.276475,4.331976,-2.2341738
794,7.940000238,0.8608429333333333,1.1697735833333331,1.8062282666666667,2.0575879999999995,4.241366833333333,-2.3125658
795,7.950000238,0.7339452514285715,1.029145442857143,1.7660306857142858,1.9830937428571427,4.193924428571429,-2.332476542857143
796,7.960000238,0.7731896914285714,0.7351125785714286,1.9386496999999998,1.9707023428571426,4.0698354000000005,-2.3493404285714283
797,7.970000238,1.0943016666666667,0.47053557333333335,1.7473885000000002,2.6051108666666667,3.9903087999999998,-2.5340489
798,7.980000238,1.2905413428571428,0.31848548857142855,1.2950625,2.8134970000000004,4.301433514285714,-2.7844381714285715
799,7.990000238,1.4203216833333332,0.20301998416666667,0.9437440833333334,2.75904435,4.531519333333333,-2.941076883333333
800,8.000000238,1.5606442,-0.030676875714285717,0.6458869428571429,2.4242999285714286,4.842819171428571,-3.145885157142857
801,8.010000238,1.5740248,-0.26998526,0.40365160000000005,2.0172720666666666,5.096757,-3.2493511
802,8.020000238,1.4312421,-0.44179407,0.2713878,1.7230474,5.249469,-3.2300076
803,8.030000238,1.2154454285714285,-0.5327445214285714,0.42207601714285714,1.2848080999999998,5.350869428571428,-3.0060884
804,8.040000238,1.0554274,-0.58506465,0.71995056,1.0963181,5.123634,-2.6961272
805,8.050000238,1.046428657142857,-0.5326225214285715,1.0408403771428572,1.3399589285714286,4.7983142857142855,-2.380188114285714
806,8.060000238,1.1344564833333333,-0.4884532916666666,1.3472635833333333,1.8749447333333336,4.3930608,-2.0973439666666667
807,8.070000238,1.2943742999999999,-0.5323002357142858,1.5664633714285714,2.5686345428571427,4.0509864,-1.9751745571428572
808,8.080000238,1.4166592999999998,-0.6347713642857142,1.585954957142857,3.418933857142857,3.777675857142857,-1.9285756285714286
809,8.090000238,1.4989898666666666,-0.7405513733333334,1.5082892333333333,4.2959359,3.6034389000000004,-1.9303791666666665
810,8.100000238,1.509870385714286,-0.82527026,1.1867024714285714,4.886363514285714,3.495464471428572,-1.959990685714286
811,8.110000238,1.4471271,-0.84129906,0.9002963999999999,5.3502584,3.3362950999999996,-2.0008302
812,8.120000238,1.3712081,-0.8295910399999998,0.7492205499999999,5.458989,3.1994653,-1.961736
813,8.130000238,1.4247172666666668,-0.7870835399999999,0.5739308416666666,5.483423166666667,3.0966393,-1.8904705
814,8.140000238,1.4886103857142856,-0.5591528371428571,-0.13427613714285716,4.946052142857143,3.4342051,-1.8481184000000002
815,8.150000238,1.5204850333333333,-0.35825260666666664,-0.22621239666666668,4.154219433333333,3.8111268500000004,-1.70986335
816,8.160000238,1.6044185285714287,-0.3117951871428572,0.029958194285714286,3.637442657142857,3.8275908,-1.6240246857142857
817,8.170000238,1.6889705,-0.32884033333333335,0.3825019916666667,3.5099793333333333,3.4421752,-1.7141392
818,8.180000238,1.6848195,-0.3585618571428571,0.5985453714285714,3.59224,3.1823616,-1.8126892
819,8.190000238,1.5999714714285713,-0.39734462000000004,0.8184014,4.084233785714285,2.6804195714285717,-1.9720331285714288
820,8.200000238,1.5993209333333336,-0.41732109666666667,0.7360591799999999,4.6579649,2.3866312,-2.0325943
821,8.210000238,1.64162,-0.41715845,0.45002624,5.039948071428571,2.398906314285714,-2.084778142857143
822,8.220000238,1.6418641,-0.36492983000000007,-0.16936964,5.0546083,2.5947266,-2.090014
823,8.230000238,1.7178091857142856,-0.39315445571428576,-0.49254177714285713,4.756165942857144,2.908876457142857,-2.0839054999999997
824,8.240000238,1.6256486333333333,-0.5393708933333333,-0.5429077166666666,4.508918266666666,2.9832252666666665,-2.23788985
825,8.250000238,1.4951656142857144,-0.6246967128571429,-0.6205240314285714,4.560520457142857,2.5894906285714288,-2.4915805714285715
826,8.260000238,1.3361552,-0.6812084533333334,-0.8879074933333334,4.629255233333333,2.225978316666667,-2.710991
827,8.270000238,1.1718278857142859,-0.7869753771428571,-1.3920019714285714,4.479015657142857,1.9714877857142858,-3.1675267714285718
828,8.280000238,1.1279011,-0.88669807,-1.8257164,4.1517763,2.1268175,-3.5733037
829,8.290000238,0.8021722342857143,-1.0436976,-2.360377314285714,3.5458157,2.3271753999999993,-4.1707125
830,8.300000238,0.2681254,-1.3970022,-2.6984198,2.881214,2.3015199,-4.6178527
831,8.310000238,-0.5901869,-1.791385,-3.1118279,1.9820466,2.300298,-4.73147
832,8.320000238,-1.1231709714285714,-2.0470705714285713,-3.2482774285714284,1.4340075085714286,2.3638261714285713,-4.522735028571429
833,8.330000238,-2.0778956,-2.4742296,-3.288027,0.5411088916666668,2.4886426,-3.6189135166666664
834,8.340000238,-2.523104685714286,-2.6019853571428575,-3.083446414285714,0.21148405,2.153520114285714,-2.486999214285714
835,8.350000238,-2.3613065,-2.7104529,-2.9624798,0.14935215999999998,1.8022539,-1.4001637333333334
836,8.360000238,-1.9451353,-2.7891741,-2.925027,0.16610682285714287,1.6491348714285716,-0.5831409674285715
837,8.370000238,-1.5313088,-2.7250980666666664,-2.8469548000000002,0.15668231833333335,1.5068075333333333,-0.026368238333333332
838,8.380000238,-1.2901536285714286,-2.5715524285714286,-2.7155679142857143,0.10606926028571428,1.0904496742857144,0.44273336428571436
839,8.390000238,-1.1805043857142858,-2.3678166857142857,-2.5327131,0.03521098228571429,0.22570806285714284,0.9956373928571428
840,8.400000238,-1.1151261,-2.1957684,-2.4045916,-0.024128467,-0.40957308,1.4956594999999997
841,8.410000238,-0.9667332,-2.091067,-2.31233,-0.120642334,-0.7162184,2.0099928
842,8.420000238,-0.6490013,-1.956608,-2.1102757,-0.29290125,-1.049741,2.7075806
843,8.430000238,-0.1413235802857143,-1.8281597428571428,-1.933087557142857,-0.56202309,-1.5932205714285714,3.4428224000000003
844,8.440000238,0.2826943438333333,-1.6590907000000001,-1.7699406333333332,-0.8400167483333334,-1.9489081833333335,3.8363752833333336
845,8.450000238,0.6410609385714287,-1.4221300142857143,-1.549441457142857,-1.4451336428571426,-2.5487602,4.3959402857142855
846,8.460000238,0.8479501871428571,-1.2817342285714286,-1.4782569857142858,-1.7235055,-2.7503397,4.55127
847,8.470000238,0.9559297333333333,-1.1310619333333334,-1.3306060666666666,-2.296276666666667,-2.879228433333333,4.72923025
848,8.480000238,0.9901187285714286,-0.9928802,-1.0808034971428573,-2.839959885714286,-3.113357642857143,4.969788
849,8.490000238,1.0783708666666667,-0.8830748566666666,-0.83431694,-3.2127512,-3.5102339,5.215872
850,8.500000238,1.2524380428571429,-0.8689705285714285,-0.73604467,-3.5523822,-3.8877373,5.415008
851,8.510000238,1.3597440999999997,-0.87840486,-0.69065005,-3.7429667,-4.033119,5.4797583
852,8.520000238,1.6327388714285713,-0.9231723,-0.5128347785714286,-4.291681871428572,-4.219515,5.466145071428571
853,8.530000238,2.0164809142857143,-0.9664631628571428,-0.19836523142857146,-4.7754292,-4.3380408571428575,5.305230257142857
854,8.540000238,2.2937213333333335,-1.0045707666666666,0.14187819333333332,-5.138701666666667,-4.546790666666667,4.855472066666667
855,8.550000238,2.323572,-1.0073583857142858,0.38531864285714285,-5.244581771428572,-4.722831142857143,4.479888357142857
856,8.560000238,2.252967,-1.0009121,0.5151825,-5.2739024,-4.879906,4.1175685
857,8.570000238,2.002743242857143,-1.0214010999999998,0.6530694585714285,-5.280011,-4.915335,3.876895
858,8.580000238,1.7096772714285713,-1.0009120857142857,0.8965592857142857,-5.1920489142857145,-5.061240285714286,3.9259370000000002
859,8.590000238,1.5952912,-0.9892853666666667,1.04115325,-5.021215499999999,-5.300168800000001,4.170304833333334
860,8.600000238,1.6077157,-1.0092052,1.1560735,-4.808437,-5.4956403,4.366794
861,8.610000238,1.7001907,-1.0365238,1.3586159,-4.520193166666666,-5.603556466666667,4.6711998333333336
862,8.620000238,1.8148925000000002,-1.0192058,1.5826533,-3.9640932,-5.6104794,5.0423913
863,8.630000238,2.1195444,-0.9360708666666667,1.6386931999999998,-3.1357843333333335,-5.536363116666667,5.356163249999999
864,8.640000238,2.5258834571428572,-0.8709044400000001,1.5466406857142858,-2.589686942857143,-5.247112528571428,5.205575028571429
865,8.650000238,2.6740496285714284,-0.7948677714285715,1.3856383,-2.3912488714285716,-4.798401571428571,4.786708285714285
866,8.660000238,2.5933322333333333,-0.6705574133333334,1.1665517666666667,-2.4005279833333333,-4.296114216666667,4.3146684833333335
867,8.670000238,2.230648557142857,-0.5648718057142857,1.1250743857142858,-2.5956210142857143,-3.762426542857143,3.8035931285714284
868,8.680000238,1.8450670000000002,-0.4793013366666667,1.1859583833333334,-2.8228271,-3.3459158,3.4951153
869,8.690000238,1.5643596285714287,-0.42363535571428573,1.2689851285714284,-2.9144832285714286,-3.1128339857142855,3.4206791142857145
870,8.700000238,1.0612814,-0.35566097,1.4779521000000002,-2.994068,-2.6489391,3.432198
871,8.710000238,0.88044775,-0.4056639,1.728119,-2.831756942857143,-2.3766758142857145,3.6112635428571425
872,8.720000238,0.92974937,-0.45716083,1.9018792999999998,-2.4015459,-2.1469972000000004,3.793994142857143
873,8.730000238,1.0086869116666668,-0.5027122666666667,1.597303583333333,-1.62169765,-1.6717870999999997,3.7524857
874,8.740000238,1.0380744571428573,-0.44688148285714285,1.5231332714285715,-1.1793279142857143,-1.3192118999999998,3.610914485714286
875,8.750000238,0.94357128,-0.35808999666666663,1.7188299999999999,-0.7249738933333333,-1.3519068,3.5054998000000004
876,8.760000238,0.5987065485714286,-0.025585109999999998,1.7426452857142858,-0.0026615428571428812,-1.505258542857143,3.6440748285714286
877,8.770000238,0.40724936,0.22446433,1.5824094000000002,0.6526903,-1.5200933999999997,4.0027294
878,8.780000238,0.8188718142857143,0.6073873,0.6925883057142858,1.2230252142857143,-1.2722639285714286,4.988287657142857
879,8.790000238,1.4670977714285713,0.6303242000000001,0.012522508571428575,0.7987264714285713,-1.3202591,5.625488514285714
880,8.800000238,2.1946402,0.7125416000000001,-0.53469586,-0.5470137,-1.5579659,5.678894
881,8.810000238,2.581631457142857,0.9480866857142857,-0.70582078,-1.8381702428571427,-1.6899089,5.249555857142858
882,8.820000238,2.1847005999999998,1.5035023666666667,0.9413862399999999,-5.631044833333333,-1.7595454666666666,5.0362829
883,8.830000238,2.3332458,1.8290701000000003,2.4492588,-6.3624325,-1.8621678,5.5420647
884,8.840000238,4.182957583333333,1.9324247666666665,3.9353363333333333,-5.944001833333334,-1.954405783333333,5.599076733333333
885,8.850000238,5.512098642857142,1.977158042857143,4.534045171428572,-4.8213084,-1.3645891714285714,4.446029857142857
886,8.860000238,5.566814285714286,2.231702557142857,4.777199371428572,-3.7448864285714287,-0.6046951457142857,3.0029905714285716
887,8.870000238,4.9361822,2.4848909,4.7706442,-2.7625567333333336,-0.14975938166666666,1.8145217999999999
888,8.880000238,4.167198828571428,2.4964261,4.3278267,-2.0355611714285717,-0.028404400000000003,0.8883028285714286
889,8.890000238,3.7460418,2.5538685,4.1695423,-1.9055381,0.1731752,0.5121954
890,8.900000238,3.129986657142857,2.6333680714285714,4.2431874999999994,-1.8224628,0.82800347,0.45599747000000007
891,8.910000238,2.7529806333333333,2.7194116666666663,4.5275557,-1.5536899666666668,1.2516514950000002,0.7420776116666667
892,8.920000238,2.9744286571428575,2.8578191428571427,4.9131175,-0.18711560000000002,1.6622244714285712,1.063354162857143
893,8.930000238,3.3509532428571434,2.7643512285714285,4.794408714285715,1.2558364999999998,1.8489691714285714,0.7788739285714286
894,8.940000238,3.1817657500000003,2.7483005333333335,4.373807066666667,2.51775965,1.8908267499999998,0.17500771666666667
895,8.950000238,2.8151118857142854,2.6564442571428573,3.636806142857143,3.6915462285714287,1.7885825571428573,-0.4719668
896,8.960000238,2.6698814333333334,2.611717433333333,2.9653456666666664,4.198607666666667,1.7904441666666668,-0.8666905000000001
897,8.970000238,2.705458242857143,2.4731756999999996,2.087652257142857,4.276912428571428,1.9983649571428572,-1.3549029000000001
898,8.980000238,2.623419542857143,2.3289469142857144,1.3765829071428572,3.8439091142857142,2.3507365428571427,-1.9387201142857144
899,8.990000238,2.3320262,2.2458932,0.96740395,2.9056478,2.7633202000000003,-2.6509244
900,9.000000238,1.9049586,2.0821335,0.87029463,2.1872914,2.9905555,-3.0907345
901,9.010000238,1.4152197666666666,1.7016236666666666,1.0992713550000002,1.0657758,3.443804,-3.7150204
902,9.020000238,0.98240924,1.301913957142857,1.5248145142857141,0.8497976285714286,3.5778414,-3.8469634285714287
903,9.030000238,0.6875096083333334,0.9340636666666667,1.9928907166666665,1.0246453666666666,3.4918574000000002,-3.8058329333333334
904,9.040000238,0.7201596,0.6245617142857143,2.3224177285714283,1.6209486428571427,3.2235500571428575,-3.649921485714286
905,9.050000238,0.9990086285714286,0.211271056,2.4759021857142858,2.522733657142857,3.0172581857142857,-3.5593415142857148
906,9.060000238,1.2654752166666667,-0.09670788000000001,2.429079666666667,3.2391703,2.9465744,-3.5488698
907,9.070000238,1.5670164714285715,-0.42477217142857143,2.205311714285714,4.427879,2.9148105,-3.699138271428571
908,9.080000238,1.7088954166666668,-0.66151216,1.9211487499999997,5.0706939166666665,2.8447665333333334,-3.8599946833333334
909,9.090000238,1.7739928142857142,-0.8378885728571428,1.5786156571428571,5.5054135,2.6472592,-4.0534296
910,9.100000238,1.8079321285714285,-0.9147180057142857,1.2662629571428572,5.532640114285714,2.513396514285714,-4.1583209142857145
911,9.110000238,1.8934947,-0.92770654,1.0489331,5.373470999999999,2.4945476,-4.252566
912,9.120000238,2.020636214285714,-0.9788680857142857,0.8756129585714286,4.7654157999999995,3.0903853142857143,-4.427093742857143
913,9.130000238,2.0547948999999996,-0.9939198333333333,0.9990623866666667,4.383694166666667,3.6046605,-4.50545675
914,9.140000238,2.0721289285714284,-1.0155165714285714,1.1538217428571431,4.263299428571428,3.8848357285714283,-4.574744285714286
915,9.150000238,2.0247727333333336,-1.0924214333333333,1.2705111333333334,4.39469,3.84675975,-4.676086833333334
916,9.160000238,1.9857256,-1.1470791000000002,1.2788246,4.60136,3.619728,-4.753461
917,9.170000238,1.827023,-1.2222664857142858,1.201211214285714,4.984273857142857,3.111503257142857,-4.792554857142858
918,9.180000238,1.7182405,-1.2478777,1.126773,5.2354193,2.7620986,-4.7778945
919,9.190000238,1.6311318,-1.2371453,1.061129,5.3221593,2.6631413,-4.741244
920,9.200000238,1.5489013,-1.2127537,0.9556960499999999,5.4321117,2.5153162,-4.6215177
921,9.210000238,1.5384738857142857,-1.146395257142857,0.7492641000000001,5.294409342857143,2.502575842857143,-4.341924128571429
922,9.220000238,1.5545114,-1.0914356,0.6259816,5.1523438,2.5189815,-4.1450567
923,9.230000238,1.6502400285714285,-0.96537424,0.5951609942857142,4.842033371428571,2.6453395285714287,-3.851850185714286
924,9.240000238,1.7682841333333332,-0.87917225,0.6297674,4.592807916666667,2.73562855,-3.621764333333333
925,9.250000238,1.860918657142857,-0.8121598,0.7291453428571428,4.460690371428571,2.6181131285714287,-3.5303698714285714
926,9.260000238,1.8460172000000001,-0.7680021650000001,0.8960380666666667,4.51502665,2.3432610833333336,-3.5258612
927,9.270000238,1.7867375857142858,-0.6819997485714285,1.3628844285714286,5.196674028571429,1.6527563714285713,-3.5638792
928,9.280000238,1.7787929000000002,-0.6590017999999999,1.8979766,6.1016006,0.9623897999999999,-3.5952942
929,9.290000238,1.9052026,-0.7561417,1.7732437,6.7480297,0.7204943299999998,-3.6771479
930,9.300000238,2.1629007,-1.0611899,0.120067984,7.967281,1.3033954,-4.2415705
931,9.310000238,2.0314498833333334,-1.2651652833333333,-1.025029336,7.639459333333334,2.2257748166666667,-4.712940916666667
932,9.320000238,1.7021115571428571,-1.4982101857142855,-1.593751557142857,6.711357128571429,3.203653857142857,-5.377397500000001
933,9.330000238,0.8521331500000001,-1.8435883000000002,-1.7279769,5.9220114,3.5048888,-5.8542075
934,9.340000238,-0.1972676,-2.1742733,-1.8237649,5.367362,2.6533678000000003,-5.90674
935,9.350000238,-1.093326,-2.6418484285714285,-2.4967918428571427,4.5814634,1.135281457142857,-5.004780742857143
936,9.360000238,-1.4079784,-2.8876380000000004,-2.9231886999999994,3.8363752499999997,0.6252021566666667,-4.375550016666667
937,9.370000238,-1.5685714857142856,-3.0951328857142855,-3.0765383714285712,2.9250202571428576,0.36288691142857143,-3.7516710285714288
938,9.380000238,-1.6051852,-3.136555,-3.1137789999999996,2.394572183333333,0.4989604,-3.3619505833333334
939,9.390000238,-1.6686338,-3.161221,-3.1672275,1.5801091,0.6190937,-2.8427304999999996
940,9.400000238,-1.3850503,-3.500936,-3.1259751000000002,0.26663482,1.2227635,-2.0631366
941,9.410000238,-1.8221795499999998,-3.6979088,-2.9921969333333336,-0.22183935333333335,1.5851995666666667,-1.6941848333333331
942,9.420000238,-2.5528843,-3.667700857142857,-2.9239380571428577,-0.5297354714285715,1.3777005857142857,-0.7915271165714285
943,9.430000238,-2.7497642,-3.5168973500000003,-2.9717436,-0.6400661583333334,0.7072593460616666,0.2574721266666667
944,9.440000238,-2.550444985714286,-3.384779414285714,-2.9565836857142855,-0.8979891214285715,-0.1500502740214286,1.7670502714285714
945,9.450000238,-2.0923376,-3.2226625666666666,-2.8185790333333336,-1.1633586166666667,-0.5791850333333334,2.8707021666666663
946,9.460000238,-1.500314,-2.993981314285714,-2.5902076428571426,-1.5055203142857143,-0.9500856571428571,4.004649142857143
947,9.470000238,-0.8974304,-2.6992428,-2.3743153,-1.7271705999999998,-1.1926793,4.617242
948,9.480000238,-0.48621739999999997,-2.4805715,-2.2471738,-2.0611005166666665,-1.5815853833333333,5.172094749999999
949,9.490000238,-0.16044926285714287,-2.300247385714286,-2.1697826,-2.539772,-2.1515349571428573,5.635611514285714
950,9.500000238,0.38373173666666666,-2.046318566666667,-2.031521066666667,-3.5979920666666665,-2.8615140999999995,6.069022
951,9.510000238,1.4701728185714285,-1.6304827142857141,-1.3740392714285714,-4.899343999999999,-3.2007959428571433,6.263387714285715
952,9.520000238,1.8802112666666666,-1.4307542,-0.57373264,-5.987371933333333,-3.1311012666666667,6.128070466666667
953,9.530000238,2.0098122857142857,-1.3049193142857143,0.049279885714285716,-6.2938428,-3.0395322285714284,6.015558114285715
954,9.540000238,2.081597914285714,-1.1685611999999999,0.6231025571428572,-6.2903523,-2.9836833,5.9378934
955,9.550000238,2.2824197500000003,-0.9744623333333333,1.18742195,-5.5518125,-3.0977081666666666,5.791290249999999
956,9.560000238,2.425781785714286,-0.6683447314285714,1.4800123428571428,-4.106682671428572,-3.283522057142857,5.280796357142857
957,9.570000238,2.2533988333333332,-0.5255540500000001,1.34145025,-3.338382166666667,-3.305396216666667,4.939972399999999
958,9.580000238,2.095793,-0.475729,1.223913,-3.013615,-3.3318663,4.8066044
959,9.590000238,1.5681708,-0.35858798,0.90322345,-2.2451692,-3.6641672,4.7699537
960,9.600000238,1.5224974000000002,-0.3516799114285714,0.8635521500000001,-2.1425468285714286,-3.7306623714285716,4.837495828571429
961,9.610000238,1.4106136428571427,-0.3358732485714286,0.41363911142857146,-1.9369530428571429,-3.781798942857143,5.330187571428572
962,9.620000238,1.5550246833333334,-0.3273361633333333,0.06550178833333334,-2.2085183,-3.4833565000000006,5.687445999999999
963,9.630000238,1.8112729,-0.33078586000000004,-0.021869743999999997,-2.8830680857142856,-3.0915416714285713,5.775757228571429
964,9.640000238,1.9902126666666666,-0.34469492,0.05285877666666667,-3.485189,-2.8004293,5.7265406
965,9.650000238,2.2324255,-0.30801449714285717,0.38542754285714287,-4.121691957142857,-2.483661285714286,5.414135428571428
966,9.660000238,2.46366,-0.16560925533333334,0.8543282666666666,-4.363383633333333,-2.3154165499999997,4.965221
967,9.670000238,2.5170980000000003,-0.032872126571428566,1.2142127285714286,-4.177540871428571,-2.4012842,4.3322379571428575
968,9.680000238,2.412092,0.08802343,1.4093808999999997,-3.7283063,-2.6232836,3.7290697
969,9.690000238,2.199544742857143,0.13780855857142857,1.2441361857142859,-3.1455579,-2.852962,3.092567
970,9.700000238,1.5850401714285716,0.27688899285714286,0.9030622842857142,-2.7624694,-2.9887448285714284,2.4649867714285714
971,9.710000238,1.0466362800000002,0.37340593333333333,0.8817486466666665,-2.6980105,-3.148001433333333,2.3162309666666667
972,9.720000238,0.7177378685714285,0.4231475142857143,1.0073976285714286,-2.556875628571429,-3.363630342857143,2.4026804999999998
973,9.730000238,0.6104472116666666,0.47923530000000003,1.1175855166666666,-2.31480575,-3.3805305000000003,2.5817459166666663
974,9.740000238,0.7031507742857144,0.49913627857142856,1.11951222,-1.8999530714285715,-3.154546071428572,2.7587170000000003
975,9.750000238,0.819107775,0.5389897483333334,0.90355375,-1.6147747166666664,-2.8350438333333337,2.7613350666666663
976,9.760000238,0.8036967185714285,0.5993467985714285,0.6274233642857142,-1.4880675285714287,-2.388892857142857,2.6939673857142856
977,9.770000238,0.81626713,0.71376115,0.45441675,-1.5341429000000002,-2.045422,2.6562693000000004
978,9.780000238,0.97765871,0.7463037166666666,0.49411418333333335,-1.6440953166666665,-1.8815114166666664,2.5320638
979,9.790000238,1.2372150142857143,0.8596364000000001,0.7444903057142856,-1.6617226571428572,-1.9499554428571428,2.151185914285714
980,9.800000238,0.7154685700000001,1.2897094,0.9766727999999999,-1.4583978333333334,-2.678259833333333,1.0998305333333334
981,9.810000238,0.5700898857142858,1.3852288857142858,1.0029592028571428,-1.563463557142857,-3.0067211285714284,1.032113657142857
982,9.820000238,0.5670402,1.4289756166666665,1.06343095,-1.8075988499999998,-3.02583195,1.0806905833333333
983,9.830000238,0.5768890828571429,1.533491057142857,1.1962893,-2.131377042857143,-2.4986707142857143,1.1541086
984,9.840000238,0.46800206,1.9420166142857143,1.2626041714285716,-2.5324418714285715,-0.9143074457142857,1.3785514285714286
985,9.850000238,0.4792607,2.161365883333333,1.33404125,-2.7863798,0.31611344,1.601947
986,9.860000238,0.8978485857142857,2.2384363714285715,1.5302852999999998,-3.511193657142857,1.2239851714285714,1.7124229857142856
987,9.870000238,2.0267341333333335,2.1455113000000003,2.0704155666666666,-4.003187533333333,0.6330413666666667,1.1356668333333333
988,9.880000238,2.7417758,1.9749933,2.5681071,-4.469875,-0.0943759,0.2544179
989,9.890000238,2.906001542857143,1.8637149857142856,3.119715985714286,-4.497974,-0.39246938,-0.34299073
990,9.900000238,1.4888572,2.1971200666666664,3.9318401333333335,-3.9058591333333332,-0.20290309666666664,-1.368603305
991,9.910000238,0.5305928085714285,2.2600403285714283,4.071230257142857,-3.178543714285714,0.7980282857142857,-1.4978411
992,9.920000238,0.24071019333333332,1.9663646833333333,4.027511283333333,-2.806741333333333,1.6145202,-1.09046415
993,9.930000238,0.052838447428571425,1.8798875,4.230028971428572,-2.2287635142857143,2.1981992285714287,-0.4077405531428572
994,9.940000238,-0.021800052666666667,1.9982567333333332,4.153931433333334,-1.68522575,2.086705133333333,0.13469182000000002
995,9.950000238,-0.048630886,2.1619248,4.0245943,-1.2800305,1.8433843,0.7394306
996,9.960000238,0.41330375714285716,2.4360174285714287,3.973332742857143,-0.7653479657142858,1.7840448857142857,1.7572766285714287
997,9.970000238,1.0310053,2.6820164,3.8957152,-0.41873580000000005,1.9264596,2.1761434
998,9.980000238,2.3771813,2.9097126,3.80324,-0.105982,2.1439211,2.1126153
999,9.990000238,3.1988858,2.9280061333333336,3.5931161333333335,0.9508346666666666,2.4501592333333337,-0.1353026466666667
