id,timestamp,acc_x,acc_y,acc_z,gyro_x,gyro_y,gyro_z
0,4.77e-07,-0.30841084571428573,0.7459537885714286,-0.5021068142857142,0.7626427714285714,-0.16215813542857144,0.7470443714285714
1,0.010000477,-0.07851067714285716,0.7389847085714286,-0.4444989457142857,0.9518309142857143,-0.47561005428571423,0.9554742171428572
2,0.020000477,0.23440828142857142,0.7064480142857142,-0.5147208171428571,1.2469573857142857,-0.9520709485714285,1.016908
3,0.030000477,0.38952183999999995,0.6449548857142856,-0.8443306,1.2764526,-0.9803444142857144,0.7865967428571429
4,0.040000477,0.43473066000000005,0.5971181466666667,-0.9898443333333334,1.080894215,-0.7285880800000001,0.61970455
5,0.050000477,0.5792629,0.46292335,-0.8759396428571428,0.7544399842857142,-0.4028319685714286,0.44552582
6,0.060000477,0.54042788,0.4511369642857143,-0.7276992828571428,0.6057423242857142,-0.3663556357142857,0.3039837714285714
7,0.070000477,0.46138363833333335,0.4669530716666667,-0.632110075,0.617872015,-0.4950407833333334,0.24097923666666665
8,0.080000477,0.43439817714285717,0.38810627571428574,-0.5392693000000001,0.8249492485714286,-1.0150754285714285,0.1776256585714286
9,0.090000477,0.47524623833333335,0.261946175,-0.6272825416666666,0.9562814166666667,-1.4233250000000002,0.16584503333333334
10,0.100000477,0.47010147571428573,0.17258845714285714,-0.6711323642857143,1.0055855,-1.7489647857142858,0.18809732857142855
11,0.110000477,0.5146032,0.10290234,-0.77483183,0.9654441,-1.6528,0.19455484999999997
12,0.120000477,0.46454801714285715,0.09704834571428571,-0.8131789728571429,0.8956329857142856,-1.449649657142857,0.13800784714285713
13,0.130000477,0.27305165285714283,0.10039348714285713,-0.8325311585714286,0.8118596357142858,-1.2313153571428572,0.12177675642857143
14,0.140000477,0.16293633,0.116104335,-0.90514433,0.78829837,-1.4011309,0.25930467
15,0.150000477,0.14316601714285712,0.12613976142857145,-0.92219666,0.7624682728571429,-1.5505267285714286,0.32004034428571426
16,0.160000477,0.037573331999999994,0.19582443000000002,-0.94346966,0.7351546999999999,-2.0089239,0.467603585
17,0.170000477,0.03226233628571428,0.21922010285714286,-0.9972707171428572,0.7209306714285715,-2.6812921428571426,0.66185303
18,0.180000477,0.07854624833333333,0.25226571999999997,-1.0900279666666666,0.6689795333333333,-3.2190122666666667,0.7807137000000001
19,0.190000477,0.020589179785714284,0.3029924214285714,-1.104581,0.5877659285714286,-3.5656245714285717,0.8537244714285714
20,0.200000477,-0.09126040871666667,0.362658345,-1.1158069333333334,0.5099556500000001,-3.567399066666667,0.9177470916666666
21,0.210000477,-0.32152572285714287,0.4865222714285714,-1.0418856714285716,0.4221391,-3.395285571428572,0.9699599885714285
22,0.220000477,-0.46998385428571426,0.5650373285714285,-0.9867430714285714,0.3931674828571428,-3.243097228571429,1.0331390857142857
23,0.230000477,-0.5927022583333333,0.5722285333333333,-1.0472307833333332,0.4710650433333334,-2.780627566666667,1.18835245
24,0.240000477,-0.6777529442857143,0.5968292714285715,-1.110753,0.49561528,-2.629806485714286,1.2284356142857142
25,0.250000477,-0.8729472666666668,0.6453425166666666,-1.1937079333333334,0.5012001700000001,-2.5586865,1.2875132999999999
26,0.260000477,-1.0685510142857144,0.6692855857142856,-1.2264957857142857,0.4539031514285714,-2.791244771428571,1.4738217571428571
27,0.270000477,-1.1799672,0.6661872866666667,-1.2259963,0.36722101999999995,-3.3529915000000003,1.7755802
28,0.280000477,-1.2063726142857143,0.6327416228571429,-1.2164951857142856,0.2828659114285714,-3.9577885285714287,2.1235885142857143
29,0.290000477,-0.9384744833333333,0.50790055,-1.2208334333333333,0.0159838375,-4.4233233499999995,2.7177103
30,0.300000477,-0.6788462,0.42839605999999997,-1.1231622142857143,-0.21069866657142858,-4.238647571428571,2.957482542857143
31,0.310000477,-0.3755096866666667,0.3162176266666667,-0.8779780733333333,-0.40692607166666667,-3.8650850833333332,3.1023405
32,0.320000477,-0.06778269942857143,0.035990774999999996,-0.94895346,-0.6937915842857143,-3.353224214285714,3.096057542857143
33,0.330000477,0.057686294,-0.15720429374999997,-1.0122440433333333,-1.0503518866666666,-2.962456566666667,3.0559161333333336
34,0.340000477,0.05409723357142857,-0.30358915428571426,-0.9720166285714286,-1.5854540857142858,-2.696650714285714,2.9965766285714284
35,0.350000477,0.042380521000000004,-0.40115148,-0.9385913499999999,-1.8694979999999999,-2.6674173,2.9832252500000003
36,0.360000477,0.0718029682857143,-0.5752818428571429,-0.8448184828571429,-2.343951814285714,-2.7416788571428574,3.037067142857143
37,0.370000477,0.141334465,-0.84605545,-0.58131443,-2.99345705,-2.9826145,3.1896918000000003
38,0.380000477,0.31839837000000004,-1.0917535600000001,-0.30406827857142854,-3.3188641,-3.5525349714285714,3.4325470285714283
39,0.390000477,0.5293688714285715,-1.287488,-0.26059012,-3.512939,-4.016429857142857,3.628367214285714
40,0.400000477,0.5862943916666666,-1.4688153333333334,-0.35832374666666666,-3.8363498333333332,-4.0173898333333335,3.8860575333333336
41,0.410000477,0.3017771871428572,-1.4175304571428573,-0.12964170914285714,-4.2736836,-3.7719163,4.406935871428571
42,0.420000477,0.42734201,-1.3566086833333333,0.10345115433333334,-4.696041,-3.751671,5.258631
43,0.430000477,0.8458246285714285,-1.4083313571428573,0.16760995285714286,-4.846134942857143,-3.762840885714286,5.4722531142857145
44,0.440000477,1.372053057142857,-1.4960149857142857,0.23559300142857142,-5.137596328571428,-3.7651098714285713,5.5809842000000005
45,0.450000477,1.7963460857142857,-1.5400158142857143,0.3971442585714286,-5.431152014285714,-3.690760957142857,5.221107714285714
46,0.460000477,2.0397313,-1.5704139571428573,0.5932532742857143,-5.786141499999999,-3.474521014285714,4.497166714285714
47,0.470000477,1.9798715333333334,-1.5972781666666667,0.7025410000000001,-5.920178933333333,-3.397379733333333,4.099650666666666
48,0.480000477,1.7756436571428573,-1.6496214714285713,0.8276092742857143,-6.063291857142858,-3.468237942857143,3.5493061714285714
49,0.490000477,1.2167129571428572,-1.6640083,1.1274829942857143,-6.044966285714286,-4.294735942857143,3.2089768857142857
50,0.500000477,1.230651,-1.6957086,1.2011981000000003,-5.853683714285714,-4.850476428571429,3.446683828571428
51,0.510000477,1.4269022500000001,-1.75447735,1.1458850166666668,-5.720635533333334,-4.915284466666667,3.698120233333333
52,0.520000477,1.6138093571428571,-1.7592620285714287,1.069117257142857,-5.668160942857143,-4.681882485714286,3.9266352
53,0.530000477,1.8140606,-1.7170774714285717,1.0084908428571429,-5.7767171428571435,-4.2789632,3.9470549285714287
54,0.540000477,1.91361775,-1.70888015,1.0192819499999999,-5.92628735,-3.9917341,3.8164209000000002
55,0.550000477,1.8834853142857142,-1.6992977142857144,1.146517214285714,-6.063640614285714,-3.8518500857142857,3.626796471428571
56,0.560000477,1.67140855,-1.6465442,1.44622775,-6.0759449,-4.1481874,3.4102075
57,0.570000477,1.1784225,-1.3574573,1.9719138,-5.712141971428571,-4.801434071428572,3.5095138142857145
58,0.580000477,1.0723389666666667,-1.1604335666666667,2.0540732,-4.611337083333333,-5.45323695,4.332994033333333
59,0.590000477,1.2100096285714286,-0.9698867357142857,1.9210136857142857,-4.058316528571429,-5.452422571428571,4.829990985714285
60,0.600000477,1.9415593857142857,-0.83700875,1.574882857142857,-3.549807942857143,-5.032683357142857,5.176603285714286
61,0.610000477,2.8074504999999994,-0.733183,1.2395235,-3.494264428571429,-4.2573001857142865,4.808000714285714
62,0.620000477,2.8357040833333333,-0.5924481666666667,1.2824376666666666,-3.6893136666666666,-3.7594086333333334,4.257656333333333
63,0.630000477,2.787240228571428,-0.5199606514285714,1.3197503285714285,-3.9433025999999995,-3.331757228571429,3.773225371428571
64,0.640000477,2.6159192285714283,-0.32719679999999995,1.5639718428571427,-4.254311314285714,-2.834353071428571,3.3931039
65,0.650000477,2.3121064,0.17019286,2.1787754333333336,-4.52704,-2.0860943,2.9915735666666667
66,0.660000477,2.331717042857143,0.44753919857142854,2.3819463714285716,-4.397075,-1.7405873714285716,2.8319968857142856
67,0.670000477,2.4960210857142857,0.5851866,2.3499454571428573,-4.257801714285714,-1.4950267857142858,2.599002357142857
68,0.680000477,2.6830223833333338,0.8238793333333333,2.4940936666666667,-4.392246083333333,-1.3282364999999998,1.9525224166666666
69,0.690000477,2.4966396714285715,1.2712719142857143,3.6142483142857142,-4.3143487857142855,-1.5323758428571428,1.3792276571428572
70,0.700000477,2.4798907333333333,1.5119683166666666,4.314687683333333,-3.4864106000000006,-1.4719892,1.2478082
71,0.710000477,2.6310552714285715,1.6481231714285713,4.623135414285714,-2.7708467142857143,-1.3714612000000002,1.2666572285714286
72,0.720000477,2.9813630714285715,1.8749874714285715,4.630688285714285,-1.2559455857142858,-1.2314898428571428,1.2231998571428573
73,0.730000477,3.2042852714285712,1.9423432999999999,4.417958342857142,-0.36288690714285715,-1.236202057142857,1.0849738428571427
74,0.740000477,3.454256285714286,1.9934874285714286,4.042165485714286,-0.09795372314285714,-1.3112490571428572,0.7777176428571428
75,0.750000477,3.7166599,2.102643033333333,3.7100944666666664,-0.19760908866666668,-1.1238062466666665,0.49183383999999997
76,0.760000477,3.8924917857142853,2.1763377,3.876489,-0.6309615771428572,-0.08135175428571424,0.1982199317142857
77,0.770000477,4.175975142857142,1.9156213714285715,4.5592118,-0.59815036,1.2472410685714286,-0.2527598797142857
78,0.780000477,4.066731,1.2648299,5.104261,0.5425341616666667,1.84954365,-1.1014594416666668
79,0.790000477,3.7850290714285713,1.0969629714285714,4.852700071428571,1.5079855428571427,1.9517005714285713,-1.4994119000000001
80,0.800000477,3.5070947285714285,0.9088378428571428,4.334412342857143,2.3988189142857146,2.247001657142857,-1.7142555857142858
81,0.810000477,3.3809595,0.79626596,3.5779834,3.0016379714285715,2.7545284000000003,-1.876915414285714
82,0.820000477,3.370694633333333,0.7754314533333333,3.2128806,3.0656897666666665,3.222728266666666,-2.203224233333333
83,0.830000477,3.3106287714285716,0.7545605999999999,2.9596281714285717,2.9929116714285717,3.533794942857143,-2.470135414285714
84,0.840000477,3.092690616666667,0.6838610666666667,2.90396015,2.8681823833333335,3.9158363499999997,-2.8649754166666668
85,0.850000477,2.9346877428571427,0.5687919228571429,2.9082403285714284,3.0040813571428573,4.151274428571428,-3.086393
86,0.860000477,2.6280496,0.31254873,2.9202619,3.3784435,4.590212,-3.4851890000000005
87,0.870000477,2.1719255,0.040673107,2.5913098,3.9098805833333334,4.70118225,-3.717310916666667
88,0.880000477,1.9013957857142858,-0.05920205871428571,2.511296371428571,4.280054000000001,4.590386042857143,-3.7951503571428575
89,0.890000477,1.4925914428571427,-0.2474621607142857,2.5687996857142856,4.700317,4.2078214,-3.6769950000000002
90,0.900000477,1.1791542,-0.41496322,2.7201586,5.3343763,3.541998,-3.4974060000000002
91,0.910000477,1.1586652,-0.5965287,2.661832,6.0022360500000005,2.9504941666666666,-3.324332666666667
92,0.920000477,1.2758105571428568,-0.7889615357142857,2.5155692857142857,6.708259142857143,2.4552132571428573,-3.2172889285714286
93,0.930000477,1.4795376285714286,-1.0304913342857143,2.2539817714285713,7.3136088571428575,2.1082520000000002,-3.210656842857143
94,0.940000477,1.7504418285714285,-1.2406516285714286,1.9024978285714285,7.947733685714286,1.8134746142857143,-3.3918167285714285
95,0.950000477,1.9305046000000001,-1.3630368285714287,1.6102725,8.105855857142858,1.8024793428571428,-3.6883393714285715
96,0.960000477,2.1087598142857145,-1.544776542857143,1.1580466,7.876351928571428,1.9443704142857143,-4.065668357142857
97,0.970000477,2.1568027,-1.6276255,0.8905397699999998,7.5690084,2.117502,-4.308611
98,0.980000477,2.1325503571428572,-1.5546073,0.6824091814285714,7.036589542857143,2.3583503571428572,-4.484011428571429
99,0.990000477,2.0950306142857142,-1.4537390000000001,0.5970993071428572,6.340878285714285,2.4787746428571427,-4.721849142857143
100,1.000000477,2.058281942857143,-1.4308021285714287,0.622967542857143,6.153435471428572,2.4634162,-4.797965057142856
101,1.010000477,1.9158993833333333,-1.4285081999999998,0.7870124,5.325213716666666,2.3227467666666666,-5.146031916666666
102,1.020000477,1.7243689,-1.3823367,1.1221386,5.0032973,2.3679494999999995,-5.1871624
103,1.030000477,1.6492019000000002,-1.3563189666666666,1.3635754666666664,5.1051051,2.408672633333333,-5.157027266666667
104,1.040000477,1.6086913428571428,-1.4876478142857141,1.4744675285714286,5.466668571428571,2.3539871999999997,-5.086110771428571
105,1.050000477,1.554498285714286,-1.5376638142857142,1.3703412285714285,5.878903185714285,2.2707374000000002,-4.9974507
106,1.060000477,1.5377319333333332,-1.5542471666666666,1.0340440666666666,6.222141166666667,2.1329768666666666,-4.764048833333334
107,1.070000477,1.5641592285714288,-1.4805654142857143,0.6500117999999999,6.264958857142858,1.9721203428571428,-4.485604
108,1.080000477,1.5891476000000002,-1.3872354333333334,0.5282930333333333,6.101600666666666,1.8857872666666669,-4.342411333333334
109,1.090000477,1.6544650285714286,-1.2733235285714286,0.4503093542857143,5.846092,1.7953236714285714,-4.213842571428572
110,1.100000477,1.6698754142857144,-1.2370060142857144,0.4368547585714286,5.6860501,1.7668756714285714,-4.181729285714286
111,1.110000477,1.4451759,-1.1431764,0.35438043,5.403402,1.8560593833333334,-4.190513833333333
112,1.120000477,1.3721577,-1.0961092285714287,0.4792483414285714,5.164560728571429,2.2374026571428574,-4.021512857142857
113,1.130000477,1.3457710857142857,-1.1619100714285715,0.4400300371428571,5.2532211,2.5889016285714286,-3.797070142857143
114,1.140000477,1.4758025166666666,-1.2492141333333333,0.3104297,5.482201166666666,2.62735585,-3.6977639166666667
115,1.150000477,1.54071105,-1.3525446375,0.1835625399375,5.667287999999999,2.3685602,-3.70570495
116,1.160000477,1.471932585714286,-1.6193148428571429,-0.23748771957142858,6.104393285714286,1.322702457142857,-3.856584157142857
117,1.170000477,1.0876244,-1.6495779,-0.54152554,6.431051,0.315782575,-3.976106716666667
118,1.180000477,0.8952003714285715,-1.6782469285714288,-0.7760252542857142,6.624834714285714,-0.35570945571428575,-4.018022371428571
119,1.190000477,0.6842168,-1.7164416,-1.185557,6.633386714285714,-0.7942978142857143,-4.159913371428572
120,1.200000477,0.4758770514285714,-1.6894715142857142,-1.6817618857142858,6.258850071428571,-0.9897688714285715,-4.411058928571428
121,1.210000477,0.03095563428571429,-1.6627887571428572,-2.2865663285714284,5.3434521,-0.8440382142857142,-4.630396857142857
122,1.220000477,-0.6929368,-1.5866169999999997,-2.5876205,3.8329139,-0.34803024,-4.450328
123,1.230000477,-0.8364294514285715,-1.5993006571428572,-2.421391414285714,3.133406471428571,-0.20142689142857143,-4.0649704571428575
124,1.240000477,-0.8064102714285715,-1.6824588857142857,-2.1235211428571428,2.171060185714286,-0.18432316285714284,-3.433877842857143
125,1.250000477,-0.5401636366666667,-1.8206652666666665,-2.0165505666666665,1.1778408166666665,-0.6805347666666667,-2.898368416666667
126,1.260000477,-0.3743467542857143,-1.9744749142857143,-2.087835214285714,0.6560063457142856,-0.7365291014285714,-2.8453702142857145
127,1.270000477,-0.37667268857142855,-2.1481697857142854,-1.9766528,-0.08503866285714287,-0.4431478857142857,-2.9469453857142858
128,1.280000477,-0.7085474,-2.4009936,-1.6539074000000002,-0.5407016299999999,-0.010842541666666664,-3.0885456166666665
129,1.290000477,-1.1547319142857142,-2.4784025142857145,-1.4275614285714286,-0.5707494714285714,0.18270878142857144,-2.964398142857143
130,1.300000477,-1.6142812500000001,-2.467699833333333,-1.2417847666666668,-0.29066148333333336,0.0005599433333333322,-2.496430966666667
131,1.310000477,-1.6126811857142855,-2.462351914285714,-1.2950188714285713,0.03939964428571428,-0.5009165594285715,-1.875344785714286
132,1.320000477,-1.6109578000000002,-2.4986926,-1.3819505333333335,0.20595733333333333,-0.9238555666666667,-1.3732865
133,1.330000477,-1.5521419,-2.5452747142857146,-1.6969587857142856,0.27832819428571426,-1.4266119571428573,-0.6445747485714286
134,1.340000477,-1.5079639666666667,-2.442164733333333,-1.8352189,-0.10476030333333335,-1.4284153999999998,0.16401248999999998
135,1.350000477,-1.5091603714285715,-2.3402714714285713,-1.7857052857142857,-0.8403949057142857,-1.1915230142857143,1.2643447628571427
136,1.360000477,-1.390198742857143,-2.2629413285714284,-1.623587742857143,-1.332563257142857,-1.1119383571428572,2.1506405571428573
137,1.370000477,-1.1296899333333335,-2.1620877000000003,-1.4127653666666664,-1.7275778666666666,-1.2720385,3.1455070333333333
138,1.380000477,-0.7515073,-2.01713,-1.2458347999999997,-2.0570280857142857,-1.5960784857142858,4.156314028571429
139,1.390000477,-0.43325698000000007,-1.9163314,-1.1372614,-2.337203433333333,-1.8802388333333333,4.888050666666667
140,1.400000477,-0.18816428714285713,-1.8717076857142858,-1.0499087571428571,-2.669446171428571,-2.2168738571428572,5.570861357142857
141,1.410000477,0.22673578166666666,-1.7794127833333333,-0.8832018666666667,-3.1066672,-2.5875998333333334,6.212087283333333
142,1.420000477,0.5783394828571428,-1.6795884714285714,-0.7102112714285714,-3.3818684285714284,-2.773442857142857,6.5206197857142865
143,1.430000477,0.8046114285714285,-1.5713155714285716,-0.5449098314285714,-3.768709285714286,-2.8778105714285718,6.868279357142858
144,1.440000477,1.0858560333333334,-1.4367809999999999,-0.31773196333333337,-4.221209,-2.9286562333333332,7.281095833333333
145,1.450000477,1.3967190857142857,-1.3648879571428572,-0.09885594428571429,-4.530065,-2.9793856999999995,7.566739571428571
146,1.460000477,1.8624868,-1.3267237,0.12250715500000002,-4.742872533333333,-3.0842186333333337,7.687512666666667
147,1.470000477,2.1082762857142856,-1.3229342714285717,0.29697726785714285,-4.953120471428571,-3.176602157142857,7.623984785714285
148,1.480000477,2.2606369857142856,-1.309061485714286,0.5326225342857143,-5.014554085714286,-3.226691714285714,7.419088928571428
149,1.490000477,2.3352988333333333,-1.2678076666666669,0.7537127,-4.9391582666666665,-3.228786,7.112501766666667
150,1.500000477,2.2612338,-1.2042252285714288,0.8813014028571429,-4.7464794857142865,-3.167352157142857,6.743317228571429
151,1.510000477,2.097109166666667,-1.1455800166666668,0.89102757,-4.5592110833333335,-3.0805537,6.419801166666667
152,1.520000477,1.9438373,-1.1010268142857143,0.8681821628571429,-4.498649957142858,-3.024937442857143,6.281865971428572
153,1.530000477,1.7837713714285715,-1.0634200999999999,0.8163368142857144,-4.497602914285714,-2.962980057142857,6.180988957142858
154,1.540000477,1.6513870333333334,-1.0617591333333334,0.7577677766666667,-4.6451371,-2.9469817333333332,6.2279951
155,1.550000477,1.3957042428571427,-1.1591225428571428,0.7697661842857143,-5.254355614285714,-3.1956255714285717,6.697940042857143
156,1.560000477,1.59988,-1.3001063,1.0113395,-5.567108999999999,-3.6380537,7.121868
157,1.570000477,1.939176742857143,-1.4293908714285715,1.1198998142857142,-5.574962928571429,-3.8029824857142858,7.188188714285714
158,1.580000477,2.2523977,-1.5412383,1.23886295,-5.48036875,-3.7702001666666667,6.934745333333333
159,1.590000477,2.351635485714286,-1.4651638714285713,1.4514870714285715,-5.171803657142857,-3.389177057142857,6.252545228571429
160,1.600000477,2.1148752,-1.2277284285714285,1.6151464714285715,-4.599003428571429,-2.908003885714286,5.411888457142857
161,1.610000477,1.6825728333333334,-0.9821202833333333,1.5522653666666668,-3.928206,-2.4204313666666666,4.735338933333333
162,1.620000477,1.107116,-0.7824541785714285,1.3161917857142857,-3.212794771428572,-1.9006294,4.447426285714285
163,1.630000477,0.8145495333333334,-0.68072059,1.1292935666666668,-2.8627356,-1.6882290500000001,4.427268349999999
164,1.640000477,0.6289260571428572,-0.50664105,0.6998317714285714,-2.4799089142857142,-1.7367478571428572,4.772920342857143
165,1.650000477,0.7290161,-0.3713173783333333,0.183648925,-2.4829922666666664,-2.0054624,5.069064916666666
166,1.660000477,0.9501687,-0.39031021714285713,-0.06815292857142859,-2.6638612285714283,-2.113029714285714,5.113773128571429
167,1.670000477,1.6673185571428573,-0.6318399942857144,-0.4753456714285714,-3.8982744000000005,-2.4615617,4.892123
168,1.680000477,2.1190260833333334,-0.8795635733333333,-0.3828577083333333,-4.555546133333333,-2.6187530999999997,4.579369
169,1.690000477,2.1817649571428572,-0.9178149285714287,-0.03799002142857143,-5.4231237142857145,-3.0094045714285715,4.1744645714285715
170,1.700000477,1.895202,-0.670222,0.9940213999999999,-6.365893833333334,-3.8400404,4.013521
171,1.710000477,1.7924694857142858,-0.36293928571428574,2.0079134,-6.39664,-4.7291794,5.0142922
172,1.720000477,1.9378570666666668,-0.2610874,2.4244199833333333,-6.153115333333333,-4.728364933333333,5.296096733333333
173,1.730000477,2.8015049285714286,-0.3269659371428571,2.6208628999999997,-4.6627062,-3.7874712428571433,6.0926561999999995
174,1.740000477,3.6258909428571426,-0.4685682785714286,2.6004958857142855,-3.778264757142857,-2.661221571428571,6.211531185714286
175,1.750000477,4.22555675,-0.4404575966666666,2.4262746666666666,-3.138024216666667,-1.62999505,5.94239845
176,1.760000477,4.583913157142858,0.07946457285714288,2.5069492857142857,-3.0446809714285714,-1.7274978142857143,5.327569942857143
177,1.770000477,4.8835473,0.9063333,2.8655941000000005,-3.1292685833333334,-2.78225655,4.676290183333333
178,1.780000477,5.432856471428572,1.1359983857142857,3.1461156142857143,-3.1446852428571432,-3.757430614285714,4.010757671428571
179,1.790000477,6.0255296666666665,1.0510470666666667,3.3755017833333327,-2.9806291333333337,-3.2084243333333333,2.7561937000000003
180,1.800000477,5.782066542857143,1.0822495571428572,3.4251996714285715,-2.8612523142857142,-1.7142336999999999,1.3329777785714285
181,1.810000477,4.827999328571429,1.256175142857143,3.4788527857142855,-2.8682333428571427,-0.003861414285714301,0.4399627414285714
182,1.820000477,4.421482500000001,1.2884898166666667,3.512252516666667,-2.8735272666666667,0.5592815666666666,0.26500590333333335
183,1.830000477,4.132723657142857,1.1848775,3.649002,-2.856190842857143,1.181618557142857,0.20572462857142856
184,1.840000477,3.924283733333333,1.1058673333333333,3.8735186,-2.799003916666667,1.5215186833333334,0.18009813
185,1.850000477,3.845368,1.114145942857143,4.223748,-2.304159442857143,1.5378952,0.02264497857142857
186,1.860000477,3.7603109499999996,1.12755055,4.539761749999999,-1.4785557999999999,1.4675605,-0.29229042
187,1.870000477,3.586542214285714,1.0282961714285714,4.498777428571429,-0.19080250571428573,1.3483580285714285,-0.8480741642857144
188,1.880000477,3.424764314285714,0.9163557857142858,4.2663945,0.6923081114285715,1.4101408571428569,-1.2334314285714285
189,1.890000477,3.3329840666666666,0.8764230999999999,4.114584699999999,0.8163973700000001,1.4223577999999997,-1.2873605
190,1.900000477,2.938529457142857,0.8389992771428572,3.440087557142857,2.0498943714285716,2.0709030285714287,-1.987740642857143
191,1.910000477,2.5280135,0.7305914000000001,2.8285189,2.4719462,2.4913406,-2.413763
192,1.920000477,2.5280135,0.7305914,2.8285189,2.481894285714286,2.5157744857142856,-2.4287723714285714
193,1.930000477,1.8943686833333333,0.7081510733333333,2.490424883333333,2.7614877,3.153499,-2.7924883
194,1.940000477,1.8183073,0.7076632399999999,2.4482832,2.7614877,3.153499,-2.7924883
195,1.950000477,1.8183073,0.7076632399999999,2.4482832,2.7838272571428573,3.2002724571428574,-2.8099410571428574
196,1.960000477,1.6875019166666665,0.6193958916666666,2.3056427,2.9178646,3.4809132,-2.9146576
197,1.970000477,1.6253126285714286,0.30719127714285716,2.0726644857142857,3.2463259714285715,3.914614657142857,-3.0781902142857143
198,1.980000477,1.7065528333333333,0.11800485000000001,2.0067329666666667,3.6981203,4.2171876,-3.303563833333333
199,1.990000477,2.1724133,-0.77589893,1.8396196,4.674661,4.308,-3.8016078
200,2.000000477,2.3483686,-1.1632081,1.7410467,5.1779995,4.3312125,-4.04106
201,2.010000477,2.413860314285714,-1.4165243285714286,1.6715826428571428,5.513092728571428,4.3259766428571425,-4.167767142857143
202,2.020000477,2.4323021714285713,-1.7831702142857144,1.4968513285714287,6.101251599999999,4.298052142857142,-4.341597142857143
203,2.030000477,2.409795133333333,-1.8722230333333334,1.4068504,6.4510052,4.258725133333333,-4.42793
204,2.040000477,2.350368,-1.9336536714285715,1.1477150314285716,6.675098857142857,4.162094857142857,-4.434969085714285
205,2.050000477,2.320724933333333,-1.9423592333333335,0.8736180433333334,6.712855133333334,4.128818466666666,-4.412862466666667
206,2.060000477,2.4447768,-1.8972753,0.9295969600000001,6.553976671428572,4.150401557142858,-4.440553985714286
207,2.070000477,2.5150654666666665,-1.9137193666666665,1.0262285866666667,6.571545499999999,4.0481866,-4.586851933333333
208,2.080000477,2.5999948,-1.9846889714285714,1.1119943428571428,6.714193000000001,3.812341371428571,-4.910884628571429
209,2.090000477,2.5396907,-2.0779913857142853,1.0479357142857142,6.923975542857143,3.5826629142857143,-5.360119428571429
210,2.100000477,2.30413335,-2.0940348,0.87597075,7.014817216666667,3.5026999666666665,-5.6746182
211,2.110000477,2.018745742857143,-2.006802714285714,0.6826748428571429,6.963942357142857,3.5198327285714286,-5.785269085714285
212,2.120000477,1.7118376833333333,-1.8370939166666667,0.42842947333333337,6.7584651,3.589643966666667,-5.7031247333333335
213,2.130000477,1.5897835571428571,-1.6482581571428572,0.22327522228571425,6.231449285714286,3.6790021857142854,-5.386298542857142
214,2.140000477,1.507405,-1.3696632333333334,0.013923575333333332,5.547562,3.75212935,-5.0197901499999995
215,2.150000477,1.5993093714285713,-1.1287635714285715,-0.004843488457142857,4.541147714285715,3.745671742857143,-4.563094557142857
216,2.160000477,1.7031307285714286,-1.0070404571428573,0.17492745237142857,3.9885926428571428,3.6526483714285716,-4.3152433142857145
217,2.170000477,1.7748595,-0.7841921,0.6943088,3.5702496,3.41372,-4.037395
218,2.180000477,1.8045738142857144,-0.7021838428571429,1.131921457142857,3.8364043857142858,3.1850885714285715,-3.875956857142857
219,2.190000477,2.052833,-0.78199685,1.5431083,4.81739605,2.9236168333333334,-3.601657266666667
220,2.200000477,2.345062828571429,-1.0566644642857141,1.4460469,6.241571685714286,2.7733775714285716,-3.5220143142857148
221,2.210000477,2.5138357,-1.5465840999999998,0.5700942,8.337454,2.3007562,-4.085041
222,2.220000477,2.4519156428571427,-1.5849487285714285,0.3433388342857143,8.544792857142857,2.1241340857142856,-4.256776257142858
223,2.230000477,2.1359325,-1.64190985,-0.678317045,8.667922500000001,1.7913096,-4.88288385
224,2.240000477,1.392999342857143,-1.6635900714285714,-2.5109739428571425,8.136049414285713,1.8852055428571428,-5.586481785714286
225,2.250000477,0.808758,-1.6391592142857143,-3.1012306285714284,5.8010635,2.9177119999999994,-6.0961027
226,2.260000477,-0.26144817,-1.6446997,-3.1828382000000004,4.2629504,2.8554055999999997,-6.024023
227,2.270000477,-0.9435959957142858,-1.6932302714285716,-2.7962651428571426,3.457679171428571,2.044898514285714,-5.5653638857142855
228,2.280000477,-1.3794351333333335,-1.7000992000000001,-2.5154618833333333,2.8861005,0.6293254,-4.628695
229,2.290000477,-1.337813242857143,-1.7040367857142857,-2.4636149714285716,2.6583417857142857,-0.011191599999999977,-3.9995223571428573
230,2.300000477,-1.0326865357142858,-1.7516222,-2.4513626571428566,2.2548335142857145,-0.46199690000000004,-3.3115338
231,2.310000477,-0.7159411583333334,-1.8199995166666667,-2.4047541999999997,1.8661892666666668,-0.528637425,-3.107481833333333
232,2.320000477,-0.6929541971428571,-1.8295057000000001,-2.3877133857142856,1.6013360857142858,-0.5410579642857144,-3.1256618571428567
233,2.330000477,-0.7561772266666668,-2.00710885,-2.2485661166666664,0.56818975,-0.5483881333333334,-3.2066428333333334
234,2.340000477,-0.8403713285714286,-2.2318852857142857,-2.037366357142857,0.09437589928571428,-0.4359922357142857,-3.3176424
235,2.350000477,-1.2470849166666669,-2.4265033333333332,-1.7768109166666666,-0.2244863695,-0.37877620500000003,-3.3988558833333333
236,2.360000477,-1.6591124857142856,-2.5069624,-1.6917929571428572,-0.36445765714285716,-0.5811993714285714,-3.1958219285714287
237,2.370000477,-2.146501457142857,-2.5317200285714283,-1.7126479000000001,-0.6283436800000001,-0.9826132342857143,-2.5291258428571433
238,2.380000477,-2.4154153,-2.3583083,-1.5689635,-1.0821159,-1.3559282,-1.4290771
239,2.390000477,-2.2177381857142855,-2.2671009285714283,-1.3712864714285715,-1.4486242714285713,-1.5402296,-0.4782497542857143
240,2.400000477,-1.8087031,-2.0842376,-1.024511,-1.8554486,-1.568503,0.653912
241,2.410000477,-1.5207290285714288,-1.938671457142857,-0.7937048571428571,-1.9531840999999999,-1.4384798571428572,1.2325806428571429
242,2.420000477,-1.0730809428571428,-1.7496360285714285,-0.5280447542857143,-1.9594671,-1.2056597999999998,1.9736693571428572
243,2.430000477,-0.5731737,-1.5831919666666667,-0.29829992666666666,-1.8177797,-1.0130392,2.735628633333333
244,2.440000477,-0.17241424,-1.4624415857142856,-0.24006627857142857,-1.6652132571428573,-1.0086179142857143,3.054170942857143
245,2.450000477,0.038853890833333335,-1.34632855,-0.3043521116666667,-1.5280344166666666,-1.0165008166666667,3.4077640666666666
246,2.460000477,0.17754955714285714,-1.2213909285714286,-0.3469540471428571,-1.5161664857142856,-1.039334757142857,3.685961485714286
247,2.470000477,0.31192875999999997,-1.0640458333333334,-0.3402434083333334,-1.54676705,-1.1162725166666667,4.022072666666667
248,2.480000477,0.44090986,-0.9137729,-0.2681864,-1.5325721285714287,-1.2105465714285715,4.318275428571428
249,2.490000477,0.6127695266666666,-0.8177814416666668,-0.22875319166666666,-1.4518821,-1.3156122000000001,4.5671523333333335
250,2.500000477,0.74997846,-0.7548306142857143,-0.23166857142857142,-1.3482708,-1.3906591714285714,4.712534071428571
251,2.510000477,0.9570114085714285,-0.6750001771428572,-0.2889105971428571,-1.2545494142857143,-1.4639608714285715,4.7776329142857135
252,2.520000477,1.1371851833333333,-0.6170227899999999,-0.4561495916666667,-1.27392195,-1.5625981833333331,4.6648879
253,2.530000477,1.1383939714285716,-0.62423068,-0.63467993,-1.4186055142857141,-1.5335975142857143,4.5650580000000005
254,2.540000477,1.0821871533333334,-0.61531029,-0.67396212,-1.6473532666666666,-1.4679168999999999,4.4889638666666665
255,2.550000477,0.8408461257142857,-0.5856221528571428,-0.7037866971428571,-2.287055828571429,-1.4213761285714284,4.493850457142857
256,2.560000477,0.7332745,-0.6626606,-0.7165052,-2.880275814285714,-1.4866495857142858,4.650052857142858
257,2.570000477,0.7186395,-0.7688151833333333,-0.6902841999999999,-3.4570901,-1.536739,4.8102694
258,2.580000477,0.7261660357142857,-0.9038810999999999,-0.5964677500000001,-3.900499814285714,-1.5925878571428573,4.908004828571428
259,2.590000477,0.7693944833333334,-1.0242569,-0.47026117666666667,-4.6903397,-1.7362824000000001,5.044020133333333
260,2.600000477,0.8219686857142857,-1.1096423142857144,-0.36044350000000003,-5.166218671428571,-1.824884357142857,5.115518585714286
261,2.610000477,1.0271941,-1.2146034333333333,-0.06759540800000001,-5.7723538,-1.9305318333333332,5.154787333333333
262,2.620000477,1.2422240857142857,-1.2619900142857143,0.256356428,-6.182843428571429,-2.0217517571428574,5.074155500000001
263,2.630000477,1.3378568142857143,-1.2594114714285713,0.47227494285714283,-6.241833771428572,-2.0868506428571427,4.966297257142857
264,2.640000477,1.4854422666666667,-1.2458451333333336,0.8816012233333334,-5.979838433333334,-2.3970154666666663,4.739004
265,2.650000477,1.5125272857142857,-1.1949957,1.1168726171428571,-5.532901885714286,-2.8212634428571426,4.584255928571428
266,2.660000477,1.43019525,-1.0726235166666667,1.2929209166666669,-4.6337347,-3.672261,4.420549
267,2.670000477,1.3137961571428571,-0.9795650342857142,1.0768005571428572,-4.167745414285714,-4.083273857142857,4.4641809285714285
268,2.680000477,1.22264755,-0.9070701733333334,0.7199911666666666,-3.794023233333333,-4.322609666666667,4.625793633333333
269,2.690000477,1.2303722571428573,-0.7710510571428572,0.26479767857142855,-3.9307364285714286,-4.008401428571429,5.013768885714286
270,2.700000477,1.26371695,-0.7357441499999999,0.036496034999999996,-4.180485849999999,-3.7137985,5.2177047
271,2.710000477,1.4513782142857143,-0.7538941728571429,0.030550559999999997,-4.823446428571429,-3.136286042857143,5.474871442857142
272,2.720000477,1.8632141571428573,-0.6943871914285714,0.5605422542857142,-5.739367971428571,-2.3184490285714285,5.764063857142857
273,2.730000477,2.0021595333333333,-0.6057162333333334,0.9643143666666667,-5.7173775000000004,-2.2398242,5.699663
274,2.740000477,2.1339093142857144,-0.27912779285714284,1.7004911714285715,-4.959578,-2.5599953285714285,5.446946714285714
275,2.750000477,2.1108802,-0.01853766833333333,1.7944137333333332,-3.70023275,-3.12086955,5.278789000000001
276,2.760000477,2.0936325714285715,0.10515422285714286,1.3701235428571426,-2.5750267,-3.6794166285714285,5.163339000000001
277,2.770000477,2.1068913166666667,0.33918644833333333,0.7121045666666665,-2.1857133333333336,-4.134061666666667,5.074155466666667
278,2.780000477,2.2823196714285716,0.7262792971428571,0.038368971428571395,-3.1038459714285715,-4.3003867,5.094226128571428
279,2.790000477,2.6416917,0.9929194085714286,-0.43662828571428575,-4.731971828571429,-3.7827370428571427,5.223725757142858
280,2.800000477,3.2367133666666668,0.7587535999999999,-0.13723364000000002,-5.747512633333333,-3.247518466666667,5.0599024
281,2.810000477,4.397373428571429,-0.01955690000000002,0.9868999,-7.920092885714285,-1.8440823857142858,4.202912857142858
282,2.820000477,4.2422596666666665,-0.44463976666666666,2.397771966666667,-8.880345,-0.5948125000000001,2.6975523999999997
283,2.830000477,3.2332375,0.10995414000000002,3.8613533428571425,-8.389049142857143,-0.4131290942857143,1.4876093714285712
284,2.840000477,2.687204616666667,0.423027705,4.6984445,-6.958212166666667,-1.4858349933333335,1.278147
285,2.850000477,2.9329760428571428,0.45361094999999996,4.975747414285714,-5.504628142857142,-3.2282623999999998,1.439614242857143
286,2.860000477,3.9651224,0.6577779428571429,5.340629514285714,-3.9185851142857144,-4.872423142857143,1.294058142857143
287,2.870000477,4.606864233333334,0.9697619166666667,5.586169683333334,-2.875563533333333,-4.841168133333333,0.7455900266666667
288,2.880000477,4.482560928571429,0.8737531142857142,5.575251514285715,-1.9558020428571428,-2.871222142857143,-0.17038273857142855
289,2.890000477,4.153270699999999,0.7533773199999999,5.547915266666666,-1.4958631,-1.4903146666666665,-0.6235732233333333
290,2.900000477,3.464727457142857,0.6027137557142856,5.4338144,-0.8538335499999999,-0.4253460714285714,-0.9231211
291,2.910000477,2.2330723999999997,0.43237280499999997,5.0342113,0.27213245999999996,0.49921492999999995,-1.23482775
292,2.920000477,1.1260282428571429,0.64207578,4.422832242857143,1.0645758342857143,0.12581272042857142,-1.0021821785714287
293,2.930000477,0.6530215571428571,0.9016859,3.9898931285714285,1.4181691571428572,-0.2878181507714285,-0.23042031
294,2.940000477,0.8538404733333333,0.95715958,3.744994833333333,1.4793703,-0.41033664666666664,0.3334207866666667
295,2.950000477,1.564808137142857,0.9764681000000001,3.441389685714286,1.4282917428571429,-0.23458715857142856,0.6624638714285715
296,2.960000477,1.8562515499999999,1.0776391,3.2009337,1.22688665,0.23899400499999998,0.43156360000000005
297,2.970000477,1.8547684285714285,1.2897485857142856,2.8708121714285713,0.3931674571428571,1.8970298571428574,-0.3688208285714286
298,2.980000477,1.5674288,1.3049237,3.0475964666666666,-0.08093724999999999,2.8572381,-0.7473716
299,2.990000477,1.2683710428571426,1.1731695,3.5354850142857144,-0.2747503685714286,3.6596295714285714,-1.0892715714285715
300,3.000000477,0.95804808,0.8541744142857143,4.027939600000001,0.6404733557142858,3.7240303571428575,-1.4002801
301,3.010000477,0.8885681466666666,0.4917766666666667,4.0483457666666665,1.7702354500000002,3.522043566666667,-1.4718365000000002
302,3.020000477,1.0390938142857142,0.2052123142857143,3.685402357142857,3.077034057142857,3.4943516571428574,-1.4814354857142857
303,3.030000477,1.3176022833333334,-0.11716639000000001,3.1882856166666667,3.961599083333333,3.70814835,-1.5001390333333333
304,3.040000477,1.5279594428571428,-0.36303078571428576,2.874422828571429,4.4868695999999995,3.9758739999999997,-1.5224495285714286
305,3.050000477,1.8667603333333334,-0.7190816,2.4562053,5.2160755666666665,4.520167916666666,-1.5396405499999999
306,3.060000477,2.2429574999999997,-0.9111986,2.2764698714285716,5.653238742857143,4.830711,-1.5568315428571429
307,3.070000477,2.8016624500000002,-1.2266162666666667,1.97381945,6.449172833333333,5.1275535,-1.8861945166666667
308,3.080000477,3.0021568714285713,-1.411014357142857,1.7367782285714288,6.945377,5.217813714285714,-2.1802447
309,3.090000477,3.0683294666666665,-1.4889994666666666,1.6183566666666664,7.1674781,5.232416,-2.327837066666667
310,3.100000477,3.1259228857142856,-1.5797829714285714,1.4090673999999999,7.480348214285714,5.141545142857143,-2.6104557714285717
311,3.110000477,3.0865869142857143,-1.748769242857143,0.7086998571428571,7.959427,4.777654714285715,-3.3207839142857147
312,3.120000477,2.9780244000000002,-1.7391411,0.426976115,7.906603333333333,4.7074945999999995,-3.5295773333333336
313,3.130000477,2.708450742857143,-1.584360757142857,-0.004547305714285714,7.2979668,4.760550685714286,-3.8382588571428573
314,3.140000477,2.5625782833333335,-1.4663965666666667,-0.117577995,6.69173,4.8125599,-3.854548
315,3.150000477,2.512380828571428,-1.3801589571428572,-0.02961409642857143,6.105614842857143,4.782366814285714,-3.8298814
316,3.160000477,2.5631475333333333,-1.3212559666666666,0.225998963,5.7393682,4.6213650500000005,-3.80405125
317,3.170000477,2.6586089999999998,-1.3446908285714285,0.6127448571428572,5.682035728571429,4.044812471428572,-3.840178557142857
318,3.180000477,2.7107984857142857,-1.3901638571428572,0.9115296928571428,5.978209428571428,3.3912059428571433,-3.918192571428571
319,3.190000477,2.7355713,-1.4179791000000002,1.011827365,6.487044999999999,2.9702447999999997,-3.9946357
320,3.200000477,2.7807023714285712,-1.4490698,1.0069098285714286,7.073065571428572,2.5430007142857143,-4.114012714285714
321,3.210000477,2.8414768,-1.5074203,0.6220941999999999,7.660635500000001,2.03198345,-4.441165
322,3.220000477,2.7454344999999996,-1.5407301,0.08348048500000001,7.738649428571428,1.6342346142857143,-4.959032571428572
323,3.230000477,2.6182116333333334,-1.4509281666666667,-0.14527270500000003,7.551904749999999,1.5042114,-5.20732
324,3.240000477,2.384642557142857,-1.278950914285714,-0.5460553714285715,6.650337557142857,1.6405175857142857,-5.633080714285714
325,3.250000477,2.153923642857143,-1.0174548285714287,-0.7752673428571428,5.9253274,1.9956816285714285,-5.660830714285715
326,3.260000477,2.2500298333333335,-1.0840520666666666,-0.5120928916666667,5.1951035,2.3534927166666666,-5.604370916666666
327,3.270000477,2.418594857142857,-1.3692088428571427,-0.40146071285714285,5.102603428571428,2.388194614285714,-5.659958042857142
328,3.280000477,2.503438733333333,-1.6246985,-0.49703103333333337,5.311164000000001,2.3056429333333335,-6.0179146333333335
329,3.290000477,1.9197417571428572,-1.9578494000000002,-1.44829438,5.600880142857143,2.067238,-6.864200085714286
330,3.300000477,1.0525004,-2.00882145,-2.3042808000000004,5.1926598,2.0790187,-7.6061175
331,3.310000477,-0.030027885714285735,-1.8910946428571427,-2.9084058857142856,4.0943565,2.2951714285714284,-7.933880571428571
332,3.320000477,-0.8694613333333333,-1.8785853000000001,-3.0191700000000004,2.13923795,2.71144925,-7.143909833333333
333,3.330000477,-1.0927467142857143,-2.0239857142857143,-2.977769542857143,1.2051361542857144,3.1131830428571425,-6.531724485714286
334,3.340000477,-1.2491103714285714,-2.236053685714286,-2.823257057142857,0.16994643,3.676558828571429,-5.590321571428571
335,3.350000477,-1.5409943333333331,-2.2732016666666666,-2.6760504,-0.0762541,3.5155279333333334,-4.8588320000000005
336,3.360000477,-1.5553215285714284,-2.2352219,-2.6879922428571428,-0.26026454857142856,2.9545373571428573,-3.8757822285714285
337,3.370000477,-1.3490928999999998,-2.2227617,-2.7393367000000004,-0.43095274,2.4620199,-3.240035733333333
338,3.380000477,-1.1096248142857144,-2.2260487857142857,-2.742660057142857,-0.6899519942857142,2.0995256571428573,-2.8252995142857142
339,3.390000477,-0.6679556333333334,-2.2334129,-2.6595251333333336,-1.0153299666666666,1.80556265,-2.466703
340,3.400000477,-0.5878173857142858,-2.2335840428571427,-2.5035258857142857,-1.3952187428571428,1.7134701857142858,-2.1601741714285714
341,3.410000477,-0.7642214214285714,-2.195380628571429,-2.2556456857142857,-1.933636957142857,1.7717625428571429,-1.4048177714285717
342,3.420000477,-0.8727135166666667,-2.2915919666666666,-1.9792973333333332,-2.015897766666667,1.9493154666666668,-0.8406276266666667
343,3.430000477,-1.0074803285714287,-2.4445721,-1.7942335714285715,-1.4498459000000001,2.4084397428571434,0.08058821142857142
344,3.440000477,-1.0762163166666667,-2.3430432,-2.0259464333333335,-0.6799747666666667,1.77054075,1.22945737
345,3.450000477,-1.0455184000000002,-2.309071985714286,-2.156179785714286,-0.5018109957142857,1.3444966242857144,1.5644016571428572
346,3.460000477,-0.5361288583333333,-2.1451911666666663,-3.1926811999999996,-0.591401945,-2.068990505,2.9451491
347,3.470000477,-0.2055215814285714,-2.049505414285714,-3.4848329857142857,-1.4643318,-3.2450169428571427,3.5142260999999997
348,3.480000477,-0.016777987142857144,-2.0024121285714287,-3.349489771428572,-2.362800885714286,-3.740152328571429,3.9397248285714284
349,3.490000477,0.2938281,-1.9147052333333334,-2.9018562666666665,-3.5170039333333336,-4.014335433333334,4.4262501
350,3.500000477,0.7291801571428571,-1.7428020285714285,-1.9462895142857144,-4.871441214285714,-4.374146085714286,5.031047157142858
351,3.510000477,1.0336171666666667,-1.6473116,-1.3191420666666664,-5.340484749999999,-4.70535635,5.3362091000000005
352,3.520000477,1.4176523857142858,-1.5861727857142858,-0.7635855142857143,-5.735353857142857,-5.298314342857142,5.772266771428571
353,3.530000477,1.70555685,-1.55501455,-0.39682194,-5.8179636666666665,-5.4573091,5.9309707
354,3.540000477,2.0689623,-1.4914285,0.29995652999999994,-5.827504499999999,-5.421880228571429,6.123176514285714
355,3.550000477,2.3084534142857143,-1.4305626142857142,0.73628859,-5.601665628571429,-5.493611142857143,6.149224742857143
356,3.560000477,2.600975,-1.3423345,1.0633242,-5.0983855,-5.716308483333333,6.013663766666667
357,3.570000477,2.7069697857142856,-1.3160045,1.086147842857143,-4.763583285714286,-5.7564500857142855,5.819214571428572
358,3.580000477,2.923442966666667,-1.2176218333333333,1.1449143666666668,-4.374735533333333,-5.3742344,5.287952
359,3.590000477,2.8784170571428573,-1.1095464428571427,1.2147703285714286,-4.108580557142857,-4.897075257142857,4.776236514285714
360,3.600000477,2.6137398333333333,-1.0297857,1.2517193666666666,-3.8359171,-4.3060149333333335,4.221819933333333
361,3.610000477,1.5547553,-0.8835272,1.0850328,-3.4096184714285718,-3.8858830857142856,3.9056918571428567
362,3.620000477,1.3741553,-0.8892185666666667,0.9904643000000001,-3.3320700333333337,-3.9886798666666663,4.061778066666666
363,3.630000477,1.2994094142857142,-0.9565976171428571,0.8866327714285714,-3.3097886857142855,-4.2131226,4.429798985714286
364,3.640000477,1.3721126666666665,-1.0798190666666665,0.7593228000000001,-3.3611871,-4.469340216666667,4.941397916666666
365,3.650000477,1.5317357428571428,-1.1803214428571427,0.6322625142857143,-3.443825942857143,-4.4830951571428574,5.092306285714286
366,3.660000477,1.6656110571428573,-1.2518325714285712,0.5131396971428571,-3.6289126285714284,-4.421661442857142,5.247287028571429
367,3.670000477,1.7569317333333334,-1.2771781333333334,0.47916413999999996,-3.8145884,-4.3125562,5.2458035333333335
368,3.680000477,2.050516028571429,-1.3320071285714286,0.59325326,-4.515404657142858,-3.875934957142857,5.038900757142857
369,3.690000477,2.0464202,-1.3422530333333331,0.7443524,-4.713551833333334,-3.7687748666666665,4.846920333333333
370,3.700000477,1.8396238857142857,-1.3077461,1.0122498285714285,-4.8285075,-3.749926,4.603977657142857
371,3.710000477,1.6300036,-1.2453673666666667,1.1471908666666666,-4.719660466666666,-3.8388187333333335,4.5887354
372,3.720000477,1.4517919857142856,-1.2242525571428573,1.1911975428571429,-4.372291771428571,-3.9864111,4.872575828571429
373,3.730000477,1.3937833857142858,-1.2130106714285716,1.1458421142857145,-4.141915342857143,-4.060759842857143,5.115867371428572
374,3.740000477,1.4698469333333335,-1.1474500666666667,0.7347989666666667,-4.1057588166666665,-4.075827516666666,5.519666666666666
375,3.750000477,1.7473667000000002,-1.0825588142857143,0.5455588214285714,-4.350126842857143,-3.932656557142857,5.6607432285714285
376,3.760000477,1.9653178999999998,-0.9791120333333333,0.6880584566666667,-4.786853666666667,-3.6795912666666664,5.691518466666667
377,3.770000477,2.073130557142857,-0.7042266714285714,1.2838990014285714,-4.974413,-3.601926328571429,5.6909369285714275
378,3.780000477,2.2772772333333333,-0.45628682000000004,1.8051357999999997,-4.834092666666667,-3.599773733333333,5.7106585
379,3.790000477,2.817024214285714,-0.3630786857142857,2.074271571428571,-4.263735714285715,-3.5528839142857143,5.645384785714286
380,3.800000477,3.7557331428571428,-0.6613321785714286,1.787691357142857,-3.617372,-3.3535732714285715,4.965424571428572
381,3.810000477,4.152376,-0.46691746000000006,1.420845,-4.217137,-2.9416876,2.992388
382,3.820000477,3.9651528571428574,-0.19980259428571426,1.8342055714285714,-4.703196785714286,-2.7017119571428574,2.290786357142857
383,3.830000477,3.718997333333333,-0.223605525,2.25614275,-5.066214433333333,-2.0437422333333335,1.6029141000000002
384,3.840000477,3.4205218571428575,-0.2517829742857143,2.4848967,-5.0876815142857135,-0.6719538071428571,1.2134262285714286
385,3.850000477,2.8174408,-0.08938529173333333,2.7748163333333338,-4.800292333333334,0.5698695966666666,1.3589824000000001
386,3.860000477,2.602089885714286,0.011681867085714285,2.8830644857142858,-4.5487395428571435,1.0674556057142859,1.6066373428571428
387,3.870000477,2.7062945714285713,0.009369015,3.025106842857143,-4.078736214285715,0.3592436571428572,2.114338657142857
388,3.880000477,2.9531194,0.10096117666666667,3.297977066666667,-3.5447466666666667,-1.6804917,2.7399043666666665
389,3.890000477,3.4310364285714283,0.4040741,3.6408656857142856,-3.2066427714285717,-4.142308014285715,3.241613585714286
390,3.900000477,4.64095675,0.7834298500000001,3.97931745,-2.8297498500000002,-5.57092715,3.3802759499999997
391,3.910000477,5.552101,1.3721618857142859,4.173248428571428,-2.6596725714285716,-3.1448817142857144,2.6480446714285715
392,3.920000477,5.664984866666667,1.6622107333333334,4.339237,-2.6542331833333335,-0.2747285625,1.6723470833333334
393,3.930000477,5.1769963,1.9260575,4.5832465000000004,-2.503819214285714,0.9320656014285714,0.7576251285714285
394,3.940000477,4.2009463,2.1656141,4.744758,-1.9634812142857143,1.487107657142857,-0.3300756714285714
395,3.950000477,3.6946363666666664,2.162504166666667,4.628918,-1.4429230333333332,1.3767478666666666,-0.9310329999999999
396,3.960000477,3.2447103142857143,2.152447085714286,4.512980857142858,-1.0896206285714285,1.2492262142857145,-1.2637993142857142
397,3.970000477,2.8207438000000002,2.12215125,4.288390349999999,-0.499367643,1.1774081,-1.5903408499999998
398,3.980000477,2.4636148857142857,2.0438473999999998,4.048537557142857,0.11462112228571428,1.2516697142857143,-1.9331134714285714
399,3.990000477,2.2375848,1.8905524,3.8703477,0.6300889500000001,1.5237584999999998,-2.32030325
400,4.000000477,2.0033311142857144,1.7189983142857144,3.5162940714285718,1.1378775285714284,2.0548465428571427,-2.726342171428571
401,4.010000477,1.6930037857142857,1.4107748857142857,2.739306414285714,1.5059566142857144,3.302022142857143,-3.239453857142857
402,4.020000477,1.4146557,1.1596408,2.3899565,1.5066546999999997,4.2151513,-3.4998492999999997
403,4.030000477,1.3851897,1.0125067714285714,2.3401060714285715,1.5303905285714285,4.439943128571429,-3.565471757142857
404,4.040000477,1.5704930500000003,0.697616885,2.3030918166666665,1.72953765,4.742923416666667,-3.8101597666666667
405,4.050000477,1.9142624285714285,0.18778098049999997,2.313092214285714,2.031961485714286,4.723550914285715,-4.185219928571429
406,4.060000477,2.1100316666666665,-0.19710498643333332,2.2984370333333337,2.2715882,4.6720653,-4.45826865
407,4.070000477,2.1654573428571426,-0.49529022000000006,2.255170885714286,2.6047618,4.672588914285714,-4.7195149857142855
408,4.080000477,2.171295333333333,-0.8684754733333334,2.188135866666667,3.0025687333333333,4.7930131,-4.8898832
409,4.090000477,2.1027750857142857,-1.2490580714285715,2.098946514285714,3.496598771428572,5.130200842857143,-4.8032010000000005
410,4.100000477,2.0766630285714287,-1.5000395999999998,2.0002169285714286,3.967998142857143,5.519048571428571,-4.524371071428571
411,4.110000477,2.1210994,-1.6333981333333334,1.8886163,4.393467916666666,5.856090983333334,-4.139610416666667
412,4.120000477,2.3547235857142854,-1.731730042857143,1.8589542857142856,4.800321242857144,6.101447957142857,-3.6600659714285717
413,4.130000477,2.5609116666666663,-1.7189672,1.8948818666666665,5.1134534,6.125270950000001,-3.3988559666666665
414,4.140000477,3.174980542857143,-1.6812479857142857,1.9556019571428571,5.586918142857143,5.7726374,-3.2296803428571432
415,4.150000477,3.57898925,-1.7457421999999998,2.0019309,6.2372086,5.263365266666667,-3.4387646666666662
416,4.160000477,3.9725445285714285,-1.8846004857142857,2.0334113714285715,6.666372457142857,4.908550314285714,-3.7558816
417,4.170000477,3.8989167,-2.1064774571428573,1.7985718857142854,7.191592142857142,4.533664742857143,-4.299950114285714
418,4.180000477,3.5373710999999997,-2.2382250999999997,1.5233511499999999,7.9583216666666665,4.146329466666667,-5.032007066666666
419,4.190000477,3.0310044857142855,-2.2709947714285716,1.369078142857143,8.333963857142857,3.9708126,-5.147369828571429
420,4.200000477,2.7391843333333337,-2.2258615333333336,1.3143652666666668,8.508084333333334,3.6148922999999997,-5.0022791
421,4.210000477,2.6930534571428573,-2.1348849857142858,1.1427713285714287,8.552821857142856,2.9939804714285714,-4.688623571428571
422,4.220000477,2.8587744666666666,-2.0763305,0.9495167666666667,8.269853500000002,2.19548675,-4.37763675
423,4.230000477,3.3440976,-1.9695357,0.26382637,7.521187428571428,2.0674124714285713,-4.526246899999999
424,4.240000477,3.3880243142857145,-1.9726716999999998,0.06126664142857142,6.713189285714286,2.345784428571428,-4.8042044285714285
425,4.250000477,3.2705516666666665,-1.9245076,0.0036180975000000004,5.671767433333333,3.058206933333333,-5.239694833333333
426,4.260000477,3.1441120285714286,-1.886033385714286,0.08876824871428571,5.2788762857142855,3.4693942142857144,-5.422076571428571
427,4.270000477,2.7437423499999998,-1.8831434,0.531906005,5.10877,4.1878669,-5.540639333333334
428,4.280000477,2.2061042428571427,-2.0361292714285715,1.2001571357142855,5.551314285714286,4.4678678000000005,-5.386298428571428
429,4.290000477,2.0128918,-2.2788117999999997,1.5348151333333335,6.6679323,3.99891165,-5.07843135
430,4.300000477,2.003474942857143,-2.4422025428571428,1.3651013857142857,8.11388427142857,2.802698114285714,-4.9224035285714285
431,4.310000477,1.9303260666666666,-2.6910818666666665,0.21811232,9.702086833333333,0.6831308533333335,-5.1590631
432,4.320000477,1.9302171428571426,-2.8352612142857145,-1.0226859814285716,10.134566714285713,-0.34122362000000006,-5.748792571428572
433,4.330000477,1.4407344499999999,-3.1223671166666667,-2.676822983333333,9.035856333333333,0.5312843666666666,-6.806314666666666
434,4.340000477,0.6185421714285714,-3.331875671428572,-3.3684935,7.446926171428571,2.0166249,-7.390401
435,4.350000477,-0.14975468,-3.3674323666666672,-3.5368019,6.119925966666667,3.1107396333333335,-7.466029666666667
436,4.360000477,-1.1431154285714287,-3.3497556285714287,-3.523128014285714,4.871354185714286,3.2018431142857144,-6.841336428571429
437,4.370000477,-2.900535028571429,-3.3471074,-3.389810185714286,3.561872185714286,2.607052442857143,-5.352199857142858
438,4.380000477,-3.4648058,-3.3496162999999997,-3.3100104,2.6454268,1.7458778666666666,-3.6735335
439,4.390000477,-2.0174825428571426,-3.4862008571428573,-2.8943543714285718,1.4986700857142858,0.6399715571428571,-1.4563035
440,4.400000477,-1.0990733,-3.4797661166666667,-2.5919246,1.0196058666666667,0.5336259666666666,-0.9607609
441,4.410000477,-0.7450522057142858,-3.4087487,-2.5834346,0.4987567785714285,0.7275845285714286,-0.9533144142857143
442,4.420000477,-1.1827315900000002,-3.1287903333333333,-2.6188672,-0.18783553666666666,0.8553388600000001,-0.9851948466666666
443,4.430000477,-1.5282294,-2.9650554285714286,-2.536851014285714,-0.9705926657142856,0.5982594471428572,-0.6843671071428571
444,4.440000477,-1.7218643714285713,-2.8099854285714287,-2.2726631571428575,-1.6875528285714285,0.20330306,-0.07317077857142858
445,4.450000477,-1.6936861666666667,-2.7600695666666666,-2.0999294,-2.0490872,0.028862532,0.315502615
446,4.460000477,-1.5358386857142858,-2.697518028571428,-1.797670142857143,-2.487413685714286,-0.12568182857142857,0.9199795971428572
447,4.470000477,-1.26046985,-2.5885504999999998,-1.3561614000000002,-2.829546233333333,-0.24785128666666667,1.5332775333333333
448,4.480000477,-0.9624385785714286,-2.438539642857143,-0.93329925,-3.143463585714286,-0.43110545428571434,2.445941571428572
449,4.490000477,-0.887567085,-2.33266675,-0.795214085,-3.2096969000000004,-0.560605065,2.9612347999999997
450,4.500000477,-0.8240550857142858,-2.1836335714285715,-0.6533394799999999,-3.246958542857143,-0.7466516642857143,3.650532214285714
451,4.510000477,-0.49438422857142855,-2.0069332285714285,-0.582081,-3.2682510428571425,-1.0257215857142856,4.557204085714286
452,4.520000477,-0.0342398,-1.8600018166666665,-0.6070476,-3.396005333333333,-1.3632583333333332,5.408899766666667
453,4.530000477,0.22992195571428573,-1.7993167428571428,-0.5532422285714286,-3.6458637428571428,-1.787884485714286,5.986870285714287
454,4.540000477,0.4164267366666667,-1.7746870000000001,-0.5138714666666666,-4.010466766666666,-2.2683303166666664,6.526292333333333
455,4.550000477,0.8224869899999999,-1.7573804857142858,-0.39761902857142856,-4.3665325,-2.499608857142857,6.9040576428571425
456,4.560000477,1.177080835,-1.7648895500000001,-0.21585102,-4.7058146,-2.6637522,7.19883485
457,4.570000477,1.5961993142857143,-1.7939461142857145,0.04184913571428571,-5.032530642857144,-2.801716342857143,7.432876542857143
458,4.580000477,2.0246098666666668,-1.7984483999999998,0.3151505133333333,-5.482812166666666,-2.8274592833333334,7.5007972333333335
459,4.590000477,2.491913728571429,-1.6636728714285716,0.5355887428571429,-5.685264428571429,-2.339566871428571,7.195867885714286
460,4.600000477,2.569374728571429,-1.6064918714285714,0.5809136857142857,-5.887716428571429,-1.7058564857142857,6.8700244
461,4.610000477,2.3349075,-1.5127000833333335,0.8258764416666667,-6.109948733333333,-0.9328146933333334,6.422651599999999
462,4.620000477,2.1979025142857145,-1.4911149571428572,0.9144653857142858,-6.206928171428571,-0.5818974471428572,6.1528899
463,4.630000477,1.9388427166666666,-1.4800050833333334,1.0631921,-6.165739333333334,-0.9124530833333333,5.9864049
464,4.640000477,1.840521157142857,-1.479302357142857,1.1354625857142857,-6.028211499999999,-1.7969598857142857,5.928643485714285
465,4.650000477,1.8014770999999998,-1.4868753666666665,1.1618462999999999,-5.873347433333333,-2.7792023333333336,6.037767
466,4.660000477,1.8257467857142855,-1.5052446285714285,1.1263680714285713,-5.757344728571428,-3.586567857142857,6.2429463428571434
467,4.670000477,1.92727715,-1.53548595,0.9744928700000001,-5.7601372,-4.12550975,6.4994148
468,4.680000477,2.1896400714285713,-1.6455620285714285,0.6950448885714285,-6.200645,-4.098981571428571,6.694100514285714
469,4.690000477,2.4899188142857147,-1.7656343285714284,0.7104247142857142,-6.910624,-3.4891812857142854,6.557096257142858
470,4.700000477,2.64164295,-1.7875178833333332,1.0684007833333333,-7.3540408500000005,-2.7264657499999996,6.0038903333333336
471,4.710000477,2.5507412285714284,-1.773701057142857,1.355061642857143,-7.350957657142857,-2.1695767,5.380277
472,4.720000477,2.4281194166666666,-1.7498429833333333,1.5478392666666665,-7.296621399999999,-1.9572055,5.114674783333333
473,4.730000477,1.8776138857142857,-1.4295607571428572,1.7454763285714285,-6.439398828571428,-1.7941675000000001,4.4044924142857145
474,4.740000477,1.3169873833333332,-1.0476424833333333,1.6136510833333333,-5.702309866666667,-1.9460066999999999,4.274760233333333
475,4.750000477,1.3706548714285713,-0.9845130142857144,1.4926394142857142,-4.994309085714286,-2.2214115571428574,4.480412285714285
476,4.760000477,1.5668074142857142,-0.9677785857142858,1.2562667285714286,-4.461650257142858,-2.4514391000000004,4.55511
477,4.770000477,1.70642575,-0.9024307,0.905068065,-4.068090000000001,-2.5592971500000004,4.432766
478,4.780000477,1.5869524,-0.8352012,0.4607586,-4.0117173571428575,-2.528405714285714,4.060149057142858
479,4.790000477,1.3553077333333334,-0.7697247833333333,0.6395291833333333,-4.236073083333333,-2.9524793333333332,4.1489254833333336
480,4.800000477,1.4269952285714285,-0.7532974071428572,0.7342152999999999,-4.358504314285715,-3.3296630285714284,4.316355942857142
481,4.810000477,2.3025602999999997,-0.6663760200000001,0.9352374571428571,-4.875804614285714,-4.261401457142857,4.834528928571429
482,4.820000477,3.5037461166666666,-0.4387349583333333,1.1902727,-5.655274583333333,-4.211664666666667,5.035468466666667
483,4.830000477,4.4476856,-0.3617022871428572,1.5900188,-6.2645221,-2.7952589285714287,4.517761085714286
484,4.840000477,4.899158,-0.21978923666666664,2.3142306,-6.5811157499999995,-1.1189194905,3.520771
485,4.850000477,4.106572571428572,0.09911293142857144,3.2735621571428575,-6.309201428571429,1.1153416455714285,1.3373410000000001
486,4.860000477,3.046692,0.30180623,3.9207978666666663,-5.511725733333333,0.6607331333333333,0.58514078
487,4.870000477,2.095806085714286,0.41127836714285715,4.5199416,-4.304160685714286,-1.2300936285714283,0.6442038685714285
488,4.880000477,2.189436666666667,0.6528328266666666,4.4352387,-1.7487539666666665,-5.794471566666666,2.3349127999999997
489,4.890000477,3.500665942857143,0.7434101428571428,3.545725257142857,-1.3241859999999999,-6.013180457142858,3.0365434857142857
490,4.900000477,5.075035085714285,0.49727203999999997,2.8856953142857145,-2.112004428571429,-3.6579716,2.911232571428571
491,4.910000477,5.371543333333334,0.45297358000000004,3.311311,-3.1720279666666666,-1.4096827866666668,2.2284216666666663
492,4.920000477,5.0844949999999995,0.6335474157142856,4.570436257142857,-4.081310657142857,0.6584061199999999,1.2902185
493,4.930000477,4.7132016666666665,0.6329840833333334,5.641884,-3.9206722666666667,1.3453911333333333,0.6454110533333334
494,4.940000477,4.397543142857143,0.6027529257142857,6.297540857142857,-2.8611212571428566,1.5080509428571427,0.14813046428571428
495,4.950000477,4.169385371428572,0.5807307257142857,6.439151742857143,-1.4226195999999998,1.5611073999999998,-0.21523638942857143
496,4.960000477,3.9183284,0.5069096466666667,6.2279242,0.30572904999999995,1.6300459,-0.56533914
497,4.970000477,3.317140557142857,0.44612359,5.135081714285714,2.1357619,1.6352817714285715,-0.7702347785714286
498,4.980000477,3.1497010833333334,0.4005619866666667,4.240237433333333,3.14693235,1.6141639,-0.8261709349999999
499,4.990000477,3.124241542857143,0.31676934714285715,3.5388041142857145,4.165214714285715,1.7441871142857142,-1.034644342857143
500,5.000000477,3.0341557,0.30376772,3.09978465,4.39672585,2.0826837,-1.2470447
501,5.010000477,2.7477822714285716,0.40224908285714284,2.3935978571428573,4.354402728571428,2.8746036,-1.5433928285714287
502,5.020000477,2.6584885000000003,0.5548799333333333,2.0255246000000002,4.073994766666666,3.561545066666667,-1.7064018
503,5.030000477,2.8743707142857144,0.5847728342857142,1.8103452142857144,3.7632772714285716,4.181118771428571,-1.9992594
504,5.040000477,2.972050614285714,0.44832321428571426,1.7364253714285713,3.4526177857142857,4.745367114285714,-2.724073342857143
505,5.050000477,2.793933433333333,0.28734400666666665,1.7600620000000002,3.3747784333333333,4.948168333333333,-3.4546467333333335
506,5.060000477,2.3961022857142855,0.040411767142857144,1.7957450714285714,3.5519240571428567,4.950437314285714,-4.225361542857143
507,5.070000477,2.0467454666666667,-0.2878013383333333,1.7706521333333332,3.9383868,4.676952233333333,-4.6043629
508,5.080000477,1.7633389285714285,-0.6660493000000001,1.7386772857142856,4.49228,4.238014814285714,-4.787667999999999
509,5.090000477,1.7103640666666668,-0.86497928,1.7046014666666667,4.941805333333334,3.8999544500000005,-4.735746083333333
510,5.100000477,1.7702034285714288,-1.1011138571428571,1.5921268285714287,5.288824585714286,3.6610258714285715,-4.612333071428572
511,5.110000477,1.9174028285714286,-1.3177075714285713,1.435532442857143,5.554804900000001,3.572714642857143,-4.4000639
512,5.120000477,2.1313438,-1.4799644,1.3285227666666666,5.594189933333333,3.7281025666666667,-4.275218166666666
513,5.130000477,2.4139604857142856,-1.6299644857142856,1.325086142857143,5.612573657142858,4.0172370428571424,-4.210700928571428
514,5.140000477,2.6699626666666667,-1.789759,1.4497391333333336,5.7155451500000005,4.2951723500000005,-4.2572999000000005
515,5.150000477,2.7949626999999997,-1.9480274714285717,1.5907069714285715,6.070010914285715,4.376415,-4.458355985714285
516,5.160000477,2.7617158666666666,-2.0993705,1.6565905333333333,6.783509816666666,4.105809916666667,-4.754657
517,5.170000477,2.5880080571428574,-2.2129600285714286,1.4581077142857144,7.512068871428572,3.7128605714285716,-4.908616071428571
518,5.180000477,2.4552129,-2.2514116714285715,1.2073004857142855,8.074092185714287,3.296437285714286,-5.016822928571429
519,5.190000477,2.299123,-2.2466960833333336,0.9496285833333333,8.24827025,3.0535235666666662,-5.01999375
520,5.200000477,2.1831282,-2.145695714285714,0.7911306714285714,8.241987428571429,2.9276599857142855,-4.965512042857143
521,5.210000477,2.2131037142857144,-1.9450916571428571,0.7016654771428571,8.105158,2.7656982714285716,-4.8503235857142855
522,5.220000477,2.436320933333333,-1.8619785333333334,0.6819503333333333,7.738824,2.4679247833333333,-4.8528252499999995
523,5.230000477,2.646156142857143,-1.8219093857142856,0.63159607,7.549984857142857,2.368472957142857,-4.988200714285715
524,5.240000477,2.7885570000000004,-1.7806323,0.46384819000000005,7.187432533333333,2.281209,-5.300779866666667
525,5.250000477,2.705458342857143,-1.7293517285714286,0.4429483142857143,6.8736243,2.2213459714285713,-5.468326599999999
526,5.260000477,2.5302898333333332,-1.6286010666666666,0.60272826,6.604124250000001,2.1154658,-5.518241666666666
527,5.270000477,2.4178414142857143,-1.556576,0.8127783,6.634084799999999,1.764432257142857,-5.263430714285714
528,5.280000477,2.5373940666666663,-1.6913486166666667,0.7269479416666668,6.841133133333333,1.8568738,-5.249876
529,5.290000477,2.487200842857143,-1.7812275571428573,0.6204935228571429,7.169470614285714,1.9993467714285715,-5.4468595
530,5.300000477,2.118407642857143,-1.851519157142857,0.39499255714285714,7.5999000428571435,1.9037054285714288,-5.7725283
531,5.310000477,1.6895041166666667,-1.9266928166666668,-0.01181979166666666,7.899069833333333,1.64450265,-5.869886066666666
532,5.320000477,1.3750976714285714,-2.0866635000000002,-0.42699792,8.038837142857144,1.2609196285714286,-5.717726685714285
533,5.330000477,1.3214389166666667,-2.156055616666667,-0.5355902016666666,8.054021,1.2048962,-5.6905003
534,5.340000477,1.2056061285714286,-2.5166408285714286,-1.058772577142857,8.155421857142858,0.08951094285714288,-5.678108857142857
535,5.350000477,0.7700551,-2.9192659333333335,-1.9887136666666667,7.773439000000001,-0.5732292466666666,-6.168182933333333
536,5.360000477,-0.7271155714285714,-2.9919689714285718,-2.851089685714286,6.129568857142857,-0.8110524342857143,-6.339918114285714
537,5.370000477,-2.2372646,-2.6636007,-2.9622154000000003,4.039729257142858,-0.8979672714285715,-5.4721660000000005
538,5.380000477,-2.3936509333333333,-2.5698451166666665,-2.458070233333333,2.5814915499999995,-0.9981753000000001,-4.153684916666666
539,5.390000477,-2.018075057142857,-2.5439857142857143,-1.8727704285714284,1.6058083285714286,-1.0644668142857143,-2.872770957142857
540,5.400000477,-1.4572750333333333,-2.53589,-1.54757505,1.0670483666666668,-0.9615245166666666,-2.0773897
541,5.410000477,-1.1185408571428572,-2.501596314285714,-1.3728936285714286,0.8036568314285715,-0.7668969142857144,-1.7653922142857144
542,5.420000477,-0.7765646,-2.4398932833333333,-1.1917056833333335,0.5311317166666666,-0.37388943333333335,-1.5909516333333336
543,5.430000477,-0.6867299457142858,-2.4489364857142855,-1.2549513142857143,0.38845524,-0.18641750285714284,-1.6456661285714287
544,5.440000477,-0.5778691,-2.58501365,-1.4224153499999999,0.17745113,0.012369656666666664,-1.7654503666666665
545,5.450000477,-0.7733639285714285,-2.8338455571428574,-1.5838163,-0.3691699114285715,0.3989487228571429,-2.091933685714286
546,5.460000477,-1.6032555857142856,-3.0721609571428568,-1.6885437285714284,-1.1227808371428571,0.7500986428571429,-2.1704712571428573
547,5.470000477,-1.94770515,-3.2368099000000004,-1.7876653166666667,-1.4551399333333332,0.8215386666666668,-1.8139109666666666
548,5.480000477,-2.1947883999999998,-3.2754568857142856,-1.7927570285714285,-1.8177505571428572,0.8638907428571428,-1.2035872571428572
549,5.490000477,-2.40638025,-3.1688484166666666,-1.6911961666666666,-2.232748433333333,0.5776069666666667,0.009060908333333334
550,5.500000477,-2.2618001142857147,-3.0706537857142857,-1.626044257142857,-2.4450033714285717,0.052161988571428584,1.0173879428571428
551,5.510000477,-1.97051135,-2.9784054500000003,-1.5371171,-2.60617985,-0.46286951,1.9154643
552,5.520000477,-1.4083356571428571,-2.8094017714285715,-1.3719485428571427,-2.804705242857143,-1.2215418314285713,3.1730242857142854
553,5.530000477,-1.0287316285714285,-2.657668057142857,-1.3246112857142858,-2.950261428571429,-1.6885781714285717,3.9730595714285717
554,5.540000477,-0.6821028133333332,-2.472420533333333,-1.2974334666666667,-3.2379995666666663,-1.9826575333333334,4.762216
555,5.550000477,-0.22083605285714286,-2.1871876285714285,-1.133668102857143,-3.8180789714285717,-2.2545718857142854,5.944067414285714
556,5.560000477,0.298030605,-1.99251455,-0.7158954066666666,-4.3588533,-2.6154952,7.170736000000001
557,5.570000477,0.6307859114285714,-1.9182085857142859,-0.5030650571428571,-4.451353085714286,-2.750754342857143,7.622762857142858
558,5.580000477,1.1671158216666666,-1.7196684333333334,-0.10831425,-4.458217666666667,-2.8814175333333334,8.163566533333332
559,5.590000477,1.5805669857142857,-1.4980273428571427,0.11506769000000001,-4.348905214285715,-3.0069610142857144,8.714434071428572
560,5.600000477,2.1553306142857145,-1.2064337142857142,0.31203911571428566,-4.254485657142857,-3.0279044285714285,9.075706428571428
561,5.610000477,2.5998265333333332,-1.0473680333333333,0.48736581,-4.2299646,-2.9331359,9.213409
562,5.620000477,3.2971741571428574,-0.9695644142857143,0.7941752714285715,-4.1766463428571425,-2.6798959857142854,9.005023428571429
563,5.630000477,3.7021215,-0.95246413,1.04830815,-4.0021185,-2.51531625,8.36249935
564,5.640000477,3.766578642857143,-0.9115209714285715,1.2664633142857142,-3.5971704285714283,-2.355972428571429,7.281517557142857
565,5.650000477,3.0485417333333333,-0.8234931799999999,1.3638296333333333,-2.5062046,-2.1227451333333334,5.2280889
566,5.660000477,2.4240308857142856,-0.8212979157142858,1.2125446,-1.9575473285714284,-2.1744634428571428,4.454058000000001
567,5.670000477,1.66834435,-0.8032328249999999,0.9814444,-1.5811781500000002,-2.41696985,4.0338824
568,5.680000477,0.6392576742857143,-0.7715781071428571,0.653491942857143,-1.3974876142857142,-2.9081783571428574,4.319497514285715
569,5.690000477,0.27654487857142857,-0.8158228857142857,0.43576149999999997,-1.4929543285714286,-3.170668157142857,5.067174514285715
570,5.700000477,0.346839355,-0.9410305333333334,0.27432495,-1.7646359666666667,-3.3195985666666665,6.243011666666667
571,5.710000477,0.7346813871428572,-1.1292688571428573,0.2595404142857143,-2.2874047857142856,-3.2544415285714288,7.284179000000001
572,5.720000477,1.0202881750000001,-1.26106445,0.30959125,-2.61412085,-3.1029514000000002,7.732104500000001
573,5.730000477,1.3430182857142856,-1.392328657142857,0.44379768571428574,-2.9286199571428573,-2.818820157142857,8.0817708
574,5.740000477,1.9832559714285714,-1.5157373857142855,0.8482768357142857,-3.1972181999999996,-2.4249109714285715,8.181600714285713
575,5.750000477,2.296439883333333,-1.4895635333333332,1.0896824283333333,-3.165105133333333,-2.0535158,7.7913566
576,5.760000477,2.4338615571428575,-1.3709858999999998,1.0769878,-3.0101244,-1.8856200428571428,7.506876428571429
577,5.770000477,2.3601783666666667,-1.2720457666666667,0.9229095333333334,-2.6544367,-1.4231214,6.875086
578,5.780000477,1.9362540428571429,-1.0899503428571429,0.6881891142857143,-2.4884607142857145,-0.8988398999999999,6.331955285714286
579,5.790000477,1.4375990833333334,-0.89241995,0.6080995083333333,-2.5226974166666665,-0.9081771333333334,6.409416833333334
580,5.800000477,1.2035153142857145,-0.8560734285714285,0.3098177285714286,-2.7169176285714287,-1.4520929942857141,7.180160542857143
581,5.810000477,1.3150200857142857,-0.9629786571428571,0.13382313714285715,-3.0635298285714287,-1.8674691285714287,8.012657857142857
582,5.820000477,1.6999925166666667,-1.1021933333333334,0.1328583575,-3.4322489333333337,-2.041298766666667,8.680343
583,5.830000477,2.0342651,-1.0937179857142858,0.23886847142857143,-3.6548954714285715,-1.9465301999999998,8.972037285714284
584,5.840000477,3.4212211499999996,-0.74405258,0.63343635,-3.73754525,-1.2258177499999998,8.7974225
585,5.850000477,5.2619580571428575,-0.07385448257142857,1.1554594571428571,-3.0769684571428573,0.0052140142857142946,6.603520571428571
586,5.860000477,4.9580536,0.29008804899999996,1.1673547333333334,-2.473625933333333,0.103182284,4.690187
587,5.870000477,3.7456887714285716,0.7070360285714286,0.9256419785714286,-1.9922783714285714,-0.7328639925714286,3.024675714285714
588,5.880000477,2.3913591142857142,0.9703266285714286,0.6640152242857144,-2.1709947714285716,-2.423340242857143,2.862015714285714
589,5.890000477,1.9376435333333333,1.27462725,0.9316244416666667,-2.5355252333333334,-3.367448216666667,4.069107916666667
590,5.900000477,2.795476614285714,1.4469441571428572,1.0784775785714285,-2.6561821,-3.252696157142857,5.454626057142858
591,5.910000477,4.863200616666666,1.4906103333333334,0.5834486833333333,-3.4103602333333334,-1.7322100999999999,6.1395751333333335
592,5.920000477,5.633713,1.4543139571428572,0.6462528571428571,-4.724140085714287,-0.43372337200000005,5.671804285714286
593,5.930000477,6.0151985,1.2952128,1.1696109000000001,-5.815724200000001,0.17790927199999998,4.94038
594,5.940000477,6.541431271428571,1.0277908285714286,2.9898957714285714,-6.218272428571429,0.6299144257142857,3.705857557142857
595,5.950000477,6.4794243,1.0925506,5.588496571428571,-4.814719785714286,0.8707409571428572,1.30034105
596,5.960000477,5.690469216666667,1.3515370833333333,5.636401083333333,-2.4651249666666666,0.6623111533333333,0.08017369
597,5.970000477,4.951386457142858,1.2875446714285717,4.858149271428572,-0.0899254142857143,0.22494450714285713,-0.7632536685714285
598,5.980000477,4.125789583333333,1.3254635,3.7328347166666673,1.1849418999999999,-0.26943455,-1.1273186133333333
599,5.990000477,3.694204985714286,1.5105715857142858,3.0749050857142857,1.6905198000000001,-0.37194054000000004,-1.2088231
600,6.000000477,3.3765891166666666,1.7694275333333334,2.1115002666666665,1.4570234333333334,0.45543751000000005,-1.0263252333333333
601,6.010000477,3.5269828142857143,1.7591924714285714,1.8933203571428572,0.8300105400000001,1.5296269428571427,-0.9449370857142857
602,6.020000477,3.7205830142857144,1.6488549571428572,1.9699842,0.23277644171428571,2.618571314285714,-1.1610025
603,6.030000477,3.7390901,1.47226575,2.3410207,0.097430134,3.3227037,-1.6276025
604,6.040000477,3.3712855,1.3660248142857143,2.4640766857142857,0.8123832171428571,3.7226341714285716,-2.5975408
605,6.050000477,2.995840416666667,1.2318401333333333,2.1108498333333334,1.6874655,3.6922662,-3.4424298000000007
606,6.060000477,2.6734444857142856,1.053837642857143,1.7048120285714286,1.9162058571428573,3.5203563428571427,-3.8752588
607,6.070000477,2.203421,0.8731302,1.4525847,2.0590132666666667,3.265080466666667,-4.383134533333333
608,6.080000477,1.8509397857142857,0.8323395071428571,1.4888455571428572,2.119574542857143,3.001659857142857,-4.7199076
609,6.090000477,1.5435149,0.7722605100000001,1.6312231666666666,2.274438866666667,2.8260848666666667,-4.7803379999999995
610,6.100000477,1.4582079142857143,0.6759409714285713,1.7540701571428572,2.5377431142857145,2.692047442857143,-4.714715357142857
611,6.110000477,1.6381313142857141,0.31722667142857147,1.8477167285714287,2.983138042857143,2.5525998,-4.574635157142857
612,6.120000477,1.86504785,0.04849367499999999,1.9011322000000002,3.4171305000000003,2.421704,-4.471503766666666
613,6.130000477,2.278212214285714,-0.23271393285714284,1.944094185714286,3.7322113,2.3525909285714284,-4.449280571428572
614,6.140000477,2.9362994666666666,-0.6360533333333332,1.9950249333333334,4.27699985,2.5163851999999998,-4.666033100000001
615,6.150000477,3.3562892,-1.0042092714285713,2.0243515714285714,4.978514428571429,3.0130041142857142,-5.1789594857142855
616,6.160000477,3.5170752333333333,-1.3049491333333332,2.0030995833333334,5.3636972,3.2382031666666666,-5.4836268
617,6.170000477,3.4545178,-1.5817472714285714,1.8633185571428572,6.342972528571429,3.3959181,-6.296111685714286
618,6.180000477,3.2389347142857146,-1.8776662428571427,1.538160242857143,6.938395714285714,3.098871771428571,-6.823883771428571
619,6.190000477,2.9922985166666667,-2.1085986666666665,1.1962791166666666,7.277023499999999,2.6739838666666667,-7.137597416666666
620,6.200000477,2.837273557142857,-2.1877103714285715,0.968035557142857,7.280514114285714,2.410359742857143,-7.193359128571429
621,6.210000477,2.7244475,-2.1818448,0.8200071866666666,7.176233749999999,2.3148058,-7.169361599999999
622,6.220000477,2.6819508428571432,-2.1713462,0.7686946814285714,7.003996571428571,2.3524165,-7.095623685714286
623,6.230000477,2.6849229500000003,-2.1781809,0.756080725,6.875747616666668,2.4373824166666664,-7.037011500000001
624,6.240000477,2.785798514285714,-2.2095670857142857,0.7539029085714286,6.7543343857142855,2.469175542857143,-7.155835771428571
625,6.250000477,2.8741704142857145,-2.1667858428571427,0.7847539914285715,6.763409828571428,2.2703883428571427,-7.439443457142857
626,6.260000477,2.8505067333333334,-2.24786505,0.7577220083333334,6.887557233333333,1.9169405166666664,-7.842922583333333
627,6.270000477,2.6587832142857146,-2.3370354142857144,0.6018991857142858,6.9201358,1.5860649571428571,-8.1192293
628,6.280000477,2.2783799166666667,-2.3414120666666665,0.39586151666666664,6.737085166666667,0.9765157166666666,-8.410196333333333
629,6.290000477,1.9714651714285714,-2.286544657142857,0.31655158,6.419764714285714,0.6574243714285714,-8.377530000000002
630,6.300000477,1.6898546666666665,-2.2094176,0.29979392,6.0698365,0.52792474,-8.197417
631,6.310000477,1.4867548428571429,-2.0991468857142856,0.35663231,5.586569142857143,0.5698114057142857,-7.775060000000001
632,6.320000477,1.3364586142857142,-1.9673665285714286,0.43413246714285714,5.287079571428571,0.7499240857142857,-7.349910542857143
633,6.330000477,1.2804354666666666,-1.8093179166666669,0.5546410883333334,5.055422833333333,1.1095786166666668,-6.435122933333333
634,6.340000477,1.3489375571428572,-2.0314250285714284,0.6038505371428572,5.164735142857142,1.0736513,-6.115126457142857
635,6.350000477,1.2491888,-2.3302274,0.59207726,5.609665,1.0283614166666668,-5.9700645833333335
636,6.360000477,1.0753981571428572,-2.5394076857142855,0.4480792885714286,6.168619428571428,0.9213540571428572,-5.994353214285715
637,6.370000477,0.5415763166666666,-2.9173549666666667,0.061827794416666665,6.880838083333334,0.5285356,-6.051103783333333
638,6.380000477,-0.13002065714285713,-3.0656535714285718,-0.32044986905714284,7.3017627,0.0036432742857142953,-5.935537357142857
639,6.390000477,-0.8139804666666667,-3.1621052666666665,-0.97583945,7.506905583333334,-0.6567116966666666,-5.444125500000001
640,6.400000477,-1.2789553714285715,-3.266209771428571,-1.9443424571428571,7.103629942857142,-0.7908072371428572,-4.979474414285714
641,6.410000477,-1.6882518857142856,-3.3686808428571426,-2.9926005285714288,5.8337002857142854,-0.633208642857143,-4.289478657142857
642,6.420000477,-1.9907666333333331,-3.3865491666666667,-3.5102759333333338,4.00761615,-0.398730545,-3.6061368
643,6.430000477,-2.200363614285714,-3.4221290428571427,-3.5679040571428575,0.8737079428571428,-0.23353999142857143,-2.504691942857143
644,6.440000477,-1.7981790999999998,-3.6650004499999995,-2.6986483500000005,-2.21971705,0.05451812166666666,-1.4893474166666667
645,6.450000477,-1.556654357142857,-3.8226490714285712,-1.968006885714286,-2.9582895571428574,0.19056252,-1.2912002000000002
646,6.460000477,-1.5678658833333332,-3.8952933333333335,-0.8776274166666668,-3.565413566666667,0.28806536666666666,-1.0861882666666667
647,6.470000477,-1.905172142857143,-3.7492910428571427,-0.5196688142857143,-3.204373742857143,0.12563818571428573,-0.8084563714285714
648,6.480000477,-2.2844886,-3.555864985714286,-0.4831248942857143,-2.470309914285714,-0.13301198857142857,-0.15258092285714286
649,6.490000477,-2.502981483333333,-3.3767467166666667,-0.6372272266666666,-1.8929138333333333,-0.3665592483333333,0.641007865
650,6.500000477,-2.5852335857142856,-3.162636642857143,-0.8831656571428572,-1.4896382714285714,-0.6099964428571428,1.7209531314285713
651,6.510000477,-2.4030465666666667,-3.009006833333333,-1.1402697833333333,-1.3686032500000003,-0.7432484,2.5171489
652,6.520000477,-1.9823368285714287,-2.8817404285714288,-1.3896324714285713,-1.744623342857143,-0.76445352,3.740239628571428
653,6.530000477,-1.5480782,-2.794157,-1.5748175,-2.1396960666666667,-0.7540400333333334,4.4588286833333335
654,6.540000477,-0.9374545614285715,-2.6619234714285716,-1.4338249142857145,-2.803308957142857,-0.8682975428571428,5.114122228571428
655,6.550000477,-0.3746168185714286,-2.5869715,-1.1796637428571428,-3.514378785714286,-1.2972868571428573,5.677149
656,6.560000477,0.21272582000000004,-2.4883769,-0.714066,-4.3274964166666665,-1.8053081666666666,6.374369416666667
657,6.570000477,0.4181384771428571,-2.4092957000000004,-0.3618068142857143,-4.673875871428572,-1.976723614285714,6.911911457142858
658,6.580000477,0.64923507,-2.323321583333333,-0.055191227499999995,-4.796423566666667,-2.1135824333333333,7.4997789500000005
659,6.590000477,0.9178454428571429,-2.264661657142857,0.1809208477142857,-4.769342571428572,-2.2238549285714284,8.077582214285714
660,6.600000477,1.2839774000000002,-2.2260293,0.41037456,-4.628847599999999,-2.3271754000000002,8.53231425
661,6.610000477,1.7369872142857143,-2.187466628571429,0.5929701285714285,-4.395853142857143,-2.394892157142857,8.867669285714285
662,6.620000477,2.341396666666667,-2.108720566666667,0.64567791,-3.9907163333333338,-2.1948250999999996,8.96907
663,6.630000477,2.6351711428571427,-1.9537289285714288,0.57313885,-3.754289057142857,-1.6704273,8.70797657142857
664,6.640000477,2.565201857142857,-1.8001180428571428,0.5498491757142857,-3.9464441142857143,-1.6426773000000001,8.559802285714285
665,6.650000477,2.5017312666666665,-1.7457420333333333,0.5921483833333333,-4.1373194,-1.7859646666666666,8.552065
666,6.660000477,2.4926846428571428,-1.7626071285714286,0.6952278285714285,-4.380669571428571,-1.9522896285714286,8.606052571428572
667,6.670000477,2.5361387166666667,-1.8304320333333333,0.8425694583333333,-4.564709,-1.9679970833333336,8.671791833333334
668,6.680000477,2.577689514285715,-1.8741382285714285,0.9286734871428572,-4.632512971428571,-1.9142425285714286,8.688429857142857
669,6.690000477,2.7939738666666667,-1.9535489166666666,0.8750713416666667,-4.739614899999999,-1.7594945666666666,8.608670333333334
670,6.700000477,2.8968632285714286,-1.9635073571428572,0.8333630428571429,-4.828333171428571,-1.639710342857143,8.504477285714286
671,6.710000477,2.9962592999999997,-1.9405617857142856,0.8784179428571429,-4.9005876285714285,-1.571819042857143,8.376024857142857
672,6.720000477,3.0922383,-1.8130936,1.1692451000000001,-5.0344503000000005,-1.5239112,7.63925575
673,6.730000477,2.9467269000000003,-1.6446734857142857,1.3698056142857145,-4.759918142857144,-1.7775873857142857,7.178240642857142
674,6.740000477,2.732029466666667,-1.4495561,1.4464767333333335,-4.3014336,-2.1891238,6.846579666666667
675,6.750000477,2.5591955428571427,-1.2341530142857142,1.3621308285714286,-3.8035058285714283,-2.647084857142857,6.676298571428572
676,6.760000477,2.47545955,-1.0343032833333334,1.1516677833333333,-3.4424805333333333,-2.8700149333333336,6.656402333333333
677,6.770000477,2.492615014285714,-0.9337304857142856,1.1019109857142857,-3.211180314285714,-2.8256266,6.704223071428571
678,6.780000477,2.5840075,-0.80994055,1.0856426,-2.9836834999999997,-2.552578,6.70771385
679,6.790000477,2.819711642857143,-0.6291961142857143,0.9140646285714286,-2.8357711714285716,-2.0789969142857143,6.435799728571429
680,6.800000477,2.8741747857142856,-0.4904424,0.6949055428571428,-3.0345582714285717,-1.625050042857143,5.850520628571429
681,6.810000477,2.56022565,-0.286708815,0.6897963699999999,-3.4736593,-1.2746855000000001,5.1651716
682,6.820000477,1.9673229714285714,0.00645507857142857,0.9925056514285714,-3.7773267142857145,-1.1176978,4.6863546000000005
683,6.830000477,1.4362575499999999,0.34099549500000004,1.4060881499999998,-3.64469645,-1.2362022,4.489574650000001
684,6.840000477,1.5330946857142855,0.4067136214285714,1.4776559285714286,-3.0694638285714286,-1.4136969142857143,4.683213385714287
685,6.850000477,2.23149705,0.3577037966666667,1.2752370333333334,-2.8352475333333333,-1.1844838,4.676290333333333
686,6.860000477,2.7584231571428575,0.50441099,1.202143357142857,-2.7387337428571428,-0.6747462785714285,4.413044142857143
687,6.870000477,3.004308571428571,0.6092385214285715,1.266846557142857,-2.8944124285714286,-0.10020077285714284,3.7592630000000002
688,6.880000477,2.853347416666667,0.7615891666666667,1.683726316666667,-3.075921333333333,0.409420375,2.782052866666666
689,6.890000477,2.518247842857143,0.8950173571428571,1.9865226428571428,-3.019723385714286,0.4282693771428571,2.5777099714285714
690,6.900000477,2.1009304500000003,1.1567138000000001,2.38997175,-2.501725,0.07263992000000001,2.7146560666666666
691,6.910000477,2.0670327142857143,1.4094114714285715,2.684076514285714,-1.8215902285714287,-0.3726386642857143,3.1461469142857146
692,6.920000477,2.9671956,1.4825966333333334,2.5419064,-0.6270347,-1.0445997666666667,3.985422
693,6.930000477,4.885193385714286,1.5492453714285712,1.8247188285714286,-0.5410797714285714,-0.7681186000000001,3.5786267857142855
694,6.940000477,5.742181657142857,1.6685075428571428,1.7944166000000001,-1.3451292857142858,-0.45676103571428567,2.5218610999999997
695,6.950000477,5.8504634,1.6284487,2.466333,-2.3341491333333333,0.31616435,1.0262742916666665
696,6.960000477,5.300474542857144,1.7327012714285714,3.130853357142857,-2.616913285714286,0.9435844771428571,0.09668839285714285
697,6.970000477,4.572065416666667,1.8034690500000001,3.80786425,-2.19222895,1.59522765,-0.5708367916666667
698,6.980000477,4.096144957142857,1.3813131142857142,3.7288326857142855,-0.9871728142857144,2.0590353,-0.8201497428571428
699,6.990000477,3.9415306666666665,1.2798815666666667,3.6455075333333333,-0.5555655933333333,2.1065068,-0.8634326133333333
700,7.000000477,3.8016241142857146,1.2588975285714288,3.5679172142857145,-0.000741722857142849,1.916446,-0.8801872571428572
701,7.010000477,3.5220042,1.24418855,3.4064181,0.87809295,1.54941405,-0.87503867
702,7.020000477,3.503767171428571,1.2805843857142858,3.3083681285714284,1.5301287428571428,1.3946079285714286,-0.9201541171428571
703,7.030000477,3.566632257142857,1.2249452285714284,3.040834985714286,2.2658288142857144,1.4296880428571428,-1.2793323185714287
704,7.040000477,3.4725398,1.1374342666666666,2.7797048666666666,2.684928316666667,1.6064265166666667,-1.7263561833333334
705,7.050000477,3.1876466285714287,1.0298641,2.434859028571428,2.972841,1.8344179285714286,-2.111655314285714
706,7.060000477,2.9852554,0.9266496000000001,2.1897619,3.29699725,2.1179093000000004,-2.5507964666666667
707,7.070000477,2.616481,0.7796665857142857,1.8636496714285715,3.6384899,2.4344444142857142,-3.010997
708,7.080000477,2.314535466666667,0.7102701083333334,1.6587553833333333,3.8432982,2.5780807833333332,-3.2553068333333335
709,7.090000477,2.1775443142857145,0.7058861414285714,1.5668640857142857,3.913196614285714,2.6211890857142857,-3.318165885714286
710,7.100000477,2.0654297714285716,0.6911335428571429,1.408923642857143,4.039729357142858,2.686637028571429,-3.4597079
711,7.110000477,2.0320291333333333,0.6224855166666666,1.1830568,4.1191977,2.7246842333333334,-3.6896191999999997
712,7.120000477,2.1157811142857144,0.43092669285714286,0.8563652714285714,3.8830032857142855,2.800778257142857,-4.076489214285714
713,7.130000477,2.1918658,0.3113291166666667,0.7123789666666668,3.3959544666666672,3.0007870666666663,-4.4454411
714,7.140000477,2.231632942857143,0.1470425457142857,0.6604392142857144,2.869520371428571,3.2301165999999997,-4.780468828571428
715,7.150000477,2.2453241,-0.07816004916666666,0.7228724566666666,2.2326975499999997,3.5914765,-5.136258266666666
716,7.160000477,2.2183829142857143,-0.28217673785714287,0.8750466971428572,1.823139014285714,3.936779657142857,-5.345633342857143
717,7.170000477,2.261320857142857,-0.65201102,1.2393842142857143,1.2387545857142856,4.5902116714285714,-5.6414581
718,7.180000477,2.3536636666666664,-0.8566658333333333,1.4466494333333335,1.0688809,4.8703869,-5.7772409
719,7.190000477,2.4300328571428573,-1.0724057714285713,1.6307092285714286,1.1575991714285716,5.0383989285714295,-5.914768714285715
720,7.200000477,2.4188403333333333,-1.6704836666666667,2.1462328333333334,1.8785589333333335,5.398973333333333,-6.263882266666667
721,7.210000477,2.285599442857143,-1.8123574999999998,2.293692085714286,2.3993426285714285,5.400195214285715,-6.258413714285714
722,7.220000477,2.0299913833333334,-2.0277301666666667,2.4693668,4.136912116666667,5.115133166666666,-5.783552833333334
723,7.230000477,2.0698290285714287,-2.1025966142857144,2.428216642857143,5.062462142857143,4.894413771428572,-5.426265285714286
724,7.240000477,2.2884829714285715,-2.2466641,2.208012071428571,6.266878428571429,4.5305234,-5.0056533142857145
725,7.250000477,2.5500370666666665,-2.3867754333333333,1.8472724000000003,7.387739666666666,4.1206738666666665,-4.7379859
726,7.260000477,2.8428967857142857,-2.533410114285714,1.365558742857143,8.337629285714286,3.601686428571429,-4.750319128571428
727,7.270000477,3.0577495666666668,-2.5874578666666666,1.0782132666666666,8.882940666666666,3.040695833333334,-5.1006254166666665
728,7.280000477,3.1443647,-2.6087235142857144,0.9446805285714286,9.013574714285713,2.789434057142857,-5.327831657142857
729,7.290000477,2.9488611500000004,-2.6587069,0.6728441350000001,9.07108175,2.2213461000000003,-5.853596700000001
730,7.300000477,2.4746522142857144,-2.5940320285714287,0.37343642714285713,8.976749571428572,1.6338855142857143,-6.322291114285714
731,7.310000477,1.9592606833333333,-2.28010755,0.09550862333333333,8.543513500000001,1.3005956166666666,-6.270398083333333
732,7.320000477,1.8119742142857143,-2.089355314285714,-0.13296072914285714,8.082818285714286,1.3591788142857142,-5.9439147
733,7.330000477,1.7189548428571428,-1.6467337714285715,-0.5688920857142857,7.192813800000001,1.7614653714285713,-5.310029857142857
734,7.340000477,1.8959592666666667,-1.1350917333333335,-1.0077722166666667,5.433944733333334,3.07877195,-4.276668916666666
735,7.350000477,2.4756278142857147,-0.8428584142857142,-1.2621205857142856,4.4088556,3.9756994000000003,-3.9229046857142857
736,7.360000477,3.620465333333333,-0.9151703333333333,-0.9914297666666667,2.7175066666666665,5.044478166666667,-4.295580066666667
737,7.370000477,4.088683771428571,-1.2180501857142858,-0.7972633857142857,2.240347714285714,5.195648642857143,-5.489924500000001
738,7.380000477,4.03535735,-1.4242142,-0.74775702,2.1805719,5.19067465,-6.35937815
739,7.390000477,3.1408321142857143,-1.6975206428571428,-0.8253966142857143,2.4379131,5.256907885714286,-7.412740428571429
740,7.400000477,1.5353944985714285,-1.9769882428571428,-0.9898182285714286,3.0520764428571425,5.229856085714286,-8.229007142857144
741,7.410000477,-0.25395791166666665,-2.03623675,-1.4352717833333333,3.987865283333333,4.361144166666667,-7.508585583333333
742,7.420000477,-0.6294356885714285,-2.0374795285714287,-1.7924826714285713,4.2065779999999995,3.6247241142857143,-6.644469442857143
743,7.430000477,-0.6801616333333333,-2.053879983333333,-2.5836669999999997,3.8113306666666666,2.3453480166666663,-4.9485245
744,7.440000477,-0.28582243142857144,-2.0379672714285713,-2.7399682285714286,3.3798397714285713,1.9321534999999999,-4.4289260285714285
745,7.450000477,0.3489126266666667,-2.1554104333333335,-2.7374564666666665,2.457693,1.7245236666666666,-4.136352133333333
746,7.460000477,0.5642968771428573,-2.6950832142857144,-2.5010170142857144,1.8703488285714285,2.517694342857143,-4.617808842857143
747,7.470000477,0.4359502466666667,-2.940435766666667,-2.4407827,1.7926839666666667,2.9380736000000005,-4.876037266666667
748,7.480000477,-0.11882225714285713,-3.2200354285714288,-2.6776344,1.9228816999999998,3.1746168571428575,-4.9770308
749,7.490000477,-1.0740260628571427,-3.5353368571428576,-3.443040428571429,2.0645982857142857,2.7608114571428573,-4.426831828571428
750,7.500000477,-2.087174666666667,-3.6005759333333334,-4.502579866666667,1.5641507499999998,1.9043163500000002,-3.3813449500000003
751,7.510000477,-2.0718020000000004,-3.529482871428571,-4.636106728571429,0.3598327,0.8749514457142856,-1.9610378714285714
752,7.520000477,-1.4953617,-3.4570007,-3.9789212,-1.2252577416666666,-0.14461807000000002,-0.5101592583333333
753,7.530000477,-1.2812812,-3.3302725571428566,-3.3858989142857143,-2.058249814285714,-0.6332086157142857,0.32335637142857143
754,7.540000477,-1.0435314166666667,-2.9981118833333333,-2.4572115,-2.4952092333333336,-1.1398919283333333,1.18262575
755,7.550000477,-0.8977048285714285,-2.688013928571429,-1.9962488,-2.540993585714286,-1.6690310857142856,1.9752400857142856
756,7.560000477,-0.7843271428571429,-2.3991992714285715,-1.6789306285714285,-2.5497199571428575,-2.347595057142857,2.848577214285714
757,7.570000477,-0.5411189799999999,-2.0586161,-1.3626709666666665,-2.6348897,-3.1453035333333332,3.705043233333333
758,7.580000477,0.016934787142857143,-1.8612890285714287,-0.9849965714285714,-2.851827685714286,-3.947665785714286,4.624223
759,7.590000477,0.45482834999999994,-1.7625876,-0.7564161199999999,-3.02033425,-4.292958,5.1499005
760,7.600000477,1.0380353114285714,-1.6245502857142857,-0.5043369114285714,-3.214322014285714,-4.3205227,5.523040857142857
761,7.610000477,1.5048744333333335,-1.4798932666666669,-0.27884756666666666,-3.421661,-4.0125031,5.5897107
762,7.620000477,1.6612510857142857,-1.3806119285714284,-0.06131890619285714,-3.636940942857142,-3.7801192571428572,5.561437285714286
763,7.630000477,1.7228952666666666,-1.3008482333333333,0.04140485444333333,-3.9746304833333337,-4.028792216666667,5.5013412
764,7.640000477,1.8268225857142857,-1.322568442857143,0.10739737571428572,-4.258848814285714,-4.060236285714287,5.468762571428571
765,7.650000477,1.8729054714285713,-1.3319853571428573,0.21628003714285712,-4.555371585714285,-3.829685142857143,5.426701428571429
766,7.660000477,1.8678529,-1.31451265,0.264924,-4.7261763,-3.6347956666666668,5.401569466666667
767,7.670000477,1.8346278714285713,-1.2787636571428571,0.2269078457142857,-4.965337571428571,-3.4457237857142857,5.3877818
768,7.680000477,1.8119654,-1.2844042666666666,0.21640490333333337,-5.3382452,-3.2556629999999998,5.378357433333334
769,7.690000477,1.8114166571428572,-1.342543542857143,0.3079230214285714,-5.954211714285714,-3.0409939571428573,5.3443245428571435
770,7.700000477,1.8775485666666667,-1.3950407666666667,0.4816643,-6.375056400000001,-2.9217332999999996,5.2199442000000005
771,7.710000477,1.9871324857142858,-1.4474450571428572,0.6069953142857143,-6.686704885714286,-2.8198672857142855,4.941688857142857
772,7.720000477,2.156071,-1.5202411,0.7555929,-6.928280533333333,-2.819111,4.48570575
773,7.730000477,2.1451992285714283,-1.5403293857142857,0.7755243285714286,-7.116915857142857,-2.844650257142857,4.043917814285715
774,7.740000477,1.970519942857143,-1.53948,0.9375285800000001,-7.395287714285715,-2.8772869142857145,3.4484292285714284
775,7.750000477,1.7521753,-1.5082892,1.2451336,-7.511436083333333,-2.996256583333333,3.0400341666666666
776,7.760000477,1.7216378285714284,-1.5098572571428572,1.3007727571428571,-7.445726328571429,-3.1275597285714283,2.8672515142857145
777,7.770000477,1.6241394333333332,-1.5138180333333333,1.4242599666666667,-7.311078083333334,-3.2693054499999996,2.7388862666666665
778,7.780000477,1.4476062000000003,-1.4846163,1.4719282285714286,-6.6942096,-3.7022798428571426,2.4707244285714287
779,7.790000477,1.28519695,-1.3943192,1.2819955,-6.4058025,-3.8793383,2.47255695
780,7.800000477,1.244258157142857,-1.3623007857142857,1.0223201142857143,-6.291224985714286,-4.001594985714286,2.662355942857143
781,7.810000477,1.2988519428571428,-1.37035,0.9114469114285715,-6.356672942857143,-4.0733258857142856,2.8597469
782,7.820000477,1.42158705,-1.2577258333333334,1.2102078433333334,-6.487452333333334,-4.3491816000000005,3.0998972333333334
783,7.830000477,1.594727257142857,-1.1607907285714287,1.5521070714285714,-6.338347557142858,-4.856061328571428,3.2082790285714284
784,7.840000477,1.6818868,-0.9808905866666665,1.7749511666666666,-5.90918395,-5.49843975,3.2047592000000003
785,7.850000477,1.4887149,-0.5288026357142857,1.7533861428571427,-5.656467571428571,-5.810030228571429,3.2986842857142853
786,7.860000477,1.4144161428571427,-0.37564909142857145,1.735323242857143,-5.589099714285715,-5.905671428571429,3.3887406571428573
787,7.870000477,1.3301385333333335,0.24071527666666667,1.7718716666666667,-5.747920166666667,-5.701241,3.9583411
788,7.880000477,1.987480842857143,0.4059078414285714,1.864464142857143,-5.9622402857142855,-4.946641,4.225252371428572
789,7.890000477,2.7136441,0.31482529,2.0244676666666668,-6.146192500000001,-3.9020159000000003,3.8182536000000002
790,7.900000477,3.1060304142857147,0.046888625428571425,2.8588427142857142,-6.178305285714286,-2.824405028571429,1.7017549714285714
791,7.910000477,2.4989161,0.10479269383333333,3.5669612833333333,-5.731834333333334,-3.4169269,0.9267062
792,7.920000477,2.2180345571428575,0.237034735,4.3350481,-5.088205,-4.7333245,0.8563424542857143
793,7.930000477,2.430673171428572,0.4016349357142857,4.522894571428571,-4.264782685714286,-6.355429471428572,0.9799080771428572
794,7.940000477,2.93861665,0.47899137499999994,4.38918915,-4.046506699999999,-6.345074,1.01731518
795,7.950000477,3.8649991,0.3989692857142857,4.126974357142857,-4.607904485714286,-5.088706857142857,0.5309135357142857
796,7.960000477,4.092271266666667,0.26561508333333333,4.4947034666666665,-5.55550315,-3.3974562,-0.29778802499999996
797,7.970000477,3.394135342857143,0.021124917142857136,5.449956428571428,-6.681643514285715,-0.25727574999999997,-1.4761996857142858
798,7.980000477,2.5074329333333334,-0.24298166333333335,6.4462602,-6.45039415,1.238416475,-1.6966283000000002
799,7.990000477,1.2895046857142858,-0.4604493514285714,7.616890628571428,-5.003842557142858,1.770191742857143,-1.4371054714285714
800,8.000000477,0.6912990142857142,-0.4657371,7.99132,0.0374798,-0.3685808142857142,-0.2534579857142857
801,8.010000477,0.7973838999999999,-0.4309702633333334,7.5697708666666665,1.8208593333333336,-1.24617925,0.1621799416666667
802,8.020000477,1.481453957142857,0.010723627142857147,5.173141242857143,4.468718571428572,-1.8562993571428572,0.9542088142857142
803,8.030000477,1.770713,0.40846896,4.021424,4.790315166666667,-1.5267618,1.1533305
804,8.040000477,1.9584634285714286,0.6889513457142857,3.5331548571428573,4.109540314285714,-0.5366947599999999,1.1350633142857143
805,8.050000477,2.2910329,0.8401862000000001,3.2806183,3.3155261,0.5542675149999999,0.7895964599999999
806,8.060000477,2.590412371428571,0.8518920142857143,3.265499857142857,2.515228942857143,1.722720142857143,0.27902630714285714
807,8.070000477,2.572253742857143,0.7281217428571428,3.406056742857143,2.347333257142857,2.2012753714285713,-0.11994422285714286
808,8.080000477,1.9887745000000001,0.5542854,3.4593633,2.44018205,3.3605763,-1.41441685
809,8.090000477,1.507949442857143,0.4937134785714286,3.3480132142857144,2.808435685714286,3.529257342857143,-1.7831940571428573
810,8.100000477,1.0355787,0.3932546433333333,3.0884220333333334,3.4289402,3.6124488666666665,-1.9605143333333332
811,8.110000477,0.8617837285714286,0.19820843428571427,2.796657157142857,4.053691571428572,3.7870349142857145,-1.901872957142857
812,8.120000477,0.8958093333333332,-0.015437891666666667,2.5846324666666667,4.6465626,3.9891381,-1.8029157
813,8.130000477,0.9688152171428571,-0.17396920142857145,2.437751042857143,5.0043443142857145,4.060694457142858,-1.7671374857142854
814,8.140000477,1.1433419142857144,-0.42837428571428576,2.2329395571428567,5.551489142857143,4.153019642857143,-1.7467177714285713
815,8.150000477,1.3695515,-0.7951682999999999,2.0606233,6.209924083333334,4.1530487,-1.85219065
816,8.160000477,1.4466262285714286,-1.0191666,1.9666826714285714,6.665325285714286,4.0257888,-1.9235143285714285
817,8.170000477,1.5081215,-1.2050398500000001,1.8849118,6.9250989999999994,3.8981218,-1.9562382999999999
818,8.180000477,1.6969151714285715,-1.3938531,1.8331558000000001,7.40757,3.4011539714285712,-2.087046957142857
819,8.190000477,1.9746274499999998,-1.6477638499999998,1.77594205,7.906807000000001,2.8230306000000005,-2.3575650500000003
820,8.200000477,1.9766745714285714,-1.8136991285714286,1.5925537285714284,8.399237142857142,2.3386286285714286,-2.8153514285714287
821,8.210000477,1.8631226285714286,-1.8226586,1.4019894714285714,8.573066714285714,2.2202988,-3.0020961714285717
822,8.220000477,1.6889706,-1.5724697,0.9456954,8.5657075,2.39564115,-3.0938394833333334
823,8.230000477,1.756187057142857,-1.4914371857142856,0.8087536285714286,8.237450571428571,2.8702403571428574,-3.0279261857142856
824,8.240000477,1.9678637333333333,-1.3637634666666667,0.5594178333333334,7.7290507999999996,3.4829492666666666,-2.9822581333333336
825,8.250000477,2.1251021,-1.2504866714285714,0.4267104542857143,6.953339914285714,4.262972214285715,-3.0511384857142856
826,8.260000477,2.1703399500000002,-1.1945514000000002,0.38633353,6.6330377,4.5238331333333335,-3.110128866666667
827,8.270000477,2.1748568,-1.1734482857142858,0.4289710428571429,6.2372085,4.617263714285714,-3.2284587142857144
828,8.280000477,2.268085257142857,-1.156426342857143,0.7674315771428571,5.725667571428572,4.406957714285714,-3.4858873142857143
829,8.290000477,2.360595,-1.2312811666666665,1.1637061566666667,5.794140733333333,3.517156866666667,-3.9787535333333337
830,8.300000477,2.2458540857142855,-1.2630354,1.1966769571428573,6.209109371428572,2.8351603714285716,-4.482790028571428
831,8.310000477,1.9468564,-1.246089,0.6302095166666667,6.4121145833333335,2.8501114666666667,-4.774407783333333
832,8.320000477,1.7774642428571428,-1.1908840142857142,0.3012980571428571,6.278048200000001,3.0805464000000002,-4.796220142857143
833,8.330000477,1.5595422333333333,-1.0743310333333334,0.1333716,5.807986733333333,3.352228,-4.621008533333334
834,8.340000477,1.3880993285714285,-0.9478776,0.27566939885714287,5.310640771428572,3.3041165714285716,-4.2485734285714285
835,8.350000477,1.3287665666666666,-0.8529359333333333,0.48541451333333335,5.176167,3.0215560499999996,-3.9256099
836,8.360000477,1.3402654428571428,-0.7982521457142857,0.5872860114285715,5.209938171428571,2.609146785714285,-3.5984576
837,8.370000477,1.6602840857142858,-0.7936699971428572,0.5219598714285715,5.5136167,1.9974269142857144,-3.2675529142857145
838,8.380000477,1.9214738333333334,-0.8521127266666667,0.42709806666666666,5.828755666666667,1.4936234,-3.135377266666667
839,8.390000477,2.380247742857143,-1.0165662914285714,0.1122670014285714,6.224817285714286,0.9334182571428572,-3.5429577714285716
840,8.400000477,2.5929258,-1.3302808666666666,-0.7422283099999999,6.271823266666668,0.9368869333333333,-4.3200137
841,8.410000477,2.2205825,-1.5623254714285715,-1.5022000428571427,5.937544314285715,1.5745460142857142,-5.117111314285714
842,8.420000477,0.8243425285714286,-1.6950772142857142,-1.4744545,5.264216428571429,2.3960484,-5.6627505
843,8.430000477,-0.032776304,-2.037375,-1.1960759,5.520888666666667,1.7255417499999999,-5.366344083333334
844,8.440000477,-0.26828655114285715,-2.3270914285714284,-1.426686042857143,6.0846713999999995,0.8077364428571429,-4.8770265
845,8.450000477,-0.37773545000000003,-2.5106954,-1.73821115,6.4003049999999995,0.28053161,-4.5579132499999995
846,8.460000477,-0.3936771471428571,-2.6630692,-2.596885,6.422731785714285,-0.12777615,-4.205639728571429
847,8.470000477,-0.422021585,-2.7402209,-3.5600095999999994,5.623510666666667,-0.28368763999999996,-3.7959067999999996
848,8.480000477,-0.59154147,-2.7392452714285715,-4.0787309714285716,3.3957217285714285,-0.0940922957142857,-3.452727
849,8.490000477,-0.8957012400000001,-2.781817457142857,-3.7134964,0.6045424314285714,0.03959599342857143,-3.118331571428571
850,8.500000477,-1.0295519616666666,-2.9302573666666665,-2.94885105,-0.8622108933333333,0.23756868466666667,-2.7065623333333337
851,8.510000477,-1.1107268285714285,-3.2023821142857143,-2.235814142857143,-1.6222794142857142,0.5694623742857142,-2.3205650714285717
852,8.520000477,-1.3114587,-3.3281463833333333,-1.7974675500000001,-1.5249802,0.6946860733333332,-2.121167216666667
853,8.530000477,-1.9556237142857142,-3.2073822142857145,-1.8646078857142856,-0.7351546857142857,-0.0057812285714285904,-1.4210489142857143
854,8.540000477,-2.3414171285714285,-3.064076857142857,-2.2529841714285714,-0.2576466514285714,-0.8620145714285715,-0.5040798794285715
855,8.550000477,-2.330481366666667,-2.9856518666666667,-2.5033269333333332,-0.15851486333333334,-1.5701320333333335,0.3920621503333333
856,8.560000477,-1.7406546285714286,-2.8488901714285717,-2.707718957142857,-0.6665652542857143,-2.076378857142857,1.7418527342857142
857,8.570000477,-1.2851054499999999,-2.7365621,-2.7497793500000003,-1.2342169,-2.18729125,2.56235145
858,8.580000477,-0.9646250714285713,-2.615871142857143,-2.6475717714285714,-1.9582454285714286,-2.161373957142857,3.2068825857142857
859,8.590000477,-0.6501468142857142,-2.393624,-2.2365286285714285,-3.238406714285714,-2.3228121,4.3011718
860,8.600000477,-0.37533184,-2.218793166666667,-1.8278454333333334,-3.9308275,-2.7763516166666666,5.077209933333333
861,8.610000477,0.13979475714285713,-2.139380057142857,-1.3983829285714287,-4.527970742857143,-3.311686571428571,5.825257714285714
862,8.620000477,0.6932213366666667,-2.0784241,-0.9175789500000001,-5.0784313333333335,-3.794226933333333,6.596132416666666
863,8.630000477,1.1515872628571429,-2.0243123142857145,-0.5191548771428571,-5.322072242857144,-4.024458171428572,7.081726771428571
864,8.640000477,1.46651855,-2.0005283,-0.28602279999999997,-5.416229949999999,-4.14750025,7.404079499999999
865,8.650000477,1.8169527142857143,-1.9797104714285714,-0.03563361428571428,-5.4224255999999995,-4.222896214285714,7.603215714285715
866,8.660000477,2.2275892666666666,-1.8964826333333333,0.27106255333333334,-5.2250348,-4.283719049999999,7.58183615
867,8.670000477,2.438095214285714,-1.8162688857142857,0.40474487142857146,-4.953818685714286,-4.293230914285714,7.422405028571428
868,8.680000477,2.5771364857142856,-1.7544533857142857,0.4993235571428571,-4.735484342857142,-4.218184014285714,7.097259857142857
869,8.690000477,2.70245955,-1.7248618166666665,0.7323191416666667,-4.548216,-4.19759,6.6918316
870,8.700000477,2.7251197285714284,-1.6496868857142855,1.2703093185714285,-4.177344571428572,-4.581659999999999,6.419568314285714
871,8.710000477,2.6152032999999997,-1.4380818666666666,1.6703413999999999,-3.771982,-4.937682,6.315142466666667
872,8.720000477,2.4986125285714285,-1.0794096,2.0327319285714287,-2.47956,-5.790133571428571,6.541388614285714
873,8.730000477,2.596610571428571,-0.8775163342857143,1.9599400571428571,-1.1671109714285717,-6.211095,6.903708471428572
874,8.740000477,2.7626866333333333,-0.7776520733333333,1.6071719833333333,-0.39185852,-6.161819933333334,7.014766233333333
875,8.750000477,2.8259052714285713,-0.7431618314285714,1.3125896428571429,0.16296532857142856,-5.871289314285714,6.9293640142857145
876,8.760000477,2.7242138,-0.6710452333333334,0.6860156466666667,0.27355777333333336,-5.299303733333333,6.598168366666666
877,8.770000477,2.4819219285714285,-0.6221835,0.09043646571428572,-0.15048658,-4.696368285714286,6.285531014285715
878,8.780000477,2.1671285333333334,-0.6539558666666667,-0.36390333433333333,-2.0144724333333333,-3.2328836333333335,5.898621299999999
879,8.790000477,1.803458957142857,-0.7328302142857143,-0.4565379957142857,-2.760200571428572,-2.746042014285714,5.844346728571429
880,8.800000477,1.3242794833333333,-0.8654620999999999,0.13111028333333333,-4.608460833333333,-1.8101949166666669,6.056118000000001
881,8.810000477,1.1310329857142858,-0.9734714571428571,0.6626388428571428,-5.234633628571428,-1.4807155857142857,6.368082642857142
882,8.820000477,1.1412252142857142,-1.0688820714285714,1.0331700571428573,-5.2871665,-1.3910082428571429,6.760071914285715
883,8.830000477,1.4007169000000002,-1.1463270666666665,1.0372047500000001,-4.996170616666666,-1.4125333499999997,7.108022333333333
884,8.840000477,1.6437240142857144,-1.1702468142857143,0.8871510142857143,-4.849101857142857,-1.4035743142857144,7.145778571428571
885,8.850000477,2.00049785,-1.1519727,0.6357535599999999,-4.811491,-1.3333269,6.911125999999999
886,8.860000477,2.2006248999999998,-1.0461935142857144,0.48469292999999997,-4.862016714285715,-1.2733765857142856,6.580810357142857
887,8.870000477,2.0841460142857144,-0.7324469571428571,0.6110722314285714,-4.950676942857143,-1.3686687285714285,5.781342071428571
888,8.880000477,1.50922425,-0.21076941666666668,1.1401681000000001,-4.42971155,-2.4837559666666666,5.131371833333333
889,8.890000477,1.343675942857143,-0.04250683485714286,1.2199056428571429,-4.069311714285715,-3.085498571428571,5.412215857142857
890,8.900000477,1.8711864333333335,0.3194596981666667,0.7867887833333334,-3.8685465833333335,-3.61423055,6.321632666666667
891,8.910000477,2.740469114285714,0.4039652071428571,0.4294675571428571,-4.218009442857143,-3.1970218714285714,6.533185857142857
892,8.920000477,3.641000685714286,0.5653857242857143,0.4877462657142857,-5.265001857142857,-1.6559414285714287,5.940903999999999
893,8.930000477,4.0194518,0.8876128,1.1680051533333333,-6.079814,-0.013285899999999998,4.725565333333333
894,8.940000477,4.403052857142858,1.2108894714285714,2.348194557142857,-6.210069742857143,0.9459842714285714,3.482287585714286
895,8.950000477,4.568833714285715,1.3465376,3.5783055571428575,-5.127299114285714,0.9767011571428572,1.4255647857142857
896,8.960000477,4.54554,1.3526704,4.3645535,-4.4382634,0.626882,0.6453601
897,8.970000477,4.167956742857143,1.299331085714286,4.751962785714285,-3.3774180571428576,-0.29462474285714285,0.043762814285714303
898,8.980000477,3.1630098666666666,1.3132626333333333,3.608604766666667,0.023517631666666667,-3.5800739,-1.3421332499999998
899,8.990000477,2.2047061428571424,1.726917,1.1937717428571428,-0.6100182228571428,-2.7422241428571428,-1.0020076571428571
900,9.000000477,1.7123864,1.9989275,1.1155529,-3.3288121,0.3776563,-0.20616095
901,9.010000477,1.794316257142857,1.685320357142857,2.210107042857143,-4.693728457142858,1.9232089428571428,0.43959184285714287
902,9.020000477,2.0459273666666666,1.3241676666666666,4.145958366666666,-5.4402566666666665,3.0545416666666667,1.19178841
903,9.030000477,2.1472942857142856,1.2859461,4.819732414285714,-4.997974142857143,2.9756552,1.4399633285714286
904,9.040000477,2.525600285714286,1.362640514285714,5.4457793571428565,-3.381584971428571,2.2223933142857146,1.6713871714285715
905,9.050000477,3.1441011499999996,1.3931911000000001,5.64090825,-1.56773948,1.49993545,1.66074095
906,9.060000477,3.6408265714285717,1.3385363142857145,5.482279642857143,-0.24350990285714286,1.1834292714285717,1.3825436714285715
907,9.070000477,3.932373666666667,1.2443307,5.1293033333333335,1.1733612,1.0281323333333334,0.7635845416666666
908,9.080000477,3.498335457142857,1.170164,4.0046152,3.231840057142857,1.1923084,-0.5080940285714286
909,9.090000477,3.210187266666667,1.1712674666666667,3.424640933333334,3.545204733333333,1.8312182166666666,-0.84999395
910,9.100000477,2.810264228571429,1.223011157142857,2.7647171285714287,3.447731057142857,2.5761610714285714,-1.0131774857142857
911,9.110000477,2.5027782,1.2751455,2.399164433333333,3.033518366666667,3.4247151500000004,-1.0747857333333333
912,9.120000477,2.321246,1.2805451142857145,2.2455534285714287,2.6887097428571427,3.8900060571428576,-1.0863045857142857
913,9.130000477,2.2857560571428572,1.2622165142857145,2.221214057142857,2.4956820285714287,4.191590285714286,-1.1348233571428572
914,9.140000477,2.31347335,1.1900237,2.21302545,2.44751225,4.4283375000000005,-1.3539430000000001
915,9.150000477,2.367442142857143,1.099001385714286,2.179630714285714,2.5318091,4.487589542857143,-1.7458451142857143
916,9.160000477,2.42695555,1.006613575,2.1235844,2.7266694499999997,4.2456938,-2.31114065
917,9.170000477,2.4178196285714284,0.8732216785714285,2.024094585714286,3.050680142857143,3.8393932,-3.2258407285714283
918,9.180000477,2.30570365,0.5920213583333332,1.8160308166666665,3.2108674999999995,3.9107458999999998,-3.8828506333333332
919,9.190000477,2.1730231428571427,0.3227366071428571,1.6837176285714288,3.303571057142857,4.303637142857143,-4.338978857142857
920,9.200000477,1.9581151142857143,-0.04159650142857142,1.5861073714285716,3.4102074857142854,4.853399657142857,-4.5494596
921,9.210000477,1.7878837833333332,-0.33965903999999997,1.575905,3.6022172500000003,5.308364433333333,-4.5362537
922,9.220000477,1.6892187571428572,-0.6255983771428573,1.599239642857143,3.923319314285714,5.592524828571428,-4.316988614285714
923,9.230000477,1.7271231333333332,-0.8402522600000001,1.6330831000000001,4.283719133333332,5.674669066666667,-4.0430962
924,9.240000477,1.8618159,-1.0720006457142859,1.667026642857143,4.783566628571428,5.636854628571428,-3.738079757142857
925,9.250000477,2.06870295,-1.2999843,1.6561179,5.375303,5.456393000000001,-3.4857999
926,9.260000477,2.2990888428571425,-1.4776689,1.6147326999999998,5.902115142857143,5.190761757142857,-3.361972457142857
927,9.270000477,2.7986826285714286,-1.8127059714285714,1.4693409857142858,7.137881285714286,4.208170328571429,-3.6769951714285716
928,9.280000477,2.7670111333333334,-1.9366678666666666,1.2442291,7.823935666666667,3.5350748999999997,-4.126578733333333
929,9.290000477,2.459468342857143,-1.9434148428571427,0.9574077357142857,8.202544428571429,3.0794992857142853,-4.430955257142857
930,9.300000477,2.13561735,-1.8611401666666667,0.6743025916666666,8.4176785,2.65789825,-4.590822500000001
931,9.310000477,1.9465071857142857,-1.7357937285714287,0.4860344542857143,8.334138142857144,2.4644633142857146,-4.5272945714285715
932,9.320000477,1.92455335,-1.5581853666666667,0.37101249666666664,8.06868125,2.32030325,-4.320828166666667
933,9.330000477,2.039321957142857,-1.444627,0.27662327857142854,7.8252150714285715,2.344388185714286,-4.176493857142857
934,9.340000477,2.2702675285714284,-1.3249728142857145,0.14535255414285714,7.480173714285714,2.4218786142857143,-4.0848667
935,9.350000477,2.5769797333333333,-1.2042775666666667,0.020753243,7.131819833333334,2.487471916666667,-4.111511033333334
936,9.360000477,2.799997942857143,-1.0859780142857143,-0.042554746428571426,6.4892267142857145,2.4210056857142854,-4.539380671428572
937,9.370000477,2.5083069666666664,-0.9659252166666666,-0.100996745,5.622696333333334,2.0030699333333337,-5.406659866666666
938,9.380000477,2.0771856714285715,-0.9303896657142856,-0.13512113142857143,4.947971857142856,1.7668757,-5.658561714285715
939,9.390000477,1.6989356166666667,-0.8881260016666667,0.09364876,4.4679915,1.8334580333333335,-5.438627749999999
940,9.400000477,1.5449508714285716,-0.8361507142857143,0.6163948742857143,4.407633571428572,1.8469839142857143,-4.915771614285714
941,9.410000477,1.6131530333333333,-1.03413549,1.3545099833333334,5.294467666666667,1.6345254666666669,-4.344498466666667
942,9.420000477,1.7162064142857143,-1.1754649142857143,1.5406038714285715,6.139124114285715,1.3387590714285713,-4.029366728571429
943,9.430000477,2.0637006285714286,-1.5644466571428572,1.3688038142857144,7.560064057142858,0.4012612142857143,-4.111045571428571
944,9.440000477,2.2092905999999997,-1.9999185,0.734478885,8.716179666666667,-0.6383863066666667,-4.671963466666667
945,9.450000477,2.0449408285714283,-2.5751241428571428,-0.26460167428571424,9.179376142857143,-1.1143817557142859,-5.496076442857143
946,9.460000477,1.1001759933333333,-3.1036262666666663,-1.0609460666666666,9.177165333333333,-1.3107255,-6.090605333333333
947,9.470000477,-1.4299875771428572,-3.5084538285714286,-1.808450442857143,8.276020257142857,-2.583731142857143,-6.668903200000001
948,9.480000477,-2.486495242857143,-3.3723743857142856,-2.192758585714286,6.870090057142858,-3.526704857142857,-5.552274242857143
949,9.490000477,-2.5551746166666667,-3.3326587500000002,-2.114696533333333,5.1042906666666665,-3.36215415,-3.9014050499999997
950,9.500000477,-2.091350342857143,-3.438689342857143,-1.9041877285714286,3.8390224,-2.7038062714285713,-2.8205872857142857
951,9.510000477,-1.5886496,-3.420799066666666,-1.5838526333333334,2.3216777333333334,-1.9826575,-1.9409671333333334
952,9.520000477,-1.2919786857142856,-3.384613757142857,-1.3289234,1.5149229714285715,-1.6611773142857142,-1.6311803142857144
953,9.530000477,-1.2599210666666665,-3.3683976666666666,-1.1787273,1.0933147533333334,-1.4772831999999998,-1.6155891999999998
954,9.540000477,-1.4485339571428573,-3.339680742857143,-1.0308310285714284,0.5511151414285714,-1.1964098142857142,-1.618265257142857
955,9.550000477,-1.912228357142857,-3.3384179142857144,-0.6918217428571428,0.08372970571428572,-0.9887216714285714,-1.3652
956,9.560000477,-2.452013,-3.4142845666666672,-0.5136275066666666,-0.010689826666666668,-0.9254845,-0.6231660266666667
957,9.570000477,-2.6254886,-3.361084642857143,-0.5694191,-0.02482657964285714,-0.8908116514285714,-0.19900530857142856
958,9.580000477,-2.7779365166666667,-3.127621416666667,-0.7233552,-0.34523051,-0.7318459216666667,1.1903630866666666
959,9.590000477,-2.5731336142857137,-2.946683271428572,-0.66048712,-0.7253811085714286,-0.48032228571428576,2.2283053571428573
960,9.600000477,-2.2265881666666667,-2.73228345,-0.5151672566666666,-1.0694917266666666,-0.118351655,3.169330183333333
961,9.610000477,-1.7123472285714285,-2.4763422857142854,-0.31550621428571424,-1.3241859142857142,0.3233781802857143,4.0041257
962,9.620000477,-1.1147079142857144,-2.210677857142857,-0.12451509999999999,-1.5119778285714285,0.7492259857142857,4.854774114285713
963,9.630000477,-0.50874922,-2.0366432666666667,-0.11387859333333333,-1.5663141999999999,0.8260182133333333,5.1902164
964,9.640000477,0.05078257285714284,-1.847019842857143,-0.22552709571428572,-1.7173970714285713,0.7980937871428572,5.377135542857142
965,9.650000477,0.6272724166666667,-1.5759557666666666,-0.4384707399999999,-2.1761433,0.7502731800000001,5.4858665
966,9.660000477,0.8381195285714286,-1.4040017571428574,-0.48307264,-2.793011771428571,0.69721672,5.566323828571428
967,9.670000477,0.83895135,-1.2239739,-0.26964986,-3.5787758166666666,0.5181511833333333,5.8222396
968,9.680000477,0.83407305,-1.1831831857142858,-0.07216448357142857,-3.916076385714286,0.3254725,6.175011428571429
969,9.690000477,0.9261516433333333,-1.1336739,0.174258129,-4.101890233333333,0.058794046666666676,6.648257999999999
970,9.700000477,1.190905742857143,-1.0811650428571429,0.33589503142857147,-4.129000128571429,-0.19636558571428572,7.083646485714286
971,9.710000477,1.5701569000000002,-1.053036242857143,0.33150017142857147,-4.1003777,-0.3579783142857143,7.470574742857143
972,9.720000477,1.9434620166666665,-1.0218940333333333,0.3327226833333334,-4.1212337833333335,-0.28450211666666664,7.565343333333334
973,9.730000477,2.0618276285714283,-0.9860854428571428,0.3625908428571428,-4.146976542857143,-0.21381836285714284,7.485933314285715
974,9.740000477,2.068825,-0.9362284500000001,0.37743055499999995,-4.1896487,-0.16233266,7.34849265
975,9.750000477,1.8782062428571429,-0.8731215428571428,0.3747997457142857,-4.368103214285715,-0.21294571714285712,7.307391228571428
976,9.760000477,1.8010705,-0.8823787333333333,0.4044849933333334,-4.589346366666667,-0.3806087533333333,7.455390733333334
977,9.770000477,1.8416405857142857,-0.9524727857142857,0.4529532685714286,-4.732517471428571,-0.5229070685714285,7.559060228571428
978,9.780000477,1.9418468142857144,-1.0592298428571427,0.4967449771428572,-4.985407957142857,-0.7569488499999999,7.6878620571428575
979,9.790000477,2.00058935,-1.1628319666666667,0.55016929,-5.2091527,-0.86236364,7.714389999999999
980,9.800000477,1.9878599285714285,-1.2349762142857144,0.62139514,-5.337605271428571,-0.9042503028571429,7.7004277142857145
981,9.810000477,1.9581427,-1.2952179000000001,0.7037605666666668,-5.5227209,-0.9902343666666668,7.6744812
982,9.820000477,1.9998074714285714,-1.3437848714285714,0.7913484457142858,-5.597826142857143,-1.053122557142857,7.626951571428571
983,9.830000477,2.047070666666667,-1.3527414999999998,0.85775332,-5.622492833333333,-1.1136255000000002,7.509552599999999
984,9.840000477,1.9749322285714288,-1.2819562714285715,0.9208289971428572,-5.605505214285714,-1.2478955,7.219603742857143
985,9.850000477,1.6776370714285715,-1.1068589857142856,1.0052720657142857,-5.476878285714285,-1.519809757142857,6.884336057142856
986,9.860000477,1.47429335,-0.9801131166666667,1.0422814166666667,-5.121394166666666,-1.74768485,6.831308333333333
987,9.870000477,1.3955474428571428,-0.9569766000000001,0.967587,-4.8712667142857144,-1.7433798714285715,6.9487365714285705
988,9.880000477,1.3781037833333334,-0.9356745166666668,0.8359634333333333,-4.663055249999999,-1.7774128333333332,7.226933916666667
989,9.890000477,1.5799093,-0.9144436142857143,0.7520952742857142,-4.632163985714286,-1.8924266285714286,7.473192585714286
990,9.900000477,2.2509699,-0.747345475,0.8496278333333334,-4.611744116666666,-1.9981323166666665,7.431975216666667
991,9.910000477,2.7618380714285715,-0.5336592128571429,1.090202982857143,-4.415400142857143,-1.986322614285714,6.900217971428572
992,9.920000477,3.140867057142857,-0.19725454685714286,1.4273741714285713,-4.0645992571428575,-1.9800395857142856,6.142003714285715
993,9.930000477,2.86759105,0.2585059265,1.5692378499999997,-3.2916268,-2.4774438,5.0307851999999995
994,9.940000477,2.384198342857143,0.8053562085714285,1.3987880714285714,-2.694752728571429,-3.2818423857142855,4.333983028571429
995,9.950000477,2.1551106,1.32289725,0.8430827500000001,-2.7171504666666664,-3.660451266666667,4.251955266666666
996,9.960000477,2.2674014857142857,1.5137119714285716,0.20913240914285716,-3.7610302857142854,-2.8608812571428572,4.418803628571428
997,9.970000477,2.77509075,1.3304637833333333,0.0486054735,-5.529236666666667,-0.9507328333333334,4.2910492
998,9.980000477,2.9733093428571427,1.1181837,0.9234684957142857,-7.2249487142857145,1.226319457142857,3.4730374999999998
999,9.990000477,3.1276215,0.9180261249999999,2.4022741499999998,-7.6781973500000005,2.2378389,2.4102505
