id,timestamp,acc_x,acc_y,acc_z,gyro_x,gyro_y,gyro_z
0,2.38e-07,-0.21788238,0.6227802375,0.55082484375,-0.10338590175,0.7521056875000001,0.07803573512499999
1,0.010000238,-0.24437402,0.7542817999999999,0.54301953,-0.26724568,0.45706648,0.19333316
2,0.020000238,-0.1782551685714286,0.7157865714285715,0.5888322728571429,-0.3164624971428571,0.24763312,0.20171049714285713
3,0.030000238,-0.11235412,0.6920525999999999,0.66845363,-0.33688226000000004,-0.36024715999999996,0.105371155
4,0.040000238,-0.10646963,0.6864425,0.6786981,-0.31122667,-0.6033644,0.024739313999999995
5,0.050000238,-0.065491624,0.671777,0.66577053,-0.31122667,-0.6190718857142857,-0.07055285742857144
6,0.060000238,-0.05489649566666666,0.6577517833333333,0.6517453383333334,-0.33566058000000004,-0.5325061,-0.15484978
7,0.070000238,-0.06882805571428571,0.6373499257142857,0.6485918428571429,-0.42013202,-0.24907296971428572,-0.24281179142857143
8,0.080000238,-0.08963937,0.6366530499999999,0.67003908,-0.5311317,0.153475379,-0.31244837
9,0.090000238,-0.12443669285714286,0.6416010714285714,0.7134257714285714,-0.6203154,0.7038488,-0.2635806
10,0.100000238,-0.15674695,0.6295794,0.7765697000000001,-0.5972777142857143,0.8954802285714286,-0.18190158857142857
11,0.110000238,-0.1777085416666667,0.6267337333333333,0.8515995,-0.47126865833333337,0.8938222666666666,-0.058335911666666664
12,0.120000238,-0.18409611,0.6398239,1.1397007,-0.15781675,0.4630004,0.011824258
13,0.130000238,-0.14992237666666666,0.6422630666666667,1.1925746166666666,0.09804098,0.1357608,0.01007898
14,0.140000238,-0.13556104142857142,0.6335517857142856,1.2460352571428572,0.7158693457142856,-0.5155768885714286,-0.13652435999999998
15,0.150000238,-0.09627086,0.6301891833333333,1.0587609833333333,1.2172658,-0.94055206,-0.34665582
16,0.160000238,-0.12928018857142856,0.5668840857142857,0.7444467428571429,1.2844590857142857,-0.8253637314285714,-0.5089666628571429
17,0.170000238,-0.16554828,0.6176884333333333,0.43058406666666665,1.08491564,-0.5284337733333334,-0.6887302666666667
18,0.180000238,-0.21321366571428574,0.6856671642857144,0.18894395000000003,0.6204681000000001,-0.10072434,-0.7391688142857143
19,0.190000238,-0.2608558128571429,0.6858152571428572,0.31204345714285714,-0.10109521999999997,0.3345479571428571,-0.6126361642857143
20,0.200000238,-0.26242384,0.7613553999999999,0.7977903999999999,-0.78524417,-0.4653129,-0.28068432
21,0.210000238,-0.14928570428571428,0.7003326857142856,0.9151100142857143,-0.7320131914285716,-0.8257127571428572,-0.2265807057142857
22,0.220000238,-0.13738606333333334,0.7510905733333333,1.0194801533333333,-0.25462150833333336,-0.6848106666666668,-0.31183751833333334
23,0.230000238,-0.1275814807142857,0.7471864457142857,1.0115920857142857,0.32457806714285714,-0.4414025857142857,-0.18137799857142856
24,0.240000238,-0.0503383,0.6273841,0.8881005600000001,0.6838435033333333,-0.6078439066666667,-0.06749862250000001
25,0.250000238,0.0004921897142857134,0.5391037342857142,0.80128368,0.7111571085714286,-1.12603148,-0.11889705614285716
26,0.260000238,0.11543356171428572,0.4699011085714285,0.6546157114285714,0.5169076842857142,-1.6105423714285716,-0.32414175142857143
27,0.270000238,0.25096484166666666,0.3967609616666667,0.48290418333333335,0.232223775,-2.1774667500000002,-0.6270347399999999
28,0.280000238,0.17845989685714286,0.41637879857142857,0.46551501428571423,0.038527009428571436,-2.320172442857143,-0.8842013857142856
29,0.290000238,0.11503720742857144,0.44038719142857147,0.3190473714285714,-0.17352425485714287,-1.5409057999999998,-1.0787999285714285
30,0.300000238,0.09241393000000002,0.45508754,0.31776243,-0.4525360116666666,-0.3452050583333333,-1.2598724
31,0.310000238,-0.06378421,0.51658505,0.30312744,-0.7351547,0.3617743,-1.3887613
32,0.320000238,-0.42057332,0.6444583,0.42856157,-1.0711206,0.44484952,-1.4315206
33,0.330000238,-0.9640502,0.7974856,0.61159056,-1.2219126857142857,-0.3415727085714285,-1.1676345142857143
34,0.340000238,-1.1573541,0.7262008999999999,0.5832962,-1.2091721,-0.96376425,-0.5238015
35,0.350000238,-1.0222417071428571,0.6374762214285715,0.5848642714285714,-1.2280211857142855,-0.8412457499999999,0.11915885142857142
36,0.360000238,-0.6912206428571429,0.5577110999999999,0.62593375,-1.251233342857143,-0.7134914,0.6793276171428572
37,0.370000238,-0.40837748,0.528171075,0.744967225,-1.2452121500000002,-0.5966450600000001,1.0297357999999999
38,0.380000238,-0.11011966714285713,0.5292338285714286,0.9848527285714287,-1.1829929857142858,-0.6267510971428571,1.2512987857142857
39,0.390000238,-0.10478762583333334,0.5630765666666666,1.1498842166666667,-0.8646543000000001,-1.4244958,1.3895248
40,0.400000238,-0.15207769214285713,0.6104189,1.2258946857142856,-0.6039097628571428,-1.7187496857142859,1.5256564857142858
41,0.410000238,-0.12999742,0.6265253916666668,1.2613134333333333,-0.26215528166666663,-1.9663174166666666,1.6023032666666668
42,0.420000238,0.004351299714285714,0.5982274042857142,1.1862887285714285,0.06016845142857143,-1.9100321428571427,1.5781893285714286
43,0.430000238,0.11429528933333333,0.5800338166666666,1.1382473333333334,0.4523324,-1.4342692999999997,1.356539
44,0.440000238,0.21794824857142858,0.6186336657142857,1.0650708428571427,0.5790395771428571,-1.0602999285714285,1.0685681428571427
45,0.450000238,0.18845175714285717,0.6916953857142857,1.0200246571428573,0.6127234171428572,-0.7934251514285714,0.8536371942857143
46,0.460000238,0.09767120285714286,0.7364628142857143,0.9997360285714286,0.6026008142857142,-0.5799776742857142,0.6495488028571428
47,0.470000238,0.002500146428571428,0.7334966242857143,1.0109911142857144,0.6462327657142856,-0.5721239,0.6142941728571428
48,0.480000238,-0.025662066666666664,0.6852635716666667,1.0500663666666668,0.83960956,-0.67788774,0.7528692500000002
49,0.490000238,0.121178671,0.7331612485714285,1.0509193857142858,1.0826831371428571,-0.7218687600000001,0.8168773271428572
50,0.500000238,0.31742707,0.70619977,0.86367846,1.380973,-0.8232693699999999,0.55373305
51,0.510000238,0.2726596214285714,0.6574599957142857,0.7005243514285715,1.4123879285714285,-0.8660286771428571,0.2771065
52,0.520000238,0.15789248571428569,0.6187861314285714,0.5881876285714286,1.412737,-0.8525900999999999,0.033291176
53,0.530000238,0.061135971428571426,0.5917418528571429,0.5300657914285715,1.4064539714285715,-0.8316467571428571,0.065753348
54,0.540000238,0.026851159166666666,0.5665371,0.482091115,1.4155876333333335,-0.8251019500000001,0.15159192666666665
55,0.550000238,0.013563508285714286,0.5387944885714286,0.43322648142857145,1.4211143714285714,-0.8573023228571428,0.2186396842857143
56,0.560000238,0.00938208,0.5055260185714286,0.3613712528571429,1.410119157142857,-0.9217030657142857,0.29246493999999995
57,0.570000238,0.022205128,0.4594954642857143,0.25037175,1.3389117857142858,-1.0383748714285714,0.41952116285714286
58,0.580000238,0.035794772,0.38185155,0.12741597,1.1732849,-1.1520579,0.63558656
59,0.590000238,0.09460918,0.30254814,0.09713980999999998,1.0486720142857142,-1.2305954142857143,0.7675295942857143
60,0.600000238,0.22284837142857142,0.22074894,0.12957202142857144,0.9378468857142856,-1.3326941428571428,0.85248098
61,0.610000238,0.5250814283333334,0.14794054833333334,0.23300139833333333,0.8310831666666667,-1.6936758333333335,0.7885274683333333
62,0.620000238,0.32979276571428573,0.09949186428571428,0.3076181171428572,0.8782892999999999,-1.8746029857142859,0.6933553057142857
63,0.630000238,0.43956395428571426,0.1216403757142857,0.28372736142857147,0.9970118142857143,-1.8581973857142857,0.6795675928571429
64,0.640000238,0.5201573616666667,0.13813814,0.2452887016666667,1.0657757666666665,-1.8370213,0.6372154966666667
65,0.650000238,0.5890848857142857,0.061876432142857145,0.14472969285714285,1.1319218,-1.7520844285714285,0.4895068157142857
66,0.660000238,0.6377506228571429,0.018302461857142856,0.06813550428571429,1.1350633142857143,-1.6578394285714286,0.29421022714285716
67,0.670000238,0.6027442142857142,0.013424128571428573,-0.025606894285714287,1.0425636,-1.6009433714285712,0.10013532428571428
68,0.680000238,0.36683541999999997,0.0380052675,-0.083206075,0.7847096699999999,-1.4953540500000002,0.03084779
69,0.690000238,0.24014031714285713,0.08077561757142858,-0.2288678842857143,0.2575593857142857,-1.4866276142857144,0.38880427571428566
70,0.700000238,0.3785325342857143,0.09217001285714285,-0.3252106071428571,-0.22972220285714287,-1.6388159714285717,0.660544017142857
71,0.710000238,0.4472517,0.069241844,-0.3272447,-0.6932098216666667,-1.75028105,0.9138529599999999
72,0.720000238,0.44662450285714284,0.09140341485714286,-0.2548798657142857,-1.0571584285714286,-1.874253857142857,1.1594971314285714
73,0.730000238,0.40799419142857146,0.13240320285714285,-0.11975002071428571,-1.4289025714285712,-2.177583257142857,1.5745242285714285
74,0.740000238,0.444644855,0.19227239666666665,0.14648719916666667,-1.6021505666666667,-2.6140191166666664,2.0435386
75,0.750000238,0.65811765,0.2659693342857143,0.39460488,-1.6044776285714286,-3.039575942857143,2.404752942857143
76,0.760000238,0.9914559428571428,0.3820693171428572,0.6999014571428572,-1.5137231714285715,-3.496315085714286,2.690105928571428
77,0.770000238,1.5649184666666667,0.65129814,0.92324496,-1.0381349333333334,-4.464886266666666,2.7696324666666663
78,0.780000238,1.8008107,0.9153103428571429,0.7567645399999999,-0.9344654314285714,-4.685722,2.4813706714285715
79,0.790000238,1.8335957714285716,1.0816136485714287,0.5678772342857142,-1.2924218957142857,-4.374888142857143,2.3012578714285716
80,0.800000238,1.8324935857142857,1.141935142857143,0.48609108285714286,-1.8849437285714286,-3.8167481714285714,2.2127724
81,0.810000238,1.7729083,1.1442741,0.58183277,-2.6263378,-3.1531935,2.1872914
82,0.820000238,1.6877900714285714,1.125640585714286,0.7577401957142857,-3.0609119714285713,-2.8107700714285717,2.192527342857143
83,0.830000238,1.5959860714285714,1.0710773714285715,1.0901594142857143,-3.292510371428571,-2.6091905285714287,2.2227205428571426
84,0.840000238,1.5716669333333335,1.0353449666666668,1.4771390999999998,-3.1626616,-2.7015737666666664,2.2284217666666666
85,0.850000238,1.5241437857142857,0.9938733,1.9432449571428572,-2.5364558857142856,-3.124571014285714,2.1860695714285714
86,0.860000238,1.4032351285714284,0.9441927,2.308793242857143,-1.6093643285714285,-3.6066168714285713,2.1454045714285717
87,0.870000238,1.1524800714285715,0.8579420999999999,2.3487520142857146,0.6990710714285714,-4.412935471428571,2.0940934285714286
88,0.880000238,0.97978276,0.80138826,1.8498946,2.16448635,-4.447171916666666,2.0755062333333334
89,0.890000238,0.9091776100000001,0.8062665742857142,1.2606833142857143,3.2121185571428574,-4.112223871428571,2.0169520000000003
90,0.900000238,0.7799932500000001,0.8573714714285714,0.37095369,3.3280050857142855,-3.598239385714286,1.9727965714285713
91,0.910000238,0.6712993099999999,0.8784963666666666,-0.4478919846666667,2.466652266666667,-2.4991797,2.0068876666666666
92,0.920000238,0.6266611142857144,0.8541396142857144,-0.7965969942857143,1.2991194571428573,-1.488547557142857,2.062329357142857
93,0.930000238,0.5492045028571428,0.7976380285714286,-0.7066178942857143,0.026855465714285716,-0.7480697628571429,2.0549991428571426
94,0.940000238,0.528694455,0.7852999,-0.6669749,-0.23690693333333335,-0.611712645,2.048628883333333
95,0.950000238,0.4425258342857143,0.7404308285714285,-0.365226,-0.9571540428571429,-0.39340744714285714,1.991645642857143
96,0.960000238,0.2926128857142857,0.6673603285714285,0.13645829999999998,-1.4304734000000001,-0.4152234228571428,1.9073487571428571
97,0.970000238,0.17295724666666668,0.6393360600000001,0.44710942666666664,-1.3810238666666665,-0.5838172733333333,1.8786098333333332
98,0.980000238,0.12055581971428572,0.6316701142857143,0.5651984942857143,-1.1981769142857144,-0.6979584528571429,1.8848346571428571
99,0.990000238,0.05652769,0.6271402,0.61305404,-0.49343368,-0.855208,1.9525515
100,1.000000238,0.075339764,0.63884825,0.39462668,-0.0990590625,-0.82164044,1.9977250333333334
101,1.010000238,0.069276692,0.63592127,0.2735220542857143,0.120555072,-0.7340856928571429,2.027947371428571
102,1.020000238,0.14251266571428572,0.6983900342857143,0.09183027571428572,0.19699824142857142,-0.5253504671428572,2.039117314285714
103,1.030000238,0.3228760057142857,0.8067805142857143,-0.025850810000000002,0.029800619800000004,-0.40789323857142856,1.9871079142857142
104,1.040000238,0.61016261,0.8987617999999999,-0.07393215833333333,-0.3319955,-0.25640315,1.8256698
105,1.050000238,0.7904598771428571,0.9483393142857144,0.009011850000000002,-0.5632448214285714,-0.12463466000000001,1.5734770857142857
106,1.060000238,0.89435095,1.0690868,0.45685592,-0.7583668785714286,-0.033182096,1.099808685714286
107,1.070000238,0.92779803,1.1750076,0.85050696,-0.5909947,-0.15622419,0.6343649
108,1.080000238,0.9209684000000001,1.1935757,1.0596654,-0.29517011428571427,-0.2644314114285714,0.3525025071428572
109,1.090000238,0.8849818999999999,1.2295360142857146,1.0358052,0.16261626285714284,-0.2588465285714286,-0.0010907999999999949
110,1.100000238,0.8997171083333333,1.2603529833333333,0.9675716666666666,0.6190937049999999,0.036599929999999996,-0.31122669000000003
111,1.110000238,1.0452744428571428,1.3328739285714286,0.7357179857142857,0.8781365842857143,0.551486,-0.6063531999999999
112,1.120000238,1.4143660666666669,1.4366692166666668,0.546871325,0.820902345,1.1605588666666666,-0.9650368166666667
113,1.130000238,1.632172842857143,1.4731433999999999,0.5272258771428572,0.7526947,1.4031816142857143,-1.1582099857142858
114,1.140000238,1.8643989142857145,1.4571363428571427,0.8012139714285714,0.6643836714285715,1.8299021142857141,-1.914439
115,1.150000238,1.8512563999999998,1.4489158,1.0062883666666667,0.7522584299999999,1.86812365,-2.4553006
116,1.160000238,1.3755201428571429,1.5246751714285713,1.2555131,1.0620670428571428,1.4824171428571429,-2.8617757714285714
117,1.170000238,1.227968,1.7055569,1.1655864,1.2087140428571428,1.2244651142857144,-2.677823542857143
118,1.180000238,1.421881742857143,1.7518923285714287,1.2228980999999999,1.1045209571428571,1.4440210571428571,-2.247961657142857
119,1.190000238,2.224647233333333,1.8716538166666667,1.6930358666666667,1.04969015,1.9110865,-1.8978006333333333
120,1.200000238,3.545921314285714,1.8366011142857144,2.5018315857142857,1.4855151428571427,2.3367306714285716,-2.0554574000000003
121,1.210000238,4.418641742857143,1.616278957142857,3.0345673142857144,2.251343042857143,2.465008557142857,-2.7413516
122,1.220000238,4.606962785714286,1.436516685714286,3.1942586285714287,2.9705720285714285,2.4150936714285716,-3.432481642857143
123,1.230000238,4.1933456428571425,1.1002689,2.8939537142857144,4.173766628571428,2.1023399,-4.447622642857143
124,1.240000238,3.467011233333333,0.7718438333333334,2.1999353333333334,5.384058733333333,1.8416536,-5.2115960333333335
125,1.250000238,2.943394714285714,0.5204702771428572,1.4805306571428571,5.768426714285715,1.9075668571428572,-5.113511399999999
126,1.260000238,2.781077,0.3179149,1.0240232,5.821832699999999,1.9939580999999997,-4.798663
127,1.270000238,2.695096142857143,0.19032905714285714,0.7878508571428571,5.641719814285715,1.8117511285714285,-4.7023239142857145
128,1.280000238,2.5847238571428575,0.09323279571428571,0.5527456857142857,5.4502627142857145,1.6417610857142857,-4.707210685714286
129,1.290000238,2.3671299166666664,-0.040612125166666665,0.171407365,4.984564566666667,1.4443992833333335,-4.8275768333333335
130,1.300000238,2.055516357142857,-0.16957435085714284,-0.14910278571428573,4.296983142857143,1.4380871285714285,-4.960974085714286
131,1.310000238,1.6322294333333334,-0.3367422116666667,-0.347022285,3.3364986,1.6201196666666666,-5.013681333333333
132,1.320000238,1.3648095857142857,-0.4448386857142857,-0.32275838000000007,2.451002885714286,1.827982257142857,-4.984011685714286
133,1.330000238,1.0885086285714285,-0.5470092885714286,-0.23493096285714285,1.6439863571428572,2.0286891857142857,-4.833743342857143
134,1.340000238,0.8581496666666667,-0.62694718,-0.13818896,1.0476539500000002,2.1721218833333333,-4.583034333333333
135,1.350000238,0.6444844571428572,-0.6962340428571429,-0.032959240285714286,0.7728308571428572,2.2204952285714286,-4.355624399999999
136,1.360000238,0.3826747533333334,-0.7571885233333333,0.14944977733333334,0.4969242583333333,2.2134558666666666,-3.8604528333333334
137,1.370000238,0.21856240142857145,-0.7828331314285715,0.39392539428571427,0.5313934985714285,2.121887,-3.525505
138,1.380000238,0.26163982714285716,-0.9162294571428572,0.5755126542857143,1.0702916071428572,1.840722757142857,-2.876261671428572
139,1.390000238,0.24861206,-1.0721662,0.5378972,1.6424155,1.7410673999999997,-2.6043472
140,1.400000238,0.1739213,-1.1307322857142856,0.44919868571428573,1.9932164285714287,1.702671257142857,-2.458616557142857
141,1.410000238,0.05958681,-1.1799519666666667,0.29002201666666666,2.4756112166666666,1.5783783833333331,-2.198744883333333
142,1.420000238,-0.05137059085714286,-1.2014333571428573,0.13081339142857143,2.7251859,1.411035357142857,-1.9730803428571428
143,1.430000238,-0.18319158166666663,-1.1917057166666667,-0.10016844333333334,2.8561690333333334,1.0732077500000001,-1.56448165
144,1.440000238,-0.20726819142857142,-1.1864847571428572,-0.21084418285714285,2.833393142857143,0.8487068428571429,-1.3203463714285715
145,1.450000238,-0.16903424666666667,-1.1638585000000001,-0.38509360000000004,2.6148843999999998,0.37969247999999994,-0.8544735333333332
146,1.460000238,-0.11386552571428572,-1.1186889285714285,-0.5030389114285715,2.213819514285714,-0.037021712857142855,-0.45538664285714286
147,1.470000238,-0.05170597857142857,-1.0665648428571428,-0.5957882542857142,1.4902272857142855,-0.3052709157142858,-0.029887884857142864
148,1.480000238,-0.025702719,-0.9899357600000002,-0.5876562,0.8815798333333333,-0.311379375,0.28272048766666663
149,1.490000238,0.037990022,-0.9479517,-0.513719,0.4526814428571429,-0.26128990571428573,0.4694361157142857
150,1.500000238,0.091677087,-0.9296579166666668,-0.4248418583333333,-0.22611530000000002,-0.22524991833333333,0.7105171566666666
151,1.510000238,0.09551515142857143,-0.89858468,-0.2842631014285714,-0.6047824300000001,-0.29445019142857143,0.8526336857142857
152,1.520000238,0.06753442916666667,-0.8222126,-0.200555405,-0.9456933416666665,-0.3905859233333333,1.0775854333333335
153,1.530000238,0.013864049785714287,-0.7501613571428571,-0.22712998857142858,-1.1496581714285714,-0.4119074028571429,1.291440142857143
154,1.540000238,-0.03822958092857143,-0.6704616142857144,-0.24031020285714286,-1.4568270857142858,-0.3757801514285714,1.6804626428571428
155,1.550000238,0.011403104000000002,-0.5462514,-0.13519081,-1.8334581000000003,-0.17821468,2.3864276
156,1.560000238,0.13494690171428572,-0.5239330000000001,-0.07313144314285713,-1.9023965285714286,-0.051682039142857135,2.7154123857142856
157,1.570000238,0.505212375,-0.3817295666666667,0.11963603866666668,-1.8249061666666666,-0.10776364093333334,3.0147857666666664
158,1.580000238,0.57402302,-0.26008484257142855,0.13660204957142857,-1.672892514285714,-0.29287944857142856,3.097802857142857
159,1.590000238,0.4750887,0.037990022,0.005366167000000001,-1.2287192,-1.0750911,3.2171798
160,1.600000238,0.4366021457142857,0.2877606951428571,-0.14913761414285714,-1.2182475428571429,-1.3648072714285713,3.464311114285714
161,1.610000238,0.7185741471428572,0.7495472142857142,-0.7821274985714286,-1.6952320285714286,-1.9370838857142856,4.141827942857143
162,1.620000238,1.0944846,0.90511376,-1.1816543,-2.254535316666667,-2.0471527166666665,4.412200666666667
163,1.630000238,1.792630742857143,1.0030724314285713,-1.302632657142857,-3.7723744142857143,-1.6866365285714284,4.465926228571429
164,1.640000238,2.0956711,1.05946735,-0.890387325,-5.546951249999999,-1.09578365,4.33869555
165,1.650000238,1.4811099285714284,1.5227412999999999,1.0496910285714285,-6.447601985714286,-0.9659459,4.505893028571429
166,1.660000238,1.302637,1.8949581,2.2525704,-5.888414999999999,-2.0328996,5.6398
167,1.670000238,2.076828485714286,1.9443250714285714,2.8043883428571434,-4.459948714285715,-2.9030953714285714,6.433683142857143
168,1.680000238,3.7641067333333336,1.8803434833333332,2.9242305,-1.6990716,-3.2900233,6.3680825
169,1.690000238,4.0108438,2.0247827,2.4355996,-0.13460455714285713,-3.192636785714286,5.2862284142857145
170,1.700000238,3.1583042166666666,2.1817787833333333,1.6513819333333333,1.0791889916666666,-3.1193931999999998,4.1407809
171,1.710000238,2.8933004428571425,2.220517285714286,1.199595257142857,1.4198926571428572,-2.9989109142857147,3.6824709142857146
172,1.720000238,2.990222414285714,1.9404224571428572,0.4262574571428571,1.2820156571428571,-1.6557451714285716,2.2475034571428574
173,1.730000238,2.4751698,1.8230737833333333,0.29525605000000005,0.9891144133333333,-0.5040508146666667,1.3247750333333335
174,1.740000238,2.1677614857142857,1.7463518285714286,0.29822733142857144,0.7455390971428572,0.3781798874285714,0.7248575628571429
175,1.750000238,1.0746257000000001,1.323624,0.30499748666666665,0.5630994,1.2299918333333333,0.2271333733333333
176,1.760000238,0.5085053,1.0915576,0.2565089,0.6184828,1.1497673,0.25930467
177,1.770000238,0.13342242,0.89069223,0.08299265,0.669794,0.57434916,0.5439595
178,1.780000238,0.10475350285714287,0.7578796328571428,-0.09085025285714286,0.6048697142857142,0.052860108,0.8163537142857142
179,1.790000238,0.11927526,0.6310429,-0.20937197,0.39491275,-0.18432316,1.0193514
180,1.800000238,0.15196008666666666,0.5809180533333334,-0.20172925666666666,0.23202015,-0.12893968,1.0706625333333333
181,1.810000238,0.2099338514285714,0.5324395757142857,-0.17344653428571427,0.07029106571428571,-0.04801696,1.0928276000000001
182,1.820000238,0.3198662233333333,0.48233504666666666,-0.13650186933333333,-0.13367374266666668,0.13291018400000001,0.9317966000000001
183,1.830000238,0.3939559028571429,0.4364322685714286,-0.112841953,-0.2756230085714286,0.2944065628571429,0.7184
184,1.840000238,0.35138374285714286,0.4382834214285714,-0.116992895,-0.41838675714285717,0.5568963285714286,0.24359716428571426
185,1.850000238,0.19361902,0.5162496566666667,-0.08394799166666667,-0.5050688999999999,0.6639400666666666,-0.015169369999999996
186,1.860000238,0.16587858,0.48289405,-0.08076691,-0.563303,0.6663834583333333,-0.32547978166666663
187,1.870000238,0.13195892,0.35892337999999996,-0.24281906,-0.6234569142857144,0.7188581314285715,-0.6353248
188,1.880000238,-0.012378771142857143,0.3825484485714286,-0.2930223371428572,-0.7749470228571429,0.85708415,-0.7313150471428571
189,1.890000238,-0.08890763,0.38892514,-0.30212128,-1.0295831,1.0532534,-0.6154286
190,1.900000238,-0.012552997857142856,0.39661286142857144,-0.26115633714285713,-1.2264503857142857,1.2323189428571428,-0.47196676571428575
191,1.910000238,0.1064594675,0.423673075,-0.19921386,-1.3386717666666665,1.3405551999999998,-0.4164960266666667
192,1.920000238,0.5326791985714286,0.4845274142857143,0.013010339999999999,-1.4313460857142855,1.4688040285714286,-0.5716221614285715
193,1.930000238,0.7320702,0.50144695,0.09079798,-1.4095300499999999,1.4839007000000002,-0.8780929250000001
194,1.940000238,0.8048989285714285,0.5144594714285714,0.17143857285714284,-1.2707803857142856,1.377526,-1.3576952857142857
195,1.950000238,0.4519340571428571,0.5878740214285714,0.40902648714285716,-0.7695366257142856,0.9183433714285714,-2.0701178285714286
196,1.960000238,0.3223054,0.6627521,0.6465011,-0.38086328,0.5865661,-1.9360802999999998
197,1.970000238,0.43596620714285717,0.7453788642857143,0.6953062428571428,-0.03966144428571429,0.33873662142857136,-1.6437463
198,1.980000238,0.8788114216666667,0.8545010366666667,0.5696216333333334,0.378827115,0.2538579383333333,-1.2224072
199,1.990000238,1.5448375714285716,0.9209640214285714,0.44790941714285715,0.5881150399999999,0.6200754514285715,-1.2264503857142857
200,2.000000238,2.039773483333333,1.0193989116666666,0.5315045450000001,0.7547781499999999,0.87244265,-1.7503828
201,2.010000238,2.1957814285714288,1.2218830857142857,0.7688514714285715,1.016384314285714,0.9993243285714286,-2.5430879857142856
202,2.020000238,2.2467825,1.3915141666666668,1.1640719916666666,1.3125580666666667,0.7612684,-2.8332114333333336
203,2.030000238,2.2143365142857143,1.5395716285714285,1.5695078714285715,1.8729668,0.30767067257142855,-2.894237985714286
204,2.040000238,2.777531457142857,1.6299426285714287,1.374749157142857,3.2400430142857144,-0.5976049804285715,-2.457045885714286
205,2.050000238,3.223455283333333,1.5818757833333335,0.7138119666666666,3.4629440666666667,-0.8943312899999999,-2.6014965833333332
206,2.060000238,3.213833071428571,1.5993136857142858,0.0748257937142857,3.0423029285714285,-0.9686510285714285,-2.9907517571428572
207,2.070000238,2.9633741,1.5579263,-0.27821746,1.8867544999999997,-0.804944,-3.4546466
208,2.080000238,2.829097957142857,1.3882648999999998,-0.1752759057142857,1.0049091714285714,-0.6038879428571429,-3.6169575714285713
209,2.090000238,2.700026742857143,1.1922952857142857,0.06761282714285714,0.20869159499999998,-0.4307563857142857,-3.8403530428571426
210,2.100000238,2.389875066666667,0.9034775666666667,0.47597288333333326,-0.37679095783333333,-0.4176668333333333,-4.10519925
211,2.110000238,2.149445957142857,0.7071710714285714,0.7143230428571429,-0.4628913214285714,-0.4672327142857143,-4.195691928571429
212,2.120000238,1.8946227666666668,0.5184347066666667,0.8145496133333333,-0.4061116166666667,-0.5561255333333334,-4.322864366666667
213,2.130000238,1.5431083571428572,0.2884662885714286,0.7958130285714287,-0.24612781428571426,-0.5967323257142858,-4.4726674
214,2.140000238,0.89142394,0.0031099375,0.5613132,0.060168456,-0.29183227,-4.598305
215,2.150000238,0.6010759857142858,-0.08851561464285715,0.4429265571428571,0.19525295657142855,-0.035276428000000006,-4.577362085714286
216,2.160000238,0.35674554571428574,-0.16480926857142858,0.3313128928571429,0.3633232342857143,0.2703217255714286,-4.501486228571429
217,2.170000238,0.075339764,-0.26437518,0.15961297,0.5464029,0.554802,-4.3464837
218,2.180000238,-0.08183405,-0.32587266,0.024666073,0.6668270571428572,0.6993110571428571,-4.167417985714286
219,2.190000238,-0.24925235,-0.3600514799999999,-0.07344941,0.78096825,0.70629215,-3.8431456
220,2.200000238,-0.3392053271428571,-0.3848613028571428,-0.10970587857142858,0.8270435585714286,0.5324624757142857,-3.5499388571428567
221,2.210000238,-0.5539093433333333,-0.459823595,-0.16253488833333332,0.90323948,0.15856577133333333,-2.9675978
222,2.220000238,-0.6654569400000001,-0.48667037428571425,-0.15280508,0.9528562685714286,-0.12707804742857143,-2.5764228285714283
223,2.230000238,-0.9611057171428572,-0.5646278857142858,-0.04566468428571429,1.1081859600000001,-1.1301983114285714,-1.484926057142857
224,2.240000238,-1.0631413,-0.70708394,0.10396948,1.3650910000000003,-2.276017,-0.30389652
225,2.250000238,-0.9970878000000001,-0.7911045185714285,0.1461540014285714,1.5753969285714287,-2.810944642857143,0.30782337285714284
226,2.260000238,-0.755166,-0.88864946,0.118604474,1.9140389666666666,-3.470834116666667,1.1451603883333334
227,2.270000238,-0.5184449,-0.9115776,-0.063448824,2.1029944,-3.8520029,1.776802
228,2.280000238,-0.33784490000000006,-0.9156428499999999,-0.24303247066666667,2.0042407333333334,-3.835713483333333,2.077135166666667
229,2.290000238,-0.12223709428571428,-0.9152015142857143,-0.41991563428571427,1.5677176571428573,-3.5277300857142855,2.395851942857143
230,2.300000238,0.04346507571428571,-0.9155151,-0.5161059042857143,1.1989405285714285,-3.243948,2.5105167285714285
231,2.310000238,0.22611583166666663,-0.906983835,-0.574479625,0.6417459799999999,-2.8379963333333333,2.573346766666667
232,2.320000238,0.34382667142857143,-0.9095565585714286,-0.5150735971428572,-0.1557224057142857,-2.3095262,2.566714785714286
233,2.330000238,0.44895914,-0.9137729,-0.2891937,-0.9888599166666667,-1.7158699666666666,2.4817196666666668
234,2.340000238,0.33726271142857145,-0.9181633571428571,-0.21366664285714285,-1.3304689571428572,-1.4121043,2.4735169428571426
235,2.350000238,0.1933751,-0.9198707666666667,-0.18400464666666663,-1.5237584833333333,-1.1276239833333332,2.6230290999999997
236,2.360000238,0.0018729311428571402,-0.87496392,-0.12275541857142858,-1.6238502285714287,-1.0147481999999999,2.9627182857142853
237,2.370000238,0.0018598646,-0.7754111,-0.21425031,-1.6983736285714284,-1.2094557428571429,3.441622471428571
238,2.380000238,0.06119259,-0.7385492,-0.32090285,-1.8603354,-1.4623684,3.856126
239,2.390000238,0.4326863871428571,-0.62957072,-0.6217044071428572,-2.506437342857143,-1.7964145428571427,4.362954828571429
240,2.400000238,1.1022682028571429,-0.4842138114285714,-0.7873237714285715,-3.069638342857143,-1.9704186714285714,4.551095757142858
241,2.410000238,1.4077447666666665,-0.40396666666666664,-0.7867125333333332,-3.6456381666666666,-2.0903193,4.473081666666666
242,2.420000238,1.5044083142857143,-0.2079346062857143,-0.5840541114285714,-4.5533864714285714,-2.3826533714285714,4.331888928571429
243,2.430000238,1.5712705333333332,0.0038416880000000007,-0.14308762333333333,-5.439238733333333,-2.759807933333333,4.387970533333333
244,2.440000238,1.8383956,0.0007273942857142858,0.2945119714285714,-5.894174271428571,-3.0167127857142857,4.563137957142857
245,2.450000238,2.1417663,-0.07727585599999999,0.6030636766666667,-5.968843266666667,-2.8925654166666668,4.5044384
246,2.460000238,2.1202718571428574,-0.017501023571428572,0.7775845971428571,-5.9193063142857145,-2.615298985714286,4.435208971428572
247,2.470000238,1.9212097142857143,0.23183407242857143,1.0068314142857142,-5.659957999999999,-2.1538475,4.644118999999999
248,2.480000238,2.106210266666667,0.4339684033333333,1.1643107666666666,-5.340281083333333,-2.182353583333333,4.946488416666667
249,2.490000238,2.4022785142857144,0.5651723757142857,1.2799222571428572,-4.860097342857143,-2.455082442857143,5.149202514285713
250,2.500000238,2.758870333333333,0.6633313833333333,1.4553389333333335,-4.198684166666666,-2.5965080833333336,5.132796766666666
251,2.510000238,3.056641642857143,0.6992306571428573,1.7223914,-3.7555325999999996,-2.4945256285714286,4.970136742857143
252,2.520000238,3.0545378500000004,0.7070534500000001,1.81449615,-2.4915441333333335,-2.0015427999999997,4.395707666666667
253,2.530000238,2.8992372000000004,0.6733842457142858,1.5385741571428573,-1.2105683428571428,-1.4639391,3.768164
254,2.540000238,2.3936764142857143,0.7629147242857143,1.0935742714285717,-0.6995509857142858,-1.3370573714285714,3.418584785714286
255,2.550000238,1.6965319,1.1674461,0.48396116,-0.53357506,-1.3401989,3.611787
256,2.560000238,1.6831513,1.3822671,0.18462314,-0.9629134085714287,-1.213491757142857,4.3050115714285715
257,2.570000238,2.320806,1.4237112000000003,0.16912572,-1.611720466666667,-0.9876127333333334,5.017142916666667
258,2.580000238,2.722615285714286,1.3428266285714285,0.31643397,-2.183560742857143,-0.5688078714285715,5.195801414285714
259,2.590000238,3.116812916666666,1.2699978833333334,0.6399306283333334,-2.549371133333333,-0.03385112,4.801106716666666
260,2.600000238,3.4497397714285714,1.2957245428571427,0.9064030857142856,-2.5188287857142853,0.2785245271428572,4.250558742857143
261,2.610000238,3.704201314285714,1.2517149857142855,1.0944889857142857,-2.2322540714285712,0.5612595471428571,3.2379486285714285
262,2.620000238,3.2861369000000002,1.2478624,1.0024365499999999,-1.6544797500000001,0.58045761,1.275220065
263,2.630000238,2.055181,1.2638890285714286,0.5314726428571428,-1.0917149285714287,0.2820150885714286,-0.9171872057142857
264,2.640000238,0.85700125,1.0974115,0.00219525,-1.0637906,0.22372282,-1.8285713
265,2.650000238,0.3633313042857143,0.9482652142857143,-0.07832338714285715,-1.2208655428571429,0.36404314000000004,-1.9919291857142858
266,2.660000238,0.08907023833333333,0.79019345,-0.046593166666666665,-1.32849095,0.5330151433333333,-2.0517342500000004
267,2.670000238,-0.11231491000000002,0.6551166328571428,-0.002870376571428572,-1.293469057142857,0.7129242,-2.0362593142857146
268,2.680000238,-0.29535258571428574,0.5789885085714285,0.03853447928571429,-1.1383139142857144,0.7494005285714286,-1.9793632714285714
269,2.690000238,-0.459417055,0.5742205,0.046090087499999995,-0.8719844933333333,0.5014547133333332,-1.7968071666666667
270,2.700000238,-0.46485724857142857,0.5901738171428571,0.05776904714285714,-0.6543483257142857,0.203477588,-1.6121567857142856
271,2.710000238,-0.40512524666666666,0.60484221,0.09973142333333333,-0.41018394533333336,-0.08332975066666667,-1.4575833666666667
272,2.720000238,-0.2629857314285714,0.6327851571428571,0.17376013,0.05667790228571428,-0.47473740000000003,-1.2809030714285714
273,2.730000238,-0.10847178166666666,0.64962125,0.10442174333333333,0.48979767999999996,-0.5732292583333333,-1.2393072666666667
274,2.740000238,0.08156399,0.6406950800000001,0.01669958085714286,0.6821854942857143,-0.43983185,-1.272874757142857
275,2.750000238,0.2307103171428571,0.6469323428571429,-0.027318667857142858,0.7661333571428572,-0.15901663,-1.3887611857142856
276,2.760000238,0.3633037316666667,0.6818029833333333,-0.05852475583333333,0.76875128,0.04861325833333333,-1.5211114666666667
277,2.770000238,0.5399618357142858,0.6871742428571428,-0.04144405542857143,0.6917845428571429,0.31377913999999996,-1.6702745285714287
278,2.780000238,0.7610301666666667,0.68904428,0.025550274333333334,0.5940489666666666,0.5700732216666666,-1.847303916666667
279,2.790000238,0.9302981285714286,0.7214445242857143,0.21316138071428573,0.6081857428571428,0.6296744700000001,-1.9989104857142856
280,2.800000238,1.1551131000000001,0.84262535,0.455148505,0.6923954,0.584122725,-2.1364384
281,2.810000238,1.290929,0.94048166,0.57570434,0.7675296000000001,0.5242597,-2.221957
282,2.820000238,2.2818230857142856,1.1504939514285717,0.6552037314285715,0.9132166714285714,0.6677215,-2.6963233428571427
283,2.830000238,2.4469721,1.185496,0.66845363,0.9374978500000001,0.6916318,-2.7753844
284,2.840000238,2.438186714285714,1.2834982285714287,0.6356468399999999,0.7877311894285715,0.8940840571428571,-2.9755677714285715
285,2.850000238,2.3854744,1.8715116,0.43880610000000003,-0.110868774,2.1087976,-4.176668
286,2.860000238,2.4642290714285715,1.7661918857142858,1.1884186285714284,-0.1611327822857143,1.9904677,-4.069333442857143
287,2.870000238,2.7046853,1.4545411833333333,2.5804044999999998,0.6148177566666667,1.3592879166666665,-3.7999790333333334
288,2.880000238,2.863777785714286,1.2587886428571429,2.6103744285714288,1.9991504,1.0239327,-3.7258627
289,2.890000238,2.943937033333333,1.08158245,2.31736075,2.8665533999999995,1.1379575333333334,-3.80323695
290,2.900000238,2.9250575142857147,0.8606381571428571,1.9727502,3.568853285714286,1.3771769285714286,-3.9504802999999997
291,2.910000238,2.778001971428572,0.6809499571428572,1.6718005142857142,4.075682142857143,1.5251765285714285,-4.0820741571428565
292,2.920000238,2.5700192714285715,0.5086272142857143,1.2733451857142857,4.502402571428571,1.4888748142857142,-4.134956142857143
293,2.930000238,2.5272815,0.47069818,1.1697329,4.656336,1.427092,-4.130244
294,2.940000238,2.4242877999999997,0.2784004,0.6504038,4.6563360000000005,1.427092,-4.130244
295,2.950000238,2.4242878,0.2784004,0.6504038,4.656336,1.427092,-4.130244
296,2.960000238,2.285494857142857,0.22327958571428572,0.50481168,4.468195057142856,1.3249932142857141,-4.256798357142857
297,2.970000238,1.3946894,-0.12264653428571427,-0.36103588714285717,3.1164772857142857,1.0689608714285714,-4.908615857142856
298,2.980000238,0.8907024,-0.2577792466666667,-0.21866113666666667,2.1669298,1.4898055,-4.790519
299,2.990000238,0.6499682428571428,-0.37094934571428567,-0.014674200000000007,1.7335191285714286,1.8234445142857143,-4.541300285714286
300,3.000000238,0.463609365,-0.522576215,0.1945083075,1.6301986499999999,2.0495453,-4.3196062500000005
301,3.010000238,0.29503465,-0.7515987257142857,0.43694625000000004,1.9192165571428572,2.247372457142857,-3.9567631428571426
302,3.020000238,0.10607326,-1.0004243,0.53131145,2.60205655,2.135878283333333,-3.5853679666666665
303,3.030000238,0.008175563714285714,-1.106475757142857,0.44867597857142855,3.143005571428571,1.8981424142857144,-3.319736642857143
304,3.040000238,-0.14704254557142857,-1.2088772571428572,0.2232186,3.709522542857143,1.5703791857142857,-2.8977284714285716
305,3.050000238,-0.4159389,-1.2134855,-0.08515741,3.9546760000000005,1.29962845,-2.3944193333333335
306,3.060000238,-0.5537953628571428,-1.175199242857143,-0.25210094714285713,3.962238942857143,0.9813479285714285,-1.756316742857143
307,3.070000238,-0.5786008566666667,-1.1492795333333332,-0.3986817866666667,3.797688283333333,0.6366555666666667,-1.1425897833333334
308,3.080000238,-0.5207925914285714,-1.12551,-0.5565263728571429,3.4714668857142854,0.2814915085714286,-0.5669099
309,3.090000238,-0.4700985666666666,-1.0914458333333334,-0.6616849466666667,3.0876802,0.07671223479999999,-0.178061982
310,3.100000238,-0.3850311714285714,-1.0519386142857143,-0.7196761428571429,2.563573257142857,-0.09810643262857144,0.1865265715714286
311,3.110000238,-0.1349381857142857,-1.0594739,-0.6646685785714286,1.5935477714285713,-0.30963410571428573,0.5373274085714286
312,3.120000238,0.06948576,-1.1304928,-0.5473795,0.70155805,-0.4237753,0.64780354
313,3.130000238,0.06781319142857144,-1.1516351714285715,-0.4484364314285714,0.31497901428571434,-0.4342469428571429,0.6399497971428572
314,3.140000238,0.0033233648000000004,-1.1243949,-0.32334206,-0.2843494,-0.42011020000000004,0.6649072
315,3.150000238,-0.08243947791428571,-1.1123733285714286,-0.28429358857142856,-0.6058296057142858,-0.39393104285714287,0.7833679685714285
316,3.160000238,-0.2767895358333334,-1.0660733666666666,-0.22149159166666665,-0.9475258566666666,-0.33866389166666666,1.0718842383333334
317,3.170000238,-0.40293293142857145,-0.9906108857142858,-0.12275542428571429,-1.2480918428571428,-0.25099277428571426,1.5455525714285714
318,3.180000238,-0.3960248571428572,-0.95126193,-0.08276615571428571,-1.416336642857143,-0.16756849142857141,2.0085748857142858
319,3.190000238,-0.345523215,-0.9285602700000001,-0.09517323500000001,-1.57629135,-0.050547609,2.5318092
320,3.200000238,-0.26490657285714286,-0.8710046571428572,-0.12292529571428572,-1.7599818,0.15670413628571428,3.191349642857143
321,3.210000238,0.035073183333333334,-0.6760048866666667,-0.05904816466666667,-1.8770318,0.07141822454,3.858976766666667
322,3.220000238,0.43252087,-0.3669072871428571,-0.0742464917142857,-1.8980333571428571,-0.3998649668842857,4.3882613428571435
323,3.230000238,0.8343169,-0.018385218,-0.08369391,-1.9096103,-0.82164048,4.6363815
324,3.240000238,1.1160189,0.20475498057142857,-0.027222843357142857,-1.8819768000000001,-1.4380871471428571,4.86786342857143
325,3.250000238,1.3632111285714286,0.5663527485714285,-0.1995935338142857,-1.9531841,-1.7995560000000002,4.919
326,3.260000238,1.4238635666666666,0.7996605033333334,-0.4263460066666666,-2.353289016666667,-1.695712,4.996374166666667
327,3.270000238,1.679335757142857,0.9287693485714286,-0.687466107142857,-3.041539285714286,-1.3520667714285715,5.122674000000001
328,3.280000238,1.9672691333333336,0.9317819833333334,-0.6523703916666667,-3.968165666666667,-0.7642717333333332,5.176777666666667
329,3.290000238,2.0590878714285714,0.9896483028571429,-0.3811938485714285,-4.8404846571428575,-0.2529125857142857,5.155136214285714
330,3.300000238,2.1074298666666667,1.0591776333333334,0.08273856,-5.4968617,-0.114075725,5.1303535
331,3.310000238,2.0200264,1.2042993285714285,1.9644918285714288,-5.257845714285715,-0.8037222999999999,5.2877775
332,3.320000238,1.9529842285714287,1.2563537714285715,2.6626292142857144,-3.7801628000000003,-1.722916457142857,5.783087357142857
333,3.330000238,2.351351466666667,1.2310627166666668,2.9543087500000005,-2.280191,-2.0801385,6.199438099999999
334,3.340000238,2.9221738285714283,1.1254009571428572,2.749829571428571,0.08163537428571428,-2.1482624571428572,6.379077942857143
335,3.350000238,3.1212797,1.0320115,2.048778,1.7639487450000002,-1.9762944166666667,6.016718266666667
336,3.360000238,3.136960185714286,1.0160959857142857,1.3871454857142855,2.9667324857142856,-1.7573202428571426,5.381673428571429
337,3.370000238,3.206681,1.027377,0.6674779699999999,3.5309515833333336,-1.6020487166666666,4.504031166666667
338,3.380000238,3.1472481428571433,1.0174244285714287,0.2248781057142857,3.5868296285714285,-1.2735292428571428,3.2468495
339,3.390000238,2.7887864285714286,0.9871003314285715,-0.23412952,3.311075857142857,-0.8779402142857143,2.2386025
340,3.400000238,1.5035023999999997,0.9717335,-0.5503065,2.1909564,-0.07314896,1.1134218
341,3.410000238,1.0538942628571428,1.0542819,-0.48852587142857146,1.7424199714285715,0.0027706292857142853,1.2094120857142856
342,3.420000238,0.5084442766666667,1.2404636166666667,-0.4659977166666667,1.0702552833333334,0.0769158525,1.8871616166666667
343,3.430000238,0.6782407857142856,1.2313218428571429,-0.5230488371428571,0.5256776957142858,0.25496328,2.543851514285714
344,3.440000238,0.9243091285714284,1.1746373285714284,-0.5506549571428571,-0.1335573942857143,0.5818538242857143,2.9901191285714286
345,3.450000238,1.1588988833333334,1.1063197,-0.43711900833333334,-0.8491795033333333,1.0744293883333336,3.0565270166666667
346,3.460000238,1.1898865,1.0568908,-0.15202107,-1.4144168,1.590799,2.7834783
347,3.470000238,1.2099181,1.0766788,0.17400406,-1.5813817166666666,1.8086678333333335,2.45871105
348,3.480000238,1.263318442857143,1.0999553714285715,0.3744164485714286,-1.4933033857142857,1.8662038285714286,1.9462684
349,3.490000238,1.226674357142857,1.1196429142857143,0.6875924028571428,-1.2081249857142857,1.7496192142857143,1.2643883571428571
350,3.500000238,0.9496692666666666,1.1338568333333334,0.8406587999999999,-0.4639384933333333,1.2185893333333333,0.25609770266666665
351,3.510000238,0.589359292857143,1.0577228142857142,0.7042615142857143,0.2626206914285714,0.6865705285714286,-0.6292163094285714
352,3.520000238,0.43749505000000005,0.9822219,0.6174446,0.7186618,0.406977,-1.1859599
353,3.530000238,0.3184027400000001,0.8711789,0.56911856,0.9910559714285714,0.30540181714285713,-1.4938269285714285
354,3.540000238,0.22667989833333335,0.7721385666666666,0.5595651766666667,1.2706131666666667,0.23349636166666668,-1.7711515999999998
355,3.550000238,0.13722490714285715,0.662795637142857,0.5472009571428571,1.534208342857143,0.23401995285714286,-1.9535331571428571
356,3.560000238,0.10601228785714287,0.5762226171428572,0.5100689857142857,1.7701698857142856,0.4026137885714286,-2.0409716571428573
357,3.570000238,0.08851126416666666,0.474565275,0.41435344999999996,1.9610742666666667,0.7818335666666667,-2.0759644666666666
358,3.580000238,0.06062200585714285,0.44416789714285715,0.3793296242857143,2.0049097714285713,1.0063053714285715,-2.0575516857142855
359,3.590000238,0.0257941885,0.45177943,0.500196865,2.1156186,1.2996284333333332,-1.8053590333333334
360,3.600000238,0.2587955985714286,0.5052167571428571,0.9088770857142858,2.393932242857143,1.3471581285714282,-1.5360627
361,3.610000238,0.87630117,0.5531725,1.269068,3.1567060500000004,1.0180278333333332,-1.4647099500000003
362,3.620000238,1.4950480242857143,0.5935495,1.1968860285714287,3.8138906000000006,0.6926789857142858,-1.7680101285714287
363,3.630000238,1.896465242857143,0.6224666571428571,0.8501584714285714,4.418105542857143,0.5698114428571429,-2.5959698714285717
364,3.640000238,1.6334082833333332,0.9192202666666667,0.40553178333333334,4.243606716666667,0.8307014166666667,-3.31802045
365,3.650000238,1.1642752,1.4947214,0.057594825,3.6215606,1.2780452,-3.2775009
366,3.660000238,1.2846582833333333,1.7692800666666664,0.26240861249999997,2.6452231833333335,1.8787117,-2.5679000666666667
367,3.670000238,2.0429763857142857,2.0096555714285715,1.1986675585714284,2.2642581571428573,2.098674885714286,-2.0503960714285716
368,3.680000238,2.9206735,2.13277685,2.0622088499999998,2.2593713,2.1295663499999997,-1.7680974
369,3.690000238,4.1457906428571425,1.800649442857143,2.3340386285714283,3.2070572,1.9515479714285713,-2.518654142857143
370,3.700000238,4.590825214285714,1.3547044428571429,1.8974016,4.3783131285714285,1.769340957142857,-4.2757998285714285
371,3.710000238,3.7202983666666665,1.21504545,1.0384650666666666,4.439281666666667,1.83717405,-5.23437525
372,3.720000238,2.997065085714286,1.1412294857142857,0.49970686714285717,3.9833568571428573,1.9991940142857143,-5.547736571428572
373,3.730000238,2.3661899333333336,0.9960133666666667,0.10660683333333333,3.046142533333333,2.3221867166666663,-5.51966675
374,3.740000238,2.1306252285714287,0.8428409828571429,0.08660347971428571,2.3955029142857143,2.550352742857143,-5.3922325
375,3.750000238,1.8876203,0.5743322766666666,0.19712532666666668,1.3705884666666666,2.8813157,-5.1446066833333335
376,3.760000238,1.4547582714285714,0.19815616,0.4298029471428571,0.9241028,3.0081392,-4.971096757142857
377,3.770000238,1.2716901,0.09120306142857144,0.5002251857142858,0.8321048642857143,3.0060448571428573,-4.882262142857143
378,3.780000238,1.063354735,-0.006052179999999997,0.53873573,0.8225058333333334,2.9586896333333335,-4.770971666666667
379,3.790000238,0.5136275,-0.32416525,0.6174446,0.9604700399999999,2.741111585714286,-4.270455057142857
380,3.800000238,0.39046994,-0.41282897,0.6864323333333333,1.1618823666666664,2.5563448333333336,-3.8704300666666662
381,3.810000238,0.29570104571428574,-0.5271649271428571,0.7581583428571428,1.6682456428571428,2.186985885714286,-3.311533971428571
382,3.820000238,0.26910108,-0.73562217,0.73312205,2.4389603,1.6714308000000002,-2.7118564
383,3.830000238,0.27275983,-0.8491087628571429,0.6445715571428572,2.829902585714286,1.4393088714285713,-2.480607042857143
384,3.840000238,0.19475004714285715,-1.0070361428571428,0.3811328371428572,3.508815642857143,1.1349324142857145,-1.9964669857142856
385,3.850000238,0.14468831666666668,-1.0221327666666666,0.25262651666666663,3.7363999999999997,1.0589546333333333,-1.7571021
386,3.860000238,0.04674488857142857,-0.9896221714285715,-0.038861155714285715,3.7810790714285716,1.0036875,-1.472709157142857
387,3.870000238,-0.025087845833333334,-0.97555995,-0.24937431,3.6500668333333337,0.973436,-1.1896250333333331
388,3.880000238,-0.09362479371428571,-0.9558615142857142,-0.36690729714285714,3.321198342857143,0.9668621428571429,-0.8833287571428572
389,3.890000238,-0.11650069,-0.9486833999999998,-0.4007246,3.0017543,0.9229393233333334,-0.6333468
390,3.900000238,-0.1626706442857143,-0.8645060200000001,-0.3990520285714286,2.5084223571428574,0.8110088214285714,-0.2590428657142857
391,3.910000238,-0.15723479,-0.8500801,-0.39340709999999995,2.35222,0.74905145,-0.14385453
392,3.920000238,-0.054358574285714285,-0.8188021,-0.38784491,1.8478347714285714,0.5619576871428571,0.16820115285714285
393,3.930000238,0.04829550500000001,-0.7825659666666667,-0.32476997,1.2097320666666667,0.4118637666666667,0.44378056166666663
394,3.940000238,0.10414370357142856,-0.7547957857142856,-0.28234227285714286,0.8328465857142857,0.32512345,0.5446576214285714
395,3.950000238,0.11235411333333334,-0.7333456333333332,-0.26729203333333335,0.6225551533333333,0.29783894666666666,0.57775972
396,3.960000238,0.07940794728571429,-0.6969004,-0.2585691014285714,0.39124766,0.28725094,0.6111527
397,3.970000238,-0.02444828942857143,-0.5984669714285714,-0.2317034157142857,0.15092290142857143,0.2940575157142857,0.7782412142857142
398,3.980000238,0.0010722166666666674,-0.5950601166666667,-0.247575435,-0.3169279233333333,0.3291957833333334,1.2054561666666668
399,3.990000238,-0.0115555525,-0.6277500399999999,-0.27306473,-0.5695278085714286,0.4731230142857143,1.5982600142857142
400,4.000000238,-0.025920503214285715,-0.5912148114285715,-0.2534032957142857,-0.7126406000000001,0.5973868,1.8083914714285714
401,4.010000238,-0.032705163333333336,-0.46513893333333334,-0.20376187999999998,-0.9762357666666667,0.8182808133333334,2.1388307666666666
402,4.020000238,0.18394366,-0.36346635,-0.2757478,-1.4351857,0.9701782,2.504932
403,4.030000238,0.2217507516666667,-0.22882940833333332,-0.2769928,-1.7487538666666669,0.9050211166666666,2.66375225
404,4.040000238,0.30504829000000006,-0.10665256285714285,-0.24837251999999999,-1.9448067571428571,0.7439901571428571,2.8232706999999997
405,4.050000238,0.7897463133333332,0.17976149666666666,-0.168942785,-2.220938783333333,0.227795125,2.9730445833333334
406,4.060000238,1.042147,0.39044959714285715,-0.08819765571428571,-2.3224848000000002,-0.23022398571428573,2.9262419142857143
407,4.070000238,1.346093314285714,0.6079274457142858,-0.009064120285714286,-2.362626185714286,-0.6113926857142857,2.789586657142857
408,4.080000238,1.7316762666666667,0.9620479999999999,-0.066863662,-2.524122633333333,-1.1589299333333332,2.299279933333333
409,4.090000238,1.6186398,1.2132850142857143,-0.36205945285714286,-3.0942467714285717,-1.2456047857142856,1.8125801999999998
410,4.100000238,1.4887302,1.2887337,-0.44549856000000004,-3.6244621500000007,-1.04447245,1.72304745
411,4.110000238,1.1288376,1.412308,-0.21772176571428573,-4.9623704,-0.39201123,1.8036792
412,4.120000238,0.7243584571428572,1.7593926857142859,0.9074745442857143,-5.5192884285714285,-0.8765221857142856,2.9737134000000003
413,4.130000238,0.9839294,1.8173316999999998,1.7095510999999999,-5.232365,-1.6065283,3.8585694
414,4.140000238,1.6843362,1.7951353,2.3645892,-4.390312142857143,-2.3447809,4.472209114285714
415,4.150000238,2.039006283333333,1.7916797166666667,2.5557590333333335,-3.5401652,-2.8050106000000006,4.7455196
416,4.160000238,2.8667787571428573,1.705635257142857,2.5960835714285717,-1.3672942571428572,-3.0940286285714285,4.373775371428571
417,4.170000238,2.9546845666666663,1.6826285666666667,2.2737912666666666,0.25523236666666665,-2.9243294666666664,3.6643199166666665
418,4.180000238,2.744511085714286,1.6775412,1.7013667285714287,1.06518674,-2.5980206714285714,3.1026895
419,4.190000238,2.3836757,1.6320463857142857,0.8880221714285713,1.7590001,-1.758716457142857,2.2497721428571427
420,4.200000238,2.0160017,1.5169178,0.19915795,1.6228684,-0.81105244,1.6582975
421,4.210000238,1.8638152,1.4287158000000002,0.0021734714285714246,1.3043552571428572,-0.23947393857142857,1.3441475714285716
422,4.220000238,1.5837815,1.2519023,-0.22818404,0.7176691666666666,0.4931064686666667,0.8652142666666668
423,4.230000238,1.125888842857143,1.0824499571428572,-0.29260418857142856,0.021946864285714265,0.9525508628571429,0.43492326428571426
424,4.240000238,0.7150264583333333,0.9539479833333333,-0.18824269666666668,-0.6156322316666667,1.1173923666666667,0.18824276333333334
425,4.250000238,0.43194592,0.8476104285714285,0.033503693571428565,-0.865876002857143,0.9288150857142857,0.20520104142857143
426,4.260000238,0.15075357142857143,0.7231432571428572,0.3445671592857143,-0.8944985571428571,0.3992977742857143,0.3626251014285714
427,4.270000238,-0.0010925433333333328,0.6314697666666667,0.5438173033333333,-0.6526903333333333,-0.147468705,0.5665608133333334
428,4.280000238,-0.05948953428571428,0.5706386857142857,0.6442884971428572,-0.2941229642857143,-0.5480390571428572,0.7423320857142857
429,4.290000238,-0.07939488,0.5075601,0.6767468,0.34482327,-0.8660286999999999,0.92894596
430,4.300000238,-0.09451771499999999,0.4750887,0.59256506,0.7553126528571428,-0.8890663857142858,0.9645496514285714
431,4.310000238,-0.17323165249999997,0.46878753333333334,0.405257385,1.2127608416666666,-0.7666642166666667,0.9521581499999999
432,4.320000238,-0.21531744,0.4683635628571428,0.27805194714285714,1.371199442857143,-0.6220388657142858,0.9107950942857144
433,4.330000238,-0.25611251142857144,0.4678757342857143,0.16603320428571428,1.3427513285714288,-0.4859071685714285,0.8647197228571429
434,4.340000238,-0.274756895,0.47191779,0.14607559,1.2946398333333333,-0.4135944866666666,0.8527936533333333
435,4.350000238,-0.29621936428571427,0.48076848714285714,0.15605875142857142,1.1399501,-0.21695985,0.8465688257142857
436,4.360000238,-0.245471635,0.4987638650000001,0.2328337,1.0743276333333334,-0.11305764233333333,0.84912858
437,4.370000238,-0.14472970428571427,0.5137277,0.34624406571428573,1.0020730714285713,0.09265244357142856,0.8332611285714285
438,4.380000238,-0.059790074,0.5064116433333333,0.43554369333333337,1.0185368833333335,0.32573431666666663,0.7705838333333332
439,4.390000238,0.03237994,0.48801628,0.6108588,1.2416997285714284,0.9375414657142856,0.5680443228571429
440,4.400000238,0.09907590666666667,0.47886939666666667,0.6789776333333334,1.4102935499999998,1.16137338,0.47859883
441,4.410000238,0.14797901428571428,0.4541946057142857,0.7055159285714285,1.7570803142857143,1.4785776428571429,0.31079035714285713
442,4.420000238,0.19191015714285714,0.48439670285714287,0.7629670028571428,2.3480314142857144,1.5450727285714285,0.17134264999999999
443,4.430000238,0.29813732666666665,0.5508349666666666,0.79811567,2.9030006333333334,1.2686788166666667,0.179080045
444,4.440000238,0.34011132,0.5693015,0.79608303,2.9789493,1.2169604,0.18600298
445,4.450000238,0.34011131999999994,0.5693015,0.79608303,2.9789493,1.2169604,0.18600298
446,4.460000238,0.7573351314285715,0.7022317142857143,0.55434419,3.0871565714285714,1.2452339285714287,0.13486634228571429
447,4.470000238,1.8352987142857144,1.0103159142857143,0.07092748842857143,2.937586314285714,1.6876618857142858,-0.3955236054285714
448,4.480000238,2.1929328,1.16073845,0.0106256205,2.4597292666666664,2.3128203333333333,-1.1627477666666666
449,4.490000238,1.9634856,1.4305276714285715,0.2816061522857143,1.7139719857142859,3.0817898714285716,-2.190367371428571
450,4.500000238,1.2616285,1.9210570999999999,1.2702875,1.4721927833333333,2.619465866666667,-2.1901927666666667
451,4.510000238,1.327006857142857,1.9855643857142857,1.4674244285714286,1.751320942857143,1.6572940714285715,-1.4880676285714287
452,4.520000238,2.360254616666667,1.8614857166666667,1.9060563666666666,2.3336909833333332,0.8993198833333333,-0.9937466916666665
453,4.530000238,2.9518708142857144,1.7358417428571429,1.9117709428571428,2.712969,0.6502687257142857,-0.9449370857142857
454,4.540000238,3.4566855000000003,1.6024208,1.7205373,3.364801333333333,0.6211807566666666,-1.2486735833333333
455,4.550000238,3.611927,1.4333109857142858,1.3106732,3.5899711714285716,1.0494137857142856,-1.9250852571428572
456,4.560000238,3.62012,1.4102652,1.2541586,3.6569898000000003,1.2096303,-2.174311
457,4.570000238,3.62012,1.4102652000000002,1.2541586,3.6569898,1.2096303,-2.174311
458,4.580000238,3.62012,1.4102652,1.2541586,3.6569898000000003,1.2096303,-2.174311
459,4.590000238,3.56167145,1.3800856,1.2014878500000001,3.638257166666667,1.2733620166666666,-2.29139005
460,4.600000238,1.7979794142857144,0.5164674442857142,0.8247475942857143,3.0435246142857144,2.2377735,-2.8884785857142856
461,4.610000238,1.6177163000000003,0.3325499,0.7951073599999999,3.2794861999999996,2.1283445,-2.741177
462,4.620000238,1.4883751571428572,0.24382520714285713,0.6115600528571428,3.684739742857143,1.7607890428571429,-2.6396019714285717
463,4.630000238,1.3377914,0.13073933,0.27407086,3.8500175,1.4075449,-2.597017
464,4.640000238,1.29467415,0.05893636583333333,0.03145000333333334,3.7461735,1.2874114833333334,-2.6530114166666667
465,4.650000238,1.229928057142857,-0.020780829142857143,-0.202385498,3.4863017,1.302653514285714,-2.766309157142857
466,4.660000238,1.1241610666666666,-0.09426362666666667,-0.39446407666666666,3.14754325,1.4148749,-2.88411535
467,4.670000238,1.0216361971428571,-0.14512606285714286,-0.4924459857142857,2.5909741714285714,1.6482185714285715,-3.0385724
468,4.680000238,0.7811127,-0.26096034,-0.59790075,1.8916413,1.9402035666666666,-3.1425037000000002
469,4.690000238,0.7246372714285715,-0.2833397,-0.5947646785714286,1.6455571,2.0478872142857143,-3.140845657142857
470,4.700000238,0.3412133057142857,-0.3692114542857143,-0.3764941114285714,0.8452380714285714,2.292226142857143,-2.9811527285714283
471,4.710000238,0.19976774833333333,-0.38293900500000005,-0.16000933833333333,0.587126,2.1303807333333333,-2.7969678333333334
472,4.720000238,0.14001252428571428,-0.4129378814285714,-0.002386898285714286,0.5607141271428572,1.6908033714285715,-2.5717106714285713
473,4.730000238,0.17918219500000002,-0.4658453083333333,0.05828592616666667,0.6712193083333333,1.1294057333333334,-2.3418865833333333
474,4.740000238,0.21769126428571428,-0.49793412857142855,0.06121873371428571,0.7115061428571429,0.9857111942857143,-2.288451985714286
475,4.750000238,0.32927225499999996,-0.59236687,0.0194066215,0.87633675,0.49066305,-2.13766
476,4.760000238,0.38378110285714284,-0.6536879657142858,-0.024356822857142857,0.9474459214285714,0.2752085071428571,-2.1167166714285712
477,4.770000238,0.4051891514285714,-0.6904017857142858,-0.05241159714285715,0.9820024285714286,0.14570889399999998,-2.1355657142857143
478,4.780000238,0.34825202000000005,-0.7570258733333333,-0.17016235999999998,0.95337988,-0.102469626,-2.1834735000000003
479,4.790000238,0.19167494428571427,-0.7568864742857143,-0.23841981714285712,0.7518438799999999,-0.31923314714285717,-2.120381714285714
480,4.800000238,0.14000817,-0.7507449999999999,-0.25208786,0.7247702500000001,-0.34436515,-2.109561
481,4.810000238,0.14000817,-0.750745,-0.25208786,0.72477025,-0.34436515000000006,-2.109561
482,4.820000238,0.14000817,-0.7507449999999999,-0.25208786,0.7247702500000001,-0.34436515,-2.109561
483,4.830000238,0.14000817,-0.750745,-0.25208786,0.72477025,-0.34436515000000006,-2.109561
484,4.840000238,-0.11541179000000001,-0.6990521314285714,-0.39974022571428575,-0.2742268071428572,-0.7890619142857143,-1.1353468714285715
485,4.850000238,-0.25235213,-0.6463893533333334,-0.41023736,-0.9251282000000001,-0.8544226,-0.390636802
486,4.860000238,-0.2486294957142857,-0.5717755071428572,-0.24181289142857146,-1.1847382571428573,-0.7820808585714286,0.12404562628571429
487,4.870000238,-0.19084446333333335,-0.45352238333333333,-0.14446982,-1.2596688666666667,-0.9535834900000001,0.6710157066666667
488,4.880000238,-0.20698941857142858,-0.2832395128571429,-0.14369305571428573,-1.1617005714285715,-1.2701915,1.1732630657142857
489,4.890000238,-0.13990653333333333,-0.15064903066666668,-0.21003258333333333,-1.0705097833333335,-1.5379098000000002,1.6521890833333333
490,4.900000238,0.025123415714285717,0.07372381485714286,-0.4518904828571429,-1.0997431714285715,-1.6810517428571428,2.0782113714285715
491,4.910000238,0.18445690333333334,0.311618805,-0.6617662466666667,-1.3358211333333332,-1.6574322666666665,2.5273296
492,4.920000238,0.30385484428571424,0.5229922085714286,-0.7443334885714286,-1.9371274857142855,-1.585934042857143,3.0506803714285717
493,4.930000238,0.4235918033333333,0.7103463333333334,-0.7158649666666667,-2.5721758666666665,-1.7026349000000003,3.4818803333333332
494,4.940000238,0.6493323228571428,0.9277239428571429,-0.4893796285714286,-3.028624228571428,-1.8897868571428573,3.834833757142857
495,4.950000238,1.3530101428571428,1.2682795599999999,0.020201517142857145,-3.460580528571428,-2.3259318,4.366445285714286
496,4.960000238,1.9164075,1.4721438000000002,0.327153235,-3.52428315,-2.5734993999999998,4.4620865
497,4.970000238,2.6793027,1.6594566,0.52594537,-3.3422508,-2.5337944,3.9575267
498,4.980000238,2.81271995,1.6736851000000001,0.49441401166666665,-3.2860529333333335,-2.1265629333333336,3.4737356333333334
499,4.990000238,2.7084550571428574,1.6505885142857142,0.4727584028571429,-3.2684255714285717,-1.0344916642857143,2.3626916714285713
500,5.000000238,2.3049363,1.6101397000000002,0.518353415,-3.2675237833333335,-0.4368066916666667,1.7839284666666668
501,5.010000238,1.9996288,1.5891476,0.57546043,-3.2665057,-0.38834614,1.7377077
502,5.020000238,1.9996288,1.5891476,0.57546043,-3.2665057,-0.38834614,1.7377077
503,5.030000238,1.0359852333333335,1.1953034999999999,0.706677425,-2.71837215,-0.5080722183333334,1.6147238333333334
504,5.040000238,0.6261514928571429,0.9429295857142856,0.6283249971428572,-2.406607342857143,-0.7093027571428571,1.7050710428571427
505,5.050000238,0.53373031,0.7491494066666666,0.40107016666666667,-2.30075625,-0.856866,1.93501135
506,5.060000238,0.47486654999999994,0.5860185328571428,0.2626111542857143,-2.3263245857142856,-0.9244955142857142,2.190083714285714
507,5.070000238,0.4137436514285714,0.36926807999999994,0.3403465171428572,-2.483923128571429,-0.9560850571428572,2.431106642857143
508,5.080000238,0.37038746000000006,0.21418934,0.5971995,-2.3929942,-1.3059914,2.6197712
509,5.090000238,0.37038746,0.21418934000000003,0.5971995,-2.3929942,-1.3059914,2.6197712
510,5.100000238,0.37038746000000006,0.21418934,0.5971995,-2.3929942,-1.3059914,2.6197712
511,5.110000238,0.37038746,0.21418934000000003,0.5971995,-2.3929942,-1.3059914,2.6197712
512,5.120000238,0.3361389442857143,0.06265609428571428,0.4354609357142857,-1.3053369428571426,-2.088050442857143,3.023279328571429
513,5.130000238,0.17147341000000002,0.08265726,0.23525764000000002,-1.1476802166666666,-1.9127664166666667,3.1180189166666668
514,5.140000238,0.05783438214285714,0.1414150385714286,0.1529793142857143,-1.1990494999999999,-1.8274805,3.199377942857143
515,5.150000238,0.0050409445333333336,0.20380253666666667,0.10722170133333332,-1.35699715,-1.75862925,3.3143045
516,5.160000238,0.0309817736,0.21434613,0.11241509142857144,-1.5777748285714286,-1.6395140285714285,3.4166651285714287
517,5.170000238,0.14074427571428572,0.19551227857142855,0.17531074857142856,-1.8430570571428573,-1.2575599714285715,3.4906649571428576
518,5.180000238,0.27739424,0.22300080999999997,0.27333912,-2.085127,-0.48486,3.4627404
519,5.190000238,0.5162148042857143,0.32148216,0.3226669271428571,-2.1716928857142856,-0.0464461942857143,3.325212514285714
520,5.200000238,0.6953302149999999,0.37991544,0.34826729000000006,-2.24007875,0.33591509999999997,3.1666831166666665
521,5.210000238,0.9345449714285714,0.47194825428571424,0.3926056585714286,-2.239584257142857,0.8623199857142857,2.2593712428571426
522,5.220000238,0.8957433666666667,0.5384664,0.42359179333333336,-2.2138122333333334,1.0170097833333334,1.8244480333333335
523,5.230000238,0.8310459,0.5889673028571429,0.4579492,-2.1579051285714286,1.0832722142857143,1.451831157142857
524,5.240000238,0.7034425857142858,0.6638497028571428,0.5748201142857142,-2.009556557142857,0.9624989571428572,1.2158696142857142
525,5.250000238,0.6400678,0.696687,0.6404032,-1.9116465,0.8687774999999999,1.1012049
526,5.260000238,0.7582454499999999,0.7303605685714285,0.6123615014285714,-1.6990716857142858,0.6886648285714285,1.0446579
527,5.270000238,1.371177525,0.8639325266666668,0.3280831533333333,-1.46450635,0.5106174083333334,0.8133685666666667
528,5.280000238,1.7532250857142857,0.9032147142857143,0.16878597157142858,-1.7465432142857142,0.7017544271428572,0.5050397857142858
529,5.290000238,2.5102248571428567,0.9131281714285714,-0.008110230142857142,-2.557050214285714,1.2609414242857144,-0.35625485714285715
530,5.300000238,2.57389,0.8380773333333332,0.5233232116666667,-3.1589966,1.7398456333333332,-1.1884033333333333
531,5.310000238,2.2033254285714285,0.9282553428571428,1.6126638171428573,-3.1328173571428573,1.5729971,-1.5831851857142856
532,5.320000238,2.0960775333333337,1.0266402333333333,2.5420842333333336,-2.1498769,0.68022932,-1.2861389
533,5.330000238,2.2675626285714285,0.9891648857142857,2.7200802285714287,-0.7861167857142857,-0.21120043428571428,-0.9040975571428572
534,5.340000238,2.9903066000000003,0.8649031316666668,2.2312173833333335,0.8743260333333334,-0.7365290999999999,-0.8426637666666666
535,5.350000238,3.1760172,0.8506637628571428,2.0145947,1.5190244,-0.8953494,-0.8573241000000001
536,5.360000238,3.6987218000000004,0.9085895614285714,0.8446660142857142,2.2586732714285715,-0.21922871142857145,-1.7238545285714284
537,5.370000238,3.7770190000000006,0.91535825,0.65089166,2.2398243,-0.071927264,-1.8969861000000001
538,5.380000238,3.777019,0.91535825,0.65089166,2.2398243,-0.071927264,-1.8969861
539,5.390000238,3.7770190000000006,0.91535825,0.65089166,2.2398243,-0.071927264,-1.8969861000000001
540,5.400000238,3.777019,0.91535825,0.65089166,2.2398243,-0.071927264,-1.8969861
541,5.410000238,3.777019,0.91535825,0.65089166,2.2398243,-0.071927264,-1.8969861
542,5.420000238,3.7770190000000006,0.91535825,0.65089166,2.2398243,-0.071927264,-1.8969861000000001
543,5.430000238,3.777019,0.91535825,0.65089166,2.2398243,-0.071927264,-1.8969861
544,5.440000238,3.7770190000000006,0.91535825,0.65089166,2.2398243,-0.071927264,-1.8969861000000001
545,5.450000238,3.777019,0.91535825,0.65089166,2.2398243,-0.071927264,-1.8969861
546,5.460000238,3.7770190000000006,0.91535825,0.65089166,2.2398243,-0.071927264,-1.8969861000000001
547,5.470000238,3.777019,0.91535825,0.65089166,2.2398243,-0.071927264,-1.8969861
548,5.480000238,3.777019,0.91535825,0.65089166,2.2398243,-0.071927264,-1.8969861
549,5.490000238,3.7770190000000006,0.91535825,0.65089166,2.2398243,-0.071927264,-1.8969861000000001
550,5.500000238,3.777019,0.91535825,0.65089166,2.2398243,-0.071927264,-1.8969861
551,5.510000238,3.7770190000000006,0.91535825,0.65089166,2.2398243,-0.071927264,-1.8969861000000001
552,5.520000238,3.777019,0.91535825,0.65089166,2.2398243,-0.071927264,-1.8969861
553,5.530000238,3.7770190000000006,0.91535825,0.65089166,2.2398243,-0.071927264,-1.8969861000000001
554,5.540000238,3.777019,0.91535825,0.65089166,2.2398243,-0.071927264,-1.8969861
555,5.550000238,3.777019,0.91535825,0.65089166,2.2398243,-0.071927264,-1.8969861
556,5.560000238,3.7770190000000006,0.91535825,0.65089166,2.2398243,-0.071927264,-1.8969861000000001
557,5.570000238,3.777019,0.91535825,0.65089166,2.2398243,-0.071927264,-1.8969861
558,5.580000238,3.7770190000000006,0.91535825,0.65089166,2.2398243,-0.071927264,-1.8969861000000001
559,5.590000238,3.777019,0.91535825,0.65089166,2.2398243,-0.071927264,-1.8969861
560,5.600000238,3.7770190000000006,0.91535825,0.65089166,2.2398243,-0.071927264,-1.8969861000000001
561,5.610000238,3.777019,0.91535825,0.65089166,2.2398243,-0.071927264,-1.8969861
562,5.620000238,3.7770190000000006,0.91535825,0.65089166,2.2398243,-0.071927264,-1.8969861000000001
563,5.630000238,3.777019,0.91535825,0.65089166,2.2398243,-0.071927264,-1.8969861
564,5.640000238,3.777019,0.91535825,0.65089166,2.2398243,-0.071927264,-1.8969861
565,5.650000238,3.7770190000000006,0.91535825,0.65089166,2.2398243,-0.071927264,-1.8969861000000001
566,5.660000238,3.777019,0.91535825,0.65089166,2.2398243,-0.071927264,-1.8969861
567,5.670000238,3.7770190000000006,0.91535825,0.65089166,2.2398243,-0.071927264,-1.8969861000000001
568,5.680000238,3.777019,0.91535825,0.65089166,2.2398243,-0.071927264,-1.8969861
569,5.690000238,3.886254542857143,0.8269036228571428,0.6136551614285715,1.66348988,0.33105739628571434,-2.5001541571428567
570,5.700000238,1.1901761516666667,-0.5931850183333334,0.12715680666666665,2.6500845,0.3081979066666667,-5.176574266666667
571,5.710000238,-0.08573671142857142,-0.8255751571428572,-0.35207195857142853,0.6979148148571428,-3.4474473714285714,-2.4680629285714284
572,5.720000238,0.30010389600000004,0.05948009500000001,-0.0660912555,-1.7473285833333332,-3.66874865,1.2306535833333332
573,5.730000238,1.0878858,1.0268848571428573,-0.34591301571428573,-2.675205571428571,-3.0406232857142856,3.057486914285714
574,5.740000238,1.3016766,1.1906335,-0.474052035,-3.2249680499999998,-2.695669,3.03026055
575,5.750000238,1.5254549,1.4068503,-0.29992604,-3.992541114285714,-2.1281918571428573,2.837581742857143
576,5.760000238,1.5371628714285712,1.5488883,0.31152948571428574,-4.365266942857143,-1.6985044285714286,2.4586820428571428
577,5.770000238,1.2566282,1.69479905,1.2614811233333334,-3.96676575,-1.8577901333333333,2.159192366666667
578,5.780000238,1.0696181428571427,1.6684161428571431,1.6141316857142858,-3.1942511857142857,-2.2601348571428574,2.125334014285714
579,5.790000238,0.9227825,1.5702542333333334,1.3113112833333334,-1.7452924166666666,-2.7600116166666666,2.2286253833333336
580,5.800000238,0.7894145428571429,1.4627812857142857,0.8195774285714287,-1.0726913999999999,-2.765916442857143,2.4433236571428574
581,5.810000238,0.7731853333333333,1.3012293833333335,0.47237003333333333,-0.6944315333333333,-2.6217564333333336,2.7122126666666664
582,5.820000238,0.7933215171428571,1.1942988142857143,0.26145688928571426,-0.6004192428571429,-2.436233342857143,2.9047749285714284
583,5.830000238,0.7903248314285715,1.0442465085714285,-0.04221935785714286,-0.6887303000000001,-2.1555926571428574,3.096755557142857
584,5.840000238,0.6311953533333333,0.8083804766666667,-0.42625453999999996,-1.3146450666666667,-1.5837233333333334,3.4672199
585,5.850000238,0.5745108857142858,0.6258074142857143,-0.5329405028571428,-2.0737827857142856,-1.1903667885714284,3.8405929
586,5.860000238,0.6436758,0.30689292500000004,-0.3711954416666667,-3.2933830166666667,-0.7945595716666666,4.327700283333333
587,5.870000238,0.7811039571428572,0.07431618428571429,-0.069403004,-3.6932261428571427,-0.7264064542857144,4.4558036
588,5.880000238,0.8975218500000001,-0.04083571666666666,0.21834607566666664,-4.227775666666666,-0.6951951099999999,4.58364515
589,5.890000238,0.9712674142857143,-0.1300772757142857,0.5665400257142857,-4.196564171428571,-0.7590431714285714,4.522298714285713
590,5.900000238,0.9496793966666667,-0.15593390333333335,0.9663469866666667,-3.7647534,-0.9715016100000001,4.362722066666667
591,5.910000238,0.8937020157142858,-0.12212821142857143,1.1462210285714287,-3.362495942857143,-1.1130727285714286,4.272723771428572
592,5.920000238,0.8110229749999999,0.028721189999999994,1.2020519,-2.5970169999999997,-1.26017785,4.20369815
593,5.930000238,0.8155659,0.21660236,1.1530856142857144,-1.7540478,-1.2820811428571428,4.162946114285714
594,5.940000238,0.9378291142857142,0.3415312485714286,0.9700609214285715,-1.1690307571428573,-1.1368304285714286,4.0680029428571425
595,5.950000238,0.9823032333333334,0.49615703333333333,0.6115905833333333,-0.5545475249999999,-0.66913225,3.5826700500000004
596,5.960000238,0.9614759285714286,0.6056190057142857,0.3382514642857143,-0.5702259428571428,-0.4330252457142857,3.2217174714285717
597,5.970000238,0.9762307,0.71499601,0.04344765849999999,-0.7870767249999999,-0.06581879,2.5428043500000004
598,5.980000238,0.9961600071428572,0.7563376885714286,-0.08625067371428571,-1.0988705642857144,0.16944465999999997,1.8883252285714285
599,5.990000238,0.821013375,0.7821289416666666,-0.14950060166666665,-1.4862932000000002,0.352000735,1.1144399500000002
600,6.000000238,0.6029140857142857,0.802951912857143,-0.22751326285714285,-1.7795290000000001,0.46404759999999995,0.7398233000000001
601,6.010000238,0.5312047599999999,0.80529092,-0.255746625,-1.9715095999999999,0.55663458,0.5714476
602,6.020000238,0.4339451771428572,0.7953861714285715,-0.23851566428571427,-2.302937885714286,0.7609193342857142,0.45058710571428573
603,6.030000238,0.2917374171428571,0.7668261214285714,-0.06319184000000001,-2.617786,0.9591829,0.3668137799999999
604,6.040000238,0.32425673,0.7579405499999999,0.35680435499999996,-2.4162063333333337,0.6354338733333332,0.38391749999999997
605,6.050000238,0.7302429371428572,0.935651242857143,0.8780651357142857,-1.644095442857143,0.029647909142857143,0.37693640285714286
606,6.060000238,1.05915732,1.0037069,0.8361158666666667,-1.0613471333333333,-0.25681036533333335,0.23568524000000002
607,6.070000238,1.4232712142857142,1.0254953285714286,0.5381673142857143,-0.575636282857143,-0.3590254785714286,-0.08626036571428572
608,6.080000238,1.57109775,1.02957225,0.246858927,-0.3682390866666667,-0.16477605066666667,-0.6887303166666666
609,6.090000238,1.5351156571428572,1.0047101885714285,-0.11570797685714286,-0.54491937,0.17694936742857142,-1.2386673857142856
610,6.100000238,1.0812826,0.94536,-0.2906572,-1.0885734628571428,0.6375281857142857,-1.723156542857143
611,6.110000238,0.8395205333333333,0.9879845333333334,-0.030174526666666663,-1.5940059,0.8252037133333333,-1.6998860666666669
612,6.120000238,0.7049801571428571,1.1120727428571429,0.6288781185714286,-1.7934912,0.6851742428571429,-1.3161576
613,6.130000238,0.965742325,1.2594485,1.4772203499999998,-1.5740516,0.28806536000000005,-0.8899026
614,6.140000238,2.192357857142857,1.244327942857143,2.203861171428571,0.09743014857142855,-0.6192464171428572,-0.7341075142857143
615,6.150000238,2.6294419999999996,1.2272362666666667,2.0138065333333333,1.61675998,-0.8196043199999999,-1.28797145
616,6.160000238,2.430246242857143,1.3311621571428571,1.4588263714285714,2.5640968571428573,-0.46321855714285715,-1.9640048142857143
617,6.170000238,2.062203616666667,1.5054028833333335,0.6771482166666667,2.6792269333333336,0.06734591999999999,-2.1490624666666664
618,6.180000238,2.0639010714285715,1.5036417714285715,0.4612986857142857,2.2740316,0.4879579057142857,-1.974302
619,6.190000238,2.2465509285714282,1.4403192571428571,0.63561634,1.5808072857142856,0.9288151142857143,-1.646538842857143
620,6.200000238,2.420222433333333,1.3492657333333333,1.0387496466666668,1.4518312666666666,0.9799517333333333,-1.5569478666666665
621,6.210000238,2.5318768285714284,1.2887860142857142,1.3573265857142858,1.6150147,0.8179899285714285,-1.5467089
622,6.220000238,2.7054171,1.2161380499999999,1.6313451499999998,1.8617096833333333,0.6311579266666667,-1.5895264000000002
623,6.230000238,2.719636,1.062705742857143,1.5388963857142854,2.9773786,0.11673727428571427,-2.0758771142857144
624,6.240000238,2.4940785,0.97842598,1.3382336,3.327132333333333,0.04983495666666667,-2.2740825
625,6.250000238,2.145099057142857,0.899102982857143,1.0817312428571428,3.6613531142857143,0.1654305285714286,-2.4230129428571425
626,6.260000238,1.9085433857142857,0.8007828285714286,0.9029751714285714,3.7550744000000003,0.31273197714285716,-2.4181261142857147
627,6.270000238,1.7683755,0.7046448000000001,0.8492873866666666,3.8139776,0.41430715,-2.41803885
628,6.280000238,1.6421166285714286,0.6321405142857143,0.8478587342857142,3.963635085714285,0.44170802857142855,-2.4409892857142856
629,6.290000238,1.5586377,0.5545648666666666,0.7770473933333334,4.124898866666666,0.3536296666666667,-2.4838068
630,6.300000238,1.5571117714285714,0.47546763285714283,0.6037068600000001,4.224379814285714,0.2933593857142857,-2.653564171428571
631,6.310000238,1.5431845666666666,0.3522207533333333,0.251096985,3.9919377333333332,0.44240613333333334,-3.03112595
632,6.320000238,1.5192176,0.30196014,0.14616707142857144,3.8713098857142856,0.5169294857142858,-3.167548542857143
633,6.330000238,1.4215768857142859,0.1961438625714286,0.08808005285714285,3.462216857142857,0.6963440571428572,-3.5026419142857144
634,6.340000238,1.2711920666666667,0.06855582766666667,0.28684600833333335,3.0905308666666667,0.7527165333333333,-3.8590275999999997
635,6.350000238,1.2165866428571428,-0.02774116142857142,0.44570980857142856,3.0269446285714285,0.6012264428571428,-4.131291057142858
636,6.360000238,1.1196537166666667,-0.20530160500000003,0.5107919866666667,3.1279962,0.37643462,-4.457658
637,6.370000238,1.0193844,-0.32173044285714286,0.4693392428571429,3.1712789428571426,0.32686872285714286,-4.587593828571428
638,6.380000238,0.8974406,-0.40942429333333336,0.3849411733333334,3.1882662666666666,0.24082652666666668,-4.7738223
639,6.390000238,0.7885085714285714,-0.49495485714285714,0.25510199142857143,3.0471897,0.17869464000000002,-4.823097114285715
640,6.400000238,0.7664776571428572,-0.5448793742857143,0.19150943428571426,2.8180347857142856,0.1378551342857143,-4.814894342857143
641,6.410000238,0.803202375,-0.5982208750000001,0.132766895,2.5859710000000002,0.11132690999999999,-4.783188533333333
642,6.420000238,0.8500060757142858,-0.6479341285714286,0.09257508485714286,2.2068384,0.08340246999999999,-4.725710528571429
643,6.430000238,0.9657067416666667,-0.7679157616666666,0.14037912833333335,1.5544535999999998,0.12110047,-4.6545033
644,6.440000238,1.1971125571428571,-0.9668116257142857,0.48294195857142863,1.121973742857143,-0.15709682685714285,-4.819432114285713
645,6.450000238,1.2855235571428574,-1.2510268142857144,0.7083732214285714,1.0312192571428571,-0.6429822057142857,-5.290308228571428
646,6.460000238,1.2173068,-1.4087916,0.67334215,1.0560022166666665,-0.843223725,-5.6972196
647,6.470000238,0.8952874428571429,-1.6005028428571428,0.5038360371428572,0.98758733,-0.78417516,-6.0460134
648,6.480000238,0.6204427133333333,-1.6178586333333334,0.43156990999999995,0.9032394866666666,-0.5850389566666666,-5.989000933333333
649,6.490000238,-0.011934492857142862,-1.5699391142857144,0.3176579014285714,0.7083646428571428,-0.06058295857142858,-5.778113285714285
650,6.500000238,-0.45912741300000004,-1.42944315,0.2739489,0.65207945,0.535254915,-5.0826310999999995
651,6.510000238,-0.9639194857142857,-1.235956242857143,0.20989028142857144,0.6359356314285715,1.0523807285714286,-4.2932526285714285
652,6.520000238,-1.1486442666666667,-1.0630599333333333,0.094710802,0.6168539266666667,1.3179538333333332,-3.4143307000000003
653,6.530000238,-1.2935685428571428,-0.7661378285714286,-0.16705243285714286,0.48793607142857137,1.6763176142857144,-1.9615615285714287
654,6.540000238,-1.1304317857142858,-0.4788475942857143,-0.5421309042857142,-0.1040621942857143,2.0894247428571426,-0.5220562371428572
655,6.550000238,-1.0874567666666668,-0.3351923266666667,-0.6403676583333334,-0.653301135,2.3201506333333333,0.18864999833333332
656,6.560000238,-1.1049120285714287,-0.2313549685714286,-0.6083586357142857,-1.1686817142857142,2.3623864142857145,0.7922470714285714
657,6.570000238,-1.1185408666666665,-0.15557311333333332,-0.4712724333333333,-1.5744587999999997,2.28777575,1.3473762999999999
658,6.580000238,-1.1230010571428573,-0.04226292114285714,-0.10964490571428571,-1.9935000571428572,2.080873057142857,2.429535857142857
659,6.590000238,-1.1321596166666665,0.018471606166666665,0.057975940000000004,-2.1111899333333333,1.9373529999999999,3.279078966666667
660,6.600000238,-1.0854509857142856,0.11284630371428572,0.24416928857142856,-1.9884386857142857,1.8300765714285714,4.024719871428571
661,6.610000238,-0.8423792714285714,0.17553288714285717,0.4006418371428571,-1.7020386,1.7374023142857145,5.059495
662,6.620000238,-0.2105087857142857,0.26506337142857145,0.6048044614285715,-1.0512245,1.5880065142857143,6.305034285714286
663,6.630000238,0.6539609333333334,0.3559049166666666,0.8559747533333333,-0.3527642933333333,1.3350576,6.838435133333333
664,6.640000238,1.2192480428571428,0.4097800171428571,1.0033642571428572,0.4808676814285714,0.9848384857142857,6.853269957142857
665,6.650000238,1.5862358166666668,0.5717660833333333,0.8671948833333333,1.6090226,0.4680617,6.580250133333333
666,6.660000238,1.6354612142857143,0.6178147857142857,0.6621161485714285,2.2387770857142857,0.22564261314285713,6.3250832571428575
667,6.670000238,1.6016890000000001,0.7001729333333334,-0.23679228333333335,2.630766533333333,0.3120920546666666,5.9093874
668,6.680000238,1.4817807142857142,0.8036705571428572,-0.9470413885714286,2.1272537857142857,0.9192160714285714,5.730205657142858
669,6.690000238,1.3738301666666668,0.8693799666666666,-1.2836013333333334,1.1968534,1.5541481333333333,5.7493454333333345
670,6.700000238,1.1357500999999999,0.9473810142857143,-1.5224624571428573,-0.6264238285714285,2.5487819714285713,5.922185885714286
671,6.710000238,0.9859765142857143,0.8920555028571429,-0.9085111842857143,-1.6711471714285715,2.736224828571429,6.260813428571429
672,6.720000238,0.9395873333333333,0.7620973266666667,0.25415098,-3.0749033000000003,2.6158005666666666,6.9626406
673,6.730000238,1.675755442857143,0.5579027714285715,1.775234185714286,-2.5366305142857146,1.0546496142857142,7.760814385714285
674,6.740000238,3.4444082,0.43261668,2.6005785,-0.6518758333333333,-0.0004581416666666847,7.41955445
675,6.750000238,4.092242085714285,0.4069009114285715,2.6553814714285715,1.4231650999999998,-0.5817229428571429,6.040908357142857
676,6.760000238,4.12382295,0.43458327500000005,2.5233332,2.9221406,-1.04386165,4.33014345
677,6.770000238,2.9209936428571432,0.7506927428571429,1.2513360571428573,4.7153265428571425,-1.6655186857142856,1.789717042857143
678,6.780000238,1.7593578571428572,0.8608646999999999,0.15805364714285713,5.030349,-1.2435758571428572,0.4703523785714286
679,6.790000238,0.7527166666666667,0.8236761266666667,-0.47448908333333334,4.4001872,-0.05604519999999998,0.10414945666666668
680,6.800000238,0.23770115,0.8430849471428571,-0.6908155914285715,3.848970271428571,0.7588250142857144,0.19385673428571426
681,6.810000238,0.204066785,0.8361616450000001,-0.564956765,3.06935475,1.65066195,0.6729246249999999
682,6.820000238,0.2895944228571428,0.7950725685714285,-0.3579346585714286,2.3553616285714285,2.381933371428571,1.1130728142857145
683,6.830000238,0.43725114666666665,0.7197015566666667,-0.048839230000000004,1.8541759500000001,2.53740855,1.2221526833333334
684,6.840000238,0.3994571142857143,0.6677088071428571,0.14068764285714286,1.7781982,2.349645785714286,1.1994641
685,6.850000238,0.32025822857142855,0.60464328,0.47034972857142854,1.9602306285714286,1.7833031428571429,1.1581009857142857
686,6.860000238,0.25862280666666665,0.5326936999999999,0.6625996466666666,2.450566333333333,1.18662165,1.1425389666666665
687,6.870000238,0.31279699285714285,0.46891674285714285,0.6864120285714286,2.989420942857143,0.8068201285714285,1.0943982714285714
688,6.880000238,0.47208037,0.3945453666666667,0.6380250333333334,3.4647766,0.6364519333333333,0.9348508333333334
689,6.890000238,0.5490259257142858,0.33607797142857143,0.5796156928571429,3.770607357142857,0.5816793028571429,0.7639081714285715
690,6.900000238,0.463609365,0.31547572,0.47699429500000007,4.0454887,0.6372664,0.58488628
691,6.910000238,0.3187903785714285,0.3215823428571429,0.3558265142857143,4.272898471428571,0.7851786942857143,0.47833704
692,6.920000238,0.21008630285714286,0.37645924857142854,0.2399399557142857,4.281275728571429,0.9638951571428571,0.5900784457142857
693,6.930000238,0.3693304866666667,0.43009622,0.20174957000000002,4.006801633333333,1.2291774,0.98799452
694,6.940000238,0.6420017228571429,0.38342393,0.4308439742857143,3.8398949428571427,1.2588471285714284,1.2104593142857143
695,6.950000238,1.0183216,0.34843494999999997,0.7970587,3.8809671333333333,1.0328918333333332,1.2755
696,6.960000238,1.4281276857142857,0.39633844428571424,0.9928540428571428,4.173592242857143,0.5534058,1.0582710714285715
697,6.970000238,1.6802606333333336,0.45166252,0.9649749999999999,4.45109125,0.2292204285,0.6680378399999999
698,6.980000238,1.7578203142857143,0.5758785428571428,0.8104610571428571,4.669774285714285,0.11813349342857145,-0.041581248571428586
699,6.990000238,1.61221295,0.82321875,0.623801645,4.497922766666666,0.35973814,-0.19027892333333332
700,7.000000238,1.4726686714285715,1.1242119428571429,0.54601618,4.035191757142857,0.8729661857142857,-0.08416602428571429
701,7.010000238,1.521517342857143,1.3097541571428573,0.6300977285714285,3.6967822285714287,1.2178330142857143,0.2593046514285714
702,7.020000238,2.417010983333333,1.3844100666666668,1.5661889666666668,3.4142798666666665,1.6115677000000002,0.7798483366666668
703,7.030000238,3.508767485714286,1.3012605714285714,2.061614185714286,4.010408742857143,1.4693275571428572,0.4639166828571429
704,7.040000238,4.2500043,1.2218701,1.9482234,5.1779995,1.2475028,-0.89397496
705,7.050000238,4.0903258000000005,1.3294329571428574,1.5713503285714285,5.395286714285715,1.2527386571428571,-1.6147747028571426
706,7.060000238,3.7140786000000006,1.4871599,1.0847888666666667,5.332340266666667,1.3273202000000002,-2.257386
707,7.070000238,3.4680987714285716,1.5636756571428572,0.7213138214285715,4.917429599999999,1.4829407714285716,-2.485493871428571
708,7.080000238,3.5210285999999997,1.4543632000000002,0.6141211766666667,4.1126819333333335,1.7618361666666669,-2.642830583333333
709,7.090000238,3.556030657142857,1.309279257142857,0.6684623342857143,3.8669467428571425,1.8262369285714286,-2.7846344285714286
710,7.100000238,3.4289500857142854,1.1200827285714285,0.8114758914285715,3.403226385714286,1.8276332142857143,-3.3762836999999997
711,7.110000238,3.0131738,0.9008655666666666,0.8573467333333333,3.2648258,1.6665441,-3.8101597999999997
712,7.120000238,2.4596990857142855,0.6094954714285715,0.769570157142857,3.1384677857142855,1.3551864142857144,-4.331299785714286
713,7.130000238,2.212934,0.3755097,0.718731,3.0652825666666668,1.2185892999999999,-4.631240166666667
714,7.140000238,2.0355630285714286,0.18494109428571429,0.6427857428571428,3.009317171428571,1.1932246142857144,-4.971620199999999
715,7.150000238,1.7903179142857142,-0.005583950285714284,0.5684260514285714,2.9754587714285714,1.2347622714285715,-5.214388614285714
716,7.160000238,1.5828973,-0.13357487066666665,0.49860634,2.935782866666667,1.2609415,-5.441274766666666
717,7.170000238,1.3182999142857141,-0.3043992842857143,0.39205681857142854,2.8578270857142853,1.2457575857142857,-5.623656328571428
718,7.180000238,1.24138335,-0.40592307,0.34619395999999997,2.772483,1.20657605,-5.72715115
719,7.190000238,1.2023392285714287,-0.5288592314285714,0.30737855428571426,2.6576437142857143,1.1481964714285713,-5.856127142857143
720,7.200000238,1.1886146142857144,-0.6419233114285714,0.29593625142857144,2.5550213428571427,1.102121157142857,-6.013551428571428
721,7.210000238,1.00478425,-0.830688715,0.23025734,2.4300013333333337,1.0813523666666667,-6.235376233333334
722,7.220000238,0.5642838,-0.987527167142857,0.08951306285714286,2.2000318857142855,1.203870857142857,-6.266267485714286
723,7.230000238,0.34634643000000004,-0.9650411,0.08872469,2.1186728166666664,1.26745715,-6.182232366666667
724,7.240000238,0.02809832785714286,-0.8883096714285715,0.137373,1.8576083285714287,1.3139979000000002,-5.614580771428572
725,7.250000238,-0.08451713,-0.8874298,0.16546696,1.7128665833333334,1.19782055,-5.057866233333333
726,7.260000238,0.005854000000000001,-0.9328244285714286,0.14602332571428572,1.606986357142857,1.1289984142857141,-4.649158285714286
727,7.270000238,0.12194963642857144,-0.9684058285714284,0.07039173942857142,1.4834207285714285,1.1359795285714285,-4.328681714285715
728,7.280000238,0.20060621666666667,-0.9956628500000001,-0.009995501499999998,1.2665409,1.2446521666666666,-4.0451324
729,7.290000238,0.20460688428571427,-1.0134563857142858,-0.01738777414285714,1.042912602857143,1.3393044571428572,-3.8920133999999997
730,7.300000238,0.167093085,-1.0423067333333333,0.03473779866666667,0.8718826366666667,1.3664144333333332,-3.7698439666666665
731,7.310000238,0.011877874285714287,-1.0876027285714287,0.2594663657142857,0.7598503642857144,1.197238757142857,-3.4399863571428573
732,7.320000238,-0.12902175,-1.1205633666666668,0.32573040666666664,0.8384896666666667,0.9974626733333333,-3.0380488999999997
733,7.330000238,-0.2537168842857143,-1.1056655857142859,0.30352816571428576,0.9345308514285714,0.9691309971428571,-2.6533896142857145
734,7.340000238,-0.37733037142857145,-1.0215797,0.21839688285714284,1.0235400542857143,1.1207956857142858,-2.0969949857142858
735,7.350000238,-0.4321898466666667,-0.9746300333333333,0.125861,1.0219984,1.3822965166666668,-1.5520610166666666
736,7.360000238,-0.5306930071428572,-0.9022825928571429,0.020088280000000003,0.9369742714285715,1.5726481142857143,-1.1550684714285713
737,7.370000238,-0.627277475,-0.8216637950000001,-0.032090288,0.793261525,1.6757067499999998,-0.7229377100000001
738,7.380000238,-0.7323641857142856,-0.6915908628571429,-0.10601228114285714,0.5849734928571427,1.7330391285714286,-0.20389209714285714
739,7.390000238,-0.803598715,-0.577594665,-0.201810555,0.40631521666666665,1.7593928333333333,0.11392301333333334
740,7.400000238,-0.8835924671428571,-0.4364845342857143,-0.2978919471428571,-0.004406821428571421,1.8225718714285715,0.6490688571428571
741,7.410000238,-1.0417158114285714,-0.15081891142857143,-0.43891934857142856,-0.8669231142857142,2.0246750714285713,1.5249583857142857
742,7.420000238,-1.1481564000000002,0.042563456666666666,-0.4058366766666666,-1.6326929333333335,2.3494713333333332,2.2353446
743,7.430000238,-1.1520575999999998,0.28571352857142857,-0.20617055714285715,-2.342904585714286,2.766592657142857,3.103562142857143
744,7.440000238,-0.8364208,0.5397571,0.20281671,-2.8332113666666667,3.1566041333333335,4.057298200000001
745,7.450000238,-0.25279786,0.7077460428571428,0.5937803014285715,-3.0692893714285714,3.4331143714285717,4.9544292571428565
746,7.460000238,0.6402507300000001,0.9096109833333333,1.0534760666666667,-2.9325759333333337,3.5149678666666664,5.699663166666666
747,7.470000238,1.4015103857142857,1.0697183828571428,1.2643377428571427,-2.477465571428571,3.2737703857142857,5.795828085714286
748,7.480000238,1.8099749714285716,1.2280812571428572,1.3116837142857143,-1.7243781714285713,2.649659057142857,5.390574542857143
749,7.490000238,1.8964368666666667,1.34604395,1.3015088833333335,-1.0027058,1.9902931,4.9287737
750,7.500000238,1.6276385142857142,1.271472242857143,1.2608923714285714,-0.09690656000000002,1.4037052142857145,4.704854414285714
751,7.510000238,1.44419,1.1412555666666668,1.0022332933333333,0.7081247133333334,1.0263761333333334,4.635159666666667
752,7.520000238,1.2513884,1.1353405714285716,0.5378536885714286,1.430189842857143,0.9038576,4.787929857142857
753,7.530000238,1.01458154,1.2483045,-0.12396048666666669,1.3862670000000001,0.9925758666666665,5.197139433333334
754,7.540000238,1.0022884485714285,1.2437571857142857,-0.4731155885714286,0.9299277142857143,1.1508143571428573,5.597564228571429
755,7.550000238,1.1610868571428572,1.0940185714285715,-0.6676913928571429,-0.46708,1.586784757142857,6.286032714285715
756,7.560000238,1.4132735333333333,0.9526775666666666,-0.47180596999999996,-1.2775870666666667,1.8815622333333335,6.5676258333333335
757,7.570000238,2.0383768285714288,0.8278662785714286,-0.023929962857142852,-1.8854673,2.1697075714285714,6.631793857142858
758,7.580000238,3.2155939166666667,0.7148232499999999,0.8211556166666666,-1.8953572,2.146669933333333,6.095135666666667
759,7.590000238,3.411792928571429,0.7116704714285714,1.0520691928571428,-1.5327466714285714,1.781557814285714,5.350607428571429
760,7.600000238,3.360662,0.7597743,1.2377507428571428,-0.6740700000000001,0.8265417071428571,3.751060171428571
761,7.610000238,1.7046828333333333,0.9053323166666667,0.027633725,0.6779386499999999,-0.6821636583333334,0.8300650666666667
762,7.620000238,0.9152406857142859,0.8655339742857143,-0.3948270457142857,0.55041702,-0.5180202757142858,0.5987612014285715
763,7.630000238,0.27049342000000004,0.7694859933333333,-0.4756476666666667,0.057725074999999994,0.008704574999999992,0.60993099
764,7.640000238,-0.10324644285714284,0.6370232971428571,-0.2172339257142857,-0.4913393571428571,0.4643966371428571,1.046883137142857
765,7.650000238,-0.18860856833333337,0.5038810583333333,0.16152365899999999,-0.5848862499999999,0.542585075,1.3876923
766,7.660000238,-0.15808413000000002,0.44499983,0.29740411571428577,-0.4737120457142857,0.5010474514285714,1.7129248285714287
767,7.670000238,-0.14176349571428573,0.39835076,0.3656005914285715,-0.12448194571428572,0.3193640342857143,2.0024664
768,7.680000238,-0.15089295666666666,0.38943330666666665,0.33305806,0.34848834,0.00015271499999999771,2.2984655000000003
769,7.690000238,-0.14967337,0.39627314,0.31093280000000006,0.5317425,-0.15500249,2.4010878
770,7.700000238,-0.20565224333333332,0.4136725266666667,0.3491667333333333,0.7944832000000001,-0.3820340616666667,2.6452230833333332
771,7.710000238,-0.04919712028571428,0.4417940714285714,0.6131978142857143,1.5200715857142857,-0.7747506428571429,3.185939271428571
772,7.720000238,0.21253272283333333,0.4385113583333333,0.597163875,2.0480182,-0.60458606,3.292925
773,7.730000238,0.3952843828571429,0.43557853142857145,0.5323698985714286,2.199857342857143,-0.31225203142857144,3.2143874285714285
774,7.740000238,0.6342661142857143,0.4469990642857143,0.5031608742857143,2.3694984000000003,0.22459545428571426,2.9756333142857145
775,7.750000238,0.9092298666666667,0.49145146666666667,0.5147759766666667,2.4381459000000003,0.5486935666666667,2.6674171999999996
776,7.760000238,1.2747738571428573,0.5372482571428571,0.6938035285714286,2.636176771428571,0.7542872999999999,1.9694806142857144
777,7.770000238,1.33936165,0.573188925,0.84649755,2.8311243000000004,0.6293254,1.48054105
778,7.780000238,1.2541062285714286,0.6514926985714286,0.9401898885714285,3.124505457142857,0.20592098142857143,0.9835077285714285
779,7.790000238,1.2404077333333334,0.7517511533333333,0.84603514,3.4102074333333334,-0.20753535333333337,0.5374437799999999
780,7.800000238,1.3623660571428573,0.8173821571428572,0.6179628628571429,3.4594243,-0.1520355142857143,0.17745113285714284
781,7.810000238,1.4109359857142856,0.9194525428571428,0.6345317642857143,3.039685014285714,0.8052494428571428,-0.1969109671428571
782,7.820000238,1.5261866,1.0320115,0.9703310000000002,2.781238383333333,1.461706633333333,-0.26683844166666665
783,7.830000238,1.8622690285714287,1.0553577142857142,1.2642287857142858,2.8143695714285712,1.6639261714285714,-0.2850475057142857
784,7.840000238,2.3325142,1.0883714,1.5321321,3.05530525,1.61217865,-0.44439137999999995
785,7.850000238,2.965086,1.1676944285714286,1.6973899571428572,3.6299380714285716,1.2623376714285715,-1.0131774285714286
786,7.860000238,3.4268246285714286,1.2795127999999998,1.3648269857142858,4.045837742857143,0.9907724285714286,-1.9116465285714284
787,7.870000238,3.5205408499999997,1.3091312499999999,1.1443503,3.9941776,1.0964199333333333,-2.4581513
788,7.880000238,3.3815693,1.2817341285714285,1.0091834642857143,3.7227868857142856,1.398818442857143,-2.8766107142857145
789,7.890000238,3.0560420999999995,1.1571914333333335,1.0806423833333334,3.3446433333333334,1.8172196999999999,-3.221710266666667
790,7.900000238,2.9021987571428567,1.010490142857143,1.3220806285714286,3.289957857142857,1.9546894,-3.2443406142857145
791,7.910000238,2.9186,0.967449715,1.35825,3.4529668,1.9011094,-3.16632675
792,7.920000238,3.0221492571428574,0.8900345185714286,1.1667927999999999,3.8145883714285715,1.6223885142857142,-3.157076742857143
793,7.930000238,3.029366671428572,0.8213937428571428,0.8577068428571428,3.864852342857143,1.2968941714285713,-3.3797742
794,7.940000238,3.01816395,0.77001445,0.6795671,3.7286624666666666,1.0687281666666666,-3.6924698666666664
795,7.950000238,2.8942889857142857,0.6244702428571429,0.41994610285714284,3.377396185714286,0.8977491428571429,-4.214889685714286
796,7.960000238,2.5581777666666667,0.398493775,0.20251689666666664,2.9125705666666666,0.8834378799999999,-4.758703700000001
797,7.970000238,2.300757057142857,0.2600151714285714,0.14971692571428571,2.561304314285714,1.0207912542857143,-5.053648328571429
798,7.980000238,1.8069244999999998,-0.053834440000000004,0.13912397333333335,1.93684385,1.42892445,-5.43272285
799,7.990000238,1.5419802142857144,-0.22633289285714286,0.1658938257142857,1.5385714714285714,1.7745767142857143,-5.609345142857143
800,8.000000238,1.302637,-0.367369,0.21940304,1.3445257499999999,2.02022465,-5.6540531666666665
801,8.010000238,0.8395132714285715,-0.6021910714285713,0.43805255000000004,1.388303142857143,2.038113685714286,-5.5398828571428576
802,8.020000238,0.6492277785714285,-0.7048364142857143,0.4734727628571429,1.6368306571428572,1.7648031999999998,-5.359420914285714
803,8.030000238,0.46283697500000004,-0.7788208433333333,0.4256396566666667,1.9058943666666668,1.3882013166666667,-5.104901166666667
804,8.040000238,0.28848807428571427,-0.8046113971428571,0.29140202857142855,2.0661690714285714,1.0703571428571428,-4.798837928571429
805,8.050000238,0.23029798666666668,-0.8029736566666666,0.21583576999999998,2.11704385,0.8773293999999999,-4.53286875
806,8.060000238,0.20648852857142858,-0.7961788571428572,0.17377320714285713,2.1136405714285713,0.76091935,-4.302851857142857
807,8.070000238,0.20256262666666666,-0.7869565000000001,0.15237677666666666,2.0740810333333335,0.70955,-4.108660266666667
808,8.080000238,0.22252604285714286,-0.78447086,0.1281390042857143,1.9761127,0.7007072428571428,-3.7757777142857143
809,8.090000238,0.2920118042857143,-0.8236456314285715,0.10884780714285715,1.8459149571428572,0.8363153285714285,-3.392689171428571
810,8.100000238,0.4039920483333333,-0.95241326,0.027516848333333333,1.7181606666666667,1.1823457333333331,-3.1093142
811,8.110000238,0.40565954857142855,-1.0251773857142856,-0.033255424857142855,1.6057647428571429,1.4588559571428572,-2.984294257142857
812,8.120000238,0.33914580666666666,-1.0581817,-0.11940737466666666,1.4404287333333334,1.7830122666666668,-2.8678260666666664
813,8.130000238,0.16482233,-1.0690302,-0.22206870000000004,1.2642138571428572,1.9831374142857143,-2.7382100714285715
814,8.140000238,-0.023263555000000005,-1.0675318,-0.28564167,1.0480612,2.06237305,-2.4956165
815,8.150000238,-0.49653159714285716,-0.9312433428571428,-0.36427647428571425,0.6865922999999999,1.7372277999999999,-1.7062273571428572
816,8.160000238,-0.6015507857142858,-0.8638221371428572,-0.38062324285714283,0.5357566714285714,1.4426248857142858,-1.2468701857142859
817,8.170000238,-0.586894,-0.756126405,-0.40619747,0.325887015,0.835180915,-0.539683557
818,8.180000238,-0.4594083428571429,-0.6801877642857143,-0.4086257485714286,0.09786645285714288,0.20347758142857142,0.1694228614285714
819,8.190000238,-0.22963739783333334,-0.6635092116666667,-0.35893862,-0.07727217833333333,-0.20957150666666668,0.63296505
820,8.200000238,0.007844534571428573,-0.5657342085714285,-0.30010025428571424,-0.24228820428571426,-0.44925634285714283,1.0176060714285715
821,8.210000238,0.111454675,-0.48034814,-0.26185978,-0.38880428499999997,-0.46225867,1.3198882
822,8.220000238,0.15788377,-0.4237790771428571,-0.25396951714285715,-0.43496688,-0.39323292571428575,1.6596938285714284
823,8.230000238,0.017601199285714287,-0.24017515857142854,-0.32150831142857145,-0.4429951485714286,-0.46304404285714285,2.0335324285714287
824,8.240000238,-0.0907370025,-0.027029010000000003,-0.40072461,-0.5421269233333333,-0.74711711,2.480090666666667
825,8.250000238,-0.09142955142857143,0.20828741,-0.4692608285714286,-0.7180509285714286,-1.1863744314285714,2.960972857142857
826,8.260000238,-0.00761731425,0.35355212666666663,-0.461937525,-0.8899026333333332,-1.6101933333333331,3.323467266666667
827,8.270000238,0.05984233992857143,0.44925094285714284,-0.45043569285714286,-1.1166724000000001,-2.035168514285714,3.6903247285714285
828,8.280000238,0.36770438499999997,0.7180296749999999,-0.446474225,-1.666085866666667,-2.574110333333333,4.3700521666666665
829,8.290000238,0.7573133528571429,0.8981229214285714,-0.4841049,-2.1530184857142856,-2.4662521857142856,4.691764999999999
830,8.300000238,1.2497157471428573,1.1608473857142856,-0.4231344342857143,-2.978185842857143,-1.8086314857142856,4.859312
831,8.310000238,1.3910770999999997,1.3809749666666666,-0.28951891999999996,-3.496184266666667,-1.3068059333333333,4.758551
832,8.320000238,1.5149229428571427,1.6916275142857145,0.11008046142857143,-4.094989,-0.7543963771428572,4.594902071428572
833,8.330000238,1.57682985,1.8103953,0.477497365,-4.392907849999999,-0.51845661,4.40955375
834,8.340000238,1.7158492428571428,1.8283384,0.9089903428571429,-4.1445548571428565,-0.7412413314285714,4.074809357142857
835,8.350000238,1.788458033333333,1.7858764666666669,1.0503864666666667,-3.749889533333333,-0.9071590666666666,3.7514675
836,8.360000238,1.8255333857142857,1.7213416000000001,1.1627202,-3.294430242857143,-0.9524199428571428,3.4044481428571425
837,8.370000238,1.744492,1.53778785,1.36594855,-2.8299536,-0.8701010116666666,3.069354833333333
838,8.380000238,1.4984758428571427,1.3613512142857143,1.4166680428571428,-1.361185857142857,-0.29671905971428575,2.1370274142857144
839,8.390000238,0.6141822,1.0778983,0.9510616,0.21357838,0.3509535651428571,1.725665357142857
840,8.400000238,-0.030291391666666657,1.0740108833333333,0.5375974333333333,1.0174933933333332,-0.01857994333333333,2.2237386333333333
841,8.410000238,-0.2587563842857143,0.9489926342857142,0.09762764857142857,1.1888179,-0.5750908757142856,2.823968742857143
842,8.420000238,-0.09538666333333334,0.7074142233333333,-0.17585376833333335,1.0531516333333333,-1.1750410916666667,3.4423788166666665
843,8.430000238,0.002674371428571427,0.5942245714285714,-0.1986048057142857,0.845761642857143,-1.4901182714285715,3.8011497857142857
844,8.440000238,0.15055248400000001,0.4777412816666667,-0.0659134,0.6510613666666667,-1.6957120333333335,4.112274766666666
845,8.450000238,0.33499341714285713,0.3919741,0.07353216428571428,0.56874243,-1.7759948142857145,4.285639114285714
846,8.460000238,0.39892572,0.3647774,0.11933623,0.54151607,-1.8081079000000002,4.3826766
847,8.470000238,1.0752543485714285,0.39332869142857146,0.2540000242857143,0.7017325714285715,-1.7433581,4.2116390571428575
848,8.480000238,1.2781755428571429,0.5141632914285715,0.13096583571428572,0.9234919642857143,-1.4283354571428573,3.2726795571428573
849,8.490000238,1.1541119866666667,0.61671283,-0.002185086666666669,0.9097551666666668,-1.2098339566666667,2.8286808999999997
850,8.500000238,0.66236881,0.8741799485714286,-0.32038453857142857,0.42528058571428573,-0.4728176057142857,2.2490742285714282
851,8.510000238,0.4660434283333334,0.9829079,-0.3558947633333333,-0.10679645333333333,-0.03324027333333333,2.253262933333333
852,8.520000238,0.5540174999999999,0.9899575285714286,-0.06853188428571429,-0.5400326157142857,0.19579836285714286,2.256927957142857
853,8.530000238,0.77208775,0.96539176,0.55326396,-0.7002491628571429,0.23663786857142854,1.9595326
854,8.540000238,0.7879423,0.9473113999999999,0.74970835,-0.43746846666666667,0.22901682166666668,1.5440692166666665
855,8.550000238,0.7526615000000001,0.9353246342857143,0.7585067785714286,-0.27265604285714284,0.2649113671428572,1.3514777857142857
856,8.560000238,0.46366015,0.9135289016666667,0.73885915,0.07238541,0.47722442000000004,1.07310595
857,8.570000238,0.4054983714285715,0.9311170185714285,0.7578795742857142,0.4181249557142857,0.7017544285714286,0.8802527285714286
858,8.580000238,0.6609531933333334,1.0154962466666666,0.9125836866666667,0.90649729,0.7311332833333334,0.8218441
859,8.590000238,1.1781392628571428,0.9766510685714286,1.0485062571428572,1.3488598285714286,0.5869151142857143,0.5141806971428572
860,8.600000238,1.3543523666666666,0.9083456716666666,1.0116698666666666,2.0557556,0.28154966666666664,-0.4171068766666666
861,8.610000238,1.2947227428571428,0.8711092,0.9105235428571429,2.5731722857142856,0.10801088571428571,-1.374449942857143
862,8.620000238,0.9213298857142858,0.8387554285714286,0.5934666971428572,2.660785228571428,0.22703883142857142,-1.9018728857142857
863,8.630000238,0.38546963333333334,0.9160798666666667,0.252143775,2.342446466666667,0.5458429133333333,-2.0057169333333333
864,8.640000238,0.2989764857142857,1.0640080571428572,0.3006098642857143,1.7305520714285714,0.8162446485714286,-1.4922562142857143
865,8.650000238,0.7187309383333332,1.3223280666666666,0.733401495,1.1435569666666667,1.0605835866666666,-0.7644753533333333
866,8.660000238,1.3851331142857144,1.4367693142857143,1.3550181114285713,0.8557315714285715,1.2872951857142856,-0.24071745714285717
867,8.670000238,1.8185513,1.4983801,1.7647067000000003,0.7907418,1.3904411,-0.05222743999999999
868,8.680000238,3.5007009714285715,1.5099835428571429,3.060923471428571,3.095861157142857,1.183800185714286,-1.5608457400000002
869,8.690000238,4.001104714285714,1.3536940142857143,3.247963885714286,4.551270085714286,0.9474895457142857,-2.699465071428572
870,8.700000238,2.6764975,1.4491903,1.6261364833333332,6.1064873,1.0789089,-3.9677583999999997
871,8.710000238,2.2844014285714285,1.5009456142857143,1.0966144999999998,5.855167414285715,1.4761341571428572,-3.6780421714285714
872,8.720000238,2.180981,1.618936,0.4492945,4.9141135,2.398339,-2.744842
873,8.730000238,2.5782384285714284,1.5926059285714285,0.5674852142857143,4.574831328571428,2.466055742857143,-2.5409936
874,8.740000238,3.098416828571429,1.4934016142857143,0.7270851,4.124898842857142,2.2463252285714286,-2.5294749428571426
875,8.750000238,3.22293195,1.4261503,0.6917476749999999,3.9901053333333336,1.9165841,-2.761538733333333
876,8.760000238,3.2704304428571427,1.336645957142857,0.5671977328571429,3.796612142857143,1.3115545199999998,-3.3059489999999996
877,8.770000238,3.120269357142857,1.2091342285714286,0.31015312,3.444764,0.8364898785714285,-3.9747395714285716
878,8.780000238,2.658071833333333,1.0512808666666666,0.09770895666666667,2.8905802499999997,0.6985547083333333,-4.529356333333333
879,8.790000238,2.0894904285714286,0.777737,0.14591008714285714,1.7527171428571429,1.0010696214285715,-5.116129457142857
880,8.800000238,1.5908550000000001,0.3960292,0.34142238,1.0865445,1.3623421,-5.3655295
881,8.810000238,1.3485499285714284,0.21908072142857143,0.3939080157142857,1.0027711857142858,1.4607757571428572,-5.396246528571429
882,8.820000238,1.0463110533333333,-0.008374473333333327,0.43116337,0.9409593166666667,1.6292823333333335,-5.384669550000001
883,8.830000238,0.7499783942857142,-0.2632906357142857,0.4582845485714286,1.013591982857143,1.674397742857143,-5.285246885714286
884,8.840000238,0.6068341571428572,-0.40849510857142857,0.4925635714285714,1.098412457142857,1.6736996285714285,-5.196586828571428
885,8.850000238,0.404444325,-0.620798415,0.52996995,1.3950224,1.5602566,-4.98741535
886,8.860000238,0.18111248142857142,-0.8372831842857142,0.4408706542857143,1.8429480142857142,1.3311016428571432,-4.659324857142857
887,8.870000238,0.039697438499999994,-0.968806575,0.27346107000000003,2.2190554,1.0740222000000001,-4.268906
888,8.880000238,-0.10156951514285716,-1.0567908428571429,0.04752019385714286,2.3822387857142857,0.9167726428571428,-3.861121828571428
889,8.890000238,-0.18782018857142857,-1.0788217,-0.14646324522857143,2.359899242857143,0.7951268,-3.3771563428571425
890,8.900000238,-0.21174000333333332,-1.0852564333333332,-0.27120484666666667,2.1632645666666668,0.7066994000000001,-2.939906133333333
891,8.910000238,-0.12496374285714285,-1.0890313,-0.3549640942857143,1.6389249285714287,0.6385753571428571,-2.3205650714285713
892,8.920000238,0.020895526666666664,-1.1044649,-0.37703418666666666,1.3158158999999998,0.6272892333333333,-2.032594233333333
893,8.930000238,0.2399181742857143,-1.2249408428571429,-0.3372235085714285,0.8838087285714286,0.7000091357142857,-1.8992550285714285
894,8.940000238,0.4355538666666667,-1.3925100666666665,-0.25705768999999995,0.6030080666666667,0.7706347100000001,-1.9470756666666666
895,8.950000238,0.3921047557142857,-1.478191657142857,-0.20109187857142857,0.44622393285714285,0.7834334357142857,-2.1151458857142855
896,8.960000238,-0.012124693333333344,-1.4966422666666668,-0.17107706666666667,0.328330395,0.604280665,-2.2213460499999997
897,8.970000238,-0.4634286257142857,-1.4303230142857142,-0.16304087714285714,0.2598282342857143,0.0823553,-1.9847736428571428
898,8.980000238,-0.7699737999999999,-1.3393973,-0.18781583333333332,0.23425991999999998,-0.354749551,-1.55979845
899,8.990000238,-0.9681139285714285,-1.2182723285714288,-0.2998127771428571,0.1336446542857143,-0.8770239585714287,-0.7540036571428571
900,9.000000238,-0.9855104285714286,-1.1271695142857143,-0.3985467685714286,-0.13093947857142857,-1.0115848714285716,0.26715838571428574
901,9.010000238,-0.9186663999999999,-1.043856725,-0.48319893500000005,-0.5958815033333332,-0.5524604466666667,1.3055841666666665
902,9.020000238,-0.7242931357142857,-0.9175884142857144,-0.5595274342857143,-1.0904932971428571,0.08130812999999999,2.1087537857142857
903,9.030000238,-0.471567155,-0.8053061499999999,-0.50711799,-1.6159965000000003,0.680636555,2.7498816500000003
904,9.040000238,-0.19374388571428572,-0.6815946657142857,-0.38631609142857143,-2.1371364571428573,1.1988095428571428,3.3684954285714284
905,9.050000238,0.05544531,-0.53088464,-0.16118319750000001,-2.3587867,1.26155225,3.7614447500000003
906,9.060000238,0.2945642285714286,-0.3470847,0.07901593071428571,-2.3980554571428567,1.1508143628571428,3.9887671428571427
907,9.070000238,0.5390689257142858,-0.04591730885714286,0.22842796857142858,-2.0022264285714284,0.34484509714285716,4.292619714285714
908,9.080000238,0.8174765233333333,0.18865938233333332,0.07809399333333333,-1.79619635,0.01847813000000001,4.4254355
909,9.090000238,0.9953149857142857,0.4400517871428571,-0.09080669285714286,-1.7175715857142857,-0.23755412999999997,4.5182845
910,9.100000238,1.2565164666666666,0.79526994,-0.12620655,-1.870923366666667,-0.5023709433333333,4.496294033333333
911,9.110000238,1.4239289,0.8790103142857142,-0.05029910142857143,-2.0868723428571427,-1.0270305714285715,4.404143299999999
912,9.120000238,1.4202745,0.9181720071428572,-0.010139964285714285,-2.396310171428571,-1.8883906571428573,4.342884071428571
913,9.130000238,1.2598144,0.981734135,-0.0200011665,-2.56036625,-2.1630101500000003,4.5347774
914,9.140000238,1.1341385285714287,1.0244326142857143,-0.03975841671428571,-2.8106390714285716,-2.4250635714285713,4.970660514285714
915,9.150000238,1.2030224666666667,0.980783825,-0.016210294166666667,-2.925856533333333,-2.460085483333333,5.218722616666667
916,9.160000238,1.5732625714285715,0.8090889985714286,0.15287478142857142,-3.282736885714286,-2.4721862142857143,6.046471357142857
917,9.170000238,2.4844692499999996,0.8179745866666667,0.38622173500000007,-3.383381266666667,-2.4356516999999998,6.714229433333333
918,9.180000238,3.1598315714285716,0.8506855157142857,0.6663367928571429,-3.0902326428571425,-2.5786480714285713,6.5506387
919,9.190000238,3.394771366666667,0.9377275099999999,0.7813769166666668,-2.7106346,-2.9544645333333333,6.060113933333334
920,9.200000238,3.373306628571428,1.0086695785714286,0.7778981514285714,-2.0182828857142856,-3.4991075142857144,4.869085414285714
921,9.210000238,3.1582635,1.0311315857142858,0.8576632428571429,-1.6709726285714286,-3.660720285714286,4.2317098714285715
922,9.220000238,2.6742717833333334,0.9734206333333333,1.0303395233333335,-1.090667775,-3.4983223,3.4627405
923,9.230000238,2.418538257142857,0.9404120428571429,0.9932112285714286,-0.31716063714285714,-3.057377914285714,2.6236109428571432
924,9.240000238,1.9416833999999998,0.9448874750000001,0.6846741,0.27213245999999996,-2.2656325,2.1042161
925,9.250000238,1.4887148857142858,1.0704675142857143,0.19303826285714284,0.38374298,-1.4134350857142857,1.9864098000000001
926,9.260000238,1.1476787,1.2122760333333333,-0.32165494666666666,-0.12186405,-0.4103366735,2.3088499
927,9.270000238,1.0427393285714286,1.1863715,-0.7582715999999999,-1.6221049,0.5853444,3.0058267
928,9.280000238,1.0385884285714284,1.138716257142857,-0.6979893371428572,-1.921594585714286,0.6014009428571429,3.0819207857142854
929,9.290000238,0.93609625,0.9544357333333334,-0.05014012166666667,-3.0545416999999997,0.34222716,3.3625615
930,9.300000238,0.9035544085714285,0.7916141142857143,0.6038287914285715,-3.4832691714285713,-0.4169687085714286,3.507943214285714
931,9.310000238,0.92741688,0.7241428500000001,0.8093917249999999,-3.34469415,-0.67055757,3.49572625
932,9.320000238,0.9280898142857144,0.6686148000000001,1.0482319,-2.838389014285714,-0.6180247114285714,3.3323680857142857
933,9.330000238,0.9024350371428572,0.6741987542857143,1.1418785,-2.568569042857143,-0.5058033428571428,3.2215428714285714
934,9.340000238,0.8372491066666666,0.7406174166666667,1.2149641666666666,-1.8334580833333334,-0.13626983833333334,2.8433413
935,9.350000238,0.7772492142857143,0.7705327857142857,1.1858357285714285,-1.306907742857143,0.17363334285714283,2.494983857142857
936,9.360000238,0.6891560549999999,0.79398435,1.1289225833333332,-0.659002395,0.5602996616666666,2.0280638333333334
937,9.370000238,0.5277311271428571,0.7772099428571428,1.0467553142857142,0.21829062285714285,0.9028104128571428,1.2781760714285715
938,9.380000238,0.39328514166666667,0.740053325,0.8556444666666666,0.75755242,0.9927794950000001,0.7944322916666667
939,9.390000238,0.2655904142857143,0.7244716985714286,0.6821522028571428,1.0639650428571428,1.0234091,0.4720540328571428
940,9.400000238,0.15639850285714285,0.7093358057142857,0.5398311585714286,1.2731147714285715,1.0340552857142857,0.2385358614285714
941,9.410000238,0.006595913999999999,0.69359739,0.42163028,1.4013345333333334,0.9860601666666667,0.10659284333333334
942,9.420000238,-0.03786370742857143,0.7024364857142856,0.4450390285714286,1.4612557142857143,0.8944330985714285,0.19193694071428571
943,9.430000238,0.016515189333333336,0.70733802,0.5549002533333334,1.5613765166666667,0.7722636433333333,0.35276430000000003
944,9.440000238,0.2647454028571429,0.70372571,0.6561227628571429,1.7340426571428569,0.6743535542857142,0.3732713128571429
945,9.450000238,0.8776070833333334,0.6957062500000001,0.8371321583333332,2.217833633333333,0.44790375833333335,0.2961591133333333
946,9.460000238,1.4004344857142856,0.6866428428571429,0.6379118142857143,2.8700439857142857,0.33873662142857147,-0.5459665514285714
947,9.470000238,1.447710742857143,0.7012168599999999,0.4109473542857143,3.0278170571428573,0.3310573957142857,-0.9693709714285715
948,9.480000238,1.0478660333333334,0.8776731866666667,-0.19620047,2.5171489,0.645207405,-1.6789136999999998
949,9.490000238,0.9412744571428571,1.1312637571428572,-0.1676230214285714,1.5579440857142859,1.0302157028571428,-1.355950057142857
950,9.500000238,1.18830102,1.21577215,0.081269975,0.72764635,1.4181328833333333,-0.4651602083333333
951,9.510000238,2.2864401142857145,1.236365657142857,0.9013896714285714,0.6343649000000001,1.5475160857142856,-0.1674157842857143
952,9.520000238,3.672780233333333,1.1913551166666665,1.6168169333333333,1.0693899,1.5142394666666668,-0.4904085486666667
953,9.530000238,4.158931600000001,1.1294126142857144,1.7630036142857144,1.5556751999999998,1.4136532857142858,-1.0351679714285713
954,9.540000238,4.471245185714286,0.9789465,1.6541296571428572,2.0933953142857145,1.3005592714285714,-1.9737784142857144
955,9.550000238,4.4820806,0.6606483133333333,1.0515349533333334,2.954515433333333,1.18173495,-3.8720843833333336
956,9.560000238,3.3116261714285713,0.5502847342857143,0.1789259557142857,2.724138814285715,1.6435063428571428,-5.195714014285714
957,9.570000238,2.788404566666667,0.5551238666666667,-0.0010569690000000003,1.8024575833333334,2.2222113166666664,-5.0847435
958,9.580000238,2.410929,0.5904046571428572,0.12481999600000002,1.4443265714285716,2.3739050857142856,-4.843342557142857
959,9.590000238,2.4617443,0.526082515,0.5755976100000001,1.0205730666666666,2.183320866666667,-4.085906433333333
960,9.600000238,2.771154685714286,0.3268439871428571,0.9618331400000001,1.1308746,1.7566004285714285,-3.8143484285714284
961,9.610000238,2.8573183714285713,0.11619144857142857,0.9146614142857142,1.4691095142857142,1.3464600857142857,-4.012612171428572
962,9.620000238,2.662868833333333,0.027267850333333333,0.7112407,1.61370575,1.1336816333333333,-4.296597866666667
963,9.630000238,2.362254542857143,-0.05699810121428572,0.48670523428571427,1.5724299285714285,1.0988051571428572,-4.4771177571428575
964,9.640000238,2.093516466666667,-0.14341284333333335,0.3484248066666667,1.4218997,1.1515998,-4.64228665
965,9.650000238,1.7175218285714284,-0.30262655285714285,0.27319974142857145,1.2404780857142856,1.2834555428571428,-4.724140142857143
966,9.660000238,1.4022158857142857,-0.42470683571428575,0.32200920714285713,1.1483274285714287,1.463219142857143,-4.7045928
967,9.670000238,1.0150439,-0.55221208,0.459310335,1.3150014,1.72396365,-4.51942965
968,9.680000238,0.8809746857142857,-0.6034847028571428,0.5052603214285715,1.5835997000000002,1.8107040142857145,-4.384181514285714
969,9.690000238,0.6687382333333334,-0.7032981766666667,0.538791575,2.264665266666667,1.7736459,-4.1709671
970,9.700000238,0.5804998942857144,-0.7661379028571428,0.46756211428571426,2.836883728571429,1.556591557142857,-4.050833714285714
971,9.710000238,0.4845912866666667,-0.8153524566666667,0.36185037,3.3063635,1.2861897666666666,-3.9685728
972,9.720000238,0.4137523714285714,-0.8407764428571429,0.2768628357142857,3.544419428571428,1.1225408857142856,-3.9222065285714285
973,9.730000238,0.26272003285714285,-0.8582469857142857,0.09748391114285715,3.8004517428571427,0.849404942857143,-3.788343742857143
974,9.740000238,0.026510690000000003,-0.8687549849999999,-0.184614427,4.001507666666667,0.50511976,-3.5556400666666668
975,9.750000238,-0.11646150714285715,-0.85903535,-0.3544501285714286,3.937455885714286,0.2005106092857143,-3.2199068
976,9.760000238,-0.393727275,-0.810550375,-0.622551585,3.556811,-0.19898349250000003,-2.6128991999999998
977,9.770000238,-0.5669363857142857,-0.7341673857142857,-0.8069808485714286,2.8792940999999996,-0.6750953,-1.7573639428571428
978,9.780000238,-0.48675605000000005,-0.67713811,-0.8414515333333333,2.2992799666666666,-0.9605064466666667,-1.1680417733333333
979,9.790000238,-0.26122167714285716,-0.6642286514285713,-0.7883561085714286,1.638925,-1.1684198857142858,-0.6271219885714286
980,9.800000238,-0.008176287500000002,-0.6678642266666667,-0.6868897166666666,0.9827005666666667,-1.2497935166666665,-0.259915505
981,9.810000238,0.10789827285714285,-0.6755533857142858,-0.6304200571428572,0.7250320714285714,-1.2497935000000002,-0.1763166957142857
982,9.820000238,0.3405773542857143,-0.6981591828571428,-0.47467054857142854,0.20764441714285714,-1.2093029857142858,-0.14210925
983,9.830000238,0.36818712833333334,-0.7021649249999999,-0.42647305333333335,-0.12797249666666666,-1.1858581000000001,-0.17561858333333333
984,9.840000238,0.33645257,-0.7056204,-0.30260912,-0.3478775,-1.1850437,-0.21959959
985,9.850000238,0.2940938057142857,-0.6709276142857143,-0.22329264142857141,-0.5321789,-1.2457793000000001,-0.22378825857142856
986,9.860000238,0.18364892,-0.5809942766666667,-0.0450280345,-0.6581879416666666,-1.5275253166666667,-0.125529111
987,9.870000238,0.16061477,-0.4640775814285715,-0.016342417714285715,-0.7257301571428572,-1.9280084142857141,0.2048519917142857
988,9.880000238,0.3519209233333333,-0.44041185,-0.095574686,-0.73026789,-1.9986921666666664,0.3879898233333334
989,9.890000238,0.4924677857142857,-0.4593909285714286,-0.26582126285714286,-0.8451071814285714,-1.8290512142857143,0.47153043857142857
990,9.900000238,0.51484716,-0.46496618,-0.31748804,-0.8622109,-1.8044427999999997,0.4694361
991,9.910000238,0.23633348714285712,-0.3396147542857143,-0.6681530842857144,-1.2479173,-1.3370573285714287,0.57572354
992,9.920000238,0.01292758857142857,-0.18548119771428576,-0.8291206785714287,-1.7091942714285715,-1.0451814428571429,0.8333919999999999
993,9.930000238,-0.10493498000000001,-0.030083055333333334,-0.8289304999999999,-2.26777045,-1.24177615,1.42800815
994,9.940000238,-0.11424954633333334,0.153367695,-0.66858577,-2.6039400333333336,-1.7950765000000002,2.0940353
995,9.950000238,0.8117590062857143,0.6605655828571428,-0.10322902214285715,-2.6987669,-3.3572165857142857,3.369368042857143
996,9.960000238,1.8102072166666667,0.8821703666666667,-0.1612238305,-2.6409982,-4.270229700000001,3.9249481
997,9.970000238,2.469355671428571,1.0227338571428573,-0.45645083999999997,-2.898601157142857,-3.9179743285714284,3.709173657142857
998,9.980000238,2.629417342857143,1.1120203857142859,-0.5212281428571428,-3.3851846714285716,-2.965052528571429,3.2491183714285716
999,9.990000238,2.4840728333333333,1.3526856166666665,-0.34913621666666667,-4.26666615,-1.3888630666666666,2.4352953833333335
