id,timestamp,acc_x,acc_y,acc_z,gyro_x,gyro_y,gyro_z
0,2.38e-07,-0.057225141,0.5920734375000001,0.58210717375,0.26464958499999996,0.4085041075,0.2319692525
1,0.010000238,0.016840414666666668,0.5524407666666666,0.5788142666666666,0.3038456133333333,0.35973812,0.2773755533333333
2,0.020000238,0.11365210285714286,0.5359938142857142,0.5692231028571428,0.32979206857142856,0.44327875714285714,0.26888187428571425
3,0.030000238,0.22628062,0.5203004014285714,0.5759264928571428,0.3425325928571429,0.6754007428571429,0.13920772285714286
4,0.040000238,0.1877984057142857,0.4880511314285714,0.5514215514285714,0.3744711857142858,0.7850042,0.014943938571428575
5,0.050000238,0.10835562142857143,0.4827197914285714,0.4252077285714285,0.38110324285714287,0.8132776857142857,-0.05626339857142857
6,0.060000238,0.04058163457142857,0.4878768942857143,0.28018186,0.2849384228571428,0.7757541828571428,-0.05382001171428571
7,0.070000238,-0.03402202114285714,0.4499609228571429,0.19521609285714286,0.12192947828571428,0.620599,-0.0007635594285714293
8,0.080000238,0.072656676,0.41481078,0.15400288999999998,-0.028862532,0.37032616,0.12384928000000002
9,0.090000238,0.21565282,0.39041913,0.14449014,-0.17858555714285715,-0.11084696000000001,0.151250142
10,0.100000238,0.35843554000000005,0.33599523,0.06320491,-0.2843494,-0.44698748,0.10308047400000002
11,0.110000238,0.40930089857142854,0.2721718185714286,-0.023063190571428572,-0.6084474999999999,-0.8765003757142856,-0.09081990014285714
12,0.120000238,0.41139595714285715,0.1762080142857143,-0.010941405142857142,-0.9419700571428571,-1.0998959428571429,-0.22450818857142857
13,0.130000238,0.4077270333333334,0.14107529666666666,0.008303329666666666,-1.19878765,-1.1549595000000001,-0.327566845
14,0.140000238,0.3809455685714286,0.08262241285714286,0.041461477428571425,-1.4744542999999999,-1.1847164285714287,-0.42783305714285713
15,0.150000238,0.3708753066666666,0.04711656933333333,0.060531987333333336,-1.6652713666666668,-1.1942572666666667,-0.46460025
16,0.160000238,0.3896002542857143,-0.011956272571428572,0.0911464342857143,-1.8413117571428572,-1.2119427714285715,-0.46937067285714285
17,0.170000238,0.40871286,-0.044728220000000006,0.11567748,-1.9556274,-1.2398672,-0.46500748
18,0.180000238,0.4592036299999999,-0.08817588,0.16693048,-2.0484762,-1.3485980000000002,-0.47233763
19,0.190000238,0.47923526,-0.11110405,0.19208437,-2.0924573,-1.5648379,-0.50303274
20,0.200000238,0.5095724314285714,-0.12384434285714287,0.2115977057142857,-2.1036270142857143,-1.7142337285714286,-0.5274666257142857
21,0.210000238,0.5647062771428571,-0.1929293657142857,0.09623818785714286,-2.2666359714285713,-2.1484588857142852,-0.7077538142857144
22,0.220000238,0.5543920999999999,-0.220927515,0.01769920415,-2.47973445,-2.3174017499999997,-0.7687512499999999
23,0.230000238,0.5473881971428571,-0.2333106457142857,0.006459436457142856,-2.7258187285714284,-2.510953057142857,-0.7918762071428571
24,0.240000238,0.57928683,-0.272683585,0.056268527000000006,-2.9883667,-2.7217825999999996,-0.7705838333333332
25,0.250000238,0.6929149714285714,-0.3201231871428571,0.18709278857142858,-3.2687746857142854,-3.0460552,-0.7156075428571428
26,0.260000238,0.7982071,-0.3318079666666667,0.31410368,-3.422068233333333,-3.4617731333333333,-0.7367835866666667
27,0.270000238,0.8919161000000001,-0.32193516857142856,0.42103066,-3.503863485714286,-3.9691108285714285,-0.8348100514285715
28,0.280000238,0.9475553,-0.30562758,0.36560062,-3.5792594,-4.554477,-0.9929322
29,0.290000238,1.00246205,-0.3515906383333333,0.2340126366666667,-3.7063158,-4.5972366,-1.0124793
30,0.300000238,1.1133706857142858,-0.4117052,0.17979271314285714,-4.430606142857143,-4.130549142857143,-1.031153742857143
31,0.310000238,1.1391315333333332,-0.49686840000000004,0.5329985599999999,-5.046718333333334,-3.4936137166666668,-1.0014841166666666
32,0.320000238,1.1737967428571427,-0.5903523714285714,0.9760499428571429,-5.1226086,-3.374167514285714,-0.9568049714285715
33,0.330000238,1.2876362,-0.5448946,1.1337399,-4.8982822,-3.393307366666667,-0.8984545333333332
34,0.340000238,1.5589891,-0.5337942257142857,1.2517978142857142,-4.509667171428571,-3.402790085714286,-0.9068900285714285
35,0.350000238,1.9582545,-0.5174169657142856,1.3595131571428571,-4.041234614285714,-3.3809740571428573,-1.390506557142857
36,0.360000238,2.3164206666666667,-0.426991375,1.2680313166666666,-3.7360436333333333,-3.3265213333333334,-1.94809375
37,0.370000238,2.2472173142857144,-0.30346284285714287,0.9262430714285715,-4.075092928571428,-3.0120223714285714,-2.5579228
38,0.380000238,1.9502154,-0.14938371666666667,0.6833427333333333,-5.1161766166666665,-2.4428290833333333,-3.2516417
39,0.390000238,1.7726644,-0.11988505,1.0847889,-6.0325747000000005,-2.000983,-3.3605762
40,0.400000238,1.9937835714285714,-0.22627191142857142,2.3387731428571428,-6.458771857142857,-1.5250455571428572,-3.461627685714286
41,0.410000238,2.1615460285714287,-0.27855720857142857,3.183874857142857,-5.766856428571429,-1.2807067,-3.639646142857143
42,0.420000238,2.1098335,-0.181763665,3.5829836500000005,-4.733760833333333,-1.2585999,-3.766178866666667
43,0.430000238,2.0135625714285714,-0.0040071971428571425,3.6108859,-3.0425865714285716,-1.6117859714285714,-3.8726407857142857
44,0.440000238,2.0125868,0.10464026,3.4920635,-2.449192,-1.9350113999999998,-3.8907917
45,0.450000238,2.1631270285714286,0.2272867857142857,3.336505642857143,-2.347093257142857,-2.1622684142857143,-3.8838106
46,0.460000238,2.88504635,0.44019336000000003,3.1252738,-2.0588607499999996,-3.3907368499999997,-4.10703175
47,0.470000238,3.2729346714285716,0.3054098,3.4421172571428573,-2.418126214285714,-3.000503542857143,-4.491167442857143
48,0.480000238,3.3787336,0.20272525,3.7900689,-2.50539,-2.3626044,-4.7887373
49,0.490000238,3.4192545,0.073632345,4.180518,-2.20974,-1.5428475,-5.1552453
50,0.500000238,3.223176,-0.1176898,4.23800635,-1.5769022,-0.9466605,-5.521753999999999
51,0.510000238,3.0165175714285715,-0.21750834142857142,3.967300114285714,-0.6182210685714286,-0.42220452571428574,-5.9536884285714295
52,0.520000238,2.7498861714285714,-0.3506911857142857,3.545441914285714,-0.2209958154285714,-0.1363280152857143,-6.137466285714285
53,0.530000238,2.5192935142857142,-0.4483798014285715,3.2686706,-0.07365072399999999,0.07869021928571428,-6.209720571428571
54,0.540000238,2.400610428571429,-0.5137843385714286,3.184589057142857,0.02017977628571429,0.35130263714285714,-6.225079014285714
55,0.550000238,2.3171473333333332,-0.5774828933333334,3.1295118333333334,0.117129965,0.62749285,-6.268972916666667
56,0.560000238,2.1834114285714286,-0.6200144,3.0563804428571433,0.31146666285714286,1.0935692285714287,-6.358244
57,0.570000238,1.7887846857142855,-0.6084457857142856,2.840823442857143,0.6947296971428571,1.754069685714286,-6.5229978285714285
58,0.580000238,1.418101,-0.6196441857142858,2.6270348285714284,1.0392475542857142,2.1661952,-6.5282336857142855
59,0.590000238,1.2587014,-0.6426595,2.5110002,1.236813,2.3044212,-6.447951
60,0.600000238,1.1976917571428574,-0.6576472885714286,2.4326637,1.3825436857142857,2.3103551571428573,-6.352833385714285
61,0.610000238,1.0174983628571428,-0.7852461442857143,2.1551213285714286,2.004909714285714,2.3016288714285715,-5.978558499999999
62,0.620000238,0.9377884066666667,-0.8919016333333333,2.0072105666666666,2.4153409666666668,2.2693993666666668,-5.747359866666667
63,0.630000238,0.8615441500000001,-0.9908678985714285,1.9702586714285713,2.7702141571428567,2.298487371428571,-5.603083542857143
64,0.640000238,0.7648007114285714,-1.1036837285714285,1.957300657142857,3.2763447857142856,2.255728,-5.431522714285713
65,0.650000238,0.6137030457142857,-1.1877087,1.903129342857143,3.8704372142857144,2.0066768571428573,-5.241287428571428
66,0.660000238,0.40879417999999995,-1.2188516,1.7843216,4.27211285,1.7325919,-5.0281892
67,0.670000238,0.36289574571428573,-1.2105845285714287,1.7081354142857141,4.6448170285714285,1.4476861714285716,-4.751213714285714
68,0.680000238,0.40087706,-1.1966246,1.6124417,4.9580946,1.2181821,-4.4588795
69,0.690000238,0.5752164933333334,-1.2080989000000002,1.4987155,4.9580946,1.2181821,-4.4588795
70,0.700000238,0.92389536,-1.2310475,1.2712631,4.9580946,1.2181821,-4.4588795
71,0.710000238,0.92389536,-1.2310475,1.2712631,4.9580946,1.2181821,-4.4588795
72,0.720000238,0.92389536,-1.2310475,1.2712631,4.9580946,1.2181821,-4.4588795
73,0.730000238,0.92389536,-1.2310475,1.2712631,4.9580946,1.2181821,-4.4588795
74,0.740000238,0.92389536,-1.2310475,1.2712631,4.9580946,1.2181821,-4.4588795
75,0.750000238,0.92389536,-1.2310475,1.2712631,4.9580946,1.2181821,-4.4588795
76,0.760000238,0.92389536,-1.2310475,1.2712631,4.9580946,1.2181821,-4.4588795
77,0.770000238,0.92389536,-1.2310475,1.2712631,4.9580946,1.2181821,-4.4588795
78,0.780000238,0.92389536,-1.2310475,1.2712631,4.9580946,1.2181821,-4.4588795
79,0.790000238,0.92389536,-1.2310475,1.2712631,4.9580946,1.2181821,-4.4588795
80,0.800000238,0.92389536,-1.2310475,1.2712631,4.9580946,1.2181821,-4.4588795
81,0.810000238,0.92389536,-1.2310475,1.2712631,4.9580946,1.2181821,-4.4588795
82,0.820000238,0.92389536,-1.2310475,1.2712631,4.9580946,1.2181821,-4.4588795
83,0.830000238,0.92389536,-1.2310475,1.2712631,4.9580946,1.2181821,-4.4588795
84,0.840000238,0.92389536,-1.2310475,1.2712631,4.9580946,1.2181821,-4.4588795
85,0.850000238,0.92389536,-1.2310475,1.2712631,4.9580946,1.2181821,-4.4588795
86,0.860000238,0.92389536,-1.2310475,1.2712631,4.9580946,1.2181821,-4.4588795
87,0.870000238,0.92389536,-1.2310475,1.2712631,4.9580946,1.2181821,-4.4588795
88,0.880000238,0.92389536,-1.2310475,1.2712631,4.9580946,1.2181821,-4.4588795
89,0.890000238,0.92389536,-1.2310475,1.2712631,4.9580946,1.2181821,-4.4588795
90,0.900000238,0.92389536,-1.2310475,1.2712631,4.9580946,1.2181821,-4.4588795
91,0.910000238,0.92389536,-1.2310475,1.2712631,4.9580946,1.2181821,-4.4588795
92,0.920000238,0.92389536,-1.2310475,1.2712631,4.9580946,1.2181821,-4.4588795
93,0.930000238,0.92389536,-1.2310475,1.2712631,4.9580946,1.2181821,-4.4588795
94,0.940000238,0.92389536,-1.2310475,1.2712631,4.9580946,1.2181821,-4.4588795
95,0.950000238,0.92389536,-1.2310475,1.2712631,4.9580946,1.2181821,-4.4588795
96,0.960000238,0.3879668785714286,-1.3587509428571427,0.5199780114285715,4.866467485714286,1.0553476885714286,-4.615954571428572
97,0.970000238,-0.7687469699999999,-1.94223,-1.5982509314285716,4.705443557142857,-1.2459756857142856,-2.5012014571428574
98,0.980000238,-1.0104298666666667,-2.1989443,-2.2096360833333333,3.816420766666667,-1.110367625,-2.350031283333333
99,0.990000238,-1.0244805114285715,-2.3571411714285717,-2.6257543,2.333021971428572,-0.8817361785714286,-2.2634946142857144
100,1.000000238,-1.2074093057142858,-3.038169457142857,-2.2616303285714285,0.5363675791428572,-0.3712423914285714,-2.3928195999999997
101,1.010000238,-1.744802,-3.3028859666666666,-2.0284975333333333,-0.9839731416666666,0.07101099500000001,-2.4436944166666668
102,1.020000238,-2.3127307428571426,-3.439408014285714,-1.5968658714285715,-1.4156386,-0.12446013,-2.025264
103,1.030000238,-2.6221042,-3.4277003,-1.2399809000000002,-1.557355,-0.704765,-1.1212101
104,1.040000238,-2.62365915,-3.3235374833333338,-1.12362251,-1.5347536999999998,-1.22459605,0.006337554666666634
105,1.050000238,-2.2790527857142857,-3.0297238571428573,-0.9177495028571429,-1.635369,-1.6271444142857143,1.6268826285714284
106,1.060000238,-1.5408519999999999,-2.774112214285714,-0.7488590214285714,-1.9160096428571427,-1.8266296285714285,2.96394
107,1.070000238,-1.2398457714285713,-2.6523369142857143,-0.7110998657142857,-2.1973485142857143,-1.94845,3.5890985571428575
108,1.080000238,-1.0846364,-2.5818273999999994,-0.66695964,-2.3465698,-1.9606669999999997,3.8255837
109,1.090000238,-0.6438615828571429,-2.385309085714286,-0.2517132932857143,-2.981327285714286,-1.7224366285714285,4.861253571428571
110,1.100000238,-0.38973819666666665,-2.3032288,-0.013288376166666666,-3.1791545666666665,-1.5057894333333335,5.523281166666666
111,1.110000238,-0.17336378,-2.2609248,0.047106408,-3.2677274000000005,-1.3021736,6.057772
112,1.120000238,0.16213925257142855,-2.241916685714286,-0.017487954857142857,-3.5932218,-1.0042546714285714,6.989227057142857
113,1.130000238,0.39321544,-2.259975142857143,-0.04260266191428571,-3.985560142857143,-0.9023304999999999,7.610894999999999
114,1.140000238,0.8062512700000001,-2.3087476,0.07992844665,-4.636839566666667,-0.8912770666666666,8.335010666666667
115,1.150000238,1.3042136857142856,-2.4219184,0.3277586657142857,-5.112529785714286,-1.0363678285714286,8.661726571428572
116,1.160000238,2.0188503142857144,-2.4711546285714285,0.8951349642857143,-5.552274414285714,-1.406192242857143,8.808679571428572
117,1.170000238,2.254743871428571,-2.4266964142857144,1.3261270428571428,-5.485931842857142,-1.7266252857142856,8.670453571428572
118,1.180000238,2.2691415166666666,-2.318869916666667,1.61282275,-5.1821227,-2.0156434,8.542699
119,1.190000238,2.2146416,-2.151101,1.919929,-4.100923,-2.356496,8.465733
120,1.200000238,2.0642842,-2.0115806857142857,1.7605339142857144,-3.133689957142857,-2.386514871428571,8.568528857142857
121,1.210000238,2.011606857142857,-1.9746928142857143,1.4552287428571429,-2.1875748857142856,-2.2741189428571427,8.846726285714285
122,1.220000238,2.0054981499999998,-2.0238223,0.8762706499999999,-1.9499262333333334,-2.0498506666666665,9.128298000000001
123,1.230000238,2.2893322857142855,-2.0535213857142858,0.6532306285714286,-2.2626218285714286,-1.6660641428571428,9.33994192857143
124,1.240000238,2.892198457142857,-2.0647111285714286,0.7623876871428571,-2.7537430571428567,-1.1864617714285715,9.185659214285716
125,1.250000238,3.176474542857143,-2.0039671,1.0648617642857143,-3.2174633,-0.7110480428571428,8.507095428571429
126,1.260000238,2.951082528571429,-1.8579263714285712,1.2867213714285715,-3.3403309857142855,-0.4921902142857143,7.927837285714285
127,1.270000238,2.7061641,-1.8052882999999997,1.3498348,-3.3508027,-0.36391225,7.633758
128,1.280000238,2.4684672,-1.7594014,1.3979169,-3.3471375,-0.30404922,7.5372443
129,1.290000238,1.7753474,-1.6164052000000002,1.6243936,-3.152888,-0.3761292,7.8243427
130,1.300000238,1.6252734,-1.6171022,1.5764596,-2.9595112,-0.42848754285714286,8.167114871428572
131,1.310000238,1.7350910666666666,-1.7685279999999999,1.2250511333333334,-2.6670608666666666,-0.20875705333333336,9.054588666666666
132,1.320000238,2.1564847,-1.9085086,0.9178279500000001,-2.822681542857143,0.19003894,9.675210071428571
133,1.330000238,2.6778492000000003,-1.9145324,1.0027109666666667,-3.1724353,0.27829182,9.593763666666666
134,1.340000238,3.190456,-1.8111161285714286,1.3520693142857143,-3.4607552142857143,-0.01712553428571429,8.994900285714285
135,1.350000238,3.4594499000000005,-1.501693333333333,1.8593157666666666,-3.197683566666667,-0.6998782466666666,8.2889932
136,1.360000238,3.724807814285714,-1.3029767428571428,2.0143074142857142,-2.7144743,-1.2608105857142857,7.670583428571428
137,1.370000238,3.8125961285714283,-1.1743934285714286,1.9532193142857144,-2.318470742857143,-1.4184092428571429,7.135306857142857
138,1.380000238,3.8414743,-0.8286154,1.734217,-1.8640004,-1.1335799,6.39496
139,1.390000238,4.020148416666666,-0.66623297,1.2100858499999998,-1.7607672666666667,0.029066141206666656,5.5529833
140,1.400000238,3.706426985714286,-0.4621524042857143,0.7405571785714286,-2.374843342857143,1.5531446714285715,4.231884257142857
141,1.410000238,3.01272155,-0.11716640166666666,0.720072525,-3.0869167,2.1675916,3.5983484000000003
142,1.420000238,2.5312060714285716,0.43556113999999996,1.1635173285714286,-5.007092928571429,1.987107942857143,3.6322069
143,1.430000238,2.8340676333333334,0.5126722166666666,1.8117265833333331,-5.571792300000001,1.7060455,3.843094583333333
144,1.440000238,3.8968998,0.4745268,3.368158285714286,-5.663928385714286,1.762229,3.9131965714285712
145,1.450000238,4.1372538,0.750867,4.326228,-4.627676966666667,2.059878916666667,3.742915783333333
146,1.460000238,4.116002,1.1010703,4.816043,-3.4741937999999997,2.1077285,3.8732297
147,1.470000238,4.316136,1.5906111,5.274362599999999,-1.6514256,1.8963753,4.0063944
148,1.480000238,5.0421844,2.3945298,4.686676,2.2899137,-0.013285927499999997,3.9453096
149,1.490000238,5.528745828571429,2.583399857142857,3.4535463142857146,3.7548998428571427,-0.8813871610714286,3.5725183714285715
150,1.500000238,6.032273,2.5245984,1.9228560000000001,4.3338084,-1.6479132000000003,2.8237941
151,1.510000238,6.291163971428572,2.7371893714285713,1.0247636,3.2814059714285713,-1.707950742857143,2.130918842857143
152,1.520000238,6.7126681999999995,2.6073981,0.9345463666666666,1.7327955833333333,-1.2543238916666668,1.1331725899999998
153,1.530000238,6.8723526,2.1133333571428574,1.4893900142857144,-0.32204740000000004,0.8719626500000002,-0.885314
154,1.540000238,6.2571772857142856,1.5529390571428572,1.834375342857143,-0.9714652714285714,2.3923833428571433,-2.561064385714286
155,1.550000238,5.3022455,1.04305885,1.9560846833333336,-1.2649627833333332,3.47073245,-3.8983254333333335
156,1.560000238,4.192653,0.6700696,2.0722246,-1.3667707,4.1589537,-4.8339396
157,1.570000238,3.0063340000000003,0.34550798,2.208391,-1.1855527833333335,4.42670845,-5.25746035
158,1.580000238,2.228379142857143,0.19343463714285716,2.2621486,-0.7094991285714286,4.4551273714285715,-5.380909671428571
159,1.590000238,1.5137469166666666,0.14392607999999998,2.1652331,0.08554405100000001,4.06284695,-5.084590700000001
160,1.600000238,1.1906357142857142,0.18538101999999998,2.0313031857142856,0.7736162142857143,3.4974932,-4.674246699999999
161,1.610000238,1.0984439142857143,0.3208505914285714,1.8085287857142858,1.301911857142857,2.9529664857142857,-4.275450928571429
162,1.620000238,1.1791542,0.35624027,1.7369,1.560562,2.6807032,-4.0398383
163,1.630000238,1.4486429,0.3352547557142857,1.7504549285714286,1.792335,2.3716144285714287,-3.9133057428571427
164,1.640000238,1.6635879666666666,0.2577335316666667,1.7878431666666668,2.0103492,2.2268437,-3.9964681666666664
165,1.650000238,1.809356442857143,0.10487110528571428,1.8222317285714287,2.2562296857142856,2.287317557142857,-4.2377528571428575
166,1.660000238,1.8785853,-0.023995303,1.8320581,2.4059746,2.3752797,-4.384356
167,1.670000238,1.7966031,-0.22731727471428573,1.8278766999999998,2.9169919428571434,2.5878544714285714,-4.763430514285715
168,1.680000238,1.672053142857143,-0.3398412385714286,1.7995823714285717,3.4000848428571433,2.696585257142857,-4.936562
169,1.690000238,1.6632220666666668,-0.5083782333333333,1.7339680833333333,3.897256383333333,2.7458602333333335,-4.9241414
170,1.700000238,1.8791819285714286,-0.8505069714285715,1.578537242857143,4.629633042857143,2.6679627142857143,-4.939878171428572
171,1.710000238,2.0020071,-1.2172255333333333,1.3612989000000002,5.067843283333333,2.3359817166666663,-5.206353
172,1.720000238,1.9640126999999998,-1.3522697000000001,1.2102361571428573,5.2839595571428575,2.0518796000000004,-5.437456857142857
173,1.730000238,1.87587675,-1.4364811333333334,0.9831925333333333,5.308644583333334,1.8405591666666667,-5.592408266666666
174,1.740000238,1.751648242857143,-1.4311375714285715,0.8195948,5.148679,1.7630579999999998,-5.6341496
175,1.750000238,1.6738477,-1.3635552,0.8068154,4.8261514,1.8363596,-5.513201700000001
176,1.760000238,1.8297714,-1.3909043,1.0506406,4.5256147,1.9366913,-5.1185946
177,1.770000238,1.9371557,-1.432858,1.1192117,4.524567528571429,1.9482101,-5.023302514285715
178,1.780000238,2.1212111166666667,-1.4875869166666666,1.1883467833333332,4.612355,1.9664191000000002,-4.939819966666667
179,1.790000238,2.276077914285714,-1.5598428428571427,1.1612524142857144,4.864198457142857,1.8759337142857144,-5.062047628571428
180,1.800000238,2.23289955,-1.6447047333333333,1.0012829833333334,5.257435116666667,1.58082175,-5.541504450000001
181,1.810000238,1.9837743,-1.6703414,0.8229444,5.3369727,1.5248275,-5.7257767
182,1.820000238,1.5778185857142855,-1.5579568428571429,0.6506738428571428,5.280054657142857,1.5269218285714286,-5.763649285714286
183,1.830000238,1.341125,-1.4830540333333333,0.5684071666666667,5.153769333333334,1.5451890666666668,-5.619693000000001
184,1.840000238,1.2508612857142858,-1.4683957285714284,0.5279575857142856,4.947622928571429,1.5171482285714286,-5.2931224285714285
185,1.850000238,1.2526035,-1.4785008,0.5244513,4.8505855,1.49062,-5.133255
186,1.860000238,1.2962952,-1.4936237,0.52618927,4.6954303,1.4258702,-4.8669257
187,1.870000238,1.3209612,-1.4382241,0.5134751,4.627015433333333,1.3770024,-4.8188723
188,1.880000238,1.4053172428571428,-1.3993891285714286,0.6264651357142857,4.452487571428572,0.9438244428571428,-4.848774728571429
189,1.890000238,1.5115059166666667,-1.4326242166666667,0.8218264316666666,4.3545775,0.41675055,-4.9707694
190,1.900000238,1.3493687142857145,-1.5740596,0.9003312714285715,4.406411914285714,-0.16337981999999998,-5.247221571428571
191,1.910000238,1.1122905,-1.6622616,0.88151485,4.4755254,-0.36757734,-5.381259
192,1.920000238,0.5124558342857143,-1.6471430714285713,0.8317166857142857,4.593331571428572,0.16490693857142857,-5.2990565
193,1.930000238,0.0041465857142857065,-1.4923388142857144,0.7860389142857143,4.793340371428571,0.8891972499999999,-4.964661214285714
194,1.940000238,-0.3171780533333333,-1.3267186,0.7120943833333334,4.999428683333334,1.3320033333333334,-4.558447583333333
195,1.950000238,-0.40501927714285707,-1.3357442714285717,0.57995978,5.218315600000001,1.534601,-4.2072105
196,1.960000238,-0.46499666999999995,-1.4894772000000003,0.43319598,5.483143016666666,1.3930879999999999,-4.061625416666667
197,1.970000238,-0.48987615,-1.7430285428571428,0.16270984285714288,5.9954658,1.2145171,-4.0117393
198,1.980000238,-0.8269777271428571,-2.0261896999999998,-0.87856174,6.117984328571429,1.0914749928571428,-4.241417771428572
199,1.990000238,-1.4794054666666667,-2.1479658333333336,-2.22379345,5.8144259666666676,0.9911505916666666,-4.418359833333334
200,2.000000238,-2.2310099,-2.100963142857143,-3.1071585285714285,4.502227828571429,1.0949655,-4.200054857142857
201,2.010000238,-2.7632913,-2.1215719666666666,-3.406753633333333,2.6735256333333335,1.3326141999999999,-3.5356858666666664
202,2.020000238,-2.9879357285714283,-2.3348226,-2.9947915000000003,1.027728757142857,1.734478985714286,-2.6429178285714285
203,2.030000238,-3.0334189166666667,-2.4808004166666664,-2.6268810666666664,0.24235365,1.9806722,-2.0399244
204,2.040000238,-2.9313295,-2.6040545,-2.3448014,-0.34176904,1.9843373,-1.1798515
205,2.050000238,-2.817986642857143,-2.6084405714285714,-2.0921995142857144,-0.6779095714285714,1.6335583,-0.04526815714285716
206,2.060000238,-2.7236345000000006,-2.5469475,-1.8701092,-0.7913526000000001,1.2975923,0.7261447
207,2.070000238,-2.5255392714285714,-2.465984614285714,-1.6789133714285713,-0.8154374571428571,1.04208362,1.3261711857142857
208,2.080000238,-1.9208538333333331,-2.404693216666667,-1.4599073333333334,-0.8345191333333334,0.07997008,2.7403117333333333
209,2.090000238,-1.3789872714285714,-2.3603249714285712,-1.380633757142857,-0.8915315999999999,-0.43477052,3.2868164
210,2.100000238,-1.0328295833333332,-2.2991178833333334,-1.2998726833333334,-1.1533814666666666,-0.9197833000000001,3.960784333333333
211,2.110000238,-0.7438587257142857,-2.162752557142857,-1.1435641428571428,-1.4728836285714286,-1.1700561571428572,4.5987852
212,2.120000238,-0.5699025914285715,-2.0632868571428573,-0.9793733428571428,-1.7674866,-1.2281738571428573,5.201888185714286
213,2.130000238,-0.37038745,-2.0140351666666665,-0.87444635,-1.9629576,-1.244754,5.6338444
214,2.140000238,-0.18775485,-1.971731,-0.8221821,-2.3572160285714285,-1.2407397857142857,6.262493214285715
215,2.150000238,0.011159187,-1.9902686,-0.83145094,-2.7509506,-1.1946645,6.7284827
216,2.160000238,0.15392667283333333,-2.003074183333333,-0.7421673233333334,-3.3825667,-1.0199622,7.258698
217,2.170000238,0.34103470428571425,-2.0524934999999997,-0.5465214285714286,-3.869499342857143,-0.9248445571428572,7.6173522857142855
218,2.180000238,0.85876454,-2.1722405333333334,-0.123025465,-4.8983079,-0.8686756833333332,8.280238
219,2.190000238,1.2529650999999997,-2.2606805857142858,0.19817358428571427,-5.452444528571428,-1.0080943142857142,8.534146999999999
220,2.200000238,1.4582559,-2.28560075,0.45191152500000004,-5.741607916666666,-1.2683734833333333,8.616000833333333
221,2.210000238,1.7290556142857143,-2.2941058857142855,0.64784704,-5.884749571428571,-1.6056774714285713,8.650731714285714
222,2.220000238,1.9922198142857144,-2.310043257142857,0.7707462142857143,-5.9435656,-1.8259315714285713,8.578302714285714
223,2.230000238,2.2087161666666666,-2.2968209500000003,0.8934363166666666,-5.9415585,-1.9179077,8.394466833333334
224,2.240000238,2.3413344285714284,-2.2867447857142857,1.0151114857142856,-5.883528,-1.8934737,8.129766
225,2.250000238,2.363522,-2.2616563,1.12409,-5.7405896,-1.772526,7.760814
226,2.260000238,2.2566254,-2.1889386,1.1565614,-5.5206846999999994,-1.5697248,7.430957
227,2.270000238,2.006483983333333,-2.13278685,1.1516577333333333,-5.268073866666666,-1.3854524666666668,7.282317583333334
228,2.280000238,2.0103917,-2.0847254,1.1704646,-4.990317,-1.4060177,7.2843537
229,2.290000238,2.0947822857142855,-2.0658654285714286,1.2564322428571428,-4.70444,-1.6808989,7.2696934
230,2.300000238,2.12588105,-2.0198485500000003,1.2991865833333334,-4.149790866666667,-2.4139157,7.2770233
231,2.310000238,2.2218150714285714,-1.938401357142857,1.1904266857142858,-3.7511693999999998,-2.916206642857143,7.3185609000000005
232,2.320000238,2.3547206666666667,-1.8650681666666669,0.9266597499999999,-3.5118627833333336,-3.1304393833333335,7.3271128333333335
233,2.330000238,2.3612134857142855,-1.8237213857142858,0.7588334728571429,-3.5588398285714287,-2.8903764714285716,7.2756270857142855
234,2.340000238,2.2969022,-1.7984586,0.76388603,-3.8468106,-2.2746425,7.2599196
235,2.350000238,2.2399826000000003,-1.7785706571428572,0.8789276042857143,-3.9588575142857145,-2.0442657285714287,7.250495057142857
236,2.360000238,1.8300154,-1.6139661,1.4930749,-3.9283152,-1.7158044857142856,7.321178957142857
237,2.370000238,1.6849459,-1.4194832166666667,1.8186376333333334,-3.2874781166666662,-1.8053081333333332,7.716833633333333
238,2.380000238,1.9246505571428574,-1.2889167285714287,1.8146704285714286,-2.1987447,-1.8669455857142856,8.196086857142857
239,2.390000238,2.6900349,-1.2598295,1.4642928,-1.6306567,-1.7395403,8.276369
240,2.400000238,3.97023175,-1.028921775,0.931624425,-1.321568,-1.3608149,7.6288714
241,2.410000238,4.3842976857142855,-0.4006592628571429,0.6269921428571429,-1.7280432857142856,-1.3604658571428572,5.157012657142857
242,2.420000238,4.042344766666667,-0.181895775,0.5822748000000001,-2.1954868333333333,-1.4882784666666666,3.9332964
243,2.430000238,3.4068146,-0.13918495,0.5771678,-2.857238,-1.4414468,2.8103554
244,2.440000238,3.1373782,-0.22604977,0.6891866,-3.1712136,-1.2789614,2.48905
245,2.450000238,2.5185158666666667,-0.134326945,1.0642084333333333,-3.5263194666666666,-0.6909191333333333,2.383169666666667
246,2.460000238,2.436056757142857,-0.16916492285714285,1.0787345857142856,-3.8242964,0.2724160714285714,2.5675872857142856
247,2.470000238,2.6321657666666667,-0.24961313166666665,0.9270205166666666,-4.326529333333333,1.3199900333333334,2.8457847333333333
248,2.480000238,2.9867989285714285,-0.025484935428571432,1.3114527571428571,-5.2749715,2.117502,3.0107133
249,2.490000238,3.4544342666666665,0.016362743166666666,2.0459780166666666,-6.065968066666667,2.0303290166666668,3.2754139666666666
250,2.500000238,4.327116457142857,0.049049029142857144,3.4351003142857146,-5.443325285714286,0.9960083,3.4341178714285716
251,2.510000238,5.608999057142857,0.2921207042857143,4.592728914285714,-3.9064991142857144,0.13453912000000004,3.0265953857142853
252,2.520000238,5.820929333333333,0.48867688000000004,4.594678833333334,-2.1539492,-0.4402681566666667,2.2318830833333334
253,2.530000238,5.5694539999999995,0.6894914285714285,4.196651771428572,-0.38153954285714287,-0.7550290414285714,1.2383837
254,2.540000238,5.158838,0.7943146,3.5655434000000006,0.4793624,-0.79272705,0.7933379
255,2.550000238,5.158838,0.7943146,3.5655434,0.4793624,-0.79272705,0.7933379
256,2.560000238,4.852169142857143,1.3627580714285714,2.4001444142857147,0.6599986557142856,-0.3776999542857143,0.6776259571428572
257,2.570000238,5.3203001,1.5315730666666667,2.3978533333333334,-0.4313599666666666,0.6423568066666666,0.07783213333333333
258,2.580000238,5.386729557142857,1.4878481714285716,2.6295132285714287,-0.9550596714285715,1.7585638428571428,-0.9022432
259,2.590000238,4.967505249999999,1.377616,2.884319666666667,-1.1301692333333333,3.2349452666666667,-2.4039894
260,2.600000238,3.8866859,1.0102505714285714,3.1012611142857147,-0.9550597,4.0111284,-3.3251472
261,2.610000238,2.892496083333333,0.78438014,3.046773333333333,-0.25497781999999997,4.184201933333333,-4.282140999999999
262,2.620000238,1.9774280571428573,0.6148224571428571,2.9286725714285713,0.3662683728571428,3.8376479857142862,-4.620317999999999
263,2.630000238,1.4741017714285714,0.5057394228571429,2.8671620857142854,0.7764086685714285,3.5643373714285715,-4.668662228571429
264,2.640000238,1.1703732,0.40554196000000003,2.8663256,1.2978977,3.3025457999999994,-4.5859356
265,2.650000238,0.9724348,0.33206207,2.8438854,1.9324806714285714,3.0889236857142857,-4.414200257142857
266,2.660000238,0.956580175,0.25987797,2.7131106499999995,2.711194666666666,2.972891833333333,-4.137166616666667
267,2.670000238,1.1337987571428572,0.15336260857142858,2.4711286,3.665541714285714,2.8651790285714287,-3.8188862
268,2.680000238,1.5527024,-0.0007215900000000034,2.1369641666666666,4.336659333333333,2.733439583333333,-3.6578552666666666
269,2.690000238,2.0156403000000003,-0.17105093142857145,1.8398329142857144,4.800845071428571,2.5909959,-3.7864240857142852
270,2.700000238,2.720515957142857,-0.4910173428571429,1.4753865428571429,4.857741071428571,2.8800139571428574,-4.298488714285714
271,2.710000238,3.2250762666666666,-0.8579769333333335,1.4189852333333335,4.720271333333334,3.3196494333333333,-4.932489666666666
272,2.720000238,3.374260457142857,-1.1593273,1.462236942857143,4.657557571428571,3.6212334857142854,-5.508511400000001
273,2.730000238,3.3018696,-1.3733119,1.4864892,4.716199,3.8620818,-6.0374618
274,2.740000238,2.9795032,-1.7008309,1.433041,4.8896794,4.049001,-6.342885
275,2.750000238,2.7671649999999994,-1.8533224428571429,1.3577490571428572,5.029999942857144,4.108689514285714,-6.399432428571429
276,2.760000238,2.551988383333333,-1.9464753666666665,1.2827729833333332,5.146235566666667,4.1113072,-6.320894733333334
277,2.770000238,2.3294784,-1.911692442857143,1.2782323142857142,5.3357506,4.038006,-6.027688
278,2.780000238,2.3092863,-1.8427955333333335,1.2831998333333332,5.6352695,3.9217413333333333,-5.646366666666666
279,2.790000238,2.4750441142857147,-1.8040644142857143,1.1379888142857142,5.920768000000001,3.6233279285714284,-5.345131714285714
280,2.800000238,2.8259068333333333,-1.7610275333333334,1.0376215,5.972049999999999,3.3628158999999997,-5.327504333333333
281,2.810000238,3.1109481285714287,-1.7967293142857144,0.9724086714285715,5.928971085714285,3.0705983428571426,-5.548827285714286
282,2.820000238,3.2278539,-1.8963082142857144,0.8960061085714287,5.841706714285714,2.853485614285714,-6.031702285714286
283,2.830000238,3.1146939000000002,-2.0105135,0.82928616,5.7328014,2.6880332999999994,-6.458946
284,2.840000238,2.817695,-2.1100926,0.7777893,5.5544343,2.6061797000000007,-6.7093935
285,2.850000238,2.6173986666666664,-2.104238666666667,0.8645016600000001,5.466879466666668,2.6224691166666667,-6.6829235
286,2.860000238,2.4433045285714283,-2.1082109714285715,1.0018877228571428,5.510627685714286,2.5943120285714287,-6.596474142857143
287,2.870000238,2.2265628833333335,-2.1700554166666666,1.1774162333333333,6.1518426999999996,2.3101225666666667,-6.324559866666667
288,2.880000238,2.0486693,-2.204161571428571,1.0992714242857142,6.600204499999999,2.097955,-6.2097206
289,2.890000238,1.866737742857143,-2.143805214285714,0.9552212742857142,6.862868857142857,1.6226721285714287,-6.1273433285714285
290,2.900000238,1.5035633333333331,-1.9632597333333335,0.7323648933333334,6.923749966666667,0.9681420833333334,-6.037665166666667
291,2.910000238,1.2868738857142858,-1.8145832,0.5981316285714285,6.768972857142857,0.49720787428571434,-5.843517714285714
292,2.920000238,1.0747070333333333,-1.6550355666666665,0.5011979333333333,6.5808608333333325,0.3267523783333333,-5.6072724166666665
293,2.930000238,1.0151507,-1.5873487,0.49518132,6.41695,0.34711397,-5.3384995
294,2.940000238,1.0029548,-1.5934466,0.40121245,6.306998,0.5242597,-5.1430283
295,2.950000238,0.9228282285714285,-1.5495155428571425,0.16190405285714288,6.232649257142858,0.8310795228571429,-5.0540194142857136
296,2.960000238,0.75036172,-1.4288943571428572,-0.5004386057142857,5.683344714285714,1.7362460457142856,-4.913699
297,2.970000238,0.5777521833333333,-1.3190302166666668,-0.9449890833333333,5.037097333333333,2.5831712000000002,-4.789551566666666
298,2.980000238,0.5752034428571429,-1.6509804714285714,-1.06989258,4.387563142857143,3.1952110857142855,-4.717529714285715
299,2.990000238,0.5485380666666667,-2.0568171666666664,-0.9907438083333334,4.405481333333333,3.159607533333333,-4.957738166666666
300,3.000000238,0.2739794,-2.445661,-1.0342677,4.624572,2.873731,-5.207778499999999
301,3.010000238,-0.6607194166666667,-2.679755,-1.5360652000000001,4.8717614,1.9838791999999998,-5.2937043
302,3.020000238,-1.761374485714286,-2.8476834285714285,-2.2915491285714285,4.791246,0.8843104771428572,-5.007769714285715
303,3.030000238,-2.388066,-2.953526,-2.8228781,4.325257,0.36421767,-4.501639
304,3.040000238,-2.160614,-3.055788,-3.1167064000000004,3.200076,-0.23319094,-3.6635563
305,3.050000238,-2.8559419999999998,-3.233237371428572,-2.557204942857143,1.9260232714285712,-0.27699742,-2.288452
306,3.060000238,-2.2139504333333337,-3.20892705,-2.4388769999999997,1.0822686499999998,-0.3459940833333333,-1.358218955
307,3.070000238,-2.048677857142857,-3.3663551428571425,-1.9776458714285714,0.5896639542857143,-0.32150201,-0.7539818771428572
308,3.080000238,-2.1817024999999997,-3.139746216666667,-1.7459910833333332,0.27635749216666666,-0.40198839166666667,-0.12069323333333333
309,3.090000238,-2.1548776285714286,-3.015210842857143,-1.6022885999999998,-0.031153211714285717,-0.5267466485714286,0.6120034857142856
310,3.100000238,-1.9958176666666667,-2.8921199666666664,-1.5024961666666667,-0.4052971666666667,-0.71148436,1.4497950166666664
311,3.110000238,-1.8321496,-2.8171155,-1.4437733,-0.777914,-0.8550334600000001,2.1359801
312,3.120000238,-1.5317051,-2.6984806,-1.3002588,-1.3973131142857143,-0.9953537571428572,2.990642857142857
313,3.130000238,-1.1488171,-2.60503,-1.2055887,-1.9104248000000001,-1.0016367,3.5592542
314,3.140000238,-0.8785399,-2.5575446285714283,-1.1129176714285716,-2.5041683428571426,-0.908438957142857,4.0262906
315,3.150000238,-0.6006753,-2.499841,-0.9083457,-3.3056,-0.9320002,4.60869
316,3.160000238,-0.3736803542857143,-2.5052071714285717,-0.4631585714285714,-4.422577928571428,-1.1756409714285714,5.650075257142857
317,3.170000238,-0.265250676,-2.5029856857142856,-0.17720981428571428,-4.852788857142857,-1.3035698999999998,6.404384685714285
318,3.180000238,0.013415416000000005,-2.5341010666666666,0.2779024,-5.023302283333333,-1.5090472666666666,7.124515383333333
319,3.190000238,0.38949137142857143,-2.5389939142857143,0.7690431285714286,-4.852614171428571,-2.0109309714285715,7.8960734
320,3.200000238,0.69717485,-2.5264277,1.0662512,-4.341597,-2.6277122,8.487722
321,3.210000238,1.1587312583333331,-2.531778816666667,1.1349595000000001,-3.490075866666667,-3.158538566666667,9.002463
322,3.220000238,1.5340049714285713,-2.5193716142857143,1.070058042857143,-2.7851582,-3.4425824,9.333136
323,3.230000238,2.0274658,-2.4022133,0.8278227,-1.9079814,-3.3876061000000006,9.550597
324,3.240000238,2.2215886857142855,-2.336120642857143,0.5569184142857143,-1.6210577142857143,-3.1352389857142855,9.576776714285714
325,3.250000238,2.2462185,-2.229317116666667,0.21119118333333334,-1.7799071,-2.6808558833333334,9.651386666666665
326,3.260000238,2.2194543571428573,-2.238985242857143,0.020658869428571428,-2.4772911428571427,-2.2906991142857143,10.008754714285715
327,3.270000238,2.2871254166666666,-2.3431245166666668,0.04821419333333334,-3.2147874,-1.97695625,10.405325166666668
328,3.280000238,2.4190916000000002,-2.5220417714285714,0.22016528285714285,-3.911036842857143,-1.6777573999999997,10.738585857142857
329,3.290000238,2.5424480714285713,-2.705231857142857,0.4052240028571429,-4.559233185714286,-1.3300981142857142,11.017830142857141
330,3.300000238,2.598048,-2.821506,0.53667766,-4.8681474,-1.1311364,11.160942999999998
331,3.310000238,3.215597028571428,-2.984843157142857,0.9412918542857144,-4.982812,-1.1100185285714286,11.052560714285715
332,3.320000238,3.9219969999999997,-2.9706001,1.1448228,-4.796067,-1.0663866,10.607515
333,3.330000238,4.1997266,-2.7697651,1.2129366000000001,-4.5065255,-0.85014665,9.907331
334,3.340000238,3.7661910714285716,-2.3677208857142853,1.2247056571428572,-4.143158814285714,-0.6187228357142857,9.166984142857142
335,3.350000238,3.105628316666667,-2.0593834,1.1259092116666667,-3.2787227666666667,-0.8281561333333333,8.440076333333332
336,3.360000238,2.8023804857142856,-1.915338257142857,0.9582527928571428,-2.9858651285714286,-1.1527778142857144,8.435015428571429
337,3.370000238,2.733492866666667,-1.80727,0.8572299,-2.676834566666667,-1.7741550000000001,8.508084333333334
338,3.380000238,2.7965264142857142,-1.6494516428571429,0.6629089085714286,-2.5237154999999993,-2.0828364,8.509713
339,3.390000238,2.7344582,-1.568567,0.48981518000000007,-2.5005033,-2.2917461,8.515821
340,3.400000238,2.692522085714286,-1.2455691714285713,0.2871160442857143,-2.7999929571428575,-1.997492385714286,8.615302714285715
341,3.410000238,2.7593684,-1.0928992,0.21184163000000003,-3.041714,-1.6039321,8.664868
342,3.420000238,3.2930122333333336,-1.0056735333333333,0.22972885499999998,-3.401706666666667,-1.06068534,8.635548
343,3.430000238,4.449693571428571,-0.8199737942857143,0.40774155142857144,-4.223441657142858,-0.12184221285714283,7.776871057142857
344,3.440000238,4.67536425,-0.019116964999999986,1.12982203,-4.8559304,0.33693318,5.3299986666666666
345,3.450000238,4.3864145,0.32864723,1.5070087,-5.017193999999999,0.2970245,3.5397072
346,3.460000238,3.85192195,0.40150716833333333,1.8252437166666666,-4.7807960666666665,0.06693868233333333,2.3693238500000002
347,3.470000238,3.2678127714285714,0.4327561085714286,2.0104091,-4.4148984,0.050242186,1.4921471
348,3.480000238,2.5846196,0.38747905857142856,1.9090486571428573,-3.849603057142857,0.846787,1.1924829285714285
349,3.490000238,2.13398125,0.44385211500000005,1.7547059999999999,-3.6888048666666666,1.4992227666666667,1.4424649333333333
350,3.500000238,1.9254477,0.5207316,1.7173562,-3.6757734,1.9049271,1.7902406
351,3.510000238,2.1814687,0.8904483,2.2515948,-3.7276954,1.6950756833333334,3.0709836
352,3.520000238,3.009600614285714,1.0479574714285713,2.9776476,-3.445920257142857,0.6698158342857142,4.205705171428572
353,3.530000238,3.7357872666666663,1.0982958,3.3617407999999998,-3.130083133333333,0.034360159999999994,4.613576666666667
354,3.540000238,5.033948042857142,1.0878509857142857,3.690123842857143,-2.3017160857142858,-0.6632273885714286,4.6694257142857145
355,3.550000238,7.912539714285714,1.4767935142857145,3.3898580714285713,0.38424474285714283,-1.1108911428571429,1.8052499828571429
356,3.560000238,7.51611455,1.6468288666666666,2.709243433333333,0.6373682133333334,-0.6713720566666667,-0.7488987466666667
357,3.570000238,6.366151014285714,1.2319534571428572,2.1855500857142856,0.18157434857142854,0.12494007857142857,-1.9777925714285713
358,3.580000238,5.7054853,0.8953266000000001,2.1168613,-0.31244838,0.8919897,-2.457744
359,3.590000238,5.054650185714286,0.63937529,2.3806963285714287,-0.8929278285714286,2.0834691,-2.639078428571428
360,3.600000238,4.600451,0.44947743,2.7677530000000004,-1.0185878,2.7955425,-2.693531
361,3.610000238,4.236248942857143,0.17209191857142855,3.0482483714285715,-0.5442212857142857,3.340069157142857,-2.9417094285714285
362,3.620000238,4.030792685714286,0.048661376,3.1050592571428575,-0.1928968457142857,3.5355402285714286,-3.1160626714285713
363,3.630000238,3.137378066666667,-0.11867562333333333,2.9211765333333335,1.1728776333333333,3.4426333000000002,-3.7197544666666666
364,3.640000238,2.663861828571428,-0.13998639142857144,2.6564615857142857,1.7850047857142857,3.1465179285714284,-3.882414342857143
365,3.650000238,2.479926166666667,-0.12702468233333333,2.4643917500000003,2.2225169166666667,2.9071239166666665,-3.953912583333333
366,3.660000238,2.4607750000000004,-0.07827982914285714,2.2768836857142856,2.592370342857143,2.814042371428571,-4.140017342857143
367,3.670000238,2.482284033333333,-0.08488808166666667,2.1467614333333334,2.80506145,2.86843685,-4.441368499999999
368,3.680000238,2.3716018,-0.18944921285714283,2.0103612285714285,3.0274682142857148,3.110565142857143,-4.932547757142857
369,3.690000238,2.1450845333333333,-0.31871778,1.9664460666666665,3.255459666666667,3.372589366666667,-5.288410066666667
370,3.700000238,1.9651233142857143,-0.4967798428571429,2.014198514285714,3.5749618,3.507092157142857,-5.447928714285714
371,3.710000238,1.8947141,-0.6799787,2.0741758,3.9013287999999995,3.5236723,-5.498542
372,3.720000238,1.8580962,-0.88889337,2.0861278,4.4975157,3.4491491,-5.485103
373,3.730000238,1.9341023428571429,-1.211385962857143,2.0038494428571427,5.207953057142857,3.4020265285714286,-5.431872071428572
374,3.740000238,2.07794135,-1.5772261333333333,1.7983061500000002,6.078133666666667,3.35691115,-5.392457716666667
375,3.750000238,2.2705811428571425,-1.9072584714285714,1.4224567,6.6068364285714285,3.367993485714286,-5.393126657142857
376,3.760000238,2.385701,-2.0101041428571427,1.1208711857142857,6.831977357142857,3.405342442857143,-5.420702185714285
377,3.770000238,2.48241615,-2.0406678,0.8702743333333333,6.8445435,3.4283803,-5.4667773
378,3.780000238,2.547003971428572,-2.0629905714285717,0.6496590114285715,6.569138757142857,3.4660783571428575,-5.576380757142857
379,3.790000238,2.5746014,-2.0908232,0.49005908,6.126187300000001,3.4796915,-5.6988993
380,3.800000238,2.5048108,-2.070578,0.44709927,5.747462,3.5261159999999996,-5.724555
381,3.810000238,2.4442127166666663,-2.0121905000000004,0.4507580283333333,5.600858666666667,3.5566581666666663,-5.708265833333333
382,3.820000238,2.4050663142857145,-1.9281874285714287,0.47625165142857145,5.3690855,3.6177428142857146,-5.657885642857143
383,3.830000238,2.419161257142857,-1.8287477714285714,0.47403028857142854,4.949739214285715,3.5821393,-5.607621385714286
384,3.840000238,2.4527193,-1.83432965,0.6235577499999999,4.621925,3.4524069999999996,-5.682203066666666
385,3.850000238,2.4022482,-1.8789903142857143,0.7826023142857144,4.486869571428572,3.2950410285714287,-5.766790857142857
386,3.860000238,2.3190987,-1.9253561,0.9569156,4.5993234,3.0354018833333334,-5.788694
387,3.870000238,2.1287522,-1.9807558,1.1484816,4.8579154,2.7686653,-5.730664
388,3.880000238,2.01159595,-1.9903092166666667,1.2456926,5.349163966666667,2.31152235,-5.5113695
389,3.890000238,2.0142944,-1.9968543,1.2739463,5.972254,1.794822,-5.206556999999999
390,3.900000238,2.1534030666666664,-1.9956348000000002,1.1173314666666665,6.461949833333333,1.4181328333333332,-5.031447
391,3.910000238,2.2216626285714285,-1.979919585714286,1.0298205571428571,6.636332,1.2768235000000001,-4.979146714285714
392,3.920000238,2.3671808,-1.9438938,0.7865702499999999,7.014359,0.9860602,-4.901133
393,3.930000238,2.866655966666667,-1.9333597500000002,0.4961671433333333,7.304918833333333,0.806878315,-5.085405333333334
394,3.940000238,3.0273108,-1.8819085,0.33264135999999994,7.383311,0.53403324,-5.505872000000001
395,3.950000238,2.9000065999999998,-2.0141113333333336,-0.2678713133333333,7.181731233333333,0.6676051800000001,-6.2829713
396,3.960000238,2.6274354571428566,-2.2353742857142858,-0.9531566285714286,6.812081214285714,1.2335624714285716,-7.170146971428571
397,3.970000238,1.7863338466666665,-2.494032583333333,-1.3621271666666666,6.3680825,2.0881813,-7.816249
398,3.980000238,-0.05279490285714285,-2.498943671428571,-1.7009571285714287,5.543242528571429,2.1815319142857144,-7.930215428571428
399,3.990000238,-1.4038275857142857,-2.243114342857143,-1.7956056,4.986368085714285,1.2827574842857143,-7.017762571428571
400,4.000000238,-2.0334723,-2.2079642,-1.6531758000000003,4.5109544,0.18218519,-5.752654
401,4.010000238,-1.9719748,-2.320227,-1.5465231,4.31304,-0.47142136,-5.006199
402,4.020000238,-1.3003502,-2.7055845,-1.6194847999999997,3.980128,-1.3408606433333334,-3.9575775833333338
403,4.030000238,-1.3027893428571429,-2.741301,-1.7744590142857142,3.512480828571429,-1.3765225571428572,-3.532137014285714
404,4.040000238,-1.6459648666666666,-2.7633268166666665,-1.7770549500000001,2.709565733333333,-0.9792390866666666,-3.156553216666667
405,4.050000238,-1.9519910285714286,-2.7136252714285716,-1.617102257142857,2.1516876285714286,-0.7990100228571428,-2.767530757142857
406,4.060000238,-2.0321461333333333,-2.6326385833333332,-1.4423098166666666,1.7753766833333333,-0.93138935,-2.2376353166666667
407,4.070000238,-1.8304987999999998,-2.6933149428571426,-1.4579987857142858,1.4516566999999998,-1.1534759285714284,-1.8116420857142859
408,4.080000238,-1.6086711833333334,-2.8575855333333333,-1.5305618,1.2099357,-1.1665655,-1.6502038
409,4.090000238,-1.5175581,-3.0757892,-1.5448158,0.81899345,-0.8525900999999999,-1.7283924
410,4.100000238,-1.9860217,-3.1468342857142857,-1.5355207714285712,0.2800516515714286,-0.4745628714285714,-1.722981957142857
411,4.110000238,-2.3895295,-3.1353352,-1.5896964,-0.014202199,-0.3981197,-1.5145957
412,4.120000238,-2.6008223285714287,-3.0604616285714283,-1.5008149714285715,-0.7305951198571429,-0.3614688714285714,-0.5898166428571429
413,4.130000238,-2.6178965333333335,-3.030003983333333,-1.4438597,-1.16600558,-0.32033849333333336,0.17271706666666664
414,4.140000238,-2.1775704,-2.7560928000000002,-0.93318602,-1.6423501,-0.29706811857142856,1.6502693142857143
415,4.150000238,-1.7607255857142856,-2.572806914285714,-0.6844084071428572,-1.7762128999999998,-0.30719073571428573,2.575615557142857
416,4.160000238,-1.4107478833333333,-2.433338216666667,-0.5409157083333334,-1.7919203999999997,-0.308936,3.3051417
417,4.170000238,-1.0528881142857143,-2.299245642857143,-0.5856308728571429,-1.803962857142857,-0.2982898057142857,4.160327971428571
418,4.180000238,-0.7307438999999999,-2.151589,-0.68674743,-1.8676655,-0.26862007,4.8261514
419,4.190000238,-0.24974017,-2.040546,-0.95371425,-2.3566925000000003,-0.0403377334,5.524742457142858
420,4.200000238,-0.11713589499999999,-2.0309925,-0.9988642083333333,-2.7558373999999994,0.12476555,5.919720600000001
421,4.210000238,-0.03992393428571428,-2.0164242571428574,-0.9851663999999999,-2.9071529857142857,0.13593533,6.031069371428571
422,4.220000238,0.4841136,-1.9246246,-0.6606178,-4.310356357142857,-0.12166768428571428,7.1096514
423,4.230000238,0.8044676666666666,-1.9124286333333333,-0.40159860333333336,-4.923937783333334,-0.84220565,7.751040666666667
424,4.240000238,1.1810010285714285,-1.9039263571428573,-0.021011665714285706,-5.285268514285714,-1.7526298142857144,8.395921
425,4.250000238,1.5897443428571427,-1.8996664714285714,0.29624552,-5.300278,-2.429448585714286,8.796636714285714
426,4.260000238,2.1816973666666666,-1.8825589999999999,0.5213718816666667,-5.165019,-2.9294707999999994,9.074136
427,4.270000238,2.9425367000000002,-1.8129279999999999,0.6135767057142857,-4.633581785714286,-2.996315,8.702566428571428
428,4.280000238,3.220243633333333,-1.5688719833333333,0.5981649666666667,-4.260965,-2.628934,7.9721675
429,4.290000238,2.9060233,-1.3642869,0.5127433,-4.0997014,-2.2343266,7.3173394
430,4.300000238,2.729619228571429,-1.3254126857142856,0.4515681785714286,-4.105809685714286,-2.1418268857142855,7.180334828571428
431,4.310000238,2.04454,-1.3718483,0.03369099,-4.6360254,-1.9851009,7.13775
432,4.320000238,1.8244792,-1.6012258571428573,0.23659481142857144,-5.311491342857144,-2.2461945285714284,7.613512857142857
433,4.330000238,1.8369363333333333,-1.8434409333333335,0.53422832,-5.812262666666666,-2.8439521666666665,8.196959333333332
434,4.340000238,1.9918670428571428,-2.050176214285714,0.7667215714285714,-5.946009142857143,-3.3752364714285714,8.581269714285714
435,4.350000238,2.1033545,-2.1943047,0.8673372,-5.9236405,-3.698272916666667,8.876832499999999
436,4.360000238,2.388867714285714,-2.2776199142857143,1.0018093257142857,-5.863806428571428,-3.8068001285714286,9.092461714285713
437,4.370000238,3.0454129714285716,-2.300217,1.1983800714285715,-5.736924628571429,-3.725644642857143,9.055810571428571
438,4.380000238,3.4134004,-2.259949,1.3566645,-5.553670399999999,-3.5465791,8.659982
439,4.390000238,3.5686226,-2.0410337,1.3984047,-5.323839,-3.1396022,7.886649
440,4.400000238,3.387545,-1.8330947,1.3547132,-5.2554245,-2.352831,7.115759999999999
441,4.410000238,3.0618380857142857,-1.7055088142857142,1.3542950857142857,-5.352810928571429,-1.5999180857142858,6.572280342857143
442,4.420000238,2.6015085833333336,-1.5838525666666667,1.5590289666666666,-5.458352916666667,-0.46673821500000007,5.78126195
443,4.430000238,2.269039285714286,-1.5460396571428572,1.838138642857143,-5.224707285714286,-0.1002007642857143,5.195430642857143
444,4.440000238,1.9948318833333332,-1.4715798333333334,1.9801562166666666,-4.881993083333334,-0.18554484666666668,4.877793716666667
445,4.450000238,1.6216059,-1.328448642857143,2.173149357142857,-4.167767271428572,-0.6353029714285715,4.692637785714285
446,4.460000238,1.3795113333333333,-1.1950087333333335,2.268542,-3.4029282333333337,-1.1447786666666666,4.668552666666667
447,4.470000238,1.129447442857143,-0.9997491085714285,2.2053463285714288,-2.3235321428571427,-1.8295966714285714,4.805251714285714
448,4.480000238,0.9165038714285714,-0.7873064085714285,1.9486676857142857,-1.6917415000000002,-2.2563171,4.979016
449,4.490000238,0.8663005,-0.6257987,1.56314,-1.189625,-2.5470803,5.4554768
450,4.500000238,1.2250409285714288,-0.6511224714285715,1.1409985142857144,-1.2796813142857144,-2.2978547,5.883768114285714
451,4.510000238,1.9608359999999998,-0.8585053500000001,0.9061250166666667,-1.7925312833333333,-1.5945659333333333,6.1445125
452,4.520000238,2.5456756,-0.9437615228571428,1.358485185714286,-2.4322629000000004,-0.2667003,5.895286785714285
453,4.530000238,2.646469757142857,-0.62380818,2.412941285714286,-2.1669806428571428,0.5588161628571429,5.813258914285714
454,4.540000238,2.8751171,-0.36183005,2.61749,-1.3720647666666668,-0.04219936666666668,6.350367966666667
455,4.550000238,3.7417210714285716,-0.10957956314285713,2.3091764571428572,-0.4253678257142857,-1.7529789142857142,6.999349785714286
456,4.560000238,4.878541733333333,0.14909407,1.6670890500000002,-0.26643120833333334,-3.1135647499999997,7.078498083333333
457,4.570000238,6.449374528571428,0.4398035571428571,0.8911233857142857,-1.3086529714285715,-3.361208742857143,6.600379142857142
458,4.580000238,7.4731193,0.8723985,0.7819359,-3.481524,-1.7798562,5.362628
459,4.590000238,7.130477,2.2358928,2.9573677,-5.587877999999999,2.0246532,3.6081219999999994
460,4.600000238,6.920607266666667,2.425598933333333,3.568135233333333,-5.739368,2.9930497333333332,3.1935603333333336
461,4.610000238,6.441216614285715,2.342109642857143,5.493996571428572,-4.4197855,4.4802594,1.2282610999999999
462,4.620000238,6.4186279142857146,1.7721896285714287,6.3145409428571435,-1.9914057800000002,2.441032942857143,-0.05037307142857144
463,4.630000238,6.512849383333333,1.3575995166666666,5.892915133333333,0.05266013333333336,0.8811981000000001,-1.3016136333333332
464,4.640000238,6.412996299999999,0.8502021,5.0066338,1.2001622,0.5523586,-2.4357532999999996
465,4.650000238,5.5912714333333335,0.20761880000000002,4.008155866666667,1.7951274,1.40370155,-3.8468105833333333
466,4.660000238,4.407051542857142,-0.3014026142857143,3.517814285714286,1.9623250428571428,2.3768504,-4.754355085714286
467,4.670000238,3.427355785714286,-0.5743105285714286,3.3756063285714286,2.1614612,2.8840280857142857,-5.0473874
468,4.680000238,2.5914621,-0.6899793,3.3004973,2.680856,3.1363952000000004,-4.92068
469,4.690000238,2.0081964,-0.679003,3.0313048,3.1915243,3.0948577,-4.609148
470,4.700000238,1.7351012,-0.5789362,2.5915534,3.8023715,2.9238205,-4.142461
471,4.710000238,1.7617404,-0.4270197057142857,2.0829612285714285,4.512176071428572,2.6690098285714288,-3.5066559714285717
472,4.720000238,1.8654189333333333,-0.36577846333333336,1.824430633333333,4.744298,2.5878544,-3.3740149
473,4.730000238,1.9541775142857143,-0.35455902142857143,1.6149461142857144,5.1007054,2.4330483428571426,-3.3808214571428574
474,4.740000238,2.0511082714285713,-0.40051552714285715,1.4293864571428574,5.462109014285715,2.250841285714286,-3.585542614285714
475,4.750000238,2.168073516666667,-0.47041869166666667,1.2696218333333333,5.637713083333334,2.1421395000000003,-3.799571816666667
476,4.760000238,2.271931228571429,-0.5383197228571429,1.0539204000000002,5.804532571428571,2.0323324285714284,-4.201974628571429
477,4.770000238,2.366693,-0.62116426,0.7821798000000001,5.809768000000001,1.9537950000000002,-4.698332
478,4.780000238,2.4148056285714286,-0.7588117,0.5142286028571429,5.668400571428571,1.9293610714285714,-4.979321428571429
479,4.790000238,2.3312946,-0.9440032233333334,0.2596289683333333,5.2989982,1.9399491,-5.413430066666667
480,4.800000238,2.1573036,-1.1258147857142857,0.16352436,4.469591214285714,2.185393414285714,-5.944787142857143
481,4.810000238,1.949382,-1.3320899,0.25577712,3.8255837,2.5707507,-6.099768
482,4.820000238,1.8199383833333334,-1.4475590833333334,0.43441559666666674,3.5099793333333333,2.7623531500000005,-6.112595833333333
483,4.830000238,1.6701800857142857,-1.5480911285714285,0.640032962857143,3.4533159714285717,2.7506887428571427,-6.0831881857142855
484,4.840000238,1.5181474333333334,-1.6168930999999997,0.7713559933333333,3.5598650333333333,2.6167678166666666,-5.97003925
485,4.850000238,1.4528069000000001,-1.6038523,0.8324919857142856,3.781951771428571,2.389765357142857,-5.774295485714285
486,4.860000238,1.4993354666666665,-1.5585208166666666,0.8452220916666667,3.9839967500000006,2.2058712833333334,-5.624987166666667
487,4.870000238,1.6030508,-1.5253634,0.84440905,4.1652145,2.0368702,-5.554739500000001
488,4.880000238,1.6933609,-1.5229242,0.86785555,4.375346,1.7190769,-5.544966
489,4.890000238,1.7162892,-1.5143870999999998,0.91590714,4.5292797,1.5480396999999997,-5.549853
490,4.900000238,1.6401610285714285,-1.4692015285714284,0.916743377142857,4.783217771428572,1.3508232714285715,-5.540253714285714
491,4.910000238,1.5325283999999997,-1.4665489999999999,0.8866371000000001,5.073748266666667,1.1689070833333333,-5.445397916666667
492,4.920000238,1.493266457142857,-1.4610739428571429,0.8166983771428571,5.2363133714285715,1.0480175057142858,-5.3032449
493,4.930000238,1.5609243333333334,-1.4290366500000002,0.7069721833333333,5.2929916,0.9799517400000001,-5.1870093
494,4.940000238,1.7977093714285712,-1.3724624714285714,0.5709436,5.181315514285714,0.9179943428571429,-5.146519142857143
495,4.950000238,1.922655742857143,-1.3151464000000002,0.5077604757142857,4.904165457142858,0.8576077457142858,-5.364329828571428
496,4.960000238,1.8052984333333333,-1.1200043533333333,0.48802642999999996,4.682602383333333,0.7791865666666666,-5.487749999999999
497,4.970000238,1.6714085,-0.91548026,0.49957183,4.4236905,0.6068112714285715,-5.564687428571427
498,4.980000238,1.6384493000000002,-0.8544705499999999,0.49371785000000007,4.2812757,0.5376983,-5.543744
499,4.990000238,1.632595357142857,-0.7923502357142856,0.6146133842857143,4.1809223428571425,0.49232107142857146,-5.528909285714286
500,5.000000238,1.7841894166666667,-0.7391640583333334,0.9738779566666667,4.3142614,0.23227467,-5.585282
501,5.010000238,1.8656662857142856,-0.7132079771428571,0.8712486142857143,4.757212885714286,0.3092414142857143,-5.726649428571428
502,5.020000238,1.9767312,-0.6466579214285714,0.4461279494285715,4.9184768000000005,0.6055896,-5.771699714285715
503,5.030000238,2.1206115333333333,-0.6171904866666668,-0.1854579713333333,4.5256145666666665,1.2027073333333334,-5.8713111
504,5.040000238,2.2270202714285716,-0.66517818,-0.6345056442857143,3.741635642857143,1.7592619142857142,-6.080046500000001
505,5.050000238,2.3481247,-0.7900461,-0.81608415,3.0339255,2.2751007,-6.3819795
506,5.060000238,1.8883898857142858,-1.2272667714285714,-0.29693805714285715,2.2752532857142858,2.5892506857142856,-7.466146114285714
507,5.070000238,0.9447502999999999,-1.7375251166666665,0.24929301499999998,2.531809,2.24578,-8.231625
508,5.080000238,0.5136667771428571,-2.106442657142857,-0.14628902285714288,2.8189074999999995,2.053974,-8.497954
509,5.090000238,-0.50963336,-2.8751984,-1.3666651,3.036369,2.3911617,-9.041609
510,5.100000238,-1.42421931,-3.3752780666666666,-1.8852421833333333,2.7116018333333334,2.9755387,-8.883805666666666
511,5.110000238,-2.4575345000000004,-3.5939770857142856,-2.1515629714285716,2.4099887428571427,3.3304700428571428,-8.3628694
512,5.120000238,-4.402929666666666,-3.4536568666666665,-2.4544419666666664,1.8875689166666667,2.887983983333333,-5.955582666666667
513,5.130000238,-4.1420754,-3.3128935714285714,-2.629704842857143,1.5286234285714284,1.6932031357142858,-3.8797964142857144
514,5.140000238,-3.0723485142857143,-3.3005279,-2.731126457142857,0.7798991771428571,0.4643966442857143,-1.9882642999999998
515,5.150000238,-1.6803318,-3.3773920166666667,-2.604572716666667,0.13850962,0.07345438,-1.2727003
516,5.160000238,-1.0755810428571428,-3.4746452714285714,-2.2762085857142855,-0.7733762571428571,0.6045424657142858,-1.333435942857143
517,5.170000238,-1.4336507285714286,-3.643692542857143,-1.9641955,-1.1817712571428571,1.1035174571428572,-1.3049878714285714
518,5.180000238,-1.7633041,-3.697868,-1.7876347,-1.2446012,1.2951488,-1.1908467
519,5.190000238,-2.751506414285714,-3.5888899142857142,-1.4767978428571429,-0.8670976999999999,1.1277767,0.2545706
520,5.200000238,-2.82854905,-3.47453215,-1.4835570333333334,-0.5423305749999999,0.6197554166666667,1.5648379333333333
521,5.210000238,-1.8346758142857145,-3.2618541999999997,-1.6862394,-0.3016276428571429,-0.058488625,3.595206842857143
522,5.220000238,-0.97771965,-3.0636645666666666,-1.8156954,-0.44703838333333334,-0.26047545499999997,4.417927166666666
523,5.230000238,-0.4995675042857143,-2.885216357142857,-1.861363,-0.9248663857142858,-0.4145253257142857,4.963657714285715
524,5.240000238,-0.15845872857142856,-2.63626,-1.7767631285714285,-1.7500337428571429,-0.6791094285714285,5.410797857142858
525,5.250000238,0.25698654,-2.343896866666667,-1.3079116666666666,-3.0979118333333333,-1.2702060166666669,6.092387166666666
526,5.260000238,0.52071419,-2.2857344714285714,-0.9875315385714287,-3.9167962000000003,-1.6941630285714286,6.566172
527,5.270000238,0.6671425699999999,-2.2648273,-0.79803437,-4.3953514,-1.8983606,6.867756
528,5.280000238,1.16208,-2.185768,-0.117384896,-5.055066599999999,-2.080393,7.369872
529,5.290000238,1.4354191,-2.1540282,0.30629835,-5.333613,-2.1231523,7.661857
530,5.300000238,1.6636248285714286,-2.090779714285714,0.8416562214285713,-5.318952457142857,-2.2331049142857142,7.888394171428572
531,5.310000238,1.7606862857142858,-2.0365997714285715,1.1376273285714285,-5.013703371428571,-2.3975101428571426,8.032729142857145
532,5.320000238,1.9321249666666667,-1.8968790333333334,1.3838409,-4.3000593333333335,-2.6285266000000003,8.137911
533,5.330000238,2.230713785714286,-1.7452499285714285,1.4292645571428573,-3.6136414428571433,-2.6832120142857145,8.044073
534,5.340000238,2.571757114285714,-1.5265393714285713,1.3499785714285715,-2.921289742857143,-2.5652312142857143,7.767621142857143
535,5.350000238,2.539396066666667,-1.4037404,1.2139834666666667,-2.563624133333333,-2.363826066666667,7.503443999999999
536,5.360000238,2.438679,-1.3411148,1.0711296,-2.3678622,-2.203958657142857,7.328858042857143
537,5.370000238,2.3305628,-1.3240103,0.9244442,-2.3477913999999998,-2.1418849000000004,7.276005316666667
538,5.380000238,2.0826213,-1.3508716,0.5876868,-2.4516354,-2.0828364,7.2892404
539,5.390000238,1.7543756333333331,-1.4700349333333333,0.34260130000000005,-3.1064637000000004,-2.0229733,7.7241635
540,5.400000238,1.6041832857142855,-1.589234742857143,0.3699388428571429,-3.5399907857142856,-2.0973223,8.110568214285715
541,5.410000238,1.8057672714285715,-1.8967917142857142,0.8183360857142857,-3.831103157142857,-2.435731657142857,8.664345
542,5.420000238,2.0630064666666668,-2.0171196666666664,1.1834735666666667,-3.7329894333333336,-2.7912156666666665,9.040947333333333
543,5.430000238,2.203421,-1.9770969999999999,1.3974291,-3.32188915,-3.0728163333333334,9.301371166666668
544,5.440000238,3.1931001,-1.7814280285714283,1.555317257142857,-2.665257414285714,-3.0619372714285715,9.361059571428571
545,5.450000238,3.5295655285714287,-1.6194150999999999,1.451874757142857,-2.2059004,-2.4882645714285716,8.934513999999998
546,5.460000238,3.5485911,-1.3784341,1.2924839,-2.0509198,-1.9301246,8.404648
547,5.470000238,3.4502751857142857,-1.2590019571428572,1.2414443857142856,-2.036084942857143,-1.4021780285714287,8.181251571428572
548,5.480000238,3.007645033333333,-1.01578585,1.3260834666666668,-2.13094075,-0.3490482916666666,7.418943583333333
549,5.490000238,2.6761884285714284,-0.9491711571428573,1.5022217714285713,-2.0453349,-0.05918673628571429,6.9534490714285715
550,5.500000238,2.3740103,-1.0211571,1.6182957,-1.6856330999999998,-0.21608722,6.6796145
551,5.510000238,2.2498916714285717,-1.0297987,1.510763242857143,-1.312143557142857,-0.4073696657142857,6.6167845000000005
552,5.520000238,2.1258382857142855,-1.0153727571428572,1.1452846142857143,-0.9084607528571428,-0.5763125542857143,6.577515928571429
553,5.530000238,2.2016223,-0.9483581333333334,0.8219687000000001,-0.97542128,-0.4909684566666666,6.623009333333333
554,5.540000238,2.5884568428571426,-0.7825848685714286,0.7060037285714287,-1.3222661571428573,-0.1914787957142857,6.552034857142857
555,5.550000238,3.1957657333333334,-0.5032204166666666,0.6680166166666667,-1.7483466000000003,0.33367531666666667,6.1986745999999995
556,5.560000238,3.7360977285714285,0.0010105142857142876,0.7665734714285716,-2.1596506,1.1399937,5.5532126
557,5.570000238,3.9093137,0.2564174,0.8295301,-2.3954375,1.6494403,5.070643
558,5.580000238,4.0115757,0.77281946,0.7350734,-3.068591,2.6929202,3.3955472000000007
559,5.590000238,3.262403085714286,0.9983552371428571,0.7244020571428572,-3.594967,2.8562781142857143,2.4904460285714287
560,5.600000238,2.2658944,1.2435787,0.9215171999999999,-3.9286642,2.7295709,2.1750743
561,5.610000238,1.807117657142857,1.600777242857143,1.5335563714285716,-3.7600702857142854,1.6050448000000002,3.3932783285714287
562,5.620000238,2.7284926499999997,1.7368595000000002,1.9228053,-3.2176380000000004,0.43365064999999997,4.954251166666666
563,5.630000238,4.170056199999999,1.8973363428571428,1.7818068857142857,-2.8547946285714287,-0.09426682285714286,5.4992830857142865
564,5.640000238,5.469526428571428,2.4604876714285715,1.8650479428571427,-2.8471154857142857,-0.24924749714285716,5.041278857142857
565,5.650000238,6.089999416666667,3.2598143,2.5958069333333333,-2.8645681999999995,-0.52151084,4.411997
566,5.660000238,6.2040815,3.6157293000000004,3.0052056,-2.7167432,-0.92833513,3.9379795
567,5.670000238,7.332806000000001,3.9712987,3.950383,-1.7088451999999998,-1.510676105,2.8751052500000003
568,5.680000238,7.8092060000000005,3.8046514142857144,3.7816449285714286,-0.752258377142857,-1.123457157142857,1.461430257142857
569,5.690000238,7.785103716666666,3.381528683333333,3.244249266666667,-0.31814961,0.012166045000000014,-0.52194349
570,5.700000238,7.0973043,2.8486724000000003,2.8226647,-0.4098348685714286,1.137921182857143,-2.531394514285714
571,5.710000238,5.411962014285714,1.7771464285714287,1.8967483,-1.3030680571428572,2.251888485714286,-4.284526071428572
572,5.720000238,4.1823072,0.9598426,1.6513260333333335,-2.5501853333333333,3.4251224666666666,-5.1597249
573,5.730000238,3.2039456285714287,0.39439149999999995,2.0370046428571427,-3.228283971428571,4.219689342857143,-5.536413928571428
574,5.740000238,2.281149366666667,0.0957677815,2.6226885,-3.4900758,4.7600274,-5.6756873
575,5.750000238,1.5110159428571428,0.03234944957142857,3.158912428571429,-3.0062846999999997,4.8235555,-5.321396
576,5.760000238,1.3234004,0.049728512999999995,3.296351,-2.5200503,4.7380366,-4.9952035
577,5.770000238,1.4504912333333333,-0.029595220333333328,3.2859843333333334,-0.762032,4.2383637,-4.142461
578,5.780000238,1.6111959,-0.051732112,3.1339894999999998,0.2171998257142857,3.9106004142857143,-4.024130971428571
579,5.790000238,1.6745795,0.014086187,2.8180304,1.6497456999999998,3.4308236,-4.108253
580,5.800000238,1.7066457857142858,-0.05745980071428571,2.546080657142857,2.234937385714286,3.2500128142857143,-4.251714971428571
581,5.810000238,1.7482727999999998,-0.18580352999999997,2.2371733,3.5372639000000006,2.8004293,-4.640912
582,5.820000238,1.7685962,-0.36819656857142863,1.9616868428571428,4.113729028571429,2.5574865714285715,-4.9136989714285715
583,5.830000238,1.8037680999999999,-0.6985294485714286,1.487717442857143,4.7081707999999995,2.3941285428571426,-5.222089628571429
584,5.840000238,1.7452542166666667,-0.8946762416666667,1.19437865,4.887032416666666,2.6057725,-5.400398833333334
585,5.850000238,1.6440201,-1.0074717142857144,0.9961731714285714,4.868212671428572,2.8194527571428574,-5.490164114285714
586,5.860000238,1.5735369,-1.1082964,0.9198098,4.7614017,2.9042733,-5.4545608
587,5.870000238,1.5612016714285715,-1.2158114285714283,1.0396860285714287,4.603803,2.801651,-5.28108
588,5.880000238,1.8563931714285713,-1.2768166285714284,1.3177990285714285,4.561567285714285,2.5436989142857143,-5.1187691428571425
589,5.890000238,2.0863717333333334,-1.3295592333333335,1.3934451333333333,4.594232916666666,2.524937083333333,-5.095382333333333
590,5.900000238,2.2929254857142856,-1.432317842857143,1.3780812571428573,4.673963242857143,3.0564615714285712,-5.304641057142858
591,5.910000238,2.41952625,-1.5339868499999998,1.37139095,4.781356066666667,3.6776058999999997,-5.474514966666667
592,5.920000238,2.3410555285714283,-1.6033078714285713,1.5614151,4.9776418571428565,3.9034449285714286,-5.518961471428571
593,5.930000238,2.2126443333333334,-1.6091030166666667,1.8248981000000002,5.336641666666666,3.759255766666666,-5.470035433333334
594,5.940000238,2.164433942857143,-1.6772972714285714,2.045432857142857,6.113621285714286,3.1473904285714283,-5.3643297428571435
595,5.950000238,2.18104185,-1.7686753666666668,2.0285991,6.8266254166666664,2.5892797,-5.320377833333334
596,5.960000238,2.2388196,-1.8333387,1.8520896,7.4639425,2.0894032,-5.327504
597,5.970000238,2.3100739,-1.8450773,1.3520302,7.9147477,1.7642796,-5.3959193
598,5.980000238,2.3143779833333333,-1.7433791833333334,0.7141371833333333,7.68995605,1.8779226333333332,-5.48265955
599,5.990000238,2.2505189142857143,-1.4856964,0.011272437142857136,6.809114328571428,2.3758032285714283,-5.5128532
600,6.000000238,2.2594204166666665,-1.2680516,-0.0890245,5.806688483333333,2.8488898000000002,-5.380851833333334
601,6.010000238,2.4274326142857143,-1.075371957142857,0.5398747142857142,5.1064431428571435,2.730094571428572,-5.245127114285714
602,6.020000238,2.5825897166666665,-1.1184850333333334,1.1711100166666666,5.279221966666666,2.0869342333333334,-5.2855594
603,6.030000238,2.7664418,-1.2451947,1.4269431000000001,5.968065157142857,1.2403472,-5.546733000000001
604,6.040000238,2.863816914285714,-1.5270795285714287,1.0425346928571428,6.6979403,0.742943,-5.9531646
605,6.050000238,2.754002,-1.6266497,0.78900945,6.999698599999999,0.6977402600000001,-6.2414846
606,6.060000238,2.0311246,-1.6178688,0.12546463,7.3148960857142855,0.9082208085714285,-6.685483228571429
607,6.070000238,1.7155572999999997,-1.7703776,-0.37386327999999996,7.4211836,1.0202676,-6.8010206
608,6.080000238,1.2532089899999999,-1.9025194571428572,-1.0797623828571428,7.080679742857143,1.0398147242857143,-6.766813142857143
609,6.090000238,0.5615876133333334,-1.8898967999999998,-1.7640866,6.069353116666666,0.7388706633333334,-6.446321833333333
610,6.100000238,-0.13903685,-1.8211428428571428,-1.9631022857142857,4.630854885714285,-0.019568927142857146,-5.8208505285714285
611,6.110000238,-0.4562591714285714,-1.7939200857142856,-1.8495939714285714,3.501311057142857,-0.39550177,-5.218948271428571
612,6.120000238,-0.6251939833333333,-1.78514485,-1.5138942166666667,2.803229033333333,-0.45309593833333334,-4.72358025
613,6.130000238,-0.6061155328571429,-1.897645657142857,-0.9652914714285715,2.4581584857142857,-0.5913219542857142,-4.187139771428572
614,6.140000238,-0.29757833,-2.166224,-0.6950404999999998,2.5073752,-0.8709155000000001,-3.8394804
615,6.150000238,0.00798827,-2.5095975000000004,-0.79632694,2.681204885714286,-1.1651693,-3.7892165142857146
616,6.160000238,0.00798827,-2.5095975,-0.79632694,2.7101765000000007,-1.2142116,-3.7808392000000004
617,6.170000238,-0.5351662385714286,-2.7766341857142858,-1.2993920200000002,2.455715042857143,-1.1487637285714285,-3.923253785714286
618,6.180000238,-1.9871413142857144,-3.159979514285714,-1.4306018142857142,1.1741575714285715,-1.0243253857142858,-2.8396107142857145
619,6.190000238,-1.9831341,-3.3013713999999994,-1.4140866333333335,0.6410333,-1.1971079,-2.040738833333333
620,6.200000238,-1.7461341142857143,-3.4866624142857146,-1.3989666571428572,0.13183392857142856,-1.2156079,-1.4419922142857142
621,6.210000238,-1.6297394,-3.6128935833333333,-1.3949137,-0.39369105,-1.0486720266666667,-1.0554422499999998
622,6.220000238,-1.7758221714285713,-3.7150469999999998,-1.2719514571428572,-1.1309837,-0.6290199799999999,-0.6810074171428572
623,6.230000238,-2.1565588333333334,-3.6735474999999997,-0.9739389566666666,-1.6296386666666667,-0.32603972333333336,-0.27503397
624,6.240000238,-2.5340200000000004,-3.5592625,-0.57594824,-1.893321,-0.27717194,0.34497598
625,6.250000238,-2.505921357142857,-3.301738914285714,-0.05793021285714285,-1.6793499571428572,-0.6016191142857144,1.7525425714285716
626,6.260000238,-2.2543794333333333,-3.112793483333333,0.13054114666666666,-1.3093511,-0.7988355,2.684521
627,6.270000238,-1.9580716,-2.9159324,0.08274873,-0.9575031,-0.8000572,3.4150944
628,6.280000238,-1.4767935,-2.577925,-0.19180998000000002,-0.6162430866666666,-0.6049933,5.129589999999999
629,6.290000238,-1.023761757142857,-2.401324814285714,-0.3625821357142857,-0.6569662457142857,-0.5237797085714285,5.8818481714285715
630,6.300000238,-0.5678989616666666,-2.2200075666666668,-0.48340726500000003,-0.85773135,-0.4685707433333333,6.756378000000001
631,6.310000238,-0.07802719857142858,-2.0087409,-0.5560211142857143,-1.2587380142857145,-0.44279882285714284,7.640564857142857
632,6.320000238,0.4172456028571428,-1.8436310285714286,-0.5173254628571429,-1.7245526714285713,-0.43040733857142854,8.356303285714286
633,6.330000238,0.9782633833333333,-1.7128386166666667,-0.3671200133333333,-2.0753536,-0.47142136000000007,8.812694
634,6.340000238,1.7618928,-1.570479242857143,-0.11099950685714285,-2.5223192857142855,-0.9759812142857144,9.256168142857144
635,6.350000238,2.0428326,-1.5131675,-0.021464668000000003,-2.645885,-1.2252069,9.278159
636,6.360000238,2.3594015285714285,-1.3787520714285715,0.11031567342857142,-2.7209318571428573,-1.2993811857142856,9.22143757142857
637,6.370000238,2.6734183000000002,-1.0622876214285715,0.43364464428571425,-2.8472900285714284,-1.1552212999999998,8.903447857142856
638,6.380000238,2.579998,-0.9149924500000001,0.6662584,-2.8389127,-1.100594,8.636769
639,6.390000238,2.370874457142857,-0.8997389442857143,0.7762996428571428,-2.6703188,-1.2129899,8.575685
640,6.400000238,2.243942,-0.9372194,0.75461715,-2.504371966666667,-1.2516768999999999,8.618444166666666
641,6.410000238,2.1531875142857144,-1.0042921142857142,0.6716724428571429,-2.4582675000000003,-1.1468439057142858,8.754401
642,6.420000238,1.9568468166666666,-1.2738294000000001,0.5126671166666666,-2.6039400833333333,-0.8240838500000001,9.180016333333333
643,6.430000238,2.2436849285714286,-1.4150608000000002,0.6351851714285714,-2.738559257142857,-0.7749251857142857,9.45914457142857
644,6.440000238,2.6048775,-1.4467918,0.7899851,-2.7595024,-0.7792884,9.535936
645,6.450000238,2.877485,-1.4338336,0.8761487,-2.6984177,-0.83182126,9.435758000000002
646,6.460000238,3.3729190285714283,-1.2018297142857144,0.7614338199999999,-2.5003286428571427,-0.8419438857142857,8.59872257142857
647,6.470000238,3.3732913666666664,-1.0129757733333333,0.6044712416666667,-2.5731939666666666,-0.6231151166666666,7.852034266666666
648,6.480000238,3.0959122,-0.87938064,0.54448295,-2.8074976,-0.40492628571428574,6.995858942857142
649,6.490000238,2.413093083333333,-0.7453381666666666,0.642293575,-2.8755633999999994,-0.4457658,6.855539
650,6.500000238,1.8703617285714285,-0.7481751628571428,0.8053213585714286,-2.923733114285714,-0.7784157714285714,6.917321514285715
651,6.510000238,1.6025274999999999,-0.819001025,0.9660726083333334,-2.8484826,-1.1484438333333333,7.216549333333333
652,6.520000238,1.7422446428571428,-0.9055929428571429,1.070293357142857,-2.557573885714286,-1.4564562571428572,7.708456285714285
653,6.530000238,2.00966,-0.9796608,1.066983,-2.2109616,-1.4658808,7.929408
654,6.540000238,2.089451,-0.9843257,1.0252427,-2.0997875,-1.3791404,7.939182
655,6.550000238,2.4826145,-0.9486834,1.1226264,-1.9402690714285715,-0.9815661285714287,7.638121428571429
656,6.560000238,2.6697898,-0.96283054,1.3879164,-1.8114675,-0.8098307,7.239151
657,6.570000238,2.4917395714285715,-0.7691694714285715,1.6630805285714285,-1.2590870885714285,-0.5318080085714286,6.484143614285714
658,6.580000238,2.24302725,-0.5187548683333334,1.6289416333333335,-0.9868237399999998,-0.45431766,6.2153707
659,6.590000238,1.7628381285714287,-0.03801179857142857,1.2818735857142858,-0.5005893314285714,-0.24994561514285715,5.907852971428572
660,6.600000238,1.8800538,0.23566925000000002,0.9272390416666667,-0.5005893333333334,0.03680355,5.8712599999999995
661,6.610000238,2.5827726571428573,0.3325716857142857,0.3022170971428571,-0.8854231,0.37887803,5.690042
662,6.620000238,3.1755104999999997,0.2308823733333333,-0.04997750666666667,-1.9922783,0.95185274,5.218468
663,6.630000238,3.5949748285714285,0.20036447428571427,0.14487778571428572,-3.3874536,1.6738743,4.607468
664,6.640000238,3.5932324142857146,0.32950093142857145,0.4394028142857143,-4.2878423,2.2433367,4.144446
665,6.650000238,3.3704404999999995,0.85434866,1.1721721,-5.241986,2.8932781,3.8781166
666,6.660000238,3.600131557142857,1.213089037142857,1.322363842857143,-5.525702571428572,3.215281814285714,3.9671257428571427
667,6.670000238,4.2800414,1.31355735,1.3783173,-6.053547366666667,3.521229133333333,3.8836140666666665
668,6.680000238,5.088742028571429,1.4268036285714285,2.0137108142857145,-6.476224571428572,3.649332457142857,3.163948742857143
669,6.690000238,5.259653657142857,1.5973144571428572,3.3160864285714284,-6.6881010000000005,3.4826583857142857,1.0107994342857143
670,6.700000238,4.317833366666667,1.9104975666666668,4.410755166666667,-5.684748,2.5588900999999997,0.31972764666666664
671,6.710000238,3.5993739285714286,2.3053958142857143,5.299311928571429,-4.4145495,1.3215026314285712,0.34986279
672,6.720000238,3.4570209166666666,2.56497175,5.863035166666666,-2.6238945,-0.31626618,0.7603521299999999
673,6.730000238,3.905236571428571,2.6140071,5.845689571428571,-0.2623589,-1.8714833,1.356539
674,6.740000238,4.276103,2.6043897,5.564775999999999,0.8018896999999999,-2.2465434,1.5776658
675,6.750000238,5.634963028571429,2.4989655,4.5200983428571435,2.6700353,-1.750186457142857,1.4383926
676,6.760000238,6.288163485714286,2.3654690142857144,3.4785784,3.363608685714286,-0.9422973499999999,0.49367366428571424
677,6.770000238,5.164996666666667,2.1343520666666667,1.6998756666666666,2.22597835,1.2166296116666668,-2.2687630716666667
678,6.780000238,3.8650951857142855,1.9135350285714288,1.3022319,0.9980590085714285,2.6698825285714287,-3.5167785428571428
679,6.790000238,2.7260076333333334,1.5929435833333334,1.5587800666666667,0.32787228,3.4430406,-3.7393014
680,6.800000238,2.4118786142857145,1.4001513428571428,1.8254853571428569,0.08772202714285715,3.8713319428571427,-3.7686221142857144
681,6.810000238,2.016266,0.9041939666666666,2.353434933333333,0.30567815000000004,4.2947656,-3.7623100666666667
682,6.820000238,1.7850824,0.6543456428571428,2.5336539428571427,0.9532053142857143,4.345174800000001,-3.8127777857142857
683,6.830000238,1.5389966142857143,0.4982041714285715,2.561930828571428,1.9406835142857142,4.0334680857142855,-3.867928528571429
684,6.840000238,1.4517615,0.311817,2.4516978,2.5611298,3.7044833,-3.8749096
685,6.850000238,1.4933928428571428,0.10326822000000001,2.2260052285714282,3.184193971428571,3.349493642857143,-3.933551028571429
686,6.860000238,1.5593847,-0.18124533333333334,1.9337154333333333,3.7885256333333337,3.1207168333333333,-4.0956293666666665
687,6.870000238,1.6284704571428572,-0.5150474642857142,1.6444600000000003,4.334855857142857,3.0234758428571427,-4.278068857142857
688,6.880000238,1.7230119833333335,-0.7623463216666667,1.4173997666666667,4.700520833333333,2.97900025,-4.343225833333333
689,6.890000238,1.8904237857142856,-0.9589322785714286,1.1747810571428572,4.915160857142857,2.9484289,-4.3400261
690,6.900000238,2.1086944428571432,-1.1442697285714285,0.8994339885714285,4.989509514285714,2.7594153142857145,-4.462544514285715
691,6.910000238,2.2776838,-1.2063,0.7178365933333333,4.865245799999999,2.5194395333333337,-4.686929066666667
692,6.920000238,2.379271957142857,-1.2084763285714286,0.604787,4.661571928571428,2.3121005142857145,-4.9822883142857135
693,6.930000238,2.3698637,-1.2166563,0.5142068,4.3777895,2.196912,-5.3519382
694,6.940000238,2.236188757142857,-1.2256464428571427,0.44895041428571425,4.023847271428571,2.2681194000000002,-5.653522371428572
695,6.950000238,2.05000285,-1.2322263,0.4447820333333334,3.687124966666667,2.4542824333333333,-5.8578216
696,6.960000238,1.8287043285714284,-1.2383604857142856,0.5289376742857143,3.237075914285714,2.7910047857142857,-5.9143757428571435
697,6.970000238,1.5430169,-1.1812577999999998,0.7065351,2.955737,3.0044522,-5.788083
698,6.980000238,1.5199616333333335,-1.15428475,0.7855133,2.9561444,2.9466253666666664,-5.562273333333334
699,6.990000238,1.7184365142857143,-1.1169031571428572,0.9323018142857142,3.0414304857142858,2.7026937571428573,-5.048085057142857
700,7.000000238,2.1039236,-1.1252993666666666,1.0371337,3.1347155166666667,2.5469277333333333,-4.894820866666667
701,7.010000238,2.3628077714285713,-1.1627900142857144,1.1673198571428571,3.2861182285714285,2.4145483428571426,-4.951047942857143
702,7.020000238,2.5026155142857145,-1.2223927285714284,1.502147742857143,3.676013457142857,2.1649736,-5.236924542857143
703,7.030000238,2.4855413,-1.2752268,1.7163806,4.0748096,1.9232526000000003,-5.459447399999999
704,7.040000238,2.281993,-1.3445296,1.7991294,4.8444767,1.5993508,-5.690347699999999
705,7.050000238,2.0889938333333333,-1.36241685,1.6349938166666667,5.59475,1.41854,-5.7477674
706,7.060000238,1.9596831714285712,-1.2044343857142858,1.20277926,5.985343428571428,1.3417478571428572,-5.467824828571429
707,7.070000238,2.1703603499999997,-0.9983865500000001,0.8443175216666666,5.948634333333334,1.3541975333333334,-5.043256666666667
708,7.080000238,2.7485532285714287,-0.9693161285714285,0.7476917399999999,5.703480628571429,1.4068467000000002,-5.004802357142857
709,7.090000238,3.285527,-1.0389631,0.7780332,5.424934400000001,1.5272709000000002,-5.2236605
710,7.100000238,3.5565097714285714,-1.1965593714285716,0.9153278285714286,5.178523,1.6176762571428571,-5.8950907571428575
711,7.110000238,3.3082116,-1.2400724,1.090399,5.159674,1.6689874,-6.5151443
712,7.120000238,3.0686394333333333,-1.26733515,1.14002075,5.233994,1.7249818166666666,-6.743193716666666
713,7.130000238,2.3730347000000003,-1.4340774999999997,1.0218279,5.5690947,2.0063279,-7.0746803
714,7.140000238,1.5705235333333334,-1.6242309166666666,0.76579165,6.1107122333333335,2.5308420999999997,-6.954954099999999
715,7.150000238,1.0208783457142856,-1.9647444,-0.12117866114285715,6.7630389,2.7590661714285716,-6.755119942857143
716,7.160000238,0.5596719038333333,-2.2344443333333333,-1.1079507833333333,6.799340916666666,2.3202778,-6.61450855
717,7.170000238,-0.054515377,-2.645063,-2.1549122,6.066324,1.8314728,-6.5188093
718,7.180000238,-1.1447357791428572,-2.700693257142857,-2.438504571428571,5.192201628571429,1.287644217142857,-6.254879614285714
719,7.190000238,-2.497097,-2.7408001,-2.5642653666666666,3.6496595999999997,0.23349635333333332,-5.343793466666667
720,7.200000238,-2.861321157142857,-2.6703822571428573,-2.3192294571428573,2.6876624285714286,-0.3605962285714286,-4.210875285714286
721,7.210000238,-2.698861766666667,-2.6436553333333337,-2.0075105,1.9545584166666667,-0.6037716283333333,-3.2066427500000003
722,7.220000238,-2.1800051,-2.697343971428572,-1.5450770857142857,1.4179728285714286,-0.37386034785714284,-2.442909171428571
723,7.230000238,-1.7061971,-2.8339458,-1.3402916,1.1855017999999997,0.028251685,-2.1486552
724,7.240000238,-1.5043865,-3.1236274,-1.3266323,1.0460250500000001,0.6126289058333333,-2.1924325333333337
725,7.250000238,-1.8449377571428571,-3.327576657142857,-1.4107312142857142,0.9064318785714285,1.1448805285714287,-2.2544190714285715
726,7.260000238,-2.809554,-3.5519146999999998,-1.5242963000000003,0.6174139,1.5773604,-1.6514256000000003
727,7.270000238,-2.8138662,-3.5856710142857144,-1.7546929857142857,0.29798438114285714,1.3567572285714287,-0.7225450291428571
728,7.280000238,-2.591441833333333,-3.534606533333333,-1.9111278333333332,-0.29615911066666667,1.2198111,0.2329873353333333
729,7.290000238,-2.3650726428571427,-3.3875537142857146,-1.7906967857142857,-0.9027013571428572,1.1389465571428572,0.9462242357142856
730,7.300000238,-2.0711006857142857,-3.1163404142857147,-1.4940811142857142,-1.4861477857142857,0.9000180085714284,1.6998351714285713
731,7.310000238,-1.6698432666666667,-2.9021003666666663,-1.2672487666666667,-1.9943145,0.4725412433333333,2.4849775
732,7.320000238,-1.1774249714285714,-2.685688157142857,-1.103226357142857,-2.439942071428572,0.1341900549142857,3.1302649285714286
733,7.330000238,-0.8725508999999999,-2.5164273,-0.9864295,-2.8413559999999998,-0.0010689828,3.6276689999999996
734,7.340000238,-0.46310629,-2.1963956571428573,-0.6666852385714286,-3.157076714285714,-0.09426682611428572,4.095752857142857
735,7.350000238,0.02042802,-1.9087698,-0.33459267,-3.4876325,-0.2441862,4.735746
736,7.360000238,0.7967233,-1.7015628000000003,-0.18522421999999997,-3.7099807000000005,-0.15133741,5.16227
737,7.370000238,1.0375039000000001,-1.5395846285714285,-0.038238296,-3.9131311285714285,-0.007875567142857143,5.3085242
738,7.380000238,1.1218845666666668,-1.4394641000000001,0.14489666933333334,-4.033729733333334,0.010537113333333339,5.4141428000000005
739,7.390000238,1.0981433,-1.4145643,0.25163054,-4.044376142857144,-0.24313902,5.573806928571429
740,7.400000238,0.96389776,-1.3635551999999997,0.36535667999999993,-4.025178,-0.53372777,5.7413535
741,7.410000238,0.9776746714285715,-1.2733059857142857,0.5843590142857142,-3.914876385714286,-1.2648246857142857,6.221653828571428
742,7.420000238,1.2136988142857141,-1.2507785000000002,0.7093227999999999,-3.6932261857142854,-2.1221051714285712,6.671586285714286
743,7.430000238,1.4105090999999998,-1.2818125,0.7016568,-3.5474954000000003,-2.5715141,6.895854500000001
744,7.440000238,1.8571205,-1.3311143,0.53082365,-3.6340613142857143,-2.7079950714285714,7.071953185714286
745,7.450000238,2.2783393333333333,-1.3230599333333333,0.6275417,-4.0618288,-2.2424711333333334,6.914179966666667
746,7.460000238,2.3190987714285716,-1.2650432857142857,0.8808702428571429,-4.3316487142857145,-1.9554311714285715,6.730576642857143
747,7.470000238,2.2987751714285714,-1.2134767714285712,1.1482508285714286,-4.478601071428571,-1.810747642857143,6.597586571428572
748,7.480000238,2.2188846,-1.1803584999999999,1.3537070833333333,-4.463155266666667,-1.7660103333333332,6.5238487166666665
749,7.490000238,2.042628,-1.1432112428571428,1.502352542857143,-4.268120571428572,-1.8564739428571428,6.544879214285714
750,7.500000238,1.886563266666667,-1.1580655,1.5142347333333335,-4.050630066666667,-1.98937685,6.680429416666667
751,7.510000238,1.7981318571428573,-1.212392242857143,1.4239158285714286,-3.7785702857142853,-2.1144260142857143,7.0045855
752,7.520000238,1.781232,-1.2774221,1.2912644,-3.6354575,-2.1292608,7.255033
753,7.530000238,1.9020317,-1.3735558,1.0006073,-3.60125,-1.9728839,7.576339
754,7.540000238,2.3419266857142857,-1.434953,0.7059906671428572,-3.841924,-1.5746115,7.7327156
755,7.550000238,3.0781520666666666,-1.4723115333333334,0.8527834916666667,-4.466413433333334,-0.6968239966666667,7.3285381
756,7.560000238,2.8742269142857144,-1.308752342857143,1.2016990142857142,-4.722416628571429,-0.23336546285714285,6.5527332
757,7.570000238,2.3019329666666666,-1.1108168666666667,1.4311912666666666,-4.503675,-0.5268048466666667,6.182792366666667
758,7.580000238,1.8195965857142855,-0.9747171914285715,1.5454255714285714,-4.168639942857143,-0.9721415857142858,6.209786171428571
759,7.590000238,1.5407404,-0.8407197750000001,1.6184125333333332,-3.5383327666666666,-1.5528246166666666,6.631969000000001
760,7.600000238,1.5562101571428573,-0.7116094142857143,1.5408825428571427,-2.8633466,-1.8959172,7.151189
761,7.610000238,1.8197707,-0.6933941,1.2185466,-2.0912356,-1.9875443,7.719277
762,7.620000238,2.186835,-0.6257987,0.7448301,-1.6770810999999999,-1.8519362,7.99538
763,7.630000238,2.6134800714285715,-0.5275568942857143,0.000609805714285705,-1.9894859,-1.665540485714286,7.854361314285714
764,7.640000238,2.7454345,-0.43203737999999997,-0.49393123,-2.6678753,-1.4805409999999999,7.555569600000001
765,7.650000238,3.2493752428571434,-0.26985023714285716,-0.3392096814285714,-4.409008271428571,-1.4009563142857144,7.102146599999999
766,7.660000238,3.9863562142857143,-0.16643828142857142,0.46874249285714287,-5.5754864571428575,-1.4547109142857144,6.278899099999999
767,7.670000238,4.095878999999999,0.2362790175,1.45171575,-5.6012656666666665,-1.6023033,5.503937566666667
768,7.680000238,4.071666,0.5893723357142857,1.5964607285714283,-5.245999671428572,-1.7018422857142856,4.945485028571428
769,7.690000238,4.124326,0.853129,1.3369073,-4.8742557,-1.6002669999999999,4.443761
770,7.700000238,4.334194285714285,0.7755461271428572,0.5268382571428571,-6.189649714285714,-0.8012789151428571,3.1517318
771,7.710000238,4.121856,0.55609953,0.40487119999999993,-7.733173333333333,0.012573275000000004,2.4800908666666666
772,7.720000238,3.6052103,0.41920127999999995,0.9857281999999999,-8.42954,0.34344888,2.3314512
773,7.730000238,3.1121763285714286,0.38591535714285713,2.9224309857142856,-9.017872285714287,0.49040128285714285,2.6525824142857144
774,7.740000238,3.6581911,0.35014238000000003,5.813763933333334,-7.377227933333334,-0.527619325,3.7512639166666664
775,7.750000238,4.325243457142856,0.5787707142857144,6.447553771428572,-4.646322428571429,-1.5777530285714287,4.105177214285715
776,7.760000238,5.424869166666666,1.2525070833333334,6.3966433333333335,-1.9079814,-2.38093,4.1334505
777,7.770000238,6.789228571428572,1.9471302142857143,5.488525514285714,1.23140264,-2.808348442857143,3.109147214285714
778,7.780000238,7.361552083333333,2.296114616666667,4.186468916666667,2.673525683333333,-2.792233766666667,1.4385961841666666
779,7.790000238,7.345445642857142,2.408076114285714,2.749794728571428,2.5696816,-2.4236891,-0.081395395
780,7.800000238,6.9132695,2.2903166,1.9026111,0.5215762857142857,-0.02288495714285713,-2.2678576571428573
781,7.810000238,5.847536600000001,1.9820669000000002,1.7832749,-0.60321164,1.4222051,-3.1663268
782,7.820000238,4.3864145,1.6174724,2.3157754,-1.6995952914285717,2.8642846142857143,-4.032333542857144
783,7.830000238,4.3864145,1.6174723999999998,2.3157754,-1.8823259000000003,3.1046312,-4.176668
784,7.840000238,3.486061471428571,1.380951642857143,2.7620948857142857,-2.0952496857142857,3.458049914285714,-4.4306060714285715
785,7.850000238,1.7604787333333334,0.7083187616666667,3.5279952666666667,-1.267202675,3.0765322666666663,-4.249766166666667
786,7.860000238,1.6651276999999998,0.49476319142857145,3.3445200571428573,-0.026702750000000015,2.9634381999999997,-4.095861771428571
787,7.870000238,1.5360521571428571,0.4195149085714286,3.057186142857143,0.49506988857142853,3.381955842857143,-4.077885357142857
788,7.880000238,1.4142847500000002,0.4092769333333333,2.889314983333333,0.8935168166666667,3.8333720000000002,-4.0439106
789,7.890000238,1.362427,0.3755097,2.7577524,1.4705057000000001,4.2973539999999995,-3.9518763142857147
790,7.900000238,1.38756055,0.3367168166666667,2.6047555166666663,1.9356222,4.548674,-3.8846831
791,7.910000238,1.4729823,0.2695889,2.4975846,2.3693237,4.6964993,-3.8626926
792,7.920000238,1.6353262714285715,0.08280970742857142,2.3821249714285715,2.8991900428571427,4.825300528571428,-3.8595511714285715
793,7.930000238,1.8757090166666668,-0.259695043,2.2235697,4.157273683333333,5.076039000000001,-3.6816783333333336
794,7.940000238,2.1651393142857143,-0.5651723599999999,2.0791586142857144,4.859006257142857,5.148002714285714,-3.5764671142857147
795,7.950000238,2.4670036,-0.7602883,1.959474,5.3381944,5.070338,-3.5633774
796,7.960000238,2.9512478285714288,-0.9398893285714286,1.6546131428571427,5.9125650571428565,4.647282285714286,-3.8012588999999997
797,7.970000238,3.351201366666667,-1.10884515,1.34174495,6.143494433333334,4.336506666666667,-4.239178249999999
798,7.980000238,3.482616071428571,-1.2181329571428574,1.0251426000000001,6.1200786,4.14918,-4.716657
799,7.990000238,3.3071789285714286,-1.2816732142857141,0.7249682285714286,5.565603814285715,4.316552485714285,-5.4988906
800,8.000000238,3.2208079,-1.3248739666666667,0.7999044,5.3687367,4.4484954,-5.625598
801,8.010000238,3.1071324,-1.4084663,1.0569824,5.0863724,4.640301,-5.7734227
802,8.020000238,3.0180418,-1.5707624000000002,1.4303578000000001,5.177999566666666,4.583288916666667,-5.8110916999999995
803,8.030000238,2.9704216571428574,-1.7724030285714285,1.6020054857142856,5.811993571428571,4.083906585714286,-5.797333285714286
804,8.040000238,2.941770114285714,-1.9146587714285714,1.613582857142857,6.588336571428571,3.4130217571428574,-5.757715657142858
805,8.050000238,2.942849616666667,-1.8924578833333332,1.5430880166666665,7.016802333333334,2.8554055666666667,-5.717631933333333
806,8.060000238,3.0364230285714284,-1.8347325285714287,1.4558166714285714,7.260792342857143,2.3648078999999997,-5.663644885714286
807,8.070000238,3.225737,-1.8094349,1.3581281,7.3686504,1.9501299,-5.6940126
808,8.080000238,3.2645806285714287,-1.837350257142857,1.4125084428571426,7.387673957142857,1.7982688714285715,-5.7626238857142855
809,8.090000238,3.2311032,-1.871664,1.6685425,7.5018153,1.4735163,-5.910405
810,8.100000238,3.1181348285714283,-1.9707421857142857,1.996741114285714,7.907941542857143,0.94295185,-6.010758785714286
811,8.110000238,3.0187738000000004,-2.1801271,2.196927,8.688081,0.39109495,-6.173069500000001
812,8.120000238,2.8564777000000006,-2.7736679999999994,1.9970373,9.8328085,-0.07925743,-6.4650545
813,8.130000238,2.561321157142857,-3.039737485714286,1.4768152714285716,10.341556714285716,-0.43529412285714286,-6.712884142857143
814,8.140000238,2.0289649666666665,-3.286406166666667,0.610940125,10.666335166666666,-0.94319905,-6.852739083333333
815,8.150000238,1.7207624857142856,-3.5325100285714286,-0.3939472071428572,10.254991142857142,-0.7571233405714286,-6.4743047
816,8.160000238,1.5235798433333334,-3.651468,-1.0052568333333334,9.5854155,-0.032222195,-6.3113246499999995
817,8.170000238,0.44380203428571424,-3.3639420285714285,-1.8326765857142857,8.265549000000002,0.028775270000000002,-6.138644142857143
818,8.180000238,-0.9019385071428572,-2.9351714285714285,-2.3656998000000002,6.320218428571429,-0.593241767142857,-5.427334371428572
819,8.190000238,-1.4254743833333334,-2.7977295833333335,-2.3088238333333333,5.143792,-0.98331136,-4.7728553
820,8.200000238,-1.5678353,-2.7241225,-2.183969,3.9514182,-1.2545276,-3.9824188
821,8.210000238,-1.6222593000000003,-2.613567,-1.5550600999999997,3.110485283333333,-1.3848416,-3.368517133333333
822,8.220000238,-1.5216435857142856,-2.5439201999999996,-0.3392837171428571,2.2040461000000002,-1.6046303428571431,-2.2477870571428573
823,8.230000238,-1.3753597333333332,-2.4797432333333336,0.22722362333333335,2.3131258666666668,-1.7370969333333335,-1.6872619666666668
824,8.240000238,-1.1460860428571429,-2.382512657142857,0.32107273185714286,3.0510294000000004,-1.8487947000000002,-0.9953755714285714
825,8.250000238,-0.9645161571428572,-2.1644861428571427,-0.1212875692857143,3.3145664000000004,-1.792596657142857,-0.7752960714285715
826,8.260000238,-0.8738416166666667,-1.9966306666666664,-0.5705617666666667,3.079739216666667,-1.6330492,-0.8220986
827,8.270000238,-0.8654294071428571,-1.9715217999999999,-0.8568705857142858,2.2448856142857143,-1.2501643857142857,-1.1128328
828,8.280000238,-0.9913992666666666,-2.0462373333333335,-0.9520271333333333,1.4314696900000001,-0.9218194,-1.4797774833333335
829,8.290000238,-1.1056132,-2.1503694,-1.0310968,0.69438064,-0.6571188999999998,-1.7699299
830,8.300000238,-1.217388,-2.2499485,-1.07427,0.1861557,-0.44943088,-1.9324152
831,8.310000238,-1.6725365999999997,-2.6421359,-0.897339,-1.1386411285714286,0.22703884571428576,-2.3041594285714284
832,8.320000238,-2.2845931714285714,-2.9375014999999998,-0.5940286285714286,-2.009731057142857,0.7890182857142857,-2.4561732
833,8.330000238,-3.1242016666666665,-2.9621494666666663,-0.06176684000000001,-2.2801910000000003,1.0504027666666669,-2.0680234
834,8.340000238,-3.713182657142857,-2.8512683285714284,0.4775844942857143,-1.7865101285714287,0.6055895885714285,-0.03427288571428574
835,8.350000238,-3.35516005,-2.702484933333333,0.4312447016666667,-1.2132444333333334,0.16426701333333335,1.8065299333333336
836,8.360000238,-2.4478997571428573,-2.5771973714285714,0.053448245714285726,-0.9582011971428571,0.2156945257142857,3.0953594571428575
837,8.370000238,-1.8921833999999997,-2.4612718,-0.24428254000000002,-0.97216344,0.48272204,3.8781166
838,8.380000238,-1.1883315,-2.2965364,-0.48490632,-1.3826528,0.8516738,4.7430763
839,8.390000238,-0.57238096,-2.1759806,-0.54225725,-1.9641794000000001,1.0593618,5.3577414
840,8.400000238,-0.2654779016666667,-2.084054516666667,-0.519085125,-2.4752549,1.1509889666666666,5.730358233333334
841,8.410000238,-0.10753241142857142,-2.002577657142857,-0.4196063428571429,-3.0664969142857146,1.2132953428571427,6.202804942857143
842,8.420000238,0.06426187800000001,-1.901350833333333,-0.015275283333333325,-3.557269,0.9209031333333333,7.034720733333334
843,8.430000238,0.3238298685714286,-1.9160526428571427,0.3568108785714286,-3.9272679142857143,0.4101184985714286,7.944941171428572
844,8.440000238,0.57536894,-1.9190145,0.6386653,-3.8969001999999997,-0.10613471000000001,8.55125
845,8.450000238,1.2333645714285715,-1.9398648714285716,0.9641416057142856,-3.527599314285714,-0.6108690900000001,9.191418857142859
846,8.460000238,1.6381355714285715,-1.9688038714285714,1.0144058857142857,-3.126883442857143,-0.8087835857142858,9.672766142857142
847,8.470000238,2.0133898,-2.008084633333333,0.9921412500000001,-2.9101782000000003,-0.7332712166666666,9.923620666666666
848,8.480000238,2.4506656,-2.0733526714285717,0.9276020785714286,-2.898252157142857,-0.5504824628571429,10.199884285714287
849,8.490000238,3.0334086,-2.1437836,0.8976134,-3.0466008,-0.31748787,10.35096
850,8.500000238,3.4315067142857143,-2.1306120571428573,0.966842137142857,-3.1582985857142853,-0.2005542485714286,10.18330357142857
851,8.510000238,3.6095527428571432,-2.0351188571428573,0.9993135228571429,-3.348533842857143,-0.06581879257142857,9.611507285714286
852,8.520000238,3.3447072500000004,-1.9179168999999998,1.0103638499999998,-3.5273375999999996,-0.0151184695,9.231124
853,8.530000238,2.689325042857143,-1.8396892,1.0839656714285713,-3.887126542857143,-0.031436817285714284,9.037135857142857
854,8.540000238,2.4628926666666664,-1.9093592666666666,1.2028394666666669,-4.0117393,-0.07681404,9.251282
855,8.550000238,2.427597942857143,-2.0120207,1.4098296857142858,-3.9695037142857146,-0.24610600285714287,9.78361342857143
856,8.560000238,2.4951252833333335,-2.0760052000000004,1.5343324833333334,-3.7553872333333334,-0.45289236666666666,10.327950666666666
857,8.570000238,2.6663752,-2.1423202,1.5928979,-3.472448585714286,-0.5695060285714285,10.802812285714285
858,8.580000238,3.6101367428571427,-2.1978242142857143,1.6447389000000001,-3.1977417857142854,-0.3958508542857143,11.088164857142857
859,8.590000238,4.3832436,-2.199915,1.7554378999999998,-2.9757423,0.04291202,10.915382
860,8.600000238,4.883011457142858,-1.9781685714285715,1.8195966142857143,-2.7122055142857144,0.4504344342857142,10.130770571428572
861,8.610000238,4.875487799999999,-1.5440636,1.7012679666666666,-2.413762933333333,0.84719424,8.838756000000002
862,8.620000238,3.8231324714285715,-0.8906051142857142,1.4633214714285714,-2.2509285,0.8663341171428572,7.376678571428571
863,8.630000238,2.8518434,-0.34758124,1.4647806,-2.1093573833333337,0.5727201916666667,6.827643433333333
864,8.640000238,2.814837457142857,-0.2164411942857143,1.4430109714285713,-1.7920949142857143,0.3417035957142857,6.773685114285714
865,8.650000238,2.9200135428571428,-0.1362884382857143,1.0531755457142857,-1.5789965285714285,0.4214627971428571,6.327068571428571
866,8.660000238,2.65832595,0.14439866050000003,0.48359528,-1.7129174666666664,0.8056566333333333,5.4962001
867,8.670000238,2.2734603142857144,0.31202168571428573,0.25869975714285715,-2.1341694142857146,1.1420879714285714,4.971489614285714
868,8.680000238,1.8015989999999997,0.42387638,0.10742496833333333,-3.1229566999999996,1.4753742833333334,4.6536889666666665
869,8.690000238,1.5471635,0.41920127999999995,0.10153031,-4.5431767,1.9427997,4.8298163
870,8.700000238,1.9439853,0.35209373,0.42441500000000004,-5.053845,2.2628837,4.9093795
871,8.710000238,2.74710655,0.3221885133333333,1.0835489999999999,-5.4937820833333335,2.829953533333333,4.662876916666667
872,8.720000238,3.0473076285714282,0.7736209285714286,2.3339384857142855,-4.493632442857143,2.800603785714286,2.8686477714285714
873,8.730000238,2.4804192,1.0349385,2.3677602,-3.3524315333333337,1.8403555833333334,1.9484501166666668
874,8.740000238,1.6886786285714288,1.3141445857142855,1.8842170571428571,-2.518479657142857,0.23593975714285717,2.2099799
875,8.750000238,1.5332602,1.4036795,1.500179,-2.3526783,-0.63146335,2.8103554
876,8.760000238,2.3346528714285717,1.4609650142857142,1.568488742857143,-2.7081914,-1.0810469,4.0381584
877,8.770000238,3.5159063,1.4913065,2.060486,-3.0979118,-0.6192464,5.104851000000001
878,8.780000238,5.77158675,1.6328441833333331,3.2081953333333337,-2.9623039,0.32145837,5.2991
879,8.790000238,7.034313,1.9415766,4.064597,-1.9470756,1.2743801,4.324035
880,8.800000238,7.621268,2.2964144,4.696189,-0.110868774,1.3770025,2.6576438
881,8.810000238,6.743525171428572,2.6855661714285715,4.1854534,2.7239424608571428,-0.2806624657142857,0.5664517742857142
882,8.820000238,6.121256783333333,2.6060615666666664,3.22012195,5.031014233333333,-1.7706935166666666,-0.9786791166666666
883,8.830000238,5.809241271428571,2.217032685714286,1.8133158571428571,5.700862714285714,-1.7334318285714285,-1.9050144285714286
884,8.840000238,5.589477416666667,1.8266716333333333,0.7145285275000001,5.3387795166666665,-1.1240099116666669,-2.6308173333333333
885,8.850000238,5.096137857142857,1.5201714,-0.14093157214285715,4.138686657142857,-0.21765795999999998,-3.3405056285714285
886,8.860000238,4.657170571428572,1.4456243571428573,-0.3773086114285714,2.5045827428571426,0.5837736571428572,-3.9023104857142856
887,8.870000238,4.164795566666666,1.3677219999999999,-0.23906883,1.0437852,1.094791,-4.301281
888,8.880000238,3.7679026857142857,1.1393087,0.20790847428571427,-0.5128063,1.6677657,-4.689779800000001
889,8.890000238,3.5695984,0.9573119,0.625006,-1.2572254999999999,2.1516585666666668,-4.9235306
890,8.900000238,3.2754871428571426,0.7328737571428572,1.2404338857142856,-2.0158394714285714,2.873207285714286,-5.267641428571428
891,8.910000238,2.6197565,0.5629597,2.1386003,-1.4803883000000002,3.2329092,-5.553518
892,8.920000238,2.1134681714285715,0.4959479314285714,2.2832690857142857,-0.5443739885714286,2.993805957142857,-5.5947065714285715
893,8.930000238,1.8026611166666668,0.45382219333333335,2.2868458666666664,0.59929205,2.4711825166666666,-5.5524997833333325
894,8.940000238,1.5607748857142858,0.40410458,2.2950730714285714,1.705071,1.8036574142857142,-5.402202242857143
895,8.950000238,1.4910408714285714,0.2703032357142857,2.2257569714285714,2.5544978,1.3522194857142857,-5.267466985714285
896,8.960000238,1.6064504333333334,0.074049035,1.99992355,3.3576746000000006,1.0056072,-5.1711273
897,8.970000238,1.8792298000000003,-0.11547276285714288,1.6367332,4.4254355,0.78814566,-5.2151084
898,8.980000238,2.074816,-0.2470571,1.3622746,4.611133,0.79669756,-5.272528
899,8.990000238,2.265681,-0.39382090000000003,1.100281957142857,4.665236571428571,0.8909425457142858,-5.427857857142857
900,9.000000238,2.48723365,-0.5651549100000001,0.91238553,4.551881,1.00377472,-5.7142469
901,9.010000238,2.7120789285714286,-0.8856527428571429,0.94223704,4.013026571428571,1.2087576714285715,-6.405889714285714
902,9.020000238,2.7690422714285714,-1.0314800714285715,1.1588001857142858,3.7957395285714286,1.2618141285714286,-6.7326055714285715
903,9.030000238,2.8383974999999997,-1.08404695,1.3298946999999999,3.793412416666667,1.2666426499999999,-7.0032111666666665
904,9.040000238,2.9416654999999996,-1.185692,1.3794751,3.9264605285714285,1.3063187,-7.263519428571429
905,9.050000238,2.964547916666667,-1.3537883,1.2816956833333333,4.0387692500000005,1.3470709,-7.569873933333334
906,9.060000238,2.8361235571428574,-1.5210817714285714,1.134121,3.993654242857143,1.4517003000000002,-7.823753657142857
907,9.070000238,2.4328249,-1.5729576,1.0479574,3.7779377,1.7679447,-7.978734
908,9.080000238,2.3149521,-1.5551517,1.1668059,3.6850889,1.8302511,-7.9213147
909,9.090000238,2.2157521,-1.5663022000000002,1.6282221857142858,3.8055130142857143,1.5789310714285716,-7.719211214285715
910,9.100000238,2.1434940499999997,-1.604804,1.95958075,4.0851938500000005,1.2994248,-7.61711265
911,9.110000238,2.1641245428571425,-1.7411469571428573,2.1527039714285716,5.188340271428571,0.5422360199999999,-7.398778371428571
912,9.120000238,2.179582742857143,-1.8160249571428573,2.0216902142857145,5.7554903,0.27922264571428573,-7.329839957142857
913,9.130000238,2.0955590666666666,-1.8531975333333335,1.8278404000000001,6.1542862000000005,0.10114611833333333,-7.2229125
914,9.140000238,2.0444397999999997,-1.8344188,1.793427757142857,6.33754,0.017256435,-7.1137743
915,9.150000238,2.076203566666667,-1.8139118166666668,1.8618006833333334,6.6845016,-0.09758285,-6.859662
916,9.160000238,2.122336342857143,-1.8549644714285716,1.7367607857142855,7.260443185714286,-0.06930934714285714,-6.5750072571428575
917,9.170000238,2.086768,-1.7694019,1.3830379,7.813347299999999,0.15164282999999998,-6.347772
918,9.180000238,2.0926628333333332,-1.7049419833333335,1.2315047333333333,8.013908716666668,0.08139539666666666,-6.2948319999999995
919,9.190000238,2.170706,-1.7052215,0.32898260000000007,8.034124142857143,-0.3263887814285714,-6.333460628571428
920,9.200000238,2.151802416666667,-1.7955214999999998,-0.16845495,7.594053,-0.501963705,-6.5269539
921,9.210000238,1.9693483857142857,-1.9718964714285714,-0.4348380942857143,7.143858685714285,-0.3684499585714286,-6.680770971428571
922,9.220000238,1.0071928566666666,-2.584531,-0.3647672533333333,5.8563961,0.220464955,-6.959230099999999
923,9.230000238,0.060378075714285696,-2.914765085714286,0.23331936571428574,5.418302285714285,0.06996382285714285,-6.689497285714286
924,9.240000238,-0.75731332,-3.0696869571428573,0.37475618285714285,5.83682,-0.8110524571428571,-5.864984428571428
925,9.250000238,-1.2700537166666666,-3.1369665999999996,0.11434608333333333,6.0899435833333335,-1.0979470500000001,-5.04956905
926,9.260000238,-1.7521013857142858,-3.1254785000000003,-0.7432794714285714,5.892494414285714,-1.1222354714285714,-3.4033354428571427
927,9.270000238,-1.8350766,-3.036732,-0.9151754,5.5617642,-1.1091459,-2.7924883
928,9.280000238,-1.7239812,-2.994499714285715,-1.0731026857142856,5.042238857142857,-1.1457967285714286,-2.1212543285714287
929,9.290000238,-1.2748050166666667,-2.7627983666666664,-1.2514907833333333,3.3179696166666663,-1.09204215,-0.959132
930,9.300000238,-1.0683767771428572,-2.6062105428571427,-1.3127900000000001,2.3000363285714287,-1.1700560714285717,-0.64125872
931,9.310000238,-0.7795707428571428,-2.5707117714285714,-1.6128248857142857,1.0462068757142855,-1.3115981285714287,-0.5342731771428572
932,9.320000238,-0.7172573,-2.5766341333333336,-1.6822017333333334,-0.8634326133333333,-1.2883277666666666,-0.7147930666666666
933,9.330000238,-0.7885565071428571,-2.6765586428571426,-1.5078144571428571,-2.238362571428571,-1.1506835328571428,-0.9175361857142857
934,9.340000238,-0.8806001499999999,-2.9813325,-1.1497012,-3.5829246,-0.84281653,-1.1615261
935,9.350000238,-1.3192886142857143,-3.7711737857142853,-0.24280598142857143,-4.958574499999999,-0.22760605857142857,-1.5261145571428572
936,9.360000238,-2.3759210833333335,-4.048391516666666,0.3587505916666667,-5.422516666666667,0.099313585,-1.5005462166666668
937,9.370000238,-3.335225,-3.9670606,0.7162917999999999,-5.200448,0.04535541,-1.0027058
938,9.380000238,-4.072737,-3.6773794,0.8187977999999999,-4.62503,-0.14522894,0.43660307
939,9.390000238,-3.8234091666666665,-3.473988483333333,0.7435393,-4.053277,-0.20631365,2.2862487
940,9.400000238,-2.588574428571429,-3.1454840285714285,0.6653480542857143,-3.585891542857143,0.02894979971428572,3.9844475857142854
941,9.410000238,-1.6971722,-2.907639,0.62476206,-3.2775009,0.2261662,5.0046716
942,9.420000238,-0.568508786,-2.489269814285714,0.16879034285714287,-3.199835985714286,0.5366511285714285,6.112224800000001
943,9.430000238,0.024348109714285714,-2.1934944857142855,-0.14620626142857143,-3.4965332714285715,0.6558536300000001,6.508926642857142
944,9.440000238,0.20711064999999998,-2.0813357833333335,-0.126862075,-3.75579435,0.662311135,6.838638733333333
945,9.450000238,0.5001256833333333,-1.9197816833333334,0.11195267333333332,-4.245490333333334,0.49819684166666667,7.718258833333333
946,9.460000238,0.6961991,-1.8553216,0.26772904,-4.357479,0.25793025,8.324016
947,9.470000238,0.8660566,-1.8184597,0.32947046,-4.3794694,0.08078455,8.691746
948,9.480000238,1.3357588,-1.7195515666666665,0.39292942000000003,-4.4136767,-0.18371231,9.2005815
949,9.490000238,2.0473451285714286,-1.6464461857142856,0.45351078285714286,-4.578780000000001,-0.5801521957142857,10.094773857142858
950,9.500000238,2.6624775333333335,-1.5820282166666668,0.6339902283333333,-4.914978733333333,-0.6565081033333333,10.429325833333333
951,9.510000238,3.2623766714285716,-1.555674342857143,0.8875256285714286,-5.196259357142857,-0.7258828885714286,10.494944857142857
952,9.520000238,3.74078215,-1.5259732,1.1683761,-5.3220065,-0.74752435,9.9910945
953,9.530000238,3.782324271428571,-1.4855701714285714,1.2712109571428571,-5.320348571428572,-0.6724774,9.439946714285714
954,9.540000238,3.3857972833333334,-1.3978051333333334,1.4061745666666667,-5.254609933333334,-0.548184545,8.763215
955,9.550000238,2.8108652,-1.2957158,1.4962459,-5.099745514285714,-0.6257039600000001,8.388416142857142
956,9.560000238,2.4459965,-1.3525789,1.4740494,-4.964661,-0.8403731,8.430303
957,9.570000238,2.3616273571428574,-1.4531509714285715,1.4492874714285713,-4.883505785714285,-1.0018113142857143,8.597849428571429
958,9.580000238,2.3389604142857143,-1.6391809142857146,1.4283019,-4.7471995,-1.1885561,8.926311
959,9.590000238,2.3693253,-1.7691224333333333,1.4271615500000001,-4.637654166666667,-1.2097320999999999,9.086760416666666
960,9.600000238,2.385661914285714,-1.8919920285714285,1.3521738571428572,-4.469526,-1.166914557142857,9.310970357142855
961,9.610000238,2.4515861666666665,-1.9320691833333334,1.3190352333333333,-4.440961583333333,-0.9981752666666667,9.405825833333333
962,9.620000238,2.6933672285714287,-1.9748321571428573,1.3891185428571429,-4.443521142857143,-0.6740481257142857,9.369436714285714
963,9.630000238,3.00192825,-1.9240553666666667,1.5537796833333335,-4.373361,-0.33581328,9.132777
964,9.640000238,3.102093,-1.5971794285714285,1.796502942857143,-3.8434946571428568,0.10172788285714285,7.913875285714286
965,9.650000238,2.861112,-1.2783978,1.959474,-3.4961843,0.20906246999999997,7.401636000000001
966,9.660000238,2.6822295,-1.132688,2.049754,-3.2243571333333336,0.23960483666666665,7.18376725
967,9.670000238,2.3913286,-0.9203586,2.1590893,-2.4830505,0.13680797,6.834420814285714
968,9.680000238,2.25303285,-0.6901622333333334,1.9044759666666666,-1.2863425499999999,-0.61639577,6.423058950000001
969,9.690000238,2.145752242857143,-0.4814392657142857,1.3167101142857143,-0.7299188428571428,-1.1004195114285715,5.989706485714286
970,9.700000238,2.0688880571428574,-0.309913568,0.9089859714285715,-0.6913482142857144,-1.06848092,5.561589885714286
971,9.710000238,2.0494184,0.045063604,0.7223897,-1.2494881,-0.16477604,5.135393
972,9.720000238,1.8863339285714285,0.38838502142857145,1.0821450428571429,-1.6261190428571428,0.7528910514285714,4.746065000000001
973,9.730000238,1.8446656333333333,0.4815168933333333,1.2630209333333333,-1.7894770500000001,1.2027073833333333,4.607468083333333
974,9.740000238,2.191878714285714,0.6177494571428571,1.1682824428571428,-1.9791887571428572,1.0714042857142858,4.631029357142857
975,9.750000238,2.7928408,0.8392816783333332,0.89577385,-2.4263871666666668,0.9170344500000001,4.616020066666667
976,9.760000238,3.4639302571428567,0.9749915785714285,0.8031392457142857,-3.179241957142857,1.1904541428571431,4.367492657142857
977,9.770000238,4.085368842857142,1.2442058857142857,1.032503622857143,-4.498497228571429,2.1314643714285717,3.6149286
978,9.780000238,4.0288935,1.5803666000000003,1.8857501999999997,-5.1760144,2.6623778,2.988723
979,9.790000238,3.8067289285714283,1.845416857142857,2.9871125999999997,-5.155070885714286,2.3115769999999998,2.5855637999999996
980,9.800000238,3.7003989999999995,2.1743953,4.263267,-4.183998,1.2523896,2.5220356
981,9.810000238,4.645210028571428,2.3787539,4.809718571428571,-2.100092886857143,0.19789269714285715,3.0742415714285714
982,9.820000238,6.664748433333333,2.5803945333333336,4.921120466666667,0.505017964,-0.5105156133333334,3.2330618666666666
983,9.830000238,7.7996494,2.491125285714286,4.563471557142857,1.8220046428571428,-0.40510082285714283,2.1359801314285716
984,9.840000238,7.998720685714285,2.0947955428571428,3.6357435000000002,2.643855942857143,-0.06389898714285715,-0.27728102285714284
985,9.850000238,7.9948874,1.7158319000000002,3.040086,2.8030252,0.12110047,-1.6135530000000002
986,9.860000238,7.517542400000001,1.4109969,2.7028405999999996,2.7370539,0.28725094,-2.6275594
987,9.870000238,6.365320399999999,0.8757218066666667,2.3094234,2.4401821,0.54991527,-3.5273374
988,9.880000238,4.830099,0.30352380000000007,1.8354731,1.6710380428571427,1.1927010285714286,-4.875303057142857
989,9.890000238,3.9498543666666666,0.165639735,1.6612656166666666,0.9521581349999999,1.8852527666666667,-5.167055133333333
990,9.900000238,3.4448962,0.10095101,1.6504926999999998,0.20341214428571427,2.7752972857142857,-5.307259142857143
991,9.910000238,2.846511857142857,0.04518556714285714,1.8116301142857143,-0.05133298142857142,3.382828528571429,-5.270084471428572
992,9.920000238,2.459599783333333,-0.10566673666666666,2.040408766666667,0.10796725833333333,3.811788716666667,-5.11167175
993,9.930000238,2.3681260142857146,-0.23686050714285714,2.0253664857142857,0.5802394685714286,3.8510865142857145,-5.131160714285714
994,9.940000238,2.2141994333333335,-0.26848111333333335,1.8799065333333331,1.0702553266666668,3.7171073333333333,-5.297369333333333
995,9.950000238,2.0032876,-0.29144993,1.7017457,1.3382137,3.5835354,-5.420353
996,9.960000238,1.7716888,-0.33099493,1.6192714,1.6094299,3.3374513142857145,-5.548107571428572
997,9.970000238,1.6279049666666665,-0.3830558883333333,1.6231333999999997,1.8289276,3.1058529666666668,-5.6231544
998,9.980000238,1.5487749857142856,-0.4581495728571428,1.6275645142857142,2.340177742857143,2.746151157142857,-5.6770836000000005
999,9.990000238,1.62637025,-0.6389143183333333,1.5540286833333334,2.8121881500000003,2.55425785,-5.6622487
