id,timestamp,acc_x,acc_y,acc_z,gyro_x,gyro_y,gyro_z
0,4.77e-07,-0.16002676514285713,0.6994397714285714,0.5801863157142856,0.9706144857142858,-1.1830802428571427,0.6701430485714285
1,0.010000477,-0.03465794528571429,0.6764985157142858,0.6143738457142858,0.7176146142857143,-0.8511938428571427,0.6287799828571429
2,0.020000477,-0.019686106666666665,0.6423443966666667,0.6776513333333334,0.5659499766666667,-0.4905612566666666,0.5024218500000001
3,0.030000477,-0.05170597742857143,0.6253631214285714,0.7410144714285715,0.4891577614285714,-0.1522100442857143,0.37257319285714285
4,0.040000477,-0.08951233883333333,0.6263678166666666,0.8475849916666666,0.5193219783333333,0.025808297283333333,0.311226675
5,0.050000477,-0.04068181628571428,0.6403465857142858,0.8696631285714285,0.7019071457142857,-0.009446316828571428,0.2741395228571428
6,0.060000477,0.021647604000000004,0.6522637,0.8483117,0.813954,-0.03771982,0.21654536
7,0.070000477,0.055399570399999994,0.6326588666666667,0.90591672,1.0779926666666666,-0.6905627999999999,-0.10272414866666668
8,0.080000477,-0.022958656114285714,0.6122438857142857,0.8065714557142858,1.1760773714285715,-1.5749387428571429,-0.42117919285714284
9,0.090000477,-0.18833415142857143,0.7546302571428571,0.39247065,1.01826056,-1.9189330714285713,-0.6506832371428571
10,0.100000477,-0.26453778,0.75939391,0.25292126,0.68526883,-1.7181097,-0.6980965866666665
11,0.110000477,-0.19640083142857143,0.7246328742857143,0.26758529428571426,0.32457806142857143,-1.4655098142857141,-0.6180464914285714
12,0.120000477,-0.14841312999999998,0.7316940883333333,0.34591448333333324,0.06281546,-1.0290485416666668,-0.513620715
13,0.130000477,-0.14218163571428571,0.756267957142857,0.6399763857142856,-0.10615652428571429,-0.4253460242857143,-0.4011084914285714
14,0.140000477,-0.13577011,0.7540378599999998,0.7907169,-0.10353861,-0.19409671,-0.32344362
15,0.150000477,-0.044484302,0.70790714,0.7514157999999999,-0.090303585,-0.3223746516666666,-0.33566056166666663
16,0.160000477,-0.042776886,0.7367198,0.616225,-0.13896775,-0.5154024,-0.3735331
17,0.170000477,-0.03594722,0.65153193,0.47030184,-0.31000498,-0.8171608999999999,-0.3515426
18,0.180000477,0.005945468742857142,0.4997460928571429,0.29792242857142853,-0.4478819242857143,-0.9307784928571429,-0.3243162628571429
19,0.190000477,0.003963645714285714,0.35746425142857147,0.23622022857142858,-0.6276455571428572,-0.83566084,-0.3566039085714286
20,0.200000477,-0.09851184666666668,0.27878658666666667,0.2552079666666667,-0.7787284833333333,-0.16192542533333334,-0.4777843533333333
21,0.210000477,-0.20269911142857144,0.33260214857142856,0.3475072,-0.9339418071428571,0.03575638057142857,-0.5581834714285714
22,0.220000477,-0.3300700716666667,0.46014878500000006,0.30991646333333334,-1.0540168833333332,0.027640838333333334,-0.4598661656666667
23,0.230000477,-0.40101643,0.5356802,0.2899036757142857,-1.249837157142857,0.4397882028571428,-0.021336020000000004
24,0.240000477,-0.37533985999999997,0.5290203671428572,0.21957291285714287,-1.4301244,0.6436366657142857,0.15162101285714286
25,0.250000477,-0.27681494,0.45142877,0.16790615,-1.773595,1.2279557,0.41445985
26,0.260000477,-0.20379238285714285,0.3368968271428571,0.3052835,-2.1706457142857145,1.9400291285714284,0.5628084571428571
27,0.270000477,-0.17458336,0.29108405,0.36023444,-2.329466,2.2248585,0.6221479
28,0.280000477,-0.17458336,0.29108405,0.36023444,-2.329466,2.2248585,0.6221479
29,0.290000477,-0.17458336,0.29108405,0.36023444,-2.329466,2.2248585,0.6221479
30,0.300000477,-0.17458336,0.29108405,0.36023444,-2.329466,2.2248585,0.6221479
31,0.310000477,-0.17458336,0.29108405,0.36023444,-2.329466,2.2248585,0.6221479
32,0.320000477,-0.17458336,0.29108405,0.36023444,-2.329466,2.2248585,0.6221479
33,0.330000477,-0.17458336,0.29108405,0.36023444,-2.329466,2.2248585,0.6221479
34,0.340000477,0.27109304333333334,0.38172958,0.7829521833333333,-0.6541156,-2.5553521966666666,0.25060008000000006
35,0.350000477,0.33523297,0.38965687,0.7209262,-0.1731752,-2.9687176,-0.14385453
36,0.360000477,0.33523297,0.38965687,0.7209262,-0.1731752,-2.9687176,-0.14385453
37,0.370000477,0.24737723583333335,0.4806123666666666,0.8070338733333333,-0.3926729666666667,-2.081716516666667,0.055892526666666664
38,0.380000477,0.23242208571428571,0.6290567142857143,1.0962007714285715,-0.6339285285714286,-0.9464860285714286,0.35180439714285716
39,0.390000477,0.27431477666666665,0.6308803133333334,1.2295941333333333,-0.44154075,-1.0529988666666668,0.3875825866666667
40,0.400000477,0.35082186857142855,0.6463748300000001,1.2806365714285715,-0.1335573814285714,-1.1426334714285713,0.40416272857142854
41,0.410000477,0.3906325533333333,0.6649473499999999,1.2036576666666667,0.06342630833333333,-1.1463312666666665,0.38473196666666665
42,0.420000477,0.37990022,0.67421615,1.072837,0.1408003,-1.0566131,0.3399365
43,0.430000477,0.37990021999999996,0.67421615,1.072837,0.1408003,-1.0566131,0.33993650000000003
44,0.440000477,0.37990022,0.67421615,1.072837,0.1408003,-1.0566131,0.3399365
45,0.450000477,0.3693254266666666,0.7826269816666667,1.1257161166666665,-0.05507806099999999,-0.7579087333333333,0.5128062866666666
46,0.460000477,0.4631368,0.83090216,0.96691614,-0.31977853000000006,-0.7194253999999999,0.5512897
47,0.470000477,0.44767858,0.7888221428571428,0.8683869085714286,-0.6574898100000001,-0.35797832571428573,0.5587943428571428
48,0.480000477,0.41179232,0.7179178999999999,0.9000525266666667,-1.101663,0.16385978,0.6372154833333333
49,0.490000477,0.3550207,0.6525076,0.9845087,-1.2287192,0.35688752,0.70155805
50,0.500000477,0.17643451114285713,0.5442869857142857,1.0906603857142858,-1.1690307571428573,0.41203828285714283,0.7855495814285715
51,0.510000477,0.027338996000000004,0.5246342766666667,1.1810343,-0.9943575833333332,0.05268557999999999,0.8297850833333333
52,0.520000477,-0.11146991428571429,0.5002338957142858,1.1822335285714285,-0.5347967714285715,-1.0980198214285715,0.9593138142857143
53,0.530000477,-0.25520652,0.41199269857142856,1.063049802857143,0.001876172857142874,-2.4287287999999996,1.1935300857142859
54,0.540000477,-0.30416408,0.36428955,0.9901187400000001,0.41201647999999996,-3.4121928,1.4212888
55,0.550000477,-0.30416408,0.36428955,0.99011874,0.41201648,-3.4121928,1.4212888
56,0.560000477,-0.30416408,0.36428955,0.9901187400000001,0.41201647999999996,-3.4121928,1.4212888
57,0.570000477,-0.16606804965714286,0.24571991285714284,0.6955501599999999,1.114578077142857,-4.622019371428571,1.6928541
58,0.580000477,-0.04951072714285714,0.12281203457142856,0.2196643885714286,1.9939145714285715,-6.688581471428571,2.028122042857143
59,0.590000477,-0.073124181,0.014076024000000001,0.3127215066666667,2.1013654333333336,-6.5887512,2.307831866666667
60,0.600000477,-0.039884731857142856,-0.02343777857142857,0.26769856285714283,2.247852414285714,-6.693816914285714,2.417668085714286
61,0.610000477,-0.023786232285714286,-0.05651897714285714,0.1047055857142857,2.5014413,-6.841991257142857,2.5995259428571424
62,0.620000477,-0.01911188833333333,-0.06869811733333334,-0.023659913333333334,2.5092078166666667,-6.6467564999999995,2.719746466666667
63,0.630000477,0.052455150000000006,-0.024060638428571427,-0.32077654000000005,2.2834561714285715,-5.887520342857143,2.8656808000000003
64,0.640000477,0.11494137857142857,0.028729899285714285,-0.5086272428571429,1.8448678142857144,-4.769146228571429,2.9534682857142855
65,0.650000477,0.185895,0.07387626,-0.6581786,1.0731059,-3.0664532,3.0278172
66,0.660000477,0.15401595142857144,0.13186309142857142,-0.5262676228571429,0.03346571428571431,-1.2413725085714284,3.0791282285714283
67,0.670000477,0.17058050714285716,0.17139937,-0.2588609214285714,-0.7266027857142857,-0.2879926633714286,3.102340571428571
68,0.680000477,0.25787655,0.1742218357142857,0.07141095285714286,-1.1819457857142857,-0.023408539857142856,3.1243310142857146
69,0.690000477,0.40186797,0.20700904,0.40171550000000006,-1.3087402499999998,-0.22097399500000003,3.13960215
70,0.700000477,0.5012661842857142,0.2639526942857143,0.57241144,-1.2634503,-0.3763037228571429,3.1182225714285714
71,0.710000477,0.60857207,0.37794888,0.7619347,-1.1053281,-0.42133188,3.044921
72,0.720000477,1.1237894714285714,0.5114801728571429,0.44459908571428575,-1.1821202714285715,-0.18554485142857144,2.7819076
73,0.730000477,1.5382561571428572,0.6633618642857143,0.6176666657142856,-1.5751568999999999,0.4095948857142857,2.2663524
74,0.740000477,1.7319303,0.7569649000000002,0.81709033,-1.8823259000000003,0.7979192,1.8989714
75,0.750000477,1.7450712999999998,0.7726191142857143,1.0684551685714285,-1.8903541714285714,0.8347445571428571,1.8572592571428572
76,0.760000477,1.8239173,0.8665443999999999,2.5766442,-1.9385238,1.0556967,1.6069864
77,0.770000477,2.782266071428571,0.9393361514285713,3.846605057142857,0.31153208308571434,-0.04417736857142857,1.7403256285714286
78,0.780000477,3.7534813333333332,0.9686032583333333,4.079745483333333,2.391925083333333,-0.5473700833333334,1.343889375
79,0.790000477,4.3276,0.9736849,3.4769409,4.007616,-0.468978,0.39491275
80,0.800000477,4.3276,0.9736849,3.4769409,4.007616,-0.468978,0.39491275
81,0.810000477,4.3276,0.9736849,3.4769409,4.007616,-0.468978,0.39491275
82,0.820000477,4.3276,0.9736849,3.4769409000000002,4.007616,-0.46897800000000006,0.39491275
83,0.830000477,3.5214467857142857,0.8547972714285714,1.7924609571428571,3.793470471428571,1.1349324142857142,-1.7067508785714285
84,0.840000477,2.279388042857143,0.7396773314285714,0.65213299,2.6747475,2.8931253,-3.7148676000000003
85,0.850000477,2.0499063,0.70327276,0.8163585699999999,2.4456795833333334,2.6935818833333336,-3.7158856
86,0.860000477,1.9816792,0.5099513542857144,0.8913063642857143,2.4838140571428573,1.9683025857142857,-3.8324993
87,0.870000477,1.890689485714286,0.3307423,0.8343344214285714,2.6281484285714285,1.2865970857142857,-4.031635571428572
88,0.880000477,1.751700614285714,0.19107822785714285,0.6565235085714285,2.673700085714286,0.9705272428571429,-4.203021771428571
89,0.890000477,1.5252922666666666,0.04271590666666667,0.4153799266666667,2.5806769666666667,0.6513159166666667,-4.4401978
90,0.900000477,1.3829466,-0.05277747,0.27821746,2.4658376999999994,0.50715595,-4.5543246
91,0.910000477,1.225219617142857,-0.1360314585714286,0.1785774985714286,2.2724609,0.5099483928571429,-4.5682868
92,0.920000477,0.7353986066666667,-0.37305023333333337,-0.08019776666666667,1.6424155333333335,0.5491008000000001,-4.5375772
93,0.930000477,0.4984044985714286,-0.4453570142857143,-0.06984728,1.3492088,0.6134434000000001,-4.406347
94,0.940000477,0.22248249,-0.53259206,0.10835998,1.1012049,0.56946236,-4.11314
95,0.950000477,0.023206929428571423,-0.6109241714285715,0.29273485285714285,1.2142989,0.2741613440142857,-3.8415747857142857
96,0.960000477,-0.08846552666666667,-0.6659179333333333,0.36446232500000003,1.4098863333333334,-0.05930308941666667,-3.572743716666667
97,0.970000477,-0.13949855428571428,-0.7215839142857143,0.3490055542857143,1.7413727571428572,-0.42255359285714283,-3.223397342857143
98,0.980000477,-0.16554101857142858,-0.7842269571428571,0.22746971714285716,2.0406880142857142,-0.7243121285714286,-2.8703276428571427
99,0.990000477,-0.18409611,-0.8063885000000001,0.1923283,2.1628575,-0.8660286999999999,-2.7020829
100,1.000000477,-0.18409611,-0.8063885,0.1923283,2.1628575,-0.8660287,-2.7020829
101,1.010000477,-0.18409611,-0.8063885,0.1923283,2.1628575,-0.8660287,-2.7020829
102,1.020000477,-0.15961732285714286,-0.8140762714285714,-0.08348919,2.5188940571428566,-2.3210450857142857,-1.8411372428571426
103,1.030000477,-0.09476163,-0.7941927,-0.23184279,2.4487339999999995,-2.9503922,-1.6013361
104,1.040000477,-0.035668458,-0.7525439085714286,-0.44599290857142854,2.3143475,-3.0786703,-1.5402514
105,1.050000477,-0.065842258,-0.65788898,-0.83524689,0.9838458499999999,-2.5588392,-1.2965232500000001
106,1.060000477,-0.10646963,-0.6389702,-0.87075204,0.18670112142857143,-2.226625557142857,-1.1044554542857143
107,1.070000477,-0.10646963,-0.6389702,-0.87075204,-0.29290125,-2.0451167,-0.96483326
108,1.080000477,-0.19949334714285713,-0.57729848,-0.7033685742857143,-0.6705793714285715,-1.9585509,-0.7545272685714286
109,1.090000477,-0.3432923833333333,-0.4908416533333333,-0.3000784766666667,-1.5750696,-1.9999138500000002,0.011300669999999999
110,1.100000477,-0.42837867,-0.5572277,-0.14275223,-1.6502038,-2.1501822,0.20921518
111,1.110000477,-0.42837867,-0.5572277,-0.14275223,-1.6502038,-2.1501822,0.20921518000000003
112,1.120000477,-0.42837867,-0.5572277,-0.14275223,-1.6502038,-2.1501822,0.20921518
113,1.130000477,0.07763517571428571,-0.24547602285714287,-0.08850690428571428,-1.3545537714285716,-1.4876311714285715,1.2554219914285714
114,1.140000477,0.69815046,0.06826618,-0.1937613,-1.1334271,-0.6497888,2.0516832
115,1.150000477,0.80651045,0.6222619400000001,-0.46783215,-1.6221049,0.32634515,1.9759382
116,1.160000477,0.7742611857142857,0.70045902,-0.47341174857142854,-1.7835430857142858,0.2118549214285714,1.9956598285714287
117,1.170000477,0.6599383428571429,1.2364789714285713,-0.42341756714285717,-3.044331828571429,-0.797679257142857,2.2778712
118,1.180000477,0.9309588,1.3751309999999999,-0.12925550333333335,-3.597992233333333,-1.4293826,2.607961433333333
119,1.190000477,1.2618724,1.4742018,0.23647723,-3.9262206999999996,-1.8325418,2.8311243
120,1.200000477,2.071645342857143,1.5386437857142856,0.9444452857142858,-3.800909785714286,-2.259087585714286,2.6297193
121,1.210000477,2.3204926857142856,1.506978157142857,1.1343082857142857,-3.4267222142857143,-2.1718237,2.210154557142857
122,1.220000477,2.3422709,1.4595668,1.1738795,-3.137006,-1.9205037,1.8855327
123,1.230000477,2.1782804285714286,1.4509252714285714,1.11481678,-2.9013937142857142,-1.6859385,1.6111750714285713
124,1.240000477,1.8556571,1.4222476,0.99963146,-2.621451,-1.4135005,1.324775
125,1.250000477,1.3394937666666664,1.3044816000000001,0.857067285,-2.621451,-1.4135005000000003,1.324775
126,1.260000477,1.017358962857143,1.2659014285714285,0.69976645,-2.3505838571428574,-1.3541610714285715,1.4347275
127,1.270000477,0.81529146,1.1618361,0.43807435,-2.1620939,-1.3023263,1.8232263
128,1.280000477,0.81529146,1.1618361,0.43807435,-2.1620939,-1.3023263,1.8232263
129,1.290000477,0.81529146,1.1618361,0.43807435,-2.1620939,-1.3023263,1.8232263
130,1.300000477,0.81529146,1.1618361,0.43807435,-2.1620939,-1.3023263,1.8232263
131,1.310000477,0.81529146,1.1618361,0.43807435,-2.1620939,-1.3023263,1.8232263
132,1.320000477,0.81529146,1.1618361,0.43807435,-2.1620939,-1.3023263,1.8232263
133,1.330000477,0.81529146,1.1618361,0.43807435,-2.1620939,-1.3023263,1.8232263
134,1.340000477,0.81529146,1.1618361,0.43807435,-2.1620939,-1.3023263,1.8232263
135,1.350000477,0.81529146,1.1618361,0.43807435,-2.1620939,-1.3023263,1.8232263
136,1.360000477,0.81529146,1.1618361,0.43807435,-2.1620939,-1.3023263,1.8232263
137,1.370000477,0.81529146,1.1618361,0.43807435,-2.1620939,-1.3023263,1.8232263
138,1.380000477,0.81529146,1.1618361,0.43807435,-2.1620939,-1.3023263,1.8232263
139,1.390000477,0.81529146,1.1618361,0.43807435,-2.1620939,-1.3023263,1.8232263
140,1.400000477,0.81529146,1.1618361,0.43807435,-2.1620939,-1.3023263,1.8232263
141,1.410000477,0.2835095914285714,0.5968031257142857,0.30483050285714286,-1.2861389142857143,-1.8354868599999998,0.4851872385714286
142,1.420000477,-0.15211253,0.45655105,0.19062088,-0.7009472,-2.1575124,-0.2586938
143,1.430000477,-0.221105385,0.429003685,0.26162603,-0.6089129333333333,-1.8349850666666665,-0.23833224
144,1.440000477,-0.42825234857142863,0.48971933428571424,0.28212012,-0.42885841428571425,-1.3899393142857144,-0.055368941428571426
145,1.450000477,-0.5207752028571428,0.5456764199999999,0.2748374771428571,-0.36009446,-1.0566131,0.34115818
146,1.460000477,-0.4243947133333333,0.6301281933333334,0.29685674999999995,-0.3421762666666666,-0.8253055666666667,0.6400661266666666
147,1.470000477,-0.2256447171428571,0.7037169771428572,0.26669238199999995,-0.3988396242857143,-0.4998694000000001,0.8321266999999999
148,1.480000477,0.7643637333333334,0.9444758333333333,0.07843953599999999,-0.8668940916666666,0.926808,1.02319465
149,1.490000477,1.023417742857143,1.0502659857142855,0.4115483971428571,-1.2768889428571428,1.9517224285714287,0.44517677142857137
150,1.500000477,1.0700572666666666,1.2055581,1.0536895166666667,-1.30650055,2.29978895,-0.22489359333333336
151,1.510000477,1.0245327,1.4364818857142858,1.7178441142857142,-0.8915315714285714,1.5749168928571429,-0.3607925828571429
152,1.520000477,1.3293154142857142,1.6748146857142856,2.1437486285714287,-0.19237324285714288,0.33227908714285714,-0.1450762182857143
153,1.530000477,1.8407782,1.9030074,2.4067867,0.30939415,-0.48363832,0.019852536
154,1.540000477,3.995407542857143,2.1712851714285715,2.241298028571429,1.3730973357142857,-0.9940448457142858,-0.5009383977142857
155,1.550000477,4.7019615,2.055790566666667,2.0585449666666666,1.841348166666667,-0.34070007666666663,-1.5740516166666667
156,1.560000477,4.536362071428572,1.8677308714285714,1.8057717,1.980825,1.2883423085714285,-3.396878042857143
157,1.570000477,3.827514783333333,1.6399177499999997,1.568531583333333,1.97899245,2.1729363833333335,-4.249180916666667
158,1.580000477,2.610200285714286,1.3228341571428572,1.4124821714285714,2.0169522,3.086327614285714,-4.875455542857142
159,1.590000477,2.0891158,1.1802213000000001,1.4548511333333334,2.1868840666666665,3.0454299666666667,-4.805586299999999
160,1.600000477,1.6309793142857143,1.0240624342857143,1.4736443714285714,2.597257,2.523475442857143,-4.408550242857142
161,1.610000477,1.4280711,0.8760572699999999,1.3896238,3.08768,1.8314728,-3.8944566000000003
162,1.620000477,1.4280710999999997,0.87605727,1.3896238,3.08768,1.8314728,-3.8944566
163,1.630000477,1.4280711,0.8760572699999999,1.3896238,3.08768,1.8314728,-3.8944566000000003
164,1.640000477,1.4280710999999997,0.87605727,1.3896238,3.08768,1.8314728,-3.8944566
165,1.650000477,1.4280711,0.8760572699999999,1.3896238,3.08768,1.8314728,-3.8944566000000003
166,1.660000477,1.4280710999999997,0.87605727,1.3896238,3.08768,1.8314728,-3.8944566
167,1.670000477,1.4280711,0.8760572699999999,1.3896238,3.08768,1.8314728,-3.8944566000000003
168,1.680000477,1.4280711,0.8760572699999999,1.3896238,3.08768,1.8314728,-3.8944566000000003
169,1.690000477,1.4280710999999997,0.87605727,1.3896238,3.08768,1.8314728,-3.8944566
170,1.700000477,1.4280711,0.8760572699999999,1.3896238,3.08768,1.8314728,-3.8944566000000003
171,1.710000477,1.4280710999999997,0.87605727,1.3896238,3.08768,1.8314728,-3.8944566
172,1.720000477,1.4280711,0.8760572699999999,1.3896238,3.08768,1.8314728,-3.8944566000000003
173,1.730000477,1.3630237714285713,0.5388511585714285,1.0020053585714286,3.6322067857142857,1.313125257142857,-3.670362985714285
174,1.740000477,0.40474923333333335,-0.3255068145,-0.2527484933333333,2.9038152499999996,0.43222534999999995,-2.55425775
175,1.750000477,0.27739424,-0.3861506,-0.34654462,2.6588655,0.406977,-2.4113195
176,1.760000477,0.27739424,-0.3861506,-0.34654462,2.6588655,0.406977,-2.4113195
177,1.770000477,-0.1231271,-0.9006013166666667,-0.0508617075,1.53714625,0.461546005,-1.5257946999999998
178,1.780000477,-0.20043417142857142,-0.9208550999999999,-0.13239883714285713,1.5525337428571429,0.3722459614285714,-1.2946907428571426
179,1.790000477,-0.3765420214285714,-0.8987936785714286,-0.2884924342857143,1.4638736285714287,0.29004336571428574,-0.7494659314285714
180,1.800000477,-0.49255925,-0.85471445,-0.36922884000000006,1.3388244166666665,0.25182177333333333,-0.3448232725
181,1.810000477,-0.5625938,-0.81593174,-0.4326777,1.1708415,0.17241164,0.079715565
182,1.820000477,-0.5625938,-0.81593174,-0.4326777,1.1708415,0.17241164,0.079715565
183,1.830000477,-0.5625938,-0.81593174,-0.4326777,1.1708415,0.17241164,0.079715565
184,1.840000477,-0.5427668585714286,-0.8019065442857143,-0.4448125514285714,0.9615608628571429,0.0572233,0.50174554
185,1.850000477,-0.37794889000000004,-0.72993078,-0.43080764666666665,0.10089160766666666,-0.40178478,2.133943866666667
186,1.860000477,-0.32305021,-0.6820171371428572,-0.3874006571428571,-0.1195951692857143,-0.48730340285714285,2.493587628571429
187,1.870000477,-0.31343293,-0.6521722,-0.35922828,-0.30796883833333333,-0.5498134383333334,2.8347893833333333
188,1.880000477,-0.26052042571428574,-0.5774030285714286,-0.33289834285714287,-0.5470137342857143,-0.51208633,3.395372714285714
189,1.890000477,-0.19043794,-0.5674721,-0.37508285,-0.7424848699999999,-0.32359633,3.8805600000000005
190,1.900000477,0.09875576,-0.43423264999999994,-0.3553256,-1.1309837,0.21761434,4.4914074
191,1.910000477,0.36258212,-0.32099435,-0.27675393,-1.3447802,0.4240806999999999,4.7394114
192,1.920000477,0.65421504,-0.2587651,-0.19546872,-1.4889402,0.5401417,4.8212647
193,1.930000477,0.6542150399999999,-0.2587651,-0.19546872,-1.4889402,0.5401417,4.8212647
194,1.940000477,0.65421504,-0.2587651,-0.19546872,-1.4889402,0.5401417,4.8212647
195,1.950000477,0.6542150399999999,-0.2587651,-0.19546872,-1.4889402,0.5401417,4.8212647
196,1.960000477,0.65421504,-0.2587651,-0.19546872,-1.4889402,0.5401417,4.8212647
197,1.970000477,0.6542150399999999,-0.2587651,-0.19546872,-1.4889402,0.5401417,4.8212647
198,1.980000477,0.6542150399999999,-0.2587651,-0.19546872,-1.4889402,0.5401417,4.8212647
199,1.990000477,0.65421504,-0.2587651,-0.19546872,-1.4889402,0.5401417,4.8212647
200,2.000000477,0.6542150399999999,-0.2587651,-0.19546872,-1.4889402,0.5401417,4.8212647
201,2.010000477,0.65421504,-0.2587651,-0.19546872,-1.4889402,0.5401417,4.8212647
202,2.020000477,0.6542150399999999,-0.2587651,-0.19546872,-1.4889402,0.5401417,4.8212647
203,2.030000477,0.6542150399999999,-0.2587651,-0.19546872,-1.4889402,0.5401417,4.8212647
204,2.040000477,0.65421504,-0.2587651,-0.19546872,-1.4889402,0.5401417,4.8212647
205,2.050000477,2.2031075828571427,0.6904714714285713,-0.02359893785714286,-2.4231874285714285,-0.4423188614285714,3.7002728
206,2.060000477,3.3901367,1.5387991,0.32051667,-3.5303917000000005,-0.4640912133333333,1.9327716666666668
207,2.070000477,2.655681885714286,1.400896157142857,0.6720775685714285,-3.778221114285714,0.6682450914285715,0.8430128357142858
208,2.080000477,2.2084520285714286,1.3136611571428571,1.0205038428571427,-3.5883347999999997,1.2159132857142858,0.25651222714285715
209,2.090000477,1.7643457999999999,1.2094557833333333,1.3027844166666667,-2.9203589,1.5329720666666666,-0.27416861
210,2.100000477,1.3236443,1.0693307,1.4738054999999999,-2.3453481,1.5859122000000003,-0.51524967
211,2.110000477,1.0622572,1.0271331,1.6204909,-1.54859961,1.34340585,-0.6017863566666667
212,2.120000477,0.4930601371428572,0.9141560999999999,1.7600200428571429,0.24097924,0.47294849999999994,-0.62886727
213,2.130000477,-0.03546954533333333,0.7418319200000001,1.3696835666666667,1.9103738666666665,-0.6978929800000001,-0.2986025076666667
214,2.140000477,-0.19518124285714286,0.6981113042857144,1.0196631814285715,2.677190742857143,-1.2243124142857142,-0.001963436857142858
215,2.150000477,-0.21911847833333334,0.673855365,0.5094149055,3.1874519333333335,-1.46827315,0.3859536666666667
216,2.160000477,-0.06001657,0.7180906828571428,-0.08613743214285716,3.0150765714285717,-1.0413418571428572,0.7396051571428571
217,2.170000477,0.11260674571428572,0.7515987142857143,-0.26072950285714286,2.586436342857143,-0.512784456,0.7622937285714285
218,2.180000477,0.20081964166666666,0.76948595,-0.22430678416666663,1.995892566666667,0.18055626933333335,0.65146858
219,2.190000477,0.22407229285714284,0.7664427714285714,-0.03551165214285714,1.5663214428571428,0.7075138571428571,0.4563465285714286
220,2.200000477,0.1993104,0.7486717,0.09226148,1.3333268,1.019046,0.273965
221,2.210000477,0.15997884857142858,0.7239751514285714,0.16044490571428574,1.2558365428571427,1.1698379142857145,0.17134266285714286
222,2.220000477,0.06657908750000001,0.6256970933333333,0.32659425166666667,1.2195056666666666,1.5065019833333333,-0.08602765999999999
223,2.230000477,0.02048028842857143,0.5594577514285715,0.4144361914285714,1.3034826142857143,1.6504874285714286,-0.20598642000000003
224,2.240000477,-0.014343171857142857,0.4194103742857143,0.5257623785714286,1.9076978142857144,1.6625299571428571,-0.44683475714285714
225,2.250000477,-0.029849304000000004,0.39066306,0.4905469,2.1616356,1.5761386,-0.501811
226,2.260000477,-0.029849304,0.39066306,0.4905469,2.1616356,1.5761386,-0.501811
227,2.270000477,-0.029849304000000004,0.39066306,0.4905469,2.1616356,1.5761386,-0.501811
228,2.280000477,-0.029849304,0.39066306,0.4905469,2.1616356,1.5761386,-0.501811
229,2.290000477,-0.029849304000000004,0.39066306,0.4905469,2.1616356,1.5761386,-0.501811
230,2.300000477,-0.029849304,0.39066306,0.4905469,2.1616356,1.5761386,-0.501811
231,2.310000477,-0.029849304000000004,0.39066306,0.4905469,2.1616356,1.5761386,-0.501811
232,2.320000477,-0.029849304,0.39066306,0.4905469,2.1616356,1.5761386,-0.501811
233,2.330000477,-0.029849304000000004,0.39066306,0.4905469,2.1616356,1.5761386,-0.501811
234,2.340000477,-0.029849304,0.39066306,0.4905469,2.1616356,1.5761386,-0.501811
235,2.350000477,-0.029849304,0.39066306,0.4905469,2.1616356,1.5761386,-0.501811
236,2.360000477,0.13309211333333335,0.42612751666666665,0.4037887916666667,2.163671783333333,1.6549379166666665,-0.7432992833333333
237,2.370000477,3.4241283571428567,1.172185142857143,0.9485222714285715,3.268490857142857,1.4628701,-4.709828542857143
238,2.380000477,3.0199933,1.1567138,0.6886987000000001,3.187859,1.3989929000000003,-5.01979
239,2.390000477,2.7724613714285717,0.8315075628571428,0.6301630942857143,2.9880247428571427,1.5899263428571426,-5.078955142857143
240,2.400000477,2.663692,0.65201974,0.60841966,2.9496286,1.7618362,-5.064993
241,2.410000477,2.663692,0.65201974,0.60841966,2.9496286,1.7618362,-5.064993
242,2.420000477,2.663692,0.65201974,0.60841966,2.9496286,1.7618362,-5.064993
243,2.430000477,2.663692,0.65201974,0.60841966,2.9496286,1.7618362,-5.064993
244,2.440000477,1.9323994142857142,0.6693029714285714,-0.01877722885714286,1.3785295285714285,0.9586593142857144,-3.9798225428571428
245,2.450000477,2.11471175,0.41590839999999996,0.25687475,0.7936941666666666,0.64887251,-4.0720096
246,2.460000477,2.000587085714286,0.2583295257142857,0.30761377,0.5961432514285715,0.6207735342857142,-4.354010142857143
247,2.470000477,1.6007032666666667,0.03303037833333333,0.22379354666666665,0.38351027666666665,0.88465954,-4.719660566666667
248,2.480000477,1.0878858,-0.10392592642857143,0.0876880457142857,0.20502652142857142,1.2071869,-4.850672814285715
249,2.490000477,0.9109373,-0.12256813,0.06100966,0.15179554999999997,1.3171394,-4.8218756
250,2.500000477,0.9109373,-0.12256813,0.06100966,0.15179555,1.3171394,-4.8218756
251,2.510000477,0.7942493062857142,-0.12800834142857143,0.07115833428571429,0.13678615914285713,1.348903457142857,-4.723769142857143
252,2.520000477,-0.2602286,-0.30367625,0.2818762,0.2861819513333333,1.4140605333333334,-3.5340568
253,2.530000477,-0.4408184,-0.31123766,0.37194243,0.89351684,1.0398147,-2.5872436
254,2.540000477,-0.5877426200000001,-0.31448989,0.22836191058333333,1.4640481733333335,0.4625640616666667,-1.8114676
255,2.550000477,-0.7198111828571429,-0.346231,-0.07641560464285714,1.8534197142857143,-0.14679968642857144,-0.9679747771428572
256,2.560000477,-0.7618214457142857,-0.3808889285714286,-0.31804118571428575,1.9696552,-0.6677651285714286,-0.16462332857142856
257,2.570000477,-0.7228674066666666,-0.41217852666666666,-0.4780766533333334,1.8753519666666667,-0.9210558333333333,0.25278895333333334
258,2.580000477,-0.6519283,-0.44618458,-0.58790016,1.7425945000000003,-1.1483928,0.63558656
259,2.590000477,-0.6519283,-0.44618458,-0.58790016,1.7425945,-1.1483928,0.63558656
260,2.600000477,-0.6519283,-0.44618458,-0.58790016,1.7425945000000003,-1.1483928,0.63558656
261,2.610000477,-0.6519283,-0.44618458,-0.58790016,1.7425945000000003,-1.1483928,0.63558656
262,2.620000477,-0.6519283,-0.44618458,-0.58790016,1.7425945,-1.1483928,0.63558656
263,2.630000477,-0.6519283,-0.44618458,-0.58790016,1.7425945000000003,-1.1483928,0.63558656
264,2.640000477,-0.6519283,-0.44618458,-0.58790016,1.7425945,-1.1483928,0.63558656
265,2.650000477,-0.6519283,-0.44618458,-0.58790016,1.7425945000000003,-1.1483928,0.63558656
266,2.660000477,-0.6519283,-0.44618458,-0.58790016,1.7425945,-1.1483928,0.63558656
267,2.670000477,-0.6519283,-0.44618458,-0.58790016,1.7425945000000003,-1.1483928,0.63558656
268,2.680000477,-0.6519283,-0.44618458,-0.58790016,1.7425945000000003,-1.1483928,0.63558656
269,2.690000477,-0.4795910033333333,-0.49755952166666667,-0.5764665666666667,1.1095276716666669,-1.3717592833333334,0.95979374
270,2.700000477,0.13120974142857142,-0.6359604571428571,0.03425286971428571,-2.389329,-2.1294136,2.4096398
271,2.710000477,0.419323235,-0.54538242,0.1431486,-2.4825850666666667,-1.8960698999999999,2.7993602
272,2.720000477,0.6369970914285714,-0.5107092428571428,0.23045770000000002,-2.4453525142857147,-1.756971257142857,2.927463614285714
273,2.730000477,1.0172646333333333,-0.4084384566666666,0.35281529333333334,-2.241911416666667,-1.7403038333333332,2.8472100166666667
274,2.740000477,1.1293647,-0.33148277,0.37706468,-1.9996084999999997,-1.871636,2.6344316
275,2.750000477,1.0164051442857143,-0.23125043571428572,0.2911929457142857,-1.9858207999999997,-1.9835083142857144,2.6436815571428576
276,2.760000477,0.5735446416666666,0.18844595833333333,-0.11176465499999999,-1.9030946,-2.6547422,2.6991813
277,2.770000477,1.0311185142857142,0.33815561285714285,-0.4018527314285714,-2.9287944571428572,-2.7671380428571433,3.8852722428571433
278,2.780000477,1.71625865,0.339491335,-0.49250843333333333,-3.4969986666666664,-2.602820133333333,4.106166366666667
279,2.790000477,2.410972557142857,0.3890775657142857,-0.46245294857142855,-4.280184628571428,-2.2747951714285715,3.9240173714285715
280,2.800000477,2.6927485,0.5085358,-0.33212304,-4.6667204,-2.1575124,3.7229614000000004
281,2.810000477,2.8904256142857143,0.733392057142857,0.03853447714285715,-5.690849342857143,-2.0695505142857145,3.0758123714285714
282,2.820000477,2.9877963,0.8723985,0.5752165,-6.2989044,-2.1147532,2.5660167
283,2.830000477,2.9805042166666667,0.9159274166666665,1.0062476916666667,-6.2689727500000005,-2.1176037500000002,1.97023685
284,2.840000477,2.7282647428571427,0.9761371142857141,1.2337261714285714,-6.0725416857142855,-2.0871777999999996,1.8061226
285,2.850000477,2.3727807999999997,1.0481810333333332,1.3512068666666668,-5.694979833333334,-2.0455238666666666,1.7625488333333335
286,2.860000477,2.0691189428571426,1.0892142142857144,1.4451844857142857,-5.271110214285715,-2.0812438285714285,2.024805928571429
287,2.870000477,1.9298861571428572,1.0006681314285715,1.5420107428571428,-4.467518628571429,-2.2006208571428574,2.5904505714285717
288,2.880000477,1.8537058,0.92657846,1.6258571,-3.8859048,-2.3004508,2.9129780000000003
289,2.890000477,1.7435293714285716,0.8678206742857143,1.5821044571428573,-3.528820885714286,-2.3653751714285716,3.0428265714285714
290,2.900000477,1.6994587999999997,0.84431756,1.5646034,-3.052709,-2.451941,3.215958
291,2.910000477,1.6994588,0.84431756,1.5646034,-3.052709,-2.451941,3.215958
292,2.920000477,1.6994587999999997,0.84431756,1.5646034,-3.052709,-2.451941,3.215958
293,2.930000477,1.6994588,0.84431756,1.5646034,-3.052709,-2.451941,3.215958
294,2.940000477,1.6994588,0.84431756,1.5646034,-3.052709,-2.451941,3.215958
295,2.950000477,1.6994587999999997,0.84431756,1.5646034,-3.052709,-2.451941,3.215958
296,2.960000477,1.6994588,0.84431756,1.5646034,-3.052709,-2.451941,3.215958
297,2.970000477,1.6994588,0.84431756,1.5646034,-3.052709,-2.451941,3.215958
298,2.980000477,1.6994587999999997,0.84431756,1.5646034,-3.052709,-2.451941,3.215958
299,2.990000477,1.6994588,0.84431756,1.5646034,-3.052709,-2.451941,3.215958
300,3.000000477,1.6994587999999997,0.84431756,1.5646034,-3.052709,-2.451941,3.215958
301,3.010000477,1.6171456857142856,0.7758118071428571,1.273419189142857,-2.7376864000000003,-2.0824438185714285,2.9742370357142858
302,3.020000477,0.5676957033333333,0.5003391533333333,0.4175395933333333,-2.029132816666667,0.8895463466666667,0.12613996151666668
303,3.030000477,0.40557242857142856,0.4863437285714286,0.4195366914285715,-1.7634723857142858,0.9368433714285713,-0.06618966207142858
304,3.040000477,0.21402816571428573,0.47484476571428574,0.44240384285714285,-1.3939970957142855,0.8750605,-0.2541560857142857
305,3.050000477,0.12528169666666666,0.4576079866666667,0.48802644,-0.79827558,0.5784214666666667,-0.44805645999999993
306,3.060000477,0.10495821500000001,0.43883657,0.44449023428571427,-0.3950000314285714,0.3659629485714286,-0.5848862428571427
307,3.070000477,0.07427262666666667,0.4208273966666667,0.37656668666666665,0.013336833333333334,0.18422136,-0.7555162333333333
308,3.080000477,0.013093099428571429,0.4109778214285714,0.3139555971428572,0.28879986,0.09003452245714286,-0.87669672
309,3.090000477,-0.058905877,0.41846955,0.27943704,0.5390727,-0.0010689828,-0.9489512400000001
310,3.100000477,-0.058905877,0.41846955,0.27943704,0.5390727,-0.0010689828,-0.94895124
311,3.110000477,-0.058905877,0.41846955,0.27943704,0.5390727,-0.0010689828,-0.9489512400000001
312,3.120000477,-0.058905877,0.41846955,0.27943704,0.5390727,-0.0010689828,-0.94895124
313,3.130000477,0.4966883682857143,0.48424866,0.10909608714285714,1.07465488,0.34903375771428574,-1.0297575642857142
314,3.140000477,0.6193044,0.49752906,0.09372498,1.1280822,0.41430715,-1.0589037
315,3.150000477,0.6193044,0.49752906,0.09372498,1.1280822,0.41430715,-1.0589037
316,3.160000477,0.7416460285714285,0.6950362257142857,0.19175335285714284,1.1970206714285714,0.14378907714285716,-1.6060483571428572
317,3.170000477,1.4752994500000003,0.992466465,0.455758285,1.4707675,-0.48730340000000005,-1.6636425499999998
318,3.180000477,1.9488026571428574,1.0590905428571429,0.5110315285714286,1.6628353571428571,-0.5250014000000001,-1.810245857142857
319,3.190000477,2.3657172,1.0839962,0.4656369,1.808566,-0.3993414,-2.1156695
320,3.200000477,2.4626303999999997,1.2029361,0.24964436285714284,1.6726088285714287,0.5490426257142857,-2.7300072857142856
321,3.210000477,2.3681564,1.2758061,0.26236287,1.5532318,1.0153809,-2.941535
322,3.220000477,2.3681564,1.2758061,0.26236287,1.5532318,1.0153809,-2.9415349999999996
323,3.230000477,2.3681564,1.2758061,0.26236287,1.5532318,1.0153809,-2.9415349999999996
324,3.240000477,2.3681564,1.2758061,0.26236287,1.5532318,1.0153809,-2.941535
325,3.250000477,2.3681564,1.2758061,0.26236287,1.5532318,1.0153809,-2.9415349999999996
326,3.260000477,2.3681564,1.2758061,0.26236287,1.5532318,1.0153809,-2.941535
327,3.270000477,2.3681564,1.2758061,0.26236287,1.5532318,1.0153809,-2.9415349999999996
328,3.280000477,2.3681564,1.2758061,0.26236287,1.5532318,1.0153809,-2.941535
329,3.290000477,2.3681564,1.2758061,0.26236287,1.5532318,1.0153809,-2.9415349999999996
330,3.300000477,2.3681564,1.2758061,0.26236287,1.5532318,1.0153809,-2.9415349999999996
331,3.310000477,2.3681564,1.2758061,0.26236287,1.5532318,1.0153809,-2.941535
332,3.320000477,2.3681564,1.2758061,0.26236287,1.5532318,1.0153809,-2.9415349999999996
333,3.330000477,2.3681564,1.2758061,0.26236287,1.5532318,1.0153809,-2.941535
334,3.340000477,2.3681564,1.2758061,0.26236287,1.5532318,1.0153809,-2.9415349999999996
335,3.350000477,2.3681564,1.2758061,0.26236287,1.5532318,1.0153809,-2.941535
336,3.360000477,1.365676357142857,0.28711169285714283,0.21780452557142857,1.9693061285714286,0.3177932971428571,-3.3453922714285715
337,3.370000477,1.0002718,-0.06570505,0.07884607,1.5349065,0.670863,-3.6513395
338,3.380000477,1.0002718,-0.06570505,0.07884607,1.5349065,0.6708630000000001,-3.6513395
339,3.390000477,1.0002718,-0.06570505,0.07884607,1.5349065,0.670863,-3.6513395
340,3.400000477,0.65925596,-0.29315735,0.04240085,1.4347275666666668,1.0373713333333334,-3.7010216333333332
341,3.410000477,0.39795005,-0.5140239,-0.027562585,1.3769588428571429,1.2680971,-3.7153911
342,3.420000477,0.21461183142857143,-0.7558934171428572,-0.22638952285714287,1.2631666857142856,1.351870457142857,-3.7705419142857144
343,3.430000477,0.13552619766666665,-0.8547246583333333,-0.28189145666666665,1.1464076166666668,1.3342431,-3.7904090833333335
344,3.440000477,-0.01960044714285714,-0.9939299642857142,-0.3055622571428572,0.9679965571428572,1.1283003142857144,-3.7635608857142855
345,3.450000477,-0.14406328,-1.058263,-0.2757478,0.8579349500000001,0.8883246000000001,-3.6989856
346,3.460000477,-0.2592616457142857,-1.0854596285714284,-0.2128695714285714,0.8055766285714286,0.4842927857142857,-3.5645992428571427
347,3.470000477,-0.34566042,-1.1058571,-0.1657109,0.7846333,0.32268006,-3.5108447
348,3.480000477,-0.4195540842857143,-1.1131746714285715,-0.12248102142857142,0.7872512071428571,-0.06564426857142858,-3.349406342857143
349,3.490000477,-0.5597713357142857,-1.1247433285714286,-0.07562288334285715,0.8337192357142857,-0.5540166571428571,-3.0321148
350,3.500000477,-0.92378867,-1.13427345,0.034666656500000004,1.09082045,-1.6657805,-1.7198404
351,3.510000477,-0.8396352242857142,-1.1971082,-0.015013942428571427,1.3734682142857142,-1.6058301857142858,-0.4747592171428572
352,3.520000477,-0.7944924916666666,-1.2173220666666666,-0.0511157875,1.4194563,-1.5265072999999998,-0.22692976666666667
353,3.530000477,-0.6755707671428571,-1.2724609571428573,-0.3556958357142857,1.3928407857142857,-0.9306258142857143,0.9294477457142857
354,3.540000477,-0.7456533,-1.2595856,-0.4978339,1.2490299,-0.7072084,1.4567179999999997
355,3.550000477,-0.7771969285714285,-1.143607657142857,-0.6523246257142857,0.8035259314285714,-0.5606050685714286,2.168965942857143
356,3.560000477,-0.7566295,-1.058263,-0.75531846,0.28007346,-0.47264308,2.888544
357,3.570000477,-0.7566295,-1.058263,-0.7553184600000001,0.28007346,-0.47264307999999994,2.888544
358,3.580000477,-0.7566295,-1.058263,-0.75531846,0.28007346,-0.47264308,2.888544
359,3.590000477,-0.7566295,-1.058263,-0.7553184600000001,0.28007346,-0.47264307999999994,2.888544
360,3.600000477,-0.7566295,-1.058263,-0.75531846,0.28007346,-0.47264308,2.888544
361,3.610000477,-0.7566295,-1.058263,-0.7553184600000001,0.28007346,-0.47264307999999994,2.888544
362,3.620000477,-0.7566295,-1.058263,-0.75531846,0.28007346,-0.47264308,2.888544
363,3.630000477,-0.7566295,-1.058263,-0.7553184600000001,0.28007346,-0.47264307999999994,2.888544
364,3.640000477,-0.7566295,-1.058263,-0.75531846,0.28007346,-0.47264308,2.888544
365,3.650000477,-0.7566295,-1.058263,-0.75531846,0.28007346,-0.47264308,2.888544
366,3.660000477,-0.7566295,-1.058263,-0.7553184600000001,0.28007346,-0.47264307999999994,2.888544
367,3.670000477,0.2593400571428572,-0.5795460414285714,-0.3950317514285714,-0.5241505857142857,-0.3225491814285714,3.7200162428571426
368,3.680000477,4.5696874,1.5452427,1.057958,-1.8713306,0.3092414,5.125467
369,3.690000477,4.170021228571429,1.6719224428571429,0.9661321714285714,-1.1603043842857144,0.37364217714285713,3.8432109857142858
370,3.700000477,3.5940360333333334,1.7806984166666666,0.6720818716666668,-0.74859333,0.29824618,3.2074063
371,3.710000477,2.9212375142857145,1.7181578428571427,0.16298861665714284,-0.5032072228571429,0.33367531714285714,2.765850842857143
372,3.720000477,2.4959949285714282,1.6600054857142859,-0.03719729192857143,-0.5733674342857142,0.4467693342857143,2.554323157142857
373,3.730000477,2.0909147333333333,1.5545927333333331,-0.15788522666666668,-0.7099063333333332,0.5368838333333333,2.4935293
374,3.740000477,1.7648677714285714,1.425610142857143,-0.21220314857142858,-0.900607,0.6699903285714285,2.4941111
375,3.750000477,1.5317967,1.3260835,-0.22476922,-1.0979979333333334,0.8777365666666667,2.5625552
376,3.760000477,1.2230897000000003,1.1481768,-0.14275223,-1.2995776000000003,1.1790879,2.7040681999999996
377,3.770000477,1.1025339,1.0339627,-0.05710699,-1.393648,1.3941061,2.8066905
378,3.780000477,0.9887205857142857,0.9178497571428572,0.04559934714285714,-1.4386762,1.5920206428571428,2.889416528571428
379,3.790000477,1.0139312,0.8104131,0.2757783,-1.3007993,1.6897563000000002,2.9386334
380,3.800000477,1.0139312,0.8104131,0.2757783,-1.3007993,1.6897563,2.9386334
381,3.810000477,1.2001136285714284,0.7736296428571429,0.5123338714285713,-0.8793146571428572,1.390441085714286,2.660261685714286
382,3.820000477,0.9784615733333334,0.81666348,0.35387226,0.06546246666666666,0.46846894666666666,1.7149027333333333
383,3.830000477,0.70302886,0.8528851,0.046618573,0.32894126,0.24082653,1.2331479
384,3.840000477,0.5048465,0.8682519000000001,-0.061741404,0.28618193,0.30679804,1.0010259
385,3.850000477,0.4620347714285714,0.8694017957142857,-0.040263670571428566,0.27064895857142857,0.3101140685714286,0.9516127228571428
386,3.860000477,0.19366111800000002,0.8720456885714285,0.10732333428571429,0.17745112999999998,0.33001024,0.65513366
387,3.870000477,0.124641426,0.8465127999999998,0.21964696000000003,0.28373855,0.25426516,0.49997848
388,3.880000477,0.12464142600000001,0.8465128,0.21964696,0.28373855,0.25426516,0.49997847999999995
389,3.890000477,0.124641426,0.8465127999999998,0.21964696000000003,0.28373855,0.25426516,0.49997848
390,3.900000477,0.12464142600000001,0.8465128,0.21964696,0.28373855,0.25426516,0.49997847999999995
391,3.910000477,0.124641426,0.8465127999999998,0.21964696000000003,0.28373855,0.25426516,0.49997848
392,3.920000477,0.12464142600000001,0.8465128,0.21964696,0.28373855,0.25426516,0.49997847999999995
393,3.930000477,0.124641426,0.8465127999999998,0.21964696000000003,0.28373855,0.25426516,0.49997848
394,3.940000477,0.26056834485714286,0.7645176142857143,0.24876016,1.1028411214285714,-0.0258519362857143,-0.14106208571428572
395,3.950000477,0.67080134,0.6005229,0.28236404,2.8592234,-0.63512844,-1.55369
396,3.960000477,0.67080134,0.6005229,0.28236404,2.8592234,-0.63512844,-1.5536900000000002
397,3.970000477,0.6560879342857143,0.5996169142857142,0.2633646714285714,2.860096057142857,-0.6072039914285714,-1.6147747285714285
398,3.980000477,0.7455617533333333,0.6426696333333334,0.31755409333333334,2.740311683333333,-0.022245014499999993,-2.1337913333333334
399,3.990000477,1.5326373142857144,0.7974332999999999,0.5961497285714286,2.8141951428571432,0.44956177428571426,-2.2867067428571426
400,4.000000477,1.9110568,0.9187731,0.5488735,2.9032042,0.7343911,-2.6532152
401,4.010000477,2.0480638,1.0902988142857144,0.5157487642857144,2.858176171428571,1.0715787571428572,-3.0699875428571426
402,4.020000477,2.0328321,1.3678237,0.6638192,2.7335923333333336,1.3609168666666667,-3.4214572666666663
403,4.030000477,2.0328321,1.3678237,0.6638192,2.7101765,1.4075449,-3.4778588
404,4.040000477,2.0328321,1.3678237,0.6638192,2.7101765000000007,1.4075449000000002,-3.4778588
405,4.050000477,2.2745099285714283,1.3336579571428573,0.9341485714285714,3.2801842142857143,1.0853665742857144,-3.416425057142857
406,4.060000477,2.8774500714285716,1.2151144857142857,1.453996,4.773269414285714,0.3766091428571428,-3.3647649285714283
407,4.070000477,2.874314,1.1322917,1.064056,4.9434342,0.6183301,-3.6195755
408,4.080000477,2.8743140000000005,1.1322917,1.064056,4.9434342,0.6183301,-3.6195755
409,4.090000477,2.874314,1.1322917,1.064056,4.9434342,0.6183301,-3.6195755
410,4.100000477,2.8743140000000005,1.1322917,1.064056,4.9434342,0.6183301,-3.6195755
411,4.110000477,2.4502394666666665,0.8547754933333332,0.6526346266666666,4.2061416,1.1790879500000002,-3.53894365
412,4.120000477,1.9347295,0.5436554114285713,0.20584387999999998,3.1190952857142853,1.5314595428571427,-3.408047742857143
413,4.130000477,1.7185809833333334,0.4669886466666667,0.16981682666666664,2.529365916666667,1.2609414833333332,-3.3524315000000002
414,4.140000477,1.5603654,0.37648538,0.15497856,2.1506405,1.1632059,-3.3056000000000005
415,4.150000477,1.5603654,0.37648538,0.15497856,2.1506405,1.1632059,-3.3056000000000005
416,4.160000477,1.5603654,0.3764853799999999,0.15497856,2.1506405,1.1632059,-3.3056
417,4.170000477,1.5603654,0.37648538,0.15497856,2.1506405,1.1632059,-3.3056000000000005
418,4.180000477,1.5603654,0.3764853799999999,0.15497856,2.1506405,1.1632059,-3.3056
419,4.190000477,1.5603654,0.37648538,0.15497856,2.1506405,1.1632059,-3.3056000000000005
420,4.200000477,1.5603654,0.37648538,0.15497856,2.1506405,1.1632059,-3.3056000000000005
421,4.210000477,1.5603654,0.37648538,0.15497856,2.1506405,1.1632059,-3.3056000000000005
422,4.220000477,1.5603654,0.3764853799999999,0.15497856,2.1506405,1.1632059,-3.3056
423,4.230000477,1.5603654,0.37648538,0.15497856,2.1506405,1.1632059,-3.3056000000000005
424,4.240000477,1.5603654,0.3764853799999999,0.15497856,2.1506405,1.1632059,-3.3056
425,4.250000477,1.5603654,0.37648538,0.15497856,2.1506405,1.1632059,-3.3056000000000005
426,4.260000477,0.45621056833333334,-0.37770494666666665,0.11072292666666667,1.727527,1.1106730133333333,-2.2368208666666667
427,4.270000477,-0.3396060514285714,-0.8602461571428571,-0.4869622314285714,1.3673380000000002,0.045704464285714286,-1.1327289771428573
428,4.280000477,-0.24137731857142855,-0.9671252285714286,-0.55920075,0.6432657714285714,-0.11433752142857144,-0.8147393514285713
429,4.290000477,-0.26357230000000004,-0.99245628,-0.5938354666666666,0.32425806500000004,-0.07803573916666667,-0.6964676833333333
430,4.300000477,-0.33529832285714284,-0.9731665428571429,-0.5691098571428571,-0.24281179142857143,0.11638822,-0.41960843571428574
431,4.310000477,-0.4448227066666666,-0.9160697166666667,-0.46449864999999996,-0.5975104333333333,0.23227467333333332,-0.173175206
432,4.320000477,-0.5549060485714286,-0.8597496571428571,-0.3268309142857143,-0.9103806,0.23000580857142858,0.2043284182857143
433,4.330000477,-0.5987239333333333,-0.8091732,-0.21702485000000002,-1.0570712333333334,0.13433548666666667,0.5407270999999999
434,4.340000477,-0.5156877571428572,-0.7426042942857143,-0.10842096285714285,-1.1904976857142857,-0.1499411857142857,1.2575817714285713
435,4.350000477,-0.27813033000000004,-0.6818603357142857,-0.07355394642857142,-1.2287192857142857,-0.36443584285714287,1.7413727857142856
436,4.360000477,-0.11479328,-0.6450986,-0.092718825,-1.2433796,-0.4262187,1.8953063000000003
437,4.370000477,-0.11479328,-0.6450986,-0.09271882500000002,-1.2433795999999997,-0.4262187,1.8953063
438,4.380000477,-0.11479328,-0.6450986,-0.092718825,-1.2433796,-0.4262187,1.8953063000000003
439,4.390000477,-0.11479328,-0.6450986,-0.09271882500000002,-1.2433795999999997,-0.4262187,1.8953063
440,4.400000477,-0.11479328,-0.6450986,-0.092718825,-1.2433796,-0.4262187,1.8953063000000003
441,4.410000477,-0.11479328,-0.6450986,-0.09271882500000002,-1.2433795999999997,-0.4262187,1.8953063
442,4.420000477,-0.11479328,-0.6450986,-0.09271882500000002,-1.2433795999999997,-0.4262187,1.8953063
443,4.430000477,-0.11479328,-0.6450986,-0.092718825,-1.2433796,-0.4262187,1.8953063000000003
444,4.440000477,-0.11479328,-0.6450986,-0.09271882500000002,-1.2433795999999997,-0.4262187,1.8953063
445,4.450000477,-0.11479328,-0.6450986,-0.092718825,-1.2433796,-0.4262187,1.8953063000000003
446,4.460000477,-0.11479328,-0.6450986,-0.09271882500000002,-1.2433795999999997,-0.4262187,1.8953063
447,4.470000477,-0.11479328,-0.6450986,-0.092718825,-1.2433796,-0.4262187,1.8953063000000003
448,4.480000477,-0.11479328,-0.6450986,-0.09271882500000002,-1.2433795999999997,-0.4262187,1.8953063
449,4.490000477,2.7153871366666666,1.0948453966666667,0.5623397325,-1.3203463833333333,-1.0635868916666666,2.6128481833333335
450,4.500000477,3.531138142857143,1.9630413285714285,0.7540553014285714,-0.6662161857142858,-0.5876568771428571,1.0142463857142858
451,4.510000477,2.6067592142857143,1.9470299714285715,0.5725464642857142,-0.5525986428571429,-0.08274798257142857,0.15720591571428572
452,4.520000477,1.8664707333333332,1.7982249,0.5145320333333333,-0.46190235333333335,0.145127126,-0.09905906333333332
453,4.530000477,1.4020417714285713,1.6456317000000003,0.5189457857142857,-0.2885380657142857,0.20051061285714283,-0.12360930542857143
454,4.540000477,1.1064975766666667,1.4869007333333333,0.5214023733333334,-0.10964708,0.14553437,-0.072996244
455,4.550000477,0.90313196,1.3294984,0.52323174,0.22143213,-0.030389652,0.03451287
456,4.560000477,0.75794053,1.1632996,0.507865,0.63558656,-0.29061058,0.12247488
457,4.570000477,0.7432619757142856,1.1426929857142858,0.4861825514285715,0.69529688,-0.32673784,0.1285833514285714
458,4.580000477,0.5156616014285714,0.8646801999999999,0.06490361371428571,1.3005155857142856,-0.7145386142857142,0.17657848714285715
459,4.590000477,0.3231184466666666,0.6926115333333334,-0.2543644333333333,1.3451366333333332,-0.7312350799999999,0.19821992666666666
460,4.600000477,0.19504186857142858,0.619988237142857,-0.3903624942857143,1.0956200428571428,-0.54716643,0.24551696714285715
461,4.610000477,0.07915095600000001,0.56018512,-0.4790624866666667,0.7859568,-0.35373146000000005,0.30898691333333334
462,4.620000477,0.0013938094285714292,0.5114889142857143,-0.5163672285714285,0.45250691942857146,-0.163728878,0.37362036285714284
463,4.630000477,-0.06669088466666667,0.45345126666666663,-0.49223404,-0.08154810933333333,0.14512713266666666,0.4665854933333333
464,4.640000477,-0.12107849571428572,0.4051543285714286,-0.4024842842857143,-0.3747548,0.31046313,0.5121954
465,4.650000477,-0.18677919,0.3662408999999999,-0.21839687,-0.6923954,0.45095798,0.5842754
466,4.660000477,-0.2602286,0.36136255,0.039057158,-0.7986828,0.4240807,0.6490252
467,4.670000477,-0.31562817,0.37038746,0.27968094,-0.6227587714285715,0.23873220571428572,0.7191854285714286
468,4.680000477,-0.29809667166666665,0.35969578333333335,0.32056240666666663,-0.28434939566666667,0.121711318,0.77592872
469,4.690000477,-0.27364403,0.3533133,0.32947046,-0.051005747,0.10521844,0.7982246
470,4.700000477,-0.27364403,0.3533133,0.32947046,-0.051005747,0.10521844,0.7982246
471,4.710000477,-0.27364403,0.3533133,0.32947046,-0.051005747,0.10521843999999998,0.7982245999999998
472,4.720000477,-0.27364403,0.3533133,0.32947046,-0.051005747,0.10521844,0.7982246
473,4.730000477,-0.27364403,0.3533133,0.32947046,-0.051005747,0.10521843999999998,0.7982245999999998
474,4.740000477,-0.27364403,0.3533133,0.32947046,-0.051005747,0.10521844,0.7982246
475,4.750000477,-0.27364403,0.3533133,0.32947046,-0.051005747,0.10521843999999998,0.7982245999999998
476,4.760000477,-0.27364403,0.3533133,0.32947046,-0.051005747,0.10521844,0.7982246
477,4.770000477,-0.27364403,0.3533133,0.32947046,-0.051005747,0.10521844,0.7982246
478,4.780000477,-0.27364403,0.3533133,0.32947046,-0.051005747,0.10521843999999998,0.7982245999999998
479,4.790000477,-0.27364403,0.3533133,0.32947046,-0.051005747,0.10521844,0.7982246
480,4.800000477,-0.27364403,0.3533133,0.32947046,-0.051005747,0.10521843999999998,0.7982245999999998
481,4.810000477,-0.27364403,0.3533133,0.32947046,-0.051005747,0.10521844,0.7982246
482,4.820000477,-0.27364403,0.3533133,0.32947046,-0.051005747,0.10521843999999998,0.7982245999999998
483,4.830000477,-0.27364403,0.3533133,0.32947046,-0.051005747,0.10521844,0.7982246
484,4.840000477,1.2132808042857144,0.7393898471428572,0.9002267228571429,1.9851445875714286,0.9364942485714286,-0.16719761857142856
485,4.850000477,1.7179966999999998,0.8755694000000002,1.1336027,2.6185496,1.0092723,-0.5702259
486,4.860000477,2.005835742857143,1.0728282714285715,0.9571594857142857,2.7564265000000003,1.1314417714285714,-1.1149271142857144
487,4.870000477,4.1057577,1.7577854000000002,1.0555189,3.215958,1.7801616000000002,-2.6190076
488,4.880000477,4.1057577,1.7577854,1.0555189,3.215958,1.7801616,-2.6190076
489,4.890000477,3.872412228571428,1.674500942857143,0.895945132857143,3.126425285714286,1.8682981142857142,-2.9938933000000003
490,4.900000477,2.66652745,1.2453419833333332,0.28665291833333334,2.5356779,2.2213968666666664,-4.407975749999999
491,4.910000477,2.227124542857143,1.0830074142857142,0.22361930428571428,2.1687914,2.196585,-4.388545
492,4.920000477,1.9506016,0.9497505,0.19330397,1.8672074,2.1149058,-4.259743
493,4.930000477,1.6897153714285713,0.7710249185714285,0.1584935757142857,1.5068075,1.9590525714285714,-4.078234542857143
494,4.940000477,1.5052098,0.64884883,0.10787215,1.2355913,1.8522416,-3.9714234000000004
495,4.950000477,1.1791453857142857,0.44047867142857144,0.032854704857142855,0.7308788,1.8339161999999998,-3.7881694
496,4.960000477,0.98748655,0.29034213999999997,0.09608284333333333,0.39857783999999996,1.9585289999999997,-3.53955435
497,4.970000477,0.7345681214285714,0.09538883928571427,0.27336961,0.24080472285714286,2.0443966571428573,-3.2947792
498,4.980000477,0.6066208,0.0082321875,0.40462726,0.33545695333333336,2.010247366666667,-3.0209451333333335
499,4.990000477,0.44273488285714285,-0.14475583,0.5628899528571428,0.6071821857142857,1.8965715857142857,-2.7727665428571426
500,5.000000477,0.35051697142857147,-0.2874253142857143,0.6229239571428572,1.0350589142857143,1.7204731142857141,-2.528951314285714
501,5.010000477,0.27497539,-0.43080764333333327,0.6412061,1.4041852,1.5529263999999998,-2.3710036
502,5.020000477,0.21584012142857142,-0.5437642928571428,0.5618054342857143,2.0586643285714286,1.2047434957142857,-2.1659334142857145
503,5.030000477,0.166839,-0.6199447,0.44709927,2.5037103,0.94085747,-2.0423677
504,5.040000477,0.166839,-0.6199447000000001,0.44709927,2.5037102999999994,0.94085747,-2.0423677
505,5.050000477,0.166839,-0.6199447,0.44709927,2.5037103,0.94085747,-2.0423677
506,5.060000477,0.166839,-0.6199447000000001,0.44709927,2.5037102999999994,0.94085747,-2.0423677
507,5.070000477,0.166839,-0.6199447000000001,0.44709927,2.5037102999999994,0.94085747,-2.0423677
508,5.080000477,0.166839,-0.6199447,0.44709927,2.5037103,0.94085747,-2.0423677
509,5.090000477,0.166839,-0.6199447000000001,0.44709927,2.5037102999999994,0.94085747,-2.0423677
510,5.100000477,0.166839,-0.6199447,0.44709927,2.5037103,0.94085747,-2.0423677
511,5.110000477,0.166839,-0.6199447000000001,0.44709927,2.5037102999999994,0.94085747,-2.0423677
512,5.120000477,0.166839,-0.6199447,0.44709927,2.5037103,0.94085747,-2.0423677
513,5.130000477,0.166839,-0.6199447000000001,0.44709927,2.5037102999999994,0.94085747,-2.0423677
514,5.140000477,0.166839,-0.6199447000000001,0.44709927,2.5037102999999994,0.94085747,-2.0423677
515,5.150000477,-0.12495140083333334,-0.7156159550000001,-0.07527878166666667,1.200085815,0.3697152973333333,-1.0224564706666666
516,5.160000477,-0.442038,-0.70952314,-0.31041446,-0.36375955,-0.0193944,0.041843038
517,5.170000477,-0.442038,-0.70952314,-0.31041446,-0.36375955,-0.0193944,0.041843038
518,5.180000477,-0.442038,-0.70952314,-0.31041446,-0.36375955,-0.0193944,0.041843038
519,5.190000477,-0.39197844285714284,-0.5179309214285714,-0.2398833342857143,-1.0260925214285714,0.36805730500000006,1.8572374482857141
520,5.200000477,-0.20141418766666666,-0.38394516666666667,-0.10630701433333334,-1.2665918166666665,0.458899025,2.7248368666666667
521,5.210000477,0.14001252114285714,-0.2693145057142857,0.030899018285714286,-1.1580355142857144,0.05931763142857144,3.2677929428571426
522,5.220000477,0.35387735666666664,-0.08385143666666667,0.07412018333333334,-0.9904888833333333,-0.34293985,3.5112010000000002
523,5.230000477,0.5986063857142857,0.4103201142857143,-0.049637042857142856,-0.6693577428571428,-1.0428472142857141,3.8147629571428574
524,5.240000477,0.59930325,0.5790582,-0.14445965,-0.6484144,-1.2168077,3.9257627
525,5.250000477,0.6262168428571427,0.6760847714285714,-0.1915617,-0.8693665428571428,-1.3555573142857145,4.245672114285714
526,5.260000477,1.2295534333333333,1.3541491666666667,-0.43247948666666663,-1.6212904333333331,-1.4393597666666667,4.943637766666666
527,5.270000477,2.1277766,1.5662194,-0.21034764,-2.5224938,-1.1044118,5.3087206
528,5.280000477,2.359649857142857,1.6559633285714288,-0.01037081571428572,-2.720931828571428,-0.9369742285714286,5.193532257142857
529,5.290000477,2.6688142,1.7756219,0.25626495,-3.036827,-0.6265766,4.7809486
530,5.300000477,2.6688142,1.7756218999999998,0.25626495,-3.036827,-0.6265766,4.7809486
531,5.310000477,2.780263833333333,1.8656271666666668,0.7908896083333333,-2.2512775,-1.0939511,4.0228872
532,5.320000477,2.7676616,1.9874331,1.2883373,-1.465728,-1.5613256,3.2648258
533,5.330000477,2.466232742857143,1.9259399571428573,1.0030071628571429,-0.8698901142857143,-1.5895991428571428,3.0951849714285715
534,5.340000477,2.3947993,1.8493202666666668,0.86189993,-0.55475111,-1.3776132833333332,2.9196972166666666
535,5.350000477,2.3796206,1.7082703,0.70360816,-0.26846737,-1.0553913,2.6784124
536,5.360000477,2.3796206,1.7082703,0.70360816,-0.26846737,-1.0553913,2.6784124000000005
537,5.370000477,2.3796206,1.7082703,0.70360816,-0.26846737,-1.0553913,2.6784124
538,5.380000477,2.3796206,1.7082703,0.70360816,-0.26846737,-1.0553913,2.6784124000000005
539,5.390000477,2.3796206,1.7082703,0.70360816,-0.26846737,-1.0553913,2.6784124
540,5.400000477,2.3796206,1.7082703,0.70360816,-0.26846737,-1.0553913,2.6784124000000005
541,5.410000477,2.3796206,1.7082703,0.70360816,-0.26846737,-1.0553913,2.6784124
542,5.420000477,2.3796206,1.7082703,0.70360816,-0.26846737,-1.0553913,2.6784124
543,5.430000477,2.3796206,1.7082703,0.70360816,-0.26846737,-1.0553913,2.6784124000000005
544,5.440000477,2.3796206,1.7082703,0.70360816,-0.26846737,-1.0553913,2.6784124
545,5.450000477,2.3796206,1.7082703,0.70360816,-0.26846737,-1.0553913,2.6784124
546,5.460000477,2.3796206,1.7082703,0.70360816,-0.26846737,-1.0553913,2.6784124000000005
547,5.470000477,2.3796206,1.7082703,0.70360816,-0.26846737,-1.0553913,2.6784124
548,5.480000477,2.3796206,1.7082703,0.70360816,-0.26846737,-1.0553913,2.6784124
549,5.490000477,2.1978874333333334,1.6292362333333335,0.6992938750000001,-0.18315236999999998,-0.72492295,2.35423069
550,5.500000477,-0.45560583857142856,0.11253705285714287,0.011686220928571427,2.146451771428571,1.0164279999999999,0.15127196257142855
551,5.510000477,-0.7227758733333333,0.06834748666666667,-0.023670080333333333,2.140866933333333,1.2071868666666667,0.14324368666666668
552,5.520000477,-0.8593575714285714,0.076215248,-0.04981998,2.1768196285714287,1.3726392285714286,0.35512042857142856
553,5.530000477,-0.9340484,0.116592176,-0.016342416,2.1995082,1.3953277999999998,0.5244124
554,5.540000477,-0.9442929,0.16882083,0.04027674,2.2752533,1.3256912,0.81899345
555,5.550000477,-0.8651506142857143,0.1883341657142857,0.07601489000000002,2.338955942857143,1.2497717000000002,1.0284267714285715
556,5.560000477,-0.45905119,0.28993561333333334,0.28577887333333335,2.60511075,0.8852704,1.43228415
557,5.570000477,-0.12035545,0.4139352857142857,0.39288441714285716,2.7840018,0.7254901771428572,1.4940669857142856
558,5.580000477,0.08465433500000001,0.6108130666666667,0.35960939166666667,2.9475925833333334,0.68633778,1.5326666666666666
559,5.590000477,0.32976664285714286,1.0220021571428572,0.20567402142857144,2.8063415,1.017475207142857,1.8750612
560,5.600000477,0.9744064833333334,1.3231818666666666,0.24073558333333334,2.3615863999999998,1.7781255666666667,2.237380933333333
561,5.610000477,2.160095557142857,1.4944251714285717,0.6327634142857143,2.0509851285714285,2.548782057142857,2.0658200714285715
562,5.620000477,3.0875885,1.612838,1.2326939,2.1420887,2.725753,1.4322841
563,5.630000477,3.7321386000000003,1.7802564,1.9633768,2.5794554,2.577928,0.34360158
564,5.640000477,3.575626771428571,1.873719942857143,2.0587176428571428,3.719819857142857,1.6752704285714286,-1.6376379171428572
565,5.650000477,3.2089779333333333,1.8462257,1.6783296333333333,4.441724866666667,0.9176452766666667,-2.9061058
566,5.660000477,3.239670771428571,1.692415842857143,1.4425667571428573,4.440270471428571,0.9591829142857142,-3.157600457142857
567,5.670000477,3.305304666666667,1.4516700666666669,1.3808225,4.226095916666666,1.3621385166666666,-3.5246905833333333
568,5.680000477,3.201480485714286,1.2487400857142856,1.3815310428571428,3.9744560857142863,1.8986660000000002,-4.003711157142858
569,5.690000477,3.0383177,1.1127783,1.3747144,3.8365788000000003,2.234632,-4.2646303
570,5.700000477,3.0383177,1.1127783,1.3747144,3.8365788,2.234632,-4.2646303
571,5.710000477,3.0383177,1.1127783,1.3747144,3.8365788000000003,2.234632,-4.2646303
572,5.720000477,3.0383177,1.1127783,1.3747144,3.8365788,2.234632,-4.2646303
573,5.730000477,3.0383177,1.1127783,1.3747144,3.8365788000000003,2.234632,-4.2646303
574,5.740000477,3.0383177,1.1127783,1.3747144,3.8365788,2.234632,-4.2646303
575,5.750000477,3.0383177,1.1127783,1.3747144,3.8365788000000003,2.234632,-4.2646303
576,5.760000477,3.0383177,1.1127783,1.3747144,3.8365788,2.234632,-4.2646303
577,5.770000477,3.0383177,1.1127783,1.3747144,3.8365788000000003,2.234632,-4.2646303
578,5.780000477,3.0383177,1.1127783,1.3747144,3.8365788000000003,2.234632,-4.2646303
579,5.790000477,3.0383177,1.1127783,1.3747144,3.8365788,2.234632,-4.2646303
580,5.800000477,3.0383177,1.1127783,1.3747144,3.8365788000000003,2.234632,-4.2646303
581,5.810000477,1.7386380766666667,0.3671403166666667,0.8504662933333332,3.2980152,2.09128645,-4.2149480666666665
582,5.820000477,0.57954603,-0.5157313,0.22403745,2.628497542857143,1.8618405714285713,-4.052055442857143
583,5.830000477,0.3684361299999999,-0.655831,0.1688818,2.6148844,1.882784,-4.0740457
584,5.840000477,0.12651870428571427,-0.7582280428571428,0.080793038,2.5991768285714287,1.8478784285714285,-4.0382675571428575
585,5.850000477,-0.1340627,-0.8369086,-0.015854584,2.545771342857143,1.7459541428571428,-3.8941074714285717
586,5.860000477,-0.48165918999999996,-0.8378385083333333,-0.1589422,2.3393922000000003,1.5409131,-3.39234025
587,5.870000477,-0.7102983914285714,-0.7981999142857142,-0.24937429428571428,2.1557018142857145,1.4234267857142857,-2.9787092285714287
588,5.880000477,-0.8422747,-0.7666301,-0.29163286,1.9148535000000002,1.2988139,-2.4394186
589,5.890000477,-0.8694801400000001,-0.6838900828571429,-0.2921555328571429,1.4715529,1.1539558714285716,-1.4145913714285714
590,5.900000477,-0.8365775057142857,-0.6118823928571429,-0.26433597142857146,1.1024266142857144,1.0630269285714287,-0.6131597571428572
591,5.910000477,-0.7883589666666667,-0.5742611700000001,-0.23321991,0.9509365,1.0239327,-0.3087833
592,5.920000477,-0.7383053,-0.55698377,-0.21083546,0.8371661999999999,1.0019422,-0.07788303
593,5.930000477,-0.5260063,-0.51475567,-0.084669575,0.55373305,1.0202676,0.45966256
594,5.940000477,-0.41712362857142854,-0.49830868857142857,-0.0008319307142857145,0.44901637857142856,1.072626,0.6963222228571428
595,5.950000477,-0.296099585,-0.4935349,0.12764464499999997,0.36803547,1.1803096,1.11464355
596,5.960000477,-0.24168222714285714,-0.4992843857142857,0.19189709142857142,0.3833939228571429,1.1939227571428572,1.2855062714285714
597,5.970000477,-0.17331296833333332,-0.5214278083333334,0.236827845,0.46617827333333334,1.1399936499999999,1.5923260833333333
598,5.980000477,-0.04826936742857143,-0.5784527142857143,0.21622778,0.5240633142857143,1.1094512857142858,1.9193912285714287
599,5.990000477,0.03279663,-0.5868432,0.16969486,0.48083861666666666,1.2132953000000002,2.1620430333333336
600,6.000000477,0.09663456057142858,-0.5643012142857142,0.1547694785714286,0.40189387428571427,1.308063885714286,2.312776857142857
601,6.010000477,0.14976484,-0.5394217,0.16668654999999996,0.28984702,1.3635638,2.420635
602,6.020000477,0.14976484,-0.5394217,0.16668655,0.28984702,1.3635638000000003,2.420635
603,6.030000477,0.14976484,-0.5394217,0.16668654999999996,0.28984702,1.3635638,2.420635
604,6.040000477,0.14976484,-0.5394217,0.16668654999999996,0.28984702,1.3635638,2.420635
605,6.050000477,0.14976484,-0.5394217,0.16668655,0.28984702,1.3635638000000003,2.420635
606,6.060000477,0.14976484,-0.5394217,0.16668654999999996,0.28984702,1.3635638,2.420635
607,6.070000477,0.14976484,-0.5394217,0.16668655,0.28984702,1.3635638000000003,2.420635
608,6.080000477,0.14976484,-0.5394217,0.16668654999999996,0.28984702,1.3635638,2.420635
609,6.090000477,0.14976484,-0.5394217,0.16668655,0.28984702,1.3635638000000003,2.420635
610,6.100000477,0.14976484,-0.5394217,0.16668654999999996,0.28984702,1.3635638,2.420635
611,6.110000477,0.14976484,-0.5394217,0.16668654999999996,0.28984702,1.3635638,2.420635
612,6.120000477,0.14976484,-0.5394217,0.16668655,0.28984702,1.3635638000000003,2.420635
613,6.130000477,0.18010631714285716,-0.5377491571428571,0.1537241242857143,0.10030984857142856,1.7677700857142857,2.7358322285714287
614,6.140000477,0.18516322999999998,-0.5374704,0.15156372,0.06872032,1.8351378,2.7883651
615,6.150000477,0.18516323,-0.5374704,0.15156372,0.06872032,1.8351378,2.7883651
616,6.160000477,0.7125807885714286,-0.13346597285714284,0.27438447,-0.12919419857142858,1.7810342142857143,3.5164949714285716
617,6.170000477,2.7383611,1.0461587,1.3188269,-1.5903409,1.2658283,5.2378626
618,6.180000477,3.026596471428572,1.088735042857143,1.8145744857142856,-0.7266028142857143,0.6118726,5.353923428571428
619,6.190000477,3.514468957142857,1.0882472285714286,2.0150085857142854,1.1206647142857142,-0.40353007142857145,5.240829542857142
620,6.200000477,3.6606097,1.081557,1.8655051,1.8733158,-0.6485671,5.0411696
621,6.210000477,3.6786902000000006,1.0949725,1.6451265,2.4194133,-0.73775077,4.756515
622,6.220000477,3.6786902,1.0949725,1.6451265,2.4194133,-0.73775077,4.756515
623,6.230000477,3.6786902000000006,1.0949725,1.6451265,2.4194133,-0.73775077,4.756515
624,6.240000477,3.131602657142857,1.0340281571428571,0.8480068085714285,3.1740714142857143,-0.3272614157142857,3.386820828571429
625,6.250000477,2.1119067499999997,1.0053940166666668,-0.15186861999999998,3.1076345,0.7172873666666666,1.7220293
626,6.260000477,1.8706013142857143,1.0141052857142856,-0.2789448485714286,2.5176724285714287,1.202474642857143,1.4118643142857141
627,6.270000477,1.7103130999999998,0.94304285,-0.143362016,1.9337897499999999,1.4411414,1.019275
628,6.280000477,1.5628611428571428,0.8971037614285714,0.0042336997142857135,1.6205996571428571,1.5021388428571427,0.69841659
629,6.290000477,1.3788,0.86971533,0.19940189,1.4408359833333335,1.4004183166666666,0.21573089999999998
630,6.300000477,1.1832136285714285,0.8061315471428571,0.4008422128571429,1.4530529,1.1693144,-0.16095825
631,6.310000477,0.9839294,0.7376955,0.5639963,1.5935478000000003,0.8223531,-0.47249034
632,6.320000477,0.6986383,0.66787434,0.64967203,1.9563911,0.18707198,-0.9489512400000001
633,6.330000477,0.6986383,0.66787434,0.64967203,1.9563911,0.18707198,-0.9489512400000001
634,6.340000477,0.6986383000000002,0.66787434,0.64967203,1.9563911,0.18707198,-0.94895124
635,6.350000477,0.6986383,0.66787434,0.64967203,1.9563911,0.18707198,-0.9489512400000001
636,6.360000477,0.6986383000000002,0.66787434,0.64967203,1.9563911,0.18707198,-0.94895124
637,6.370000477,0.6986383,0.66787434,0.64967203,1.9563911,0.18707198,-0.9489512400000001
638,6.380000477,0.6986383,0.66787434,0.64967203,1.9563911,0.18707198,-0.9489512400000001
639,6.390000477,0.6986383000000002,0.66787434,0.64967203,1.9563911,0.18707198,-0.94895124
640,6.400000477,0.6986383,0.66787434,0.64967203,1.9563911,0.18707198,-0.9489512400000001
641,6.410000477,0.6986383000000002,0.66787434,0.64967203,1.9563911,0.18707198,-0.94895124
642,6.420000477,0.6986383,0.66787434,0.64967203,1.9563911,0.18707198,-0.9489512400000001
643,6.430000477,0.6986383000000002,0.66787434,0.64967203,1.9563911,0.18707198,-0.94895124
644,6.440000477,0.5601546142857143,0.5713704514285715,0.5920031642857142,2.1567490142857144,-0.037021699999999984,-1.268686142857143
645,6.450000477,0.050429773,0.1273245,0.55863017,2.8103554,-0.24662958,-2.306254
646,6.460000477,0.12747694266666668,0.33590374333333334,0.6347067583333333,3.8111269166666664,1.4505077316666666,-0.916576275
647,6.470000477,0.14659391,0.41310337,0.64211065,3.9379795,1.7215203,-0.60687673
648,6.480000477,0.14659391,0.41310337,0.64211065,3.9379794999999995,1.7215203,-0.60687673
649,6.490000477,0.14659391,0.41310337,0.64211065,3.9379795,1.7215203,-0.60687673
650,6.500000477,0.14659391,0.41310337,0.64211065,3.9379794999999995,1.7215203,-0.60687673
651,6.510000477,1.3283745185714284,1.1464258014285715,0.7879423214285713,4.0411255142857145,2.3171836428571426,-1.40865737
652,6.520000477,2.423556,1.9191059,1.4323092,3.9343145,2.5693762,-1.5646852
653,6.530000477,3.2829151333333333,1.7705607,1.9597789333333333,4.2892167500000005,2.2456272,-1.50421135
654,6.540000477,4.09697685,1.5213083,2.3117354999999997,5.456800449999999,1.4411413833333333,-2.41457745
655,6.550000477,4.140036714285714,0.8196209828571429,1.6181039714285714,6.673681142857142,0.7218250714285713,-4.153150571428571
656,6.560000477,3.7770190000000006,0.68741816,1.1704646,6.927619,0.598783,-4.891512
657,6.570000477,3.777019,0.68741816,1.1704646,6.927619,0.598783,-4.891512
658,6.580000477,3.7770190000000006,0.68741816,1.1704646,6.927619,0.598783,-4.891512
659,6.590000477,2.4596600571428575,0.4552182028571429,0.07831031228571429,4.988135114285714,1.6166290571428572,-4.951898685714285
660,6.600000477,2.0367346,0.35721593999999995,-0.1688818,3.8072584,1.8974442,-4.798663
661,6.610000477,1.969871,0.29230365,-0.16522306,3.3931038,1.8155907,-4.812102
662,6.620000477,1.7728865714285713,0.13070885000000002,-0.15056628142857145,2.578058942857143,1.6969118428571428,-4.973540214285714
663,6.630000477,1.3356725,-0.11415808166666667,-0.09778010066666666,1.5900863166666668,1.6522909666666665,-5.205284249999999
664,6.640000477,0.9674258114285713,-0.2549190528571429,-0.020118769571428573,0.7971120428571429,1.696213757142857,-5.321199285714286
665,6.650000477,0.74254334,-0.32709226,0.05100907400000001,0.5366293,1.7031949,-5.319105
666,6.660000477,0.74254334,-0.32709226,0.051009074,0.5366293,1.7031949,-5.319105
667,6.670000477,0.74254334,-0.32709226,0.05100907400000001,0.5366293,1.7031949,-5.319105
668,6.680000477,0.74254334,-0.32709226,0.051009074,0.5366293,1.7031949,-5.319105
669,6.690000477,0.74254334,-0.32709226,0.051009074,0.5366293,1.7031949,-5.319105
670,6.700000477,0.74254334,-0.32709226,0.05100907400000001,0.5366293,1.7031949,-5.319105
671,6.710000477,0.74254334,-0.32709226,0.051009074,0.5366293,1.7031949,-5.319105
672,6.720000477,0.74254334,-0.32709226,0.05100907400000001,0.5366293,1.7031949,-5.319105
673,6.730000477,0.74254334,-0.32709226,0.051009074,0.5366293,1.7031949,-5.319105
674,6.740000477,0.74254334,-0.32709226,0.051009074,0.5366293,1.7031949,-5.319105
675,6.750000477,0.74254334,-0.32709226,0.05100907400000001,0.5366293,1.7031949,-5.319105
676,6.760000477,0.74254334,-0.32709226,0.051009074,0.5366293,1.7031949,-5.319105
677,6.770000477,-0.16509601333333335,-0.7329492533333334,0.32463785333333334,1.3157904333333332,0.09116894833333333,-2.5754338666666667
678,6.780000477,-0.14064845,-0.76321524,0.24553263,1.4762651000000002,0.04902049000000001,-2.2634945
679,6.790000477,-0.14064845,-0.76321524,0.24553263,1.4762651000000002,0.04902049000000001,-2.2634945
680,6.800000477,-0.3942455516666667,-0.7989643016666667,-0.10842604499999998,1.1073133666666666,0.58330823,-1.3195319
681,6.810000477,-0.5607208928571429,-0.7795925185714286,-0.27114823,0.40032312285714283,0.5834246,-0.025175628571428577
682,6.820000477,-0.574942095,-0.7600392766666667,-0.27091013166666666,0.1658450255,0.43792658166666665,0.3710897166666666
683,6.830000477,-0.57799107,-0.73196346,-0.26013714,-0.051005747,0.33001024,0.7467608
684,6.840000477,-0.5456466783333334,-0.7047260766666666,-0.260543665,-0.22041404900000003,0.33571148,1.0702044
685,6.850000477,-0.5391778,-0.6992786000000001,-0.26062497,-0.5506788,0.49982578,1.7120521
686,6.860000477,-0.5391778,-0.6992786000000001,-0.26062497,-0.5506788,0.49982578,1.7120521
687,6.870000477,-0.5391778,-0.6992786,-0.26062497,-0.5506788,0.49982577999999994,1.7120521
688,6.880000477,-0.39739252857142854,-0.5505286500000001,0.1245412342857143,-0.8740788142857142,0.9452207028571428,3.1449253
689,6.890000477,-0.20179023666666665,-0.45012283333333336,0.3254813833333334,-0.7182545733333333,1.1255369999999998,4.258470666666667
690,6.900000477,0.23568448,-0.36371025,0.2933403,-0.43217444,1.2487245,4.651449
691,6.910000477,0.6346914966666667,-0.20343666666666668,0.14671079666666667,-0.181727065,1.55516625,4.713552083333333
692,6.920000477,0.79313862,0.18728880714285712,-0.29442483771428574,-0.1941185334285714,1.978076142857143,4.6086901
693,6.930000477,0.5444873228571429,0.5543659685714285,-0.6867778714285714,-0.7255556428571428,2.100071057142857,4.6798972857142855
694,6.940000477,0.4284701,0.67080134,-0.7704413,-1.1053281,2.0086186,4.843255
695,6.950000477,0.4284701,0.67080134,-0.7704413,-1.1053281,2.0086186,4.843255
696,6.960000477,0.4284701,0.67080134,-0.7704413,-1.1053281,2.0086186,4.843255
697,6.970000477,0.4284701,0.67080134,-0.7704413,-1.1053281,2.0086186,4.843255
698,6.980000477,0.4284701,0.67080134,-0.7704413,-1.1053281,2.0086186,4.843255
699,6.990000477,0.4284701,0.67080134,-0.7704413,-1.1053281,2.0086186,4.843255
700,7.000000477,0.4284701,0.67080134,-0.7704413,-1.1053281,2.0086186,4.843255
701,7.010000477,0.4284701,0.67080134,-0.7704413,-1.1053281,2.0086186,4.843255
702,7.020000477,0.4284701,0.67080134,-0.7704413,-1.1053281,2.0086186,4.843255
703,7.030000477,0.4284701,0.67080134,-0.7704413,-1.1053281,2.0086186,4.843255
704,7.040000477,0.4284701,0.67080134,-0.7704413,-1.1053281,2.0086186,4.843255
705,7.050000477,0.4284701,0.67080134,-0.7704413,-1.1053281,2.0086186,4.843255
706,7.060000477,0.4284701,0.67080134,-0.7704413,-1.1053281,2.0086186,4.843255
707,7.070000477,0.4284701,0.67080134,-0.7704413,-1.1053281,2.0086186,4.843255
708,7.080000477,0.4284701,0.67080134,-0.7704413,-1.1053281,2.0086186,4.843255
709,7.090000477,2.2600404000000003,0.6451508771428571,0.38981367928571425,0.26779117142857134,-0.6305907028571429,4.991254714285715
710,7.100000477,2.272724,0.43554372,0.40243202,2.2398243,-0.78784025,4.853029
711,7.110000477,2.372303,0.438363985,0.115433566665,2.527737,-0.92670618,3.904586666666667
712,7.120000477,2.3051953,0.46533203,-0.00024391667,2.605111,-1.0211838,3.336906
713,7.130000477,1.8840988166666666,0.5387052166666667,-0.2863734233333333,2.4267434666666667,-1.0093741999999999,2.3579212666666667
714,7.140000477,1.4780218142857142,0.5824076428571429,-0.43857523428571427,2.1520366285714285,-0.8864484571428572,1.9069997285714286
715,7.150000477,0.984534025,0.6665836416666666,-0.5273783500000001,1.4758578666666666,-0.48241662,1.4493878000000002
716,7.160000477,0.6403988557142857,0.7852418214285715,-0.5604464857142857,1.1622896,-0.25029466,1.4200672
717,7.170000477,0.5648195466666667,0.8704470833333334,-0.5400518666666666,0.7288934616666666,0.06856760666666666,1.6275516333333335
718,7.180000477,0.6486048999999999,0.87874025,-0.4985657,0.12369657,0.49005222,1.9319571
719,7.190000477,0.7704152057142857,0.85099916,-0.34935399857142857,-0.3325190657142857,0.7670278085714285,1.9809994714285715
720,7.200000477,0.75013524,0.83090216,-0.19498089,-0.5775561,0.8968765,1.9160750999999998
721,7.210000477,0.67209932,0.7854378428571429,0.1391588157142857,-0.5901220657142857,0.8528954599999999,1.8326508714285714
722,7.220000477,0.7085017166666666,0.7583064249999999,0.4694837,-0.33057018,0.5967468483333334,1.7214184666666668
723,7.230000477,0.8939285357142858,0.7300512857142857,0.7538331857142858,0.39164035714285717,0.0036432671428571523,1.334024957142857
724,7.240000477,0.9405579749999999,0.7000611666666666,0.7732666666666667,1.2425142333333332,-0.67300096,0.7513421233333334
725,7.250000477,0.8490390642857142,0.6968960714285715,0.6092341757142856,1.7799435,-1.0870244285714286,0.29525738532285717
726,7.260000477,0.6733058442857143,0.7214271285714285,0.3243917385714286,2.153258485714286,-1.3258875285714284,-0.1326847493542857
727,7.270000477,0.63125634,0.7257131,0.24772787,2.2495978,-1.3719629,-0.31000498
728,7.280000477,0.63125634,0.7257131,0.24772787,2.2495978,-1.3719629,-0.31000498
729,7.290000477,0.63125634,0.7257131,0.24772787,2.2495978,-1.3719629,-0.31000498
730,7.300000477,0.63125634,0.7257131,0.24772787,2.2495978,-1.3719629,-0.31000498
731,7.310000477,0.63125634,0.7257131,0.24772787,2.2495978,-1.3719629,-0.31000498
732,7.320000477,0.63125634,0.7257131,0.24772787,2.2495978,-1.3719629,-0.31000498
733,7.330000477,0.63125634,0.7257131,0.24772787,2.2495978,-1.3719629,-0.31000498
734,7.340000477,0.63125634,0.7257131,0.24772787,2.2495978,-1.3719629,-0.31000498
735,7.350000477,0.63125634,0.7257131,0.24772787,2.2495978,-1.3719629,-0.31000498
736,7.360000477,0.63125634,0.7257131,0.24772787,2.2495978,-1.3719629,-0.31000498
737,7.370000477,0.63125634,0.7257131,0.24772787,2.2495978,-1.3719629,-0.31000498
738,7.380000477,0.63125634,0.7257131,0.24772787,2.2495978,-1.3719629,-0.31000498
739,7.390000477,0.63125634,0.7257131,0.24772787,2.2495978,-1.3719629,-0.31000498
740,7.400000477,0.63125634,0.7257131,0.24772787,2.2495978,-1.3719629,-0.31000498
741,7.410000477,0.63125634,0.7257131,0.24772787,2.2495978,-1.3719629,-0.31000498
742,7.420000477,3.7745037666666668,0.8404606133333333,0.42406946500000003,3.486156233333334,-0.2671947616666666,-2.263494533333333
743,7.430000477,4.3473573,0.82821906,0.35264254,3.7473953,-0.37857258,-2.5114984999999996
744,7.440000477,4.3473573,0.82821906,0.35264254,3.7473952999999995,-0.37857258,-2.5114985
745,7.450000477,2.925414628571428,0.4961395814285714,0.9329551828571427,2.2960221714285716,-0.5094684314285715,-4.323031471428572
746,7.460000477,2.4115178333333334,0.21790397416666665,1.1861058333333332,1.9486537000000002,-0.6927517000000001,-4.79662695
747,7.470000477,2.3654560000000004,0.027449337142857144,1.0287752657142857,2.153607514285714,-0.5604305571428572,-4.992214657142858
748,7.480000477,2.164852,-0.09159071,0.81562686,2.2092817714285715,-0.25413427914285713,-5.321199485714286
749,7.490000477,1.8051357999999997,-0.19507235,0.5732652,2.12865,0.082006246,-5.604982
750,7.500000477,1.4371265,-0.2894986,0.37974778000000003,1.9527259714285716,0.42128826657142854,-5.811273485714286
751,7.510000477,1.1187136333333332,-0.4178800866666667,0.25642756666666666,1.72671245,0.7264501000000001,-5.930563199999999
752,7.520000477,0.7820578428571429,-0.5664746857142857,0.17393437,1.3479872,1.1448805,-6.020358
753,7.530000477,0.45709987333333335,-0.7335184,0.17725627,1.1172905,1.2613487166666666,-5.9209932499999995
754,7.540000477,0.27032935571428574,-0.7980736014285714,0.15567546142857142,1.0038184285714284,1.2591961142857142,-5.718599485714286
755,7.550000477,0.10851242923333332,-0.8088480466666667,0.13530261000000002,0.9629498233333332,1.2523895333333332,-5.5996877666666665
756,7.560000477,-0.037079688785714285,-0.7861086,0.13274728714285716,0.8997562,1.2173095142857142,-5.297114857142857
757,7.570000477,-0.14086622857142858,-0.7710902885714285,0.12904498285714286,0.8556661214285715,1.1555266285714285,-4.955389485714286
758,7.580000477,-0.19507235,-0.77492326,0.12153149,0.8286143,1.1057862,-4.6813807
759,7.590000477,-0.25169152,-0.7900461,0.15985689,0.813954,1.0288194,-4.2621865
760,7.600000477,-0.27600187833333334,-0.77219954,0.21346774999999998,0.8647052133333334,0.8634834966666666,-3.7562016166666665
761,7.610000477,-0.27461967,-0.7561417,0.24919137,0.91672903,0.7233959,-3.402114
762,7.620000477,-0.27461967,-0.7561417,0.24919137,0.91672903,0.7233959,-3.402114
763,7.630000477,-0.27461967,-0.7561417,0.24919137,0.91672903,0.7233959,-3.4021139999999996
764,7.640000477,-0.27461967,-0.7561417,0.24919137,0.91672903,0.7233959,-3.402114
765,7.650000477,-0.27461967,-0.7561417,0.24919137,0.91672903,0.7233959,-3.402114
766,7.660000477,-0.27461967,-0.7561417,0.24919137,0.91672903,0.7233959,-3.4021139999999996
767,7.670000477,-0.27461967,-0.7561417,0.24919137,0.91672903,0.7233959,-3.402114
768,7.680000477,-0.27461967,-0.7561417,0.24919137,0.91672903,0.7233959,-3.4021139999999996
769,7.690000477,-0.27461967,-0.7561417,0.24919137,0.91672903,0.7233959,-3.402114
770,7.700000477,-0.27461967,-0.7561417,0.24919137,0.91672903,0.7233959,-3.4021139999999996
771,7.710000477,-0.27461967,-0.7561417,0.24919137,0.91672903,0.7233959,-3.402114
772,7.720000477,-0.27461967,-0.7561417,0.24919137,0.91672903,0.7233959,-3.402114
773,7.730000477,-0.1821295235,-0.64029652,0.09336418566666667,0.7024743505000001,0.7692094233333333,-2.1390599166666666
774,7.740000477,-0.04700187571428571,-0.11101692928571429,-0.37529629428571426,-0.19848172400000003,1.539138757142857,1.4481661857142856
775,7.750000477,0.07753501,-0.08841979500000001,-0.5268905,-0.41629239999999995,1.8400247,1.5898826999999998
776,7.760000477,0.26963246,-0.010706199714285713,-0.6192391085714286,-1.0589036885714285,2.633777142857143,1.726014357142857
777,7.770000477,0.34892282,0.104152426,-0.43536076,-1.557355,3.130134,1.6338637
778,7.780000477,0.16708292,0.2183359,-0.1554359,-1.6631188857142856,3.0275117142857146,1.567892157142857
779,7.790000477,-0.17116852857142859,0.4130859314285714,0.12610492857142858,-1.5760295714285715,2.3056648,1.7569057857142858
780,7.800000477,-0.401207345,0.5494883783333334,0.3471239166666667,-1.3012065333333334,1.4372726666666669,2.2528555333333333
781,7.810000477,0.2787227042857143,0.45397248714285715,0.3291611814285714,-0.2372268942857143,-0.47770436857142856,3.9507199714285717
782,7.820000477,0.7807518333333334,0.4700934833333334,0.180279826,0.148130455,-0.7151494399999999,4.358445949999999
783,7.830000477,1.2091253857142858,0.5654554571428572,-0.038578032857142855,0.4048608285714286,-0.6000483714285715,4.4743034999999995
784,7.840000477,1.4314902857142857,0.6566977257142858,-0.22894627714285715,0.4511107,-0.4421007,4.455978
785,7.850000477,1.5864645,0.68912554,-0.36142352,0.4511106999999999,-0.44210069999999996,4.455978
786,7.860000477,1.5864645,0.68912554,-0.36142352000000005,0.4511107,-0.4421007,4.455978
787,7.870000477,1.5864645,0.68912554,-0.36142352,0.4511106999999999,-0.44210069999999996,4.455978
788,7.880000477,1.5864645,0.68912554,-0.36142352000000005,0.4511107,-0.4421007,4.455978
789,7.890000477,1.5864645,0.68912554,-0.36142352000000005,0.4511107,-0.4421007,4.455978
790,7.900000477,1.5864645,0.68912554,-0.36142352000000005,0.4511107,-0.4421007,4.455978
791,7.910000477,1.5864645,0.68912554,-0.36142352,0.4511106999999999,-0.44210069999999996,4.455978
792,7.920000477,1.5864645,0.68912554,-0.36142352000000005,0.4511107,-0.4421007,4.455978
793,7.930000477,1.5864645,0.68912554,-0.36142352,0.4511106999999999,-0.44210069999999996,4.455978
794,7.940000477,1.5864645,0.68912554,-0.36142352000000005,0.4511107,-0.4421007,4.455978
795,7.950000477,1.5864645,0.68912554,-0.36142352000000005,0.4511107,-0.4421007,4.455978
796,7.960000477,1.4639929333333332,0.5670605083333333,-0.30740614166666663,-0.8292251500000001,-0.3419217586666667,4.8141381333333335
797,7.970000477,2.2144063,0.1503702717142857,-0.2674589842857143,-3.5166040857142855,0.5064578428571429,5.846615642857143
798,7.980000477,2.8501358,0.101194926,-0.13080032,-4.100923,1.3525685,5.1743345
799,7.990000477,3.1698496,-0.004451479,0.43197644,-4.320828,1.5553699,3.2110713
800,8.000000477,2.81947855,0.07201131233333334,0.5575376266666666,-4.198862166666666,1.1471202933333333,2.5030738666666665
801,8.010000477,1.7131182,0.30035286999999994,0.85416573,-3.761292,-0.15744588,0.5622849
802,8.020000477,1.2479691333333334,0.29466149,0.7511922433333332,-3.518582,-0.66485636,0.30817244
803,8.030000477,1.0153946,0.2918158,0.6997055,-3.397227,-0.9185616,0.18111621000000003
804,8.040000477,1.0153946,0.2918158,0.6997055,-3.3972269999999996,-0.9185616,0.18111621
805,8.050000477,0.8083049942857142,0.30338877571428574,0.5863582828571429,-3.3213074285714286,-0.9505219857142857,0.5075268071428571
806,8.060000477,0.47657252499999997,0.30331544833333335,0.29330472166666666,-3.1923896666666667,-0.8503503,1.5442728166666668
807,8.070000477,0.85504985,0.26324704,0.33093393,-3.2851803428571427,-0.5082467642857144,1.5500903714285716
808,8.080000477,1.2885202857142857,0.3155889814285714,0.5185450614285714,-3.2799444,-0.31870955,1.3040062
809,8.090000477,1.5440128666666666,0.40464759666666666,0.7107630166666666,-2.941534966666667,0.007890109333333334,-0.03227311000000003
810,8.100000477,1.4922822,0.41749385,0.73580515,-2.7533941,0.10888352,-0.61298525
811,8.110000477,1.4922822,0.41749385,0.73580515,-2.7533941,0.10888352,-0.61298525
812,8.120000477,1.4922822,0.41749385,0.73580515,-2.7533941,0.10888352,-0.61298525
813,8.130000477,0.8452714482857143,0.48307695714285714,0.5030955742857143,-2.579040828571429,0.42041562714285713,-1.0596018714285713
814,8.140000477,-0.17351621933333336,0.6325877333333333,0.22022627000000003,-2.3984917500000003,0.873053465,-1.3649382
815,8.150000477,-0.23938243142857143,0.7537591428571428,0.42279906,-2.399451642857143,0.6349102885714286,-0.3941273571428572
816,8.160000477,0.47874235000000004,0.7542868833333333,0.7373042083333333,-2.1871386666666663,0.23940122833333333,0.4627167916666666
817,8.170000477,1.4337073428571425,0.8089191428571428,0.9427597,-1.6901707214285715,0.1420438057142857,0.4352286385714286
818,8.180000477,2.434188342857143,0.9139209142857142,0.8096116571428571,-0.92573905,0.33367531999999994,-0.40774053
819,8.190000477,2.4804192,1.1586652,0.5291162,-0.9257390500000001,0.33367532,-0.40774053000000005
820,8.200000477,2.4804192,1.1586652,0.5291162,-0.92573905,0.33367531999999994,-0.40774053
821,8.210000477,2.4804192,1.1586652,0.5291162,-0.9257390500000001,0.33367532,-0.40774053000000005
822,8.220000477,2.4804192,1.1586652,0.5291162,-0.92573905,0.33367531999999994,-0.40774053
823,8.230000477,2.4804192,1.1586652,0.5291162,-0.92573905,0.33367531999999994,-0.40774053
824,8.240000477,2.4804192,1.1586652,0.5291162,-0.9257390500000001,0.33367532,-0.40774053000000005
825,8.250000477,2.4804192,1.1586652,0.5291162,-0.92573905,0.33367531999999994,-0.40774053
826,8.260000477,2.4804192,1.1586652,0.5291162,-0.9257390500000001,0.33367532,-0.40774053000000005
827,8.270000477,2.4804192,1.1586652,0.5291162,-0.92573905,0.33367531999999994,-0.40774053
828,8.280000477,2.4804192,1.1586652,0.5291162,-0.9257390500000001,0.33367532,-0.40774053000000005
829,8.290000477,2.4804192,1.1586652,0.5291162,-0.92573905,0.33367531999999994,-0.40774053
830,8.300000477,2.4804192,1.1586652,0.5291162,-0.92573905,0.33367531999999994,-0.40774053
831,8.310000477,2.5338622833333333,1.0648690416666666,0.4489387966666667,-0.2513636666666667,0.31188843,-2.2170701433333333
832,8.320000477,2.6532687571428575,0.42216749428571426,0.3866950371428572,0.5263321657142858,-0.4190630257142857,-4.155899357142857
833,8.330000477,2.3867754333333333,0.22080557333333337,0.25252489666666667,0.41140562166666667,-0.7393796916666666,-4.521415083333333
834,8.340000477,2.071906671428571,0.0708186,0.10387800428571428,0.12858334857142856,-0.9379341642857143,-4.951898742857144
835,8.350000477,1.5230157,-0.13211136,-0.10467074999999999,-0.18905723,-0.9100097000000001,-5.2006006
836,8.360000477,1.3708290571428574,-0.18021957428571428,-0.14023467142857143,-0.3199530657142858,-0.8454344428571429,-5.220671385714285
837,8.370000477,0.9491233142857143,-0.2904611914285714,-0.11178353428571429,-0.6424804285714286,-0.6541519914285715,-5.163775328571428
838,8.380000477,0.40895677,-0.36883250000000006,0.1967188,-0.8328902,-0.67422265,-4.7840033
839,8.390000477,0.21150625,-0.38688233,0.37023503,-0.6630747,-0.94788224,-4.4625444
840,8.400000477,0.099406204,-0.41095893666666666,0.42417108,-0.24036838833333332,-1.4346765333333333,-4.002780133333333
841,8.410000477,0.08475668857142857,-0.41590405857142854,0.39362924,0.011300675,-1.7067072,-3.740523
842,8.420000477,0.11927526,-0.41398757999999997,0.35142294,0.2519745,-1.9339424,-3.4473164
843,8.430000477,0.1688687457142857,-0.42586978285714283,0.2782522957142857,0.3828703457142857,-1.9999139714285714,-3.1820342285714287
844,8.440000477,0.25359494857142856,-0.46163408428571423,0.16374213857142858,0.42981830571428575,-1.9229471285714286,-2.9575914857142855
845,8.450000477,0.272272,-0.47768032999999993,0.13278215,0.41323817,-1.7885607,-2.8389127
846,8.460000477,0.2777078628571429,-0.49586951,0.12397501142857144,0.35564399,-1.5864575571428572,-2.719535757142857
847,8.470000477,0.28544348,-0.54283655,0.17937022,0.28251687,-1.4196091,-2.605569
848,8.480000477,0.3224752657142857,-0.5894855642857143,0.23838063142857144,0.26785653,-1.4426467857142857,-2.5720596
849,8.490000477,0.39117119666666667,-0.7025511433333333,0.29661791666666665,0.33464249,-1.6663913000000001,-2.659323533333333
850,8.500000477,0.4700709685714286,-0.8287766,0.27252895285714285,0.40468631000000005,-1.882107642857143,-2.8143041999999996
851,8.510000477,0.46850294,-0.8835272,0.23574546,0.41690326000000005,-1.9815884999999998,-2.9329832
852,8.520000477,0.46850294,-0.8835272,0.23574546,0.41690326,-1.9815885,-2.9329832000000002
853,8.530000477,0.46850294,-0.8835272,0.23574546,0.41690326000000005,-1.9815884999999998,-2.9329832
854,8.540000477,0.46850294,-0.8835272,0.23574546,0.41690326,-1.9815885,-2.9329832000000002
855,8.550000477,0.46850294,-0.8835272,0.23574546,0.41690326000000005,-1.9815884999999998,-2.9329832
856,8.560000477,0.46850294,-0.8835272,0.23574546,0.41690326000000005,-1.9815884999999998,-2.9329832
857,8.570000477,0.46850294,-0.8835272,0.23574546,0.41690326,-1.9815885,-2.9329832000000002
858,8.580000477,0.46850294,-0.8835272,0.23574546,0.41690326000000005,-1.9815884999999998,-2.9329832
859,8.590000477,0.46850294,-0.8835272,0.23574546,0.41690326,-1.9815885,-2.9329832000000002
860,8.600000477,0.46850294,-0.8835272,0.23574546,0.41690326000000005,-1.9815884999999998,-2.9329832
861,8.610000477,0.46850294,-0.8835272,0.23574546,0.41690326,-1.9815885,-2.9329832000000002
862,8.620000477,0.46850294,-0.8835272,0.23574546,0.41690326000000005,-1.9815884999999998,-2.9329832
863,8.630000477,-0.86343888,-0.24704403028571428,-0.6059543714285714,0.003446924571428573,-2.629610142857143,1.201165657142857
864,8.640000477,-0.61141275,0.20615025333333334,-1.0991698666666665,-0.8241347666666666,-3.3132355,3.9858291499999994
865,8.650000477,0.197603,0.32693982000000005,-1.0137482,-1.4339639,-3.8568895,4.6099114
866,8.660000477,1.205919,0.5744643866666667,-0.7245544833333333,-2.1771614833333333,-4.686623666666667,4.774840233333333
867,8.670000477,1.639991257142857,0.6967523,-0.5874515057142856,-2.5247625428571427,-4.993938128571429,4.701014857142858
868,8.680000477,1.9086073666666667,0.9274829733333334,-0.41275783000000005,-3.137006066666667,-4.563232716666667,4.16338225
869,8.690000477,1.7560737714285715,1.0810692142857143,-0.31682597142857144,-3.6867685571428574,-3.8167481857142858,3.695909471428571
870,8.700000477,1.681409,1.0986313,-0.2850471,-3.8846831,-3.5025983,3.5995703
871,8.710000477,1.4760464500000001,1.0320115300000001,-0.21755842,-4.323551466666667,-3.1159319500000002,3.58552075
872,8.720000477,1.2706839,0.96539176,-0.15006974,-4.876852,-2.731709,3.6411078
873,8.730000477,1.2706839,0.96539176,-0.15006974,-4.876852,-2.731709,3.6411078
874,8.740000477,1.2706839,0.96539176,-0.15006974,-4.876852,-2.731709,3.6411078
875,8.750000477,0.8250568571428571,0.40089447142857143,0.6805928242857143,-5.041606057142857,-3.7926634285714287,5.686617171428572
876,8.760000477,1.2775136,0.22519606,0.8163585699999999,-4.8976207,-3.894762,6.151842599999999
877,8.770000477,2.4895006571428566,0.1546867257142857,1.181371167142857,-4.521556814285715,-3.725121171428572,6.070032942857142
878,8.780000477,3.3679405999999994,0.301979,1.3765132,-3.5601196666666666,-3.612550683333333,4.671810566666666
879,8.790000477,3.156360257142857,0.48525914285714283,1.05495264,-3.134213557142857,-3.5978903428571427,3.2728541428571427
880,8.800000477,2.7315314,0.60223025,0.71068174,-3.1027986999999997,-3.5001547,2.468281
881,8.810000477,2.7315314,0.60223025,0.71068174,-3.1027987,-3.5001547,2.468281
882,8.820000477,2.7315314,0.60223025,0.71068174,-3.1027987,-3.5001547,2.468281
883,8.830000477,2.7315314,0.60223025,0.71068174,-3.1027986999999997,-3.5001547,2.468281
884,8.840000477,2.7315314,0.60223025,0.71068174,-3.1027987,-3.5001547,2.468281
885,8.850000477,2.7315314,0.60223025,0.71068174,-3.1027986999999997,-3.5001547,2.468281
886,8.860000477,2.7315314,0.60223025,0.71068174,-3.1027987,-3.5001547,2.468281
887,8.870000477,2.7315314,0.60223025,0.71068174,-3.1027987,-3.5001547,2.468281
888,8.880000477,2.7315314,0.60223025,0.71068174,-3.1027986999999997,-3.5001547,2.468281
889,8.890000477,2.7315314,0.60223025,0.71068174,-3.1027987,-3.5001547,2.468281
890,8.900000477,2.7315314,0.60223025,0.71068174,-3.1027986999999997,-3.5001547,2.468281
891,8.910000477,2.7315314,0.60223025,0.71068174,-3.1027987,-3.5001547,2.468281
892,8.920000477,2.7315314,0.60223025,0.71068174,-3.1027986999999997,-3.5001547,2.468281
893,8.930000477,2.7315314,0.60223025,0.71068174,-3.1027987,-3.5001547,2.468281
894,8.940000477,2.7315314,0.60223025,0.71068174,-3.1027987,-3.5001547,2.468281
895,8.950000477,2.7315314,0.60223025,0.71068174,-3.1027986999999997,-3.5001547,2.468281
896,8.960000477,2.7315314,0.60223025,0.71068174,-3.1027987,-3.5001547,2.468281
897,8.970000477,2.7315314,0.60223025,0.71068174,-3.1027986999999997,-3.5001547,2.468281
898,8.980000477,2.7315314,0.60223025,0.71068174,-3.1027987,-3.5001547,2.468281
899,8.990000477,2.7315314,0.60223025,0.71068174,-3.1027986999999997,-3.5001547,2.468281
900,9.000000477,2.7315314,0.60223025,0.71068174,-3.1027987,-3.5001547,2.468281
901,9.010000477,2.7315314,0.60223025,0.71068174,-3.1027987,-3.5001547,2.468281
902,9.020000477,2.7315314,0.60223025,0.71068174,-3.1027986999999997,-3.5001547,2.468281
903,9.030000477,1.8790818100000002,0.4111825228571428,0.7023145214285714,-2.690389507142857,-2.727847457142857,2.0370228714285714
904,9.040000477,0.9034622783333334,1.0600669575,1.2399300833333333,-2.2681776333333334,-1.1286166333333334,0.7907926933333332
905,9.050000477,1.2758061,1.6250339,1.3166317,-1.1138799,-1.3976185,1.4762651000000002
906,9.060000477,1.2758061,1.6250339,1.3166317,-1.1138799,-1.3976185,1.4762651
907,9.070000477,3.189114528571429,2.023253885714286,1.1470006571428573,-0.7691876285714285,-0.2316420142857143,1.2161969114285716
908,9.080000477,4.000917171428571,2.0576374285714283,1.3480534142857141,-0.5478863571428572,0.8132776857142857,0.06453164857142858
909,9.090000477,3.9895926,2.0506685,1.4967337,-0.23405631999999998,1.1656492833333332,-0.9047665916666666
910,9.100000477,3.3224542285714285,2.053551842857143,1.465159542857143,0.35354966428571427,1.1108475428571427,-1.9050145142857142
911,9.110000477,2.690136666666667,2.0338890333333333,1.2007915666666666,0.8457689333333333,0.8915824866666666,-2.3974737333333334
912,9.120000477,2.3378804,2.0277097,0.9617939,1.0657758,0.78814566,-2.4992816
913,9.130000477,2.1117897500000002,2.1186703666666666,0.693968325,1.1671764,0.98728186,-2.2072966
914,9.140000477,2.2966585,2.1109462,0.6726002,1.1732849,1.502837,-1.6440954
915,9.150000477,2.6546931428571425,2.003906128571429,0.7602795357142857,1.235242185714286,1.6607845714285714,-1.5882465428571428
916,9.160000477,3.1631267333333333,1.7576737,0.9165219833333333,1.6558542,1.85183435,-1.9562383333333333
917,9.170000477,3.2786625428571425,1.4567531857142857,0.9244616171428571,2.3567578142857144,1.6977844999999998,-2.6617669
918,9.180000477,3.2789413999999995,1.3524265,0.88053924,2.886915166666667,1.4706656666666664,-3.1862810666666666
919,9.190000477,3.074887542857143,1.0077461142857143,0.5144943399999999,3.2255572142857147,1.3014318285714286,-3.6454054428571427
920,9.200000477,2.7266311714285716,0.6876228571428572,0.09612929285714288,3.4269622142857146,1.1984605428571429,-4.272352814285714
921,9.210000477,2.404276466666667,0.44710939000000005,-0.20760358,3.315322566666667,1.2291773666666668,-4.7681209
922,9.220000477,2.0886844285714283,0.25545481285714283,-0.42791695714285716,3.045444542857143,1.3139979142857143,-5.119619857142857
923,9.230000477,1.7238809999999998,0.08558427,-0.5735091,2.6820776,1.4124316,-5.32277
924,9.240000477,1.2878669714285713,-0.10393463428571428,-0.6183810000000001,2.3106825,1.4771814000000003,-5.3948503
925,9.250000477,0.988402642857143,-0.25903078285714287,-0.5617531457142857,1.8012359,1.5333793,-5.3753033
926,9.260000477,0.7342501,-0.45545339999999995,-0.43414122000000005,1.1268605,1.6323365999999997,-5.1505113
927,9.270000477,0.5639745342857143,-0.5944946,-0.21973843999999998,0.8167900685714286,1.7759729285714285,-4.849799971428571
928,9.280000477,0.4050338066666667,-0.6827532333333334,0.038650630000000005,0.6331432066666666,1.85835,-4.486265733333333
929,9.290000477,0.30641162285714285,-0.7073975571428572,0.2808134228571429,0.6993110571428571,1.7812087428571428,-4.183649042857143
930,9.300000477,0.2841527566666667,-0.74034808,0.5767612833333332,1.0297357833333332,1.4832898166666668,-3.7889838166666667
931,9.310000477,0.33186169285714284,-0.7916925342857143,0.6859851314285714,1.5068074571428571,1.0663429571428573,-3.4790806285714284
932,9.320000477,0.4488327971428571,-0.9053490285714286,0.6844345285714286,2.039291742857143,0.6010519042857144,-3.2621424857142856
933,9.330000477,0.5871074,-1.027499,0.5971995,2.4633942,0.28480753,-3.1480014
934,9.340000477,0.69815046,-1.1617446,0.40804207,2.8030252,0.1137703,-3.1235673
935,9.350000477,0.7249813,-1.2249495,0.24284953,2.9655108,0.13209572,-3.2200813
936,9.360000477,0.6260383,-1.2347758714285713,0.06168913857142857,2.964812628571429,0.22494450857142856,-3.3694771285714284
937,9.370000477,0.4065887666666667,-1.2584575666666666,-0.151065734,2.726873,0.45095799000000003,-3.6484888666666664
938,9.380000477,0.200839244,-1.2702004142857144,-0.2401011357142857,2.4848612285714284,0.5507878785714285,-3.6560518285714285
939,9.390000477,-0.09549772914285715,-1.235180942857143,-0.25093799285714286,2.2131214,0.5877877714285714,-3.5181747428571426
940,9.400000477,-0.24193484,-1.1971126,-0.22403745,2.0048516666666667,0.5108210083333333,-3.2673201666666665
941,9.410000477,-0.4300599142857143,-1.1274961428571428,-0.18299413142857143,1.8623205000000003,0.3397838,-2.929318
942,9.420000477,-0.544386455,-1.1130121333333334,-0.19811115666666668,1.7071654,0.020921519,-2.1669807
943,9.430000477,-0.58994293,-1.1158578,-0.20156664,1.5532318,-0.20142688,-1.5988927
944,9.440000477,-0.592585405,-1.11911005,-0.20949393166666666,1.5114906333333333,-0.23095117166666668,-1.3514995333333335
945,9.450000477,-0.6175273285714286,-1.1459162142857142,-0.36727314714285714,1.3748644714285714,-0.06930934949999999,-0.6292163000000001
946,9.460000477,-0.8233886342857143,-1.0749974142857144,-0.6307728499999999,1.0372840742857143,0.3783544322,0.3356169414285714
947,9.470000477,-0.9523421500000001,-1.0072539,-0.7104073,0.6331431866666667,0.66740155,1.24129255
948,9.480000477,-0.9667724171428571,-0.7614294428571429,-0.8597191457142858,0.10048436857142858,0.4458966571428572,2.2996871428571426
949,9.490000477,-0.89035684,-0.6399763,-0.95273846,-0.31489176,0.17974180000000003,2.996053
950,9.500000477,-0.5242292257142858,-0.39270582285714284,-0.9919307228571428,-1.2067287085714287,-0.1368516,4.264171942857144
951,9.510000477,-0.04979455833333333,-0.22033296666666666,-0.7584435933333333,-1.9556274,-0.27106348,5.4064565
952,9.520000477,1.0930080857142859,-0.09179107514285714,-0.04297288857142857,-2.1826881000000005,-0.4283130057142857,6.724642642857143
953,9.530000477,1.7789976571428572,-0.031203913142857143,0.21724699142857143,-1.8322363,-0.5480390857142857,7.104939
954,9.540000477,2.1947927166666665,0.12584574666666667,0.23376363716666668,-1.4628774,-0.6950169166666665,7.008046833333332
955,9.550000477,2.6568623,0.5419523,0.029788323,-0.8622109,-1.0738695,6.518351
956,9.560000477,2.6888356666666664,0.833387095,-0.32295076666666667,-0.90374856,-1.0978452333333333,5.8715147666666665
957,9.570000477,2.5474961428571428,0.9245792071428571,-0.44932064285714285,-1.1878798285714287,-0.6916754428571429,5.410994185714286
958,9.580000477,2.2742079,1.0493193,-0.38306095999999995,-1.5610202,-0.21567998200000002,4.9035256
959,9.590000477,1.9205126857142858,1.1260587142857144,-0.2808264971428572,-1.8207174857142856,-0.03265851228571428,4.607991714285714
960,9.600000477,1.2857718571428571,1.144762,-0.25452703428571427,-2.0088584857142857,-0.11102148571428572,4.587746628571429
961,9.610000477,1.0021824333333333,1.1512562,-0.29434643,-2.316841866666667,-0.42499697000000003,4.940176466666666
962,9.620000477,1.0313972714285715,1.0636160714285714,-0.4363581914285714,-2.750950685714286,-0.6693358642857143,5.281669142857143
963,9.630000477,1.1274133,1.0381093,-0.34995946,-2.9464218999999994,-0.6571189,5.363696999999999
964,9.640000477,1.3870016714285713,0.9768252742857142,0.18659624857142856,-3.5450520000000005,-0.56427014,5.529847600000001
965,9.650000477,1.6350780285714286,0.9532046385714287,0.8150867399999999,-3.3911185714285716,-0.5569399914285714,5.432460828571428
966,9.660000477,1.9980688833333333,0.9243425333333333,1.2811723050000001,-2.820790833333333,-0.5312844250000001,5.122005283333333
967,9.670000477,2.2541864,0.95023835,1.6072888000000003,-1.7161753,-0.5044071,4.299601
968,9.680000477,2.064154933333333,1.01207125,1.5376710000000002,-1.0010768133333334,-0.49789140666666665,3.6928260666666666
969,9.690000477,1.3206693828571427,1.0710119857142857,1.1076996714285714,0.32514529000000003,-0.41155833142857146,2.5935920857142856
970,9.700000477,0.69180864,1.0854597,0.7338538,1.0240345666666668,-0.2971262883333334,2.0512761000000004
971,9.710000477,0.44370617571428567,1.1400709285714286,0.4617865558571429,1.0774690714285715,-0.15814399285714287,2.010320142857143
972,9.720000477,0.21443325,1.2072351,-0.027074749,0.9387195,-0.0193944,2.081004
973,9.730000477,0.21101841,1.1852521,-0.19912747,0.5464029,0.31168482,2.2386024
974,9.740000477,0.3396234799999999,1.162324,0.21623214,-0.19027892,0.7038488,2.4548423
975,9.750000477,0.48265012999999996,1.1086317,0.7472692,-0.22326468,0.567019,2.4548423
976,9.760000477,0.9425593357142857,1.0342327857142857,1.267830942857143,0.40909312857142854,0.20400117428571427,2.1815318571428572
977,9.770000477,1.3450225,0.9962419749999999,1.5059314,1.1233989833333333,-0.005752145833333333,1.71103405
978,9.780000477,1.5883112999999998,0.9353246000000001,1.4862278285714285,2.33564,-0.06773860142857142,0.5772288142857143
979,9.790000477,1.5642681000000003,0.9248711,0.9969484,3.256274,0.06490252,-0.4883724
980,9.800000477,1.3889660714285714,0.9429601285714285,0.75324516,3.339349257142857,0.2855056457142857,-0.8663995857142857
981,9.810000477,0.8042194142857143,1.0198679285714285,0.10010601499999998,3.2035666142857147,0.8162446314285715,-1.4570016
982,9.820000477,0.7286401000000001,1.0407925,0.039301075,2.9651034833333334,0.9447262,-1.3891684166666665
983,9.830000477,0.8817065228571428,0.9933986057142857,0.08890327257142858,2.709304,1.0225365714285715,-1.2960869
984,9.840000477,1.3540576333333334,0.8820687666666668,0.29627744666666667,2.501470416666667,0.9740468666666667,-1.4040324166666667
985,9.850000477,1.8502779285714286,0.8253617571428571,0.36288266999999996,2.476134714285714,0.7776740285714286,-1.7657413428571427
986,9.860000477,2.222447,0.82797515,0.37682076999999997,2.464616,0.582901,-2.2683814
987,9.870000477,2.409112685714286,0.9403074328571428,0.4095926985714286,2.364088014285714,0.63787726,-3.0443318714285716
988,9.880000477,2.448409328571429,1.1349921142857142,0.4165530528571429,2.227607357142857,0.7829098571428572,-3.395830828571429
989,9.890000477,2.6744295499999997,1.3283142666666665,0.5606729916666667,1.9103738166666666,1.0972344333333333,-3.425325966666666
990,9.900000477,3.3862558000000003,1.2052358,1.0468337857142858,1.6401466857142857,1.4126061428571428,-3.4900758285714284
991,9.910000477,3.65375995,0.9300746166666666,1.3469739,1.8773881666666667,1.4344220666666667,-4.0439106
992,9.920000477,3.522923571428571,0.6201276714285715,1.4840152142857144,2.2283054142857144,1.4023089285714287,-4.526617857142857
993,9.930000477,3.3467808,0.5151215,1.4545361,2.4817197,1.4295353,-4.735135
994,9.940000477,2.7886384,0.64104354,1.1711963,3.0640607,1.42037255,-4.669978083333333
995,9.950000477,2.9248833142857142,0.6704703171428571,1.073577442857143,3.322769042857143,1.2911347142857144,-4.3217444857142855
996,9.960000477,3.290933783333333,0.6473904333333333,0.8670628033333333,3.4236461499999997,1.0278014033333334,-4.0037984
997,9.970000477,3.7249557857142856,0.4766654257142857,0.5196165771428571,3.2786135714285716,0.5560237,-4.1452531142857145
998,9.980000477,3.7121218166666665,0.29360452566666667,0.30344756666666667,2.8726619,0.27177612199999995,-4.7920458
999,9.990000477,3.190565071428572,-0.03876097228571428,-0.022030902857142855,2.1825789857142857,0.09352508142857142,-5.6974814
