id,timestamp,acc_x,acc_y,acc_z,gyro_x,gyro_y,gyro_z
0,1778255303390,-0.17620933,0.31239328,0.97598493,0.5901565,0.793622,-0.53795856
1,1778255303400,-0.30629185000000003,0.33033149,0.880802615,0.614657585,0.62477759,-0.573644905
2,1778255303410,-0.4656002275,0.344364775,0.7485236000000001,0.6113286275,0.3366235625,-0.5844306875
3,1778255303420,-0.5649925533333334,0.32183014000000004,0.6142921,0.45184965,-0.17044231,-0.4461682333333334
4,1778255303430,-0.5046290333333333,0.2726932866666667,0.7211891666666667,0.1017327574,-0.6313467166666666,0.015446340000000003
5,1778255303440,-0.415483048,0.25503981200000003,0.85976486,0.02162486866,-0.68624334,0.21017667600000003
6,1778255303450,-0.34460884,0.24918245,0.9530435,0.070200928,-0.62317968,0.24905882000000004
7,1778255303460,-0.2726932933333333,0.2787947333333333,1.0078751099999999,0.18180513,-0.48469531000000005,0.22264027
8,1778255303470,-0.259310835,0.29482115,0.914726565,0.24394554999999998,-0.3337828733333334,0.15570615499999998
9,1778255303480,-0.26626647,0.3048275,0.869576,0.16924388499999998,-0.16737967750000002,0.05166532375
10,1778255303490,-0.25229417,0.3222165775,0.7972739950000001,0.11504855824999999,-0.14194649,0.0243679225
11,1778255303500,-0.23014598,0.32606047,0.7736614300000001,0.027164243,-0.10918961,-0.01917476
12,1778255303510,-0.2665715225,0.3139796425,0.7453507925,-0.09960222925000001,-0.121706465,-0.1109206625
13,1778255303520,-0.30067852,0.30580372,0.7228975,-0.27856666,-0.2231729,-0.23169503
14,1778255303530,-0.32069121166666664,0.30844767666666667,0.7216772166666666,-0.3581063966666667,-0.35952674999999995,-0.23435818666666666
15,1778255303540,-0.4474789475,0.32697569000000004,0.75309965,-0.5635248675,-0.8335694375,-0.2145176275
16,1778255303550,-0.45638703999999997,0.3287451,0.7656076,-0.5789712,-0.9006811000000001,-0.20612867
17,1778255303560,-0.42422031000000004,0.333528622,0.844974994,-0.56235312,-1.2100339,-0.18194717
18,1778255303570,-0.29860403999999996,0.33997173999999997,0.944867635,-0.4596616,-1.4759239,-0.20240025
19,1778255303580,-0.23795581600000001,0.33826334,0.9692977600000001,-0.4596616,-1.4759239,-0.20240025
20,1778255303590,-0.171376996,0.339922932,1.02543092,-0.26557043,-1.6919595,-0.493537024
21,1778255303600,-0.14911897,0.33509058,1.0516427,-0.22849922,-1.7379789000000003,-0.5683186
22,1778255303610,-0.14911897,0.33509058,1.0516427,-0.187166964,-1.7720674600000001,-0.64373932
23,1778255303620,-0.190364652,0.199199518,0.94747906,-0.19473034,-1.7061276200000002,-0.71468593
24,1778255303630,-0.25878203666666666,0.25878203333333333,0.9817609533333332,-0.2503371433333333,-1.6307423666666667,-0.67715311
25,1778255303640,-0.27761511499999997,0.3593743,0.9687852549999999,-0.33236251499999997,-1.038899135,-0.38908784
26,1778255303650,-0.272856,0.4075756,0.95597225,-0.3270362,-0.49854377,-0.24554345
27,1778255303660,-0.272856,0.4075756,0.95597225,-0.3270362,-0.49854377,-0.24554345
28,1778255303670,0.007606450000000001,0.37788197500000004,1.0369178,-0.25743891,1.1179062499999999,-0.36440923
29,1778255303680,0.08047787,0.332222915,1.072448575,-0.22903186,1.5169365,-0.47404268
30,1778255303690,0.08981306,0.29652956,1.0887394,-0.1535312425,1.8333201,-0.6785734325
31,1778255303700,0.07907455,0.26992732,1.1353543,-0.034621093,1.7523600000000001,-0.8974853
32,1778255303710,0.09689073,0.20964517,1.1163179,0.040480047,1.454086,-1.1749867
33,1778255303720,0.10146679875,0.16058968,1.057561025,0.101200126,1.1680624,-1.5744609
34,1778255303730,0.08419975,0.10030752999999999,0.9745205599999999,0.21145499,0.66632295,-1.9845876999999998
35,1778255303740,-0.24324371666666667,0.19784907666666665,0.8431364266666667,0.2363111566666667,0.40320260333333335,-1.9957729333333332
36,1778255303750,-0.30897647,0.24942651,0.7990434,0.24181503,0.24501082,-1.8594190999999998
37,1778255303760,-0.36706210199999995,0.269488008,0.790306188,0.196221708,0.407357136,-1.55539264
38,1778255303770,-0.40318257333333335,0.28538428,0.8042499599999999,0.14984719666666665,0.41385524333333334,-1.3628283
39,1778255303780,-0.4373506,0.2723679,0.82100856,0.11948716333333333,0.09250046666666667,-1.2969594333333334
40,1778255303790,-0.48262323749999997,0.22026166,0.8382146,0.15393071,-0.14327806,-1.2809805
41,1778255303800,-0.4853078475,0.1834700375,0.78897605,0.2476739875,-0.46165899,-1.1005513375
42,1778255303810,-0.4702983,0.19939478,0.7829357,0.30360037,-0.43409526000000004,-0.98110855
43,1778255303820,-0.49470403749999997,0.0989041975,0.3959218725,-0.09001484499999998,-0.274571915,-0.44821003
44,1778255303830,-0.4907991299999999,0.11324256,0.40147417999999996,-0.4719121499999999,-0.25726137,-0.13315806
45,1778255303840,-0.4458519383333333,0.18971383500000003,0.40249107999999995,-0.8114651916666666,-0.26214382833333333,0.024856170833333333
46,1778255303850,-0.37828873,0.294333045,0.6897058025,-1.177383575,-0.265117705,0.14514228175
47,1778255303860,-0.41611758,0.32410803,0.78537625,-1.4716629,-0.26738137,0.29188246
48,1778255303870,-0.47322699999999995,0.3402158,1.3169329,-0.984837,-0.022370555,0.5267733
49,1778255303880,-0.38939333,0.263337775,1.4384734,-0.2231729,-0.0034621094999999977,0.56459015
50,1778255303890,-0.357543864,0.247766908,1.44750352,0.13166667599999998,-0.20985709200000002,0.5695968880000001
51,1778255303900,-0.300580896,0.207985576,1.32801308,0.5049353,-0.5656554,0.56618804
52,1778255303910,-0.27090354,0.22144128,1.010641,0.84191401,-1.3743687,0.7357426666666665
53,1778255303920,-0.25333142,0.26358184,0.652365,0.82344943,-1.8998991,1.0088054
54,1778255303930,-0.26162936999999997,0.322765705,0.6018451499999999,0.6717824025,-1.8884475250000001,1.1849735
55,1778255303940,-0.26992732,0.38194957,0.5513253,0.21678132000000003,-1.8540928,1.7134778
56,1778255303950,-0.24112856,0.4148973000000001,0.6621273,-0.10333065,-1.2128035999999998,1.9345202
57,1778255303960,-0.068214005,0.40977211,0.782081485,-0.39481363999999997,-0.34194990000000003,1.847967525
58,1778255303970,0.034961202499999997,0.376641335,0.9260142475,-0.6093312774999999,0.09534117499999997,1.749963225
59,1778255303980,0.05190284333333333,0.38316987166666666,0.9144418333333334,-0.82344943,1.3784522,1.1771172
60,1778255303990,-0.10732417250000001,0.445465485,0.9224753625,-0.786830965,1.05834023,0.93596796
61,1778255304000,-0.30922052,0.46029195000000006,0.91423845,-0.700944,0.53795856,0.59388494
62,1778255304010,-0.2345390066666667,0.44751962,0.9440134333333333,-0.6901138166666666,0.5232224,0.5842087833333334
63,1778255304020,-0.08517598,0.42197496,1.0035634,-0.6924218999999999,0.6130597,0.551807
64,1778255304030,3.333333331578814e-10,0.36844509666666664,0.9079742733333332,-0.7419566999999999,0.74461985,0.407729975
65,1778255304040,0.0508859365,0.38561046499999996,0.796480825,-0.8229168,0.8403604825,0.216781314
66,1778255304050,0.07443746,0.4087959,0.78488815,-0.9171927,0.73290193,0.076166406
67,1778255304060,0.11421879,0.4062333,0.8105141250000001,-0.9569625666666667,0.44599072333333334,-0.029294774
68,1778255304070,0.15400012,0.4036707,0.8361401,-0.9768475,0.30253512,-0.082025364
69,1778255304080,0.15400012,0.4036707,0.8361401,-0.9768475,0.30253512,-0.082025364
70,1778255304090,0.05361124233333334,0.4611054733333333,1.17733215,-0.010830183333333333,-1.8442389666666668,-1.1419634666666665
71,1778255304100,-0.09884319,0.41221267,1.2695858,0.531567,-2.7387948,-1.2074772
72,1778255304110,-0.205496195,0.416605695,1.28764605,1.0620687,-3.448261,-0.89855057
73,1778255304120,-0.31499655833333334,0.42465961999999996,1.3888891333333335,1.0620687,-3.448261,-0.8985505699999999
74,1778255304130,0.15155955,0.41807005,1.2503053,1.7452583333333334,-4.015514233333334,-0.23116239333333335
75,1778255304140,-0.0262605608,0.38273055,1.013813828,2.301504,-4.373443,0.27057716
76,1778255304150,-0.063943,0.47176263,0.86249834,2.3691483,-4.093279,0.41758367
77,1778255304160,0.013667206,0.5198419,0.63918597,2.2897859,-3.6948698000000006,0.32277513
78,1778255304170,0.029530926833333332,0.4718440116666667,0.5435968683333333,2.1395836166666666,-3.6617578500000003,0.21962202
79,1778255304180,0.029482117599999996,0.330502324,0.464831434,1.9060776999999998,-4.0633448,0.164796406
80,1778255304190,0.0420998745,0.095182323,0.4601089375,1.824265375,-5.22006235,0.29640982000000005
81,1778255304200,0.13032657,0.009518232,0.50568664,1.907356,-5.7769294,0.29880667
82,1778255304210,0.21159762,-0.13593988,0.6277153,2.0953753,-6.3282037,0.30466563
83,1778255304220,0.056539924666666665,-0.30450210666666666,0.6653000733333333,2.492008766666667,-6.855509633333334,0.5713368499999999
84,1778255304230,-0.05644695528571429,-0.3785327985714285,0.5742318371428572,2.9810665714285713,-7.314410314285714,0.8298410271428571
85,1778255304240,-0.05174013525,-0.3572387875,0.32111833,3.36130875,-7.7997335,0.7848335975
86,1778255304250,-0.102259986,-0.3577879,0.1598575,3.47436,-8.131697,0.63383234
87,1778255304260,-0.35607952166666673,-0.4931176833333333,-0.059427936666666674,3.3605543333333334,-8.82003475,0.7153250550000001
88,1778255304270,-0.53082452,-0.7553571833333333,-0.3241893633333333,3.0617476000000003,-9.470024,1.1171073
89,1778255304280,-0.6045298,-0.90520835,-0.4546786500000001,2.8330708,-9.751964,1.4860439
90,1778255304290,-0.0036608586,-1.364524,-0.5256993,2.229066,-8.145545,4.1518683
91,1778255304300,-0.0036608586,-1.364524,-0.5256993,2.229066,-8.145545,4.1518683
92,1778255304310,0.34115715877142855,-1.5003593857142856,-0.7323112285714286,1.929726637142857,-7.0867480857142855,4.680772028571428
93,1778255304320,0.97134787,-1.6844832,-1.1019185,0.35633094499999995,-3.5444012000000003,6.151636
94,1778255304330,1.063406256,-1.72485028,-1.10845924,-0.804594256,-2.408563028,6.447086999999999
95,1778255304340,1.4540117,-1.9065753,-1.0650658499999999,-3.3740475333333335,-0.97453946,6.550666199999999
96,1778255304350,1.4987555,-1.9470886999999997,-0.92595315,-4.134291,-0.9827065000000001,6.4033046
97,1778255304360,1.5578174999999999,-2.032997,-0.6108753,-4.9406967,-1.5883093,6.078399
98,1778255304370,1.5214529,-2.1442869,0.83443177,-4.948686,-3.0546458,5.801963
99,1778255304380,1.5754505250000002,-2.143737825,0.8668913775,-3.856523625,-2.409894575,6.125936525
100,1778255304390,1.7374434,-2.1420906,0.9642702,-3.4924695,-2.1949775,6.2339277
101,1778255304400,1.7249966,-1.9382212333333333,0.63601319,-2.8872218000000003,-1.2307355333333332,6.458343500000001
102,1778255304410,1.752330975,-1.7749673000000001,0.26968325000000004,-2.8597023,-0.5587312,6.539126
103,1778255304420,1.9251236999999999,-1.5009521,-0.08102701,-3.5193142199999996,-0.3235208,6.4781926400000005
104,1778255304430,2.3306247,-1.35476175,-0.04807928,-4.1032212333333336,-0.8628642000000001,5.955005866666666
105,1778255304440,2.5844848333333332,-1.0655538933333333,0.5614944166666667,-4.9412293,-2.0591562,4.939099
106,1778255304450,2.5086644,-0.99404514,0.8498074,-5.326322,-2.2248049,3.78595
107,1778255304460,2.5086644,-0.9940451400000001,0.8498073999999999,-5.326322,-2.2248049,3.7859500000000006
108,1778255304470,2.189071475,-0.8767146299999999,1.212049375,-5.05148385,-1.39017017,3.7204361
109,1778255304480,2.0825405,-0.83760446,1.3327967,-4.7766457,-0.55553544,3.6549222
110,1778255304490,2.0825405,-0.83760446,1.3327967,-4.7766457,-0.55553544,3.6549222
111,1778255304500,1.63658685,-0.6073364775,0.766034715,-4.7284424750000005,0.738894005,3.5433358
112,1778255304510,1.5993479166666666,-0.5653179283333333,0.5384716566666666,-5.639066183333334,2.33426065,2.84230315
113,1778255304520,1.7337828,-0.58036816,0.59037447,-6.09171465,1.77366525,2.1406489
114,1778255304530,1.8519063,-0.56645685,0.9025237,-6.1614895,1.5430355,1.8514296
115,1778255304540,1.8113233,-0.6562350642857143,1.2746064571428573,-6.011819785714286,1.7504577857142858,1.4412267285714286
116,1778255304550,1.7745403,-0.6677406,1.3115636,-5.865346,2.52734,1.4130733
117,1778255304560,1.8256093,-0.6153903525000001,1.3556770249999999,-5.86334875,3.125352725,1.533315025
118,1778255304570,2.0428406666666667,-0.5719481783333333,1.5161649666666668,-5.799299733333332,4.291773166666666,1.6561311333333333
119,1778255304580,2.2563702500000002,-0.4851858175,1.9908970499999998,-5.0773168,5.28850525,1.4988271000000002
120,1778255304590,2.2799828,-0.42087674249999996,2.138063575,-4.212455275,5.8174089250000005,1.2695289
121,1778255304600,2.2646072,-0.31654227,2.2248259,-3.5217642999999996,5.822202700000001,1.0322412
122,1778255304610,2.2256801499999996,-0.17376876,2.0707036,-2.1105552,5.3260559999999995,0.48336373
123,1778255304620,2.186997,-0.12495731000000002,1.9929714,-1.6745957,5.0711913,0.29454562
124,1778255304630,2.0548644000000005,-0.08854397,1.8396059999999999,-0.49098038000000005,4.26350772,-0.1523328136
125,1778255304640,1.9688707,-0.11196126,1.7591037250000001,0.3078614375,3.9497343,-0.31025826749999996
126,1778255304650,2.0276275,-0.10006347,1.7332945000000002,0.6737798,3.9585227999999995,-0.30945933
127,1778255304660,2.2553332,-0.20110317,1.7071804,1.1126688,3.9345543,-0.5384912
128,1778255304670,2.3436816,-0.23307467,1.3899058999999998,1.3425883333333335,3.7969576333333332,-0.8099560666666665
129,1778255304680,2.1291554,-0.23795582,1.4694687,1.9970664285714288,3.030220842857143,-1.5520902857142855
130,1778255304690,1.8279888,-0.18963248500000002,1.43420235,2.6762106,1.72626105,-2.0620857499999996
131,1778255304700,1.8309175,-0.17913802,1.3611072,2.8687572,1.6511599,-2.07407
132,1778255304710,1.9830872,-0.21159762000000001,1.0350468,3.123799216666667,1.93958025,-2.3360362333333335
133,1778255304720,2.0227466,-0.23405088,0.9269294,3.1638355,1.8748654,-2.2093585
134,1778255304730,2.0227466,-0.23405088,0.9269294,3.2567798166666666,2.0462842,-2.4867711
135,1778255304740,2.0398304,-0.2562601,0.7314396,3.8738341333333337,2.838397066666667,-3.9434313666666667
136,1778255304750,1.1031388,0.013667206,0.3922,3.9500005,2.8059065,-3.97823
137,1778255304760,0.9769612,0.00976229,0.29762781,3.9947417,2.6091877,-3.9221261333333337
138,1778255304770,0.68360436,-0.084931925,0.20085911,4.04694,0.9715212,-3.7007287
139,1778255304780,0.70727793,-0.1343535175,0.255039815,4.21658325,0.473510075,-3.771835125
140,1778255304790,1.57587772,-0.374774312,0.462097988,4.63656346,-0.81002708,-4.029788760000001
141,1778255304800,1.8270127000000003,-0.47713193,0.50031734,4.9625344,-1.4498249,-4.477839
142,1778255304810,2.1476427,-0.7148436725,0.37548203999999996,5.2533517,-1.1270498,-5.256015
143,1778255304820,1.9168256999999997,-0.93010217,0.08297946,5.5649413999999995,-0.058589544,-6.250439
144,1778255304830,1.6683753,-0.9174112,-0.21525851,5.1246322,-0.222640268,-6.238721333333333
145,1778255304840,1.4472594,-0.90520835,-0.4737151,4.79209224,-0.389460684,-6.2128355200000005
146,1778255304850,1.3420708,-0.8886124,-0.58939826,4.3425508,-0.7286408999999999,-6.1327276
147,1778255304860,1.3166889,-0.8300387,-0.55571836,3.7982004,-1.1190603,-6.0730724
148,1778255304870,1.04646866,-0.7002002199999999,-0.234734264,3.3758229999999996,-1.6793894000000003,-6.0315275
149,1778255304880,0.9789136,-0.6677406,-0.15448824,3.3758229999999996,-1.6793894000000003,-6.0315275
150,1778255304890,0.8119784600000001,-0.6474839,-0.2975058,3.5199888666666665,-1.7383340666666667,-5.8170541
151,1778255304900,0.64703642,-0.6722557066666667,-0.5501457033333333,3.4439999999999995,-1.5000698666666665,-4.9932494
152,1778255304910,0.40903994,-0.63406074,-0.8829991,2.2242723,-0.35100463,-4.035754
153,1778255304920,0.35754386,-0.62120706,-0.9095200166666667,1.7715348333333332,-0.02361336333333332,-3.6249173333333338
154,1778255304930,0.08496678614285715,-0.6383839828571428,-0.9943589971428571,0.8772453,0.32330775,-2.7830033
155,1778255304940,0.011714748,-0.71679612,-0.8712233875,0.720784575,0.27497138,-2.622414675
156,1778255304950,-0.016839951,-0.856641,-0.57377857,0.06125270000000002,-0.1508680725,-1.876330075
157,1778255304960,-0.016839951,-0.8566410000000001,-0.57377857,-0.49960902,-1.6671388,-0.5603291
158,1778255304970,0.36356393466666664,-0.9084624,-0.07728478466666668,0.025211260000000013,-2.2008364,-0.08167027333333333
159,1778255304980,0.53526635,-0.94084064,-0.057207016199999995,0.42461441000000005,-2.3420905000000003,0.234997342
160,1778255304990,0.4565090925,-1.052862925,-0.2698052775,0.9863017374999999,-1.64077355,0.6776413625
161,1778255305000,0.32215557,-1.0199152,-0.47225076,1.0274476,-1.0439591,1.077515
162,1778255305010,0.16303024,-0.976229,-0.7922097999999999,0.7456850999999999,-0.3680488800000001,1.6303873
163,1778255305020,-0.0389271331,-1.0702521,-1.101308325,0.20985709,0.11771172,2.198706
164,1778255305030,-0.1425294375,-1.2018600000000002,-1.262325175,-0.46179214,0.36485308,2.8075044
165,1778255305040,-0.08403704233333333,-1.3554939666666668,-1.2094664,-1.9338100999999999,-0.53387502,3.919107933333333
166,1778255305050,-0.015375607,-1.4013767,-1.0887394,-2.2285333,-1.0551444,4.1268344
167,1778255305060,0.0830282792,-1.4387173999999998,-0.92224354,-2.32121128,-1.58500692,4.264892779999999
168,1778255305070,0.39992849999999996,-1.5127075166666666,-0.5937099666666666,-2.2007475166666666,-2.5711046166666667,4.5535617833333335
169,1778255305080,0.80380255,-1.5353031000000001,-0.6009909250000001,-1.6791231,-2.4943166999999997,4.9524145
170,1778255305090,0.8921756760000001,-1.4993901,-0.67662428,-1.5629560599999999,-1.80711454,5.1223241999999995
171,1778255305100,0.90740484,-1.4648316,-0.758774,-1.6447684,-1.4130733,5.1351075
172,1778255305110,0.9270107666666667,-1.413498266666667,-1.1190838666666667,-2.1887633333333336,-0.8257574999999999,5.074387366666667
173,1778255305120,0.9371798,-1.39796,-1.2053988,-2.07897008,-0.765605568,5.1143349
174,1778255305130,0.8449261,-1.4079663,-1.2122324,-2.9582393,-0.57790595,4.8613343
175,1778255305140,0.72637538,-1.4442697999999998,-1.1847759249999998,-3.634016475,-1.3058810875,4.79928265
176,1778255305150,0.60843474,-1.4882611,-1.1351103,-4.03895,-1.8535602,4.9177933
177,1778255305160,0.60843474,-1.4882611,-1.1351103,-4.03895,-1.8535602,4.9177933
178,1778255305170,0.9237567133333333,-1.7180003666666668,-0.8375231666666667,-4.323553266666667,-2.3174828333333335,6.2847051333333335
179,1778255305180,1.37321256,-1.8713822399999998,-0.6268366700000001,-4.35916864,-2.31993288,6.9485069
180,1778255305190,2.9168909000000003,-2.0011068,-0.3391582066666667,-4.308639733333333,-1.9354079333333332,7.690499166666666
181,1778255305200,3.6698887,-1.952458,-0.25894472,-4.3303,-1.717739,7.5995965
182,1778255305210,4.455557740000001,-1.6691563200000001,-0.219114584,-4.518319,-1.2591426,6.7756147
183,1778255305220,5.308977,-0.93840015,0.03904916,-5.2494456666666665,-0.6288611199999999,5.217487966666667
184,1778255305230,4.8091483,-0.7072779,0.38536638,-5.7890464999999995,0.17297231499999996,4.25133745
185,1778255305240,4.147369514285715,-0.6784094142857143,0.9294745971428571,-6.303169571428571,1.759969057142857,3.692282614285714
186,1778255305250,3.8268178,-0.6562699,1.2349297,-6.255233,2.521481,3.7055223
187,1778255305260,3.616733,-0.5445892999999999,1.5367796999999999,-5.9991433999999995,2.8938973199999998,3.6812343
188,1778255305270,3.3252800000000002,-0.19134088,2.2519162,-3.53017994,1.86655634,2.54885834
189,1778255305280,3.132718725,-0.006467520000000004,2.218297375,-2.8149614,1.4242586,2.176868
190,1778255305290,2.84521936,0.166739906,1.9206330999999999,-1.5417572400000001,0.593991456,1.329130494
191,1778255305300,2.34539,0.41294485,1.3530535,-0.7078682,-0.10439592,0.46711847000000006
192,1778255305310,1.9856497333333334,0.50617475,1.1594347,-0.7062702999999999,-0.10581627,0.3380439233333334
193,1778255305320,1.47203135,0.6904786166666667,0.8683963833333334,-0.6757327233333333,-0.17061985333333332,0.11966470666666666
194,1778255305330,0.8138089,0.9088691925,0.73259883,-1.365669,0.48522797,0.18322548
195,1778255305340,0.7582859000000001,0.93010217,0.7372969399999999,-1.3656689999999998,0.48522797,0.18322548000000002
196,1778255305350,0.5945235,1.1277885,1.1631769,-1.6990968000000002,0.92518216,0.42237734999999993
197,1778255305360,0.6696930999999999,1.1890957800000002,1.3506128199999998,-1.6990968,0.92518216,0.42237735
198,1778255305370,0.7997755999999999,1.2568134666666666,1.5051824,-1.2974920666666667,1.0423612533333333,0.150024742
199,1778255305380,0.9573146083333334,1.3562260666666666,1.5755115333333334,-0.8293083666666666,1.0583402666666666,-0.2585041673333333
200,1778255305390,0.9776934,1.3708695,1.5788063,-0.007456854499999999,1.024784425,-1.1819108675
201,1778255305400,0.92949205,1.4658077999999999,1.4841121,0.3206446,1.0375676,-1.5531555
202,1778255305410,0.7968062166666666,1.5813282166666667,1.2867104833333334,0.62557655,1.2219471333333332,-1.8928861666666668
203,1778255305420,0.7824475333333334,1.5567598,1.2258995333333333,0.7822592,1.3456065666666666,-2.0788636
204,1778255305430,0.8507836,1.496071,1.2434716,0.9054748,1.4631407,-2.2343922
205,1778255305440,1.2890290333333334,1.1833521666666666,1.277233,1.6383767333333334,1.8734451333333333,-3.020379866666667
206,1778255305450,1.3884417,1.0792211,1.2295604,1.8524948,1.929194,-3.2714272
207,1778255305460,1.51086074,0.9435253400000001,1.12900888,2.0308201400000003,1.88509202,-3.51942076
208,1778255305470,2.2070096799999996,0.567969992,0.889246998,2.3189740800000003,1.68908332,-4.11000322
209,1778255305480,2.71684515,0.39268811000000003,0.80099586,2.3334617250000003,1.6275909,-4.415387825
210,1778255305490,3.0356327800000003,0.278030024,0.789964486,2.1886923000000005,1.9748938200000001,-4.649879360000001
211,1778255305500,3.2074003000000006,0.21257387,0.81734776,2.1411815,2.1523669,-4.7105994
212,1778255305510,4.088772333333334,-0.010087698666666667,1.0505038000000002,2.2203662,2.9482969333333333,-5.0250299
213,1778255305520,4.529417633333334,-0.15949140833333333,1.2821955333333335,2.47674,4.0107207,-5.465339
214,1778255305530,4.6760147,-0.634182735,1.03541288,2.47674,4.0107207,-5.465339
215,1778255305540,4.6678386,-0.8092938,0.91472656,2.47674,4.0107207,-5.465339
216,1778255305550,4.4618545,-0.9296140700000001,0.6879973999999999,3.2431977,4.0213733,-6.0613546
217,1778255305560,4.2422031250000005,-1.0063090925,0.4784132,3.6662409,3.7481330749999997,-6.5011759
218,1778255305570,3.95293425,-1.100088075,0.29683460325,3.9846218,3.1664987,-6.6158247
219,1778255305580,3.304779,-1.30473,-0.038316987,3.9846218000000007,3.1664987,-6.6158247
220,1778255305590,2.4753099666666665,-1.5168971333333332,-0.4626511766666667,4.179742666666667,2.6022634,-6.0583366
221,1778255305600,2.387368,-1.5522041,-0.5210622,4.222708,2.3792682,-5.894641
222,1778255305610,2.387368,-1.5522041,-0.5210622,4.2248386,2.1572670799999996,-5.81730276
223,1778255305620,2.3076426666666667,-1.5888940333333332,-0.5745920999999999,4.0888401666666665,1.0718336,-5.482560933333333
224,1778255305630,1.13071728,-2.03458315,-0.98220835,3.964914483333333,0.50875256,-5.280249416666666
225,1778255305640,0.73290396,-2.1259825,-1.0030752,3.6762277,-0.67005135,-4.6059373
226,1778255305650,0.117635585,-2.153561,-1.048958,3.6591835,-0.91452956,-4.3963466
227,1778255305660,0.117635585,-2.153561,-1.048958,3.64879715,-1.0327739166666667,-4.307663300000001
228,1778255305670,-0.277932387,-2.19261028,-1.2893056,3.07573812,-2.2115955400000002,-3.08532552
229,1778255305680,-0.37682438,-2.2023726,-1.3493924999999998,2.9454563,-2.3584955,-2.8905952
230,1778255305690,-0.63991809,-2.1560017,-1.44945595,2.4509960333333334,-2.172961933333333,-2.2929818333333336
231,1778255305700,-1.06866565,-1.99614425,-1.5385368499999998,0.07270431000000001,-0.8635299975,0.47457527499999996
232,1778255305710,-1.1305952000000001,-1.936716325,-1.448967875,-1.2085425,-0.015978966,2.0149477
233,1778255305720,-1.0684012999999999,-1.9237406000000001,-1.2595388166666666,-1.8516959499999999,0.38846643566666667,2.9160726833333332
234,1778255305730,-0.8495633,-1.9595356,-1.0994779,-2.380866,0.6061355,3.6868804
235,1778255305740,-0.741250688,-1.9447457399999997,-1.04915329,-2.380866,0.6061355,3.6868804000000006
236,1778255305750,-0.27718801249999997,-1.876800225,-0.8448041375,-2.6333337,-0.32969934,4.484763
237,1778255305760,-0.12471326,-1.8265244,-0.86518294,-2.6108301249999997,-0.576840715,4.5220477500000005
238,1778255305770,0.02726467871428571,-1.8079412285714285,-0.8714935199999999,-2.5671351000000002,-1.0529378214285714,4.614345085714286
239,1778255305780,0.0834065665,-1.7091938249999998,-0.921499155,-2.7300064500000003,-1.5880429999999999,4.804342849999999
240,1778255305790,0.08005078,-1.6788697,-0.91497064,-2.7883295999999995,-1.6740631,4.897021
241,1778255305800,0.4710304699999999,-1.6798460000000002,-1.0548154,-3.2245554999999997,-1.8381137999999997,5.2959623
242,1778255305810,0.6939767674999999,-1.645067825,-1.0458463,-3.4898064,-1.9781961,5.3407035
243,1778255305820,0.9819643,-1.5365844000000002,-0.9553620999999999,-3.68182025,-2.2961774999999998,5.3833139
244,1778255305830,1.362897,-1.4070713833333333,-0.8033144566666666,-3.8796043166666667,-2.7784759500000002,5.461344416666667
245,1778255305840,2.5054917999999997,-1.22907235,-0.41672774999999995,-3.93801645,-3.7515950499999997,5.626727
246,1778255305850,2.8117836,-1.2141849,-0.35290676,-3.9675775,-3.9031289,5.615009
247,1778255305860,2.8117836,-1.2141849,-0.35290676,-4.0187099,-3.81236842,5.4611846
248,1778255305870,3.589349866666667,-0.8949579666666666,0.00504385333333333,-4.1446775,-3.4019221,5.22352405
249,1778255305880,4.159467500000001,-0.47993858,0.38988143,-4.420492433333333,-2.8121207,4.939808733333334
250,1778255305890,4.383268028571429,-0.16920139714285715,0.7333920142857142,-4.772689314285714,-2.1249743000000003,4.678337285714286
251,1778255305900,4.4398894,-0.09542638,0.9169231,-4.808604,-1.7475662999999997,4.555071
252,1778255305910,4.382658,-0.061136339500000005,1.0493242,-4.790827375,-1.6449014375,4.522913325
253,1778255305920,3.9933624,0.025577198000000002,1.37536028,-4.30760992,-0.600489546,4.13098916
254,1778255305930,3.4293704,0.150949405,1.5579395,-2.90524245,-0.6498113325,3.45997905
255,1778255305940,3.19943805,0.255710985,1.59656155,-1.690907525,-1.488573975,2.8105006
256,1778255305950,3.1239328,0.31825066,1.5785623,-1.1073424,-1.9899141,2.4293356
257,1778255305960,3.022771,0.379386995,1.50156225,-0.3771923833333333,-2.587793683333333,1.9499666
258,1778255305970,2.39194405,0.6866855675,0.83022175625,0.499142965,-2.9846712749999997,1.3055482125
259,1778255305980,1.9375705,0.8893446299999999,0.2831064,0.6034723,-3.0242858,1.2271847
260,1778255305990,1.6104727375,1.04483962875,0.036486557125,-0.694152925,-1.51913364375,1.3404356125
261,1778255306000,1.445063,1.125348,-0.016595893,-1.220793,-0.94488955,1.3827133
262,1778255306010,1.1611894828571427,1.2874717285714286,0.47061210242857143,-2.0060451142857145,0.18109498,1.3168190285714285
263,1778255306020,0.98525906,1.4052817,0.93937635,-2.5289378,1.0620687,1.2175972
264,1778255306030,0.98525906,1.4052817,0.93937635,-2.5289378,1.0620687,1.2175972
265,1778255306040,1.1569010514285714,1.6412501285714285,1.4631929357142857,-1.4626841857142858,0.5726557157142856,0.33806928142857146
266,1778255306050,1.2394853555555558,1.7399926333333333,1.5854229888888889,-0.9550095999999999,0.30360037,-0.10865697
267,1778255306060,1.1374461542857144,1.8467811285714286,1.4279789857142855,-0.25482649142857144,0.07114444857142857,-0.8609619285714285
268,1778255306070,0.90838104,1.8919317,1.1900232,0.2711098,0.19760655999999996,-1.6708673
269,1778255306080,0.90838104,1.8919317,1.1900232,0.2711098,0.19760656,-1.6708673
270,1778255306090,0.6853824571428572,1.744277157142857,1.2115001857142857,0.41994247428571435,0.8833325114285715,-2.0812985
271,1778255306100,0.8117344,1.5568411,1.3696493,0.5642097271428571,1.2993183342857144,-2.2604151285714287
272,1778255306110,0.8117344,1.5568411,1.3696493,0.61199445,1.4199976,-2.3046997
273,1778255306120,1.057046857142857,1.4009233857142858,1.3545874142857142,1.0767541285714286,1.4946421857142858,-2.7244899142857144
274,1778255306130,1.2410312,1.2839851,1.343291,1.8375812666666667,1.4571042333333333,-3.5304638
275,1778255306140,2.009183842857143,0.8690181571428572,0.9915348857142857,2.126267942857143,1.1028530428571428,-4.1587924
276,1778255306150,2.1642997,0.7492558,0.9288819,2.13479,0.9960223,-4.3398876
277,1778255306160,2.1642997,0.7492558,0.9288819,2.13479,0.9960223,-4.3398876
278,1778255306170,2.9335682,0.59110665,0.97476465,1.9966607000000003,1.3653139666666665,-4.645795866666667
279,1778255306180,3.5753167,0.32117933,1.1589058,2.036253,3.6948698,-5.048821
280,1778255306190,3.8645244499999998,0.066505585,1.1352933,2.0895828,4.122107375000001,-5.15188525
281,1778255306200,3.9769127,-0.42661208,0.8217408,2.1784658,4.83417,-5.323659
282,1778255306210,3.9769127,-0.42661208,0.8217408,2.3588950125,4.7410927125,-5.3022871375000005
283,1778255306220,3.91541035,-0.6211866899999999,0.7670108999999999,2.6592996125,4.573979575,-5.2787181499999996
284,1778255306230,3.5290676625,-0.9287903399999999,0.53244138,2.9342709,4.4006076,-5.2959623
285,1778255306240,3.0712163,-1.1399914,0.27212384,3.047987925,4.306731125,-5.29210065
286,1778255306250,2.875665425,-1.2017683375000001,0.19524579625,3.389139,4.0251017,-5.2805157
287,1778255306260,2.6470448333333336,-1.2703992666666668,0.11714747466666665,3.389139,4.0251017,-5.2805157
288,1778255306270,2.2567432000000003,-1.3823401888888889,0.018629704555555557,3.566387111111111,3.674866477777778,-5.033019388888889
289,1778255306280,1.7852787125,-1.5512888875,-0.242623414875,3.9680436,2.93367175,-4.11698065
290,1778255306290,1.4604733571428572,-1.658124985714286,-0.5832271057142858,4.014829714285715,2.716424371428571,-3.5874301714285717
291,1778255306300,1.3547617,-1.6737447,-0.7165521,3.94787,2.5486453,-3.3720946
292,1778255306310,1.1947299857142857,-1.6662485571428571,-0.8533985285714286,3.9478699999999995,2.5486453,-3.3720946
293,1778255306320,1.095886837142857,-1.6627968714285715,-0.9319849714285714,3.5849192857142858,1.9619888714285716,-2.9707181714285715
294,1778255306330,0.2588227025,-1.6279533125,-1.3669952125,2.6168887,0.5914215187499999,-2.174004975
295,1778255306340,-0.0037523762499999946,-1.6107473,-1.4630012125,2.1207417625,-0.05293033125,-1.7961024
296,1778255306350,-0.14057697,-1.6017478,-1.4770344,1.8034927,-0.4181163,-1.5361114
297,1778255306360,-0.30196854,-1.533864957142857,-1.4414718,1.8034927,-0.4181163,-1.5361114
298,1778255306370,-0.44090685714285716,-1.4757792714285713,-1.4045145857142856,1.2831110571428572,-0.7955243,-1.0168710657142859
299,1778255306380,-0.476369245,-1.454886225,-1.3674527375,-0.14534200124999996,-0.7399593250000001,0.6214486262499999
300,1778255306390,-0.5185519371428572,-1.3830375428571429,-1.0770943142857143,-0.8925394485714285,-0.6165598285714287,1.602842557142857
301,1778255306400,-0.48103684,-1.381364,-1.0033194,-1.0386329,-0.545948,1.9084213
302,1778255306410,-0.30418685625,-1.4037562375000001,-0.8842499525,-1.078047675,-0.54421695,2.011885125
303,1778255306420,-0.08590815,-1.4238299,-0.7473032999999999,-1.1814543571428568,-0.7250646571428572,2.6041911714285715
304,1778255306430,-0.08590815,-1.4238299,-0.7473032999999999,-1.1755193,-0.799481,2.716957
305,1778255306440,-0.09628058375000001,-1.4143117125,-0.746205045,-1.097755,-1.0293117999999999,2.72121805
306,1778255306450,-0.15619663999999997,-1.389662,-0.74193406,-0.8644621,-1.7188042,2.7340011999999994
307,1778255306460,-0.15619663999999997,-1.389662,-0.74193406,-0.8644621,-1.7188042,2.7340011999999994
308,1778255306470,-0.30287506,-1.37465245,-0.9388882000000001,-0.32004538375,-3.3406692749999998,3.87050525
309,1778255306480,-0.33875147,-1.398448,-1.0950848,-0.43409526666666665,-3.4388511666666663,4.352137866666666
310,1778255306490,0.011226634888888889,-1.436276911111111,-1.3417996777777779,-0.7666945022222222,-3.4922328333333335,5.184227688888889
311,1778255306500,0.3624598914285714,-1.464413285714286,-1.4339758285714286,-1.0471549,-3.4131074,5.546299499999999
312,1778255306510,1.102302057142857,-1.5025558571428572,-1.4136144285714285,-1.4394004999999999,-3.2694488714285717,5.809039357142857
313,1778255306520,1.5911176666666664,-1.5323270222222223,-1.1698477,-2.758324733333333,-2.8838484666666666,6.8033114
314,1778255306530,2.366065185714286,-1.5839315571428574,-0.7740449857142858,-3.0387429714285714,-2.925292285714286,7.371097542857143
315,1778255306540,3.449016842857143,-1.458172357142857,-0.19779096714285713,-2.9394451428571426,-2.8604633571428573,7.430295714285714
316,1778255306550,3.7409093,-1.4011327,-0.037828874,-2.7915256,-2.7670245,7.448861599999999
317,1778255306560,5.430343614285715,-0.6436486771428572,0.4721810208571428,-2.0427968142857145,-1.5020989857142857,6.124737957142857
318,1778255306570,5.814768857142857,-0.12516649714285716,0.5087199057142857,-1.6804547,-0.7089335,5.1691957
319,1778255306580,5.3330168,0.5025748999999999,0.373712665,-1.966478175,-0.18868496375,3.9049932375
320,1778255306590,4.532073414285714,0.74887226,0.5281747342857143,-2.2399468285714286,0.16199627714285716,3.541243371428571
321,1778255306600,4.0718513,0.83687234,0.7397375,-2.481001,0.5342301,3.3257556
322,1778255306610,4.0718513,0.83687234,0.7397375,-2.3584955,0.85540736,3.095126
323,1778255306620,3.538586028571429,0.9244191328571428,1.2064447428571428,-2.048960042857143,0.9777605942857142,2.8166354
324,1778255306630,2.9792068,0.982452525,1.2878900999999998,-1.3803164,0.9074721625,2.255830575
325,1778255306640,2.4171778142857145,1.0469708142857141,1.0052717999999998,-0.9193231571428571,0.66792081,1.7482510999999998
326,1778255306650,1.9190221,1.1077759,0.7084982,-0.6317018,0.36964676,1.2692626
327,1778255306660,1.743789,1.1533535750000001,0.620027445,-0.6783071375,0.29241509125,1.091829475
328,1778255306670,1.2263876714285715,1.2900168857142857,0.39178162,-1.0354370714285714,0.20841138714285715,0.6450937142857143
329,1778255306680,0.79861635,1.41510495,0.38158352500000003,-1.2442954875,0.26771427375,0.5028047925
330,1778255306690,0.3196844685,1.5813994125,0.5583114625000001,-1.6174708500000001,0.6346313,0.3135872175
331,1778255306700,0.076389916,1.6825306,0.6667644,-1.6170713999999997,0.8223842,0.30519825
332,1778255306710,0.076389916,1.6825306,0.6667644,-1.6170714,0.8223842,0.30519825
333,1778255306720,0.185117415,1.8717360250000001,0.7923928625,-1.385110075,0.8928248000000001,0.115714345
334,1778255306730,0.28603508,1.937152042857143,0.8401147785714286,-0.6161794017142856,0.5971567914285715,-0.5703730214285715
335,1778255306740,0.41962592,2.0300071,0.913140225,0.098803283,0.019174760000000002,-1.375389575
336,1778255306750,0.4834774,2.021038,0.9618296,0.4575311,-0.17736652,-1.7736653
337,1778255306760,0.5307547785714285,1.967554614285714,0.9234777428571429,0.8221559142857143,-0.27704483714285716,-2.220695942857143
338,1778255306770,0.60770255,1.8602043,0.83858067,1.2522184,-0.2892193,-2.7851338
339,1778255306780,0.6441484083333333,1.67313445,0.6379656583333334,1.4674905166666667,-0.1478942156666667,-3.1794593333333334
340,1778255306790,0.8158833557142857,1.3991453142857142,0.4246944914285714,1.5388505857142858,0.077840394,-3.6545419714285714
341,1778255306800,0.95938903,1.2978964,0.40000984,1.5041534,0.111852765,-3.6842172
342,1778255306810,0.95938903,1.2978964,0.40000984,1.46047755,0.1653823025,-3.6916740000000003
343,1778255306820,1.22577749875,1.1893214374999999,0.436587915,1.3467606,0.37310887,-3.6924729
344,1778255306830,2.4638974,0.8907740842857143,0.6008340642857143,1.2602839857142858,0.6351258714285715,-3.7373281428571423
345,1778255306840,3.0982370571428572,0.7985204357142858,0.6781653357142857,1.1338218142857144,1.5215019285714286,-4.165336128571429
346,1778255306850,3.2030072,0.7575537,0.7219213,1.0966897,1.8407769,-4.3239083
347,1778255306860,3.2088647428571426,0.6278547,0.7353096142857142,1.0966897,1.8407769,-4.3239083
348,1778255306870,3.227047,0.38121742,0.7732954,1.1166634500000001,2.4367923499999997,-4.26052515
349,1778255306880,3.4003886375,0.0414287225,0.85270551875,1.45355335,3.143329,-4.1622544999999995
350,1778255306890,3.6592549285714284,-0.21867528,0.9270340114285714,1.9956968142857145,3.2066742571428573,-4.294461285714285
351,1778255306900,3.6574419,-0.3104408,0.92912596,2.1646173,3.1712923,-4.419782
352,1778255306910,3.0766468125,-0.6981257750000001,0.7435509312499999,2.1646173,3.1712923,-4.419782
353,1778255306920,2.915264,-0.7987994,0.6616392,3.3640291,2.3521800285714285,-4.901205571428571
354,1778255306930,2.8485448125,-0.8230830875,0.60831269,3.647066025,2.0915802625,-4.9126666375
355,1778255306940,2.3203567428571428,-1.0137789142857143,0.1611475057142857,4.2132731,1.2363916285714285,-4.783570128571428
356,1778255306950,1.9534342,-1.138039,-0.28213018,4.2163167,0.892159,-4.7090015
357,1778255306960,1.5264967777777778,-1.2737618666666668,-0.6327319611111111,3.7955963333333336,0.7005297399999999,-4.473045333333333
358,1778255306970,1.2042482571428572,-1.3484512,-0.7909895185714285,3.1170397142857142,0.6327671042857144,-4.031721714285714
359,1778255306980,1.0633575,-1.3750186,-0.83858067,2.935336,0.62317973,-3.9052596
360,1778255306990,0.5346248285714286,-1.4684575857142856,-0.8995601885714286,1.9059102714285712,0.5073702428571428,-2.7867318714285716
361,1778255307000,0.4307261742857143,-1.4927238571428572,-0.9216996799999999,1.6884441,0.46552056,-2.5225462999999997
362,1778255307010,0.26288016625,-1.5402453375,-1.02699295,1.0940266,0.237021345,-1.948635
363,1778255307020,0.131851929375,-1.566572925,-1.0624117375,0.7263106,0.06697850400000001,-1.6442356875
364,1778255307030,0.01467830142857143,-1.5688347857142857,-1.0640198714285716,0.22956448457142858,-0.24447819685714287,-1.2442289142857141
365,1778255307040,-0.171816305,-1.5240155,-1.00087875,-0.261788751,-0.7153251199999999,-0.7997473049999999
366,1778255307050,-0.29618090571428574,-1.4818459285714287,-0.9260926285714286,-0.6126031714285715,-1.105059742857143,-0.4490850657142857
367,1778255307060,-0.39525071,-1.46568585,-0.851393685,-0.8318827666666667,-1.4081020333333332,-0.08850571666666666
368,1778255307070,-0.47170840555555554,-1.469197511111111,-0.8434075988888889,-1.0443142666666665,-1.5272341333333332,0.4997865766666667
369,1778255307080,-0.49770242857142855,-1.4976049571428571,-0.9060450771428572,-1.2933833000000001,-1.3456572142857144,1.143561382857143
370,1778255307090,-0.44031413571428574,-1.5282864285714286,-0.9444666457142857,-2.0037624285714286,-0.6398434728571428,2.361386971428572
371,1778255307100,-0.3941524475,-1.53240495,-0.9246718775,-2.191249,-0.47244477,2.630138
372,1778255307110,-0.32313178666666664,-1.5334116666666666,-0.84069586,-2.4987554,-0.36911413333333326,3.1089743999999997
373,1778255307120,-0.2470164325,-1.5283169625,-0.7388833375,-2.6057699875,-0.5315669625,3.361908
374,1778255307130,-0.18052101333333334,-1.5013588333333334,-0.6145361333333333,-2.6077673,-0.7206514,3.472762
375,1778255307140,-0.14228537142857142,-1.4650756142857144,-0.5522666857142857,-2.2603389857142857,-1.5816894285714285,3.789602085714286
376,1778255307150,-0.12721484125,-1.474075225,-0.60144858125,-1.8530275,-2.5816684,4.1843586
377,1778255307160,-0.03528370542857143,-1.4794750142857143,-0.7947201357142858,-1.4041707285714284,-3.5267101714285713,5.2755699
378,1778255307170,0.17432661642857145,-1.4859251,-0.942897742857143,-1.3000792142857143,-3.7837432285714283,5.988003685714285
379,1778255307180,0.67030325,-1.478376775,-1.076048375,-1.360009875,-3.7637124125,6.343516924999999
380,1778255307190,1.2907838571428571,-1.4513735857142858,-1.1929169857142856,-1.7874377,-3.6024199857142856,7.184371757142857
381,1778255307200,1.4301754,-1.4448189,-1.2024701,-1.9336072142857144,-3.5531895857142857,7.4064033714285715
382,1778255307210,3.1540738,-1.12669028,-0.791477685,-2.428869575,-3.2661674625,7.8243675125
383,1778255307220,4.583813442857143,-0.6591986314285715,-0.3351951871428572,-2.7523389857142857,-2.6692483428571427,7.637413328571428
384,1778255307230,5.0510087,-0.37706846,-0.15863721,-2.7831809777777776,-2.164854011111111,7.261730066666668
385,1778255307240,5.492142449999999,0.2619954625,0.08151512500000001,-2.9995184,-1.0439592,6.07413795
386,1778255307250,5.284327642857143,0.49766759571428576,0.17606987142857142,-3.1419976,-0.7052051,5.6421733000000005
387,1778255307260,4.8296491,0.69678344,0.4939718666666667,-3.4020995555555555,0.15884277000000002,4.711546455555555
388,1778255307270,4.381315771428571,0.8172082785714286,1.1263242142857144,-3.3630400000000003,0.4213121,4.3052664
389,1778255307280,4.290909914285714,0.8656361857142858,1.3603402285714286,-3.1711401857142856,0.3805276885714286,4.132237014285714
390,1778255307290,4.033208466666667,0.9538570666666667,1.5273916666666667,-1.6433479222222223,0.05486112,2.788684833333333
391,1778255307300,3.7339944333333333,1.0233727333333333,1.4903356333333333,-1.1728562,-0.04633900500000001,2.406965
392,1778255307310,2.830423475,1.168027425,1.03538236,-0.6403571,-0.15739282124999998,1.934786525
393,1778255307320,1.8105082625,1.3023198875,0.46096310125000006,-0.002130529,-0.4314321,1.0130665
394,1778255307330,1.3906381857142858,1.3473702857142857,0.25950256514285713,-0.002130529,-0.4314321,1.0130665
395,1778255307340,0.929461525,1.3656223125,0.10140578875,-0.974250925,0.13488911125,1.0813766
396,1778255307350,0.67642212,1.4085938285714286,0.3530811057142857,-1.6949879142857145,0.7351846428571428,1.2822740428571429
397,1778255307360,0.47865729874999996,1.4951251625,0.9289429250000001,-2.02360295,1.4013554,1.329716375
398,1778255307370,0.48918224374999997,1.4963149625,1.1914265375,-1.8110827,1.4150041125000001,1.19029985
399,1778255307380,0.5608087,1.510086757142857,1.5803055285714287,-0.9779888428571428,1.1837370857142857,0.7058898428571428
400,1778255307390,0.6531669657142858,1.5546795285714285,1.6186224857142857,-0.38212556857142854,0.9228994642857142,0.3480371072857143
401,1778255307400,0.7492558,1.6100457,1.5783182,0.12463594,0.67697555,0.033023197
402,1778255307410,0.7428754257142858,1.6364038714285714,1.4768601285714287,1.6223217485714285,-0.23542344142857147,-1.408736129
403,1778255307420,0.52491294,1.678435922222222,1.072957068888889,2.140589888888889,-0.5253528977777778,-2.070223122222222
404,1778255307430,0.3080002585714286,1.6329173142857143,0.8198231228571428,2.2951124,-0.55766594,-2.4277377
405,1778255307440,0.13478933,1.5030788285714287,0.6157215857142857,2.2082933,-0.32361212857142857,-2.6336380714285714
406,1778255307450,0.07516963,1.3552499,0.5405868,1.9920446,0.05539375,-2.7377295
407,1778255307460,0.3244218185714286,1.2352085428571429,0.5800543714285714,1.9231827857142856,0.25041323571428575,-2.667954785714286
408,1778255307470,0.6765267,1.1336459,0.5959878,1.8828549,0.42717105,-2.6807380000000003
409,1778255307480,0.9812728333333334,1.0597779666666667,0.595337,1.8194717,0.53955644,-2.9097698
410,1778255307490,1.5544703857142856,0.9015126485714287,0.6035884457142856,1.717815042857143,0.58992824,-3.3407454571428574
411,1778255307500,2.131108,0.71874857,0.60867876,1.5334482,0.51771855,-3.987285
412,1778255307510,2.2598785125000003,0.59723862375,0.605689095,1.48817445,0.637827095,-4.075435499999999
413,1778255307520,2.4698593,0.4951573028571429,0.6685425357142857,1.444422557142857,1.2365437542857143,-4.200109571428571
414,1778255307530,2.4812995,0.40104706625,0.8344012625,1.62845645,2.188119725,-3.762913625
415,1778255307540,2.9440625,0.09054524,0.699224,1.8578212,2.7537086,-3.444
416,1778255307550,2.9906774428571423,0.07583207442857143,0.6923903942857143,1.8578212,2.7537086,-3.444
417,1778255307560,3.3884908,-0.05900762155555555,0.6194986355555555,2.1254392666666666,2.712340844444445,-3.4720519333333333
418,1778255307570,3.7321234,-0.21379416,0.5025139,2.3926600714285717,2.5467430571428573,-3.6166489142857148
419,1778255307580,3.5030583285714285,-0.3473283314285714,0.29523953571428574,2.3531692,2.5662222,-3.572897
420,1778255307590,3.161029525,-0.53936651,-0.030202084999999997,2.66342745,2.4980452,-4.0426785
421,1778255307600,2.8110514,-0.7121590400000001,-0.17572121,2.9300098,2.3755398,-4.561995
422,1778255307610,2.683924688888889,-0.74795412,-0.2271359477777778,2.9300098,2.3755398,-4.561995
423,1778255307620,2.4952819666666666,-0.8039246083333333,-0.30987136333333337,2.8110553666666664,2.4378578166666665,-4.1014457166666665
424,1778255307630,2.080169757142857,-0.9966948942857143,-0.6381399714285714,2.6345512142857146,2.409552185714286,-3.8192774857142857
425,1778255307640,1.7625814499999999,-1.1319374500000001,-0.8430958,2.19930505,2.1903834,-3.669303525
426,1778255307650,1.6320108,-1.1809929999999997,-0.8942258,1.9648802999999997,2.0463731,-3.568636
427,1778255307660,1.5478459142857144,-1.2025398,-0.90810218,1.7101299,1.8488425999999998,-3.3439412285714285
428,1778255307670,0.85224795,-1.303814825,-0.92442786,1.2511531,1.4732608,-2.7755466
429,1778255307680,0.6872652485714286,-1.3233481142857142,-0.9342162928571429,1.2511531,1.4732608,-2.7755466000000006
430,1778255307690,0.44808912,-1.3552499,-0.9652464,0.9072058249999999,1.0197910000000001,-2.22979825
431,1778255307700,0.01580270625,-1.342680975,-1.022355825,0.7387608875,0.804407835,-1.9743345
432,1778255307710,-0.13771802142857142,-1.3690914857142857,-0.9782163257142857,0.19791092142857142,0.14000619142857146,-1.199411657142857
433,1778255307720,-0.30116665,-1.3794116,-0.92912596,-0.2593919,-0.39148468,-0.5933523
434,1778255307730,-0.30566427142857144,-1.4015858857142856,-0.8409515328571429,-0.4371388785714286,-0.5389477057142857,-0.24364119742857146
435,1778255307740,-0.312393275,-1.440974925,-0.7075219150000001,-0.63982445,-0.7929562,0.340884625
436,1778255307750,-0.3145898,-1.4704449,-0.65993077,-0.62264705,-0.9139969,0.5454154
437,1778255307760,-0.3921999842857143,-1.4985812571428572,-0.66296407,-0.4529656357142858,-1.3212323,0.9153665428571429
438,1778255307770,-0.46663743,-1.5124228,-0.7089863,-0.2514024,-1.8077538,1.3598101
439,1778255307780,-0.53546165,-1.4998233,-0.8570985225000001,-0.25300032,-1.929194,1.7358484
440,1778255307790,-0.5956042628571429,-1.5055892,-0.9844920285714286,-0.44063904571428575,-1.9215849428571428,2.2223699428571426
441,1778255307800,-0.7216772833333333,-1.5203953333333333,-1.0762924333333332,-0.8802635555555556,-1.9110844333333334,3.155668333333333
442,1778255307810,-0.7626789071428571,-1.5847334857142858,-1.1289390714285714,-1.3547881714285717,-2.0818311428571428,4.243481071428571
443,1778255307820,-0.69971216,-1.6107779,-1.1336459,-1.4716629,-2.1699438,4.54069
444,1778255307830,-0.3635537775,-1.657423275,-1.041636325,-1.770469475,-2.64478525,5.496764499999999
445,1778255307840,0.08538953625,-1.712732725,-0.9825439875,-1.8877151749999999,-2.85351055,6.0532321375
446,1778255307850,0.44498609428571434,-1.7513547857142857,-0.9651418514285715,-2.0078712857142857,-2.9154766285714286,6.606998328571429
447,1778255307860,1.15402466875,-1.7848516625,-0.940078055,-2.167014125,-2.8885977625,7.097191325
448,1778255307870,1.4365209,-1.7613611,-0.91399443,-2.25623,-2.8666267,7.2709627
449,1778255307880,1.9231712,-1.6483628,-0.81930023,-2.3947146,-2.8666267,7.541007
450,1778255307890,3.2016040500000003,-1.2933814,-0.399338686975,-2.550775825,-3.0627684,7.990815124999999
451,1778255307900,4.154587,-0.9752528000000001,-0.0019524579,-2.5667548,-2.8458540000000005,7.922904499999999
452,1778255307910,5.120107625,-0.58149692,0.3660553652625,-2.303368,-1.9450397750000001,7.44220375
453,1778255307920,5.5530039375,-0.11537805625,0.5745107625000001,-1.996238975,-0.5578657250000001,6.4735454375
454,1778255307930,5.403427428571428,0.2901840742857143,0.6593032285714286,-1.9667065142857143,0.9168122857142856,5.411162857142857
455,1778255307940,4.867020175,0.74107983625,0.726619435,-2.1261348,1.9351861,4.6918243
456,1778255307950,4.7112813000000004,0.82344913,0.77024466,-2.271144,2.360626,4.3718452
457,1778255307960,4.550529099999999,0.8888564899999999,0.8621729533333333,-2.310026066666667,2.488280233333333,4.203711
458,1778255307970,4.115022377777778,0.9933671966666667,0.9599314111111111,-2.4137117333333333,2.824548833333333,3.4789760666666667
459,1778255307980,3.2842784,1.07714665,0.9956315,-2.2668828,2.8011129,2.12014265
460,1778255307990,2.7907946000000003,1.1168059,1.0206474,-2.0991037,2.7553065,1.572863
461,1778255308000,2.324157,1.1028948,0.92595315,-1.9302592000000003,2.7153592,1.1052119
462,1778255308010,2.113082357142857,1.094317842857143,0.8908089,-1.8791264571428574,2.595745142857143,0.9064639571428571
463,1778255308020,1.4262705,1.0509106,0.83223516,-1.7209347125,2.0539630375,0.49707901875000005
464,1778255308030,1.0788027828571427,1.1480801714285713,0.9386092628571429,-1.4111710571428573,1.6784763571428571,0.25459820714285714
465,1778255308040,0.8431829571428572,1.2863559428571432,1.0494809999999999,-0.8165252,1.417867,0.03888215
466,1778255308050,0.7725496611111111,1.3306000666666666,0.9362849333333334,-0.6557886311111111,1.269321788888889,-0.10125930555555557
467,1778255308060,0.7203872657142857,1.4998363857142856,0.7349958171428571,0.035534177142857136,0.5299690642857142,-0.837373942857143
468,1778255308070,0.69507504,1.5678238,0.67799103,0.12981008142857142,0.26487039142857144,-1.0845913857142857
469,1778255308080,0.527285675,1.6932691750000002,0.3127898575,0.0695085075,-0.23435817999999997,-1.7896442499999998
470,1778255308090,0.35193056,1.7642899,0.25650415,-0.04040395928571429,-0.07479678571428572,-2.1754221714285715
471,1778255308100,0.27846932,1.6295702,0.117147475,-0.19867182,0.0644485,-2.3222766
472,1778255308110,0.25915393142857146,1.6202611714285715,0.11108090999999999,-0.27384905285714284,-0.05843735285714285,-2.4745333
473,1778255308120,0.2098892342857143,1.5156652714285717,0.2007196542857143,-0.30679615999999993,-0.2615224,-2.6455843
474,1778255308130,0.47412186777777776,1.3420979777777777,0.36459442444444445,-0.2680915533333333,-0.30579006666666664,-2.699320944444444
475,1778255308140,0.6259022285714285,1.245598542857143,0.33714766,-0.022370554999999997,-0.5342301,-3.187804
476,1778255308150,1.0323621,0.98892,0.19646609,-0.013848438,-0.34887412,-3.5196338
477,1778255308160,1.2104629249999999,0.7512387275,0.042069369375,-0.1632517845,0.15725966,-3.7645114250000002
478,1778255308170,1.2657506428571428,0.6369545685714285,0.004671953285714286,-0.2590114542857143,0.5639814457142858,-3.7962221
479,1778255308180,1.3784354,0.49177536,0.032215554,-0.27841448142857145,1.0223495342857143,-3.5962567571428568
480,1778255308190,1.640217225,0.42465960875,0.07611535575,-0.09460879887500001,1.2916331625,-3.346062275
481,1778255308200,1.8831457,0.39293218,0.119343996,0.14416579416666667,1.4713078166666669,-3.2435528
482,1778255308210,2.7105303125,0.25802952749999997,0.024924348499999995,0.7185208750000001,2.09404365,-3.30924405
483,1778255308220,2.8317962,0.22599701999999997,-0.03172744,0.8250472999999999,2.3457124,-3.3811492999999997
484,1778255308230,2.8972732857142853,0.19148034857142857,-0.08290972857142857,0.8294605571428572,2.4472168571428576,-3.4298471
485,1778255308240,3.08445655,0.057109392499999995,-0.24674187,0.8325707875,2.7367309250000003,-3.5840156125
486,1778255308250,3.1471532285714288,-0.11474177142857143,-0.34370234,0.7771104,2.9870014,-3.8109837
487,1778255308260,3.085929657142857,-0.30224745714285717,-0.26877675571428566,1.1256801428571428,2.2197829714285713,-4.022286457142857
488,1778255308270,2.9984872,-0.43320164,-0.20329969,1.335309,1.8343853999999997,-4.1151166
489,1778255308280,2.8830831285714282,-0.5299528614285715,-0.18883058285714285,1.6685845714285714,1.3061664000000002,-4.216468942857143
490,1778255308290,2.4666257,-0.75230647875,-0.289177325,2.334527,0.38402783625000003,-4.3204465
491,1778255308300,2.0969049714285712,-0.9279753857142856,-0.5717215214285715,2.6644546285714283,-0.1670182557142857,-4.317745285714286
492,1778255308310,1.8072439142857142,-1.0297821714285715,-0.8152209428571429,2.7565239142857143,-0.5406217242857142,-4.217001571428572
493,1778255308320,1.615903,-1.0894716,-0.9669548,2.5651567,-0.56459016,-4.070908
494,1778255308330,1.2920390000000002,-1.1714748,-1.1302291,2.1406488,-0.43995422,-3.8242993
495,1778255308340,1.04562256,-1.2094663333333333,-1.1706205833333334,1.9654128333333334,-0.3662734266666667,-3.707475333333333
496,1778255308350,0.049665657,-1.3514669499999998,-1.26165395,0.37004624750000004,0.025166872524999998,-2.2151508250000003
497,1778255308360,-0.2036832054285714,-1.398622357142857,-1.1967520999999999,-0.11322239428571426,-0.08879739948571429,-1.595233542857143
498,1778255308370,-0.2945771,-1.4157761,-1.1565872,-0.3536678,-0.21145499,-1.267132
499,1778255308380,-0.39342028,-1.4355447,-1.0413923,-0.6882940025,-0.6504770925,-0.58183410625
500,1778255308390,-0.42941873,-1.5077450333333333,-0.7873693833333334,-0.83729786,-1.4189321999999998,0.1571265
501,1778255308400,-0.44753999,-1.53267955,-0.685800885,-0.710664545,-1.800629775,0.44155211250000004
502,1778255308410,-0.47507489142857146,-1.5747619571428568,-0.5208879000000001,-0.44528053714285715,-2.5326662285714283,0.9915329142857142
503,1778255308420,-0.46200037,-1.6012596,-0.4893348,-0.30945933,-2.7723508000000003,1.1813782
504,1778255308430,-0.46797975999999997,-1.61468275,-0.49238550999999997,-0.267115065,-2.832271875,1.250753575
505,1778255308440,-0.47395915,-1.6281059000000002,-0.49543622,-0.14008227,-3.0120351,1.4588797
506,1778255308450,-0.5907231214285715,-1.671094857142857,-0.6682984814285715,-0.08407980414285714,-3.0654506714285716,2.497132071428571
507,1778255308460,-0.6065171114285715,-1.704147242857143,-0.7902922085714286,-0.13498422714285715,-2.997806371428571,2.905204414285714
508,1778255308470,-0.57524294,-1.7293897,-0.8690878,-0.68816084,-2.4991105,4.397412
509,1778255308480,-0.57524294,-1.7293897,-0.8690878,-0.68816084,-2.4991105,4.397412
510,1778255308490,-0.57524294,-1.7293897,-0.8690878,-1.045690235,-2.354101375,5.33218125
511,1778255308500,-0.08456583499999999,-1.8595128166666666,-1.0893902333333334,-1.2838212333333334,-2.279666,5.833565666666668
512,1778255308510,-0.038561042,-1.8682582,-1.1065556,-1.8949279666666665,-2.2601361333333334,6.610853666666667
513,1778255308520,-0.038561042,-1.8682582,-1.1065556,-2.0815268,-2.2764702,6.809703
514,1778255308530,0.48547051666666663,-1.8837965499999998,-1.1364525499999998,-2.7968519,-2.7073696,7.5388765
515,1778255308540,1.38255375,-1.7756690375,-0.993557045,-3.043860075,-2.9421273,7.562845125
516,1778255308550,2.4266263571428572,-1.7822107142857142,-0.8763049628571429,-2.9959801285714285,-2.9232378857142858,7.647761957142857
517,1778255308560,3.784961675,-1.194233175,-0.4314626875,-3.028546775,-2.308694415,7.1236899
518,1778255308570,4.608777,-0.39708114,0.03807293,-3.169960625,-0.9307082625,5.534781375
519,1778255308580,4.264127483333334,-0.12804870153333334,0.13549244833333332,-3.3486588000000004,0.8111101,5.060805
520,1778255308590,4.0005865,0.0043930304,0.1871919,-3.5957336875,1.4651380875000002,5.0381680375
521,1778255308600,3.8724566,0.076389916,0.3145898,-3.8338869,1.7587516,5.0940948
522,1778255308610,4.005083985714285,0.25964203942857145,0.7831797285714285,-3.5475589857142857,1.7579145999999999,4.515351771428572
523,1778255308620,4.1035786,0.4529702400000001,1.0750722,-3.1622376,1.7028252,3.7960699
524,1778255308630,3.9051600333333334,0.59049649,1.082882,-2.810256466666667,1.4751249166666665,3.1032929166666663
525,1778255308640,3.5437112,0.7499879,1.0496902,-2.2539472999999997,1.0533183142857143,2.054819042857143
526,1778255308650,2.376819255555555,0.9725410666666667,0.6569207688888888,-1.8904893222222223,0.7167454333333333,1.241328988888889
527,1778255308660,1.850825585714286,1.0693542428571428,0.45328404285714285,-2.029024485714286,0.8696362214285714,1.053622617142857
528,1778255308670,1.5741693,1.1172941,0.36559775,-2.2200112,1.0530139,0.95927066
529,1778255308680,1.3795336125,1.1491740375,0.34714090625,-2.2200112,1.0530139,0.95927066
530,1778255308690,0.95971445,1.24497675,0.59761485,-2.6375947666666666,1.3566143000000002,0.829752235
531,1778255308700,0.8908394625,1.274131425,0.71234209,-3.1574438,1.7539579,0.61678815
532,1778255308710,0.8330371142857143,1.3884416428571427,1.1842005857142859,-2.404225842857143,1.6067992428571427,-0.014381070000000011
533,1778255308720,0.8332114,1.4323719999999998,1.2715383,-2.1976407,1.5291871,-0.16458336
534,1778255308730,0.823205075,1.46800435,1.2981405000000001,-2.1976407,1.5291871,-0.16458336
535,1778255308740,0.6438578671428571,1.589928342857143,1.2781626571428573,-1.055296657142857,1.066025357142857,-1.1459201371428571
536,1778255308750,0.4341778499999999,1.6195638,1.2075952,-0.6121466297142856,0.9111054714285715,-1.5367961142857143
537,1778255308760,0.33378896333333335,1.5506312222222223,1.192789088888889,0.03373337466666666,0.80782554,-2.0817044333333334
538,1778255308770,0.26675457,1.4902135,1.1963686,0.21518342,0.8213189,-2.1981733
539,1778255308780,0.3061523771428572,1.4133355,1.2810913142857143,0.44520445714285717,0.8723755085714285,-2.297851571428571
540,1778255308790,0.579819025,1.1801389,1.370076375,1.4966966,1.1110709,-2.7563717
541,1778255308800,0.7787257000000001,1.04005005,1.3318204,1.4966966,1.1110709,-2.7563717
542,1778255308810,1.2223606999999999,0.75035405,1.12730035,1.9718711,0.9560082562500001,-3.3908033375
543,1778255308820,1.3271832,0.6784792,1.0926442,1.9941751,0.9337042999999999,-3.5462654
544,1778255308830,1.434986857142857,0.5903396285714285,1.072701285714286,1.9512600714285715,0.9929786600000001,-3.682390971428571
545,1778255308840,1.7198714000000002,0.37560409499999997,1.1003321000000001,1.8903117,1.1403656,-3.7694383
546,1778255308850,2.0857131714285715,0.17362929928571427,1.2645651714285715,1.9905227142857143,1.466108257142857,-3.7087181714285715
547,1778255308860,2.3310953285714286,0.09113795042857142,1.4270724000000001,2.202206057142857,2.0678304857142855,-3.6312582
548,1778255308870,2.5089085,0.022941383,1.4289552,2.3973777,2.4863272,-3.6400087000000005
549,1778255308880,2.5089085,0.022941383,1.4289552,2.3973777,2.4863272000000003,-3.6400087
550,1778255308890,2.6264045714285715,-0.14667841199999998,1.3175604857142857,2.848593185714286,3.1268555428571427,-3.5502221
551,1778255308900,2.7515014,-0.57841567,0.94913865,3.0610373,3.3481262,-3.4679685
552,1778255308910,2.7402399571428573,-0.70222242,0.8271797514285714,3.261230942857143,3.2559047,-3.4360105714285716
553,1778255308920,2.6516821,-0.80123997,0.72729063,3.6179930999999996,3.0713349333333335,-3.3944652333333334
554,1778255308930,2.6516821,-0.80123997,0.72729063,3.7976677,2.9481194,-3.3965957
555,1778255308940,2.6255330428571426,-0.8555601357142857,0.6703206985714286,4.0023506285714285,2.7473930857142856,-3.3938564571428573
556,1778255308950,2.4703745888888893,-1.065201411111111,0.39103396222222225,4.653075,2.069276,-3.381682
557,1778255308960,2.3969676,-1.1059047333333334,0.28343182333333333,4.653075,2.069276,-3.381682
558,1778255308970,2.3014598,-1.1451166,0.14643435,4.7471226,2.0129692285714285,-3.3460717142857144
559,1778255308980,2.3014598,-1.1451166,0.14643435,4.9822416,1.8722023,-3.257046
560,1778255308990,1.8985212999999999,-1.2263877,-0.33948365,4.878112066666667,1.91925145,-3.1443942833333334
561,1778255309000,1.8985213,-1.2263877,-0.33948365,4.5332327,2.0660803,-2.8266792
562,1778255309010,1.2549772142857143,-1.2492941857142856,-0.6080512071428572,3.7091746999999997,1.5982770714285712,-2.2074562285714285
563,1778255309020,0.29140437,-1.2669011,-0.9000831,2.5667548000000004,0.7547399,-1.2905679000000003
564,1778255309030,0.17245694875,-1.2686096249999999,-0.9026457125,2.5667548,0.7547399,-1.2905679
565,1778255309040,0.11195254142857143,-1.2556397428571429,-0.9087645857142858,2.5411884285714286,0.7107596899999999,-1.2541967285714288
566,1778255309050,-0.14911897,-1.176356,-0.9432813,2.0538298714285714,-0.12395113,-0.39688709
567,1778255309060,-0.29376358999999996,-1.1447912,-1.0892275666666666,1.6160061,-0.22530343,0.17789917
568,1778255309070,-0.3660859,-1.1290088,-1.1622007,1.6160061,-0.22530343,0.17789917
569,1778255309080,-0.4033220514285714,-1.1274747285714286,-1.1749962571428572,1.0059901000000002,-0.28868666285714284,0.6956177071428572
570,1778255309090,-0.465478185,-1.127300425,-1.165617425,0.257794,-0.47137952,1.3134711
571,1778255309100,-0.4047863485714286,-1.1151673285714285,-1.0844857942857142,-0.05006743,-0.6199839,1.5696672
572,1778255309110,-0.29872608000000006,-1.0643337,-0.94035256,-0.3586897471428571,-0.9660427285714286,1.8376572857142857
573,1778255309120,-0.29872608,-1.0643337,-0.94035256,-0.4101268,-1.0237192,1.8823223
574,1778255309130,-0.20723947428571426,-1.0598709285714285,-0.91674874,-0.4759449571428572,-1.3777674142857141,2.2693936285714287
575,1778255309140,-0.100887172,-1.04361935,-0.95322658125,-0.505468,-1.6740631,2.7393274
576,1778255309150,-0.01607727125,-1.018878025,-1.0157052687500001,-0.55040882,-1.9015636375,2.999917825
577,1778255309160,0.07750560285714285,-0.9749389571428572,-1.0891229,-0.61891866,-2.1182783,3.1835427
578,1778255309170,0.1300825,-0.9452337,-1.1329137,-0.744753015,-2.34957395,3.3329460749999997
579,1778255309180,0.35119838,-0.9283937,-1.1565872,-1.1380067857142857,-2.8281248714285714,3.6023439571428573
580,1778255309190,0.9193637,-0.84517026,-1.0919122,-1.7411747,-3.1968586,3.862649
581,1778255309200,1.1581432249999999,-0.79950102375,-0.9819033625000001,-1.7411747,-3.1968586,3.862649
582,1778255309210,1.7586068285714285,-0.704349202857143,-0.6589196828571428,-2.3948667142857145,-3.2635898142857145,4.664716971428571
583,1778255309220,2.0286038,-0.6789673,-0.47273886000000004,-2.770753,-3.2517197,5.215002
584,1778255309230,2.962231277777778,-0.5135506777777777,0.19939476811111112,-2.766728644444444,-2.8975783777777777,5.689991811111111
585,1778255309240,4.326809600000001,-0.17352470506666665,0.9279869933333332,-2.1784658,-1.3715280000000003,6.0768013
586,1778255309250,4.6531954,-0.0021965152,1.0526189,-2.1784658,-1.371528,6.0768013
587,1778255309260,4.7488310857142855,0.4040890714285714,0.9057661900000001,-0.8880501072857143,-0.5412304385714286,4.1100185428571425
588,1778255309270,4.2465963,0.8066092,0.76194674,0.007989483,-0.44900897,2.431466
589,1778255309280,4.018863700000001,0.8354622,0.7259889666666667,0.05900381344444445,-0.5679635033333335,2.2062217777777775
590,1778255309290,3.2217996,0.9364476999999999,0.60013676,0.040784409714285715,-0.5254797414285715,2.286666142857143
591,1778255309300,2.9909912000000003,1.0014366428571428,0.5483966228571429,0.23040148142857145,-0.7507070928571429,1.410410142857143
592,1778255309310,2.2688375,1.2298044666666668,0.317355765,0.12854191133333334,0.02645405666666667,1.4079245
593,1778255309320,1.9785721,1.3615954,0.113974735,-0.039414786,0.41278997,1.4402375
594,1778255309330,1.937500757142857,1.3722641857142857,0.13032657142857143,-0.46932510428571433,0.7918719214285714,1.2606643571428573
595,1778255309340,1.6910727,1.4362769,0.22843759,-1.5441009,1.7395768,0.8117315
596,1778255309350,1.5765052428571429,1.4485495,0.37159459285714286,-1.5994185571428574,1.7683389571428572,0.7026940760000001
597,1778255309360,1.1960635575,1.4788039,0.8598747,-1.762480075,1.87406655,-0.116246976
598,1778255309370,0.91399443,1.4775226,1.2510375,-1.2559468,1.6735305,-0.6103965
599,1778255309380,0.9139944300000001,1.4775225999999997,1.2510375,-1.2559468,1.6735305,-0.6103965
600,1778255309390,0.8416178944444445,1.4679772333333334,1.3805776555555556,0.17766244666666667,1.3286215222222222,-1.0941449222222221
601,1778255309400,0.48462795428571426,1.324010557142857,1.8218525,2.0318398142857146,0.9464874285714285,-1.598048857142857
602,1778255309410,0.48971828285714286,1.2404384428571429,1.6940711142857143,2.9460649571428568,0.7348041914285713,-1.889170357142857
603,1778255309420,0.5256993,1.1817253,1.5695322,3.3763556,0.62104917,-2.111354
604,1778255309430,0.5502793714285714,1.1102861428571429,1.3424543142857142,3.7667751000000003,0.6094073614285714,-2.575961671428572
605,1778255309440,0.49974791333333335,1.0374059333333332,1.17017312,3.8385916666666664,0.64430745,-2.7261006
606,1778255309450,0.43027294,0.9176552,0.91472656,3.776895,0.8085357,-2.8703551
607,1778255309460,0.52472307,0.8183239250000001,0.8310149299999999,3.6327293333333333,1.0897655000000002,-2.9829180999999996
608,1778255309470,0.67561145,0.64028418125,0.7785731125,3.1162314374999998,1.77566265,-3.06350085
609,1778255309480,0.8285743428571427,0.530510717142857,0.8894491714285715,2.7442734285714288,2.2722090857142856,-2.999099857142857
610,1778255309490,1.171718857142857,0.36333150857142854,1.1562386,2.4857186,2.7265444285714286,-2.7730355571428573
611,1778255309500,1.4440868,0.298482,1.3752626,2.4975126,2.803776,-2.7015107
612,1778255309510,1.5935544000000001,0.29736631142857145,1.4587999285714284,2.793351742857143,2.8463865714285714,-2.826298871428572
613,1778255309520,2.49036,0.29067218,1.9600239,3.4210968,3.0194921,-3.304983
614,1778255309530,2.66653895,-0.004057447500000002,1.6956791999999998,3.679290225,3.0055103874999998,-3.664776
615,1778255309540,2.6579926428571428,-0.22770540857142857,1.4572657857142859,3.801700614285714,2.873855142857143,-3.904498571428572
616,1778255309550,2.585228642857143,-0.30998758,1.3412689142857144,3.7847324714285717,2.7843730714285715,-3.9318150000000003
617,1778255309560,2.4856689444444444,-0.5274619577777777,1.1414287111111112,3.6472879333333332,2.8985846000000004,-3.6751623666666666
618,1778255309570,2.42056,-0.6062382,1.0943527,3.639476,3.0402648000000005,-3.5537221
619,1778255309580,2.265475122222222,-0.66337472,1.0196711866666666,3.7393149777777777,3.1669720555555556,-3.3929264
620,1778255309590,2.0351529166666666,-0.7425035166666666,0.8882056666666666,4.058391100000001,3.17395545,-3.005111
621,1778255309600,1.8027464285714285,-0.7877122142857144,0.6259719428571427,4.287917428571428,2.766567785714286,-2.782166342857143
622,1778255309610,1.5049384,-0.7843186333333334,0.21712958666666668,4.5516975,1.7663859999999998,-2.5012409666666664
623,1778255309620,1.3991802,-0.7670719,0.04759116,4.5428205,1.23837,-2.4469125
624,1778255309630,1.3991802,-0.7670719,0.04759116,4.5428205,1.23837,-2.4469125
625,1778255309640,1.3869163375,-0.7685057425,0.016382340000000002,4.5428205,1.23837,-2.4469125
626,1778255309650,1.14186255,-0.8487497833333334,-0.33224327,3.8023728333333335,0.48842378833333333,-2.3725215166666667
627,1778255309660,0.770549735,-1.038585675,-0.393603315,2.3064306749999997,-0.07922904000000001,-2.022005125
628,1778255309670,0.66237134,-1.0587204,-0.32386398,2.1470406,0.08735169,-1.8626149
629,1778255309680,0.585005195,-1.06164905,-0.31312546,2.06297335,0.25424312,-1.568158025
630,1778255309690,0.50763905,-1.0645777,-0.30238694,1.8743328000000001,0.53742594,-0.88203895
631,1778255309700,0.50763905,-1.0645777,-0.30238694,1.8743328,0.53742594,-0.88203895
632,1778255309710,0.41259619,-1.0624160714285715,-0.37574356857142854,1.8743328,0.53742594,-0.88203895
633,1778255309720,0.17498904,-1.057012,-0.55913514,1.8743328000000001,0.53742594,-0.88203895
634,1778255309730,0.17498904,-1.057012,-0.55913514,1.8743328,0.53742594,-0.88203895
635,1778255309740,0.17498904,-1.057012,-0.55913514,1.8743328,0.53742594,-0.88203895
636,1778255309750,0.17498904,-1.057012,-0.55913514,1.8743328,0.53742594,-0.88203895
637,1778255309760,-0.20635040833333332,-0.9108623666666666,-0.7503946666666667,0.6078221516666666,-0.49099814,0.8242483616666667
638,1778255309770,-0.09567044,-0.91545874,-0.788549,-0.2615224,-1.2032162,2.5470474
639,1778255309780,0.017450095000000002,-0.914909605,-0.7793968625,-0.48203218,-1.0202570450000001,2.782737
640,1778255309790,0.3705137642857143,-0.8332462942857143,-0.7527073928571427,-1.2951332485714286,-0.09914568714285714,3.0658310714285717
641,1778255309800,0.464685,-0.7883049,-0.759018,-1.6042882,0.16618125,3.0722227
642,1778255309810,0.46468499999999996,-0.7883049,-0.759018,-1.6042882000000003,0.16618125,3.0722227
643,1778255309820,0.46468499999999996,-0.7883049,-0.759018,-1.6042882000000003,0.16618125,3.0722227
644,1778255309830,0.46468499999999996,-0.7883049,-0.759018,-1.6042882000000003,0.16618125,3.0722227
645,1778255309840,0.464685,-0.7883049,-0.759018,-1.6042882,0.16618125,3.0722227
646,1778255309850,0.6067263,-0.47273886,-0.107873306,-2.1662152,-2.2019017,3.9979374
647,1778255309860,0.6067263,-0.47273886000000004,-0.107873306,-2.1662152,-2.2019017,3.9979374
648,1778255309870,0.6067263,-0.47273886,-0.107873306,-2.1662152,-2.2019017,3.9979374
649,1778255309880,0.6067263,-0.47273886,-0.107873306,-2.1662152,-2.2019017,3.9979374
650,1778255309890,0.6067263,-0.4727388599999999,-0.107873306,-2.1662152,-2.2019017,3.9979374
651,1778255309900,0.6067263,-0.47273886,-0.107873306,-2.1662152,-2.2019017,3.9979374
652,1778255309910,1.5584682166666666,-0.23087814333333334,0.15505770366666669,-1.4572817833333334,-1.7519162333333334,4.9515268500000005
653,1778255309920,3.7068635,1.1600040625,0.273649185,-1.814944375,-0.2020007735,2.589524825
654,1778255309930,2.7156249666666668,1.3179904666666666,0.2642326566666667,-2.2988408000000002,0.44652336000000004,1.7170287666666668
655,1778255309940,2.113536,1.1717188,0.4334457,-2.414041442857143,0.6424305457142857,1.6366266285714286
656,1778255309950,2.113536,1.1717188,0.4334457,-2.371278675,0.6736465875000001,1.484312825
657,1778255309960,1.9080396,1.1124129,0.49885303,-2.1012342,0.53103435,1.1595404
658,1778255309970,1.7406163,1.1014304,0.47762007,-1.8279938,0.32756883,0.86179894
659,1778255309980,1.5767929,1.10490815,0.41593458,-1.630653575,0.1374191175,0.654471835
660,1778255309990,1.3951533,1.1076538,0.340093775,-1.46500495,-0.111053825,0.46472161
661,1778255310000,0.9447863166666667,1.1087927833333333,0.14155321166666665,-1.2532836,-0.7637946000000001,0.13315806
662,1778255310010,0.6240544,1.0601847,0.06467517,-1.2312681333333333,-1.12776,-0.02059511333333333
663,1778255310020,0.536315815,1.0495682499999999,0.0879826375,-1.24848995,-1.3022858,-0.09374327249999999
664,1778255310030,0.292380586,1.0181580399999999,0.273832233,-1.3278521399999998,-1.25690554,-0.046552057
665,1778255310040,0.18694785,0.9864794,0.43173727,-1.3420556333333333,-1.0428939,-0.06196288333333333
666,1778255310050,0.14407512666666666,0.9621550333333334,0.5408308466666667,-1.3427657999999998,-0.9406285,-0.075101145
667,1778255310060,0.05832968,0.9135063,0.759018,-0.96619487,-0.58056915,-0.29667616
668,1778255310070,-0.03441207,0.9176552,0.8600578,-0.79761675,-0.423442635,-0.327835145
669,1778255310080,-0.10051091166666666,0.91053695,0.8881243833333333,-0.62903863,-0.26631612,-0.35899412999999997
670,1778255310090,-0.2226412375,0.9902623,0.9305902475000001,-0.11385012750000002,0.176034945,-0.41691787999999996
671,1778255310100,-0.23161033,1.0133257,0.9664667,0.40426785,0.5475459,-0.5299691
672,1778255310110,-0.21184167,0.9962417,1.0538392,0.488068655,0.5444389,-0.5835874016666667
673,1778255310120,-0.173951805,0.9556061375,1.1817862000000001,0.75101143,0.5267733,-0.74781567
674,1778255310130,-0.111778225,0.90911326,1.3717237500000001,1.0637996575,0.3534014775,-0.8696552925000001
675,1778255310140,0.11059860833333333,0.8468380183333334,1.6276991333333335,1.3846661999999998,0.22974202000000002,-0.9622889166666667
676,1778255310150,1.29366615,0.6980850866666667,2.1219964333333334,2.9229082,-0.059654812,-1.3321132333333334
677,1778255310160,1.4531169,0.6970275,2.097428,3.8333542,0.020240024,-1.5515577
678,1778255310170,2.0759509,0.7487676,1.9678336,4.228567,0.1486044,-1.7917749
679,1778255310180,2.544174775,0.8110021949999999,1.889308225,4.228567,0.1486044,-1.7917749
680,1778255310190,3.45038372,0.904769012,1.6717921400000002,4.3998618800000004,0.300298048,-2.0934576199999997
681,1778255310200,3.833407,0.9017915999999999,1.52609,4.130563,1.8833876,-3.7539918
682,1778255310210,3.833407,0.9017916,1.52609,4.130563,1.8833876,-3.7539918
683,1778255310220,3.7338316,0.23307467,1.0994779,3.2868736,4.0107207,-4.1241713
684,1778255310230,3.7338316,0.23307467,1.0994779,3.2868736,4.0107207,-4.1241713
685,1778255310240,3.7338316,0.23307467,1.0994779,3.2868736,4.0107207,-4.1241713
686,1778255310250,3.7338316,0.23307467,1.0994779,3.1808796,4.469317,-3.8621163
687,1778255310260,3.5856888,-0.27920148,0.673842,3.0493195,5.1228566,-3.87703
688,1778255310270,3.5856888,-0.27920148,0.673842,3.0493195000000006,5.1228566,-3.87703
689,1778255310280,3.5856888,-0.27920148,0.673842,3.04633678,5.1143345600000005,-4.01295772
690,1778255310290,2.5659568,-0.65053459,0.46724758,3.489939525,4.367451025,-4.011120175
691,1778255310300,1.4279789999999999,-0.8573730999999999,-0.18621568,4.1396174,3.0913975,-3.6543896
692,1778255310310,1.24188535,-0.895690125,-0.416117605,4.18755455,2.026798825,-3.574894325
693,1778255310320,1.0335824,-0.9379120000000001,-0.62063754,3.8557248,0.9193232,-3.4594464
694,1778255310330,0.895446,-0.9501148500000001,-0.67799102,3.5657064750000003,0.6057359975000001,-3.33321255
695,1778255310340,0.6009909625000001,-0.9625008125000001,-0.76664485,3.163435925,0.3370230425,-3.0993869
696,1778255310350,0.4097720999999999,-0.9789135999999999,-0.7895252,2.6636937,0.18535602000000004,-2.7238811999999997
697,1778255310360,0.4097721,-0.9789136,-0.7895252,1.9265307,0.3121225,-2.0298615
698,1778255310370,0.4097721,-0.9789136,-0.7895252,1.9265307,0.3121225,-2.0298615
699,1778255310380,0.30092257499999997,-0.9953874500000001,-0.8128326500000002,1.9265307,0.3121225,-2.0298615
700,1778255310390,0.19207305,-1.0118613,-0.8361401,1.9265307,0.3121225,-2.0298615
701,1778255310400,0.19207305,-1.0118613,-0.8361401,1.9265307,0.3121225,-2.0298615
702,1778255310410,0.009957532000000002,-1.0626252600000001,-0.944355144,1.2102469800000002,0.742595868,-1.32561504
703,1778255310420,-0.326975705,-1.0807465,-0.8658541350000001,0.41931472575,0.4842958575,-0.1972070675
704,1778255310430,-0.46623069,-1.0560357333333334,-0.6289355533333333,-0.047404267,-0.24660872,0.82824314
705,1778255310440,-0.3274028,-1.03431465,-0.55388793,0.09800432725,-1.0155965,1.196691475
706,1778255310450,-0.26065314,-1.0182068,-0.5435155,0.26738137,-1.6783241,1.4950987
707,1778255310460,-0.2660224,-1.018451,-0.5723142,0.40403957142857144,-1.8727349142857144,1.9931097571428573
708,1778255310470,-0.31581008,-1.0506665,-0.6211257,0.386691,-1.7544906,2.2551649
709,1778255310480,-0.31581008,-1.0506665,-0.6211257,0.386691,-1.7544906,2.2551649
710,1778255310490,-0.49895760000000006,-1.0371735714285715,-0.6822446171428572,0.3295471685714286,-1.6419529857142856,2.697097471428571
711,1778255310500,-0.4893348,-0.9957536,-0.7253381600000001,0.08806186066666666,-1.7644330000000001,4.4822779
712,1778255310510,-0.4294797375,-0.957131525,-0.785376215,0.061252706,-1.8892465,4.6498795
713,1778255310520,-0.1581491,-0.8642067,-0.9081370999999999,-0.10439592000000002,-2.5768747,5.2043495
714,1778255310530,-0.006833599999999995,-0.8140529249999999,-0.9557282500000001,-0.20000339500000003,-2.8549087,5.4126086
715,1778255310540,0.7517450799999998,-0.727583436,-1.0339242,-0.662807528,-3.46019188,6.2370168800000005
716,1778255310550,1.1565872,-0.7033729599999999,-1.0543274,-0.9076052999999998,-3.678358,6.647783
717,1778255310560,2.6756809999999995,-0.39065428333333335,-0.6392673233333334,-1.0697030333333333,-3.293265,6.836157133333334
718,1778255310570,3.895886,-0.04515059,-0.29140437,-1.44013102,-1.9429359600000002,7.089760839999999
719,1778255310580,3.895886,-0.04515059,-0.29140437,-1.66074732,0.19707390400000002,6.383064559999999
720,1778255310590,4.056475666666667,0.07874914000000001,-0.24527754000000002,-1.6985642,0.51452273,6.2525697
721,1778255310600,4.2206446,0.8255643333333333,0.12129645333333335,-2.396312433333333,1.7220000333333332,4.252713166666666
722,1778255310610,3.7224833250000002,1.17629495,0.4659053,-2.261556375,0.9245164175,3.321361425
723,1778255310620,3.4094799,1.142432,0.7653635,-1.8924422999999997,0.03089267,2.8687572
724,1778255310630,3.39520255,1.2013717999999998,0.9400678633333334,-1.4703312999999998,-0.284248055,2.6388377
725,1778255310640,3.3989854,1.2939916,1.0218678,-0.76272935,-0.4111921,2.2551649
726,1778255310650,3.3345542,1.3647681,0.9030118,-0.25086978,-0.3685815,1.7752632
727,1778255310660,3.095622066666667,1.4148405666666666,0.693000545,0.002308073083333333,-0.2214862375,1.1031701166666668
728,1778255310670,2.579685,1.4924101,0.38097337,0.008522116,-0.077231675,0.6535397
729,1778255310680,2.579685,1.4924101,0.38097337,-0.23606259840000005,0.09789779500000001,0.42429480799999997
730,1778255310690,1.1700104,1.46478284,0.167179214,-1.0865698,0.49002165,0.03355583
731,1778255310700,0.34973403999999997,1.4094306,0.5736565600000001,-1.2524847000000001,0.6753776775,0.023169501
732,1778255310710,0.22233616,1.368429,1.1641531,-1.071656,0.76485986,-0.076166406
733,1778255310720,0.14570218,1.3962514,1.4614148,-0.37071204,0.58429754,-0.15925704
734,1778255310730,0.272306875,1.38435365,1.5478721,0.26405241749999997,0.3973436375,-0.2854908825
735,1778255310740,0.554254,1.3367015,1.6180996,1.185816845,0.19121496999999998,-0.6067568883333333
736,1778255310750,0.5742667,1.2930966666666668,1.4968031333333334,2.4016387,0.25548591666666665,-1.6738855
737,1778255310760,0.6142921,1.205887,1.2542102,2.938532,0.30200246,-2.179531
738,1778255310770,0.6142921,1.205887,1.2542102,2.938532,0.30200246000000003,-2.179531
739,1778255310780,0.29652956,0.9581688,0.9864794,3.0099046,0.85061365,-2.8048413
740,1778255310790,0.314223705,0.84053315,1.0899597,2.9989858,1.061269725,-2.8695561
741,1778255310800,0.4714372533333333,0.6575715333333333,1.2417633,3.068671933333333,1.4833808,-2.8918378666666666
742,1778255310810,0.92033983,0.48530784000000005,1.3253529,3.26929655,2.1038974,-2.79685175
743,1778255310820,1.0902036,0.44369608,1.3122959,3.3087113,2.301504,-2.7867317
744,1778255310830,1.0902036,0.44369608,1.3122959,3.3087113,2.301504,-2.7867316999999994
745,1778255310840,1.27695624,0.45199403,1.29989778,3.2904953399999997,2.79163206,-2.87940976
746,1778255310850,2.0239668,0.48518583,1.2503053,3.3390715,2.7142937,-2.8186898
747,1778255310860,2.0239668,0.48518583,1.2503053,3.2479913,3.3204293,-3.0024478
748,1778255310870,2.0239668,0.48518583,1.2503053,3.2479913,3.3204293,-3.0024478
749,1778255310880,2.0239668,0.48518583,1.2503053,3.2479913000000002,3.3204292999999994,-3.0024478
750,1778255310890,2.0239668,0.48518583,1.2503053,3.2479913,3.3204293,-3.0024478
751,1778255310900,2.0239668,0.48518583,1.2503053,3.2479913,3.3204293,-3.0024478
752,1778255310910,2.0239668,0.48518583,1.2503052999999997,3.2479913,3.3204293,-3.0024478
753,1778255310920,2.0239668,0.48518583,1.2503053,3.2479913,3.3204293,-3.0024478
754,1778255310930,2.0239668,0.48518583,1.2503053,3.2479913,3.3204293,-3.0024478
755,1778255310940,2.0239668,0.48518583,1.2503053,3.2479913000000002,3.3204292999999994,-3.0024478
756,1778255310950,2.0239668,0.48518583,1.2503053,3.2479913,3.3204293,-3.0024478
757,1778255310960,2.0239668,0.48518583,1.2503053,3.2479913,3.3204293,-3.0024478
758,1778255310970,2.0239668,0.48518583,1.2503052999999997,3.2479913,3.3204293,-3.0024478
759,1778255310980,2.0239668,0.48518583,1.2503053,3.2479913,3.3204293,-3.0024478
760,1778255310990,2.0239668,0.48518583,1.2503053,3.2479913,3.3204293,-3.0024478
761,1778255311000,2.5938404285714287,0.24370857857142858,1.418286442857143,3.527623257142857,3.8158533285714284,-3.7241645142857145
762,1778255311010,2.652088733333333,0.193171294,1.4018648666666664,3.7477778666666666,3.6064527666666666,-3.6957574
763,1778255311020,2.8457073999999998,0.09981941400000001,1.3030217,3.829093,3.5228295,-3.6788907
764,1778255311030,2.8457073999999998,0.09981941400000001,1.3030217,3.829093,3.5228295,-3.6788907
765,1778255311040,2.8457074,0.099819414,1.3030217,3.829093,3.5228295,-3.6788907
766,1778255311050,2.8457073999999998,0.09981941400000001,1.3030217,3.829093,3.5228295,-3.6788907
767,1778255311060,2.8457073999999998,0.09981941400000001,1.3030217,4.010188,3.3268969999999998,-3.657965914285714
768,1778255311070,2.8457074,0.099819414,1.3030217,4.082626,3.248524,-3.6495960000000003
769,1778255311080,2.8457073999999998,0.09981941400000001,1.3030217,4.082626,3.248524,-3.649596
770,1778255311090,2.913473983333333,0.06528531366666666,1.1277885766666667,4.1544425333333335,3.2897142,-3.8132028333333334
771,1778255311100,2.2394692666666667,-0.10388703333333334,0.14033292333333333,3.3742251,3.6677055,-4.035754
772,1778255311110,1.872041075,-0.126665715,0.02922585675,3.3253560875,3.6416731125,-4.012983999999999
773,1778255311120,1.6117541,-0.14277348,0.018060237,2.983273,3.4594463999999996,-3.8535939999999997
774,1778255311130,1.6117541,-0.14277348,0.018060237,2.983273,3.4594463999999996,-3.8535939999999997
775,1778255311140,1.6117541,-0.14277348,0.018060237,2.983273,3.4594464,-3.853594
776,1778255311150,1.4206920285714286,-0.1661332514285714,0.06268784628571429,2.812830714285714,3.266481314285714,-3.7367193142857142
777,1778255311160,1.1062300666666667,-0.26472076,0.13309255666666667,2.51722,2.4753195,-3.284920533333333
778,1778255311170,0.062722713,-0.5318821066666667,-0.8877989433333333,1.44520878,1.0315310899999999,-1.1845740666666666
779,1778255311180,0.011470691,-0.5847612,-0.95987713,0.70627034,0.96619487,-0.793622
780,1778255311190,0.011470691,-0.5847612,-0.95987713,0.70627034,0.96619487,-0.793622
781,1778255311200,0.011470691,-0.5847612,-0.95987713,0.70627034,0.96619487,-0.793622
782,1778255311210,0.011470691,-0.5847612,-0.95987713,0.70627034,0.96619487,-0.793622
783,1778255311220,0.011470691,-0.5847612,-0.95987713,-0.0006391539999999862,0.7674165079999999,-0.46157907800000003
784,1778255311230,,,,,,
785,1778255311240,-0.24796216000000001,-0.80465674,-0.48616204,-1.1455143733333333,0.33271759,0.7831468833333334
786,1778255311250,-0.21678383625,-0.824089755,-0.45840053000000003,-1.2772521000000001,0.299605625,1.23437518
787,1778255311260,-0.18487335875,-0.8287878875000001,-0.44390963625,-1.4274544,0.26738137,1.8210696
788,1778255311270,-0.13911264,-0.8319912,-0.42636803,-1.4274544,0.26738137,1.8210696
789,1778255311280,-0.13911264,-0.8319912,-0.42636803,-1.5256109,0.2928716342857142,2.150160242857143
790,1778255311290,-0.13911264,-0.8319912,-0.42636803000000006,-1.5648735,0.30306774,2.2817965
791,1778255311300,-0.13911264,-0.8319912,-0.42636803,-1.5648735,0.30306774,2.2817965
792,1778255311310,-0.13911264,-0.8319912,-0.42636803,-1.5648734999999998,0.30306774,2.2817965
793,1778255311320,-0.13911264,-0.8319912,-0.42636803,-1.5648735,0.30306774,2.2817965
794,1778255311330,-0.09259532680000002,-0.829697052,-0.41860701,-1.5648735,0.30306774,2.2817965
795,1778255311340,0.093473926,-0.82052046,-0.38756293,-1.6978793857142858,0.46103126,2.6181157
796,1778255311350,0.19700301,-0.795333754,-0.41084597599999995,-1.7976338000000003,0.5795039,2.8703551
797,1778255311360,0.22599702,-0.77805454,-0.43881494000000004,-1.9311469333333333,0.7526093433333334,2.9980092333333332
798,1778255311370,0.1273368675,-0.659320645,-0.514838755,-1.8807244,0.73769563,2.9838057
799,1778255311380,0.11324256,-0.64235866,-0.5256993,-2.0444201333333334,0.4522047633333333,2.9216653666666663
800,1778255311390,0.11324256,-0.64235866,-0.5256993,-2.126268,0.30945933,2.8905952
801,1778255311400,0.11324256,-0.64235866,-0.5256993,-2.19551005,0.125434893,2.85916985
802,1778255311410,0.11324256,-0.64235866,-0.5256993,-2.2647521,-0.058589544,2.8277445
803,1778255311420,0.11324256,-0.64235866,-0.5256993,-2.2647521,-0.058589544,2.8277445
804,1778255311430,0.04926469785714286,-0.6380004957142857,-0.5556834714285714,-2.2647521,-0.058589544,2.8277445
805,1778255311440,-0.08899954116666665,-0.6555784216666666,-0.5764225233333333,-2.3506835666666666,-0.3479863813333333,2.8419480333333333
806,1778255311450,-0.11153416000000001,-0.65944266,-0.5781716,-2.4115305142857144,-0.8891153714285714,2.9955235857142855
807,1778255311460,-0.28306571666666663,-0.6280813166666667,-0.5089407216666667,-2.3233418,-1.5254587,3.377421
808,1778255311470,-0.3829258,-0.5835409,-0.44345203,-2.3233418,-1.5254587,3.377421
809,1778255311480,-0.3829258,-0.5835409,-0.44345203,-2.306697025,-1.5890416749999998,3.431483175
810,1778255311490,-0.3829258,-0.5835409,-0.44345203,-2.1901836,-2.0341225,3.8099183999999995
811,1778255311500,-0.34802565,-0.5527897,-0.39805737,-2.1901836,-2.0341225,3.8099183999999995
812,1778255311510,-0.34802565,-0.5527897,-0.39805737,-2.1901836,-2.0341225,3.8099184
813,1778255311520,0.17376876,-0.57377857,-0.21599068,-2.010154,-2.4747869,4.447656599999999
814,1778255311530,0.24747404999999997,-0.5646670916666666,-0.20769273,-1.8690065,-2.66715585,4.955343849999999
815,1778255311540,0.8815347499999999,-0.46639335000000004,-0.175233105,-1.8156101,-2.582733575,5.19636
816,1778255311550,1.5189076428571429,-0.28042175542857145,-0.2737973728571429,-1.880039557142857,-2.305840914285714,5.349073414285714
817,1778255311560,2.0146925,-0.102748096,-0.39317623000000007,-2.0884509333333336,-2.0673231666666667,5.2854871999999995
818,1778255311570,2.0146925,-0.102748096,-0.39317623,-3.0895331749999997,-2.280864225,4.9877012
819,1778255311580,2.0146925,-0.102748096,-0.39317623000000007,-3.3475935,-2.415487,4.9273806
820,1778255311590,2.1895422142857144,0.024161665428571427,-0.4003236157142857,-3.3475935,-2.415487,4.9273806
821,1778255311600,2.4386549714285715,0.03584154685714285,-0.23673552571428574,-3.6443457857142856,-2.6372904285714287,5.008797314285714
822,1778255311610,3.4745033714285714,0.007670369285714286,1.1256966257142857,-3.444760942857143,-2.685303485714286,5.243916414285715
823,1778255311620,3.7050328,0.041977845,1.4260265,-2.992328,-2.569418,5.4605455
824,1778255311630,4.22829175,0.2682189225,1.5199885499999999,-2.7788312166666667,-2.12609042,5.345852016666666
825,1778255311640,4.7982468,0.5806935533333334,1.5520414,-1.5444559,1.1226111933333334,4.0085012833333336
826,1778255311650,4.711525,0.9178993,1.056768,-1.5153387,2.2258701,2.8320055
827,1778255311660,4.711525,0.9178992999999999,1.056768,-1.5153387,2.2258701,2.8320054999999997
828,1778255311670,4.711525,0.9178992999999999,1.056768,-1.5153387,2.2258701,2.8320054999999997
829,1778255311680,4.711525,0.9178993,1.056768,-1.5153387,2.2258701,2.8320055
830,1778255311690,4.711525,0.9178992999999999,1.056768,-1.5153387,2.2258701,2.8320054999999997
831,1778255311700,4.6036111,0.9107402833333333,1.0196712666666665,-1.5604349,2.0325246,2.4319099333333334
832,1778255311710,3.6635086285714284,0.8280862285714286,1.1238487428571429,-0.9987615342857143,-0.10949394285714287,-0.8315149714285714
833,1778255311720,2.1004786666666666,0.457973425,0.8290624933333333,1.13921156,-1.2571008166666666,-3.0476327666666667
834,1778255311730,0.13508568875000002,0.2558635125,-0.87305379,-0.4438158125,0.49221873625,-2.2437132625
835,1778255311740,-0.28471022142857144,0.12025048942857143,-0.3929670398571429,-2.7859708000000003,0.9133120685714287,-1.6432465142857142
836,1778255311750,-0.19963882999999996,0.031483386,0.019280521,-2.928412,0.6854977,-1.7651432
837,1778255311760,-0.17822280625,-0.004911649749999997,0.097256810875,-2.928412,0.6854977,-1.7651432
838,1778255311770,-0.0276191445,-0.2722865266666667,0.6737200166666667,-2.460139416666667,-0.25903681666666667,-2.3355036166666667
839,1778255311780,-0.12826951642857143,-0.35029188285714286,0.8357565785714286,-1.1135817757142858,-1.12491932,-3.3187553142857142
840,1778255311790,-0.8958426500000001,-0.307756193125,0.68714318625,0.48849033875000003,-1.096290325,-3.2368725875
841,1778255311800,-0.9940451499999999,0.3641740816666667,0.39573881666666666,0.5577547266666666,-0.8933130166666667,-2.0343
842,1778255311810,-0.4868244657142857,0.6340258714285715,0.40199714285714283,0.23610826428571427,-0.6102443285714285,-0.3020024614285714
843,1778255311820,0.5439338771428571,0.7441305857142856,0.9148312,-0.46339005,0.5006743,-0.2444782
844,1778255311830,0.6450433,0.7309515000000001,1.0067362,-0.310258275,0.7416904,-0.27750139
845,1778255311840,0.80490084375,0.7381206625000001,1.2347771375,-0.1571265,0.9827065,-0.31052458
846,1778255311850,0.90081537,0.74242216,1.3716017,-0.1571265,0.9827065,-0.31052458
847,1778255311860,1.138039,0.8578612,1.7159665,0.46924898,1.2761868,-0.24501082
848,1778255311870,1.138039,0.8578612,1.7159665,0.886699485,1.295627875,-0.2282329075
849,1778255311880,1.403654666666667,0.9316478333333333,1.7516802333333334,2.139051,1.3539511,-0.17789917
850,1778255311890,1.9348859999999999,1.0792211,1.8231077000000002,2.139051,1.3539511,-0.17789917
851,1778255311900,1.934886,1.0792211,1.8231077,2.139051,1.3539511,-0.17789917000000002
852,1778255311910,1.9348859999999999,1.0792211,1.8231077000000002,2.139051,1.3539511,-0.17789917
853,1778255311920,1.9348859999999999,1.0792211,1.8231077000000002,2.139051,1.3539511,-0.17789917
854,1778255311930,1.934886,1.0792211,1.8231077,2.139051,1.3539511,-0.17789917
855,1778255311940,1.9348859999999999,1.0792211,1.8231077000000002,2.139051,1.3539511,-0.17789917
856,1778255311950,1.9348859999999999,1.0792211,1.8231077000000002,2.139051,1.3539511,-0.17789917
857,1778255311960,2.494021,1.2036903,1.5707525,2.3285158857142854,1.3582121571428571,-0.24561955
858,1778255311970,2.9928741142857143,1.3602007571428572,1.0110943285714284,2.9999369142857146,1.7547949142857142,-1.2463593714285714
859,1778255311980,3.3072199999999996,1.4533609,0.5213063,3.0157638,2.191249,-2.0442424
860,1778255311990,3.30722,1.4533609,0.5213063,2.392584,3.1217575,-2.503904
861,1778255312000,3.3072199999999996,1.4533609,0.5213063,2.392584,3.1217574999999997,-2.503904
862,1778255312010,3.30722,1.4533609,0.5213063,2.392584,3.1217575,-2.503904
863,1778255312020,3.30722,1.4533609,0.5213063,2.392584,3.1217575,-2.503904
864,1778255312030,3.0088598333333336,1.2745889000000001,0.39154917499999997,2.392584,3.1217574999999997,-2.503904
865,1778255312040,2.9491878,1.2388345,0.36559775,2.392584,3.1217575,-2.503904
866,1778255312050,2.9491878,1.2388345,0.36559775,2.392584,3.1217575,-2.503904
867,1778255312060,3.1282039000000004,1.3460977000000003,0.443452025,2.392584,3.1217574999999997,-2.503904
868,1778255312070,3.30722,1.4533609,0.5213063,2.392584,3.1217575,-2.503904
869,1778255312080,3.3072199999999996,1.4533609,0.5213063,2.392584,3.1217574999999997,-2.503904
870,1778255312090,3.3072199999999996,1.4533609,0.5213063,2.392584,3.1217574999999997,-2.503904
871,1778255312100,3.30722,1.4533609,0.5213063,2.392584,3.1217575,-2.503904
872,1778255312110,3.3072199999999996,1.4533609,0.5213063,2.392584,3.1217574999999997,-2.503904
873,1778255312120,3.3072199999999996,1.4533609,0.5213063,2.3812212,3.364637833333333,-2.4517061333333334
874,1778255312130,2.7133062999999997,0.9371188,0.559867315,2.87221935,3.2567798,-2.6210832
875,1778255312140,1.9655324857142857,0.5134615657142857,0.065093556,2.848060685714286,2.173824257142857,-3.3758991714285713
876,1778255312150,0.77817652,0.189754507,-0.24857230500000002,2.5055020999999997,1.7591067,-3.129747066666667
877,1778255312160,0.20183534,-0.21419072825,-0.7046237925000001,1.11779536375,0.7444201075,-1.2491557375
878,1778255312170,0.10348027,-0.47334899999999996,-0.8460244500000001,0.31158987,0.18375812,-0.6498113
879,1778255312180,-0.1935025385714286,-1.0135000428571428,-0.7559499000000001,-0.19638910714285712,-0.6934110742857141,-0.26296814342857144
880,1778255312190,-0.52203846,-1.2505494,-0.68384844,-0.031691619500000004,-1.72253265,1.23783727
881,1778255312200,-0.52203846,-1.2505494,-0.6838484399999999,0.017044231,-1.8226675000000003,1.5052186
882,1778255312210,-0.52203846,-1.2505494,-0.68384844,0.017044231,-1.8226675,1.5052186
883,1778255312220,-0.4166057,-1.2432276,-0.72338563,0.064182185,-2.09644035,2.21521745
884,1778255312230,-0.4166057,-1.2432276,-0.72338563,0.045806370000000006,-2.193912,2.4469125
885,1778255312240,-0.4166057,-1.2432276,-0.72338563,0.04580637,-2.193912,2.4469125
886,1778255312250,-0.4166057,-1.2432276,-0.72338563,0.045806370000000006,-2.193912,2.4469125
887,1778255312260,-0.4166057,-1.2432275999999998,-0.72338563,0.04580637,-2.193912,2.4469125
888,1778255312270,-0.4166057,-1.2432275999999998,-0.72338563,0.04580637,-2.193912,2.4469125
889,1778255312280,-0.4166057,-1.2432275999999998,-0.72338563,0.04580637,-2.193912,2.4469125
890,1778255312290,-0.4166057,-1.2432276,-0.72338563,0.045806370000000006,-2.193912,2.4469125
891,1778255312300,-0.4166057,-1.2432276,-0.72338563,0.04580637,-2.193912,2.4469125
892,1778255312310,-0.1819853466666667,-1.1866064,-0.7762647433333334,0.045806370000000006,-2.193912,2.4469125
893,1778255312320,0.006882415599999997,-1.1199299200000001,-0.8048519800000001,0.04580637,-2.193912,2.4469125
894,1778255312330,0.114218794,-1.0623811,-0.8080735,0.04580637,-2.193912,2.4469125
895,1778255312340,0.10626950028571427,-1.0702258142857144,-0.8079340428571429,0.011565727428571426,-2.2937425428571427,2.4008778285714283
896,1778255312350,0.07419340333333334,-1.0222744666666668,-0.7838305,-0.07492359999999999,-2.7016882,2.1704763999999996
897,1778255312360,-0.38142662857142856,-0.8403588428571428,-0.47897979285714287,0.19669347571428572,-3.683075842857143,3.2778188
898,1778255312370,0.21973287333333333,-0.6057093733333333,-0.3569744083333333,0.7305050700000001,-4.134025,4.67251615
899,1778255312380,1.0455412,-0.50031734,-0.50031734,1.0588728,-4.3361588,5.4706655
900,1778255312390,1.7449278999999998,-0.28481479333333337,-0.70687116,0.74302197,-3.5734295999999994,5.1452274
901,1778255312400,3.262964,0.33663630000000005,-1.1962059666666667,0.4774160333333333,-3.358423716666666,4.875449166666667
902,1778255312410,3.0637551999999997,0.7181907571428571,-1.270352842857143,-1.2781651428571428,-1.9099430285714285,3.313124628571429
903,1778255312420,2.6426518,0.7387613,-1.1641531,-1.8482338000000003,-1.412008,3.0285468
904,1778255312430,2.6426518,0.7387612999999998,-1.1641531,-1.8482338,-1.412008,3.0285467999999995
905,1778255312440,2.6426518,0.7387613,-1.1641531,-1.8482338000000003,-1.412008,3.0285468
906,1778255312450,2.6426518,0.7387612999999998,-1.1641531,-1.8482338,-1.412008,3.0285467999999995
907,1778255312460,2.6426518,0.7387612999999998,-1.1641531,-1.8482338,-1.412008,3.0285467999999995
908,1778255312470,2.6426518,0.7387613,-1.1641531,-1.8482338,-1.412008,3.0285468
909,1778255312480,2.6426518,0.7387612999999998,-1.1641531,-1.8482338,-1.412008,3.0285467999999995
910,1778255312490,2.6426518,0.7387612999999998,-1.1641531,-1.8482338,-1.412008,3.0285467999999995
911,1778255312500,2.6426518,0.7387613,-1.1641531,-1.8482338,-1.412008,3.0285468
912,1778255312510,2.6426518,0.7387613,-1.1641531,-1.8482338000000003,-1.412008,3.0285468
913,1778255312520,2.6426518,0.7387613,-1.1641531,-2.7718182,-0.69029135,3.0700922
914,1778255312530,2.7268515,0.92558708,0.27920149699999997,-2.8304077750000003,0.06364955750000001,3.8558578
915,1778255312540,3.176161,0.9852590600000001,0.5720702,-0.7550949666666665,-0.8438669799999999,2.53142348
916,1778255312550,3.176161,0.98525906,0.5720702,1.2543489,-2.0596888,0.16937704
917,1778255312560,3.176161,0.98525906,0.5720702,1.2543489,-2.0596888,0.16937704
918,1778255312570,3.176161,0.9852590600000001,0.5720702,1.2543489,-2.0596888,0.16937704
919,1778255312580,3.176161,0.98525906,0.5720702,1.2543489,-2.0596888,0.16937704
920,1778255312590,3.176161,0.98525906,0.5720702,1.2543489,-2.0596888,0.16937704
921,1778255312600,3.176161,0.9852590600000001,0.5720702,1.2543489,-2.0596888,0.16937704
922,1778255312610,3.176161,0.98525906,0.5720702,1.2543489,-2.0596888,0.16937704
923,1778255312620,3.176161,0.98525906,0.5720702,1.2543489,-2.0596888,0.16937704
924,1778255312630,3.176161,0.9852590600000001,0.5720702,1.2543489,-2.0596888,0.16937704
925,1778255312640,3.176161,0.98525906,0.5720702,1.2543489,-2.0596888,0.16937704
926,1778255312650,3.176161,0.9852590600000001,0.5720702,1.2543489,-2.0596888,0.16937704
927,1778255312660,3.176161,0.98525906,0.5720702,1.2543489,-2.0596888,0.16937704
928,1778255312670,3.158344842857143,1.0217630514285714,0.45084347857142854,1.2220866000000001,-2.0341985428571427,0.14190843642857143
929,1778255312680,1.6868016,1.11302302,-0.76585165,-0.59281965,-0.9717874750000001,0.556866985
930,1778255312690,1.0520901,0.9411660766666667,-0.7102472916666667,-2.050190183333333,-0.2873550833333333,0.936811305
931,1778255312700,0.9196077,0.7487676,0.17230442,-2.5889921,-0.103730125,0.803941775
932,1778255312710,0.9167278299999999,0.72675364,0.270171376,-2.6205506,-0.09853696,0.75420725
933,1778255312720,0.90520835,0.6386978,0.6616392,-2.6205506,-0.09853696,0.75420725
934,1778255312730,0.90520835,0.6386978,0.6616392,-2.3139065999999997,0.11641818999999999,0.3844082928571429
935,1778255312740,0.52395022,0.6034722083333334,0.7071558916666666,-1.4363316083333333,0.37168853166666665,-0.545149065
936,1778255312750,-0.019664035714285707,0.6603840428571429,0.4001492914285714,-0.6424305514285714,0.14419115457142856,-1.224673685714286
937,1778255312760,0.04563870571428571,0.7913381928571429,-0.156370968,-0.27483823,-0.9038769,-1.8091995142857142
938,1778255312770,0.33526493,0.8767233428571428,-0.42103361857142857,-1.6108320457142857,0.15301762142857145,-1.6389094
939,1778255312780,1.21216258,1.0800927571428571,-0.2343995514285714,-2.415182742857143,1.7003142642857143,-1.4966965428571428
940,1778255312790,2.296230114285714,1.3175953000000002,-0.5008752057142857,-2.1939882285714285,2.4332922857142854,-2.7921342571428576
941,1778255312800,1.917069642857143,0.9628756142857142,-0.7641432342857143,-2.187901042857143,3.1313448,-2.8109285428571433
942,1778255312810,1.7243051666666667,0.5051171583333334,-0.6156750933333334,-1.6190244333333332,1.8491215666666667,-3.2142579999999996
943,1778255312820,1.06708804,0.17474499142857144,-0.7187485971428572,-0.8367652285714285,-0.12007053714285713,-3.3615942
944,1778255312830,0.34387665333333334,-0.138665195,-0.8786467450000001,-1.6176040583333335,-1.1467571333333333,-2.2809975166666665
945,1778255312840,0.32166745142857145,-0.5730812914285713,-0.5483617671428571,-2.5318292428571425,-1.7640018857142858,-0.9140730071428571
946,1778255312850,0.09973806016666668,-0.87193515,-0.3426156933333333,-1.7510285,-2.870976516666667,-0.5648564716666667
947,1778255312860,-0.14014987125,-0.8207950187499999,-0.68003504625,-0.73117089875,-5.600694375,1.11593107
948,1778255312870,0.81527320875,-0.48790093625,-0.9235126575,-1.4253238,-6.219812875,4.21065745
949,1778255312880,2.1258781142857144,-0.018478620000000005,-0.5991605657142857,-3.307874385714286,-3.5076114714285715,4.110855457142857
950,1778255312890,2.0187194666666666,0.275011835,-0.029856335499999997,-3.6930943166666665,-3.3933110833333333,4.533765466666667
951,1778255312900,1.5291406875,0.589794865,0.26294118375000003,-3.3758897374999997,-1.2351075649999999,2.269146487875
952,1778255312910,1.3718457,1.479231,0.50715095,-2.918976757142857,0.6505721714285714,-0.3593745814285714
953,1778255312920,1.5051010999999999,1.478987,0.6079466,-2.8591697,1.0098706,-0.60773337
954,1778255312930,1.5051011,1.478987,0.6079466,-2.8591697,1.0098706,-0.60773337
955,1778255312940,1.5051010999999999,1.478987,0.6079466,-2.8591697,1.0098706,-0.60773337
956,1778255312950,1.5051010999999999,1.478987,0.6079466,-2.8591697,1.0098706,-0.60773337
957,1778255312960,1.5107143,1.5590377,0.64260274,-2.7053721375,1.2452275375,-0.9070061387499999
958,1778255312970,1.5107143,1.5590377,0.64260274,-2.6130936,1.3864417,-1.0865698
959,1778255312980,1.5107143,1.5590377,0.64260274,-2.6130936,1.3864417,-1.0865698
960,1778255312990,1.5107143,1.5590377,0.64260274,-2.6130936,1.3864417,-1.0865698
961,1778255313000,1.4218077571428573,1.5479505142857144,0.5347642942857143,-2.6130936,1.3864417,-1.0865698
962,1778255313010,1.3032657,1.5331676,0.3909797,-2.6130936,1.3864417,-1.0865698
963,1778255313020,1.3032657,1.5331676,0.3909797,-2.4250746,1.7060210999999998,-1.784318
964,1778255313030,1.6253805666666665,1.2249233083333333,0.388661161,-1.6445020333333333,1.7178277166666664,-2.6515320166666667
965,1778255313040,2.1416023,0.59013045,-0.11739153399999999,0.1781950722222222,2.2816781444444443,-5.104273633333333
966,1778255313050,1.8250948428571427,0.30186394714285714,-0.18558810485714286,0.47830373,1.8184065,-5.726329
967,1778255313060,1.4404259,0.14350566,-0.21428227,0.62104917,1.3693974,-5.8456388
968,1778255313070,1.4404259,0.14350566,-0.21428227,0.62104917,1.3693974,-5.8456388
969,1778255313080,1.4404259,0.14350566,-0.21428227,0.62104917,1.3693974,-5.845638799999999
970,1778255313090,1.4404259,0.14350566,-0.21428227,0.62104917,1.3693974,-5.8456388
971,1778255313100,1.4404259,0.14350566,-0.21428227,0.62104917,1.3693974,-5.845638799999999
972,1778255313110,1.4404259,0.14350566,-0.21428227,0.62104917,1.3693974,-5.8456388
973,1778255313120,1.1992973,0.022941383,-0.2630937,0.7451525,0.9821738,-5.848302
974,1778255313130,0.50422224,-0.195001742,-0.45843713199999997,0.799694,0.274731712,-5.37457878
975,1778255313140,0.27822525016,-0.28520529,-0.569824844,0.40192427799999997,0.30146984,-4.51395156
976,1778255313150,-0.47409865714285715,-0.49341403714285714,-0.6559561428571429,-0.5165010842857143,-0.10721126171428572,-2.420280862857143
977,1778255313160,-0.95128634,-0.6608094400000001,-0.592375746,-1.19448102,-0.94403736,0.08415588799999998
978,1778255313170,-0.86899026,-0.6872164080000001,-0.5449310159999999,-1.29951608,-1.19085912,0.8829976800000001
979,1778255313180,-0.5579148875,-0.710267575,-0.48451463625,-1.3156682125,-1.3958959125000001,1.8924422500000002
980,1778255313190,-0.3590082,-0.7197248,-0.51593703,-1.3006879,-1.4365091,2.350506
981,1778255313200,0.025565001500000004,-0.75401487,-0.6295456625,-1.3314474250000001,-1.389237975,2.861300375
982,1778255313210,0.56426036,-0.788549,-0.8190561,-1.4559882000000002,-1.2958180857142858,3.3188314714285716
983,1778255313220,0.7497439,-0.7726852,-0.91814333,-1.5233282,-1.3102753,3.2682314
984,1778255313230,0.7570656000000001,-0.7616212666666667,-0.9488945766666667,-1.5233282,-1.3102753,3.2682314
985,1778255313240,0.66847277,-0.7585299,-0.95426387,-1.7175614,-1.7756182666666664,3.1451934666666665
986,1778255313250,0.66847277,-0.7585299,-0.9542638699999999,-1.6405072,-1.5462314,3.1611724
987,1778255313260,0.6266343928571428,-0.8249832428571429,-0.8656362185714286,-1.7680345714285717,-1.7900247714285713,3.365703142857143
988,1778255313270,0.6101431,-0.9056965,-0.75340474,-2.086853,-2.3995082,3.87703
989,1778255313280,0.6101431,-0.9056965,-0.75340474,-2.086853,-2.3995082,3.87703
990,1778255313290,0.6101431,-0.9056965,-0.75340474,-2.086853,-2.3995082,3.87703
991,1778255313300,1.1946602,-0.95646036,-0.39415246,-1.7747306,-2.193912,3.995807
992,1778255313310,1.4793936666666667,-0.8304454666666667,-0.5915540883333333,-1.2513306,-2.469638033333333,3.4182561000000002
993,1778255313320,1.3154685,-0.7446186500000002,-0.66090703,-0.9022028857142858,-3.453359028571428,2.722587728571429
994,1778255313330,1.3154685,-0.74461865,-0.66090703,-0.9060074,-3.643737,2.6711507
995,1778255313340,1.3154685,-0.7446186500000002,-0.66090703,-0.9060074,-3.6437369999999993,2.6711507000000005
996,1778255313350,1.1369929571428572,-0.616802362857143,-0.49637757571428576,-1.0279040571428573,-4.655890328571429,3.2472304142857142
997,1778255313360,1.7419281625,-0.47377611875000003,-0.18865625125000002,-1.1685951,-4.412858,4.9438925
998,1778255313370,1.8272567000000002,-0.46834585,-0.16937572999999997,-1.1685951,-4.412858,4.9438925
999,1778255313380,1.8272567,-0.46834585,-0.16937573,-1.1685951,-4.412858,4.9438925
1000,1778255313390,1.8272567000000002,-0.46834585,-0.16937572999999997,-1.1685951,-4.412858,4.9438925
