id,timestamp,acc_x,acc_y,acc_z,gyro_x,gyro_y,gyro_z
0,1778255177700,-0.2711476,0.30848834,0.7804951,0.505468,1.2751216,-0.077231675
1,1778255177710,-0.342412304,0.410406676,0.641284836,0.44538707199999994,0.785526,-0.09427590300000001
2,1778255177720,-0.45199403,0.5130083,0.44491636999999995,-0.25832662,-0.8218515500000001,-0.17630127
3,1778255177730,-0.38341394,0.41684976,0.58280873,-0.63702816,-0.8836369,-0.018109497
4,1778255177740,-0.325694395,0.38158349499999994,0.664689915,-0.8061388800000001,-0.7552724999999999,0.029028454500000005
5,1778255177750,-0.20354374,0.3704789,0.99087244,-1.4359765,0.36645097,-0.055926383
6,1778255177760,-0.20354374,0.3704789,0.99087244,-1.4359765,0.36645097,-0.055926383
7,1778255177770,-0.3443648,0.2604091,1.0218678,-1.5398397857142858,0.6799430842857143,-0.07799257371428571
8,1778255177780,-0.456143,0.22013964,1.006004,-1.57259665,0.728108265,-0.017843177999999998
9,1778255177790,-0.48900936666666667,0.21542119666666668,1.0164984666666665,-1.5400173,0.5500315533333334,0.11930961266666668
10,1778255177800,-0.48863750285714286,0.2340160357142857,1.2000294571428574,-1.1609860714285714,-0.44558489142857144,0.6113096014285714
11,1778255177810,-0.47762007,0.23868799,1.2271198,-1.1057445,-0.57790595,0.67058396
12,1778255177820,-0.33020945399999996,0.27187975799999997,1.20798572,-0.706909492,-1.29504199,0.755379032
13,1778255177830,-0.29905146666666665,0.3058850733333333,1.1831895333333333,-0.5273059,-1.7147206666666666,0.7669904
14,1778255177840,-0.3018988,0.31873876,1.1731832,-0.47457531,-1.9263976,0.782569885
15,1778255177850,-0.23082935200000004,0.334553672,1.10621392,-0.4362258,-2.2008364,0.84368944
16,1778255177860,-0.3578692866666667,0.31467114999999996,0.9807034333333333,-1.0036566,-1.5714425499999998,1.06277879
17,1778255177870,-0.37064161,0.2866045666666666,0.9316479333333333,-1.2381923333333333,-1.3564367,1.2154667000000001
18,1778255177880,-0.21660080499999998,0.10547340416666667,0.8068125833333334,-1.7280364666666665,-0.8786656666666666,1.5861787333333333
19,1778255177890,-0.1594670056,0.05515693420000001,0.80094706,-2.31556532,-0.140934504,2.15779968
20,1778255177900,-0.09426711474999999,0.0062844737275,0.8556037,-2.7939224,0.55926382,2.75051285
21,1778255177910,-0.1115341675,0.002196515285,0.9116758800000001,-2.848872333333333,0.8167027399999999,3.0209125
22,1778255177920,-0.23868799,0.026602242,1.0860548,-2.5321336,0.9044095,3.3119073
23,1778255177930,-0.4140430975,0.1102528605,1.231756925,-1.6568857,0.4326305275,3.6754287000000003
24,1778255177940,-0.5488033833333333,0.12389972666666667,1.3446740333333331,-1.239168875,0.4279700083333333,3.8296257
25,1778255177950,-0.5923269375,0.0857251045,1.504490925,-0.22477079,1.856756,3.9894154
26,1778255177960,-0.34570709,0.041001615755,1.49363035,0.522512235,2.5739453,3.85838795
27,1778255177970,0.3100340733333333,-0.09404338483,1.3158752999999999,1.6692694,0.87298423,1.6319852
28,1778255177980,0.39322505199999996,-0.023819981999999996,1.1567826,1.7207216799999998,0.51313789,1.0286193799999999
29,1778255177990,0.30019042,0.05418071,1.1028948,1.7550231999999997,0.27324033,0.6263755
30,1778255178000,0.016986380600000007,0.24937767800000002,1.07121612,1.8061558599999998,0.130707948,0.2265817498
31,1778255178010,-0.100917673,0.329233225,1.07800085,1.8088190499999999,0.038748994999999994,0.03808320325
32,1778255178020,-0.193830258,0.30292386600000004,1.0094696,1.45206206,-0.464668328,-0.191428026
33,1778255178030,-0.21794313,0.27017137,0.81417495,1.3326459,-0.73769563,-0.23861924
34,1778255178040,-0.16266416150000002,0.22605802375,0.7263143424999999,1.3326459,-0.73769563,-0.23861924
35,1778255178050,0.0031727440000000003,0.09371798499999999,0.46273252,0.9289867214285714,-1.3882678228571428,-0.5072180685714286
36,1778255178060,-0.3360668,0.18231077,0.6445552,0.5118596,-2.07407,-0.7680557
37,1778255178070,-0.421181795,0.30494953999999996,1.10801995,0.6194512999999999,-2.35023975,-0.750478815
38,1778255178080,-0.433152812,0.366720418,1.41479988,1.00731404,-2.66571784,-0.662274892
39,1778255178090,-0.42905265,0.37194324,1.4528728,1.1941614,-2.6919234,-0.6151902
40,1778255178100,-0.309757458,0.330746392,1.41772864,1.6996293999999998,-2.8138962,-0.5502091
41,1778255178110,-0.08712844000000002,0.09884319000000001,1.0257727,2.07407,-3.1047132000000004,-0.5789712
42,1778255178120,-0.08712844,0.09884319,1.0257727,2.2700787,-3.5132422,-0.6689861
43,1778255178130,-0.212671486,-0.0013179092000000004,0.485429888,1.6619191399999997,-5.40973234,-0.7098922400000001
44,1778255178140,-0.28709268,0.03668993733333333,0.4451603966666666,1.5856462,-5.570800299999999,-0.68816084
45,1778255178150,-0.3761532325,0.22502078749999999,0.6227120875000001,1.31653375,-5.56014765,-0.4266384125
46,1778255178160,-0.38512233,0.27212384,0.6657882,0.8111989,-4.8783784,0.13422333
47,1778255178170,-0.13179092,0.30043447,0.42587992999999996,0.1750229528,-2.11380424,0.654498506
48,1778255178180,-0.06215324866666667,0.25601604333333333,0.4737151366666667,-0.07882956466666667,-0.51363502,0.9766700333333334
49,1778255178190,-0.027334413,0.23380683,0.49763274,-0.12623383,-0.05912218,1.0727214
50,1778255178200,0.1863132948,0.214623942,0.501879336,-0.21624868999999997,1.1185277,1.216532
51,1778255178210,0.3287451,0.20183535,0.5047104,-0.42770368,1.2708606,1.2548815
52,1778255178220,0.34591046166666667,0.20521147333333334,0.5405461333333333,-0.4198917366666666,0.9092032833333333,1.1712582666666667
53,1778255178230,0.2255089,0.20085911,0.8422416,-0.101200126,-0.34301516,0.6460829
54,1778255178240,0.189083355,0.1915849325,0.8504175,-0.101200126,-0.34301516,0.6460829
55,1778255178250,-0.004148973333333333,0.14049561333333335,0.8432177333333334,0.14247911233333332,-0.027874419999999997,0.792556775
56,1778255178260,-0.13057062,0.09200958,0.65675807,0.2444782,0.020772656,1.0737866
57,1778255178270,-0.18157859,0.06199054,0.5193538,0.25353295,-0.07137272,1.3662016
58,1778255178280,-0.16807409666666664,0.046045466666666666,0.44125548666666664,0.3032452833333333,-0.3283677866666667,1.7745530166666665
59,1778255178290,-0.2047030275,0.0799897625,0.2832284375,0.2320944875,-0.433695805,2.0180104500000002
60,1778255178300,-0.40171823,0.29774985,0.18523945,-0.03781689,-0.29294774,2.3409185
61,1778255178310,-0.42197496,0.44442827,0.3214234,-0.2977414,-0.6034723,2.630138
62,1778255178320,-0.16406748,0.44058437,0.548213575,-0.35420042,-2.0282636,2.7126958
63,1778255178330,0.416264056,0.245033486,1.06936118,0.297741436,-3.39350656,2.34070556
64,1778255178340,0.564455606,0.181529786,1.2302437400000001,0.58994346,-3.7638990399999996,2.1848574
65,1778255178350,0.60135704,0.15912533,1.304486,1.1068097,-3.880226,1.9334549999999997
66,1778255178360,0.439205388,0.26519261,1.1705474,1.9269568799999999,-3.08511236,1.6062058000000001
67,1778255178370,-0.10878852,0.6825671,0.795382595,2.22800055,-1.7182715,1.81281385
68,1778255178380,-0.2428369675,1.0205254,0.60025879,1.988715625,-1.2277172749999998,2.13798575
69,1778255178390,-0.24015234,1.0933765,0.5610876,1.9041602999999998,-1.160073,2.2152174
70,1778255178400,0.1300011566666667,1.1852233666666667,0.5169132566666667,1.5448110333333334,-0.9938917333333332,2.2979529333333333
71,1778255178410,0.7008347639999999,1.1639578,0.731537208,1.1186342059999999,-1.119806,2.18954452
72,1778255178420,1.6738666666666664,1.1430421833333333,2.997511016666667,1.0119124883333332,-3.7982892666666666,0.5185174666666666
73,1778255178430,1.9603898000000002,1.0268709,3.3844638,1.7121463000000001,-3.7907436500000005,0.06524745
74,1778255178440,2.1633930714285716,0.8318168371428571,3.369245,2.7761552142857147,-2.9085524428571428,-0.40434392857142853
75,1778255178450,2.0954754,0.7580418,3.0463226,3.7939394,-1.7411747,-0.96992326
76,1778255178460,2.0057437333333334,0.7662584,2.8652321666666665,3.944496733333333,-1.2085425,-1.11231362
77,1778255178470,1.5815259142857143,0.7412715942857143,1.7336431857142858,3.903813742857143,-0.28138198571428574,-1.204281442857143
78,1778255178480,1.267999375,0.771892065,1.40351225,3.5254927,0.987633325,-1.217597275
79,1778255178490,1.177088,0.7844,1.3362135,3.4509242,1.1169298,-1.2128036
80,1778255178500,0.89813066,0.5762192,0.94303715,2.67903358,1.5913985199999998,-1.47144972
81,1778255178510,0.89813066,0.5762192,0.94303715,2.5571673,1.6026903,-1.5169365
82,1778255178520,0.89813066,0.5762192,0.94303715,2.5917884,1.1576761,-1.45754805
83,1778255178530,0.5338752200000001,0.21306197,1.03248422,2.9328060999999996,0.305198255,-1.2962937
84,1778255178540,0.5005614,0.11861181,0.99355704,3.0349383,0.16937704,-1.2623384
85,1778255178550,0.5005614,0.11861181,0.99355704,3.0349383,0.16937704,-1.2623383999999997
86,1778255178560,0.5005614,0.11861181,0.99355704,3.0349383,0.16937704,-1.2623384
87,1778255178570,0.3418428566666667,-0.0068336099999999995,0.7062203233333334,3.2174536333333332,-0.06143025333333332,-1.2236337333333334
88,1778255178580,0.11991346333333334,-0.08452516466666667,0.37438381666666665,3.3880736500000004,-1.55422075,-0.9707222500000001
89,1778255178590,0.015375605,-0.1295944,0.30861037999999996,3.4000579,-2.4525050999999998,-0.76086515
90,1778255178600,-0.07748817699999999,-0.23039004999999999,0.11653733,3.2402682499999997,-3.4184336999999996,-0.6325008
91,1778255178610,-0.073949344,-0.27456442,-0.02318544,3.0711575000000004,-3.9201732,-0.6354303
92,1778255178620,-0.26707999466666665,-0.44898400666666666,-0.11804235333333334,2.3570751666666667,-3.6897209333333336,-0.3044881133333333
93,1778255178630,-0.44140194800000004,-0.5544980840000001,-0.027090353,1.79774028,-3.43388,0.10610033200000002
94,1778255178640,-0.4932397,-0.56670094,0.065163285,1.59960108,-3.2679118000000003,0.5931392600000001
95,1778255178650,-0.4778641,-0.68262813,0.17450093,1.557816075,-3.484746325,1.3370400500000001
96,1778255178660,-0.403573062,-0.742959056,0.174256872,1.61099942,-3.89258296,1.6091885000000001
97,1778255178670,-0.196661332,-0.8213502440000001,0.296529552,1.6927053,-3.850931,2.0548952
98,1778255178680,0.1001244925,-0.8984967875,0.2851808925,1.72266585,-3.2329445000000003,2.32174385
99,1778255178690,0.198459225,-0.9128554916666666,0.2630937116666667,1.7326527,-3.026949,2.4106934
100,1778255178700,0.38713582,-0.7807391125,0.24936549000000002,2.1848574,-0.87511474,3.9473374
101,1778255178710,0.715282956,-0.751257004,0.242055984,2.2392924,-0.621262224,3.9540486
102,1778255178720,1.56086805,-1.13120533,-0.030751204999999986,2.3669289,1.1589189733333332,3.17306765
103,1778255178730,1.6529999,-1.5624546,-0.302631,1.5520903,2.4943168,1.1930962
104,1778255178740,1.6529999,-1.5624546,-0.302631,1.5520903,2.4943168,1.1930962
105,1778255178750,1.0272370066666665,-1.1479639666666666,-0.34623588666666666,1.1164858833333333,3.9113846833333334,1.1266059333333334
106,1778255178760,0.23014597333333334,-0.5873644666666668,-0.46989157,0.6441298866666667,3.9796504,1.4176894666666666
107,1778255178770,-0.180846416,-0.259676924,-0.581149126,0.158617864,3.92027968,1.84567722
108,1778255178780,0.00976229,-0.16791138,-0.5981843,-1.6932379000000002,3.409379,3.7124467
109,1778255178790,0.20764391399999998,-0.156196636,-0.571240396,-1.9970513,3.2172052399999997,3.87031882
110,1778255178800,0.8119784766666666,-0.07891184666666666,-0.4328762066666667,-2.79658555,2.6197516,4.1878208
111,1778255178810,1.19063327,0.0020744870000000033,-0.28676725999999997,-3.5782233000000003,1.7840517,4.2725094
112,1778255178820,2.0642360999999996,0.060343153499999996,0.12758092000000001,-3.951731625,1.268463705,4.20925935
113,1778255178830,2.5188335499999996,0.0135045005,0.38931197,-4.8613343,0.060720075000000005,3.9089879999999995
114,1778255178840,2.60402985,-0.01592473605,0.54613909,-4.8339038,0.1446096475,3.8866174
115,1778255178850,2.7707004000000004,-0.05108931863333333,1.0647404,-4.683257533333333,0.31709371999999997,3.8440067333333334
116,1778255178860,2.9116375714285714,0.013074494942857144,1.3851643142857142,-4.2144903,0.5696121285714286,3.7302517714285712
117,1778255178870,3.108069,0.11495096,1.607117,-3.431927,0.7677005766666666,3.3861207666666666
118,1778255178880,3.0051379000000003,0.510445715,1.7098041,-2.1619542,0.91346425,2.6312033
119,1778255178890,2.8989120000000006,0.71142685,1.6861916,-1.8642128,0.86392945,2.3691483
120,1778255178900,2.533802275,0.937240855,1.4551303249999998,-1.404151725,0.4293015625,1.850497575
121,1778255178910,2.3056900500000004,1.0619337583333333,1.27650075,-1.0904757333333335,0.16032230666666666,1.3677996
122,1778255178920,1.9275030499999999,1.3827672875,1.1687292249999999,-0.9651296,0.16884442,0.9779128
123,1778255178930,1.5470788500000001,1.61297435,1.3002150499999998,-0.80360885,-0.788428895,0.10879013750000001
124,1778255178940,1.3384099,1.7049840000000003,1.3908823000000001,-0.5853628,-1.6181368,-0.20612867
125,1778255178950,1.0277251,1.5917413,1.415532,-0.128897,-2.0756679,-0.13582122
126,1778255178960,1.0451142249999998,1.533167575,1.2513424499999999,0.97471696,-2.2264028,0.014913702
127,1778255178970,1.0970373,1.3559821,0.9093573,1.4146712,-2.0586236,-0.25726137
128,1778255178980,1.0247964,1.3191295,0.6977597,1.448227025,-1.7554226,-0.4338289425
129,1778255178990,1.0247964,1.3191295,0.6977597,1.4413028,-1.56924098,-0.533484426
130,1778255179000,0.78806084,1.3274274,0.1461903,0.72917354,-0.5107943,-1.1978899
131,1778255179010,0.78806084,1.3274274,0.1461903,0.72917354,-0.5107943,-1.1978899
132,1778255179020,0.65468357,1.2471325500000001,0.18218874,0.44474792,-0.15313176000000003,-1.4724618000000003
133,1778255179030,0.311173,0.9200958,0.22794947,0.033023197,0.6194513,-1.9355854999999997
134,1778255179040,0.31703037,0.876043475,0.2150754475,0.012516856999999998,0.754074075,-2.023869275
135,1778255179050,0.30987136,0.6602562000000001,0.23844394,-0.03905969633333333,1.1618484,-2.479403
136,1778255179060,0.099087246,0.5559624,0.39073566,0.09960223,1.0785803,-2.7760792
137,1778255179070,-0.10543272466666666,0.5310685333333334,0.56531792,0.09960223,1.0785803,-2.7760792
138,1778255179080,-0.21631607,0.5438409000000001,0.5520574833333334,0.6471481533333333,1.1060995666666666,-2.5266296666666666
139,1778255179090,-0.0538756369,0.5956217075,0.464990075,0.7701862,1.117995,-2.4335966
140,1778255179100,0.1455394736,0.66660168,0.4794098,1.0029464533333334,1.5796096666666666,-1.6699796000000002
141,1778255179110,0.3326151657142857,0.7315441542857143,0.5563459428571429,0.9666514128571428,1.9660976857142856,-1.6579319
142,1778255179120,1.0355349,0.865427,0.959145,1.033129,2.491476,-1.8105944666666665
143,1778255179130,1.0885441400000002,0.874603548,1.03890292,1.2480638800000001,2.67168322,-2.02080672
144,1778255179140,1.1668865400000001,0.8957877059999999,1.19485552,1.68695284,2.63972528,-2.29873424
145,1778255179150,1.1638277333333333,0.9335189466666667,1.3788421,2.433064,2.1923141,-2.457565
146,1778255179160,1.1821436,0.9732654371428572,1.4712467714285715,2.629377057142857,2.0482751857142856,-2.4591629285714283
147,1778255179170,1.4340804,1.1517061,1.3791674,3.1510524,1.53850815,-2.44345035
148,1778255179180,1.4960709250000002,1.1730000999999999,1.378313225,3.43414635,1.1377024,-2.45516825
149,1778255179190,1.6820425,1.2368821,1.3757507,3.4532068714285713,1.0501985714285715,-2.529622642857143
150,1778255179200,2.11841685,1.2711111750000001,1.4925321,3.4432011,1.0737866,-2.7130955
151,1778255179210,2.144653,1.2754432500000001,1.5126667999999999,3.4603784749999997,1.2287826,-3.0096382999999998
152,1778255179220,2.4986582,0.97549677,1.7506226,3.9079227,1.4780544,-3.5521243
153,1778255179230,2.4475687333333336,0.9073234833333333,1.6897710666666665,4.1012683,1.3933659,-3.5452
154,1778255179240,2.422024,0.87323684,1.6593453,4.1012683,1.3933659,-3.5452
155,1778255179250,2.3254588333333333,0.6778283666666667,1.4489679333333332,4.3659863,0.9491506,-3.5734295999999994
156,1778255179260,2.22038416,0.37438383000000003,1.2654369,4.44683996,0.7321562559999999,-3.6146553599999995
157,1778255179270,1.6671957666666668,-0.10950035833333334,0.94145085,4.5848982666666664,0.3195793433333333,-3.596155233333333
158,1778255179280,1.3953973,-0.297261725,0.8470006800000001,4.80301115,-0.43675843000000003,-3.4109767499999997
159,1778255179290,1.2254114,-0.40952805,0.8066092,4.8528123,-0.65726817,-3.3177662
160,1778255179300,0.90691674,-0.65675807,0.8395569,5.00408,-1.1984226,-3.005111
161,1778255179310,0.720456948,-0.9939475340000001,0.7462293799999999,5.2309814,-1.51224948,-2.58997742
162,1778255179320,0.673842,-1.0782449,0.7228974999999999,5.382248999999999,-1.7214674,-2.3132217
163,1778255179330,0.30573399857142863,-1.3385494999999998,0.24220938,4.953479571428572,-1.3280042857142857,-1.5523185571428573
164,1778255179340,0.036852647,-1.3801438,0.11861181,4.3508064,-0.91492905,-1.092828125
165,1778255179350,-0.44540447,-1.4338363,0.00024405724,4.060788,-0.7866978,-0.8223842
166,1778255179360,-0.627430495,-1.4313957166666667,-0.036567909626666666,3.4349453333333333,-0.59450635,0.026276508333333337
167,1778255179370,-0.7879795,-1.4190301333333333,-0.076145861,2.9381769666666666,-0.40799629666666665,0.8191883633333333
168,1778255179380,-0.9554841,-1.381364,-0.11812369999999998,2.5704832,-0.24714136,1.454086
169,1778255179390,-0.9657345239999999,-1.3683801599999998,-0.12280959999999999,2.4345554399999996,-0.186847388,1.7142235999999997
170,1778255179400,-0.8029483599999999,-1.3096112,-0.0959145,1.6996294,0.07829694,3.294863
171,1778255179410,-0.65797836,-1.2678773,-0.09152147,1.4848010666666667,0.05344076666666667,3.796868833333333
172,1778255179420,-0.5393665139999999,-1.2374190200000001,-0.09371798,1.33349802,0.0034088456000000017,4.1222538
173,1778255179430,-0.20321833,-1.1663495666666666,-0.12186591333333334,1.1476449,-0.087351684,4.4544033999999995
174,1778255179440,0.09786696,-1.0941086,-0.17547716,0.8036532166666667,-0.25220137000000004,4.750547016666666
175,1778255179450,0.25040275,-1.0291895,-0.2562601,0.52357745,-0.28708878,4.7990165
176,1778255179460,0.3210573175,-0.983611775,-0.323253835,0.30786141499999997,-0.225969225,4.7746484
177,1778255179470,0.364621535,-0.9357155,-0.378654825,0.06364954999999999,-0.12543489,4.7449541
178,1778255179480,0.39342029000000006,-0.8424856,-0.41335161666666664,-0.6153677566666667,0.2753708666666667,4.6825475
179,1778255179490,0.39939969000000003,-0.81240554,-0.39714214999999997,-0.86872315,0.43569317,4.66213
180,1778255179500,0.42429355,-0.8308522516666667,-0.28160139666666667,-1.3683321499999999,0.9106235666666667,4.644375666666667
181,1778255179510,0.4401165866666667,-0.8380926133333334,-0.2521925,-1.4567491333333333,0.9983303333333332,4.645796066666667
182,1778255179520,0.66871685,-0.8390688000000001,-0.2638259,-1.8253306,1.0359697,4.5161886
183,1778255179530,0.6796995,-0.78415596,-0.2967736,-1.9286613,0.8772453,4.5263085
184,1778255179540,0.674269215,-0.7490117075,-0.3228267125,-1.9683424,0.819055225,4.59954545
185,1778255179550,0.80990398,-0.5673110650000001,-0.496778525,-2.2373216499999997,0.47643953499999997,5.0765178
186,1778255179560,1.6632501,-0.38878322,-0.7907455,-2.871953,0.0628506,5.810485
187,1778255179570,2.5331922000000002,-0.32264368499999996,-0.839312885,-3.501258,-0.08069378499999999,5.95775775
188,1778255179580,3.9377823,-0.2491824433333333,-0.7748004033333333,-4.589692,-0.28122982,5.944708299999999
189,1778255179590,4.378997125,-0.2400913175,-0.6409553375,-4.685033000000001,-0.23595608,5.849633450000001
190,1778255179600,5.0867631499999995,-0.1044565035,-0.1381364,-4.5838327,0.29561088,5.3652043
191,1778255179610,5.2728567,0.014887493,0.13276714,-4.3872914,0.7819040999999999,4.97585
192,1778255179620,4.478206,0.1432616,0.29701766,-3.6330845,1.3768543,3.8440068
193,1778255179630,4.2199936,0.19841854,0.4424758,-3.6330845,1.3768543,3.8440068
194,1778255179640,4.2199936,0.19841854,0.4424758,-3.6330845,1.3768543,3.8440068
195,1778255179650,3.8520773999999998,0.49311766,0.5335091249999999,-2.7326696999999998,0.9909622650000001,2.86689295
196,1778255179660,3.6274228,0.66066295,0.50715095,-1.5531556,0.48948903000000005,1.4468954500000002
197,1778255179670,3.0287504,0.740835755,0.38219363999999995,-0.7769328733333333,0.20453077666666666,0.22743397333333334
198,1778255179680,2.430078,0.82100856,0.25723633,-0.52837116,0.11984225,-0.16085494
199,1778255179690,1.9178019,0.8744571,0.14887492,-0.3073288,0.037284255,-0.37603834
200,1778255179700,0.97647303,1.0333383,0.026602242000000005,-0.029401302000000008,-0.2211489084,-0.402989542
201,1778255179710,0.9764730299999999,1.0333383,0.026602242,0.10333065000000001,-0.36751625,-0.39627838
202,1778255179720,0.8402542942857142,1.0311417857142857,-0.025626010857142858,0.10333065,-0.36751625,-0.39627838
203,1778255179730,0.575487,1.1187584,-0.13520771,0.18908444,-1.0375676,-0.74941355
204,1778255179740,0.575487,1.1187584,-0.13520771,0.18908444,-1.0375676,-0.74941355
205,1778255179750,0.3852850366666667,1.1506892833333333,-0.15664408333333332,0.058056909999999996,-1.1556343666666666,-0.78723044
206,1778255179760,0.3687705,1.1499978,-0.15668476,-0.019174765,-1.14276245,-0.803209415
207,1778255179770,0.27486948,1.1670207000000001,-0.18560554,-0.24820662,-0.9914949000000001,-0.9515475
208,1778255179780,0.20777407333333334,1.1643971333333334,-0.15245442666666667,-0.51079431,-0.6860303200000001,-1.1130238666666668
209,1778255179790,0.18987654,1.1602482,-0.13105874,-0.5811017650000001,-0.3028014311,-1.22265735
210,1778255179800,0.086298641,1.2167230199999999,-0.023624740400000004,-0.5837649199999999,0.24192156956000002,-1.40529688
211,1778255179810,-0.053692598,1.3352373,0.07980672,-0.48536112249999996,0.589357605,-1.4819160249999999
212,1778255179820,-0.0802338235,1.371418775,0.09438914,-0.3342267325,0.877511625,-1.491636575
213,1778255179830,-0.18011425,1.55183805,0.14838680499999998,-0.198938142,1.0229202,-1.4389059499999999
214,1778255179840,0.38975942,1.8433644,0.077122085,0.29241508,1.0253171,-1.3821807
215,1778255179850,0.65907656,1.87789855,0.03612047,0.3818973,0.93397065,-1.5694009
216,1778255179860,1.140200557142857,1.9080396285714285,-0.040129985714285714,0.5168054257142857,0.68580205,-2.0332855142857142
217,1778255179870,1.8914437,1.7816179,-0.119343996,0.60507023,-0.014913702,-3.2629051
218,1778255179880,2.0935230333333332,1.4658078333333335,-0.10063293866666667,0.5947726566666667,-0.26809154733333335,-3.8942517
219,1778255179890,2.1945627,1.3079027999999997,-0.09127741,0.5896238699999999,-0.39468047,-4.209925
220,1778255179900,1.950261525,0.8365672375000001,-0.1333772765,0.36059202,-0.18761969750000002,-6.01048835
221,1778255179910,1.8999856999999998,0.77732235,-0.14082102,0.32490566,-0.11025487,-6.0991716
222,1778255179920,1.45624078,0.629618896,0.111534158,0.064128921,0.98174774,-5.7581805600000004
223,1778255179930,1.36293775,0.68567885,0.37828874999999995,0.17829863625,1.3366405499999998,-5.0315104
224,1778255179940,1.5456146333333332,0.7996942666666667,0.5660501433333334,0.27270769166666664,1.3032622666666667,-4.802922333333333
225,1778255179950,2.383219,1.0238202,0.80246025,0.8191883599999998,0.7030745,-4.3153863
226,1778255179960,2.515193,1.036572175,0.8164325125,0.89389002,0.604004915,-4.354934225
227,1778255179970,3.2516967500000002,0.9840388,0.8676235,1.3047713666666667,0.10705907999999999,-4.7178786666666666
228,1778255179980,3.6406019,0.7082541,0.8251576,1.8817897,-0.6130597,-5.58891
229,1778255179990,3.6406019,0.7082541,0.8251576,1.8817897,-0.6130597,-5.58891
230,1778255180000,3.3203985999999994,0.5183776,0.6050179,2.0586236,-1.1313108,-5.917544
231,1778255180010,3.218626825,0.5322889,0.523197715,2.0434435250000003,-1.17764985,-5.8404455
232,1778255180020,3.22409386,0.427978804,0.374969552,2.00557338,-1.079752064,-5.76830048
233,1778255180030,3.1901536666666668,0.22518348166666668,0.19793042333333333,1.9137475000000002,-0.6764429,-5.771602599999999
234,1778255180040,3.1781135,0.19915071,0.1786499,1.8964369749999999,-0.6219812625,-5.807022699999999
235,1778255180050,2.75106204,-0.0750720054,-0.006931225800000001,1.79869904,-0.37657099,-5.9789034
236,1778255180060,2.52443056,-0.165177936,-0.0606726306,1.6989903000000002,-0.20112193679999998,-6.099811
237,1778255180070,1.7962614499999998,-0.36755021,-0.15790504,1.266199975,0.520248529,-6.0846575
238,1778255180080,1.0875679200000001,-0.509445136,-0.1854347,1.008592368,0.96353168,-5.84169732
239,1778255180090,0.9354714,-0.528384,-0.17401282,0.9325324799999999,1.08987206,-5.72728784
240,1778255180100,0.718077415,-0.563040115,-0.16632501500000002,0.69122346,1.395097025,-5.26094145
241,1778255180110,0.06589546,-0.66700846,-0.1432616,0.41598576000000004,1.6128104,-4.610997
242,1778255180120,-0.29701766,-0.7494998,-0.12520137,0.215183415,1.69297155,-4.20433235
243,1778255180130,-0.39000347333333335,-0.7461643666666667,-0.10982576333333334,-0.04971234333333333,1.7449031666666663,-3.6194135
244,1778255180140,-0.5759751,-0.7394935,-0.07907455,-0.2127485357142857,1.6440073857142856,-3.0856146714285715
245,1778255180150,-0.7663397,-0.7387613,0.058085624,-0.29987195,1.5329156,-2.6423886
246,1778255180160,-0.76255685,-0.74254417,0.265778337,-0.18988338999999999,1.29083425,-2.07753205
247,1778255180170,-0.5610876,-0.74486274,0.7665837999999999,0.7669904,0.5704491,-0.6982809
248,1778255180180,-0.4243545375,-0.741384885,0.768780325,1.1412977,0.45500107500000003,-0.5057343
249,1778255180190,-0.32820819,-0.7415923400000001,0.742080476,1.6384832799999998,0.354733068,-0.26557041868
250,1778255180200,-0.12715383,-0.7380291,0.59989274,2.5726137,0.28708878,0.09321064
251,1778255180210,-0.081881209,-0.73021925,0.545956075,2.7502465,0.31878039,0.105194865
252,1778255180220,0.003742210666666667,-0.7061389333333333,0.4231952833333333,3.03680265,0.38429414999999995,0.10812434249999998
253,1778255180230,0.044418417,-0.6772589,0.30458343,3.3204293,0.49481535,0.06764429
254,1778255180240,0.02129399275,-0.6672525499999999,0.2551008275,3.372627225,0.5217132725,0.06351639099999999
255,1778255180250,-0.06557004666666667,-0.62738985,0.07777291166666667,3.5345473333333337,0.59956634,0.06498113266666666
256,1778255180260,-0.169314715,-0.5732905150000001,-0.06070923875,3.516438,0.5656554,0.1635181
257,1778255180270,-0.21745501,-0.55571836,-0.111046046,3.4605117,0.5278385,0.26897928
258,1778255180280,-0.313450835,-0.5390411433333333,-0.17450092433333333,3.302497366666666,0.5251753916666667,0.5388462966666666
259,1778255180290,-0.3548592125,-0.527956875,-0.1924391325,3.19552705,0.565655435,0.71479245
260,1778255180300,-0.486894175,-0.4846977,-0.223556445,3.0253510500000003,0.7041398000000001,1.0282465
261,1778255180310,-0.5523015,-0.464685,-0.23893206,2.9305425,0.8016115,1.2197278
262,1778255180320,-0.660174845,-0.48292827250000003,-0.2891468225,2.376338675,1.7466342,2.687662225
263,1778255180330,-0.6972716,-0.53180075,-0.35144243,1.9734024,2.4586303,3.7683729999999995
264,1778255180340,-0.517157336,-0.5135452660000001,-0.342949242,1.5886288199999998,2.98018372,4.749161979999999
265,1778255180350,-0.17437890749999999,-0.468711945,-0.31172212,1.2463594,3.3473272,5.6717343
266,1778255180360,0.13292984333333333,-0.38910859999999997,-0.23437630333333334,1.1566109500000001,3.326820966666667,5.999125583333334
267,1778255180370,0.516425105,-0.36803832999999997,-0.208790975,1.2373047000000001,2.789395,6.5859974999999995
268,1778255180380,0.7344902600000001,-0.4385098675,-0.26620544,1.3379722,2.4517062,6.879478
269,1778255180390,0.77512586,-0.54961693,-0.38390204,1.3025141,2.4753703000000002,7.0181906142857144
270,1778255180400,0.77512586,-0.54961693,-0.38390204,0.8648615525000001,3.054379525,8.353404075
271,1778255180410,0.780251,-0.7219213,-0.5000733,0.78989357,3.2000544,8.52105
272,1778255180420,2.085713333333333,-1.1012676333333333,0.07931859333333335,0.63995765,4.8480187500000005,9.111207
273,1778255180430,2.85908192,-0.9371309999999999,0.44896772399999996,0.7728494,5.682121,9.097891
274,1778255180440,3.0839074,-0.8363842,0.53936654,0.7728494,5.682121,9.097891
275,1778255180450,3.1284071833333336,-0.7250127383333332,0.5043036466666666,0.7728494,5.6821209999999995,9.097891
276,1778255180460,3.129708766666667,-0.2949024866666667,0.21590931533333335,3.3893163333333334,3.9750343999999997,4.1410381
277,1778255180470,2.2258022,-0.082491346,-0.3121492,4.83150694,0.8141816399999999,1.4315024
278,1778255180480,2.2258022,-0.082491346,-0.3121492,5.119661,0.1272991,0.892159
279,1778255180490,2.2258022,-0.082491346,-0.3121492,5.119661,0.1272991,0.892159
280,1778255180500,1.35344388,-0.2105726052,-0.8582516800000001,5.26070204,-1.6883375399999998,0.12772520800000003
281,1778255180510,0.28994003,-0.42124277,-1.2703179,4.3627906,-2.3393207,0.47670585
282,1778255180520,-0.030751202500000005,-0.4532752925,-1.0766586,4.082892375,-2.021472425,0.9133311375
283,1778255180530,0.003294775,-0.4617156333333334,-0.8664846166666668,3.23307765,-0.8725403433333333,2.3454461416666668
284,1778255180540,0.23893206,-0.49226347,-0.6667644,2.84713232,-0.27355991199999996,3.1375234
285,1778255180550,0.7897693,-0.58939826,-0.43466597999999995,2.7904603,-0.039947417,3.7412088000000003
286,1778255180560,0.7897693,-0.58939826,-0.43466597999999995,2.7904603,-0.039947417,3.7412088000000003
287,1778255180570,0.98716276,-0.644457584,-0.483135714,2.7904603,-0.039947417,3.7412088
288,1778255180580,1.1415370666666667,-0.7312768666666667,-0.5787410566666666,2.855974,0.14771666433333333,3.547685766666666
289,1778255180590,1.1529264,-0.7563334,-0.61038715,2.9092371,0.15393071,3.4898064
290,1778255180600,1.2525018,-1.002099,-0.86225426,2.3214775,1.363538525,3.66677335
291,1778255180610,1.324498675,-1.11552465,-0.9223533375,2.251969,1.4705976,3.7049897
292,1778255180620,1.5765052428571429,-1.3966350571428572,-1.0206823,1.7737414,1.8448858000000001,3.8764214285714287
293,1778255180630,1.7291456,-1.5199885,-1.0221118,1.6659404,1.681786225,3.849066875
294,1778255180640,1.7291456,-1.5199885,-1.0221118,1.6389093,1.6250609,3.8386805
295,1778255180650,1.85844716,-1.5931080999999998,-1.0143019,1.58031976,0.41374868600000003,3.5639486400000004
296,1778255180660,1.9218289,-1.5990631,-0.975740835,1.6045546,-0.5547364850000001,3.2911345
297,1778255180670,1.96807776,-1.58568876,-0.921804176,1.64178556,-1.0637731000000001,3.15861558
298,1778255180680,2.03743872,-1.5857375999999999,-0.8781179699999999,1.74447708,-1.9228023,3.0486803799999995
299,1778255180690,2.1295214749999998,-1.562393475,-0.8803755225,1.73678055,-2.087119375,3.053181125
300,1778255180700,2.2455707,-1.4867967,-0.88275504,1.6820525999999998,-2.3228092,3.0727552999999994
301,1778255180710,2.4071367,-1.343291,-0.8759214,1.5574167,-2.324407,2.996589
302,1778255180720,2.81330895,-0.884219425,-0.6775029499999999,1.292165775,-2.256230225,2.5149563500000003
303,1778255180730,2.9149385,-0.6485007583333333,-0.55844365,1.0780476,-2.13479,1.8386464
304,1778255180740,2.919901,-0.62014943,-0.5444917,1.0780476,-2.13479,1.8386464
305,1778255180750,2.919901,-0.62014943,-0.5444917,1.0780476,-2.13479,1.8386464
306,1778255180760,2.5733395428571426,-0.29576250428571427,-0.3529067928571429,0.5592638028571428,-1.0982115885714285,-0.2957630671428571
307,1778255180770,1.8443406,-0.21672285,-0.09811102,0.44741106,-0.78776306,-0.72491246
308,1778255180780,1.7712454499999999,-0.2110485175,-0.0760238375,0.315185115,-0.09547433,-1.380449615
309,1778255180790,1.55196,-0.19402552,-0.009762289999999998,0.2711098,0.13528858,-1.598962
310,1778255180800,1.3067638,-0.16864356666666666,0.076552622,0.36662850666666663,0.7936220333333334,-1.9643476333333334
311,1778255180810,1.2210671400000002,-0.157856232,0.10787330479999999,0.40235038,0.761131472,-1.9491143400000002
312,1778255180820,0.937570324,-0.10055158639999999,0.270513052,1.0249974800000001,0.393082574,-1.9123627200000002
313,1778255180830,0.94620997,-0.02660224025,0.3008615725,1.40588275,-0.09467538,-2.004960825
314,1778255180840,0.9562163399999999,-0.017328065,0.29897013,1.4647386,-0.18162759,-2.0351877
315,1778255180850,0.964904716,0.0070776599999999995,0.237370078,1.6165388,-0.424933988,-2.18720088
316,1778255180860,0.94254905,0.024893839,0.18426323,1.8636800999999998,-0.8748484249999999,-2.5297367499999996
317,1778255180870,0.8726999,0.05418070960000001,0.12349296800000001,1.9212044,-1.0759170900000001,-2.7516845400000003
318,1778255180880,0.7812273,0.09859913,0.033435844,1.9355854999999997,-1.2181299,-2.9332056
319,1778255180890,0.7812273,0.09859913,0.033435844,1.9355855,-1.2181299,-2.9332056
320,1778255180900,0.7431543333333334,0.09802966333333334,0.013585853913333333,1.5747271999999999,-1.1274936,-2.9697797166666664
321,1778255180910,0.6980037,0.09152147,-0.00073217176,1.7214674,-1.190433,-3.0695596
322,1778255180920,0.6980037,0.09152147,-0.0007321717600000001,1.4603000433333335,-1.1281150333333334,-3.0070640666666666
323,1778255180930,0.91838744,0.11771694166666667,0.24015232333333333,0.8804410433333333,-1.0183928333333334,-2.9129656666666666
324,1778255180940,0.96451426,0.11543907,0.28286234,0.8516789,-1.0258497,-2.928412
325,1778255180950,0.96451426,0.11543907,0.28286234,0.92624745,-1.0301107250000001,-3.1388017
326,1778255180960,1.4174031999999999,0.008623355333333334,0.5998113733333333,0.9511036333333335,-1.0315310666666666,-3.2089316
327,1778255180970,1.652389675,-0.04435740675,0.7357106,1.40881225,-0.9118663499999999,-3.7337519
328,1778255180980,1.98965222,-0.0662859478,0.852345504,1.88583764,-0.77828222,-4.0416134
329,1778255180990,2.3644264666666666,0.008297946666666667,0.8367095433333334,2.1097562499999998,-0.7283745850000001,-4.077033299999999
330,1778255181000,2.894763,0.06662763,0.75194037,2.3845944,-0.7755125,-4.203001
331,1778255181010,3.20227524,0.0365597756,0.716015114,2.42006784,-0.8237690000000001,-4.360234
332,1778255181020,3.5495687000000005,-0.06321083,0.65993077,2.4975126,-0.92997587,-4.8352356
333,1778255181030,3.66342125,-0.1461292775,0.6035535925,2.50230615,-0.95714012,-5.1160659
334,1778255181040,3.7049632285714287,-0.2081111,0.5601811428571428,2.4857184285714284,-0.943215592857143,-5.275874528571428
335,1778255181050,3.747499,-0.5769514,0.33020946,2.2716765,-0.6045376,-5.765211
336,1778255181060,3.759702,-0.65358535,0.280909895,2.2050973999999997,-0.45833005000000004,-5.818208
337,1778255181070,3.7424088285714285,-0.8191258428571428,0.14500486428571427,1.9382486,0.02609898,-6.0443106
338,1778255181080,3.5891058,-0.94352525,0.046614934,1.80935165,0.19148129,-6.162555
339,1778255181090,3.2679264,-1.067994525,0.026236153999999998,1.4000238,0.6692524,-6.4917217
340,1778255181100,2.5971349999999997,-1.2760533,0.027822524,0.8639294833333334,1.31098545,-6.820266916666667
341,1778255181110,2.0447116,-1.3935668,0.08786061,0.6998787599999999,1.5433906333333332,-6.854088966666667
342,1778255181120,2.0447116,-1.3935668,0.08786061,0.5864281,1.7134778,-6.621684
343,1778255181130,0.8119377999999999,-1.6138285666666665,0.29774985,0.7724055166666667,1.72546205,-6.339832749999999
344,1778255181140,0.434116835,-1.62725175,0.313918635,0.934636425,1.629188825,-6.078931575
345,1778255181150,0.069995619,-1.6000393599999998,0.338068104,1.13653066,1.43352632,-5.62470268
346,1778255181160,-0.309171718,-1.5444431,0.38575688,1.3095296,1.19053948,-5.11976748
347,1778255181170,-0.62937484,-1.48381922,0.383511552,1.79230752,0.7569769199999999,-3.8631816
348,1778255181180,-0.7551131600000001,-1.46448998,0.31854352399999997,2.040514,0.58269966,-2.9598372
349,1778255181190,-0.8110022,-1.445307,0.26504618,2.159291,0.54435015,-2.3105586
350,1778255181200,-0.77311235,-1.428467025,0.2403353675,2.2483737500000003,0.5663212424999999,-1.7716679249999998
351,1778255181210,-0.7325785166666666,-1.4134168666666669,0.21948881,2.30869435,0.61519024,-1.3491574
352,1778255181220,-0.5105677,-1.3462198,0.14130914,2.392584,0.9235843000000001,-0.39148468
353,1778255181230,-0.467369605,-1.3372507,0.135451775,2.4293356,1.0130665,-0.15446335
354,1778255181240,-0.45126185,-1.3179091,0.10958171,2.4682178,1.0567423,0.03568636
355,1778255181250,-0.56645685,-1.2844733,0.013911263,2.5049694,1.0588728,0.23222765
356,1778255181260,-0.56645685,-1.2844733,0.013911263,2.5049694,1.0588728,0.23222765
357,1778255181270,-0.6178832428571429,-1.2794177999999998,-0.06767358914285715,2.4817618857142856,0.8827237571428571,0.9867391828571429
358,1778255181280,-0.6343048,-1.2781278,-0.16522676,2.4746094,0.8580705,1.0721886
359,1778255181290,-0.6343048,-1.2781278,-0.16522676,2.4746094,0.8580705,1.0721886
360,1778255181300,-0.5953253714285714,-1.2772212285714286,-0.2526689971428571,2.1408771285714283,0.47503184285714284,2.0737655285714287
361,1778255181310,-0.569385555,-1.26202,-0.293478845,1.9928434,0.3599262175,2.3738087
362,1778255181320,-0.5177674250000001,-1.2366991,-0.3425953525,1.84770115,0.27324032600000003,2.605370525
363,1778255181330,-0.386342615,-1.19990745,-0.41709384,1.5361114,0.103863284,3.059972
364,1778255181340,-0.30263098,-1.18624025,-0.44198768,1.5361114,0.103863284,3.059972
365,1778255181350,-0.1358910702,-1.1811395,-0.5292625400000001,0.92986936,0.0952346456,3.6716468000000004
366,1778255181360,-0.0036608586,-1.2442038,-0.6347929,0.2146508,0.18162759000000003,4.3398876
367,1778255181370,0.05572640313333333,-1.2526644333333332,-0.6347115666666666,-0.13795174,0.3840278166666667,4.8922269
368,1778255181380,0.12983845,-1.2461562,-0.6389419,-0.2860235,0.54168695,5.2576127
369,1778255181390,0.5427833,-1.274955,-0.86371857,-0.5123922,0.99548966,6.0022326
370,1778255181400,0.9757409,-1.4079663,-1.090936,-1.5712651,2.8064392,8.31865
371,1778255181410,1.61984865,-1.5737218000000002,-1.28272425,-2.3000836000000002,3.6484420333333336,9.0536825
372,1778255181420,2.7261195,-1.6637384,-1.2517697,-3.3832798,4.734035,9.562346
373,1778255181430,3.570130575,-1.557573425,-0.9356544875,-3.7444045499999996,5.097823,9.4084155
374,1778255181440,5.177674533333334,-1.1559365266666666,0.07695939000000003,-4.286180216666667,6.039516833333333,7.198524583333334
375,1778255181450,6.280813275,-0.7381511375,1.0720214650000002,-3.6730318,6.1204767,4.8581386
376,1778255181460,6.41153036,-0.596524702,1.35964294,-3.46061804,6.051021459999999,4.46548212
377,1778255181470,5.9905317,-0.248157412,1.8139799,-1.89766206,5.409839,1.8897791600000002
378,1778255181480,5.28091075,-0.135573805,1.65397595,-0.9289106349999999,4.80381025,0.63250077
379,1778255181490,3.77278328,0.04593157399999999,0.95445908,-0.05283712599999999,3.95575314,-0.259817996
380,1778255181500,2.5164742,0.35974038,0.31385764,0.5320996,2.6530411,-0.6466155
381,1778255181510,2.41177365,0.40751458500000004,0.26950023,0.5320996,2.6530411,-0.6466155
382,1778255181520,1.9760095,0.581222315,0.159491415,0.507509745,2.567376083333333,-0.62868355
383,1778255181530,1.4043053,0.61209553,0.32508424,0.036751624,0.9763149,-0.53529537
384,1778255181540,1.2203471750000001,0.61136338,0.4387539325,0.0375505735,0.1625859975,-0.5520732975
385,1778255181550,0.97151055,0.597492805,0.591147305,0.15144508999999998,-0.49481532833333325,-0.5057343066666667
386,1778255181560,0.8279642,0.58976435,0.6682287,0.27137611500000003,-0.7576693299999999,-0.45060687
387,1778255181570,0.7219213,0.5847612,0.7224094,0.3685815,-0.94329166,-0.40586576
388,1778255181580,0.5229333133333333,0.6265763233333334,0.78134924,0.93095235,-1.4419241666666667,-0.10333064766666666
389,1778255181590,0.26553428,0.7133793,0.754625,1.1579424,-1.5169365,0.06977482
390,1778255181600,0.24389454000000002,0.7289989933333333,0.7150877333333333,1.1927410666666667,-1.5098347666666667,0.11220785333333334
391,1778255181610,0.23307467,0.73680884,0.6953191,1.2676647285714286,-1.4896962571428571,0.20841137714285715
392,1778255181620,0.2414946425,0.750720095,0.655354725,1.31693325,-1.386708,0.294811935
393,1778255181630,0.303546185,0.7878168000000001,0.56938555,1.34409745,-1.2695289,0.277767705
394,1778255181640,0.31548465,0.7857016333333333,0.561779095,1.3590998833333332,-1.2011744333333334,0.22645746666666666
395,1778255181650,0.3321619,0.7665838,0.54815257,1.3848438,-1.1084076,0.1470065
396,1778255181660,0.34607317833333334,0.7097591283333333,0.525170555,1.42745445,-0.9606910083333333,0.0255663465
397,1778255181670,0.330551146,0.634207144,0.49216584399999996,1.46601698,-0.744300286,-0.09470200879999999
398,1778255181680,0.29774985,0.53131264,0.4634647,1.5030881,-0.35100463,-0.2561961
399,1778255181690,0.23859037,0.436032664,0.5218432359999999,1.6057797,0.029933938000000004,-0.15307849999999998
400,1778255181700,0.30409533,0.35046622,0.59086263,1.8429074999999997,0.5251754,-0.10439592
401,1778255181710,0.3330771275,0.34985607750000003,0.5937302975000001,1.887382325,0.6082660175,-0.1018659175
402,1778255181720,0.5387563599999999,0.33997174999999996,0.580246115,2.2750498666666665,1.3457840900000002,-0.17381565666666665
403,1778255181730,0.77053756,0.31610293,0.47615570599999996,2.4021714,1.5899072,-0.21358552999999997
404,1778255181740,0.7987994,0.3121492,0.45565490000000003,2.4021714,1.5899072,-0.21358553
405,1778255181750,0.9667805385714285,0.35817145,0.21811745000000002,2.6062454571428573,1.9204435142857144,-0.9404003042857144
406,1778255181760,1.0135698,0.37609223,0.14594623,2.6402578,1.9755329,-1.0615361
407,1778255181770,1.06811655,0.418802235,0.18438525500000003,2.61975155,1.5821839999999998,-1.2010857000000001
408,1778255181780,1.200965133333333,0.51947584,0.34546304666666666,2.6241014666666667,0.6957064333333333,-1.4382846333333335
409,1778255181790,1.40808835,0.6202104850000001,0.656819075,2.8943236,-0.49215218,-1.7086842
410,1778255181800,1.6591500199999998,0.700688332,0.88070498,3.03408632,-0.697535156,-1.83438548
411,1778255181810,1.80573084,0.7427638040000001,0.927124676,3.1163247600000004,-0.8319715239999999,-1.9425097999999998
412,1778255181820,2.0873404,0.83321142,0.9561349333333333,3.1927752,-1.03739004,-2.1156152
413,1778255181830,2.2816913,0.882877075,0.982208365,3.1646344,-1.3584785000000001,-2.31455335
414,1778255181840,2.91789976,0.86498772,1.1464345599999999,3.03472544,-1.90149702,-2.79205812
415,1778255181850,3.585566875,0.669021925,1.361656475,3.0085732,-2.4036359999999997,-3.4354779
416,1778255181860,3.7838634333333334,0.5270822833333334,1.4341617666666666,3.059262066666667,-2.5486451333333333,-3.7371252666666663
417,1778255181870,4.084969324999999,-0.0322765725,1.433226275,3.1377366,-2.6743464,-4.086887
418,1778255181880,4.126276,-0.16107778,1.4113832,3.4164362500000003,-2.1993716,-4.956941725
419,1778255181890,3.917037666666667,-0.3216674466666667,1.0129189666666667,3.3958856,-0.9890980466666667,-5.6293899
420,1778255181900,3.50353954,-0.440816184,0.51300833,3.007774,0.2231729,-6.126336
421,1778255181910,3.4263198,-0.45052966,0.4378387,3.007774,0.2231729,-6.126336
422,1778255181920,2.9369849833333332,-0.5195978933333333,0.19691352250000002,2.2658175000000003,0.9877664199999999,-6.253901250000001
423,1778255181930,2.451860175,-0.5746328025,0.10531069875,1.6651415,1.431582325,-6.225804800000001
424,1778255181940,2.3693078,-0.58134437,0.10518867000000001,1.5499598,1.5073493,-6.2136874
425,1778255181950,1.65824705,-0.70203066,0.30861038999999996,0.9530565966666668,1.7178277499999999,-5.8699622666666675
426,1778255181960,1.5595258,-0.74339837,0.35119838,0.76485986,1.7710022,-5.707687
427,1778255181970,1.2767448000000001,-0.8309335999999999,0.4028571566666667,0.5866056199999999,2.035720366666667,-5.189791033333333
428,1778255181980,1.0206474,-0.8917851999999998,0.40171823,0.5523396,2.1326594,-5.0440273
429,1778255181990,1.0206474,-0.8917851999999998,0.40171823,0.5523396,2.1326594,-5.0440273
430,1778255182000,0.32801292666666665,-1.0094208,0.33622952666666667,0.5566007,2.8692899,-3.9755669
431,1778255182010,0.22013964000000003,-1.0204034,0.32850105,0.5566007,2.8692899,-3.9755668999999996
432,1778255182020,0.22013964,-1.0204034,0.32850105,0.5566007,2.8692899,-3.9755669
433,1778255182030,-0.9788439657142857,-0.8682859714285714,0.12826951142857143,0.83509125,2.4871643428571426,-2.687814442857143
434,1778255182040,-1.0548154,-0.8717725125,0.06626154225,1.0929613075,1.1857725,-1.461809125
435,1778255182050,-1.0612829000000001,-0.8903208499999999,0.0435032055,1.2199941,0.41545311549999997,-0.9291769
436,1778255182060,-1.03163,-0.9371798,0.025381953,1.3152465166666667,-0.09578502416666668,-0.623623575
437,1778255182070,-0.8308318625,-1.2787378999999999,0.10042956075000001,1.7153421,-1.0543455000000002,0.12357067500000002
438,1778255182080,-0.7164910575,-1.4702009,0.1219676125,2.1921810500000003,-1.504686075,0.768055675
439,1778255182090,-0.695123856,-1.52691984,0.089764258,2.5161545,-1.4231933,1.1893678
440,1778255182100,-0.71435558,-1.6575148,-0.0982330475,2.6125609499999998,-1.2932310500000002,1.4242586
441,1778255182110,-0.7419340599999998,-1.7418365,-0.23966423,2.720862933333333,-1.0778700866666666,1.8077537999999997
442,1778255182120,-0.7441305739999999,-1.78161786,-0.31000152999999997,2.4522388,-0.624245,3.2325450000000004
443,1778255182130,-0.7327818975,-1.9648439500000001,-0.6219798975,2.4522388,-0.624245,3.232545
444,1778255182140,-0.5744294333333333,-2.0947432999999998,-0.7647940666666667,1.8414872166666667,-0.56787475,4.255198916666666
445,1778255182150,-0.027822526,-2.1555138,-0.7919658,0.8383631,-0.40266997,5.5708003
446,1778255182160,-0.027822526,-2.1555138,-0.7919658,0.8383631,-0.40266997,5.5708003
447,1778255182170,0.3226437,-2.088642,-0.8061211,0.014558606666666677,0.47617321,6.114440433333333
448,1778255182180,0.5980379140000001,-2.02504062,-0.880412096,0.031212246,0.40618533800000006,6.1708641
449,1778255182190,0.95572823,-1.95758315,-0.89056487,-1.157143515,1.866343365,6.46615525
450,1778255182200,1.4191929,-1.900962,-0.61941725,-5.695969,7.206514,7.376424
451,1778255182210,1.5738031000000001,-1.8937623000000001,-0.50373414,-6.679074999999999,7.786950025,7.330884
452,1778255182220,2.0251869,-1.8470253333333335,-0.17441958333333332,-7.778739000000001,7.807145766666667,7.061815800000001
453,1778255182230,2.516779175,-1.782777275,0.3418632,-9.13198,6.363357,6.197176
454,1778255182240,2.75461305,-1.7241425,0.97293424,-9.1780525,4.060788,5.4570834999999995
455,1778255182250,3.3696637,-1.4581373857142859,3.3246523,-8.532083571428572,0.19228024285714287,4.459805785714286
456,1778255182260,3.4675655,-1.4043053,3.6718411,-8.255267,-0.43409526,4.3569317
457,1778255182270,4.0176706,-1.2507933,4.4235377,-8.255267,-0.43409526,4.3569317
458,1778255182280,4.447246,-0.7296962885714287,4.567217442857142,-4.518471428571429,-2.1820420714285715,3.157976457142857
459,1778255182290,3.6388936,0.36803833,2.9443065999999996,-1.4982945,-2.08419,1.7827201
460,1778255182300,3.162982,0.77781045,2.0412948,-0.7596667500000001,-1.540505625,0.9693906999999999
461,1778255182310,2.9036304000000004,1.0078750833333334,1.5904397333333335,-0.6913566333333333,-1.0372124999999999,0.5022722000000001
462,1778255182320,2.239286275,1.4121152750000001,0.7712209025,-1.167796175,-0.4615258125,0.24607608749999998
463,1778255182330,1.8179825399999998,1.45013934,0.5057354540000001,-2.26166302,0.33119073,0.07574030400000001
464,1778255182340,1.53512,1.3864892,0.63503695,-2.877812,0.76113147,-0.033023197
465,1778255182350,1.4534828499999999,1.34390125,0.726558425,-2.9547773,0.852477885,-0.1019990685
466,1778255182360,1.3395488,1.291917083333333,0.8495226166666666,-3.0052885333333332,0.9532341333333333,-0.1990269033333333
467,1778255182370,0.85859346,1.2197981,1.2134526,-2.3238745,0.44794372,-0.45540056
468,1778255182380,0.829367595,1.2163813,1.226021575,-2.3238745,0.44794372,-0.45540056
469,1778255182390,0.7236297514285714,1.1953923571428573,1.2933988714285714,-1.6427138714285714,-0.34065634857142857,-0.5847540971428572
470,1778255182400,0.71996886,1.172695,1.3242546,-0.50387007,-1.5909724,-0.8495484
471,1778255182410,0.71996886,1.172695,1.3242546,-0.50387007,-1.5909724,-0.8495484
472,1778255182420,0.70215267,1.1099724,1.1714748,1.0440351971428572,-2.7608611571428576,-1.2933832571428572
473,1778255182430,0.70215267,1.1099724,1.1714748,1.4045511,-2.9955237,-1.3912354
474,1778255182440,0.708376135,1.1006982,0.9769612,1.8338527,-2.92601515,-1.5188008
475,1778255182450,0.7277787300000002,1.0426126,0.541319,2.442119,-2.4048345,-1.7678064000000002
476,1778255182460,0.729096612,1.01039704,0.43544696,2.4708809599999997,-2.0411532,-1.85952564
477,1778255182470,0.6958072000000001,0.954690975,0.3205081925,2.417085,-0.5390238,-2.1763353
478,1778255182480,0.5933032,0.8520039,0.18743597,2.417085,-0.5390238,-2.1763353
479,1778255182490,0.52057412,0.79440637,0.212451845,2.4311998,-0.21917815500000004,-2.21521745
480,1778255182500,0.56548065,0.6216138,0.336799,2.5976474,0.008522116,-2.1864552
481,1778255182510,0.65939387,0.61409684,0.377995868,2.62193544,-0.0217313952,-2.2005167
482,1778255182520,0.8002637,0.6028214,0.43979117,2.764095,-0.19214708,-2.312822275
483,1778255182530,0.9846083,0.6112820666666666,0.5172386566666667,2.8991172000000005,-0.340352,-2.481001
484,1778255182540,1.5160836,0.60135704,0.8107582,3.4045851,-0.7078682,-3.3023198
485,1778255182550,1.5500076,0.56474847,0.87201655,3.7444045666666668,-0.8314388933333333,-3.7724566
486,1778255182560,1.5433831714285715,0.5731161357142857,0.8556995728571428,3.982339,-0.8941373157142857,-4.078745428571429
487,1778255182570,1.54036725,0.63302345,0.745350795,4.116581200000001,-0.9109342675000001,-4.23163
488,1778255182580,1.58759235,0.67469623,0.682994175,4.128565425000001,-0.94395748,-4.2645200999999995
489,1778255182590,1.75428345,0.7681701799999999,0.57707335,4.08342505,-1.1355719,-4.34042
490,1778255182600,1.9664911250000001,0.8783619975,0.460352985,3.71231345,-1.772999475,-4.5221806749999995
491,1778255182610,2.01791402,0.897788952,0.432371818,3.53859542,-1.99918178,-4.58457862
492,1778255182620,2.2194567,0.895446,0.32972133,2.910835,-2.347843,-4.7276435
493,1778255182630,2.2535026,0.861522075,0.294088975,2.6839337,-2.3334619,-4.80407625
494,1778255182640,2.3326991500000003,0.745594875,0.26065314,1.9765982,-2.11721315,-4.95321325
495,1778255182650,2.3673553,0.46322066,0.35949633,1.1851068,-1.4908376,-4.9566755
496,1778255182660,2.3673553,0.46322066,0.35949633,1.1851068,-1.4908376,-4.9566755
497,1778255182670,2.340265,0.27944556,0.42929673,1.0709712857142857,-1.0988963857142857,-4.890476857142858
498,1778255182680,2.1433108,0.0302631,0.44906533,0.9038768999999999,-0.18535602000000004,-4.7207193
499,1778255182690,1.7725879,-0.13496366,0.31361356,0.9298426949999999,0.27284085,-4.572913875
500,1778255182700,1.5511058999999998,-0.20614702666666665,0.22514280166666667,0.9225190266666666,0.5306792466666667,-4.4270614
501,1778255182710,1.4058674199999999,-0.247132372,0.167813758,0.9001484879999999,0.61231402,-4.3352001200000005
502,1778255182720,1.2544543,-0.28725538,0.10836142,0.8426242,0.7286409,-4.160923
503,1778255182730,1.0340217639999998,-0.324937816,0.033875148,0.7294931,0.8138620599999999,-3.8943938000000005
504,1778255182740,0.5982453050000001,-0.38866116,-0.10000245499999999,0.55979645,0.9416938,-3.4946
505,1778255182750,0.20144484399999998,-0.434665966,-0.155708512,0.157552609,0.72129058,-2.5056084800000002
506,1778255182760,0.18109047,-0.44076740000000003,-0.15302388,0.015446335,0.6194513,-2.1411815
507,1778255182770,0.14863087,-0.48372149999999997,-0.0976229,0.015446335,0.6194513,-2.1411815
508,1778255182780,0.14228538,-0.5981843,0.11519502,0.019174759999999996,-0.054328486,-1.0104034
509,1778255182790,0.18231077000000004,-0.7678040999999999,0.3116611,0.62317973,-0.46871635,-0.43622580000000005
510,1778255182800,0.2135501,-0.8744571,0.3402158,1.1595404,-0.67484504,-0.14221281
511,1778255182810,0.21940747166666666,-0.8886531,0.33313814166666667,1.3033510666666668,-0.7199412399999999,-0.08042747
512,1778255182820,0.261385305,-1.0113733,0.18511743,2.07992875,-0.9423595849999999,0.214917105
513,1778255182830,0.27407628,-1.0631135,0.07248501,2.2429142,-0.9864349000000001,0.27217507
514,1778255182840,0.22209209400000002,-1.0452483799999999,-0.086103396,2.36435444,-1.01040334,0.360378964
515,1778255182850,0.18743597,-1.0333383,-0.191829,2.4453146,-1.0263823,0.41918156
516,1778255182860,0.16551149333333334,-1.0072648666666668,-0.2223361566666667,2.4453146,-1.0263823,0.41918156
517,1778255182870,0.010933765600000001,-0.81100222,-0.436227934,2.26986554,-1.09093736,0.580782174
518,1778255182880,-0.03335449066666667,-0.7656075666666666,-0.5034900766666667,2.026133,-1.1531488333333333,0.7671679333333333
519,1778255182890,-0.044069766571428574,-0.7750212285714285,-0.5295344828571429,1.4888592857142857,-1.1228648142857143,1.0950156999999998
520,1778255182900,-0.051496077,-0.8366282000000002,-0.5354616,0.92038846,-0.9406285,1.4413028
521,1778255182910,-0.051496077,-0.8366282,-0.5354616,0.92038846,-0.9406285,1.4413028
522,1778255182920,-0.06247865466666667,-0.83467575,-0.5178081333333333,0.6151902,-0.7637946000000001,1.6698021
523,1778255182930,0.010616490499999999,-0.824669425,-0.49934112500000005,0.10013485500000001,-0.477637955,2.245177975
524,1778255182940,0.079318605,-0.818568,-0.51618105,-0.39361522,-0.28708878,2.8261466
525,1778255182950,0.245277513,-0.733050352,-0.577488242,-0.606668084,-0.29859362,3.0600786799999997
526,1778255182960,0.305864725,-0.689949845,-0.59812328,-0.9531454,-0.40213731500000005,3.4852789499999997
527,1778255182970,0.38341393333333335,-0.605180625,-0.61595979,-1.55688405,-0.6929545,4.4317664
528,1778255182980,0.67213366,-0.40738035000000006,-0.630204628,-1.8674086000000003,-0.8831042,5.0115366
529,1778255182990,1.1514621250000001,-0.30165474999999997,-0.6584664499999999,-2.031992,-0.8663263,5.6541573
530,1778255183000,2.0889266833333333,-0.19361875000000003,-0.6723370083333333,-2.8188674000000002,-0.5592638416666668,6.578629500000001
531,1778255183010,2.47132375,-0.15253578,-0.6434569050000001,-3.185007675,-0.1448759675,6.7568392500000005
532,1778255183020,3.0311911,-0.046248847499999995,-0.55449806,-3.2655683,-0.02609898,6.7974524
533,1778255183030,3.4348268857142856,0.08228215785714285,-0.4495185885714286,-3.5563854285714283,0.6252341428571428,6.5779318
534,1778255183040,3.9554358,0.7087422599999998,-0.003172744,-3.6778254999999995,1.230913,5.2885056
535,1778255183050,3.907844775,0.83101494,0.10244302400000001,-3.61284435,1.1677961,5.083442
536,1778255183060,3.8919811,0.8717725,0.13764828,-3.5478632,1.1046792,4.8783784
537,1778255183070,3.61009478,1.13096126,0.375018376,-3.347061,0.8958874299999999,4.456534
538,1778255183080,3.4636605,1.2163813,0.44101146,-3.0820765000000003,0.69854718,3.9651807000000003
539,1778255183090,2.8826009166666666,1.32702055,0.40887724333333336,-2.3265376,0.25246766,2.5891252
540,1778255183100,2.3556406,1.3847809,0.35607952,-2.2142853999999996,0.1789644275,2.40017395
541,1778255183110,2.3556406,1.3847809,0.35607952,-2.1568055,0.134667185,2.304699616666667
542,1778255183120,2.1595405750000003,1.3772761,0.34253434,-1.9473034,-0.14168017,1.9920445
543,1778255183130,1.4715430999999999,1.3595209000000001,0.30055649,-1.8105500749999999,-0.3600593825,1.816409075
544,1778255183140,1.2753617666666666,1.3685103666666667,0.2927059933333333,-1.6664287,-0.5608617433333333,1.6808097333333334
545,1778255183150,1.1277885,1.3703815,0.28335047,-1.5648735,-0.6562029,1.5504924
546,1778255183160,1.1277885,1.3703815,0.28335047,-1.5648735,-0.6562029,1.5504924000000002
547,1778255183170,1.0373827285714285,1.3730661285714285,0.2888940428571428,-1.475086942857143,-0.5826235785714287,1.2634797142857142
548,1778255183180,1.0030752,1.3774592,0.2979939,-1.3891048,-0.42930159999999995,0.9081379999999999
549,1778255183190,0.7575537,1.4245622,0.33313814,-1.1259845,0.09534117,0.19121496
550,1778255183200,0.6119328916666666,1.4503916166666668,0.3103594566666667,-1.0181265,0.3541116616666667,-0.05867831500000001
551,1778255183210,0.5352989133333333,1.458323466666667,0.28546562000000003,-0.9644194166666668,0.5155880066666666,-0.19121496666666668
552,1778255183220,0.314345728,1.44394028,0.11573194,-0.857111802,1.2732041,-0.6085855519999999
553,1778255183230,0.28286234,1.4389615,0.08346757,-0.8463526399999999,1.407747,-0.6716492
554,1778255183240,0.3090985,1.41821665,0.0585737365,-0.8442221,1.67406315,-0.81599255
555,1778255183250,0.421584504,1.3678920399999999,0.0550593172,-0.799587488,2.01292374,-1.10798156
556,1778255183260,0.547420424,1.31927588,0.09625618,-0.739400042,2.0539364,-1.2765064000000002
557,1778255183270,0.735771595,1.22034735,0.184324235,-0.61199445,2.0245352,-1.556884
558,1778255183280,0.993313,1.0535952,0.32728076,-0.23276029285714284,1.6510838857142858,-2.1342573714285717
559,1778255183290,1.0608354666666668,0.8583493666666667,0.39919630666666667,0.7810163750000001,0.4566433785333333,-3.376533333333333
560,1778255183300,1.1099723000000001,0.68384842,0.436032684,1.43746788,-0.33992587688000003,-4.04480914
561,1778255183310,1.0850377833333333,0.5687347333333334,0.20456065333333331,1.9558254666666668,-0.9876777466666667,-4.6605319
562,1778255183320,1.0262607,0.5920829,-0.0053692595,2.0154803,-1.267132,-5.063202
563,1778255183330,1.0125935,0.6163666,-0.039720314625,2.0154803,-1.267132,-5.063202
564,1778255183340,0.94701185,0.7422478257142858,-0.18293832857142858,1.4920550142857143,-0.9586619428571428,-5.121182742857143
565,1778255183350,0.9810491625000001,0.933579995,-0.2324645225,0.6532734,-0.436492115,-4.87185375
566,1778255183360,1.0033194,0.9737884400000001,-0.23112221000000002,0.4314321,-0.30360037,-4.79369
567,1778255183370,1.2445292666666667,0.9663853466666668,0.039862680666666664,0.038171979333333335,-0.012428086666666671,-4.522757733333333
568,1778255183380,1.37062555,0.937057785,0.241982758,-0.07057377000000001,0.25939188999999996,-4.2352251
569,1778255183390,1.46902946,0.9089179740000001,0.399521708,-0.0459129,0.383708248,-4.01359688
570,1778255183400,1.6952217,0.91423845,0.47786412,0.27395050000000004,0.3060859866666667,-3.1434178
571,1778255183410,1.6952217,0.91423845,0.47786412,0.41385523333333335,0.16192020066666665,-2.7767893333333333
572,1778255183420,1.7256591142857143,0.9166092857142857,0.4725645885714286,0.4910108285714286,-0.0015218068571428553,-2.574820342857143
573,1778255183430,2.392249,0.8534682,0.35119838,0.5075985,-0.46339005,-2.593919
574,1778255183440,2.452287185714286,0.7003397057142857,0.3753600457142857,0.5657314999999999,-0.61526633,-2.7016628285714286
575,1778255183450,2.4833639333333335,0.43165592,0.3995217133333333,0.63347725,-0.6540723833333333,-2.8511803
576,1778255183460,2.3854156,0.302631,0.38341394,0.6947299666666668,-0.38509308666666664,-3.040797433333333
577,1778255183470,2.0724852599999997,0.1435544714,0.35236986400000003,0.74675038,0.03494067599999999,-3.1236749799999997
578,1778255183480,1.567986366666667,-0.025300602000000002,0.33932094000000007,0.8511463,0.76485986,-3.0376017
579,1778255183490,0.817774825,-0.22361744749999998,0.33295509,0.95740642,1.174320965,-2.81709195
580,1778255183500,0.48549088749999997,-0.332589,0.312759345,1.2033493899999999,1.7590179750000001,-2.230663775
581,1778255183510,0.4290526499999999,-0.35412705,0.307024,1.29717256,1.94250976,-1.9783026
582,1778255183520,0.24308102000000004,-0.44271985,0.25772443,1.4286261599999999,2.1103954000000003,-1.31144708
583,1778255183530,-0.004881145,-0.5789038,0.09713478400000002,1.4839133999999998,2.1576931,-0.799481
584,1778255183540,-0.004881145,-0.5789038,0.097134784,1.4839134,2.1576931,-0.799481
585,1778255183550,-0.0513740525,-0.615756425,0.0612583685,1.4839134,2.1576931,-0.799481
586,1778255183560,-0.09314852,-0.6704252366666666,0.014114643500000001,1.47201795,2.0010992333333335,-0.5504754333333334
587,1778255183570,-0.052472311550000005,-0.7850101625,-0.0402694455,1.37858535,0.9968212200000001,1.1044129249999999
588,1778255183580,-0.0012202862,-0.86152214,-0.03441207,1.3672669,0.92305166,1.2410331
589,1778255183590,0.0516587846,-0.8943884466666666,-0.056051816666666664,1.3754339333333334,0.9136418066666666,1.3793399333333332
590,1778255183600,0.09475522750000001,-0.9009373125,-0.1095206875,1.390569575,0.9012137499999999,1.7178721000000001
591,1778255183610,0.10030753,-0.8976425500000002,-0.12373702,1.3901701,0.9033443,1.7385116
592,1778255183620,0.10067361583333334,-0.891175025,-0.13260443333333335,1.32083915,0.7699199,1.7668298666666666
593,1778255183630,0.0547298385,-0.7796408499999999,-0.2812149525,1.18657145,0.52903696,1.7554226499999999
594,1778255183640,-0.028554698,-0.6355251,-0.47176263,0.9576728,0.14274544,1.695901
595,1778255183650,-0.052228254,-0.5992826,-0.5039782150000001,0.8687231999999999,-0.050600055000000005,1.6713999500000003
596,1778255183660,-0.07590181,-0.5630401,-0.5361938,0.7797736,-0.24394554999999998,1.6468989
597,1778255183670,-0.120124978,-0.528481576,-0.5458584200000001,0.5231513760000001,-1.18318926,1.74490318
598,1778255183680,-0.3014107,-0.45955979999999996,-0.571338,0.4458131799999999,-1.5185345,1.8269285
599,1778255183690,-0.3014107,-0.4595598,-0.571338,0.44581318,-1.5185345,1.8269285
600,1778255183700,-0.31312546,-0.44345203,-0.6452874,0.1784318,-1.9707392,2.5070999
601,1778255183710,-0.1253233925,-0.1895714675,-1.005698865,-0.4665858315,-1.82799385,3.2274850500000003
602,1778255183720,-0.081271065,0.0543637525,-1.19984645,-1.3703295999999998,-1.7146763250000001,3.965979775
603,1778255183730,-0.06174648600000001,0.33045352,-1.3676969,-2.3313313,-1.7875137,4.80381
604,1778255183740,0.08297946,0.36486560000000007,-1.4736177,-3.2320122999999996,-1.9398465,5.718872
605,1778255183750,1.2810564,-0.35900820000000006,-1.5785623,-4.1236386,-2.1560953,6.760168
606,1778255183760,1.7394366833333332,-0.7249720166666668,-1.5470382166666665,-5.343721533333333,-1.7090393,8.032093666666666
607,1778255183770,2.2704647,-1.2075952,-1.3659884,-7.070692599999999,0.511859584,9.517392000000001
608,1778255183780,2.4539957,-1.5634308,-0.93010217,-7.756723,2.2993734,9.951168
609,1778255183790,2.4549719,-1.735735133333333,-0.4541905433333333,-8.371469666666668,4.432565566666667,10.312913833333333
610,1778255183800,2.88597685,-1.9059650000000001,0.7761019849999999,-8.2523375,5.6879795,10.3248095
611,1778255183810,4.02054994,-1.79948286,2.4113833399999995,-7.326676000000001,6.5033330000000005,9.7063704
612,1778255183820,5.0195255,-1.2991167,3.061454,-5.3375077,5.813148,7.675763000000001
613,1778255183830,5.162380233333333,-0.9081369933333333,3.1781133333333336,-4.721429733333333,5.4388852000000005,6.991685666666666
614,1778255183840,4.765845185714285,-0.29510007714285713,2.909580657142857,-0.9569879549999999,2.4955341714285715,3.115974571428571
615,1778255183850,3.3816571,0.43442193,1.8860743,1.3235911,-0.13688648,0.8841695
616,1778255183860,3.179943775,0.4765217975,1.7431178,1.9459718499999998,-1.230247295,0.2873550875
617,1778255183870,1.926099657142857,0.8138960342857142,0.8958644428571428,2.58806,-2.572081,-0.22530343
618,1778255183880,1.26812145,1.206558035,0.35461519,2.6811374,-2.91163405,-0.19813918749999998
619,1778255183890,1.10079582,1.3620346600000002,0.050275796000000005,2.44478184,-2.9327796,-0.007989483999999991
620,1778255183900,1.1413337000000001,1.3681441833333334,-0.19630338666666666,1.520665,-2.197108,0.31158987
621,1778255183910,1.195453425,1.37239495,-0.24997564499999997,1.1024155375,-1.5467639499999999,0.21611553
622,1778255183920,1.2088766,1.3831945,-0.220261675,0.8186557175,-1.1001518149999998,0.13142700175
623,1778255183930,1.1407724399999999,1.4003028800000001,-0.034021584,0.05091963199999999,0.234890804,-0.1971804498
624,1778255183940,1.0300192,1.37082074,0.16029680200000002,-0.5097290320000001,1.4350177599999998,-0.573218816
625,1778255183950,0.9445015,1.2537221,0.43246945999999997,-0.5763080580000001,2.0767331399999995,-1.05216174
626,1778255183960,0.86884385,1.1502419,0.53106856,-0.44400222000000006,2.28062464,-1.45674912
627,1778255183970,0.7387002874999999,0.9816592625,0.594767515,0.20879184,1.9307919,-2.2706113
628,1778255183980,0.6595240166666666,0.8487904250000001,0.6015604583333333,0.60507023,1.4567492,-2.5630262
629,1778255183990,0.656758025,0.7790307000000001,0.57414469,0.9709885325000001,0.94662065,-2.8262798
630,1778255184000,0.6964580166666666,0.6699371266666666,0.5034087766666667,1.3212830333333334,0.41367770000000004,-3.1285043333333333
631,1778255184010,0.7445140714285714,0.5965804885714286,0.4459971971428572,1.5970597285714285,-0.03317537857142857,-3.4405760285714284
632,1778255184020,0.8191171500000001,0.424781625,0.3572997875,2.019075525,-0.7507451375,-4.10672755
633,1778255184030,0.84053314,0.29726174,0.30970863,2.2551649,-1.1030813,-4.564658
634,1778255184040,0.8043638559999999,0.248938406,0.296822412,2.2765767,-1.11202954,-4.6083338
635,1778255184050,0.73558855,0.1978084,0.27053746,2.39791025,-1.1494204,-4.84242575
636,1778255184060,0.65744144,0.191194438,0.234392584,2.43476838,-1.14515932,-4.9073538
637,1778255184070,0.44320798,0.45711923,0.07492557,2.270477875,-1.211605125,-4.775713525
638,1778255184080,0.36478424000000004,0.58842201,0.06402434866666666,2.1385182666666664,-1.3109854333333333,-4.631947333333334
639,1778255184090,0.24698593,0.8024602666666666,0.089813066,1.9309693333333333,-1.53193905,-4.320979066666667
640,1778255184100,0.38609856,1.3723339,0.3226437,1.0104034,-2.7798076,-1.9036276
641,1778255184110,0.38609856,1.3723339,0.3226437,1.0104034,-2.7798076,-1.9036276
642,1778255184120,0.8333857942857144,1.3948220285714288,0.33777524999999997,0.8414828742857142,-2.6247355142857143,-1.800601285714286
643,1778255184130,2.1433108,1.5055892,0.37218732,0.6780408,-2.7387948,-1.4173343
644,1778255184140,2.1433108,1.5055892,0.37218732,0.6780408,-2.7387948,-1.4173343
645,1778255184150,3.4702499,1.21650335,0.42295120999999997,0.15073491666666666,-0.6965941666666667,-2.4599619666666666
646,1778255184160,4.991459,0.4097721,0.5091034,0.04527374,-0.28815404,-2.6684875
647,1778255184170,4.81817825,0.21001125224999997,0.5303363999999999,0.048869002499999994,2.352104,-4.695153
648,1778255184180,4.6448975,0.0102504045,0.5515694,0.43858462285714284,2.5347206,-5.148955542857143
649,1778255184190,2.716601175,-0.4289916325,0.360289515,1.70442315,1.8594192,-5.8586883
650,1778255184200,2.23837105,-0.5986724,0.21708893,2.5353295,0.7199856499999999,-6.4275393
651,1778255184210,2.0254312,-0.7058135,0.13911264,2.615757,0.5432849,-6.5077004
652,1778255184220,1.5562717333333334,-0.8780365833333333,0.023266794000000007,2.684466533333333,0.34727623,-6.585109666666667
653,1778255184230,0.6635103083333334,-1.0833294500000001,-0.11812371249999999,2.978479333333333,-0.8201648583333334,-6.640680933333333
654,1778255184240,-0.09646363749999998,-1.072082425,-0.20586229,2.9289446,-1.2879047,-5.6762614
655,1778255184250,-0.56188083,-1.01173928,-0.2651071875,2.87834455,-1.2918995,-5.3193979
656,1778255184260,-0.7410798399999999,-0.957924695,-0.311050965,2.7727058,-1.2618058,-4.698171266666667
657,1778255184270,-0.8905160679999999,-0.86967365,-0.381217436,2.53224012,-1.08561104,-3.6820864799999997
658,1778255184280,-0.9030118,-0.856641,-0.3900035,2.4453146,-1.0135992,-3.3571808
659,1778255184290,-0.8572510333333333,-0.7994908500000001,-0.41526337333333335,1.9318571,-0.42317630700000003,-1.8956381999999998
660,1778255184300,-0.6980037,-0.7321718,-0.42319524,1.6618125,-0.087884314,-1.2000204
661,1778255184310,-0.65382935,-0.71935875,-0.42502569999999995,1.6025571749999998,-0.013848435500000006,-1.0752513000000001
662,1778255184320,-0.48420956666666665,-0.6915768733333333,-0.43499138666666665,1.0242517500000001,0.6582446633333333,-0.11664645666666668
663,1778255184330,-0.33893449249999996,-0.68152989,-0.4353981375,0.460860035,1.0869691825,0.40559946
664,1778255184340,-0.2635208075,-0.6965394125,-0.41764297,0.2620550625,1.2021509,0.5502091025
665,1778255184350,-0.11983211,-0.74413055,-0.36803833,-0.07403588,1.2964269,0.7520767
666,1778255184360,-0.0883487225,-0.7695735425,-0.330331495,-0.07403588,1.2964269,0.7520767
667,1778255184370,-0.09290445666666668,-0.7595061666666667,-0.23738634333333333,-0.18162759000000003,1.2998002,0.9051196999999999
668,1778255184380,-0.100429555,-0.75023198,-0.19719824,-0.18801917,1.2724584,1.0343717
669,1778255184390,-0.135390755,-0.6657271650000001,-0.096646668,-0.10452907,1.2285162250000001,1.0827080999999998
670,1778255184400,-0.1432616,-0.52203846,0.011714748,0.14594123,1.0966897,1.2277173
671,1778255184410,-0.19707622,-0.41404312499999996,0.0279445545,0.14594123,1.0966897,1.2277173
672,1778255184420,-0.2277054,-0.3904916,0.018304294,0.210789205,1.047421225,1.245560475
673,1778255184430,-0.4450558285714286,-0.2212901885714286,-0.24712539428571428,1.246663785714286,-0.6625184157142857,2.4794029571428573
674,1778255184440,-0.426978135,-0.060099096000000005,-0.36529269,1.31533535,-1.102016125,2.9625004500000003
675,1778255184450,-0.41611758,-0.017084008,-0.39415246,1.347027,-1.3821807,3.2911346
676,1778255184460,-0.028961463333333336,0.19727959866666667,-0.5876899,1.3004215,-2.00695815,4.38462855
677,1778255184470,0.9484064,0.26699865,-0.89154106,0.959936425,-1.757419925,5.877197175
678,1778255184480,0.9484064,0.26699865,-0.89154106,0.8607337000000002,-1.6293219,6.2483087
679,1778255184490,1.33860512,0.21428227400000002,-0.9388881960000001,0.487145446,-0.6309561042,7.02264938
680,1778255184500,2.1082885,0.146312315,-1.0715333500000002,0.105194867,0.3989415465,7.710650449999999
681,1778255184510,2.2926738,0.15741692,-1.1331578,-0.027696876,0.763262,7.8824244000000006
682,1778255184520,2.3544690800000003,0.1466784,-1.1350614399999999,-0.27750140079999996,1.0832674,7.963597519999999
683,1778255184530,2.4881635666666666,0.10901224133333333,-1.1303104333333334,-1.2747664666666667,2.3164175333333334,8.242128666666666
684,1778255184540,2.6570513,0.082003236,-1.0289453,-1.7699369,2.6434538,8.152469
685,1778255184550,2.7475965,0.11836776,-0.7512082,-2.5768747,4.0863543,6.320214
686,1778255184560,2.7475965,0.11836776,-0.7512082,-2.5768747,4.0863543,6.320214
687,1778255184570,3.00117195,0.29396695,-0.3461952035,-2.57341265,4.2709114999999995,5.780125000000001
688,1778255184580,3.19739395,0.48469769500000004,0.10390737224999999,-2.538924775,4.495416025,4.9835735
689,1778255184590,3.0253336,0.53009236,0.23917611,-2.4458473,4.615258,4.214186
690,1778255184600,2.196108516666667,0.609858395,0.5071916433333333,-1.5893746,3.6424942166666665,2.8114103499999996
691,1778255184610,1.6017478,0.6628595,0.66090703,-0.750585332,2.45681944,1.8989403800000002
692,1778255184620,1.3535415,0.72655845,0.7048373,-0.45593318,1.9339876,1.808819
693,1778255184630,1.02655356,0.9538733199999999,0.6442134979999999,0.65950524,-0.06338324000000002,1.5439943
694,1778255184640,0.9405966,1.0611609,0.49934113,1.1632688,-1.0599382,1.2756542
695,1778255184650,0.911505032,1.0996243399999999,0.409137562,1.3118732,-1.3800501,1.0295781
696,1778255184660,0.8994974219999999,1.1105093,0.369209796,1.3118732,-1.3800501,1.0295781
697,1778255184670,0.88055855,1.1155857,0.2997023,1.3699301000000002,-1.4604776,0.74728304
698,1778255184680,0.875514705,1.04879535,0.26882905500000004,1.3863529333333335,-1.357058183333333,0.42060192333333335
699,1778255184690,0.81075818,0.9587789,0.29579738,1.5121429000000002,-0.9384979999999999,-0.151001235
700,1778255184700,0.7507201,0.9098454,0.32630453,1.6346483,-0.5406217,-0.65726817
701,1778255184710,0.6982826485714285,0.8759563142857143,0.33787981571428577,1.7539579571428572,-0.3622659971428571,-0.8067095585714286
702,1778255184720,0.4339338,0.6047739,0.27456442,2.0618193,-0.0015978966999999997,-1.1377025
703,1778255184730,0.4339338,0.6047739,0.27456442,2.350239825,0.15859124832500002,-1.41214115
704,1778255184740,0.39973090714285714,0.5691066428571429,0.26159451142857143,2.710793785714286,0.1320927942857143,-1.7124887
705,1778255184750,0.33344321250000003,0.508920375,0.2256309275,2.984871,-0.028229509,-1.9302592
706,1778255184760,0.3265486,0.5047104,0.21940747,2.984871,-0.028229508999999996,-1.9302592
707,1778255184770,0.27688292333333336,0.5122761766666667,0.19402550666666665,3.20884285,-0.13662017,-2.1060279
708,1778255184780,0.1212354275,0.5446137449999999,0.1649216775,3.31417085,-0.1515338725,-2.156628
709,1778255184790,-0.10557916399999998,0.578318044,0.16029679400000002,3.46093768,-0.1422128052,-2.01718486
710,1778255184800,-0.25284332,0.64772797,0.16815543,3.6117792,-0.10812434600000001,-1.4594123
711,1778255184810,-0.25284332,0.64772797,0.16815543,3.6117792,-0.108124346,-1.4594123
712,1778255184820,-0.22336120799999998,0.6900962820000001,0.146873646,3.6387303600000003,-0.030146986799999997,-1.176691114
713,1778255184830,-0.06443112399999999,0.722409448,0.09249769599999999,3.7124465399999997,0.34567832000000004,0.265890004
714,1778255184840,1.22919435,0.8033144,-0.32398601,2.962500375,0.22383869450000002,1.8326543
715,1778255184850,2.44511192,0.6940500000000001,-0.60692154,2.22022416,-0.8747951348,1.80423838
716,1778255184860,2.9663206200000003,0.5982331399999999,-0.54454053,1.68791154,-2.15439084,1.51959972
717,1778255184870,3.873920633333333,0.48014197999999997,0.05580773666666664,1.0114686066666667,-5.2407460666666665,0.19867181333333336
718,1778255184880,4.1980286,0.44442827,0.32996538,0.80587256,-6.4384584,-0.37816888
719,1778255184890,4.5689955,0.1432616,0.72021294,1.1371698,-7.115967,-2.111354
720,1778255184900,4.508957625,-0.04380827125,0.6599918100000001,1.1787150999999998,-6.9294124,-2.302835325
721,1778255184910,4.488945,-0.106164895,0.6399181,1.303351,-6.3697486,-2.8772793
722,1778255184920,3.6489,-0.35119838,0.18011424,0.867524725,-2.89072825,-3.6762276
723,1778255184930,2.81886125,-0.32459612,-0.10555476250000001,0.8223841749999999,-2.159823725,-3.9096537
724,1778255184940,1.9723485833333332,-0.2944550733333334,-0.23966423166666664,-0.2657835,1.5520903,-3.9052595999999995
725,1778255184950,1.3239495,-0.2731610925,-0.1397837925,-0.5410212,2.4748756,-3.7850178
726,1778255184960,1.1363305,-0.26699865,-0.10470055999999998,-0.6327671,2.7824707,-3.7449372
727,1778255184970,0.8803144999999999,-0.2765168666666667,0.008826737,-0.7716065666666667,3.3076461333333333,-3.5098688666666664
728,1778255184980,0.7063016666666666,-0.31369491,0.10445649866666666,-0.9443569533333332,4.213298466666667,-3.0578416333333336
729,1778255184990,0.56523658,-0.349489976,0.176892696,-0.8341021,4.176902,-2.9593046
730,1778255185000,0.280625175,-0.3322432566666667,0.310278125,-0.49996412,3.7547021333333332,-2.8023556666666667
731,1778255185010,0.23819989,-0.3270367,0.32898918,-0.33289513,3.5436022,-2.7238811999999997
732,1778255185020,0.21176035333333335,-0.32280638333333334,0.33907686666666664,-0.032490566,3.1174965,-2.5699506
733,1778255185030,0.10933765,-0.32923323,0.36413342,0.47638626000000006,2.39151864,-2.3256854000000002
734,1778255185040,0.05961098275,-0.35095432249999997,0.35455417,0.7601993300000001,2.02040715,-2.190583225
735,1778255185050,-0.004393030428571428,-0.36988619142857143,0.30942971999999996,1.4147472428571428,1.1973572428571428,-1.8894748285714287
736,1778255185060,-0.018060237,-0.35998443,0.27944556,1.7507621,0.81013364,-1.7635453
737,1778255185070,-0.02141602425,-0.35711676000000003,0.2745644075,1.9012307499999999,0.65300712,-1.71560845
738,1778255185080,-0.03158798057142857,-0.3441207257142857,0.2484154014285714,2.1789224285714286,0.3762666114285715,-1.6338874857142858
739,1778255185090,-0.023429496000000005,-0.32606047,0.15839316,2.2743397,0.28655612,-1.6085494
740,1778255185100,-0.023429496,-0.32606047,0.15839316,2.562360475,0.0752342975,-1.55262295
741,1778255185110,-0.021721095,-0.33191785,0.11543907,2.6583674,0.004793689999999999,-1.5339808
742,1778255185120,-0.05621452166666666,-0.3742211166666667,0.0415710818,2.8479845333333333,-0.09179028333333335,-1.4881744000000001
743,1778255185130,-0.0383169878,-0.356128334,0.06496804154,3.05475234,-0.11323760539999998,-1.42425854
744,1778255185140,-0.15338997750000002,-0.419534415,-0.01842632115,3.325223,0.32277513,-1.0721886
745,1778255185150,-0.33094162666666666,-0.4479264,-0.06231595,3.325223,0.32277513,-1.0721886
746,1778255185160,-0.40875521666666675,-0.44747896333333337,-0.07785426166666666,3.325223,0.32277513,-1.0721886
747,1778255185170,-0.5537659,-0.43466598,-0.10348027,3.325223,0.32277513,-1.0721886
748,1778255185180,-0.5537659,-0.43466597999999995,-0.10348027,3.4012119333333337,0.6380933766666667,-0.4656980866666667
749,1778255185190,-0.7077311414285715,-0.2150841742857143,-0.3820541828571429,3.065983242857143,0.7685122142857143,3.233762557142857
750,1778255185200,0.012446919,-0.03172744,-0.7399816,2.1315942,-0.19867182,5.1590757
751,1778255185210,0.012446919,-0.03172744,-0.7399816,2.1315942,-0.19867182,5.1590757
752,1778255185220,1.0258772027142857,0.11784478785714285,-0.7930117428571428,1.3344719428571428,-1.2185864571428573,5.429424857142857
753,1778255185230,1.7620933,0.2203837,-0.7814713,0.3898868,-2.2343922,5.10528
754,1778255185240,2.0360301142857145,0.13346445228571427,-0.6668341257142857,-0.3072527114285714,-2.1741286285714287,4.177130142857143
755,1778255185250,2.4521245333333335,-0.08289810883333333,-0.3663299266666667,-0.644928855,-1.66030345,3.4778221666666664
756,1778255185260,2.4622936,-0.102992155,-0.336799,-0.6892261,-1.5595472,3.3688989
757,1778255185270,1.815541866666667,-0.19833719166666666,-0.08281675866666667,-0.7321917666666667,-0.9369001166666666,3.163835466666667
758,1778255185280,2.2751017,-0.20598431,-0.21257387,-0.8633968,-0.6045376,2.7872643
759,1778255185290,1.9818059,-0.2036657675,-0.1182457425,-0.85514101,0.35380092500000004,2.623479925
760,1778255185300,0.6284474166666667,-0.18267684833333334,0.28493683166666667,-0.417583665,4.215073916666667,2.4264061333333333
761,1778255185310,0.5337532,-0.17987019,0.30897647,-0.33502567,4.4123254,2.485262
762,1778255185320,0.291770425,-0.2609582175,0.2767609175,-0.33502567,4.4123254,2.485262
763,1778255185330,0.12373702000000002,-0.30132934666666666,0.25072814666666665,0.24625364333333333,4.311480466666667,3.0995644
764,1778255185340,0.006508193333333333,-0.28928918666666664,0.20809948,0.8831042333333333,3.6084058,4.1016232
765,1778255185350,0.042710015,-0.29103826,0.06931225999999999,1.0796455249999999,3.165965925,4.59262135
766,1778255185360,0.21737365166666667,-0.3008819,-0.06654627333333334,1.1037915383333334,2.6616521166666662,5.1287156
767,1778255185370,0.93998648,-0.25687026,-0.13496365500000002,0.725711415,1.48178285,5.5801215
768,1778255185380,1.2747110200000003,-0.17484262,-0.0900571196,0.5194229480000001,0.802037572,5.32419172
769,1778255185390,1.6041883,0.007565774999999999,0.17157225,0.45731803800000004,-0.15957661399999998,4.5688128
770,1778255185400,1.5729489749999999,0.08389468124999999,0.3342364125,0.59308599,-0.5725796249999999,4.1478735
771,1778255185410,1.479231,0.3128813999999999,0.8222289,0.7222493,-0.850081,3.8482678
772,1778255185420,1.3661104499999999,0.47578962,1.0545103500000002,2.7060381000000002,-1.2973589250000002,2.863430825
773,1778255185430,1.32000808,0.6547568160000001,1.20398322,2.76702442,-1.28204578,2.8635374
774,1778255185440,1.3374745000000001,0.8712844166666667,1.2677554166666667,5.832323,-1.1707256,1.959554
775,1778255185450,1.5714846,1.0421244,0.80441266,6.571084,-1.3427658,1.3891048
776,1778255185460,1.5714846,1.0421244,0.80441266,6.571084,-1.3427658,1.3891048
777,1778255185470,1.6188318,1.0240642,0.4698102,6.949785,-1.9057581,0.6764429
778,1778255185480,1.5854772333333333,1.0126749000000002,-0.07232229999999999,6.7264349999999995,-3.2961058,-0.7424893066666667
779,1778255185490,1.5993071333333333,0.9589823333333333,-0.2024048133333333,5.863570666666667,-3.9278074666666662,-1.5659387433333334
780,1778255185500,1.7926005333333332,0.7512082000000001,-0.23087815999999997,4.921255666666666,-4.19190445,-2.0244463
781,1778255185510,1.8580079,0.6980037,-0.20329969,4.4922203,-4.1015345,-2.086853
782,1778255185520,2.4302733400000003,0.40162058,0.299067726,3.66514882,-3.3823212,-2.03635952
783,1778255185530,2.5733397,0.3275248,0.42465958,3.3246903,-2.97049,-1.9824572
784,1778255185540,2.5733397,0.3275248,0.42465958,3.3246903,-2.97049,-1.9824572
785,1778255185550,3.19627136,0.34138726999999996,0.6805780180000001,3.1907865600000003,-2.4342357999999997,-1.9396335199999999
786,1778255185560,4.04441908,0.29921419,0.88695287,3.2597091,-1.7086842,-2.5182853
787,1778255185570,4.50004965,0.11141212599999999,0.7473033,3.1023163499999997,-1.89617075,-3.0045785
788,1778255185580,4.6951733,-0.053692598,0.6343048,2.9449236000000005,-2.0836573,-3.4908717
789,1778255185590,4.69981,-0.49714460000000005,0.55962324,2.83125988,-2.02400248,-3.7584660800000003
790,1778255185600,4.5978918,-0.5771954,0.556401704,2.143099,-1.34138096,-5.35167568
791,1778255185610,4.4450145,-0.6972716,0.5515694,2.0847225,-1.2303804,-5.4823837
792,1778255185620,3.010934,-1.0001466,0.5523015,1.5275892,0.91133374,-6.0997043
793,1778255185630,2.9191685,-1.0222948,0.5441256,1.49190285,1.19496037,-5.99397685
794,1778255185640,2.3475866,-1.155123,0.4685899,1.4005184142857143,1.8812570285714287,-5.660891057142857
795,1778255185650,2.1242743,-1.1839217,0.4368625,1.3358417,2.320146,-5.3140717
796,1778255185660,2.05940388,-1.16664244,0.44354965999999996,1.3358417,2.320146,-5.3140717
797,1778255185670,1.7276812,-1.0607541333333332,0.48770774,1.3788072500000002,2.713228583333333,-4.4420641666666665
798,1778255185680,1.6271297,-1.023515075,0.512337165,1.46979865,2.7109648,-4.28915415
799,1778255185690,1.574108275,-1.0121054,0.514533675,1.53264925,2.7029753000000003,-4.233494
800,1778255185700,1.2503053,-0.937912,0.5010495,1.8338528,2.6615632,-3.9904807000000004
801,1778255185710,1.17696609,-0.95011485,0.4481501,1.8338528,2.6615632,-3.9904807
802,1778255185720,0.750183212,-0.9607557760000001,0.21154881999999997,2.1486384000000003,2.7120567200000005,-3.9299736199999997
803,1778255185730,0.45174995000000007,-0.9183875,0.12471326,2.2210765,2.6141589,-3.7731667
804,1778255185740,0.33399234,-0.91704513,0.092375673,2.25436595,2.52920415,-3.66158025
805,1778255185750,0.133548132,-0.9277591939999998,0.0326548628,2.3413447599999997,2.2218221199999997,-3.2830385200000003
806,1778255185760,-0.19719826,-0.9759849299999999,-0.07687803,2.4218788,1.8881812,-2.8826056
807,1778255185770,-0.36352324999999996,-0.9816592500000001,-0.1574169175,2.4218788,1.8881812,-2.8826056
808,1778255185780,-0.4666374466666667,-0.9598772000000001,-0.21102816666666668,2.4108712,1.400290133333333,-2.1914265333333334
809,1778255185790,-0.44857723,-0.8886124,-0.23478307,2.2828617,0.89322424,-1.1616709
810,1778255185800,-0.41514137500000003,-0.87555537,-0.235515235,2.251036925,0.85593998,-0.9840380500000001
811,1778255185810,-0.3735819028571429,-0.8585236771428572,-0.23603821,2.1509211,0.7392174285714285,-0.4035830514285714
812,1778255185820,-0.33118567,-0.75364876,-0.20403185,2.2082932,0.47723848,0.51771855
813,1778255185830,-0.33118567,-0.75364876,-0.20403185,2.2082932,0.47723848,0.51771855
814,1778255185840,-0.17279254,-0.7277787300000002,-0.29018408,2.2370554,0.36716116000000004,0.6988134766666666
815,1778255185850,-0.160589675,-0.7242398975000001,-0.3194709425,2.2514365,0.3121225,0.78936094
816,1778255185860,-0.12398108,-0.7136234,-0.40733153,2.2514365,0.3121225,0.78936094
817,1778255185870,-0.12398108,-0.7136234,-0.40733153,2.15300606,0.202400256,0.78211714
818,1778255185880,-0.178942771,-0.566115208,-0.610875294,1.717952,-0.692315362,0.731623614
819,1778255185890,-0.30409533,-0.43564220000000003,-0.7582859,1.4797588799999999,-1.2609535600000001,0.8121576319999999
820,1778255185900,-0.37926495,-0.37365165,-0.7890371,1.2564794,-1.6255935000000001,1.1456919
821,1778255185910,-0.37926495,-0.37365165,-0.7890371,1.2564794,-1.6255935,1.1456919
822,1778255185920,-0.332796454,-0.36662281,-0.820276428,0.950961572,-1.65179902,1.72881766
823,1778255185930,-0.13081467,-0.34168017,-0.8715284000000001,0.6473612120000001,-1.3797305,2.2376945399999997
824,1778255185940,0.07254600750000001,-0.28658424000000005,-0.9139944200000001,0.48309743,-1.1004182,2.4671526
825,1778255185950,0.48738232,-0.11885588466666668,-1.1147721866666667,-0.66738819,0.6206940666666667,2.9813202000000003
826,1778255185960,1.0780008,0.032215554,-1.3830724,-2.0730047,2.2455776,3.3726273
827,1778255185970,1.309184025,0.0917045085,-1.117477075,-3.155579675,2.80164545,3.46250895
828,1778255185980,1.3862451,0.11153416,-1.0289453,-3.5164379999999995,2.9870014,3.4924695
829,1778255185990,1.6635918,0.14008886199999998,-0.5657734879999999,-3.62381668,2.95014328,3.45390692
830,1778255186000,1.8484896,0.15912533,-0.25699228,-4.0533314,2.8027108,3.2996566
831,1778255186010,2.1162552571428574,0.22020937000000002,0.2195469657142857,-3.4525219999999996,1.9728698,2.7920582
832,1778255186020,2.685544975,0.47157962500000006,1.1246158,-3.452522,1.9728698,2.7920582
833,1778255186030,2.8083668,0.5400987,1.3071706,-3.452522,1.9728698,2.7920582
834,1778255186040,3.007273533333333,0.73835452,1.4177285666666666,-0.02183793333333332,-0.2260135933333333,1.3880396
835,1778255186050,3.06755555,0.8656710350000001,1.2346856000000002,1.1784488,-0.733168235,0.75127775
836,1778255186060,3.0560849,0.90447617,1.0970373,1.6362462,-0.89375687,0.4575311
837,1778255186070,2.28174002,0.986674674,0.1309611112,2.4174046000000002,-1.01423832,-0.6687730199999999
838,1778255186080,2.0277497,1.01564425,-0.135329759,2.1995048500000003,-0.72491247,-1.01945807
839,1778255186090,1.6283499799999999,1.0719482599999999,-0.42895505,1.7225326199999997,-0.26642264400000004,-1.1221496000000002
840,1778255186100,1.1198323,1.15805172,-0.62034474,1.170193,0.18588865,-1.045557
841,1778255186110,1.0391958,1.171963,-0.6440671,1.170193,0.18588865,-1.045557
842,1778255186120,0.96390405,1.1440183499999999,-0.5907406000000001,0.41403278666666665,0.7495022966666666,-0.87023225
843,1778255186130,0.9479183,1.121443,-0.5544981,-0.2444782,1.2554141,-0.7637946
844,1778255186140,0.9135063,1.074096,-0.46956614,-0.5448828,1.5078819,-0.79255676
845,1778255186150,0.9135063,1.074096,-0.46956614,-0.7853281942857143,1.7544144714285714,-0.9532595257142857
846,1778255186160,0.9222923249999999,1.0232100750000002,-0.37438381249999997,-0.96566224,1.9393139,-1.0737866
847,1778255186170,0.9094183,0.9748257025,-0.3418631825,-1.03517073,1.9670108,-1.346494275
848,1778255186180,0.9230245,0.96451426,-0.32801294,-1.1792477,2.1315942,-1.7257284000000002
849,1778255186190,0.6392672733333333,0.8348384866666666,-0.4381641133333333,-1.3486248333333333,1.9167658666666665,-2.5534389333333336
850,1778255186200,0.328012928,0.71352576,-0.51993956,-1.4333134,1.8093517,-2.9672942
851,1778255186210,-0.34949,0.48762640000000007,-0.626739,-2.4154872333333333,1.7694042166666666,-2.99721035
852,1778255186220,-0.470298275,0.4835994475,-0.5465661749999999,-2.9630332,1.7933728,-2.9273467
853,1778255186230,-0.655928204,0.501976958,-0.29862842599999995,-3.0171486,1.78495718,-2.8620460000000003
854,1778255186240,-0.89813066,0.54888475,0.31751847,-3.273025,1.5174692,-1.7060211
855,1778255186250,-0.819239165,0.542844325,0.48902969249999995,-3.1180291,1.402021175,-1.36047585
856,1778255186260,-0.66920496,0.52662672,0.665544096,-2.81410916,1.2523249,-0.9615077
857,1778255186270,-0.28627914,0.49348375,0.9584128,-2.326005,1.1504856,-0.6785734
858,1778255186280,-0.12699111733333332,0.5037341433333333,1.0874377333333334,-1.9900916000000002,1.1465796000000001,-0.6139473999999999
859,1778255186290,0.22843759,0.53253293,1.4013767,-0.6306366,1.3028184,-0.5411543
860,1778255186300,0.28725538,0.5347294,1.4606826,0.0037284256,1.4343786,-0.5400891
861,1778255186310,0.31637954,0.5449798266666667,1.4824850666666667,0.5377810085333333,1.5348685333333334,-0.5237550333333334
862,1778255186320,0.373041495,0.5954590066666666,1.5029452166666666,1.33255705,1.6397083333333333,-0.4920634
863,1778255186330,0.41678877999999997,0.66896095,1.4850883499999998,1.8867165,1.6314525,-0.46339004
864,1778255186340,0.5451628875,0.9067947000000001,1.4556183999999999,2.8008465,1.285108475,-0.38229679250000004
865,1778255186350,0.66298153,1.08886135,1.4598284499999998,3.26769865,0.97817915,-0.316117235
866,1778255186360,0.88678203,1.32340035,1.5124228,3.769704625,0.43342948000000003,-0.250337145
867,1778255186370,1.79949515,1.70022485,1.62566525,4.3513391,-0.47537424000000006,-0.51478906
868,1778255186380,2.0554502,1.7843026,1.6498269,4.512993,-0.7392935,-0.60560286
869,1778255186390,2.6714507333333337,1.760385,1.5580614333333334,4.734923,-1.1021936333333333,-1.4943884866666668
870,1778255186400,3.0843955333333333,1.6708159333333334,1.4000750333333334,4.8537,-1.1877699000000002,-2.433063966666667
871,1778255186410,3.0558408,1.5731442,1.250500466,4.857606,-1.139833,-2.6802053
872,1778255186420,2.5741937999999998,1.27715165,0.774027515,4.255731375,0.248739235,-3.894873075
873,1778255186430,2.309595,1.1827828666666667,0.6221832333333334,3.9418335,0.7943322066666667,-4.0164021666666665
874,1778255186440,1.8048034,1.0201592,0.43198135,3.507383,1.510545,-4.0458746
875,1778255186450,1.6920489,0.975374765,0.41709384,3.37315985,1.67512835,-4.012052300000001
876,1778255186460,1.2991167,0.7614586,0.45150590000000007,3.190911,1.85258365,-3.960209283333333
877,1778255186470,1.2122323,0.6971902,0.47656246,2.9330281666666664,1.8132576666666669,-3.8608735000000003
878,1778255186480,1.072875675,0.5971470624999999,0.49934111,2.942793,1.6471651999999999,-3.8535942
879,1778255186490,0.9657345300000001,0.530214375,0.49275157999999997,3.0155860833333334,1.31276085,-3.8362836666666666
880,1778255186500,0.7809221875000001,0.42423252499999997,0.4510788125,3.071157325,1.0701913250000001,-3.79859995
881,1778255186510,0.581539592,0.31859233200000003,0.36554895,3.1231422,0.62094268,-3.6165728
882,1778255186520,0.32898918,0.18865626,0.21794313,3.099387,0.3797668,-3.4194990000000005
883,1778255186530,0.274442385,0.151437527,0.17767368,3.06290165,0.31372039500000004,-3.3145703500000003
884,1778255186540,0.16034561,0.051089317999999995,0.09656531666666666,2.9500723,0.13315805666666666,-2.98859945
885,1778255186550,0.081368682,-0.053497348,0.019134087999999997,2.8235899,0.013741910000000001,-2.68233588
886,1778255186560,0.007565775,-0.16303024,-0.06638357,2.53772625,-0.125701205,-2.1185446
887,1778255186570,-0.054912881000000004,-0.32923324,-0.255568625,2.149259916666667,-0.05024497416666667,-1.6615461666666667
888,1778255186580,-0.0711426875,-0.39329827,-0.304339395,1.8975023500000001,0.0226368685,-1.4255901500000001
889,1778255186590,-0.07034950175,-0.49372782000000004,-0.337897265,1.4796523000000001,0.13781858749999998,-1.05421238
890,1778255186600,0.016229808000000002,-0.7590587333333333,-0.33561938,0.5289038,0.39592328666666665,-0.23045221333333332
891,1778255186610,0.059354725,-0.8339924400000001,-0.32279010399999997,0.185995172,0.537638962,0.050067422000000014
892,1778255186620,0.165552168,-1.0040514833333334,-0.2808285333333333,-0.3453232233333334,0.8704986166666666,0.44776614666666664
893,1778255186630,0.21490983857142856,-1.0991640571428571,-0.2418955985714286,-0.5479263828571429,1.058416342857143,0.5833083714285714
894,1778255186640,0.18768002000000003,-1.2210184,-0.1164153,-1.202151,1.9121496999999998,1.0796455
895,1778255186650,0.1436032844,-1.2210184,-0.08258897159999999,-1.202151,1.9121497,1.0796455
896,1778255186660,0.06426841133333333,-1.1984024,-0.029612280666666668,-1.3640712,2.169233566666667,1.3566143000000002
897,1778255186670,-0.01964661,-1.1460927250000001,0.03264265525,-1.48138335,2.3740750250000002,1.657684675
898,1778255186680,-0.066334764,-1.11241286,0.0754624998,-1.48806786,2.40962822,1.7571537200000003
899,1778255186690,-0.13364573600000001,-1.00546702,0.22101825000000003,-1.3389308999999998,2.4092021800000003,2.1474665600000002
900,1778255186700,-0.1403329,-0.9862353,0.24723,-1.1478225,2.347843,2.4612935
901,1778255186710,-0.09095198833333334,-0.9687038583333334,0.2508095066666667,-1.0433378,2.2648411166666667,2.5207707833333335
902,1778255186720,0.50617474,-0.70923036,0.0707766,-0.015446335,0.8266452,2.6455843
903,1778255186730,0.50617474,-0.70923036,0.0707766,-0.015446335,0.8266452,2.6455843
904,1778255186740,0.46468499999999996,-0.49624973333333333,-0.14610893333333333,0.04740426833333333,-0.3650306266666667,2.4669749666666667
905,1778255186750,0.2909162425,-0.2581515575,-0.3781056725,-0.036218990000000006,-1.7414411349999999,2.4751419500000003
906,1778255186760,0.18340902575,-0.1780397675,-0.4511398125,-0.2783003475,-2.7358655,2.878743975
907,1778255186770,-0.030995272333333334,0.08965036666666666,-0.5507558866666667,-0.8380079866666668,-3.8722362666666665,4.446591266666666
908,1778255186780,0.289207824,0.205886696,-0.410601928,-1.0839065,-4.3180494,5.168663
909,1778255186790,0.786962575,0.24954853,-0.25552794,-1.146623975,-4.630038600000001,6.93593675
910,1778255186800,3.0158153,0.5171573,0.11543907000000002,-0.8989943833333333,-4.507666666666666,7.795338833333333
911,1778255186810,4.4074297,0.7912336,0.13764828,-0.54568171,-3.9762328,7.485081
912,1778255186820,5.6596875,1.4094306,-0.42636803,-0.29752836400000005,-2.12893108,4.98895324
913,1778255186830,5.012448,1.7586764,-0.8188121,-0.71798825,-0.6135923,3.1941955
914,1778255186840,4.4882129,1.9110901999999999,-0.89581217,-1.2225240875,0.0667122025,2.752776475
915,1778255186850,3.2413731599999998,2.1603459999999997,-0.908771568,-1.90416022,0.8576443939999999,2.52297232
916,1778255186860,2.16552,2.0132282,-0.5523015,-2.9273467,1.7289242000000002,2.5848641
917,1778255186870,1.8772882,1.8985213,-0.3746279,-3.213903,1.7960359,2.5363946
918,1778255186880,1.7306911999999999,1.8679328333333334,-0.25894474666666667,-3.3420896666666664,1.7722449666666666,2.4802907333333333
919,1778255186890,1.4704449,1.7891837,-0.044418417,-3.5116444,1.7049558,2.3531692
920,1778255186900,1.3860011,1.7463517,0.08639627150000001,-3.53028645,1.67832415,2.3036344
921,1778255186910,1.235515414,1.6753066799999998,0.24244648,-3.5099398,1.6677779999999998,2.19881238
922,1778255186920,0.76121455,1.5280424,0.4527262,-3.1435955,1.7923075,1.8407769
923,1778255186930,0.6268854700000001,1.5256995199999999,0.49333732,-2.9953106,1.7820809199999998,1.7433052199999999
924,1778255186940,0.48225713,1.5490313999999998,0.5547421,-2.595517,1.6495620000000002,1.4658039
925,1778255186950,0.40513504,1.6700838,0.59794027,-1.9057581,0.9598033,0.8628642
926,1778255186960,0.41421397200000004,1.6761364399999998,0.5912042980000001,-1.8381138,0.855194326,0.79010664
927,1778255186970,0.4031825700000001,1.7271931000000003,0.60306543,-1.2159994,-0.012250541,0.12836437
928,1778255186980,0.35705577,1.75043965,0.5994045825000001,-0.87990844,-0.3057309,-0.20080236
929,1778255186990,0.31056283833333337,1.7079533,0.5756090333333334,-0.5864281,-0.39627838,-0.45220476000000004
930,1778255187000,0.37096703,1.5678238,0.5762192,-0.05539375,-0.0974717,-0.892159
931,1778255187010,0.399155645,1.5231613,0.5912287,0.34461305,0.22743396,-1.1755193
932,1778255187020,0.5139497514285714,1.3950312571428571,0.6346883142857144,0.6664750871428572,0.4205511942857143,-1.3882679
933,1778255187030,0.6501075000000001,1.3132111,0.6392469775,1.03051019,0.541420655,-1.6702015
934,1778255187040,0.836018125,1.13901525,0.5769513374999999,1.76114845,0.47390951000000003,-2.438656725
935,1778255187050,0.8329673999999999,0.9691513,0.4685899,2.31695,0.29614353,-3.1047132000000004
936,1778255187060,0.7646313499999999,0.9139943500000001,0.41770397000000004,2.4413196499999996,0.206394995,-3.2597092500000002
937,1778255187070,0.5535218,0.78464407,0.26651052,2.7201529,-0.092145376,-3.5840824
938,1778255187080,0.504319888,0.761214534,0.242104784,2.79855634,-0.2647182112,-3.63990208
939,1778255187090,0.49885303,0.8412653,0.3116611,3.0019152,-0.7643272,-3.5356128
940,1778255187100,0.5942794,0.97085977,0.34924594000000003,3.0924628,-0.97738016,-3.4157704999999994
941,1778255187110,0.7404697,1.1246158,0.3402158,3.1366713,-1.2522184,-3.2815470000000007
942,1778255187120,0.9781815,1.2852055,0.28627914,3.1366713,-1.2522184,-3.281547
943,1778255187130,1.15507416,1.36281568,0.24805978199999998,3.0090524800000003,-1.47709572,-3.20516762
944,1778255187140,1.9026704000000003,1.6019918,0.039537273,2.288188,-1.4402375,-3.4732946999999994
945,1778255187150,2.0694224,1.594120925,-0.024161667750000004,1.8620822,-1.274589,-3.7156425
946,1778255187160,2.1894376,1.5373165666666668,-0.08232864266666667,1.4892397,-1.0810659166666667,-3.9016199166666667
947,1778255187170,2.1430666,1.1900232,-0.016595893,0.69721556,-0.5219796,-4.213121
948,1778255187180,2.1430666,1.1900232,-0.016595893,0.69721556,-0.5219796,-4.213121
949,1778255187190,2.0441014,1.047249685,0.1142187985,0.6710278166666667,-0.50129571,-4.235935416666667
950,1778255187200,1.8082689200000002,0.797286226,0.302630994,0.676762472,-0.5368932799999999,-4.2433746
951,1778255187210,1.6714667333333333,0.665056,0.27903878666666665,0.6716492,-0.5406217,-4.250938
952,1778255187220,1.2811611142857142,0.3270018342857143,0.10871006857142858,1.0781237142857143,-0.8356999571428572,-4.0712886
953,1778255187230,1.1739967333333332,0.27326275666666666,0.067359799,1.0613585333333333,-0.8689007000000001,-4.014271566666666
954,1778255187240,0.83667704,0.147068902,-0.0246985926,0.9967679759999999,-0.8579639840000001,-3.89194362
955,1778255187250,0.584029,0.06321083,-0.058817793,0.8495484000000001,-0.75101143,-3.60592
956,1778255187260,0.34859509333333333,-0.017328063333333334,-0.06516328433333334,0.8495484000000001,-0.75101143,-3.60592
957,1778255187270,0.12625894266666668,-0.10429378999999998,-0.06980037333333333,0.5317444933333333,-0.33254004833333334,-2.82827715
958,1778255187280,-0.036120474,-0.1986626,-0.067847915,0.3269030375,-0.008921587250000002,-2.276603375
959,1778255187290,-0.10164984599999999,-0.25284332,-0.06070923875,0.252867165,0.12663331275,-2.058756775
960,1778255187300,-0.17311794333333333,-0.31711172,-0.04596411466666667,0.022370554416666664,0.5599740333333333,-1.3343324833333332
961,1778255187310,-0.286376758,-0.427685928,0.010201592800000001,-0.19164107534,0.9722668800000001,-0.33609093199999995
962,1778255187320,-0.34045988,-0.49885303,0.05906185,-0.3073288,1.1973573,0.42290998
963,1778255187330,-0.3374265885714286,-0.5162159628571429,0.06931225428571429,-0.3301558857142857,1.240272214285714,0.6418218314285714
964,1778255187340,-0.3141627,-0.5677381850000001,0.08810466,-0.392949415,1.3602095,1.2856410500000002
965,1778255187350,-0.28540055999999997,-0.59144832,0.09176552,-0.426105776,1.42841312,1.6512664799999999
966,1778255187360,-0.2518671,-0.6128277,0.09469421,-0.44217352000000004,1.48133905,1.9265308333333333
967,1778255187370,-0.125347808,-0.69317138,0.132864762,-0.43026032000000003,1.6030099400000002,2.58252068
968,1778255187380,-0.027871337000000003,-0.77522344,0.14907016,-0.350898108,1.64636618,2.93277958
969,1778255187390,0.027822526000000004,-0.8312589500000002,0.13886857,-0.2545982,1.6644757,3.1973913
970,1778255187400,0.0763289065,-0.8850735875,0.1196490625,-0.16218651,1.68631365,3.3931336500000002
971,1778255187410,0.1295944,-0.9034999,0.09737884000000001,0.029827405,1.7592843,3.7476003
972,1778255187420,0.1786499,-0.8786061400000001,0.07541369,0.10013486,1.7630126000000002,3.8040593
973,1778255187430,0.20456878399999998,-0.8646948460000001,0.06325964,0.14775218,1.7358484399999998,3.8091726199999996
974,1778255187440,0.33069757,-0.79269797,0.013911263,0.3747955516666666,1.4776105833333333,3.72469725
975,1778255187450,0.34680536,-0.7399816,-0.012202863,0.5965481,1.1286477,3.5968654
976,1778255187460,0.32825701333333335,-0.68791602,-0.04197784766666667,0.7261553,0.8342796333333333,3.5421818666666667
977,1778255187470,0.2818861,-0.5588911,-0.14423785,0.95447695,0.075101145,3.536678
978,1778255187480,0.26114124,-0.4515059,-0.22648512,1.0479539125,-0.49375006125000004,3.66610775
979,1778255187490,0.370283652,-0.08263778279999999,-0.42680732,1.1957593,-2.3947146,4.5827675
980,1778255187500,0.56670094,0.093473926,-0.5183776,1.123854,-3.1505196000000004,5.2480254
981,1778255187510,0.9718358680000001,0.2709523692,-0.62010064,0.921027632,-3.68741288,5.86715692
982,1778255187520,1.8089523000000003,0.50837123,-0.81539524,0.5454154,-3.9244342,6.4006414000000005
983,1778255187530,2.0796466714285713,0.5392270571428571,-0.8877756442857143,0.16283327714285714,-3.5975502285714285,6.4185989
984,1778255187540,3.5686052,0.630888,-1.359887,-1.2112057,-2.15503,6.1790667
985,1778255187550,3.56997184,0.64104076,-1.53521772,-2.1156151,-0.96140116,5.8238006
986,1778255187560,3.3943970200000004,0.66144393,-1.61478036,-2.5312813,-0.486293216,5.761163160000001
987,1778255187570,2.6065313999999997,0.6872652,-1.4184606999999998,-3.913382125,0.972186925,5.757887625
988,1778255187580,2.0761951,0.5579148666666667,-0.91798068,-4.648814066666667,1.5304299,6.010044533333333
989,1778255187590,2.23761456,0.31663988,-0.49553380999999996,-5.911791679999999,2.3930101,6.499497719999999
990,1778255187600,2.47669295,0.23466104999999998,-0.21293992885,-6.087719925,2.69072495,6.2476427
991,1778255187610,3.4222520499999995,0.5567352833333333,0.8955273187166667,-6.067746166666666,2.9010703,5.868896966666667
992,1778255187620,3.415337,0.84150934,1.4614148,-4.4075317,3.9910133,2.4149544
993,1778255187630,3.24557088,0.913652724,1.542637,-4.20395968,3.92400814,2.2275744
994,1778255187640,2.8204883333333335,1.0724689333333333,1.6730937000000001,-3.028191833333333,3.382569666666667,1.2873720666666666
995,1778255187650,2.0198178,1.3381659,1.5829554,-1.2362394,1.8578212,0.5592638
996,1778255187660,1.8955926500000002,1.3776421749999999,1.469895875,-0.8000136000000001,1.404018545,0.36778252499999997
997,1778255187670,1.313934457142857,1.4789171714285714,0.875712242857143,0.8624837999999999,-0.6892261171428571,-0.5974611857142857
998,1778255187680,1.095145875,1.4623299749999998,0.679272325,1.03130915,-1.2853747,-0.9210542500000001
999,1778255187690,1.0338265,1.4577539,0.6279593,1.0679276,-1.4434333,-1.0072075
