id,timestamp,acc_x,acc_y,acc_z,gyro_x,gyro_y,gyro_z
0,1778255726680,0.20232345,0.12544543,0.94279313,0.19121496,-0.582167,-0.35473305
1,1778255726690,0.20232345000000002,0.12544543,0.9427931299999999,0.19121496,-0.582167,-0.35473305
2,1778255726700,0.196344045,0.1372822,0.915458715,0.24314661,-0.5641906999999999,-0.35752938749999996
3,1778255726710,0.20728595333333333,0.1596947833333333,0.8420788333333333,0.241815035,-0.5320108499999999,-0.35180358333333334
4,1778255726720,0.24942651666666663,0.16530810333333332,0.7357512533333334,0.16777915666666665,-0.4433275666666667,-0.34230497333333326
5,1778255726730,0.310782516,0.18963248,0.5946699320000001,-0.14956312600000002,-0.248526202,-0.308820164
6,1778255726740,0.341728968,0.20105436399999999,0.5491776639999999,-0.44187169800000003,-0.097045596,-0.275157808
7,1778255726750,0.3436326,0.19402552,0.58036816,-0.598146,-0.022903185,-0.25406557
8,1778255726760,0.39381077600000003,0.18016306599999998,0.686581836,-0.798415708,0.155315564,-0.211561524
9,1778255726770,0.45004156,0.14911897,0.7531606600000001,-0.8410262999999999,0.22050974,-0.19281286
10,1778255726780,0.5110558866666667,0.10771059300000001,0.7383545266666666,-0.7854550000000001,0.27537086,-0.27767892666666666
11,1778255726790,0.64309086,0.005043849333333334,0.6813265066666666,-0.6743124000000001,0.3850931,-0.44741106
12,1778255726800,0.62210192,-0.062844742,0.5946454999999999,-0.480700575,0.23009713,-0.606668115
13,1778255726810,0.46480704500000003,-0.083223522,0.45321429999999996,-0.405066805,0.35593148750000003,-0.5892244025000001
14,1778255726820,0.34851375,-0.07541369,0.3436326,-0.34168357833333335,0.6472369133333333,-0.3306758383333333
15,1778255726830,0.3577879,-0.15229172,0.35461518,-0.28442562,0.92731273,0.41278997
16,1778255726840,0.3862815925,-0.0884707475,0.220749785,-0.3271693425,1.2397014750000002,0.998285925
17,1778255726850,0.8217407566666667,0.048567392666666674,0.14741057333333332,-0.415541895,0.8383631183333334,1.2972258
18,1778255726860,1.527920465,-0.0835285915,0.16803341500000002,-0.6375608,-0.386691,0.3057309
19,1778255726870,1.7044959,-0.12398108,0.17669745,-0.6375608,-0.386691,0.3057309
20,1778255726880,1.00395386,-0.095426384,0.24815741600000002,-0.9709885359999999,-0.55510932,-1.59288998
21,1778255726890,0.9452337,-0.09396204,0.25284332,-0.9986854,-0.6013418,-1.6506273
22,1778255726900,0.8667448999999999,-0.099624168,0.158539592,-1.1265172,-0.8447547,-1.7864485
23,1778255726910,1.02266085,-0.2056792475,-0.17169427825,-1.74317205,-2.7734160500000002,-2.106027825
24,1778255726920,1.0688487,-0.264314,-0.246009705,-2.07912985,-3.4930022000000003,-2.23758795
25,1778255726930,1.11192482,-0.33304052,-0.256845844,-2.47929648,-3.79585684,-2.3137543799999998
26,1778255726940,1.27959215,-0.44985851,-0.1808464225,-2.9028456,-3.768506125,-2.3734092749999998
27,1778255726950,1.3617173999999999,-0.4907381,-0.11678139425,-3.5003257999999997,-3.336807775,-2.483397825
28,1778255726960,1.543348257142857,-0.5564854028571429,0.07328690071428572,-4.259612142857143,-2.7118590428571427,-2.654943457142857
29,1778255726970,1.6932083,-0.591716815,0.35589645999999997,-4.545749949999999,-2.82694555,-2.9185583
30,1778255726980,1.750256675,-0.61240065,0.46102412,-4.575044699999999,-3.08500585,-3.1166975
31,1778255726990,1.8520284333333332,-0.6779096450000001,0.6190105166666667,-4.559332,-3.220028133333333,-3.2330776166666664
32,1778255727000,1.91829,-0.7863524600000001,0.85127175,-4.501275,-2.799515,-3.6938045
33,1778255727010,1.91829,-0.78635246,0.85127175,-4.4714475,-2.8336034249999997,-3.6811545
34,1778255727020,1.81383345,-0.7933080650000001,0.9149705999999999,-4.3470777499999995,-2.9579730000000004,-3.7577204
35,1778255727030,1.8650041333333334,-0.7569028666666666,0.814175,-4.3239081666666666,-3.012745366666667,-3.9375725
36,1778255727040,1.8738716,-0.7409578,0.7753699,-4.329767,-3.0290794,-3.9702405999999995
37,1778255727050,2.0964517000000003,-0.661736844,0.5041734800000001,-4.9357962,-2.775014,-4.11724716
38,1778255727060,2.3302585999999996,-0.7211891699999999,0.5195979,-5.9809272,-2.19391215,-4.4168527
39,1778255727070,2.47709975,-0.82820825,0.6936107166666666,-6.4946509500000005,-1.7925737000000002,-4.653163833333333
40,1778255727080,2.6209308499999997,-0.954507875,2.06484625,-6.52794055,-0.9885653700000001,-5.060006
41,1778255727090,2.7993367,-0.94352525,2.9516282,-6.1630874,-0.54807854,-5.311941
42,1778255727100,2.8907769,-1.0585576166666666,3.2786650666666666,-5.505996933333333,-0.44457035,-5.586956866666667
43,1778255727110,2.7892083750000003,-1.0458463249999999,3.317775325,-3.4698328500000004,-0.313986695,-6.382798299999999
44,1778255727120,2.3473425,-0.8351639,2.9445508,-2.7478497,-0.39041942,-6.628608
45,1778255727130,2.2780651285714284,-0.8494238142857142,2.8421164714285716,-2.729435857142857,-0.24561954142857143,-6.650674214285714
46,1778255727140,1.8624009,-0.9349833,2.2275105,-2.6189528,0.62317973,-6.783071500000001
47,1778255727150,1.6163911999999998,-1.0413923,2.4107975,-2.690458625,0.7422230475,-6.72195195
48,1778255727160,1.2808124666666665,-1.1880707333333334,2.762321333333334,-2.7017769499999997,0.6679208550000001,-6.06881165
49,1778255727170,1.21272045,-1.4102848,3.686607,-2.0473051425,0.118910145,-5.49956095
50,1778255727180,1.7102067600000002,-1.56850716,4.5059314,-0.10737866200000004,-0.25129589,-5.191140280000001
51,1778255727190,2.0526678400000002,-1.56479752,4.51442436,1.31336458,-0.287088772,-5.23130068
52,1778255727200,2.1799192,-1.5426859,4.2956514,2.1257353,-0.30146983,-5.3140717
53,1778255727210,2.00771262,-1.2929665199999998,2.7664865599999997,3.05219562,-0.68901305,-5.5156197
54,1778255727220,2.1821158,-1.2034464,2.0012693,2.866360425,-0.3736415,-5.613011625
55,1778255727230,2.044793,-1.3046487333333332,1.9562001000000002,2.5005307333333335,-0.21944447666666667,-5.589087466666666
56,1778255727240,1.8842266,-1.3528093,1.9639285857142856,2.2873509857142857,-0.06292669142857142,-5.532450971428572
57,1778255727250,1.428223,-1.3745304,2.123054,2.1470406,0.4111921,-5.310876
58,1778255727260,1.06213715,-1.40821025,2.1304978,2.3076292,0.42850264,-4.8866344999999995
59,1778255727270,0.656025904,-1.42217028,2.14418946,2.5223332,0.47116646399999995,-4.3716324
60,1778255727280,0.47347106,-1.3157126,2.2027388,2.94385825,0.4796353,-3.8136466999999996
61,1778255727290,0.49934113333333335,-1.2721891,2.235239066666667,3.3330349,0.2558410151666667,-3.5551426
62,1778255727300,0.684031425,-1.214306825,2.1447141,4.1278997,-0.341017788625,-3.438007925
63,1778255727310,0.6471909960000001,-1.1861182399999999,1.8772396,4.5792523,-0.6355367839999999,-3.49396094
64,1778255727320,0.4948667666666666,-1.1488588333333334,1.3973905,5.104037333333333,-0.9963773533333334,-3.5345475333333334
65,1778255727330,0.27261195,-1.0160104,0.810026,5.0115366,-1.1073424,-3.3886063
66,1778255727340,0.26651052,-0.9705547000000001,0.7419340375,4.93217445,-1.08630345,-3.349058325
67,1778255727350,0.25784649,-0.7143555500000001,0.45004158999999994,3.8867060833333333,-0.585096525,-2.8544649
68,1778255727360,0.26748675,-0.5945235,0.36242503,3.51617155,-0.276169815,-2.71216335
69,1778255727370,0.31898284,-0.41758195,0.38170552,3.3071134,-0.05486112,-2.6450517
70,1778255727380,0.32004040000000006,-0.3993590066666666,0.5177267733333334,2.9257487833333333,0.23675503166666667,-2.4200146333333334
71,1778255727390,0.4848604,-0.4318999766666667,0.6469144133333333,2.7684447333333337,0.31230004,-2.3398534666666664
72,1778255727400,0.7211485,-0.44825181166666667,0.7342055599999999,2.7037299166666666,0.43640334999999997,-2.4588078999999996
73,1778255727410,1.57416928,-0.43368974600000004,0.8532241600000001,2.8507542,1.36215368,-3.35302632
74,1778255727420,1.56038005,-0.422829185,0.67152353,2.8479845,1.93452025,-3.6487970499999998
75,1778255727430,1.3782401199999998,-0.44657593999999995,0.38897844,2.63642304,2.6412167,-3.75090272
76,1778255727440,1.295944,-0.46444094,0.2882316,2.5209484,2.8932583,-3.7406762
77,1778255727450,1.091240915,-0.5734735375000001,0.1904866875,2.25370015,3.13747015,-3.60099335
78,1778255727460,0.89813066,-0.68531275,0.2523552,1.4519554,3.8701057,-3.1819448
79,1778255727470,0.81685966,-0.7070338,0.47762007,1.4519554,3.8701057,-3.1819448
80,1778255727480,1.05396123,-0.7591400500000001,0.515448935,1.3638048,3.62296435,-2.8746161
81,1778255727490,1.2910628,-0.8112463,0.5532778,1.2756542,3.375823,-2.5672874
82,1778255727500,1.2910628,-0.8112463,0.5532778,1.449425525,3.888348475,-2.5521073999999997
83,1778255727510,1.7187975999999998,-0.834529356,0.56269839,1.52812194,4.20555764,-2.55759352
84,1778255727520,1.7149902999999997,-0.8427296999999999,0.520086,1.6112125,4.791027,-2.599778
85,1778255727530,1.678564675,-0.870186075,0.2658393525,1.6112125,4.791027,-2.599778
86,1778255727540,1.5744947166666667,-0.8868633416666666,-0.07822033833333332,1.8553356333333333,5.9361863999999995,-2.7427009666666664
87,1778255727550,1.3021065,-0.868294685,-0.321728475,1.77752695,5.7903782249999995,-2.72254965
88,1778255727560,0.6943429,-0.757919785,-0.65565983,1.5709988,5.0474891500000005,-2.1899173999999997
89,1778255727570,0.5379022,-0.69312257,-0.68360436,1.536644,4.771852,-1.8977686
90,1778255727580,0.5271637,-0.5774395,-0.93205464,1.581385075,4.33402835,-1.3438311
91,1778255727590,0.68091977,-0.3968371,-1.2261436,1.583249275,3.9004658,-0.61798655
92,1778255727600,1.0101529,-0.25406358,-1.6603215,1.4626081,4.159325,-0.5784386
93,1778255727610,1.20185985,-0.045760735999999996,-2.3473426,0.671116625,5.53351625,-0.91346425
94,1778255727620,1.1395032,0.021477038,-2.4906042,0.37763625,6.0459085,-1.0333065
95,1778255727630,-0.050438503333333336,0.2541449433333333,-2.4036383333333333,-0.41465420833333333,5.659927683333333,-0.7306826599999999
96,1778255727640,0.09005712,0.2037878,-2.486211,-0.5334311899999999,4.702876249999999,-0.465254265
97,1778255727650,-0.32809430666666667,0.7643059066666668,-2.0682223333333334,-0.3961008366666667,3.4764903999999994,-0.3000494866666667
98,1778255727660,-0.04075757000000001,0.98721147,-2.01591275,0.09480854,1.53424705,-0.45193845000000005
99,1778255727670,0.1171474735,1.20552075,-2.15404925,0.45300371500000003,0.59761335,-0.7550062
100,1778255727680,-0.0917655265,1.2778838000000001,-2.45985295,0.43436159,0.65380605,-0.8061389
101,1778255727690,-0.23063409999999998,1.2942356,-2.6262999,0.3680488800000001,0.7888283,-0.7813715
102,1778255727700,-0.513191375,1.4694076999999999,-2.71416055,-0.053795849999999985,0.777643055,-0.5520733025
103,1778255727710,-0.89813066,1.7344173399999998,-2.47576544,-0.229777536,0.626055924,-0.38040593
104,1778255727720,-0.7298775799999999,1.85420048,-2.07717124,0.05528723999999998,-0.04122573599999999,-0.0847950494
105,1778255727730,-0.524723065,1.893213075,-1.984307475,0.609464425,-0.6186523399999999,-0.00892159025
106,1778255727740,-0.4937278,1.8992535,-1.9810127000000002,0.7190535,-0.7121293,-0.017576864
107,1778255727750,-0.37706844,1.79489458,-2.1867041,1.15666414,-0.9943178199999998,-0.1431715388
108,1778255727760,-0.2368168833333333,1.6060593,-2.655749466666667,1.5220853333333333,-1.3287398666666668,-0.2833603333333333
109,1778255727770,-0.3004344833333333,1.4931422333333335,-3.140447333333333,1.06233495,-1.5859125,-0.20692761
110,1778255727780,-0.30352586666666664,1.4104068666666667,-3.239046533333333,0.3359133933333333,-1.8523174000000002,-0.08823940333333334
111,1778255727790,-0.3065359,1.38112,-3.2474258,0.11132014,-1.929194,-0.051665325
112,1778255727800,-0.28335045666666664,1.3415013666666666,-3.1569618666666663,-0.49854377,-2.171009,0.043675844
113,1778255727810,-0.015619664569999999,0.90655065,-1.855384275,-1.128780825,-2.887132975,0.21478394
114,1778255727820,0.00024405724,0.8717725,-1.7728319,-1.1355719,-3.0229542,0.24927188
115,1778255727830,0.0695563152,0.646995728,-1.37223626,-1.0878481199999999,-3.16117222,0.29656961600000004
116,1778255727840,0.094877255,0.5982453000000001,-1.2991777,-1.039964485,-3.21217175,0.316649845
117,1778255727850,0.15619664,0.520086,-1.1931958,-0.97045594,-3.2405345000000003,0.32384038
118,1778255727860,0.4322253875,0.2372846675,-1.0535951749999999,-0.930641675,-2.8308071000000004,0.013981595
119,1778255727870,0.35424910499999995,0.0492995675,-1.1229075000000002,-0.9965549,-2.7728834,-0.13741912
120,1778255727880,0.27236789499999997,-0.2818861225,-1.0894716,-1.3005991166666666,-3.9634938833333333,-0.03657408166666667
121,1778255727890,0.18206671,-0.48713827,-0.9962417,-1.5542208,-4.9827743,0.07882957
122,1778255727900,0.23584066,-0.5930591133333333,-0.7436424466666667,-1.5542208000000002,-4.9827743,0.07882957
123,1778255727910,0.50798074,-0.8807537599999999,-0.1079709298,-1.17946084,-6.0258813799999995,0.703181066
124,1778255727920,0.7890371000000002,-1.0225998,0.094206095,-0.99921805,-6.069344,0.81918836
125,1778255727930,0.7983112750000001,-1.038219475,0.11678139125,-0.614923935,-5.73897925,0.944889575
126,1778255727940,0.8261338,-1.0850785,0.18450727999999997,-0.38402784000000006,-5.406217000000001,1.0327739
127,1778255727950,0.6872652,-1.1827015,0.082735404,0.12623383,-4.278102,1.433846
128,1778255727960,0.4720067,-1.2356619,-0.1867038,0.118776985,-3.9702405999999995,1.7475662999999997
129,1778255727970,0.23673552,-1.2930154,-0.75535715,-0.10333065,-3.8988678,2.1523669
130,1778255727980,0.2029336,-1.3668426500000002,-0.879826375,-0.853276825,-4.34681165,2.9382657
131,1778255727990,0.335383488,-1.53048298,-1.0400255600000001,-1.7291372600000003,-4.8130780600000005,3.8090661199999998
132,1778255728000,0.797640075,-1.78235005,-0.9510300500000001,-2.657435375,-4.704607525,4.38715865
133,1778255728010,0.9466980666666668,-1.8694784666666668,-0.8298759833333333,-2.951670266666666,-4.465233733333334,4.547259
134,1778255728020,1.1633803166666667,-1.9916291166666669,-0.6164886316666667,-3.375112833333333,-3.809563466666667,4.739095333333333
135,1778255728030,1.6124862,-2.1943188,-0.14472595,-4.222708,-1.3944311,4.8639975
136,1778255728040,1.7429958,-2.20566735,-0.1573559125,-4.3157856,-1.1976235100000001,4.79608695
137,1778255728050,1.8592977714285712,-2.170540542857143,-0.29670389999999996,-4.9309569714285715,-0.4474110685714286,4.311581942857143
138,1778255728060,1.8172504,-2.1711333,-0.5696296,-5.713013,-0.6711166,3.7902110000000007
139,1778255728070,1.794797075,-2.2058504500000002,-0.552850675,-5.713013,-0.6711166,3.790211
140,1778255728080,1.7038450166666668,-2.3285094833333333,-0.3381819833333333,-7.286586466666667,-2.3425165999999997,2.996056333333333
141,1778255728090,1.6563352666666666,-2.428206933333333,-0.15888126,-7.970841133333333,-2.7810503333333334,2.7308054666666663
142,1778255728100,1.61766032,-2.51266706,-0.011031380000000002,-8.337931000000001,-2.54853868,2.73783628
143,1778255728110,1.3760435599999998,-2.5732908,0.798262384,-8.572716,-0.3387541,3.0333405
144,1778255728120,1.1913248,-2.5072000666666665,1.1722882333333333,-8.539337666666666,0.045451266666666656,3.1327651666666667
145,1778255728130,1.12529912,-2.48435644,1.15263358,-8.515404799999999,1.11139042,3.5192076200000004
146,1778255728140,1.4690619333333335,-2.4645715333333333,1.1255920333333334,-8.662020666666665,1.0989978666666667,3.6540346000000006
147,1778255728150,1.6317668,-2.455216,1.1229074,-8.898154,0.6775082,3.6735644
148,1778255728160,3.709984014285714,-2.129713257142857,2.9678406714285717,-8.406153857142858,-3.1929779857142857,2.3610065142857146
149,1778255728170,3.85888688,-1.74071386,3.7434475999999997,-7.5641232,-4.595550879999999,1.7678063800000001
150,1778255728180,3.91062698,-1.4565335799999999,4.1532686,-6.289427600000001,-5.2018995199999996,1.3455355
151,1778255728190,4.0613565,-1.1304731,4.445747,-5.646966714285715,-4.764091,1.1112990571428571
152,1778255728200,3.3855969285714282,-0.6064822284285715,4.8997282857142865,-5.110986714285715,-2.8875514571428575,0.6883890771428571
153,1778255728210,2.4753100333333333,-0.012690975833333335,5.585901,-4.773450216666666,-1.4451199916666668,0.5047578083333333
154,1778255728220,2.3035207555555552,0.09930418222222222,6.437389333333333,-3.484006566666667,-0.18748655444444445,0.4378236888888889
155,1778255728230,1.7129564000000002,0.14659705333333334,6.477035066666667,-1.4285196666666666,-0.2585041833333333,0.17931952666666665
156,1778255728240,1.428467,0.19671014,6.3986925999999995,-0.6940198000000001,-0.35792887,0.11132014
157,1778255728250,1.428467,0.19671014,6.3986926,-0.35473307499999995,-0.4209126275,0.2494050425
158,1778255728260,1.5331676428571428,0.5409354414285714,5.380241971428572,0.7699579142857143,-0.6694426142857143,0.6899109114285714
159,1778255728270,1.7105973,0.6980037,5.018793,0.9123990000000001,-0.7488809,0.72491246
160,1778255728280,2.458968125,0.77771893125,4.63980275,0.9362342825,-0.896153725,0.451272656
161,1778255728290,2.9313715,0.7385171999999999,4.570704,0.83516735,-0.6940198000000001,0.020240024
162,1778255728300,2.9313715,0.7385171999999999,4.570704,0.83516735,-0.6940198000000001,0.020240024
163,1778255728310,3.0333177857142855,0.5605646085714285,4.7393126571428565,1.2497073557142857,0.9690862714285714,-0.6985852142857143
164,1778255728320,3.2269599285714285,0.064988954,5.192073642857143,1.6460617857142859,1.3588969714285715,-0.8898001785714286
165,1778255728330,2.770507375,-0.30290555725,4.968151375,2.7345338125,1.7361147749999999,-1.176185125
166,1778255728340,2.514521866666666,-0.46875263333333334,4.615529433333333,3.7140444333333336,1.7798793999999998,-1.3301602333333333
167,1778255728350,2.3226231714285714,-0.5015725342857144,4.089039785714285,5.131911357142857,1.6898899142857142,-1.5326111857142857
168,1778255728360,2.2347407875000003,-0.44933992,3.2492868125,5.504754,1.5856462,-1.5824504
169,1778255728370,2.272051,-0.428076415,2.7109880499999996,5.7054677499999995,1.29207705,-1.7232428000000002
170,1778255728380,2.2960906,-0.42392743,2.4010353,5.68318575,1.0457346333333335,-1.9783736666666665
171,1778255728390,2.3632369125,-0.5426308375,2.3694603374999996,5.486112,1.4753913,-2.269546
172,1778255728400,2.3488767285714287,-0.6866027857142857,2.3225882714285717,5.4692197714285715,2.1442251857142858,-2.361310857142857
173,1778255728410,2.3124423,-0.767316,2.2924297,5.5894427,2.9470541,-2.4730115000000006
174,1778255728420,2.2985310749999996,-0.9402915000000001,2.00944525,5.806224,3.320962,-2.6104305
175,1778255728430,2.293894,-0.99795,1.9151171,5.806224,3.320962,-2.6104305
176,1778255728440,2.29953785,-1.021928625,1.853401125,5.8363842875000005,3.3279527875,-2.6372618500000002
177,1778255728450,2.263387,-1.3281596,1.2010057999999997,6.4597635,2.7563717,-3.9883502
178,1778255728460,2.263387,-1.3281596,1.2010057999999997,6.440436614285715,2.7093479285714284,-4.125921457142857
179,1778255728470,2.019024625,-1.655440325,0.9725680999999999,6.3921194,2.5917885,-4.4698496
180,1778255728480,1.5151074,-2.1206133,0.2630937,5.8813252,2.7425234,-4.716991
181,1778255728490,1.4646921428571429,-2.119985785714286,0.1874359569142857,5.759885,2.829114142857143,-4.676510914285714
182,1778255728500,1.2782672857142856,-2.1059351714285715,-0.07157850628571429,5.308517214285714,3.1540958,-4.509568785714285
183,1778255728510,0.9712665,-1.9102361333333333,-0.29067219,4.2381548,3.7772501333333337,-3.9137816666666665
184,1778255728520,1.0948001666666667,-1.7224339833333333,-0.27606943333333334,3.7378354666666667,4.038062433333334,-3.6327292666666664
185,1778255728530,1.1380999125,-1.6137675249999999,-0.1847818525,3.1673641125,4.44594765,-3.3254227375
186,1778255728540,1.1648852,-1.54598065,-0.15644070000000002,2.9643646333333336,4.681659600000001,-3.237516283333333
187,1778255728550,1.1395032,-1.4169964,-0.15570852,2.6796727,4.9944925,-3.1382692
188,1778255728560,1.1661055,-1.2368821,-0.10543273,2.5337980375,5.014998562500001,-2.88986265
189,1778255728570,1.2023480500000001,-1.1874605500000002,-0.16376241,2.4754082,4.9691922,-2.86369715
190,1778255728580,1.134439075,-1.0714113250000001,-0.2969566475,2.30243595,4.755473725,-2.84185925
191,1778255728590,1.0026568714285715,-1.0285618714285716,-0.32972132857142855,2.1288549428571426,4.588474642857142,-2.7468603857142857
192,1778255728600,0.8198289583333334,-0.9575586166666668,-0.21599065833333334,1.6437030166666666,4.484940833333333,-2.2590708333333334
193,1778255728610,0.8208866162499999,-0.91890606,-0.12950287625,1.3934990375,4.5551373250000005,-1.8955049625
194,1778255728620,0.89105296,-0.86884385,-0.05051985,1.2497073714285716,4.613660228571428,-1.6100711857142858
195,1778255728630,0.9657344533333334,-0.84736675,0.033923956666666664,1.2664219333333333,4.557023699999999,-1.4065041999999999
196,1778255728640,1.132120575,-0.805510925,0.06867161,1.462475,4.3040012,-1.2309796874999999
197,1778255728650,1.5739601142857145,-0.6458452228571429,-0.18182266,2.003306,3.634225785714286,-1.3187212714285714
198,1778255728660,1.6781377,-0.5640976666666666,-0.40391476,2.0756679,3.5446675000000005,-1.3427657999999998
199,1778255728670,1.69802835,-0.49995127,-0.6825061,2.0769994625,3.6085833125,-1.621731925
200,1778255728680,1.5664988285714287,-0.3782887257142857,-1.2695857714285714,1.7897964714285715,3.8892805142857148,-1.9180847428571428
201,1778255728690,1.5146192,-0.3436326,-1.4291992,1.6745957,3.9862196000000005,-1.969674
202,1778255728700,0.636867375,-0.232891625,-1.35140595,0.982440125,4.1930141,-1.6197346
203,1778255728710,0.15383742333333333,-0.18865625,-1.3124585,0.58412,4.023148733333334,-1.15048559
204,1778255728720,0.06662763,-0.23307467,-1.3279155,0.7885239428571429,3.296536985714286,-0.8134815971428572
205,1778255728730,0.3290196625,0.31355255875000004,-2.1333653,1.262871075,2.3972445374999998,-0.7725164625
206,1778255728740,0.3398903766666666,0.566945,-2.9625294333333336,1.1531488466666666,1.9093089999999997,-1.1227887
207,1778255728750,-0.21330600499999997,0.5954997,-3.85390815,0.07323693,1.6205335,-1.69137365
208,1778255728760,-0.8681116999999999,0.4607452214285714,-3.961537357142857,-1.2086946942857142,2.2069996857142855,-1.4055403857142856
209,1778255728770,-1.1063115571428572,0.36660884428571433,-3.769708214285714,-1.8787460714285713,2.6124088285714286,-1.0069792714285715
210,1778255728780,-1.5333506000000001,0.324474115,-2.28998905,-2.0936441875000003,2.4750087374999996,-0.273040595
211,1778255728790,-1.58926015,0.4350727266666667,-1.3690392333333332,-1.6186693666666667,1.6531129333333332,0.21695885599999998
212,1778255728800,-1.567475142857143,0.4595249342857143,-1.19302168,-1.2709365942857143,1.1969768571428572,0.33388431
213,1778255728810,-1.4297483125,0.62219344,-0.5394275225,0.4399542225,-0.16871127000000002,0.6302370749999999
214,1778255728820,-1.2720263666666665,0.8282489666666666,-0.7739868333333333,2.033856175,-0.6420881450000001,0.7832357
215,1778255728830,-1.0566982,0.9273478428571428,-1.5521692,3.790058657142857,-0.8131772371428572,0.8594401714285713
216,1778255728840,-0.9414334571428571,0.9665713142857143,-2.166112685714286,3.9787626,-0.763262,0.8474179
217,1778255728850,-0.9111354428571428,1.0585808142857143,-3.3365764285714286,3.7728623142857143,-0.61397279,0.7481200342857142
218,1778255728860,-1.1449422142857144,1.0505619,-4.088551571428572,3.059211142857143,-0.6897587157142857,0.7577074228571429
219,1778255728870,-1.43835135,0.87958235,-4.274663,1.6437030625,-1.07824740625,1.2852416
220,1778255728880,-1.4513270666666667,0.6900311866666667,-3.8212859333333333,0.16529353333333333,-1.2651791,2.130884
221,1778255728890,-1.3433521,0.6169767225,-3.5349863,-0.02396845,-1.2479573,2.2860575
222,1778255728900,-0.8304919985714286,0.47660895000000003,-2.8526805714285715,-0.3190467,-1.2138689,2.6860642
223,1778255728910,-0.40123013,0.39878955,-2.455216,-0.29987195,-1.6255934999999997,3.1622376
224,1778255728920,-0.16501321625,0.3559575,-2.3761414,-0.1673796775,-2.0110860625,3.1639021
225,1778255728930,0.45951914,0.25040274166666665,-2.260214233333333,-0.1272991,-2.5028389,3.0450585
226,1778255728940,0.50568664,0.24356914,-2.263387,-0.1272991,-2.5028389,3.0450585
227,1778255728950,0.71197601,0.15964395012500002,-2.3035648375,-0.4599945025,-2.8401948375,2.7734160375
228,1778255728960,0.7538928149999999,-0.015863724,-2.15356125,-1.2346415333333334,-3.369609033333333,2.454014133333333
229,1778255728970,0.7212239928571428,-0.1288970907142857,-1.9642076285714285,-2.1248221571428574,-3.8723123999999998,2.2950361428571426
230,1778255728980,0.71813843,-0.35998443,-1.62773985,-2.5334651625,-4.0398158625,2.335725425
231,1778255728990,0.7208056114285715,-0.5192492142857142,-1.3994242142857143,-2.8258422285714286,-4.088180828571429,2.4096281
232,1778255729000,0.8053889066666667,-0.7652821333333334,-0.9317291666666666,-3.2581113,-3.9816921,2.6732811
233,1778255729010,0.97281224,-0.9906283,-0.4283205,-3.4141726,-3.9025962,2.8091023
234,1778255729020,1.0156268285714285,-1.0562448714285715,-0.24729974571428573,-3.3278862000000005,-3.8114400571428573,2.832081642857143
235,1778255729030,1.1315540142857141,-1.2870533714285715,0.31856444714285714,-2.950249914285714,-3.4785450142857144,2.9154005714285716
236,1778255729040,1.1351103,-1.3137602,0.36388937,-2.8288097,-3.3997915,2.9348035
237,1778255729050,1.1336459,-1.3604564666666665,0.3801598433333333,-2.5443840666666664,-3.1032041666666665,2.9980092333333332
238,1778255729060,1.1913044125,-1.5306660374999999,-0.09329089,-2.68260225,-2.561162,3.0399984
239,1778255729070,1.2594573666666666,-1.6774054333333333,-0.5628366666666668,-3.440804166666666,-2.389832033333333,2.94092885
240,1778255729080,1.2234589428571427,-1.7095164571428572,-0.6292144142857143,-3.7675359999999998,-2.3740179571428572,2.9142591714285713
241,1778255729090,1.16030915,-1.7586766249999999,-0.6566359875,-4.31006,-2.3728766,2.8868666
242,1778255729100,0.9523462285714286,-2.198607057142857,-0.22331238,-4.962077885714286,-2.2778398,2.9790881571428574
243,1778255729110,0.9582907500000001,-2.3084155,-0.02660224,-6.4343748666666665,-1.9884936666666668,3.2771086
244,1778255729120,1.04944615,-2.4221462000000002,0.23441699500000002,-6.58306805,-1.9377160249999998,3.326021925
245,1778255729130,1.2527459,-2.518996266666667,0.6512261133333334,-6.6987379,-1.8564008,3.329128966666667
246,1778255729140,1.3230343999999998,-2.5433207,0.79513854,-6.6919913,-1.7896442,3.2921999
247,1778255729150,1.4267587000000002,-2.4874620125,0.87247415625,-6.4405889,-1.569533975,3.0570427000000002
248,1778255729160,1.4276535333333333,-2.440735266666667,0.8879616533333333,-6.175693,-1.3418781666666666,2.7567268666666664
249,1778255729170,1.5509838,-2.2956026,0.8358961,-6.162022275,-1.01027017,2.15289945
250,1778255729180,1.1773321857142858,-2.1816625857142857,0.3083140357142857,-6.462578971428571,-0.8241342185714285,2.1036690142857144
251,1778255729190,1.1675699,-2.2175043,0.19060871,-6.761765999999999,-0.66525763,2.1268005
252,1778255729200,1.225411475,-2.2590548999999998,0.30501054499999997,-7.4647740625,-0.12064119875000001,2.1887855875
253,1778255729210,1.2509328714285712,-2.239051,0.6049133328571429,-7.649816242857143,0.11908134285714286,2.1942926
254,1778255729220,1.3266544666666666,-2.1089801666666665,1.0651471750000001,-7.505054149999999,0.423975245,2.04557405
255,1778255729230,1.6632501,-1.2946017,2.0006593500000003,-6.70983425,0.10812434,1.5840482
256,1778255729240,1.7498904,-1.0374874,2.0962079,-6.306365500000001,-0.22796659,1.2783173
257,1778255729250,1.8944420285714287,-0.8593604600000001,2.008242642857143,-6.3063655,-0.22796659,1.2783173
258,1778255729260,2.00493025,-0.664995,1.9810127499999999,-6.077466575,-2.41601985,-0.07882956625
259,1778255729270,2.0076148799999998,-0.652755476,2.3597407,-6.82024938,-2.58049668,-0.387117094
260,1778255729280,2.0025202625,-0.7279007399999999,3.7935039125000003,-7.379752725,-1.4042848499999998,-0.352602535
261,1778255729290,2.0688734,-0.7370529,4.2265835,-7.3508573,-1.1440940000000002,-0.3387541
262,1778255729300,1.967763942857143,-0.6604189228571429,4.464539285714286,-6.6652074571428575,-0.4971741271428571,-0.4660531857142857
263,1778255729310,1.3611072,-0.20061506,5.892274,-4.137487,1.051416,-1.0306433
264,1778255729320,1.07076046,-0.08794196333333333,5.716145999999999,-3.468501,0.5919319333333333,-1.0329514
265,1778255729330,0.4205920033333333,0.13146550499999998,5.2647214333333325,-1.9222697666666668,-0.741069,-1.0080952666666667
266,1778255729340,0.28164205,0.119588055,5.0663843,-1.5057513,-1.5691346,-0.9491506
267,1778255729350,0.1604269593333333,0.029774985,5.0831427666666675,-1.2373046783333332,-2.2995509333333333,-0.7228707
268,1778255729360,0.28983540114285716,-0.04766089457142857,5.396001285714286,-0.7806105571428572,-3.205533014285714,-0.3128072931428571
269,1778255729370,1.3228513375,-0.26410046125,6.244235375,0.24421188000000002,-3.00457835,0.15366440399999998
270,1778255729380,1.8074067333333332,-0.3182506566666667,6.3001344999999995,1.5845809066666667,-1.7697593166666667,0.3739078216666667
271,1778255729390,1.866794,-0.3231318,6.2949686,1.7182716,-1.6117451,0.38136467
272,1778255729400,2.288687533333333,-0.19215440666666664,5.463709533333333,2.8209978166666665,-0.49987533500000003,0.09294432333333334
273,1778255729410,2.4996343,-0.12666571,5.04808,3.6677055,0.31318775,-0.18908444
274,1778255729420,2.439979714285714,-0.12945493714285713,4.914266857142857,3.8934655714285715,0.4990002928571428,-0.37581008
275,1778255729430,1.9300743,-0.22463726999999997,3.862763557142857,4.471143171428571,0.7832737271428571,-0.6956937714285714
276,1778255729440,1.7274371000000002,-0.32923323,3.5312643,4.6786413,0.81066626,-0.7488809
277,1778255729450,1.5767013125,-0.3904611,3.3599361375,4.7370311375,0.778575165,-0.7366303624999999
278,1778255729460,1.3254749999999997,-0.49250755,3.0743892,5.14576,0.5539375,-0.6508766
279,1778255729470,1.2579931,-0.60184519,2.89647135,5.14576,0.5539375,-0.6508766
280,1778255729480,1.25335595,-0.7576757350000001,2.5242839999999998,5.89970085,0.03222425,-0.5422195999999999
281,1778255729490,1.3162007,-0.80416864,2.3300145,6.1204767,-0.11824436,-0.545948
282,1778255729500,1.4570566571428571,-0.7751258114285714,2.066328142857143,6.139651485714286,-0.052806684428571435,-0.6362672185714285
283,1778255729510,1.5347366,-0.7443048428571428,1.840923857142857,6.117737571428571,0.30877451428571423,-1.062525207142857
284,1778255729520,1.4678997714285715,-0.7075916785714286,1.617193114285714,5.870520171428572,0.8057204,-1.3648320714285713
285,1778255729530,1.21808975,-0.741018785,1.45305585,5.593037925,1.395429875,-1.5114771375
286,1778255729540,1.1602482,-0.75657743,1.4255384,5.4855795,1.6261262,-1.5478293
287,1778255729550,1.1448725,-0.8585934600000001,1.5504957,5.0708362,2.7268994,-1.5886643666666667
288,1778255729560,1.1243988,-0.9388882999999999,1.6338005555555555,5.2441195,2.7677346666666667,-1.6106798666666666
289,1778255729570,0.98818773,-1.2839851,1.6971741,5.6581521,2.5039040666666668,-1.6192020000000003
290,1778255729580,1.043832815,-1.36452405,1.49485065,6.004363049999999,1.9925771,-1.6636768000000002
291,1778255729590,1.0994779,-1.445063,1.2925272,6.2397866,1.5797871,-1.7070863
292,1778255729600,1.3010996874999998,-1.4810004125,1.0226303725,6.236324525000001,1.414538,-1.864345975
293,1778255729610,1.3988547666666669,-1.4845189,0.8798263666666667,6.116393416666667,1.3892824166666669,-2.1360327666666667
294,1778255729620,1.6116625500000001,-1.51333805,0.5074560375,5.752295,1.828260175,-2.5981799875
295,1778255729630,1.5188903,-1.5417096499999998,0.26236154,5.108475833333333,2.7008891333333334,-3.112170133333333
296,1778255729640,1.4592183,-1.530727,0.20671648,5.04456,2.7888622,-3.1446607000000006
297,1778255729650,1.2808123999999999,-1.50510105,0.074193399,4.82731255,3.1245538,-3.1972580625
298,1778255729660,1.2096174142857143,-1.4850535285714286,0.01997782614285714,4.410498942857143,3.7538397428571426,-3.2119244857142855
299,1778255729670,1.0671577857142858,-1.3649773571428572,-0.1560920335714286,4.114964271428571,4.129726,-3.069407385714286
300,1778255729680,1.0058296914285714,-1.2713290571428573,-0.26699863142857144,3.7841236285714284,4.213881842857143,-2.9281076285714285
301,1778255729690,0.99819416,-1.2495731000000003,-0.294089,3.6037896,4.189685,-2.8815403
302,1778255729700,0.9966077900000001,-1.2387735750000002,-0.29774985625,3.506318,4.08076175,-2.8423918500000003
303,1778255729710,0.9232686,-1.0225998,-0.45174995,3.021546614285714,3.7584051428571428,-2.6381273999999997
304,1778255729720,0.9735444000000001,-1.0113732000000002,-0.46261050000000004,2.4732778,3.8863511,-2.3885891999999997
305,1778255729730,1.0587508875,-0.99953645,-0.42313425625,1.9287944625,4.35233765,-2.0463064
306,1778255729740,1.0797093,-0.99917036,-0.39293218,1.8381137999999997,4.503938,-1.9510318
307,1778255729750,1.1171313833333334,-0.9686632683333333,-0.35245936333333333,1.8381137999999997,4.503938,-1.9510318
308,1778255729760,1.1246158,-0.96256185,-0.3443648,2.033589875,4.508731875,-1.6935041499999999
309,1778255729770,1.4241960833333334,-0.6768114183333332,-0.7950978633333333,2.4985778,4.072506,-1.5281218
310,1778255729780,1.6445797500000001,-0.42710017,-1.4694687000000002,2.95211405,2.7246802,-1.7446367999999999
311,1778255729790,1.6908286,-0.3448529,-1.7620933,2.8367991,2.5092304,-1.9137475
312,1778255729800,1.6908286,-0.3448529,-1.7620933,2.4316437,2.253211933333333,-2.1253800999999997
313,1778255729810,1.056401725,-0.1601625725,-2.7880489749999997,0.58283284725,2.0201409,-2.3869913499999997
314,1778255729820,0.8449261,-0.09859913,-3.1300341999999994,0.034088463,1.9851203,-2.438923
315,1778255729830,0.8449261,-0.09859913,-3.1300341999999994,-0.48149954133333334,2.2287995666666665,-2.1203201333333332
316,1778255729840,0.2717882325,-0.0459132715,-1.8282938375,-1.6223978,2.58806,-1.7283915
317,1778255729850,0.12422513428571429,0.07129958114285714,-1.0523050999999999,-0.10515683599999999,2.396921142857143,-1.083297842857143
318,1778255729860,0.27334413,0.27602875,-0.92961407,-0.04900216300000001,2.5443842,-0.9550096
319,1778255729870,0.27334413,0.27602875,-0.92961407,-0.049002163,2.5443842,-0.9550096
320,1778255729880,0.2104587086666667,0.4092026533333333,-1.4060951133333333,0.40710854283333325,1.5481843499999999,-1.2297590166666665
321,1778255729890,0.23340008866666664,0.6011943533333334,-2.0875029333333335,0.7532307516666666,0.804363425,-1.5583931666666666
322,1778255729900,0.3077562,0.5640163,-1.9517258,0.81705785,0.8926916,-1.5329156
323,1778255729910,-0.6606630066666667,0.84028912,-2.1507953,-0.8263789416666666,0.3012035241666666,-1.1629137666666667
324,1778255729920,-0.8222289,0.9091133000000001,-1.8499539000000003,-0.871919,0.34461305,-1.1110709
325,1778255729930,-1.0292199625,1.06802505,-1.0870309425,-0.5910220749999999,0.32151012749999996,-0.9836386300000001
326,1778255729940,-1.1460928,1.2053988,-0.31751847,-0.45220476000000004,0.59122175,-0.535828
327,1778255729950,-1.134134,1.213849275,-0.41465325999999997,0.3515372425,0.42357576125,-0.397543363125
328,1778255729960,-1.1070436,1.2073512,-0.4803047,3.1606395,-0.09534117000000002,0.046871636
329,1778255729970,-1.1070436,1.2073512,-0.4803047,3.1606395,-0.09534117,0.046871636
330,1778255729980,-1.199053245,1.35808705,-2.4684561375,2.9697575,-0.8031428224999999,0.0304931955
331,1778255729990,-1.4509203,1.4162643,-3.74994,2.731338,-1.1899004000000002,0.05965481
332,1778255730000,-1.4509203,1.4162643,-3.74994,2.731338,-1.1899004,0.05965481
333,1778255730010,-1.6457695875,1.3373421749999999,-3.9347825,1.30361741,-1.6627447,0.8647949875000001
334,1778255730020,-1.4755700999999999,1.1966126,-3.785084,0.19441076,-1.4849787,1.5409049999999997
335,1778255730030,-0.9791228171428571,1.0361972857142858,-2.921853385714286,-0.8256560542857143,-0.7223254028571429,2.1417141857142856
336,1778255730040,-0.93986446,1.0792211,-2.8339927,-1.3587449,-0.2828277,2.4964473
337,1778255730050,-0.32959933,0.723385675,-1.8365308999999999,-1.3590111,-0.55393751,2.6261432
338,1778255730060,-0.21965154,0.66969305,-1.67106,-1.2555473,-0.82970783,2.6296053500000003
339,1778255730070,0.174535795,0.49208910857142857,-1.4856113428571427,-1.108712057142857,-1.2769476999999998,2.5201874285714285
340,1778255730080,0.5585772885714285,0.3247356014285714,-1.5690788714285715,-1.2221627,-2.286285857142857,1.8770720714285714
341,1778255730090,0.62063754,0.27383223,-1.6078491,-1.2911005,-2.394182,1.7827201
342,1778255730100,0.5285466466666667,0.05051985333333334,-1.4012953333333333,-1.6357136,-2.9307200666666664,1.5361113666666668
343,1778255730110,0.5263269142857142,0.017362935714285713,-1.3842578,-1.5861788,-2.8224182,1.496164
344,1778255730120,0.36041154875,-0.2818556125,-1.0602762300000002,-2.1279323249999997,-3.733152625,1.47665625
345,1778255730130,0.27599388714285716,-0.6017406000000001,-0.74273593,-2.3986710714285713,-4.107203,2.034731142857143
346,1778255730140,0.34851375,-0.677747,-0.66017485,-2.4165523,-4.125769,2.086853
347,1778255730150,0.7489201562500001,-0.81716473125,-0.244514853125,-2.3905866000000002,-3.9349537750000003,2.4117588
348,1778255730160,0.7920006357142857,-0.8574079971428572,-0.18830760285714285,-2.1848574,-3.5638423,2.6019084
349,1778255730170,1.1202227714285715,-0.9190150542857143,0.052576904285714286,-2.1848574,-3.5638423,2.6019084
350,1778255730180,1.3082383625,-0.95334863125,0.07117319500000001,-1.75875165,-2.7899276,2.2301311999999998
351,1778255730190,1.3162007,-0.95938903,0.044174362,-1.707619,-2.6711507,2.1166804
352,1778255730200,1.312121457142857,-0.9661877685714285,0.024649781714285716,-1.756925514285714,-2.6325729142857144,1.9966098999999997
353,1778255730210,1.183159,-1.0472497,-0.2796591,-2.0559604,-2.5449169,1.500425
354,1778255730220,0.90923525,-1.1396254,-0.491531295,-2.4410535,-2.8258803,1.52945345
355,1778255730230,0.599709645,-1.28819515,-0.5854323375,-3.3075794750000003,-3.3869417000000004,1.8180735749999999
356,1778255730240,0.56694496,-1.3149804,-0.5835409,-3.3763556,-3.4269557,1.8551581
357,1778255730250,0.55355668,-1.4091167999999998,-0.48438388857142856,-3.7192185714285713,-3.5191773285714283,2.1153869285714286
358,1778255730260,0.801178925,-1.5524481625,-0.07428492187499999,-4.2247056,-3.37222785,2.51349155
359,1778255730270,0.95270188,-1.607898,0.22511840199999997,-4.457812280000001,-3.0691335200000003,2.7095002
360,1778255730280,1.0325364857142858,-1.6134276714285714,0.3559051857142857,-4.442076785714286,-2.8383972428571433,2.719163657142857
361,1778255730290,1.1298934875000002,-1.587470425,0.4106263,-4.3979445,-2.6466496,2.6913908
362,1778255730300,1.4221912571428572,-1.370974157142857,0.2816420742857143,-4.4565339999999996,-2.2576758714285714,2.3616152
363,1778255730310,1.4434359333333333,-1.2800395833333333,0.19280523000000002,-4.527640333333333,-2.0851664,2.2022566500000003
364,1778255730320,1.4076408444444446,-1.123720911111111,0.031510502222222216,-5.241219388888889,-1.7899993444444446,1.7184491222222222
365,1778255730330,1.4037359333333335,-0.9338443999999999,0.10282945833333333,-6.049991766666667,-1.4171568333333333,1.6477865666666667
366,1778255730340,1.4160202,-0.8747012,0.17523311,-6.343117,-1.2655342,1.639442
367,1778255730350,1.55790895,-0.76411275,0.78125776375,-7.4781566,-0.034621093,1.504686
368,1778255730360,1.6723849857142856,-0.6489482357142856,1.7595480857142858,-7.331910828571429,0.7501744038571427,1.0018812
369,1778255730370,1.6196685857142856,-0.6232176471428571,2.079681428571429,-7.002744071428571,1.0374153285714285,0.6698991228571428
370,1778255730380,1.3615953571428572,-0.4344219142857143,2.6283918571428573,-5.277396,-0.3021546714285715,-0.05067614857142858
371,1778255730390,1.052863,-0.062234599999999994,3.069264,-4.780374,-0.8410263,-0.23116238
372,1778255730400,1.0300131625,0.09024017000000001,3.034028275,-4.239486225,-1.6887105,-0.38456047250000003
373,1778255730410,1.0074683,0.30067852,2.9267347,-3.6591835,-2.7206854999999996,-0.50600064
374,1778255730420,1.1062301633333333,0.746977895,3.0673928666666668,-3.5961553333333334,-2.669730233333333,-0.3648530833333334
375,1778255730430,1.6022663875,1.12071095,3.4679008125,-3.7105825,-1.509746,-0.295344575
376,1778255730440,1.7330506,1.0958171,3.5622594,-3.8344195,-0.5853627999999998,-0.38935417
377,1778255730450,1.7330506,1.0958171,3.5622594,-3.8344195000000005,-0.5853628,-0.38935417
378,1778255730460,1.6132794,0.88513463,5.060954049999999,-3.1987228125,0.0009321050000000077,-0.99988387125
379,1778255730470,1.2718172714285711,0.7466060171428571,6.357726357142858,-1.45751005,0.08164491285714286,-1.1772694000000001
380,1778255730480,1.1423507,0.6522836866666667,6.467598466666668,-0.3330727133333334,0.14647386666666667,-1.2057018000000002
381,1778255730490,0.9723241,0.5022698,6.3764834,0.5954828,0.27856666,-1.190433
382,1778255730500,0.5687347166666666,0.55783354,5.713664666666666,0.7819040833333334,0.3009372116666667,-1.1593628
383,1778255730510,0.21644826,0.69507504,4.565823,2.892193,0.22796659,-0.18695392
384,1778255730520,0.18914436,0.69507504,4.565823,3.227751357142857,0.16595298285714286,0.19045405857142855
385,1778255730530,0.6781537200000001,0.92188558,3.8862049333333335,3.3776873166666666,0.13617630666666666,0.3339604016666667
386,1778255730540,1.1329137,1.0543274,3.363353,3.4562504,0.11132014,0.29667616
387,1778255730550,1.2686443857142857,1.1475223857142858,2.995802714285714,3.5023611714285714,0.11132013857142857,0.12083143142857145
388,1778255730560,1.3611072,1.2454242,2.5931082,3.55532,0.18961707000000003,-0.3110572
389,1778255730570,1.2647859555555554,1.2314315333333332,2.4150007333333336,3.4242333333333335,0.3319482422222222,-0.4377053111111111
390,1778255730580,1.03882965,1.16756995,2.1297249000000003,3.1862059166666667,0.48975533833333335,-0.59850105
391,1778255730590,1.0177187,1.1582958,2.1171966,3.1595743,0.49854377,-0.6103965
392,1778255730600,0.9883708187500001,1.1255921075000002,2.1369042250000003,3.05890695,0.56565542125,-0.65560369875
393,1778255730610,0.85257332,0.91122844,2.2432928000000003,3.1004523166666664,0.9738292166666667,-0.720651395
394,1778255730620,0.8141749685714286,0.8101655028571428,2.202477085714286,3.1629985428571428,1.1399851142857143,-0.7411196857142858
395,1778255730630,0.8173782475,0.76130609125,2.1168915,3.5862127375,1.690774475,-0.8111988875
396,1778255730640,0.84468216,0.7199688600000002,2.00371,3.7779603,1.7443706,-0.8404937
397,1778255730650,0.90950981,0.672072635,1.8780205625,3.9454732375000003,1.24083336875,-1.0891663550000001
398,1778255730660,1.3408505,0.39830142,1.560014,4.010188,0.74461985,-1.3630058999999999
399,1778255730670,1.6453119166666665,0.0834675775,1.4133761666666667,3.9098756666666667,0.7504787999999999,-1.5506699666666668
400,1778255730680,1.80321695,-0.2083028705,1.36244955,3.67662725,0.824181775,-1.9548268375
401,1778255730690,1.9002297,-0.4371065499999999,1.3408505,3.448261,1.2580773,-2.156628
402,1778255730700,1.8760273833333334,-0.5924896516666667,1.3382065833333332,3.3712956333333337,1.5789882000000002,-2.2083821
403,1778255730710,1.78893965,-0.906794675,1.3304781,2.8752818625,4.5410891375,-2.5147566
404,1778255730720,1.6885100499999999,-1.09679325,1.29984885,2.8636084333333334,5.844928599999999,-2.543319
405,1778255730730,1.5293673428571428,-1.315538342857143,1.0931323828571429,2.989284285714286,6.238417057142857,-2.543319
406,1778255730740,1.4531169,-1.4133356,0.95475197,3.1201596,6.4368606,-2.543319
407,1778255730750,1.4206921428571426,-1.4233419428571428,0.8972590457142857,3.1201596,6.4368606,-2.543319
408,1778255730760,1.1913131428571426,-1.4845654142857143,0.5231889642857143,3.812809728571428,5.348464428571428,-2.7794271285714283
409,1778255730770,0.8088057,-1.4784988,0.13471961,4.3404202,3.2133703,-2.855974
410,1778255730780,0.70459327,-1.41577615,-0.048445360000000014,4.3404202,3.2133703,-2.855974
411,1778255730790,0.60038084,-1.3530535,-0.23161033,4.1167145,2.7521107,-2.52734
412,1778255730800,0.60038084,-1.3530535,-0.23161033,3.8880630714285713,2.8734747714285716,-2.393801428571429
413,1778255730810,0.5451018466666667,-1.2753617666666666,-0.448536525,3.30329635,3.2705393666666667,-2.0815268000000002
414,1778255730820,0.46712555499999997,-1.1081724375,-0.65395135,2.7218837999999996,3.8270956,-1.712279475
415,1778255730830,0.49372779000000006,-0.98940813,-0.7409577500000001,2.0620856499999998,4.6323023,-1.0852381500000001
416,1778255730840,0.5289766142857143,-0.9115189942857143,-0.8017628857142858,2.009773542857143,4.659542714285714,-0.9340847285714285
417,1778255730850,0.5735345,-0.8117344,-1.0069802,1.8210695428571426,4.319114885714286,-0.7318366485714286
418,1778255730860,0.524357,-0.61539035,-1.44152415,1.5783889625,3.951398875,-0.65314025
419,1778255730870,0.5047104,-0.5525456,-1.5670916000000001,1.15820875,3.51608295,-0.5657441833333333
420,1778255730880,0.31684732250000003,-0.41068735,-1.4074171,0.06964166875000001,3.1258187,-0.19967050625
421,1778255730890,0.18157859,-0.3577879,-1.19344,-0.06498113,3.1819448,-0.08841694999999998
422,1778255730900,0.17952153571428572,-0.34555017714285713,-1.1527521714285716,-0.17729043285714288,3.4695663714285714,0.24942406428571431
423,1778255730910,0.43302730285714286,-0.13074495428571428,-0.7862478714285714,0.13369069,3.711914,0.8005462
424,1778255730920,0.92009582,0.11826316571428572,-0.9619690485714286,0.49435879714285713,3.067429,0.6772799142857143
425,1778255730930,1.0680555125,0.260622635,-1.22623515,0.7046724200000001,2.33878815,0.41465419000000003
426,1778255730940,1.1187584,0.32679266,-1.3623275999999997,0.7707188,1.8679413,0.20133498000000002
427,1778255730950,1.1182702857142857,0.3680731914285714,-1.4576493714285714,0.7707188,1.8679413,0.20133498
428,1778255730960,0.7117319225000001,0.701054455,-1.767065925,0.08169247125,0.955142775,-0.434095265
429,1778255730970,0.19113749833333335,0.93787136,-1.5762843833333333,-0.1977841,0.9578502833333333,-0.5794150666666666
430,1778255730980,0.022383541428571425,1.0281086,-1.561478242857143,-0.12235323285714285,1.0119251142857144,-0.53286048
431,1778255730990,-0.16815543,1.1517061,-1.6249331,0.04314321,1.0210559,-0.45486793
432,1778255731000,-0.3520351414285714,1.2828694428571428,-1.8280585571428571,0.19623693571428572,1.0597098428571428,-0.26502257514285715
433,1778255731010,-0.3749532933333333,1.3734729166666668,-2.344739383333333,0.21358553,1.2234563,0.087884314
434,1778255731020,-0.3734076,1.3872215,-2.4413047,0.21358553,1.2234563,0.087884314
435,1778255731030,-0.3792649714285714,1.4338015,-2.4810512714285715,-0.06490503000000002,1.1638014428571428,0.051056602
436,1778255731040,-0.383658,1.4687365,-2.5108612,-0.27377295,1.1190603,0.023435818
437,1778255731050,-0.49406340000000004,1.462116425,-2.0295189750000002,-0.21505025625,0.6427539624999999,-0.13735253525
438,1778255731060,-0.97537475,1.3984480499999998,-1.4694686500000003,0.33662358,0.06977482,-0.25708382
439,1778255731070,-1.3363964874999998,1.3690391625,-1.45079825,0.9348360924999999,-0.44854294250000004,0.08868326624999999
440,1778255731080,-1.4406002285714286,1.3830027428571428,-1.7193485000000002,1.3972464571428571,-1.1719430857142858,0.8619511042857143
441,1778255731090,-1.35561595,1.4124406666666667,-2.030922566666667,1.4317154333333333,-1.4588796666666666,1.4849786333333332
442,1778255731100,-0.9405966200000001,1.4168066222222224,-2.0334579666666666,1.328621577777778,-1.3848438222222221,1.830361088888889
443,1778255731110,-0.5304177433333334,1.4029224333333332,-1.9806058999999998,1.0918960666666666,-0.9718762666666668,2.2533894
444,1778255731120,-0.3073377957142857,1.386035957142857,-1.9387907428571427,0.9736517285714285,-0.8334933571428572,2.3399294714285714
445,1778255731130,0.07864744625,1.3291968,-1.8217652875,0.8310394400000001,-0.775845425,2.313488125
446,1778255731140,0.11153416,1.3227903,-1.8099285,0.74248934,-0.7888283,2.2136195
447,1778255731150,0.28928919333333336,1.1637463,-1.7326438333333334,0.57577544,-1.226652,1.6309199
448,1778255731160,0.22990193333333334,0.9939637333333332,-1.6874118999999999,0.36041446,-1.7133003333333334,1.2623383333333331
449,1778255731170,-0.04132703333333334,0.74567624,-1.582629833333333,0.054683573333333325,-2.3015038666666667,1.1091178666666666
450,1778255731180,-0.14706193714285715,0.6329799142857143,-1.5267523142857142,-0.34263469142857145,-2.972316128571429,1.1125925857142858
451,1778255731190,-0.22404456,0.48006064,-1.432616,-0.6087986,-3.2964609,1.2974921
452,1778255731200,-0.13671273966666667,0.251663695,-1.1079792333333334,-0.80161147,-3.4035199499999997,1.4855113
453,1778255731210,0.020744866,0.05588911,-0.6113634,-1.08104366,-3.563243025,1.7584187625
454,1778255731220,0.6530274714285714,0.026602240285714285,-0.281398,-1.6071036142857142,-4.5284392,2.544003742857143
455,1778255731230,1.5166066142857144,0.013423148857142858,0.7830402571428571,-1.4432811571428572,-4.815451785714286,2.5356338
456,1778255731240,1.8336021,0.093473926,1.1024066,-1.2676647,-4.8799763,2.4224114
457,1778255731250,1.8336021,0.093473926,1.1024066,-1.2169885571428571,-4.785167842857143,2.2974710857142857
458,1778255731260,2.342136,0.49128722500000005,1.4557608,-1.0857708333333334,-4.226614383333334,1.7876912833333334
459,1778255731270,2.311222,0.5742667,1.5958903,-1.063134,-2.6189528,0.8005462
460,1778255731280,2.1553508333333333,0.5928964200000001,1.6083372,-0.9390306666666667,-1.9742902333333336,0.37053446
461,1778255731290,1.6984292857142855,0.6016011485714285,1.5545749000000002,-0.690824,-0.6849651,-0.48948902
462,1778255731300,1.3919195,0.5278348175,1.37794725,-0.690824,-0.6849651,-0.48948902
463,1778255731310,0.26057178000000003,0.33712441,0.4506923733333333,0.42033558833333334,-0.9984191166666667,-1.3812041400000001
464,1778255731320,-0.33254545,0.29000974285714287,-0.1948274014285714,1.2308369714285714,-1.8913770285714284,-1.8305047714285716
465,1778255731330,-0.8272625625,0.27233738124999995,-1.09145447375,1.03257415625,-4.8530121,-1.1986222125000001
466,1778255731340,-0.8288184,0.26968327,-1.1951483,0.8985505699999999,-5.0940948,-1.0961571
467,1778255731350,-0.7378461024999999,0.20455048374999998,-1.24725455,0.7833688475,-5.0690611,-1.032907025
468,1778255731360,-0.5118926771428571,0.08730276571428572,-1.0680990714285714,-0.25650044857142856,-4.229252142857143,-0.5464045714285714
469,1778255731370,-0.45305162666666665,0.07150877666666666,-0.9353086999999999,-0.6251326666666667,-3.650750066666667,-0.31087967833333335
470,1778255731380,-0.28814009500000004,0.07849491625,-0.76716345,-1.0796455,-2.2876554,0.27324033
471,1778255731390,-0.21721095999999998,0.08005078,-0.7883049,-1.0796455,-2.2876554,0.27324033
472,1778255731400,0.07143903857142855,0.12767680285714286,-0.7638643214285714,-1.8089712714285715,-0.9238886314285714,1.0501985614285714
473,1778255731410,0.9349833,0.298482,-0.70361704,-2.4325314,-0.42184472,1.3496901
474,1778255731420,1.0469648999999999,0.32004039500000003,-0.6841738166666667,-2.470614583333333,-0.4596616166666667,1.1631800433333332
475,1778255731430,1.5608506428571427,0.4395471071428571,-0.5805424714285714,-2.656921657142857,-0.7117488428571429,-0.006772030000000008
476,1778255731440,1.2538963714285714,0.4454044757142857,-0.5218292571428572,-2.6315836285714282,-0.9076052714285714,-0.5022721971428571
477,1778255731450,0.5832271085714286,0.4295059128571429,-0.3831350142857143,-2.484272828571428,-1.3912353285714285,-1.0187733114285715
478,1778255731460,0.18816814,0.43076107,-0.3031191,-2.3936493,-1.6421051,-1.2271847
479,1778255731470,-0.7772308225,0.8543529012500001,-0.293966975,-2.4160198125,-1.7245965125,-0.94215986375
480,1778255731480,-1.5783182,1.31937345,-0.4168498,-2.856329,-1.6934154,0.09960223
481,1778255731490,-1.3442367625,1.8754274,-0.4462281625,-3.577158,-1.4306501875,0.73303511
482,1778255731500,-0.5242698114285714,2.146971642857143,-0.12561974285714286,-5.8947929285714284,-0.6126031385714285,1.8374290428571427
483,1778255731510,0.27318140333333335,2.1761772,0.3442834266666666,-6.844679,-0.3224200366666667,1.6893319333333334
484,1778255731520,1.1528654,2.10664125,1.038799175,-7.695936625,-0.21917815625,1.18870199375
485,1778255731530,1.8156465285714287,1.7070061714285714,3.268589014285714,-8.316367857142856,-0.7686643857142856,-0.20240024285714284
486,1778255731540,1.7249967,1.466296,4.8740673,-8.294149,-1.0066749,-0.9076052999999998
487,1778255731550,0.9661006812499999,1.5569937999999999,5.907741125,-5.77919275,0.6456834125,-1.7772605750000001
488,1778255731560,0.69336665,1.7679508,6.112902,-4.407303385714286,1.5789501714285714,-1.8244175428571427
489,1778255731570,0.4000911916666667,2.0394644666666664,6.023007583333334,-3.2011197,2.3537018,-1.80296
490,1778255731580,0.010006349999999997,1.7508667,5.0885935,-1.071123365,3.05997215,-2.05542785
491,1778255731590,-0.41381650285714283,1.2519788285714284,4.269502571428572,0.36393999857142856,2.7126199,-2.2382728
492,1778255731600,-0.60219384,0.9322638714285715,3.8046434285714286,1.1066576014285714,1.9621410285714285,-2.2644478571428572
493,1778255731610,-0.674299685,0.806944825,3.62406725,1.550359275,1.4060159,-2.2660838
494,1778255731620,-0.9620736500000001,0.349734025,2.93344605,2.2455775,0.474308985,-2.1771341
495,1778255731630,-1.094535675,0.0942061025,2.47913345,2.67487905,0.081226415,-1.986318625
496,1778255731640,-1.1251038,-0.03172744,2.1386735,3.2037828000000004,-0.15446335,-1.6112125
497,1778255731650,-1.1062765714285714,-0.08524571085714286,1.8364261428571427,3.1419214285714285,0.28107761428571426,-1.1749867
498,1778255731660,-1.1412116,-0.119343996,1.7142582,3.037069,0.5725796,-0.9187906
499,1778255731670,-0.8707264800000001,-0.177569084,1.2049455542857144,2.3228091142857146,1.5991141142857141,-0.33304732
500,1778255731680,-0.35254069000000005,-0.21501443,0.709474385,1.748099,2.4325314,0.06977482
501,1778255731690,-0.18868676,-0.21144509,0.7445271062500001,1.531583975,2.840394525,0.1886183875
502,1778255731700,0.01806023333333333,-0.24080314666666666,0.8295505933333334,1.119948,3.6458676666666663,0.3984089
503,1778255731710,0.06858008,-0.2511349,0.85444444,1.0945592,3.7087183,0.40426785
504,1778255731720,0.0813930875,-0.25714481,0.8614000725,1.3251889625,3.5016574875,0.27803401250000004
505,1778255731730,0.22045341999999998,-0.43337596285714286,0.9589009,1.6128104,3.1973913,0.16618125
506,1778255731740,0.25748038,-0.5339973,0.99550945,1.6128104,3.1973913,0.16618125
507,1778255731750,0.30131918125,-0.7011459375,0.85700705,2.8449884500000002,2.6218820375,0.2284992275
508,1778255731760,0.33069757,-0.7636550999999999,0.788549,2.912433,2.606702,0.24341293
509,1778255731770,0.33554820625,-0.762709375,0.7453813725,2.9298767,2.6567028625,0.26385268875
510,1778255731780,0.4116897242857143,-0.7773571928571429,0.26870703714285715,2.9069545285714287,2.903910842857143,0.3554939457142857
511,1778255731790,0.42856455,-0.7858643500000001,0.19890666,2.8996499,3.3001893,0.5049353
512,1778255731800,0.436130315,-0.766949925,0.13240106000000001,2.744254475,3.505119525,0.594417575
513,1778255731810,0.4788403257142857,-0.6972018714285715,-0.09204444285714286,2.2743397,3.9223037,0.75580513
514,1778255731820,0.4787182966666667,-0.6832383000000001,-0.12690976666666667,2.2743397,3.9223037,0.75580513
515,1778255731830,0.47444727333333336,-0.6113634222222222,-0.2815336022222222,2.145087577777778,3.9903028777777774,0.8364693266666667
516,1778255731840,0.49153129999999995,-0.5762192,-0.37487194,1.8274611,3.9670448,0.9864349
517,1778255731850,0.45903683142857143,-0.5522318285714286,-0.4012301,1.7235978857142857,3.809157371428572,1.0191536857142858
518,1778255731860,0.29140437,-0.46541715,-0.528384,1.7032247249999999,3.2630381,1.2843093749999999
519,1778255731870,0.29140437,-0.46541715,-0.528384,1.7671215571428571,2.732175114285714,1.578493642857143
520,1778255731880,0.39817939166666666,-0.3935423216666667,-0.746449115,1.7853832,2.5598304,1.653823
521,1778255731890,1.2158931,0.10518867,-1.6913167,1.7939054000000003,2.3845944,1.4269217
522,1778255731900,1.415532,0.26943922,-2.1157322,1.7939054,2.3845944,1.4269217
523,1778255731910,1.3703815,0.39073566,-2.4271493,1.1670732742857142,2.313754471428571,0.7835020314285714
524,1778255731920,0.99685185,0.46200036,-2.2664376500000003,0.827244455,2.28932,0.49275138949999997
525,1778255731930,0.61600051,0.46688153,-1.798946,-0.49694588,2.135589,-0.018642126999999998
526,1778255731940,0.37828872,0.48006064,-1.5792944,-0.7664578000000001,2.026133,-0.04580637
527,1778255731950,0.31884336571428573,0.4915661828571429,-1.3072403142857143,-0.7297822571428572,1.8013622,0.037892981428571434
528,1778255731960,0.29945824,0.4888467,-1.292039,-0.8262901083333333,1.4835583666666665,0.15703774333333334
529,1778255731970,0.3739228266666667,0.6607714333333333,-1.2453969999999999,-0.13315806333333333,0.9564299666666667,0.31496319333333334
530,1778255731980,0.5006427666666667,1.0718587166666667,-1.4563302333333334,0.2783891033333333,0.7160352666666666,0.16760161066666668
531,1778255731990,0.4723902342857143,1.1370627,-1.5170249285714286,0.3853213714285714,0.5400129871428572,-0.00015218171428571316
532,1778255732000,0.3039733125,1.349331525,-1.6033341,0.5337640875,0.25493109625,-0.22756712125
533,1778255732010,0.24548092666666665,1.4037359666666667,-1.6056119666666666,0.59228706,0.14168017,-0.31265512
534,1778255732020,0.0456387,1.5015448571428571,-1.5811073428571427,0.7632619942857143,-0.048393439999999996,-0.42892113142857147
535,1778255732030,-0.39073566,1.5783182,-1.5158396,1.1859056374999999,-0.5849633375,-0.7766443625
536,1778255732040,-0.39073566,1.5783182,-1.5158396000000003,1.7891116,-1.1888351,-1.1265172
537,1778255732050,-1.1194557514285715,1.4573007285714286,-1.9331774428571429,2.0831246285714284,-1.659834157142857,-1.1213430285714288
538,1778255732060,-1.4106508875,1.4186742625000002,-2.155422125,2.81922245,-2.8786107999999997,-1.0540791325
539,1778255732070,-1.8515403499999998,1.3482942499999997,-2.4920685,2.63679585,-2.9052424,-0.509196415
540,1778255732080,-2.078696575,1.3127228999999998,-2.6569292250000003,2.4511735,-2.808037,-0.1272991
541,1778255732090,-2.105516742857143,1.3254749,-2.8159324714285714,2.3390163714285714,-2.7387948285714288,0.011109190000000007
542,1778255732100,-1.88326775,1.32718335,-2.9548011499999998,1.4141386,-2.19764065,1.015729665
543,1778255732110,-1.7735641,1.32157,-2.941378,1.1622036,-2.0719395,1.1899004
544,1778255732120,-1.5060772833333333,1.2759719166666668,-2.739583266666667,0.6441299,-1.7896442333333333,1.5533331333333333
545,1778255732130,-1.2214366857142858,1.1678487142857144,-2.6358878714285714,0.34408042,-1.6650083,1.7912422
546,1778255732140,-1.0731196,1.07434,-2.7007375,0.34408042,-1.6650083,1.7912422
547,1778255732150,-0.9921623714285716,0.9685586114285715,-2.6537390714285713,-0.25520692857142857,-2.1524428714285713,2.0747547714285717
548,1778255732160,-0.9132215499999999,0.91785869,-2.704438833333333,-0.76059884,-2.4857945,2.3222766
549,1778255732170,-0.7791392477777778,0.6654356266666667,-2.510183111111111,-0.76059884,-2.4857945,2.3222766
550,1778255732180,-0.6187665033333333,0.21387549333333333,-2.211728133333333,-1.07778137,-2.55849885,2.6072348
551,1778255732190,-0.58110034,0.14277348,-2.1667402,-1.3949639,-2.6312031999999994,2.892193
552,1778255732200,-0.10107457,-0.38194955714285717,-1.6473863857142859,-2.2200112,-2.5592978,3.6080508
553,1778255732210,0.031483386,-0.511788,-1.5019283,-2.9454562857142856,-2.444705857142857,4.119834257142857
554,1778255732220,0.08789112025000001,-0.5608435175,-1.4171794175,-3.1237549125,-2.3798674,4.239685987500001
555,1778255732230,0.5440385,-0.9489295,-0.7317533428571429,-3.5165901142857146,-2.0115236285714286,4.4772303
556,1778255732240,0.6972716,-1.0606729,-0.5012936,-3.50472,-1.9473034000000002,4.4714475
557,1778255732250,1.24658345,-1.3623276249999998,-0.28237424,-3.41084355,-1.9069565499999999,4.40313735
558,1778255732260,1.4695500666666668,-1.4627978,-0.23673553666666666,-3.3795514,-1.8935076000000002,4.3803673
559,1778255732270,1.5309711000000001,-1.4721881142857143,-0.29367061,-2.999252,-1.816276,3.3220272
560,1778255732280,1.3092451,-1.61761145,-0.285668995,-3.0796795,-1.9547603,2.8831382
561,1778255732290,1.1973449,-1.7057161,-0.26406994,-3.1984565000000003,-2.14491,2.6264095
562,1778255732300,0.8438105071428571,-2.0303123142857142,-0.3847039542857143,-3.4881323285714285,-2.2255656714285714,2.6936733285714283
563,1778255732310,0.6886075125,-2.201579475,-0.45229909500000004,-4.153466,-2.279932175,2.924284
564,1778255732320,0.64923294,-2.35523375,-0.5047510633333333,-4.693199833333334,-2.139583733333333,3.1863835000000003
565,1778255732330,0.7399467314285715,-2.6500434,-0.26992731999999997,-5.984427571428571,-1.5902876999999997,3.7976678571428573
566,1778255732340,0.831259,-2.785608475,-0.0508859325,-6.629806675,-1.2226572999999998,4.09660775
567,1778255732350,1.0968630000000001,-2.8989817714285713,0.3189479585714286,-7.010048771428571,-0.7615119,4.2148710000000005
568,1778255732360,1.2549075142857142,-2.930430285714286,0.5198070857142857,-7.0552464,-0.67005134,4.2179146
569,1778255732370,1.4247146625,-2.83506055,0.8647558275,-6.9390661375,-0.22450448125,3.91131815
570,1778255732380,1.4389615000000002,-2.8208137,0.89007676,-6.899718,-0.118776985,3.8296256
571,1778255732390,1.453299875,-2.7889337,0.8819008525,-6.6336682499999995,0.028628978749999996,3.2060465000000002
572,1778255732400,1.3994591285714286,-2.3860780714285714,0.5781367857142857,-6.561344271428571,-0.2578700802857143,2.2262504857142855
573,1778255732410,1.3552498999999998,-2.3602777,0.5442477,-6.5806713,-0.33289513,2.107093
574,1778255732420,1.0938645625,-2.3550303875000003,0.5340277875,-6.7742166,-0.649145535,1.8677415125
575,1778255732430,0.82711005,-2.3856597,0.6406503,-7.155914,-0.6892261,1.9297266
576,1778255732440,0.8294285816666668,-2.3759787500000003,0.7201316166666668,-7.155914,-0.6892261,1.9297265999999997
577,1778255732450,0.84102124,-2.327574,1.1175382,-7.1909492888888895,-0.2382641533333333,2.3861331777777774
578,1778255732460,1.1752577000000002,-2.15636785,1.5487873500000002,-7.1308804,-0.08522116,2.5007083
579,1778255732470,1.337886957142857,-2.0145531857142855,1.7385940857142859,-6.859009685714286,0.0035762457142857157,2.3792681714285715
580,1778255732480,1.58560945,-1.5346015125,1.9894936,-5.64936375,-0.0838895775,1.6635435125
581,1778255732490,1.5546447,-1.3266952,1.9812566,-5.347095,-0.40213734000000007,1.4311827
582,1778255732500,1.5019283428571428,-1.14061898,1.892071157142857,-5.347095,-0.40213734,1.4311826999999997
583,1778255732510,1.4052817,-0.82247293,1.7169427,-4.857606,-2.0586236,0.81705785
584,1778255732520,1.4625537499999999,-0.8067719033333334,1.5811249166666668,-4.9976883,-2.935336,0.6828344999999999
585,1778255732530,1.60797115,-1.018450885,1.6953436499999999,-5.77766155,-3.57782375,0.6225805
586,1778255732540,1.6619601142857143,-1.1967172714285714,1.967798642857143,-6.998559142857142,-2.8436474000000005,1.0011203142857144
587,1778255732550,1.6255607714285714,-1.4010280714285714,2.526271428571428,-7.362499128571429,-1.8146019285714288,1.3092100142857142
588,1778255732560,1.4516829625,-1.44667985,2.8821026874999998,-7.4368108875,-0.91925663825,1.5178687
589,1778255732570,2.1616847857142854,-1.1991577857142857,4.365207857142857,-5.935273085714286,-0.722173200857143,1.4365852428571428
590,1778255732580,2.4237325,-1.1304731,4.7649736,-5.695969000000001,-0.829841,1.4008228
591,1778255732590,2.9930366333333334,-1.2713755,4.8476276,-4.6404695,-2.125912833333333,0.5489071166666667
592,1778255732600,2.5638213,-1.2527459,5.0856647,-2.9422605,-3.4328146,-0.75633776
593,1778255732610,2.5638213,-1.2527459,5.0856647,-2.9422605,-3.4328146,-0.75633776
594,1778255732620,2.267466042857143,-1.2719915,5.646159728571428,-2.5133393571428573,-2.7016627428571427,-0.4465740757142857
595,1778255732630,2.0451996,-1.2864257,6.066531,-1.9414445,-1.7267936,-0.03355583
596,1778255732640,2.0451996,-1.2864257,6.066531,-1.9414445,-1.7267936,-0.03355583
597,1778255732650,2.3463052500000003,-1.34188775,6.015645075,-0.8029431,-1.0618023,0.212786575
598,1778255732660,2.848148,-1.4343245,5.9308352,1.4878193833333333,-0.20240025000000003,0.39388153833333334
599,1778255732670,2.7652904875,-1.392041525,5.399949775,2.6196850125,-0.1924799725,0.219244745
600,1778255732680,2.5328262,-1.1273005,3.7074738,5.208839028571428,-0.42154035714285715,-0.40830065142857147
601,1778255732690,2.4816555333333334,-1.0650658666666668,3.5082416999999997,5.3607659666666665,-0.5038700866666667,-0.5228673
602,1778255732700,2.3540406444444444,-0.8438414444444444,2.9129046555555553,5.237668644444445,-0.6083251777777777,-0.7788858388888888
603,1778255732710,2.3224487,-0.7228974999999999,2.6668136,5.090899,-0.6151902,-0.89535475
604,1778255732720,2.323099716666667,-0.7541368883333334,2.654651316666667,4.9320855833333335,-0.04767058333333333,-1.0265598083333334
605,1778255732730,2.318544,-0.80587703,2.6709623,4.8410945,0.5209143,-1.1414309
606,1778255732740,2.268918916666667,-0.8839753383333333,2.7628907999999996,4.898352416666667,0.95989205,-1.2297590666666667
607,1778255732750,2.0933487,-1.1614684285714285,2.9123352000000002,5.920663599999999,1.6535186857142856,-1.3427658142857142
608,1778255732760,2.0986483,-1.2132086,2.8674288,6.2515044,1.6687368,-1.4130733
609,1778255732770,2.0210032285714283,-1.2569994142857142,2.5374632000000004,6.948035114285714,1.2540445285714286,-1.7735892714285715
610,1778255732780,1.92732015,-1.2655995333333332,2.2433741833333336,7.5964007,0.59867865,-2.207228
611,1778255732790,1.9512682125,-1.3454266375000001,1.5844196,7.5964007,0.59867865,-2.207228
612,1778255732800,1.9727148,-1.3742051,1.2473765333333333,7.737282,0.32570462,-2.63786115
613,1778255732810,1.9707624,-1.3530535,1.0565238,7.759462471428571,0.12577729857142858,-3.4634028999999997
614,1778255732820,1.9707624,-1.3530535,1.0565238,7.739679,0.13795175,-3.529221
615,1778255732830,1.8983121285714286,-1.4237602142857142,0.5988467714285715,7.3604445,0.5289038,-3.9750342
616,1778255732840,1.5509489285714284,-1.7648128571428572,0.3936992028571429,5.361247914285714,3.0041978428571428,-4.818495328571428
617,1778255732850,1.3523211,-1.8919317,0.5103237,4.856008,3.7880805,-4.8410945
618,1778255732860,1.3523211,-1.8919317,0.5103237,4.856008,3.7880805,-4.8410945
619,1778255732870,1.2199201625,-2.0303122625,0.57673781,4.8125318749999995,4.0183771875,-4.7241816125
620,1778255732880,1.1704986,-2.1023092,0.53814626,4.944425,3.9899480000000005,-4.5657234
621,1778255732890,1.0832481,-2.08668945,0.380119175,4.9532134999999995,3.8887479000000003,-4.434163300000001
622,1778255732900,0.9563383125,-2.0332408875,0.103571791875,4.8601360625,3.7349503,-4.1501372
623,1778255732910,0.93254274,-2.0105436,0.032459613,4.761580085714286,3.70187,-4.0233517
624,1778255732920,0.9530435371428572,-1.9428351571428573,-0.023185439714285716,4.5369616,3.6927392000000006,-3.8115163
625,1778255732930,1.0575,-1.7108413,-0.13447554,3.9484026,3.9254994,-3.2597091
626,1778255732940,1.1534958333333334,-1.6337598833333333,-0.11983210666666666,3.7832866833333334,3.9543504833333336,-3.119449433333333
627,1778255732950,1.2422208125,-1.582406175,-0.105920844125,3.6520594125,3.9838893125,-3.0635008875
628,1778255732960,1.5583055,-1.3999124,-0.048323333,3.5808864,3.926032,-2.9917953
629,1778255732970,1.5016145,-1.368673085714286,-0.07586693785714285,3.366996542857143,4.2350348,-3.000317371428572
630,1778255732980,1.359887,-1.2905748,-0.14472595,2.9710226,4.8613343,-2.9838057
631,1778255732990,1.31534655,-1.26238615,-0.135329745,2.9710226,4.8613343,-2.9838057
632,1778255733000,1.2708061,-1.2341975,-0.12593354,2.9110126666666667,4.927735766666667,-2.8833157666666662
633,1778255733010,1.2708061,-0.9952655,-0.23697957,2.9582393,4.836301,-2.6482475
634,1778255733020,1.27734682,-0.9524090199999999,-0.339190762,2.9582393,4.836301,-2.6482475
635,1778255733030,1.2871579,-0.8881243,-0.49250755,2.9666283,4.1255032,-2.53879155
636,1778255733040,1.2078393333333333,-0.6940174533333333,-1.0447277066666667,3.4173683999999995,2.5241442,-2.231729
637,1778255733050,1.03992795,-0.49226346499999996,-1.3061943500000002,1.7249294000000002,2.14384465,-2.02959505
638,1778255733060,0.9784255,-0.41172456999999996,-1.1836777,1.1210843,2.53309228,-1.9025623200000001
639,1778255733070,0.870405788,-0.347683954,-0.863035236,1.27373668,2.76840936,-1.8194716400000002
640,1778255733080,0.72021294,-0.28115395,-0.5432714,1.4183996,2.7409256,-1.8024273999999998
641,1778255733090,0.50080547,-0.13358066633333332,-1.0102749833333333,2.4645781833333333,1.3698414233333336,-1.9594651666666667
642,1778255733100,0.2088642,0.1470688984,-2.5476648,3.4615769999999997,-0.29614353,-2.2407837
643,1778255733110,0.10421244,0.21647878,-2.9750578,3.28820505,-0.9436911825000001,-2.5391909249999998
644,1778255733120,-0.5429925114285714,0.2978195542857143,-4.069724457142857,1.6583123785714287,-1.5307089714285715,-3.1579765
645,1778255733130,-1.1097283,0.201835329,-4.26044645,-0.71106404,-0.95234644,-3.2900693
646,1778255733140,-2.27939702,-0.1442866344,-3.2576760399999998,-0.71106404,-0.95234644,-3.2900693
647,1778255733150,-3.2208234,-0.32166743,-1.9419635,-1.9182749999999997,-1.5086807999999998,-1.55422085
648,1778255733160,-3.2479138,-0.35656762,-1.3921026,-1.6644757,-1.5994946,-1.1781825
649,1778255733170,-3.1701084,-0.35754385199999994,-1.10928904,-1.06238824,-1.7107081999999998,-0.8573248440000001
650,1778255733180,-2.9059896714285713,-0.2537498057142857,-0.8316076857142857,0.8632446228571429,-1.944031514285714,-0.15316981271428573
651,1778255733190,-2.85864262,-0.031629816000000005,-1.4857230000000001,1.5485748799999999,-1.81425188,0.37870150220000004
652,1778255733200,-2.7201155800000003,0.223898112,-2.17674666,1.8382203000000001,-1.44055708,1.05780758
653,1778255733210,-2.6194663,0.27554062,-2.2221413,1.8407769000000003,-1.230913,1.2926984
654,1778255733220,-2.4288578,0.39805737,-2.2772982,1.88487886,-1.30377712,1.45440556
655,1778255733230,-2.090431683333333,0.45638704166666666,-2.2445537499999997,2.2904073,-2.2443347499999997,1.9117946666666665
656,1778255733240,-1.6413826,0.376482716,-2.69190262,2.80026062,-3.53593226,2.49442328
657,1778255733250,-1.5333506749999999,0.3340533575,-2.88146185,2.7779433,-3.6382775250000003,2.7208186
658,1778255733260,-1.3558426285714287,0.27815552,-3.1923733857142857,2.5406556,-3.529221,3.0695596000000003
659,1778255733270,-0.87592145,0.23356279,-3.41521515,1.5638082,-3.1196269,3.8232341
660,1778255733280,-0.400192865,0.19902868099999999,-3.2712214250000002,0.9835054,-2.799914425,4.150004075
661,1778255733290,0.68297676,0.14092562742857143,-2.6209656142857143,0.23618435714285715,-2.2895576571428573,4.4315764
662,1778255733300,1.04827468,0.136672054,-2.3213748,-0.7052051,-1.6170714,4.649347
663,1778255733310,1.6019918,0.06443111,-1.7547716,-0.9380985500000001,-1.5651398250000002,4.499943549999999
664,1778255733320,1.7771028,-0.07488489499999999,-1.2371668500000002,-1.2471583333333334,-1.9555592499999996,3.4281097499999995
665,1778255733330,1.812125,-0.102748096,-1.1336459,-1.2532836,-2.0090888,3.3081787
666,1778255733340,1.8050066666666666,-0.12674706,-1.083248075,-1.2287825166666668,-2.03305725,3.204049083333333
667,1778255733350,1.7333922000000002,-0.307072834,-0.77693186,-1.0970093200000002,-2.2896794,2.61149568
668,1778255733360,1.709377,-0.34729347,-0.7407138,-1.0908308,-2.380866,2.5635588
669,1778255733370,1.3964955333333335,-0.56401629,-0.6801875733333334,-1.2610067999999999,-2.9190908666666666,2.553705116666667
670,1778255733380,1.1453607,-0.80172807,-0.65285313,-1.3417006,-3.1329427,2.5635588
671,1778255733390,1.1453607,-0.8017280699999999,-0.65285313,-1.3417006,-3.1329426999999996,2.5635588
672,1778255733400,1.0733637999999999,-0.9261623628571429,-0.5911066314285714,-1.9288895714285716,-3.7751450857142856,3.013328657142857
673,1778255733410,1.0038888000000001,-1.1338899333333332,-0.500236,-2.32201015,-3.6032571,3.3941987499999997
674,1778255733420,0.96012122,-1.4814274666666665,-0.37137378000000004,-2.86547275,-3.046833866666667,3.9322462833333334
675,1778255733430,0.96182958,-1.6387397857142858,-0.28390832,-3.143899714285714,-2.6046477142857145,4.195924442857143
676,1778255733440,0.9724705,-1.69932178,-0.25089086800000004,-3.3751838399999996,-2.25463228,4.38143262
677,1778255733450,1.0881598,-1.8464150875,-0.2463758025,-3.8454716,-1.8603512625,4.613194375
678,1778255733460,1.19426974,-1.9018405,-0.26270322399999996,-4.001666,-1.8040254,4.66213
679,1778255733470,1.5256716142857143,-2.0204105285714284,-0.17864989999999997,-5.0368746571428575,-2.6106587857142856,4.346811585714286
680,1778255733480,1.5604323285714286,-2.0401442285714286,0.013980994571428573,-5.2142409857142855,-2.8498106285714284,4.213273171428571
681,1778255733490,1.52252674,-2.06496828,0.20437354479999997,-5.450319,-3.2295622600000002,3.90099844
682,1778255733500,1.3574464142857143,-2.0774500857142857,0.5069766228571428,-5.282037828571428,-3.095582471428571,3.8550399142857144
683,1778255733510,1.2387299999999999,-2.072429542857143,0.6671130342857143,-5.025461328571429,-2.752415057142857,3.955555157142857
684,1778255733520,1.1304731666666668,-2.0390984333333333,0.7613772666666666,-4.875360533333333,-2.4472675333333336,4.085821733333333
685,1778255733530,1.0914240000000002,-1.9799144,0.7840339150000001,-4.644553266666667,-1.7353158000000002,4.3581742666666665
686,1778255733540,1.2625081714285713,-1.9082836428571428,0.6480417657142857,-4.5843656,-0.8221558685714286,4.629639114285714
687,1778255733550,1.5185242499999998,-1.8046814,0.5244790500000001,-4.6496129999999996,-0.2031991925,4.700479199999999
688,1778255733560,1.8092662,-1.5965179857142857,0.4249036771428572,-4.786918057142857,-0.21830312214285713,4.5135254
689,1778255733570,2.038366,-1.232001,0.46224442,-5.1734567,-1.1659319,3.8551922
690,1778255733580,2.10206495,-1.0533511,0.80307036,-5.1734567,-1.1659319,3.8551922
691,1778255733590,2.242580975,-0.8721996075,1.2716603,-5.2006874624999995,-2.8699556375,3.4103776
692,1778255733600,2.911603,-0.8573731,2.1547813,-4.639120319999999,-4.01061402,3.10748296
693,1778255733610,3.0031244999999998,-0.8194628833333333,2.305446033333333,-4.3885346,-3.9214159,2.994991
694,1778255733620,3.2202657571428572,-0.6143618128571429,2.8644999285714285,-3.7460786285714285,-2.845701842857143,2.706760857142857
695,1778255733630,3.2793161333333334,-0.11006981333333332,3.1305222666666666,-3.4720520333333336,-2.0616418666666667,2.6129161666666665
696,1778255733640,3.3495228833333335,0.2980752583333333,3.266868983333333,-3.2650356333333335,-1.2864844133333333,2.3963124
697,1778255733650,3.34126555,0.42392744000000004,3.28842735,-3.06503225,-0.229564485,1.829858
698,1778255733660,3.19280556,0.621125712,3.3646220399999995,-3.07552498,0.014913703,1.4055099
699,1778255733670,2.878167057142857,0.7946503857142858,3.7394103142857142,-3.015307071428571,0.01065264542857143,1.1001138214285715
700,1778255733680,2.7873777999999994,0.8361401,3.8734326,-2.9230857,-0.066046394,0.88949585
701,1778255733690,2.7679508,0.7653635160000001,4.1531222,-2.62182894,-0.08096009639999999,0.8106662699999999
702,1778255733700,2.670169325,0.708437205,4.7481947,-1.74357165,-0.038349519,0.73449985
703,1778255733710,2.6722641666666664,0.7114268933333333,4.807521033333333,-0.95554222,0.044741106,0.8061389
704,1778255733720,2.8177455714285715,0.6983523742857143,4.705423657142857,0.24006496857142853,0.06345932,0.8049594857142858
705,1778255733730,2.9862845142857144,0.6929831514285715,4.3938671142857135,1.2771759714285713,0.14837612428571428,0.6993461357142856
706,1778255733740,3.0080056,0.69117016,4.348856,1.6989192,0.24536591,0.5452378633333334
707,1778255733750,3.2007131199999996,0.528335152,3.9546548799999997,2.10229942,0.39883503,0.31553132799999994
708,1778255733760,3.279549775,0.43307960125,3.7712641875,2.301836825,0.5391569875,0.19014970312499999
709,1778255733770,3.25377128,0.21433107599999998,3.30580416,2.82444224,1.1597534,-0.176514318
710,1778255733780,3.0642781285714285,0.06129323428571428,2.9116028857142857,3.136747314285714,1.6644757142857143,-0.3971153714285714
711,1778255733790,2.7982791166666665,-0.002237190666666666,2.6457026166666666,3.3678335999999995,2.10744815,-0.48487287333333334
712,1778255733800,2.5837296000000003,-0.015271010571428571,2.4371557142857143,3.496882714285714,2.358571557142857,-0.48089080285714286
713,1778255733810,2.441060657142857,-0.016595892857142858,2.2945565428571433,3.5811146714285713,2.533731457142857,-0.46567273142857146
714,1778255733820,1.8267684,-0.027822526000000004,1.8436084999999998,3.6485307,2.8772793,-0.24341293
715,1778255733830,1.8267684,-0.027822526,1.8436085,3.6485307,2.8772793,-0.24341293
716,1778255733840,1.7621542875,-0.064431115,1.8145046375,3.703258725,2.743056075,-0.09241169275
717,1778255733850,1.6544640999999998,-0.12544543,1.7659981999999999,3.7215014,2.698315,-0.042077947
718,1778255733860,1.8449915,-0.15456959,1.8133454,4.081294450000001,2.16186535,-0.21278657999999998
719,1778255733870,1.9806640714285713,-0.14082103571428572,1.8031647714285715,4.550581557142857,1.7094451,-0.72886918
720,1778255733880,2.0532537,-0.11413743666666666,1.6769987999999998,4.776379550000001,1.51587135,-1.0785802999999998
721,1778255733890,2.0253091666666667,-0.11873384999999999,1.60890685,4.9129996,1.4072144,-1.3097427
722,1778255733900,1.918534,-0.1461903,1.4604386,5.0782678,1.3583643714285714,-1.6516925571428571
723,1778255733910,1.8222127333333333,-0.19898801,1.3463011666666667,5.1681304,1.5462314,-2.2349248
724,1778255733920,1.6496528,-0.5905488042857143,1.057360642857143,5.147966471428572,1.5848092,-2.3963884428571425
725,1778255733930,1.7018112333333333,-0.9866014499999999,0.9223737,5.123211566666666,1.6049984666666666,-2.7082572333333332
726,1778255733940,1.67891862,-1.18602062,0.856104016,5.0868506,1.5710520000000001,-2.87621392
727,1778255733950,1.587775425,-1.4118101250000001,0.786291415,4.8574727499999995,1.410809575,-3.40152255
728,1778255733960,1.5176456200000001,-1.52076956,0.809245,4.7863396,1.3559751,-3.50205688
729,1778255733970,1.498406957142857,-1.5889173571428572,0.8363144428571428,4.690968,1.2941441428571427,-3.7016416857142858
730,1778255733980,1.616940225,-1.8088303,0.8886124774999999,4.669054025,1.389637525,-3.9125831499999997
731,1778255733990,1.59608554,-1.91077304,0.908478708,4.71741716,1.8586734599999999,-4.16369278
732,1778255734000,1.5101448666666666,-2.0702970833333336,0.8109615333333333,4.775580733333332,2.4849069,-4.3026032333333335
733,1778255734010,1.4977793,-2.0913267,0.7905014,4.788059542857143,2.712924214285714,-4.293624514285715
734,1778255734020,1.40186485,-2.0295799999999997,0.573534535,4.7569383499999995,3.18567335,-4.15932515
735,1778255734030,1.400539942857143,-1.9558748142857143,0.3517562257142857,4.6304764857142855,3.3278861999999996,-4.046102657142858
736,1778255734040,1.42880872,-1.8245719399999998,0.055693863999999996,4.4091296,3.2483109800000003,-4.0211603600000005
737,1778255734050,1.3881627285714286,-1.7454973857142857,-0.06798737714285714,4.160314214285714,3.1498347714285715,-4.003263857142857
738,1778255734060,1.38197415,-1.6896083,-0.13157736250000002,4.065182375,3.12282265,-3.9871517
739,1778255734070,1.4249107,-1.5624545285714286,-0.3373219728571429,3.7213492571428572,3.276905542857143,-3.958446714285714
740,1778255734080,1.434446366666667,-1.5388623166666668,-0.41164321666666664,3.5681033,3.5281558000000004,-3.9482252
741,1778255734090,1.4631232,-1.4770344,-0.665056,3.0577083750000003,4.56931875,-3.88688365
742,1778255734100,1.4948507000000002,-1.4392055428571429,-0.8840102142857142,1.8882572857142859,7.227591242857143,-3.707576885714286
743,1778255734110,1.5075416999999998,-1.4240739999999998,-0.9715919,1.7491642000000003,7.5681715,-3.6847498
744,1778255734120,1.0789160625,-1.262203075,-1.12821565,0.9336377125,8.1669159375,-3.3132387249999997
745,1778255734130,0.8776647014285714,-1.1736364285714287,-1.1556808,0.8722233257142857,7.778636571428572,-3.201880542857143
746,1778255734140,0.5726628857142856,-1.0558962285714286,-1.1952528857142857,0.8411784971428571,6.67936,-2.9534456714285713
747,1778255734150,0.38493928875,-0.76151964375,-1.193836525,0.7971507025,4.5666555625,-2.4477779875000003
748,1778255734160,0.41074833,-0.68994987,-1.1697664,0.78936094,4.1364217,-2.336125
749,1778255734170,0.20451997,-0.3397277,-1.0877631,1.1185277,3.6581182,-1.2602079
750,1778255734180,0.246009715,-0.270537465,-1.1619565500000002,1.1185277,3.6581182,-1.2602079
751,1778255734190,0.26927650666666664,-0.13976345099999998,-1.3603751,1.1185277,3.6581182,-1.2602079
752,1778255734200,0.21904137,0.12410311850000001,-1.8224974000000003,1.488352,2.862720716666667,-1.205258
753,1778255734210,0.20525213999999997,0.26480213,-2.0361695,1.7694043000000002,2.7132285,-1.1520835
754,1778255734220,0.306633516,0.570752264,-2.97037194,0.585469332,1.23421542,-1.3751499
755,1778255734230,0.004183828571428576,0.7105203542857143,-3.650468828571429,-0.34141726857142857,1.7854593428571428,-1.3105036142857143
756,1778255734240,-0.13545178,0.7556012,-3.6979554,-0.8111989,2.1582258,-1.2463595
757,1778255734250,-0.7704399100000001,0.82901366,-2.9421588,-1.74937732,2.83402954,-0.89737878
758,1778255734260,-1.2978615714285715,0.9715919428571429,-1.5168506514285713,-1.4161930285714288,2.1030602285714286,-0.39962634
759,1778255734270,-1.4943625,1.0953289,-0.3533949,0.31957933,0.3387541,0.24074976
760,1778255734280,-1.39556814,1.0980623399999998,-0.36852646,0.590795664,0.18120148600000002,0.306370054
761,1778255734290,-1.10143035,1.1163177999999998,-0.6804316,2.4966247333333333,-0.7270429900000001,0.7318366766666666
762,1778255734300,-0.761019284,1.16600786,-1.63249888,3.08990608,-0.805339916,0.9494702399999999
763,1778255734310,-0.44605527166666664,1.2284214666666666,-2.7323835333333335,3.2117723999999996,-0.76485986,1.0402308
764,1778255734320,-0.3683637466666667,1.2829275500000001,-3.562991616666667,2.073803583333333,-0.6402239416666667,1.13486175
765,1778255734330,-0.3477205725,1.285571525,-3.6567706,1.731853675,-0.5850965025,1.186704625
766,1778255734340,-0.10055158666666668,1.2126391333333333,-3.4325838666666666,0.6689860333333333,-0.5512743333333333,1.4469842
767,1778255734350,0.089227324,1.08683568,-3.0566218600000004,-0.45891590000000004,-1.0404437999999998,1.8399248
768,1778255734360,0.1164153,1.0648217,-3.0031245,-0.5294364,-1.1185277,1.8583539
769,1778255734370,0.34161041285714283,0.9155284857142857,-2.6584807571428573,-0.8576900628571428,-1.5215781,1.9339115428571427
770,1778255734380,0.40269447199999997,0.84790364,-2.53155708,-0.975569168,-1.6466857999999998,1.9577430599999999
771,1778255734390,0.48167138400000004,0.72328804,-2.33743394,-1.2032162,-1.8888205,2.01089974
772,1778255734400,0.6404410857142857,0.5013633285714285,-1.983278885714286,-1.6098428285714286,-2.5326662142857144,2.0309266999999998
773,1778255734410,0.665056,0.47639978,-1.94416,-1.6767262,-2.68926,2.0245352
774,1778255734420,0.810026,0.332357152,-1.8377023000000001,-1.8043449000000003,-2.9226595,1.9875705
775,1778255734430,0.8952368714285714,0.22596213857142858,-1.7529237142857144,-2.180520257142857,-3.5466459714285716,1.871974
776,1778255734440,0.9589009414285714,0.013109360000000006,-1.5700551142857144,-2.5717005857142854,-3.9161404428571425,1.7923835
777,1778255734450,0.971201394,-0.26494856,-1.32708564,-3.04516502,-4.184891540000001,1.8062623799999997
778,1778255734460,0.9820253449999999,-0.33301612,-1.2825818,-3.12455385,-4.2041994625,1.8230003375
779,1778255734470,1.0569306,-0.6487041533333333,-0.9977059733333333,-3.481106666666667,-4.2537784,1.9141025999999999
780,1778255734480,1.0823939,-0.7477914,-0.89105296,-3.752394,-4.291418,1.9872508
781,1778255734490,1.0877631,-1.019183,-0.5110559,-3.877486457142857,-4.2348066285714285,2.1118867428571426
782,1778255734500,1.1010642,-1.0964270999999999,-0.44052335000000004,-3.897980133333333,-4.188974933333333,2.1619542333333333
783,1778255734510,1.1143653,-1.1736712,-0.3699908,-3.89727,-4.116182,2.2205439
784,1778255734520,1.22292202,-1.31288152,-0.320154304,-3.9671513,-3.93295636,2.22714838
785,1778255734530,1.2039344,-1.3244987,-0.29067218,-4.0671797,-3.8482678,2.149171
786,1778255734540,1.56577975,-1.682927225,-0.33106365,-4.3304331875,-3.915978625,2.006359
787,1778255734550,1.650844,-1.9727961,-0.33391098333333336,-5.1531278333333335,-4.145121666666667,1.625859916666667
788,1778255734560,1.6386005,-1.9924834,-0.31727442,-5.2299156,-4.16838,1.5973641
789,1778255734570,1.5181276124999998,-2.1737264125,-0.045730232499999995,-5.9752015375,-4.1125199625,1.6662733875
790,1778255734580,1.3900454285714285,-2.408182714285714,0.4071223428571429,-6.1705444,-4.0128511428571425,1.7238262142857141
791,1778255734590,1.3715668285714284,-2.4708007857142857,0.7118104214285715,-6.2051654,-3.842409,1.7923075
792,1778255734600,1.429199225,-2.48163495,0.9468811575,-5.9334565,-3.429885225,1.8424414375
793,1778255734610,1.4499441,-2.4825501,1.0033194,-5.862683,-3.345463,1.8466359
794,1778255734620,1.5066351,-2.4084963,1.1047773428571428,-5.617976428571429,-3.2368060857142855,1.7439139285714285
795,1778255734630,1.2540576125,-2.1198813,1.05609675,-5.1986237375,-3.130479325,1.683783675
796,1778255734640,1.2457901500000002,-1.9897987,0.97976778,-5.293121733333333,-3.020557333333333,1.7658534
797,1778255734650,1.4408093571428573,-1.6695258857142856,1.1289739457142856,-5.633879571428571,-2.654639,1.7994599142857144
798,1778255734660,1.5070535000000003,-1.5670916000000001,1.1975889,-5.762459449999999,-2.49866655,1.7920410999999998
799,1778255734670,1.4818342666666666,-1.5164090666666665,1.2923644666666665,-5.796991466666667,-2.3348822000000005,1.7576863666666667
800,1778255734680,1.4493863142857142,-1.2177062285714284,1.8612503999999999,-5.663782742857143,-2.3547670571428574,1.7286199285714285
801,1778255734690,1.5162463666666666,-0.9257091333333333,2.4230005,-5.3453196,-2.5138464666666667,1.6156511333333334
802,1778255734700,1.8860744333333335,-0.4961684,3.0489258333333336,-4.29994,-2.9587719000000003,1.155012975
803,1778255734710,2.0176213,-0.4253918,3.0846395,-3.596066375,-3.1880701,0.82038680125
804,1778255734720,1.9901891800000002,-0.1464831664,2.9505056200000004,-3.1805600800000002,-2.87632052,0.5489307880000001
805,1778255734730,1.8875387333333336,0.12243538266666666,2.8043804666666667,-3.1416424000000003,-2.4529488666666666,0.42202227333333325
806,1778255734740,1.7574562624999999,0.409070465,3.134884925,-3.4035199499999997,-2.04743825,0.33848778999999996
807,1778255734750,1.7956104999999998,0.39699978666666663,3.634744866666667,-3.5560303666666666,-1.7289241666666666,0.18819672
808,1778255734760,1.8069998,0.35412705,3.771417,-3.5404065,-1.6405072,0.14008227
809,1778255734770,1.7145021500000002,0.24043705833333331,4.247206133333333,-3.286341,-1.2186625,0.05273059
810,1778255734780,1.5155953999999998,0.3321619,4.6395283,-2.744654,-0.6508766,0.14274544
811,1778255734790,1.420657225,0.4539464825,4.76112965,-1.7580857899999998,0.2150502635,0.301070365
812,1778255734800,1.205887,0.7326599,4.518232,-0.43554097999999997,0.9798150114285714,0.56694898
813,1778255734810,1.205887,0.7326599,4.518232,-0.3117420295714286,0.9601076114285715,0.6089508371428571
814,1778255734820,1.3094281625,0.8557867674999999,4.390254125,0.059255333875,0.7505453449999999,0.70926639625
815,1778255734830,1.5277983,0.95621634,4.252209,0.33609092,0.43409526,0.7115966699999999
816,1778255734840,1.7955291,0.9679311,4.2353697,0.6221144,-0.06018744,0.5906891
817,1778255734850,2.440382611111111,0.893737668888889,4.417164811111111,1.4705383555555553,-0.7095253155555555,0.3018841088888889
818,1778255734860,2.7063508,0.83687234,4.4491634,1.7640779,-0.7701862,0.16884441999999997
819,1778255734870,2.847764628571429,0.7646313742857143,4.462133457142857,2.061971542857143,-0.4856084142857143,-7.608714285714127e-05
820,1778255734880,2.995253675,0.6348539125,4.40956525,3.176086,1.2255868,-0.4857606
821,1778255734890,3.060094314285714,0.39582597428571425,4.143498942857143,3.4557940000000005,1.5800154285714285,-0.5661119714285714
822,1778255734900,2.55131345,0.29768883,3.43193295,4.35959475,2.5257419,-0.79575255
823,1778255734910,2.5006106,0.2894519,3.3531024,4.5641255,2.5853968,-0.8245147
824,1778255734920,2.4278466857142855,0.27320466000000004,3.0758185857142855,5.142411857142856,1.8788982285714284,-1.2620340571428572
825,1778255734930,2.3425700000000003,0.2576973411111111,2.746321977777778,5.3737264,1.5962988,-1.4370418
826,1778255734940,2.2150229666666665,0.23986760666666665,2.2971887833333335,5.3737264,1.5962988000000002,-1.4370418
827,1778255734950,1.961662342857143,0.17084007285714287,1.6927461142857143,5.265982571428571,0.4176597642857143,-2.140192457142857
828,1778255734960,1.9209745000000003,0.15033926,1.6215163,5.219263,0.37763625,-2.2003038
829,1778255734970,1.8858303,0.07785426,1.5456146,5.219263,0.37763625,-2.2003038
830,1778255734980,1.7877891,-0.026881162857142864,1.4927587714285713,5.0010363714285715,0.7679034571428571,-2.4361075
831,1778255734990,1.67609375,-0.14021088874999998,1.457113325,4.771053074999999,1.7152754875,-2.69392075
832,1778255735000,1.3545178,-0.4811589,1.4670281,4.8344365,2.8756813500000002,-2.88979625
833,1778255735010,1.300093,-0.5786598,1.4489679,4.928446,2.973153,-2.9161615
834,1778255735020,1.2122324,-0.7294871,1.3647681,5.5310528375,2.357496875,-3.2036498125
835,1778255735030,1.1971705142857143,-0.971731442857143,1.1507648142857143,5.7205463142857145,2.0605258857142856,-3.3281906428571433
836,1778255735040,1.1568314,-1.2710502,0.7292431,5.89038,1.4998924,-3.5792885
837,1778255735050,1.1301942857142857,-1.3236270857142856,0.6185108342857143,5.918076857142857,1.1276585485714286,-3.7349693
838,1778255735060,1.0636015,-1.4252594571428572,0.40757561999999997,5.987319,0.19707392,-4.1241713
839,1778255735070,0.9974619800000001,-1.4109763333333332,0.4087145366666667,5.735206333333333,-0.14736158,-4.2580395
840,1778255735080,0.86127805,-1.4337142500000002,0.048689421499999996,5.153039266666666,0.028495825000000002,-4.274284949999999
841,1778255735090,0.8610034625,-1.3898755875,-0.106225924,4.4469464,0.9054082375,-4.14347915
842,1778255735100,0.915367175,-1.2877680875,-0.272550948125,3.9153795,1.52146405,-3.99101315
843,1778255735110,0.9484064,-1.2295604,-0.36462155,3.3885302000000004,2.0819073142857145,-3.834799757142857
844,1778255735120,1.0335518625,-1.1502418250000002,-0.391315315,2.8867335125,2.2989072249999998,-3.695468925
845,1778255735130,1.1101466428571427,-1.1050911714285714,-0.3828212285714286,2.5828857857142857,2.2679479999999996,-3.6228883285714284
846,1778255735140,1.2396015714285713,-1.0128026585714287,-0.30263096857142857,2.1157673714285714,1.8473206999999998,-3.5833213857142856
847,1778255735150,1.3413080625,-0.9479793624999999,-0.1456411575,1.8747988750000002,1.479119675,-3.6232973875
848,1778255735160,1.3664764999999999,-0.95011485,-0.01415532,1.804558,1.2580773,-3.6842172
849,1778255735170,1.28596805,-0.9853506037499999,0.17895497999999999,1.9576232,0.896420025,-3.7973349
850,1778255735180,1.2235402666666666,-1.0130273555555556,0.25484999,2.1670438,0.7816673666666667,-3.8257197555555553
851,1778255735190,1.2634030333333335,-0.9982755,-0.046370886666666666,2.9399524333333336,0.38846643333333336,-3.9040166333333333
852,1778255735200,1.3178045714285713,-0.9623525857142857,-0.4106089,3.425357942857143,-0.15781129999999996,-4.048993985714286
853,1778255735210,1.3623581125,-0.93397655,-0.7766206875,3.696867125,-0.7918909375,-4.23795475
854,1778255735220,1.2468885428571428,-0.9292305285714286,-2.195643514285714,3.6791190285714284,-2.8100154857142856,-5.028428714285715
855,1778255735230,1.1575636,-0.9376679,-2.5233078,3.5028938571428574,-3.3354952285714288,-5.266591371428571
856,1778255735240,0.69202435,-0.9041100875,-2.2682680499999996,1.9178089,-4.1709098749999995,-5.783853275
857,1778255735250,0.14660867428571428,-0.8329325428571428,-1.801595742857143,1.3299826,-4.1577272,-5.850965
858,1778255735260,-0.05296042,-0.7946504,-1.5663594,1.3299826,-4.1577272,-5.850965
859,1778255735270,-0.46688148,-0.78586435,-1.1875826,0.8175905,-3.9425437,-5.480786
860,1778255735280,-0.53741404,-0.7854111,-1.1354240757142857,0.8175905,-3.9425436999999994,-5.480786
861,1778255735290,-0.9606094,-0.7826916,-0.82247293,0.87032104,-3.762514,-4.857606
862,1778255735300,-1.5641978142857142,-0.8559436285714286,-0.9920578371428571,0.87032104,-3.762514,-4.857606
863,1778255735310,-2.0002933,-0.9000831,-1.1529264,0.94808537,-3.6804886,-4.065049
864,1778255735320,-2.4099127875,-0.93864415,-1.2037818475,0.94808537,-3.6804886,-4.065049
865,1778255735330,-2.60946,-0.9969738,-0.9908724399999999,-0.1289730942857143,-3.1111808285714284,-2.4318466142857145
866,1778255735340,-2.793967275,-1.061404875,-0.58762885,-0.793622,-2.30416695,-1.44955863
867,1778255735350,-2.7662533111111114,-0.967768288888889,-0.054994231111111104,-1.2028611,-1.1046792600000002,-0.5177185133333333
868,1778255735360,-2.6948802,-0.8756774,0.26358184,-1.2378373,-0.79681784,-0.31638354
869,1778255735370,-2.3844043285714283,-1.0038423614285714,1.0273414714285714,-0.58368884,-0.15621343085714284,-0.19319331599999998
870,1778255735380,-2.3680875,-0.82247293,1.2651927,0.68656296,0.4362258,-0.048469532
871,1778255735390,-2.3331524428571426,-0.7835632357142857,1.0712718142857143,1.0367306,0.2963717928571428,-0.16519207714285716
872,1778255735400,-2.302625855555556,-0.6347657777777778,0.33129417222222224,2.0405732,-0.18760490555555556,-0.6676840844444444
873,1778255735410,-2.6493111,-0.5890844571428572,-0.13949615857142858,2.089896657142857,-0.6461590014285713,-0.9416937942857143
874,1778255735420,-3.0406396,-0.6052619714285715,-0.43864059285714285,2.0262090857142856,-0.7781756914285713,-0.8476461628571429
875,1778255735430,-3.1646905,-0.6199054,-0.5130083,1.9531624,-0.87618,-0.6988135
876,1778255735440,-3.2067031857142854,-0.6387675385714287,-0.5175756571428571,1.8196238714285715,-0.8907893571428571,-0.2523155028571428
877,1778255735450,-3.3176793142857144,-0.8350941257142858,-0.3995914257142857,1.8293634142857143,-0.8901806371428572,1.01839284
878,1778255735460,-3.129546,-0.9459658,-0.20574026,1.9702066,-0.87511474,1.5249261
879,1778255735470,-2.9559166857142856,-0.9837598442857143,-0.2005801942857143,2.072167614285714,-0.8726798485714286,1.6526817571428574
880,1778255735480,-2.59585385,-1.06964185,-0.2932958,2.6979819125,-0.84235785,2.465621175
881,1778255735490,-2.2409335500000003,-1.20332425,-0.5900084050000001,3.07115745,-0.6463492,3.33427775
882,1778255735500,-1.958315266666667,-1.2882155333333334,-0.8405332,3.1151884333333335,-0.3723099266666667,3.997759966666667
883,1778255735510,-1.8001662,-1.3118078,-0.967443,3.0178943,-0.18482338,4.3105927
884,1778255735520,-1.8001662,-1.3118078,-0.967443,3.0178943,-0.18482338,4.3105927
885,1778255735530,-1.2914114571428572,-1.4007840571428571,-1.0912148,2.359712957142857,0.46156387285714284,5.263851942857142
886,1778255735540,-1.036267,-1.4387175,-1.0799533,1.9154121,0.78556596125,5.8976369625
887,1778255735550,-0.5106723642857143,-1.5805147285714285,-0.8576869285714286,1.6037557142857144,0.8672013614285714,6.491189142857142
888,1778255735560,-0.37023484999999995,-1.6498269,-0.7839119,1.5345135,0.80747044,6.770821000000001
889,1778255735570,-0.37023485,-1.6498269,-0.7839119,1.5345135,0.80747044,6.770821
890,1778255735580,0.29813337914285715,-1.7354562999999998,-0.6837786642857143,1.5975161857142857,0.6787256242857144,7.098009214285715
891,1778255735590,1.00161095,-1.7741742500000002,-0.834553765,1.8125475,0.18881812,7.34020465
892,1778255735600,1.3733101,-1.7913802,-0.95524013,1.8237328,-0.4198663671428572,7.100139842857144
893,1778255735610,1.5486957375000001,-1.776553825,-1.0690318,1.8285265,-0.6828345,6.992396
894,1778255735620,1.7940649,-1.7359792,-1.1617125,1.8066219875,-0.955675375,6.976084125
895,1778255735630,2.001792442857143,-1.7591995428571428,-1.3418266714285714,1.6532904,-2.8655615000000005,6.861900999999999
896,1778255735640,2.0502202714285716,-1.6690726857142857,-1.3923465571428573,1.5078057142857142,-3.1499870714285714,6.806354999999999
897,1778255735650,2.0329154666666667,-1.5837688,-1.3115636666666668,1.0916593333333333,-3.8784503333333333,6.657429266666666
898,1778255735660,2.0190856,-1.5763657,-1.2634844,0.908138,-3.9393480000000003,6.6222167
899,1778255735670,2.0663630285714283,-1.5813862428571428,-1.0304445457142857,0.7765017042857142,-3.542537014285714,6.598171985714286
900,1778255735680,1.9629525,-1.5336558,-0.5508372,0.63649553,-2.1907163,6.5668225
901,1778255735690,1.9244728000000002,-1.54825855,-0.5423358716666667,0.5489662966666667,-1.5943457666666667,6.693766566666667
902,1778255735700,1.76099505,-1.6122421999999998,-0.538512315,0.09594038625,0.2605237375,7.1823458874999995
903,1778255735710,1.7899158,-1.6032121,-0.5771954,-0.07084008,0.6578008,7.3231606
904,1778255735720,2.0671299999999997,-1.4751866,-0.7775315214285714,-1.5390788828571427,2.3666372285714283,7.601042514285715
905,1778255735730,2.25094,-1.4060138,-0.86469483,-2.346245,3.2112398,7.689079
906,1778255735740,2.3751652,-1.2476206,-0.7158199,-3.9226841428571433,3.973208257142857,7.457155857142857
907,1778255735750,2.3637991428571428,-1.2469232857142856,-0.6562001999999999,-4.526460742857143,4.171880028571429,7.291811571428572
908,1778255735760,2.2403643333333334,-1.2581964333333333,-0.21062140000000001,-5.1581287555555555,4.248274644444445,6.971268333333334
909,1778255735770,2.023885433333333,-1.2720671,0.47119319,-5.752694600000001,4.125147833333333,6.386793099999999
910,1778255735780,1.8916875999999998,-1.2112561,0.91497064,-5.628857599999999,3.8450719999999996,6.1178136
911,1778255735790,1.7341182875,-0.98336764375,1.25543049,-4.9214553500000005,3.2002540625,5.8048921625
912,1778255735800,1.5699156714285714,-0.6594078528571429,1.3130628857142859,-4.102105142857143,2.5298508714285712,5.497981614285714
913,1778255735810,1.5583055,-0.6282034,1.2886223,-4.036287,2.4825988000000003,5.478122
914,1778255735820,1.5583055,-0.6282034,1.2886223,-4.309172222222222,2.431406922222222,5.075334022222222
915,1778255735830,1.7949597,-0.6175868833333333,1.02259987,-4.8293763499999995,2.40616605,4.3976782000000005
916,1778255735840,2.0923027999999997,-0.7158199249999999,1.0725096,-4.9765160625,2.2979085375,4.106528025
917,1778255735850,1.8905284500000001,-0.6665813749999999,1.809318375,-4.744155425,1.8797922749999998,3.88169055
918,1778255735860,1.8480015,-0.64089435,1.9976085,-4.0251017,1.0588728,3.697533
919,1778255735870,1.9186560875,-0.54156303875,2.076957675,-3.1593747875,0.17603493999999997,3.6309539500000003
920,1778255735880,2.115069871428571,-0.44352173857142857,2.083446885714286,-2.5949843,-0.7057377,3.5675707
921,1778255735890,2.453542385714286,-0.3071286128571429,2.2875137857142853,-2.0259047285714287,-2.4096281285714283,3.4083898000000006
922,1778255735900,3.4760261000000003,0.03734075222222223,3.165801966666667,-0.2908171833333333,-4.692489966666667,2.699439311111111
923,1778255735910,4.1846056,0.26553428,3.7623863,0.69987875,-5.4552193,2.2801986
924,1778255735920,4.617603933333333,0.46342404666666664,3.6962875499999996,1.099352925,-4.97558415,1.9185413
925,1778255735930,4.6951733,0.6033095,2.886709,1.787646925,-3.1728902750000003,0.98883175
926,1778255735940,4.0740476,0.6033095,2.886709,2.0591562,-0.94595486,0.3925499599999999
927,1778255735950,2.47053045,0.904842225,1.911029125,2.22174215,0.483896385,0.76872143
928,1778255735960,2.422024,0.9405966,1.8277446,2.267948,0.9406285,1.0226538
929,1778255735970,2.640455285714286,1.0540832428571427,1.7018808857142855,2.2059344285714286,0.5365889285714286,1.1942375142857142
930,1778255735980,3.222233533333333,1.1348390999999998,1.8065389111111112,2.261497244444444,-0.8810920444444444,1.0810067222222224
931,1778255735990,3.9573185,1.1320421428571428,2.059738642857143,2.358952014285714,-1.2877525285714289,0.8922351028571429
932,1778255736000,4.752945357142857,0.7521495714285714,2.6247659,3.000089042857143,-1.3982357285714286,-0.0630027857142857
933,1778255736010,4.8228154,0.6787232,2.7810323,3.4855454,-0.9576728,-0.39894155
934,1778255736020,4.9313859142857135,0.4237182457142857,2.591295242857143,4.2196647714285715,-0.18862794285714285,-0.9335521142857142
935,1778255736030,4.679240142857142,0.3318481342857143,1.8164483428571427,5.238894585714286,0.8477983,-1.7726000285714285
936,1778255736040,3.898489033333333,0.5126015466666667,0.42937806366666664,5.2836527222222225,0.7927934777777778,-2.672985222222222
937,1778255736050,3.4383133285714287,0.7062668,-0.2944027638571428,4.430510857142857,0.5743297,-2.945304
938,1778255736060,3.281838,0.7895252,-0.49982923,4.188087,0.5475459,-2.9827404
939,1778255736070,3.13497645,0.8951714537500001,-0.564900980875,2.940662525,1.098420825,-2.958638875
940,1778255736080,3.2505984,0.76341105,0.028066583,1.3406353,2.1694112,-2.9736857
941,1778255736090,3.0848564444444446,0.34493424999999994,1.1366287314444443,1.2447615,2.5047919,-3.099919533333333
942,1778255736100,3.0641386999999995,0.29262465,1.275199,1.1481775333333333,3.1951719166666663,-3.3790188333333333
943,1778255736110,2.8120277,0.05051985,1.854591,1.6239957,3.293265,-3.512177
944,1778255736120,2.7536369499999998,-0.0003660825000000034,1.9336656,2.959171525,2.823083875,-3.71444405
945,1778255736130,2.2960906,-0.42197496,1.8467811,4.632835,1.8769959,-4.0123186
946,1778255736140,2.2835739428571427,-0.44481174714285715,1.7558872285714284,4.768656285714286,1.6747478428571427,-4.117247157142858
947,1778255736150,2.1440428999999996,-0.6386978050000001,1.0579882,5.7060893125,0.20592893125,-5.003147562500001
948,1778255736160,2.0796118,-0.69556314,0.9054524,5.7795925,0.05273059,-5.156945
949,1778255736170,1.910388675,-0.812802155,0.6060551675,5.775997125,-0.007190537499999997,-5.249090375
950,1778255736180,1.6089474,-1.1161958,0.28920785,5.2927666,-0.14168017,-6.0182114
951,1778255736190,1.5765052857142858,-1.3234876142857142,0.2974709314285714,4.9347616714285705,0.24295638000000003,-6.2742554
952,1778255736200,1.5119347,-1.526212,0.32117934000000004,4.7188553749999995,0.5312340625,-6.41642075
953,1778255736210,1.4434940714285713,-1.6974180857142858,0.3741746285714286,4.5976815,0.7552725,-6.482667
954,1778255736220,1.3066824999999997,-2.0473962,0.588178,4.608714514285714,1.0384045714285715,-6.4726231428571435
955,1778255736230,1.238376975,-2.2071622375,0.6063907162500001,4.5683866,1.381648,-6.475743
956,1778255736240,1.1645366714285714,-2.2595517,0.42479905999999995,4.845203242857143,1.3641472571428572,-6.39356507142857
957,1778255736250,1.1035920714285716,-2.2255230999999998,0.25779418171428575,4.742252971428571,1.0562096857142858,-6.357954985714286
958,1778255736260,1.044321,-2.1686926,0.118855886,4.640292,0.9262473999999999,-6.3372583
959,1778255736270,0.7791353128571429,-1.8280237428571429,-0.3334867985714286,4.005013885714286,0.8244385685714286,-6.145739028571429
960,1778255736280,0.7270813814285715,-1.7546671,-0.38303042428571427,3.1540958142857143,0.7818280142857142,-5.871205157142858
961,1778255736290,0.59546917125,-1.595676725,-0.28219119375,2.0793962125,1.1634685375,-5.3606771375
962,1778255736300,0.5879339,-1.5883245,-0.2660224,1.3203954,1.5313177,-4.9092712
963,1778255736310,0.5879339,-1.5883245,-0.2660224,1.3203954,1.5313177,-4.9092712
964,1778255736320,0.6077373857142857,-1.5566668428571426,-0.15487175428571429,0.9444330857142856,1.9597822428571428,-4.5716584
965,1778255736330,0.6390464571428571,-1.5106795142857141,-0.06948658142857143,0.28762139257142855,2.814580842857143,-3.971001428571429
966,1778255736340,0.754075925,-1.41608115,-0.0824913475,-0.3151185545,4.2033338875,-3.5919385875
967,1778255736350,0.9531481228571428,-1.2663432714285714,-0.18255482571428572,-0.3298515414285714,4.4350003000000005,-3.6502808142857144
968,1778255736360,0.93620354,-1.2417632,-0.2169669,-0.31798145,4.535896,-3.6943371
969,1778255736370,0.7779460266666667,-1.1825929555555554,-0.3576523488888889,-0.23205011222222222,4.4693760000000005,-3.750914477777778
970,1778255736380,0.31169596885714285,-1.047493742857143,-0.5923967,-0.04588246,4.342169714285714,-3.7641119714285716
971,1778255736390,-0.11366965700000001,-0.874274075,-0.760604425,0.17283916,4.067312575,-3.4787543
972,1778255736400,-0.7222351185714286,-0.47092588571428573,-1.1861530857142857,0.5176424285714286,3.2071308571428574,-2.645279942857143
973,1778255736410,-0.79391825,-0.340948,-1.3284036,0.5225122,2.9246835999999994,-2.3686156000000005
974,1778255736420,-0.8054974066666667,-0.2950381166666667,-1.3434537999999998,0.43977668,2.7606328666666666,-1.9719820666666668
975,1778255736430,-0.8568152600000001,-0.11010468571428571,-1.4593229,0.23945623085714288,2.9793925571428574,-1.3324175771428572
976,1778255736440,-0.886136987142857,0.09424096714285714,-1.4317793,0.1630615537142857,3.521535971428572,-0.8079269971428572
977,1778255736450,-0.7741495833333334,0.2560160633333333,-1.2757686333333333,0.6773306533333333,3.9835564666666667,0.015623879999999998
978,1778255736460,-0.7541369,0.27090356,-1.2939916,0.78723043,3.92763,0.11717909
979,1778255736470,-0.6729006999999999,0.2930779,-1.355563742857143,1.0217408042857143,3.0213943714285714,0.09769996714285714
980,1778255736480,0.19548985,0.63064396,-2.2841318,1.0349044,1.8764633,-0.27057716
981,1778255736490,0.10825681899999999,0.6952842485714286,-2.3600685285714285,0.7911110285714286,1.2998508928571428,-0.40137642285714287
982,1778255736500,-0.07647127266666667,0.8005891166666667,-2.4168176666666668,0.32212413777777776,0.4420255811111111,-0.5899789644444444
983,1778255736510,-0.21330604,0.83882475,-2.327818,0.14221281,0.33076462,-0.60773337
984,1778255736520,-0.2903932657142857,0.8346060599999999,-2.1405912000000002,0.018033407142857144,0.3301558885714286,-0.5368171928571429
985,1778255736530,-0.4966565,0.87079626,-1.6263975,-0.075101145,0.32969934,-0.48363006000000003
986,1778255736540,-0.5538356428571428,0.9237915028571428,-1.4668886428571428,-0.15499598357142855,0.7405871057142858,-0.11063532171428571
987,1778255736550,-0.52350282,0.9500102285714285,-1.4845653571428572,0.2925672814285714,0.32718837800000006,0.34415650685714283
988,1778255736560,-0.43051702,0.99965847,-1.5766098,0.53103435,-0.004261058,0.48735848
989,1778255736570,-0.4097721342857143,1.0435887771428571,-1.7199062285714284,0.4919239185714286,-0.08476461285714285,0.5071419714285714
990,1778255736580,-0.446197675,1.1069217,-1.968077675,0.3240401275,-0.3075951125,0.59674784375
991,1778255736590,-0.5036731525,1.1393202375,-2.0363526875,0.1607217775,-0.33875411,0.7014766375
992,1778255736600,-0.56439982,1.1469644714285714,-2.0602615857142856,-0.05037179000000001,-0.33236251999999994,0.9076053142857143
993,1778255736610,-0.60916686,1.1282767,-2.0705817,-0.14594123,-0.34301516,1.031176
994,1778255736620,-0.5319401742857143,1.0902734857142857,-2.0498366999999997,-0.39338694714285716,-0.5041744657142857,1.5128277142857143
995,1778255736630,-0.36169282,1.0340706,-2.0361695,-0.50333744,-0.6279734,1.7475663
996,1778255736640,-0.24129126444444443,0.9809203244444444,-2.0951771444444445,-0.53795854,-0.6672106333333334,1.7781038666666664
997,1778255736650,-0.070532545,0.8927614,-2.186753,-0.7008679200000001,-0.8236776714285714,1.8227434999999998
998,1778255736660,0.05735344999999999,0.71996886,-2.20823,-1.262871,-1.2916331,1.7241305
999,1778255736670,0.051099485,0.6473618225000001,-2.1572831249999997,-1.40967775,-1.4374412250000002,1.6921725625000001
1000,1778255736680,-0.053936653,0.32801294,-1.9290285,-1.9127584,-1.9559017285714286,1.690346457142857
