id,timestamp,acc_x,acc_y,acc_z,gyro_x,gyro_y,gyro_z
0,1778255787670,0.5452239,-0.016351834,0.7770783,0.13901702,-0.17310548,0.020240024
1,1778255787680,0.55684102,-0.0327524804,0.7570656,0.12154667999999999,-0.223385956,-0.022370553600000002
2,1778255787690,0.5115091228571429,-0.04940415857142857,0.7602383328571428,0.04786081057142857,-0.20506340142857143,-0.07715558342857143
3,1778255787700,0.45931574,-0.0507639072,0.7715137719999999,-0.03376888360000001,-0.043675841400000005,-0.0316383551
4,1778255787710,0.45589894,-0.055645052,0.76243484,-0.0644485,0.017044231,-0.0058589545
5,1778255787720,0.48502309666666665,-0.056783988,0.7400629333333333,-0.18695391333333333,0.15330931016666668,0.04944602441666667
6,1778255787730,0.5093475,-0.0561331685,0.7304633549999999,-0.27510455,0.21784658,0.0641821825
7,1778255787740,0.5455899750000001,-0.054302737,0.7228975599999999,-0.35988185,0.16698019499999997,0.0069242186666666665
8,1778255787750,0.54234402,-0.0540342754,0.716405634,-0.3758253,0.11941614199999999,-0.020026972240000003
9,1778255787760,0.5400987,-0.054668825,0.7158199,-0.37319764666666666,0.06977482266666667,-0.04775935666666667
10,1778255787770,0.5486058142857143,-0.05899212357142857,0.6928785285714286,-0.34621095142857145,-0.006924219428571429,-0.15027837571428573
11,1778255787780,0.5620638,-0.06589546,0.6491923,-0.33502567,-0.02609898,-0.20186761
12,1778255787790,0.5620638,-0.06589546,0.6491923,-0.3647009057142857,0.03781689142857143,-0.27909928857142857
13,1778255787800,0.53350913,-0.0774881775,0.51691327,-0.40160471,0.09827064999999999,-0.320644605
14,1778255787810,0.5193538,-0.079318605,0.48957884,-0.42663842,0.13315806,-0.33129725
15,1778255787820,0.48877696,-0.08932495,0.4145486685714285,-0.5301212514285714,0.24904361142857143,-0.31516608999999995
16,1778255787830,0.48103684,-0.10543273,0.2894519,-0.7259777,0.42024684,-0.28549087
17,1778255787840,0.46458040571428566,-0.09636774714285715,0.2229288657142857,-0.9043334142857142,0.3822016742857143,-0.32779708714285716
18,1778255787850,0.435398115,-0.087494525,0.156074615,-1.11985925,0.27616981,-0.37923415
19,1778255787860,0.41855815,-0.08542004,0.13911264,-1.2016183,0.19867182,-0.39894155
20,1778255787870,0.39024752333333335,-0.09859913,0.10266675066666668,-1.4713078333333334,-0.13635385133333333,-0.42148963333333334
21,1778255787880,0.404524875,-0.133255265,0.080660922,-1.6474315,-0.34301516,-0.4314321
22,1778255787890,0.4427895857142857,-0.17502390571428572,0.07255473,-1.7690238142857144,-0.41697493142857145,-0.42930156571428574
23,1778255787900,0.49191482571428574,-0.2125389942857143,0.060561060285714285,-1.8287546714285714,-0.5028048342857143,-0.34933064714285716
24,1778255787910,0.5503491,-0.255772,0.046614934,-1.8333201,-0.5944176,-0.23915187
25,1778255787920,0.5503491,-0.255772,0.046614934,-1.8656584857142857,-0.6319301199999999,-0.3194271542857142
26,1778255787930,0.6770496571428571,-0.2565390342857143,-0.1936768642857143,-2.1108215285714285,-0.9551617942857142,-0.844678627142857
27,1778255787940,0.6582224,-0.27554062,-0.21843125,-2.206340277777778,-1.1242683333333334,-0.9039952833333333
28,1778255787950,0.6828024714285714,-0.3923046057142857,-0.5131129071428572,-2.631659785714286,-1.3948116000000002,-0.9820977714285715
29,1778255787960,0.6960513,-0.43588626,-0.60306543,-3.0711575000000004,-1.577124,-1.0807108
30,1778255787970,0.668228725,-0.55605394375,-0.65581231625,-3.31856515,-1.6743294,-1.0966898
31,1778255787980,0.66493395,-0.6965393799999999,-0.66224933,-3.736059966666667,-1.8237327666666667,-1.099353
32,1778255787990,0.69134443,-0.8468437714285714,-0.6252746742857143,-4.3853132142857145,-1.966782557142857,-0.9908482000000001
33,1778255788000,0.84657359,-1.17946775,-0.34168015,-5.55508775,-1.9832561,-0.6138586500000001
34,1778255788010,0.88934463,-1.2554306,-0.26211748,-5.952165,-1.9030949999999998,-0.4415521
35,1778255788020,1.0159755142857143,-1.3747047285714284,-0.029844715714285715,-6.015167771428572,-1.9021818857142858,-0.39483265142857144
36,1778255788030,1.2491155,-1.4996402125000001,0.11507299625,-6.2655524125,-2.0097544875,-0.276436125
37,1778255788040,1.62636695,-1.608337275,0.2759372375,-6.425142375,-2.238919525,-0.3340935525
38,1778255788050,2.1135009142857144,-1.7498904,0.4396517071428571,-6.403761271428571,-2.471870057142857,-1.3463420314285715
39,1778255788060,2.1621032,-1.7713674,0.45199403,-6.3894563,-2.509763,-1.6788567
40,1778255788070,2.1287080166666663,-1.8054134166666664,0.42933738166666663,-6.3894563,-2.509763,-1.6788567
41,1778255788080,1.9732332750000001,-1.934031725,0.36257755625,-6.779143225,-2.222208325,-2.4002405625
42,1778255788090,1.6833441666666669,-2.0373086,0.36185555999999997,-7.557163533333334,-1.4757464,-2.3162400333333335
43,1778255788100,1.654638442857143,-2.016226657142857,0.5768118828571429,-7.921078314285714,-0.927084457142857,-2.1285505571428573
44,1778255788110,1.713526,-1.9983407,0.64187056,-8.101869,-0.5816344,-2.0314593
45,1778255788120,1.7347240571428573,-2.0114500714285715,0.6962604457142857,-8.365521714285714,0.2949260714285714,-2.0812984714285716
46,1778255788130,1.7064483,-1.8909554,0.9425490499999999,-8.650658,1.4881744166666666,-2.234836
47,1778255788140,1.3641580125000001,-1.6539149375,1.2704704625,-8.760867812499999,3.1732229875,-2.331198225
48,1778255788150,0.8961782142857143,-1.1435826285714283,1.8146353857142858,-8.331052857142856,4.953403728571429,-2.179302814285714
49,1778255788160,0.8659151,-1.0704352,1.8794849000000002,-8.194547,5.1883707,-2.1268005
50,1778255788170,1.0086614555555555,-0.7673973555555555,2.1206405555555556,-7.795191088888889,5.513572266666667,-2.0580317222222226
51,1778255788180,1.2183337,-0.5108118,2.318544,-6.869002666666667,5.858244333333334,-2.0373182333333335
52,1778255788190,1.3707300142857144,-0.4885328571428572,2.400651728571429,-6.249297685714285,5.9772749,-2.0728524
53,1778255788200,1.5916803000000002,-0.469993225,2.524223,-4.67770935,5.8419104375,-2.3270035125
54,1778255788210,1.6212723,-0.48860259999999994,2.5477135,-4.1950116,5.684784,-2.3899207
55,1778255788220,1.8440050374999999,-0.38310886375000003,2.6517125,-3.3550503,5.828062,-2.6381273
56,1778255788230,2.0146925,-0.6384538,2.6841416,-1.8695390999999997,6.124738,-3.0178942999999996
57,1778255788240,2.0061853571428574,-0.7495346857142857,2.6558309714285713,-1.2913287857142854,6.171533585714285,-3.0952781000000003
58,1778255788250,1.9436718499999999,-1.1873385,2.557842,-0.054661387499999985,6.0445103875,-3.085605125
59,1778255788260,1.9024262,-1.3474401,2.5306296,0.22477080000000002,5.93086,-3.0178943
60,1778255788270,1.94778015,-1.53853685,2.448545016666667,0.9247383233333334,5.7803024333333335,-2.6546390333333334
61,1778255788280,2.1589303,-1.7823502,2.2226293,1.8828549,5.5068846,-2.0165455
62,1778255788290,2.1589303,-1.7823502,2.2226293,1.8828549,5.5068846,-2.0165455
63,1778255788300,2.523273014285714,-1.7855926,2.0406323,2.1547256,5.4840574,-1.7816547428571428
64,1778255788310,2.9850643,-1.7852788,1.8067559,2.6130936,5.5143414,-1.4141386
65,1778255788320,3.0702054142857143,-1.8084293428571427,1.763453157142857,2.740925428571429,5.7311988000000005,-1.4695323142857144
66,1778255788330,3.309834742857143,-1.9340838857142857,1.6204355714285714,2.966229,6.124738,-1.5968314
67,1778255788340,3.5076211125,-2.205545175,1.4714212375,3.1586422124999998,6.330001187500001,-1.67106695
68,1778255788350,2.8742621000000006,-2.3491730499999997,1.342803,3.5513253500000004,6.3825321,-1.3299826
69,1778255788360,2.5687025,-2.2826674,1.2842293,3.7752972,6.3367257,-1.0322412
70,1778255788370,2.2647466428571428,-2.010160142857143,1.2101753,3.8312234857142857,6.071550914285714,-0.8427763428571428
71,1778255788380,2.028481833333333,-1.7177970833333334,1.1756644333333333,3.8940742166666666,5.354551833333333,-0.4988988283333333
72,1778255788390,1.9816634444444443,-1.3538127222222223,1.1077758333333334,3.884309233333333,4.769958222222222,-0.3733751911111111
73,1778255788400,1.93549595,-0.950358935,1.0509104500000002,3.663266866666667,3.992256,-0.7685882866666667
74,1778255788410,1.8372629,-0.68994987,1.0379754,3.5744948,3.8248319999999993,-0.96992326
75,1778255788420,1.541282475,-0.5071509962499999,1.106402975,3.5480629,3.73315265,-1.0788465475
76,1778255788430,1.3225810714285713,-0.42082443428571426,1.1400261857142857,3.5496132571428567,3.583701714285714,-1.1872372571428573
77,1778255788440,1.2402989,-0.41050428,1.1495095,3.657674333333333,3.374313933333333,-1.2057906333333335
78,1778255788450,1.0188170250000002,-0.483111305,1.1543908,4.080296000000001,2.77827625,-1.1508185125000001
79,1778255788460,0.99136055,-0.50837123,1.155367,4.242416,2.534264,-1.1265172
80,1778255788470,0.9679310766666666,-0.55327781,1.1563432666666666,4.7270224,1.8796591166666667,-1.1457806666666666
81,1778255788480,1.0092682725,-0.60086899375,1.12382265,5.4713978,0.9062071712499999,-1.4098109749999999
82,1778255788490,1.4894115857142858,-0.8116646999999999,0.8028088857142858,5.958861257142857,0.20856356371428572,-2.094690442857143
83,1778255788500,1.7232272375,-0.94154234375,0.5544370625,6.1608904375,-0.151533871625,-2.7431891125
84,1778255788510,1.7764928,-0.99160457,0.47737598,6.2110243,-0.2593919,-2.983273
85,1778255788520,1.8008576666666667,-1.1554890666666666,0.24088448599999998,6.15465415,-0.2528227708333333,-3.4151490333333334
86,1778255788530,1.618953675,-1.314004275,0.023551524625,5.887717,-0.051665325,-4.357997
87,1778255788540,1.4480613714285713,-1.3338774571428573,-0.0007321720714285718,5.6366187142857145,0.2828277178571429,-4.445957342857143
88,1778255788550,1.3532974333333332,-1.3167702333333333,0.017328064,5.421663333333334,0.5821670333333334,-4.492752866666667
89,1778255788560,1.2888663,-1.2988727,0.03441207,5.3684,0.6791061,-4.4544034
90,1778255788570,1.1912434,-1.2815446,0.026358181999999997,5.3212623500000005,0.44501423,-4.2836948
91,1778255788580,1.0276902285714287,-1.2513860714285714,-0.123353504,5.282037771428572,0.15126754857142857,-4.183978514285714
92,1778255788590,0.9999024999999999,-1.20210395,-0.27224587,5.1984906,-0.3089267,-4.0858216
93,1778255788600,1.0248573625,-1.1569533749999998,-0.3632487075,5.071191625,-1.000283325,-4.1006022125
94,1778255788610,1.0391958,-1.1490215,-0.46224441999999993,4.962002,-1.3864417,-4.1225734
95,1778255788620,1.0517037375,-1.1105824375,-0.52203843875,4.962002,-1.3864417,-4.1225734
96,1778255788630,1.0234133333333333,-0.9724053833333334,-0.6921463499999999,4.092035916666666,-2.0717617833333333,-4.592177733333334
97,1778255788640,1.0162543,-0.94938266,-0.71899265,3.9180426999999995,-2.2088258,-4.6860986
98,1778255788650,0.82711,-0.90411003,-0.713135275,3.5694349,-1.975000275,-4.6424227
99,1778255788660,0.3911191857142858,-0.8337344285714287,-0.6524696142857144,2.3775181,-1.1708017285714285,-4.424652142857143
100,1778255788670,0.25402873428571426,-0.8115600857142857,-0.5970337571428572,2.005588614285714,-1.0530139,-4.134900142857143
101,1778255788680,0.13489393,-0.7951385142857142,-0.5950464285714286,1.8464837428571428,-1.2577729857142859,-3.9600444571428572
102,1778255788690,0.02458005228571428,-0.7797977485714286,-0.7195853428571429,1.7643062,-1.8613214428571427,-3.8541267428571433
103,1778255788700,-0.029439406,-0.71691816,-0.905787975,1.606418825,-2.466819675,-3.7860164375000003
104,1778255788710,-0.100237798,-0.72722088,-1.1311007485714286,1.1738453642857143,-2.641932,-3.5594289714285714
105,1778255788720,-0.2632680357142857,-0.7929071428571428,-1.4328949428571427,0.2556634642857143,-2.1081583428571427,-2.958771957142857
106,1778255788730,-0.38713580125,-0.8322352500000001,-1.5940599375,-0.48336375125,-1.2080099,-2.41368945
107,1778255788740,-0.5561367185714285,-0.9285680999999999,-1.6826002714285715,-1.4326285571428572,-0.09906959857142858,-1.7103581571428574
108,1778255788750,-0.67225565,-0.9136283000000001,-1.534876,-1.9563581,0.30874915166666667,-1.3225258333333334
109,1778255788760,-0.7909623888888889,-0.8623356000000001,-1.3313052444444444,-2.4238908888888893,0.6755552,-0.8947038
110,1778255788770,-0.8687741142857143,-0.7343682714285714,-1.1205713428571429,-2.856887142857143,0.7757407857142857,-0.5660358714285715
111,1778255788780,-0.9130995333333333,-0.6923904233333333,-1.0750721,-2.9355137666666664,0.623179705,-0.6177646
112,1778255788790,-1.1216600222222222,-0.57762926,-0.7755325666666667,-3.201119633333333,-0.3082756822222222,-1.1679440444444442
113,1778255788800,-1.7293083333333332,-0.5490474666666666,-0.4188835933333333,-3.0463012333333332,-0.9756047333333333,-1.3541286
114,1778255788810,-2.0567314750000003,-0.534058295,-0.26202597,-2.9373335625,-1.2567458,-1.3857092624999998
115,1778255788820,-2.4889568875,-0.49924957000000003,-0.1044259925,-2.8287430875,-1.5275226875,-1.1685284875000002
116,1778255788830,-2.6107849571428576,-0.50000356,0.022767054285714287,-2.8878558,-1.537937557142857,-1.0632100171428571
117,1778255788840,-2.758614,-0.47849167571428575,0.2817815242857143,-3.025807585714286,-1.4053882285714285,-0.7886000642857143
118,1778255788850,-3.1479202285714285,-0.19754690857142856,1.2327680457142858,-2.9698812,-0.4500742371428571,-0.007000305714285718
119,1778255788860,-3.2037396,-0.15326795,1.3696493,-2.948652,-0.30679615999999993,0.09747169999999998
120,1778255788870,-3.281166575,-0.05314346425,1.9973339875000002,-2.2799988,0.2160489475,0.47823717499999996
121,1778255788880,-3.262661857142857,-0.0027194942857142845,2.2711618285714286,-1.3354612285714285,0.47503185428571426,0.6164837571428572
122,1778255788890,-3.0972492333333332,0.06101430933333333,2.4784827333333332,-0.6689861233333333,0.5423971433333333,0.3856257283333333
123,1778255788900,-2.9400357,-0.020500809,2.3893204,0.82491416125,0.47730504375,-0.426039210625
124,1778255788910,-2.9909217,-0.082003236,2.2746134,1.0578076,0.37923414,-0.6311691999999999
125,1778255788920,-3.342282666666667,-0.34346987599999995,1.8211957833333334,1.5909724333333335,-0.4880686666666667,-1.1279375333333332
126,1778255788930,-3.5653408125,-0.5533387625,1.5488787625,1.7585518500000001,-1.4538862375,-1.2825784374999998
127,1778255788940,-3.591872,-0.9539384000000001,1.5650578,2.0532972,-2.53905785,-0.9552758749999999
128,1778255788950,-3.4959458714285714,-1.1409327428571427,1.6463753285714284,2.5041322857142854,-3.0137854,-0.3872236202857143
129,1778255788960,-3.3739694125,-1.2254114375,1.6964114,2.7579696,-2.9699574,-0.091080114
130,1778255788970,-3.0230324285714287,-1.3893132714285714,1.7119569285714287,3.643813114285714,-2.3367337142857143,0.7810671180000001
131,1778255788980,-2.9001321999999994,-1.4443307,1.6878998,4.0213733,-2.0341225,1.1403656
132,1778255788990,-2.2057894875,-1.727772775,1.0486529624999998,5.069926475,-0.42477413750000004,2.376804775
133,1778255789000,-1.367592157142857,-2.0882584857142854,-0.03748020857142857,5.591725171428571,1.4486075142857142,3.683684457142857
134,1778255789010,-1.1992973,-2.1855328,-0.31141704,5.5718656,1.8439728,3.99847
135,1778255789020,-0.73134807,-2.4636359125,-0.8938291675000001,5.305949024999999,2.1803300875,4.7918256875
136,1778255789030,-0.19451363,-2.7475965,-1.3445114,4.7468185,1.8876485999999997,6.451774
137,1778255789040,-0.19451363,-2.7475965,-1.3445114,4.67304895,1.4816496875,6.764296
138,1778255789050,0.8759563357142855,-2.6083443571428573,-1.4769647428571429,4.376867328571429,0.15887658285714285,7.753223028571428
139,1778255789060,1.0526189,-2.5203790000000006,-1.4926541,4.2770367,0.019174759999999996,7.8217044
140,1778255789070,1.2705349666666668,-2.409143166666667,-1.5091687333333335,4.006577877777778,0.1715075822222222,7.706419044444445
141,1778255789080,1.7040077,-2.2375169,-1.4482356,3.654744666666667,0.261877518,7.6022596333333325
142,1778255789090,1.7040077,-2.2375169,-1.4482356,3.0599719999999997,0.70467246,7.302920300000001
143,1778255789100,1.8092234777777776,-2.157818688888889,-1.184816577777778,2.349381644444444,0.9651887577777778,6.6563049
144,1778255789110,1.8499539000000003,-2.1125596,-1.0374874,2.0527647,1.0263823,6.304235
145,1778255789120,1.8499538999999998,-2.1125596,-1.0374874,2.0527647,1.0263823,6.304235
146,1778255789130,1.61858765,-2.0509959249999996,-0.8535902225,1.96028635,0.43709132500000003,5.6233979375
147,1778255789140,1.4729203428571427,-2.046350157142857,-0.7892462671428572,2.0345790142857143,-0.2895997571428572,5.250384271428572
148,1778255789150,1.2864606571428572,-2.0359256857142856,-0.7126123028571428,2.4918056714285717,-1.5439486714285715,5.240264114285714
149,1778255789160,1.2852055,-2.0227466,-0.73436826,2.740468771428571,-1.858810414285714,5.398303428571429
150,1778255789170,1.4429153199999998,-1.99858486,-0.8039734199999999,2.73400124,-1.6245282799999998,5.55428886
151,1778255789180,1.5797215249999998,-1.95797975,-0.8284218750000001,2.61142935,-1.1509516962500002,5.6806558124999995
152,1778255789190,1.8411678,-1.9104803,-0.9081370999999999,1.9947077,0.314253,5.8898473
153,1778255789200,1.8666893142857144,-1.8815071571428572,-0.8767582871428571,1.5493510571428573,0.9317259428571428,5.942121314285714
154,1778255789210,1.900718,-1.8428763,-0.83491987,0.9555422,1.7550232,6.01182
155,1778255789220,1.900718,-1.8428763,-0.83491987,0.9555422,1.7550232,6.01182
156,1778255789230,1.81245045,-1.8292903333333335,-0.7161860283333333,0.5063557083333333,2.05764705,6.056294783333333
157,1778255789240,1.753612325,-1.813345325,-0.59080156,-0.1324922775,1.9760656,6.09650845
158,1778255789250,1.7632322666666667,-1.7707980333333333,-0.40920263333333334,-0.9752496,1.2186626,6.1697455
159,1778255789260,1.8106257857142858,-1.7518080285714284,-0.38167066285714285,-1.156420657142857,1.1435614428571428,6.244504114285713
160,1778255789270,1.94830895,-1.7556257999999998,-0.427588315,-1.4897723625,1.313138175,6.379069875
161,1778255789280,2.1037328,-1.7701879499999997,-0.4992191133333333,-1.7454358,1.5158713,6.441654
162,1778255789290,2.3268418,-1.7716117,-0.61209553,-2.3643544,2.0170782,6.409696000000001
163,1778255789300,2.3879782,-1.5370726000000001,-0.2079367725,-3.91278285,3.0406641875,6.1630874
164,1778255789310,2.3456342,-1.5202327,-0.105676785,-4.2306976,3.2330775,6.1630874
165,1778255789320,2.29673115,-1.558671625,-0.07108167812499999,-4.9612697,3.5327497875,6.3707475125
166,1778255789330,2.1606388,-1.8267684,-0.19671014,-5.489308,3.7460024,6.5236797
167,1778255789340,2.0575246000000003,-1.6882659999999998,0.30543762999999996,-6.958396333333333,4.041790983333333,6.93478275
168,1778255789350,2.23843215,-1.5070535999999999,1.1741289,-8.085358,3.7257624,7.4083815
169,1778255789360,2.4088451999999996,-1.4814276,1.394055,-8.085358,3.7257624,7.4083815
170,1778255789370,2.878411257142857,-1.3603751428571427,1.6428539142857144,-7.755886571428571,2.518969971428571,7.253537785714286
171,1778255789380,4.691909125,-0.80169754875,2.2670172375,-6.5178204,-0.42983422,4.926848
172,1778255789390,5.05152735,-0.72677195125,2.8647744625,-5.4560181,-1.8539595549999999,3.108841175
173,1778255789400,5.09412545,-0.7203756066666666,3.2671536666666667,-4.933505883333333,-2.3522814000000003,2.3952471833333333
174,1778255789410,4.8545427,-0.71264714,3.6733055,-4.0906153,-2.4703484,1.8572886
175,1778255789420,4.6304984,-0.6948310000000001,3.9847226,-3.2902468333333332,-2.1884084,1.6751284000000002
176,1778255789430,4.6304984,-0.694831,3.9847226,-0.5837649,-0.39787626,1.2953615
177,1778255789440,4.598770766666667,-0.6934479866666666,3.4830221333333333,-0.4506956166666667,-0.31238878999999997,1.1819996166666666
178,1778255789450,4.3753972999999995,-0.6613951625,2.861571175,0.3460778,-0.11544803249999999,0.44261737500000004
179,1778255789460,4.3115153,-0.64040625,2.8159325,0.3898868,-0.19228023,0.3850931
180,1778255789470,4.12119946,-0.4224631034,2.780349,0.427810208,-0.332682098,0.385306148
181,1778255789480,4.0193787,0.013911263,2.762484,0.68869346,0.12942964,0.6625945
182,1778255789490,4.0193787,0.013911263,2.762484,0.68869346,0.12942964,0.6625945
183,1778255789500,4.509202,0.23795582,2.4093332,0.68869346,0.12942964,0.6625945
184,1778255789510,4.6187835,0.25845662,2.1857767,0.660464,2.6029737,-0.75420725
185,1778255789520,4.262285285714285,0.19012059857142857,2.1275516285714287,0.6189186714285714,2.7686984142857147,-1.065568807142857
186,1778255789530,3.8421934,0.07785426,2.1962712,0.76912093,2.9997847,-1.3060142
187,1778255789540,3.7863042,0.022941383,2.1765025,0.9997507,3.1435955,-1.4205302
188,1778255789550,3.8479459714285715,-0.11310310000000001,1.996806657142857,1.1870850714285714,3.288623585714286,-1.7502295428571428
189,1778255789560,3.7213848000000005,-0.307024,1.8397036,1.2506205,3.3422673,-1.9792613999999997
190,1778255789570,3.5061263600000006,-0.46302540400000003,1.8800218000000002,1.62548702,3.1617049,-2.50837822
191,1778255789580,3.394266733333333,-0.6062382066666667,1.9342350333333334,1.9014970666666666,3.0003172666666664,-2.722815933333333
192,1778255789590,3.4712262,-0.68336034,1.9631964999999998,2.2754049000000003,2.822418133333333,-2.8524230999999998
193,1778255789600,3.1402846666666666,-0.7643873,1.8274193333333333,2.8035984000000003,2.7238812666666665,-3.1347182
194,1778255789610,3.179334,-0.8283303,1.7174308,3.2804817999999996,2.573679,-3.50472
195,1778255789620,3.0936697,-0.77195305,1.5692881000000003,3.3442201666666667,2.5562796666666667,-3.6076955999999996
196,1778255789630,2.9317203142857147,-0.7531257942857144,1.3925558000000002,3.5072311285714286,2.431466057142857,-4.261362142857143
197,1778255789640,2.7212384,-0.72582626,1.2388345,3.47728955,2.4333304,-4.4940845
198,1778255789650,2.7212384,-0.72582626,1.2388345,3.4674358,2.4437168,-4.60141
199,1778255789660,2.6516821,-0.7497439,1.2197981,3.4951327000000005,2.495382,-4.8192563
200,1778255789670,2.5884712,-1.153780635,1.14902155,3.6717002499999998,2.58965785,-5.02272165
201,1778255789680,2.6541226,-1.3779472000000001,1.0789771,4.172108,2.6775422,-5.4951669999999995
202,1778255789690,2.700354057142857,-1.5982264,0.9674777285714286,4.9884052571428565,2.2940470285714283,-6.317246714285714
203,1778255789700,2.6943107333333334,-1.9650676,0.6878346999999999,5.4715535,1.8168085333333333,-6.9448142
204,1778255789710,2.6526582,-2.1084106,0.5469323,5.6544237,1.4865766,-7.2810826
205,1778255789720,2.6228831999999995,-2.14150476,0.5042710880000001,5.67945746,1.374830352,-7.3694995599999995
206,1778255789730,2.5037832,-2.2738814,0.33362624,5.7795925,0.92784536,-7.7231674
207,1778255789740,2.1003566,-2.4181192,-0.047103047,5.25537546,-0.21475731800000003,-8.287331599999998
208,1778255789750,1.78552282,-2.30941612,-0.336164454,4.34883554,-0.46040729799999996,-8.169300400000001
209,1778255789760,1.7503786,-2.2631428,-0.39708114,4.0027313,-0.44794372,-8.087488
210,1778255789770,1.7503786,-2.2631428,-0.39708114,3.734741171428571,-0.41347480428571426,-8.025398157142858
211,1778255789780,1.769171,-2.0273836,-0.38048524,2.6635606249999997,-0.1778991625,-7.7588535
212,1778255789790,1.760201875,-2.02433285,-0.3644994975,1.9009643999999999,0.151001235,-7.485347
213,1778255789800,1.7251592999999998,-1.9860564,-0.33574142333333334,1.3145363666666665,0.5463031266666667,-7.139757333333333
214,1778255789810,1.7210917,-1.9714943,-0.345341,1.2138689,0.64341974,-7.052583
215,1778255789820,1.8302341599999998,-1.9630988000000003,-0.46805297599999995,0.9347695999999999,1.0045444,-6.8198233
216,1778255789830,1.9749112,-2.037878,-0.6914142,0.112918034,2.018676,-6.6903934
217,1778255789840,1.8713496,-2.0137976666666666,-0.7050000666666666,-0.30963685533333335,2.4319986666666664,-6.734424266666667
218,1778255789850,1.74671775,-1.97478915,-0.7604824,-0.6127933799999999,2.6509104999999997,-6.73966185
219,1778255789860,1.8292091,-1.9839413,-0.788793,-0.70467246,2.663161,-6.722884
220,1778255789870,1.7378503666666667,-1.9363501333333335,-0.8095378666666666,-0.7593560233333333,2.6940536666666666,-6.648492999999999
221,1778255789880,0.9889199999999999,-1.5961343999999997,-1.1365746,-1.2195503166666668,3.317943666666667,-5.849544533333333
222,1778255789890,0.71728426,-1.1634209,-1.3381659,-1.72434358,4.6114232,-4.55677522
223,1778255789900,0.71728426,-1.1634209,-1.3381659,-1.8066885,4.86453,-4.3148537
224,1778255789910,0.9823304,-1.0618931,-1.5983308999999999,-2.05383,5.0594735,-3.9835565
225,1778255789920,0.967503925,-0.846512575,-1.74653465,-2.4469125,4.6444199,-3.953196425
226,1778255789930,1.121443,-0.6640798,-1.8443406,-2.819755,4.017645,-3.9643817
227,1778255789940,0.48046739166666663,-0.5520981833333333,-1.9363909,-3.1105722166666667,3.560912833333333,-3.9780526500000004
228,1778255789950,-0.5087983575,-0.520330025,-1.319190475,-3.3712957,3.0863375,-3.8783616
229,1778255789960,-0.74242216,-0.5027579,-1.1573195,-3.4402716,2.882073,-3.8115163
230,1778255789970,-1.104212592,-0.486357284,-0.8718701400000001,-3.16000044,2.5704831,-3.58397572
231,1778255789980,-1.5019892750000001,-0.4815249725,-0.6225900249999999,-2.7222833,2.1425131,-3.3308155499999996
232,1778255789990,-1.9953307166666665,-0.5563284866666667,-0.4681017916666666,-1.81059455,1.2594089066666667,-2.7585911666666667
233,1778255790000,-2.8122228,-0.64270034,-0.20954755,-1.003053,0.602407036,-1.6688432800000002
234,1778255790010,-2.9350323999999994,-0.6552937,-0.16571487,-0.7765778,0.4777711,-1.3166668
235,1778255790020,-2.937647242857143,-0.59933485,-0.14856113142857144,-0.3526786314285714,0.6615292171428572,-0.7473590675714286
236,1778255790030,-2.9789628,-0.47273889333333335,0.04311678066666667,0.30324527500000004,0.9468425333333332,-0.08255799733333334
237,1778255790040,-2.9982433,-0.47835222,0.08517598,0.4282363,1.0897655,-0.108124346
238,1778255790050,-3.107406542857143,-0.5525107285714286,0.21128385142857145,1.1140383714285715,0.7211079571428571,-0.47198822428571424
239,1778255790060,-3.2820818,-0.673842,0.33826336,1.9403793,0.0644485,-0.88896316
240,1778255790070,-3.314846475,-0.6873872000000001,0.35418809,2.1114873750000003,-0.08868326,-0.9815080199999999
241,1778255790080,-3.630072642857143,-0.7566820571428572,0.45112237142857137,3.2374908857142857,-1.042513477142857,-1.5056752285714285
242,1778255790090,-3.8856354,-0.8676235,0.46078008,4.0757017,-1.514806,-1.6207999
243,1778255790100,-3.92937052,-0.91135856,0.40537908599999994,4.430008679999999,-1.6324112,-1.4868961459999999
244,1778255790110,-4.1069956,-1.2232149,-0.052472305,5.8472366,-2.102832,-0.9512811300000001
245,1778255790120,-4.1069956,-1.2232149,-0.052472305,5.8472366,-2.102832,-0.95128113
246,1778255790130,-4.02196584,-1.3299167600000001,-0.314150488,6.1412497,-2.1555626,-0.4841627
247,1778255790140,-3.307708,-1.7760046,-1.6176114,4.767591,-2.721218,1.2618058
248,1778255790150,-3.152348,-1.8196560285714285,-1.5526224285714285,4.473273857142858,-2.927574914285714,1.5722543142857144
249,1778255790160,-3.035828,-1.8523946,-1.5038807,4.252536,-3.0823426,1.8050907
250,1778255790170,-3.035828,-1.8523946,-1.5038807,4.0149817,-3.2778187,2.373942
251,1778255790180,-2.7984416666666667,-1.9059244,-1.3170955666666666,4.053153616666666,-3.303562533333334,2.8240161666666665
252,1778255790190,-1.63591575,-2.27205095,-0.63027785,4.342018,-3.1776838,3.5009916000000003
253,1778255790200,-0.9887572333333333,-2.4756353333333334,-0.8230423666666667,4.9687486666666665,-2.3272476666666666,4.952592133333333
254,1778255790210,-0.83077085,-2.5074441,-0.9171671,5.282114,-1.9020296,5.6783924
255,1778255790220,-0.46240713000000006,-2.5334768999999997,-1.1342153,5.282114,-1.9020295999999999,5.6783924
256,1778255790230,0.45622432999999996,-2.4360168333333334,-1.6577994666666669,4.2782796,-0.5221571,6.612274133333333
257,1778255790240,0.82344913,-2.3807786,-1.8653295,3.7763624,0.16777915,7.079215
258,1778255790250,1.4389615000000002,-2.156734,-1.8902234,1.9899141,0.6402239,7.1404676
259,1778255790260,1.4389615000000002,-2.156734,-1.8902234,1.9899141,0.6402239,7.1404676
260,1778255790270,1.5404893,-2.0514232,-1.27410088,0.9914061533333333,0.9141744333333334,6.804376766666667
261,1778255790280,1.7552598,-2.0124962,-1.360131,0.26045716,1.133974,6.4272733
262,1778255790290,1.6986384499999998,-1.9793043000000001,-1.00905468,0.26045716,1.133974,6.4272733
263,1778255790300,1.44823576,-1.9181435400000002,-0.21916339799999998,0.355478748,0.987393612,6.305300440000001
264,1778255790310,1.4196811,-1.9153614,-0.16132185,0.7355651,0.40107206,5.817409
265,1778255790320,1.4196811,-1.9153614,-0.16132185,1.092295525,-0.0905474825,5.49023975
266,1778255790330,1.3052879,-1.9377797285714284,-0.08744222285714286,1.7971011000000001,-1.0279802,4.8762479999999995
267,1778255790340,1.18990105,-2.0194517000000003,-0.146312325,2.29431335,-1.5614113500000002,4.654673000000001
268,1778255790350,1.126019025,-2.0838218,-0.230268015,2.50137425,-1.74983,4.65560515
269,1778255790360,1.067645857142857,-2.1863345142857145,-0.38540125285714283,2.7328599142857146,-1.9059103142857143,4.8923794
270,1778255790370,1.2170322,-2.235401733333333,-0.52976691,2.894501066666667,-1.7140105333333333,5.503156199999999
271,1778255790380,1.2554306,-2.2450826,-0.5615757,2.8921930000000002,-1.6112125,5.6139436
272,1778255790390,1.41831426,-2.1883148,-0.717088984,2.5526932199999997,-0.5953763000000001,6.274407600000001
273,1778255790400,1.57453525,-2.08974015,-0.8413873199999999,2.2192122,-0.044341624999999996,6.530603675
274,1778255790410,1.6937572,-2.0176213,-0.9283937,1.3763217,1.2159994,7.0754867
275,1778255790420,1.7262168500000001,-1.994985,-0.9297360175,0.86938896425,1.7201357750000001,7.23341205
276,1778255790430,1.8235958,-1.9270761,-0.93376297,0.70680296,1.9110844,7.3098445
277,1778255790440,2.009486133333333,-1.8746037666666666,-0.903865995,-0.41216859,2.7335574,7.506474666666667
278,1778255790450,1.987053075,-1.88607445,-0.7338801475,-2.008156625,2.7724838,7.811850875
279,1778255790460,1.9512377,-1.824938125,-0.680492625,-2.1161478,2.7142937,7.861652
280,1778255790470,2.0334849,-1.6821646499999998,-0.5599893749999999,-2.7630297,2.3531692,8.235559499999999
281,1778255790480,2.191939025,-1.620723275,-0.526797575,-2.9912627,2.273807,8.343151
282,1778255790490,2.4249527,-1.5670916,-0.5191097,-3.5590487,2.3249397,8.392154
283,1778255790500,2.8555510666666666,-1.3001743000000001,-0.6072144333333334,-5.608439866666667,3.843829266666667,8.128322333333335
284,1778255790510,2.71172,-1.0987457,-0.55840296,-6.456035,4.688229,8.058725
285,1778255790520,2.7109878000000003,-1.0045396,-0.5437595266666667,-7.1583994,5.1587208,8.077190333333334
286,1778255790530,3.0316792,-0.73290396,-0.58183247,-8.615326,5.868009,8.042214
287,1778255790540,3.4448677999999995,-0.85127175,-0.7067898,-10.774439666666666,5.513631366666666,7.323515666666666
288,1778255790550,4.178469571428571,-1.338444842857143,-0.12861816285714286,-12.767650714285713,4.3658341,6.152435
289,1778255790560,4.5423937,-2.0354373,1.7569683,-13.56081625,2.77980765,4.7192545
290,1778255790570,4.5423937,-2.0354373,1.7569683,-13.61621,2.511361,4.466121
291,1778255790580,4.641481,-2.38688,3.014107,-12.776401142857141,0.9420741942857143,3.4201076857142856
292,1778255790590,4.85014975,-2.38065635,4.011691,-8.16618425,-1.025849685,1.1044128874999999
293,1778255790600,5.1979313,-2.0710697,5.5369267,-7.086139,-1.4226607,0.60933125
294,1778255790610,5.141798,-1.965393,5.4795732,-7.086139,-1.4226607,0.60933125
295,1778255790620,5.063944,-1.7598969,5.2159915,-2.8756814,-2.1832595,-1.7022926
296,1778255790630,4.8320894,-1.6842390999999999,4.7425203,-1.556884,-2.1779332,-2.402704
297,1778255790640,4.2222719,-1.5754708666666666,4.085640383333334,-0.9969099846666666,-1.5804973733333334,-2.4493981333333332
298,1778255790650,3.602285,-1.4509203,3.556402,-0.2451439835,-0.9041431925,-2.5423868499999998
299,1778255790660,3.1427252,-1.2093037,2.8598628,0.34408042,0.46871635000000006,-2.0777984
300,1778255790670,3.05984336,-1.12349314,2.74505832,0.2009088782,1.34777251,-1.33253932
301,1778255790680,3.0045888,-1.0662861,2.668522,-0.0010652645,1.9765981,-0.7355651
302,1778255790690,3.032753,-1.0418803799999998,2.6842392999999998,-0.0010652645,1.9765981,-0.7355651
303,1778255790700,3.1454098,-0.9442575,2.7471085,0.379660252,2.13628136,-0.479369002
304,1778255790710,3.1439455,-0.851820795,2.7833508250000003,0.5123922,2.1049626,-0.48043427
305,1778255790720,3.3042097666666663,-0.7377443733333333,2.7283566833333333,0.8779554666666666,2.3593832666666668,-0.6604639466666667
306,1778255790730,3.389223,-0.75389284,2.6494853,1.41906545,2.6631611499999996,-0.90840425
307,1778255790740,3.4436476,-0.8307708500000001,2.5035393,1.9547602999999998,3.193663,-1.3214606
308,1778255790750,3.4157438333333334,-0.9759035666666667,2.3667043666666667,2.4188604666666667,3.357181,-1.71188
309,1778255790760,3.2697977000000003,-1.1185957333333334,2.2775422333333335,2.9997846666666668,3.3554055333333337,-1.9799715333333332
310,1778255790770,3.2105121,-1.141028675,2.18431235,3.57982125,3.2759545,-2.1584921
311,1778255790780,3.1502910000000006,-1.0958171,1.9793042000000003,4.0021987,3.2075112000000003,-2.2791333
312,1778255790790,3.1876317750000003,-1.04694455,1.845865925,4.223507425,3.145592775,-2.340652275
313,1778255790800,3.12764246,-1.00995766,1.7305123000000002,4.4346958999999995,3.23744532,-2.43625976
314,1778255790810,2.9489436,-0.8139309,1.3144923,4.619519,3.6378782,-2.841593
315,1778255790820,2.939588133333334,-0.7926165666666667,1.2927712333333332,4.619519,3.6378782,-2.841593
316,1778255790830,2.9463636285714285,-0.7539276942857143,1.2174273142857144,4.7330461,3.8114401714285715,-3.2562091714285715
317,1778255790840,3.030947,-0.7941623,1.1704986,4.9763827,3.865312,-3.7795582
318,1778255790850,3.134427,-0.86567104,1.087031,5.2395034,3.8360174,-4.308462
319,1778255790860,3.1685139,-1.1628514,0.9212347666666667,5.5447016,3.7417414,-4.910869
320,1778255790870,3.242870033333334,-1.6872490666666666,0.5190283933333334,6.5700185666666675,3.418078533333333,-6.504682266666666
321,1778255790880,3.2632895,-1.7869871,0.42319524,6.690926,3.3518546000000002,-6.7047744
322,1778255790890,3.210085,-2.2476452,-0.139356685,6.8613682,2.7349776833333332,-7.4018125333333336
323,1778255790900,3.1293631,-2.4608903499999997,-0.47273888,6.936203,2.1113541,-8.08455825
324,1778255790910,3.0197203,-2.5108612,-0.64479923,6.906642000000001,1.2452941,-8.8614025
325,1778255790920,2.8715288599999997,-2.5126182399999997,-0.8172012860000001,6.906642,1.2452941,-8.8614025
326,1778255790930,2.7898185,-2.498719125,-0.90362195,6.427805675,0.91160003,-9.105347875
327,1778255790940,2.4705915,-2.3727245,-1.1631769,5.6155415,0.48789109999999997,-9.336511
328,1778255790950,2.2600921499999997,-2.28230135,-1.333772875,4.653607625,0.17430389000000002,-9.208678749999999
329,1778255790960,2.0970009249999997,-2.1960271,-1.3927127,4.0163132,-0.008122642499999999,-9.06007425
330,1778255790970,1.8201790666666666,-2.0025709666666667,-1.3751812666666667,2.769155,-0.38189731499999996,-8.607603
331,1778255790980,1.8211553,-1.9900427,-1.3633038,2.3481091750000003,-0.5681854399999999,-8.396281
332,1778255790990,1.7149903,-1.9036466,-1.274955,1.9765981,-0.70680296,-8.165785
333,1778255791000,1.7022992,-1.7403722000000001,-1.3054622,0.9667274999999999,-0.5928197,-7.683220000000001
334,1778255791010,1.6484113999999999,-1.71445334,-1.29096518,0.69764172,-0.49694588,-7.61323216
335,1778255791020,1.53487596,-1.6899988799999999,-1.2401525,0.22509039199999997,-0.3669836,-7.50904912
336,1778255791030,0.9681750499999999,-1.8109047,-0.9989263000000002,-0.114942034,-0.566933736,-7.2982332
337,1778255791040,0.96817505,-1.8109047,-0.9989263,-0.18162759000000003,-0.62104917,-7.2491245
338,1778255791050,0.9681750499999999,-1.8109047,-0.9989263000000002,-0.143491122,-0.830267102,-6.75974214
339,1778255791060,0.32117933,-1.8440965,-0.9654905,-0.08628642000000002,-1.144094,-6.0256686
340,1778255791070,0.17539580666666665,-1.6677245666666665,-1.5496009,-0.3529576266666667,-0.6512316666666667,-4.668876666666667
341,1778255791080,-0.099087246,-1.398448,-2.4464297,-2.0590801471428573,0.8767126714285716,-2.4564998714285715
342,1778255791090,-0.29494318750000004,-1.42450105,-2.310611975,-3.875165675,1.9146797,-1.4771222499999999
343,1778255791100,-0.5111168925,-1.50083005,-1.939278825,-5.005677525,2.4451814,-1.0061422850000001
344,1778255791110,-0.7361812457142857,-1.6215860857142856,-1.511899742857143,-5.427522000000001,2.6620958,-0.74248934
345,1778255791120,-1.202226,-1.58734825,-0.990994425,-5.438707675,1.852494925,-0.49068745
346,1778255791130,-1.54116045,-1.4833189249999998,-0.7025187725,-5.3971624,1.5611451,-0.4857606
347,1778255791140,-1.8787526333333335,-1.3699747666666664,-0.37999714333333334,-5.1731019,0.8232719,-0.40169346666666667
348,1778255791150,-2.3943236,-1.2172355000000001,0.07846439500000002,-4.689827,0.1272991,-0.0793622
349,1778255791160,-2.7146487,-1.1473131,0.30848834,-4.689827,0.1272991,-0.0793622
350,1778255791170,-2.84009425,-1.06933685,0.48152493999999996,-3.9357083999999998,0.7153250833333334,0.6854976833333334
351,1778255791180,-2.8979359,-1.0806855,0.469078,-3.6719666,0.9550096,0.9571400999999999
352,1778255791190,-2.8979359,-1.0806855,0.469078,-3.6719666,0.9550096,0.9571400999999999
353,1778255791200,-2.90252408,-0.8933959399999999,0.662420196,-3.5276232,1.0002834,1.1824435
354,1778255791210,-2.7986043499999997,-0.6889736,0.9191196,-3.0972564,0.68389976,1.1510183
355,1778255791220,-2.6270321666666665,-0.5274077066666667,1.3890111333333335,-2.6082999499999997,0.577905955,0.70014509
356,1778255791230,-2.5809054,-0.44662476,1.6239569,-1.3459617,0.16458336,-0.24554345
357,1778255791240,-2.61341376,-0.424659612,1.66656932,-1.0229735,0.014807180000000008,-0.43494747
358,1778255791250,-2.5604451666666663,-0.4018809466666666,1.5587122666666666,-0.3310309433333333,-0.3307646083333333,-0.8963312666666666
359,1778255791260,-2.387002025,-0.5746938125000001,1.3648902,0.89655318,-1.15128455,-2.10123415
360,1778255791270,-2.49072635,-0.644921275,1.32901375,1.67086725,-1.8801917,-3.3081788000000003
361,1778255791280,-2.647289,-0.6570021,1.3486603,1.8743328000000001,-1.9611518,-3.5595813
362,1778255791290,-2.8909557599999998,-1.03729212,1.2623128600000002,2.8069718999999997,-1.96871532,-3.8087465600000003
363,1778255791300,-3.125397,-1.3335288,1.1265682,3.4908717,-1.8514296,-3.6240296
364,1778255791310,-3.244497,-1.5565971,0.8639627,3.8951395,-1.7204021,-3.0391996
365,1778255791320,-2.977986525,-1.7458635,0.47517948499999996,4.134291225,-1.175253025,-2.159291075
366,1778255791330,-2.8891497,-1.8089523,0.34558508,4.2392197,-0.8410263,-1.6122777
367,1778255791340,-2.755243633333334,-1.9029956333333333,0.16953843999999998,4.225904,-0.59441757,-1.19149825
368,1778255791350,-2.6882906,-1.9500173,0.08151512,4.2125883,-0.34780884,-0.7707188
369,1778255791360,-1.6705717666666668,-2.2111586666666665,-0.21355008333333333,4.453870899999999,-0.13173770266666665,1.4450312666666667
370,1778255791370,-1.3734495285714285,-2.241038214285714,-0.24161665714285713,4.731067885714286,-0.19897618371428574,2.130833285714286
371,1778255791380,-1.1448725,-2.2616785,-0.260165,4.9785132,-0.37124467,2.9593046
372,1778255791390,-0.8765722733333333,-2.2784371,-0.30930186666666665,5.7289925,-0.13262543,4.394216
373,1778255791400,0.20329969,-2.3212285,-0.852492,6.156696,1.1004182,5.5431037
374,1778255791410,0.20329969,-2.3212285,-0.852492,6.156696,1.1004182,5.5431037
375,1778255791420,0.6028214266666667,-2.2605396,-1.0305724333333333,5.4680911666666665,2.3532579166666667,5.87013985
376,1778255791430,1.2174795999999999,-2.1777227999999997,-1.3761168,4.22936615,3.9121836500000002,6.45497
377,1778255791440,1.0827599,-2.25423465,-1.2892324,4.027765,3.7934067,6.624347
378,1778255791450,1.0934112714285715,-2.3171840285714285,-1.1384922,3.8589965142857143,2.6378991285714286,7.109955285714285
379,1778255791460,1.0413923,-2.3505154,-1.0391958,3.9951410750000003,0.82890895,7.58002225
380,1778255791470,1.0025871800000001,-2.46165908,-0.902426048,4.151015800000001,0.025459836000000034,7.824260799999999
381,1778255791480,0.9342511,-2.6680338,-0.73412424,4.325506,-0.74089146,8.088553
382,1778255791490,0.962805825,-2.711293025,-0.66749659,4.538026525,-0.897085815,8.14088425
383,1778255791500,1.0208915,-2.8037298,-0.60892284,4.8394966,-0.78296936,8.145545
384,1778255791510,1.13198624,-2.96119546,-0.84892875,4.90458408,-0.718414336,8.122642
385,1778255791520,1.2982217666666667,-3.1008287333333335,-0.9868861999999999,4.865772933333333,-0.9219863933333334,8.16472
386,1778255791530,1.5473229,-3.2723196,-1.1673259,4.802212,-1.1872373,8.248876
387,1778255791540,1.7332945,-3.3826334000000005,-1.3415827,4.5801044,-1.2703278,8.362859
388,1778255791550,1.9173137333333334,-3.3335779333333337,-1.4797190666666669,4.467008933333333,-1.1103606166666666,8.510398
389,1778255791560,2.2037672,-3.190490657142857,-1.5759473142857143,4.240818,-0.79042625,8.805476
390,1778255791570,2.4268443,-3.07469425,-1.5977207249999998,1.2708606,1.5052186,9.441439
391,1778255791580,2.6119008,-2.9635873,-1.5936939,1.2708606,1.5052186,9.441439
392,1778255791590,2.7330228,-2.880537957142857,-1.4480961857142858,1.2708606,1.5052186000000003,9.441439
393,1778255791600,2.6655934,-2.7068388,-0.48054874,-1.4098775,3.2304144,8.656339
394,1778255791610,2.6014063333333333,-2.6772265999999996,-0.42238175,-1.4105876833333333,3.1969473333333336,8.634323499999999
395,1778255791620,2.4868387142857142,-2.5892731714285717,-0.3077213128571428,-1.3757891142857144,2.8506477142857145,8.416198
396,1778255791630,2.4971936,-2.5677264,-0.30897647,-1.347027,2.7164245,8.335162
397,1778255791640,2.5579639999999997,-2.5155957,-0.40064436800000003,-1.3845242,2.43988178,8.0965428
398,1778255791650,2.6227856199999997,-2.39732548,-0.49167773200000003,-1.8463163200000001,1.645514,7.256475
399,1778255791660,2.647533,-2.2804708,-0.49690056,-2.0282636,1.3928332,6.998255
400,1778255791670,2.647533,-2.2804708,-0.49690056,-2.141075,1.20044644,6.862433780000001
401,1778255791680,2.5264807,-2.5989656,-0.19719826,-2.2663499999999996,0.9290881133333334,6.7377979
402,1778255791690,2.5062727600000003,-2.63352416,-0.09337630643999999,-2.0720458,0.9250756360000001,6.98398048
403,1778255791700,2.7844491875000004,-2.6467093,-0.140576975825,-1.1422297874999998,1.2966931875,8.082827375
404,1778255791710,2.9806712,-2.5765123,-0.22184804,-1.015197,1.3821807,8.236625
405,1778255791720,3.062999833333334,-2.5437679833333333,-0.308773095,-1.0436040666666668,1.6257711,8.447547
406,1778255791730,3.9498224,-2.0657005,-1.2068632,-1.3807159125000001,1.9939086124999998,8.628242375
407,1778255791740,4.570663533333334,-1.6320921666666666,-1.4156947666666666,-2.9885993833333333,2.4217011833333335,8.341375666666666
408,1778255791750,5.15762125,-1.2555118,-1.4754887833333334,-4.5673213,2.59818,7.841944000000001
409,1778255791760,5.2016529375000005,-1.2315739125,-1.2311163125,-4.5673213,2.59818,7.841944
410,1778255791770,5.312289714285714,-1.3862799714285714,-0.6181969857142857,-6.835726028571429,1.9846637571428574,6.4932431428571435
411,1778255791780,5.382683,-1.445795,-0.3414361,-7.9202414,1.7140105,5.820072000000001
412,1778255791790,4.971446,-1.4211453000000003,0.33411437,-8.442754,1.8397117,5.071723999999999
413,1778255791800,4.485161833333334,-1.4595843833333333,1.285124145,-8.394373166666666,1.1432951166666667,4.364210666666667
414,1778255791810,4.387905,-1.4672722,1.4753261,-8.384697,1.0040118,4.222708
415,1778255791820,6.785244400000001,-2.0227813142857145,1.1669771571428573,-8.269648028571428,-2.7542412428571432,6.1801318428571435
416,1778255791830,7.997023600000001,-2.054718,0.8778739,-8.563661,-3.075951,6.875217
417,1778255791840,7.9970236,-2.2187592142857144,0.9765428285714286,-9.157774214285714,-0.5817104357142856,5.4853510142857145
418,1778255791850,7.271929433333334,-2.521111316666667,4.691797333333333,-9.347695,5.371596,0.6327671
419,1778255791860,5.6427255,-2.6621358333333336,6.938344166666667,-6.413957,6.3862605,-1.4705976000000003
420,1778255791870,4.7091759,-3.1093809375,7.1720187625,0.5313007,6.19125075,-3.1478564625
421,1778255791880,4.3420224,-3.3182025,6.725241700000001,3.8685078999999996,5.925534,-3.7832868000000004
422,1778255791890,4.1382346,-3.7477431,4.862108,9.012137,4.4453487,-4.618454
423,1778255791900,4.220481524999999,-3.9725808875,0.36144877500000006,11.340805,1.9361181,-6.447513
424,1778255791910,2.804392057142857,-2.8666267142857143,-1.4400424142857144,9.628316628571428,0.59708076,-6.862966028571428
425,1778255791920,2.3854154666666667,-2.449806,-1.7397214833333334,6.6213288666666665,-0.22832168,-6.203567666666667
426,1778255791930,2.1352568,-1.837019,-1.7193834,5.9867864,-0.18002969,-5.9276643
427,1778255791940,1.943916,-1.2483528,-1.5585496000000003,3.3423433571428567,1.8515818157142856,-4.449077014285714
428,1778255791950,2.1145120333333334,-0.6919023000000001,-0.55108124,0.93157375,4.748949,-2.8032434
429,1778255791960,2.300902014285714,-0.6644284142857142,-0.3785676391428572,0.5737970785714285,5.727927,-2.3712025714285714
430,1778255791970,2.72265378,-0.58861726,0.0898130658,-0.489382496,8.662624,-1.18862206
431,1778255791980,2.9221889125,-0.572924425,0.1654708125,-0.7658585775,9.43125225,-1.0506170625
432,1778255791990,3.1432133000000007,-0.5379022,0.30555966,-0.92944324,9.695504,-1.1606057
433,1778255792000,2.7877031,-0.55474211,0.6954818333333334,-0.8578042233333334,9.233179166666666,-1.3642487166666666
434,1778255792010,2.5760243,-0.5405257975,1.17043755,-0.48090031375000003,8.524646087499999,-1.6604144
435,1778255792020,2.425563,-0.6297897499999999,1.3503687500000001,0.9265137449999999,6.86802635,-2.0999026
436,1778255792030,2.2751017,-0.6723776999999999,1.3759948,1.8002969,5.965481,-2.2993734
437,1778255792040,2.2711357625,-0.7156978875,1.3059808625,2.478204575,5.346296,-2.486327325
438,1778255792050,2.2428862,-0.9265633000000001,0.8164935,3.6019255,4.191283,-3.0336069
439,1778255792060,2.2664202571428573,-1.1109136714285714,0.3987198057142857,3.8390609857142857,3.8398218857142856,-3.2770578571428572
440,1778255792070,2.3463314857142854,-1.3187110571428573,-0.04229164,3.866681857142857,3.2651877,-4.0104925
441,1778255792080,2.4048994333333336,-1.43168055,-0.21184169666666666,3.807788,3.2256207,-4.1049967
442,1778255792090,2.4327626,-1.5697762999999998,-0.35461518,3.807788,3.2256207,-4.1049967
443,1778255792100,2.4244647,-1.7076684999999998,-0.41343296,3.40165565,3.2381375,-4.4333643
444,1778255792110,2.364217442857143,-1.8603437857142857,-0.3866564,3.2472304142857142,3.330549285714286,-4.539928771428571
445,1778255792120,2.2656139875,-1.9758568749999998,-0.29988534375,3.338605425,3.436143625,-4.500143062499999
446,1778255792130,2.250696,-1.9907749,-0.28579104,3.4274883,3.456783,-4.459197
447,1778255792140,2.2981476,-2.017481828571429,-0.31180058285714285,3.5932892,3.436086528571429,-4.464903728571429
448,1778255792150,2.455948,-2.042027,-0.42685616,4.019243,3.358246,-4.6189866
449,1778255792160,2.455948,-2.042027,-0.42685616,4.105174233333334,3.2030725666666666,-4.8240500666666675
450,1778255792170,2.4753913333333335,-2.0868114,-0.596394575,4.302958083333333,2.7940111833333336,-5.313539166666667
451,1778255792180,2.4355169285714284,-2.104017428571429,-0.6469260228571428,4.432565,2.3004386,-5.71035
452,1778255792190,2.3890765,-2.1303756,-0.66700846,4.7225834833333336,1.1795140433333333,-6.4435185
453,1778255792200,2.157222,-2.2131112,-0.6355251,4.9145975,0.43995422,-6.899718
454,1778255792210,2.0909082,-2.220711771428572,-0.6082604142857143,5.1268895,-0.039643060000000015,-7.133010857142857
455,1778255792220,1.87143105,-2.2692442,-0.5895203,5.531385750000001,-1.0626013,-7.5564535
456,1778255792230,1.8177384,-2.2987752,-0.6389419,5.684023000000001,-1.5183822857142855,-7.713656142857142
457,1778255792240,1.8154721571428571,-2.2428513142857143,-1.071376442857143,5.735612071428571,-2.4675328285714286,-8.318802
458,1778255792250,1.8793872400000002,-2.22223902,-1.59847728,5.124454699999999,-3.62349708,-9.112697999999998
459,1778255792260,1.8897352,-2.2148197,-1.7166986,5.016863,-3.7406762,-9.199091
460,1778255792270,1.4577538666666667,-2.2452045833333334,-1.87082085,3.50969125,-4.965197633333333,-9.730303666666666
461,1778255792280,1.4374971,-2.2541127,-1.8726513,3.3507893,-5.1090083,-9.769541
462,1778255792290,1.17013245,-2.2310493,-1.77197765,2.842258775,-5.699431325,-9.69284075
463,1778255792300,-0.03827630999999998,-1.8246125666666666,-1.0013669166666668,1.5249260166666667,-6.70228875,-8.328149
464,1778255792310,-0.5704315142857144,-1.6451549857142855,-0.7637597457142856,1.1453114142857144,-6.681338585714286,-7.768745714285714
465,1778255792320,-1.5056807,-1.4914032750000001,-0.53933601625,0.259258735,-5.43338135,-6.1869227250000005
466,1778255792330,-1.8374256000000002,-1.438148,-0.47347106666666666,-0.7166566600000001,-4.0637175,-4.5856971500000006
467,1778255792340,-2.0516498000000003,-1.4054908285714285,-0.3771033142857143,-2.070493614285714,-2.1642368714285714,-2.3172545714285713
468,1778255792350,-2.120334457142857,-1.3913703714285715,-0.2781903985714286,-2.634703357142857,-1.408355682857143,-1.4696084257142858
469,1778255792360,-2.1132103333333334,-1.3598056333333333,0.021070279999999997,-3.5353464,-0.44554685999999993,-0.503337465
470,1778255792370,-2.0732663571428573,-1.314422585714286,0.6877882028571428,-4.6887615,0.3487980371428571,-0.04040396071428571
471,1778255792380,-2.157710014285714,-1.2959439285714287,1.2102799,-5.681435899999999,0.8976375142857143,0.09450417371428572
472,1778255792390,-2.27266115,-1.26775535,2.0387322,-5.8451061499999994,0.7422229850000001,-0.16005598699999998
473,1778255792400,-2.4557955,-1.2182117625,3.1917805625,-5.210741,0.3358246125,-0.429967365
474,1778255792410,-2.5295557200000003,-1.05042236,4.05315618,-3.5151595999999996,-0.34599789599999997,-0.77189064
475,1778255792420,-2.5346565,-1.0177187,4.2204819,-1.81521065,-0.94249275,-1.1369035299999999
476,1778255792430,-2.5388054375,-1.01796277,4.2836927875,-0.8339689375,-1.249422075,-1.393499125
477,1778255792440,-2.52172145,-0.99465528,4.1749654000000005,0.7327243833333333,-1.6941255333333334,-1.8706044000000002
478,1778255792450,-2.5517928000000003,-1.0349072714285714,3.805619642857143,1.3445919857142858,-1.7438379000000002,-2.0561125714285713
479,1778255792460,-2.6282175999999997,-1.1058233285714285,3.2465191285714288,2.5121217714285717,-1.3428419585714286,-2.223891714285714
480,1778255792470,-2.6553428,-1.13925915,2.583712,3.2365397,-0.55180698,-2.0833909
481,1778255792480,-2.651438,-1.1446284,2.2904773,3.2874062,-0.22796659,-1.9611518
482,1778255792490,-2.666515377777778,-1.2114458666666668,1.6472508111111113,3.1194495,0.6116393666666666,-1.4226606666666666
483,1778255792500,-2.6525769333333336,-1.2559998666666667,1.2580337333333336,2.8478069666666666,1.2078323666666666,-0.7483482666666665
484,1778255792510,-2.496775257142857,-1.3357950285714286,0.8760260628571429,2.7694593428571426,1.3563099285714286,-0.23207545714285713
485,1778255792520,-2.275589857142857,-1.4180075,0.6599308085714286,2.8552892714285716,1.3836263142857141,0.9718255714285713
486,1778255792530,-2.141399133333333,-1.46393675,0.5755683416666667,2.9390647,1.3427657999999998,1.2373047
487,1778255792540,-1.6990994222222222,-1.5804604444444443,0.30604779111111113,3.3232107888888884,1.1906105555555557,2.108335888888889
488,1778255792550,-1.3991802,-1.637136,0.11202227999999999,3.57795705,1.16806245,2.7475834
489,1778255792560,-1.28215475,-1.6502337333333335,0.051618108333333336,3.684039666666667,1.3305153,3.256335883333333
490,1778255792570,-0.5312821125,-1.7377791125,-0.32261318125,3.6199017875,2.267681675,4.4245092
491,1778255792580,-0.214933063,-1.7835297333333333,-0.46761368833333333,3.4967306,2.6578348,4.6552057
492,1778255792590,0.13384797514285715,-1.8386575285714284,-0.7000607842857143,3.082342742857143,3.3700401714285713,5.119052242857143
493,1778255792600,0.24503349,-1.846293,-0.7819594,2.5992453,3.959588,5.651228
494,1778255792610,0.24503349,-1.846293,-0.7819594,2.514467983333333,3.9590553833333337,5.741953
495,1778255792620,0.5616455142857142,-1.7522264142857142,-0.7980323571428573,1.9860333285714287,3.8061898857142857,6.258124314285714
496,1778255792630,0.6277153,-1.7659982,-0.81319875,1.8466359,3.60592,6.3415194
497,1778255792640,0.8285743666666666,-1.7842211666666667,-0.7109387833333333,1.6541781666666668,3.308711333333333,6.290386466666667
498,1778255792650,1.0611609,-1.8160299,-0.5779276,1.5579493,3.160107,6.26482
499,1778255792660,1.0611609,-1.8160299,-0.5779276,1.4858156999999999,3.0751901428571427,6.1214658857142865
500,1778255792670,1.0791804166666668,-2.0335256333333334,-0.5246417433333334,1.4010003333333332,2.9362238333333335,5.932102533333333
501,1778255792680,1.0950848,-2.267536,-0.51471674,1.33957,2.7856665,5.768407
502,1778255792690,0.9897009320000001,-2.34539024,-0.454044106,1.2420983,2.4517062,5.3763895
503,1778255792700,0.38717939142857144,-2.7093144,-0.09305553857142856,1.6353330857142858,1.4985227714285716,4.626215171428571
504,1778255792710,-0.22296372857142857,-2.8639769142857143,0.14904923857142857,2.7665678285714286,0.29424126285714286,4.218218914285714
505,1778255792720,-0.8262557999999999,-3.19983455,-0.24503348000000003,4.7851679,-1.08497186,5.0136671999999995
506,1778255792730,-1.1929518,-3.4722024999999994,-0.70239675,6.0949106,-1.9531624,5.739112400000001
507,1778255792740,-1.0136002687499999,-3.7019520125,-1.99660173125,6.3526379375,-2.1254689375,7.6624472
508,1778255792750,-0.3464915671428571,-3.7675816714285717,-2.8717868571428573,5.888933928571428,-1.7836331857142855,8.442068714285714
509,1778255792760,0.05922454733333334,-3.7584817333333334,-3.109940266666667,5.0637345,-1.2665994,9.224658
510,1778255792770,0.7391883625,-3.76086115,-2.93405615,1.2876383800000002,-0.45300372499999997,10.3234775
511,1778255792780,1.6857034000000002,-3.8573248,-2.0305562,-0.27545964166666664,-0.3570411416666666,10.452552
512,1778255792790,2.2218971,-3.977889,-1.1946602,-0.61678815,-0.4857606,10.349577
513,1778255792800,2.485235,-3.9832585,-0.5008055,-0.3568636,-0.56245965,10.110957
514,1778255792810,2.7785919,-3.6685057666666663,-0.23909474666666666,0.34585584999999996,-0.71630158,9.988985
515,1778255792820,3.1893749285714286,-3.360598442857143,-0.6105266285714286,1.3244280428571429,-0.6241688614285714,9.82546642857143
516,1778255792830,3.407283,-3.3030708,-0.9025237,1.1920309,-0.52144694,9.66834
517,1778255792840,3.5115768333333333,-3.2954236666666668,-0.9846083,0.7010327753333333,-0.36343271000000005,9.327100166666666
518,1778255792850,3.7825620000000004,-3.3590683777777777,-1.0631133666666668,-0.30815731555555553,-0.3426008788888889,8.649059555555556
519,1778255792860,3.7997680833333334,-3.0359503333333335,-0.28611644166666667,-0.4218447,-0.3273025,8.617723
520,1778255792870,3.8880760714285714,-2.899992942857143,-0.16508729285714288,-0.1171790857142857,0.054708942857142846,8.819629
521,1778255792880,4.067458,-2.7446677999999998,-0.1598575,0.1438107,0.5949502000000001,8.945559
522,1778255792890,4.090887666666666,-2.5652044000000003,-0.2566668733333333,0.19796165000000002,1.3907915333333334,9.095139
523,1778255792900,4.097721328571429,-2.4181888428571425,-0.40293852714285716,-0.09001484428571428,2.1489428,9.205254285714286
524,1778255792910,4.237932125,-2.6303879875,-0.51496081625,-1.4672020250000002,3.1486553749999997,9.239238125
525,1778255792920,4.3677704,-2.7059847500000003,-0.19902868615,-2.8005802,2.9084383000000003,8.9133335
526,1778255792930,4.4262223,-2.7373462,0.0046370877,-3.07169,2.5177526,8.730907
527,1778255792940,4.680285814285715,-2.751501342857143,0.5126248196714286,-1.9482926285714284,-0.4012242428571429,6.977862428571429
528,1778255792950,4.9306884,-2.4349592,1.1931958,-1.0865698,-1.7283915,6.198774
529,1778255792960,5.038724433333333,-2.2527298,0.9796457333333333,-0.3117674266666666,-2.2541587,5.476998
530,1778255792970,5.331105099999999,-1.7610357333333333,0.18109047486666666,0.65220815,-2.74492015,4.1915492500000004
531,1778255792980,5.3692594,-1.6974181,-0.0046370877,0.64768076,-2.5784726,3.8083205
532,1778255792990,5.13231025,-1.683842475,-0.45001104750000004,-0.007989483,-1.8924423,3.2810144
533,1778255793000,4.469664,-1.9099920000000001,-0.40537909999999994,-1.6392136975714284,-1.079341157142857,3.7658620571428574
534,1778255793010,4.899774233333333,-1.5310524466666664,0.05344851666666672,-1.1779161666666667,-1.5533331333333333,4.3707801
535,1778255793020,7.405337225,0.65541575,2.1454157375,5.1606735,-5.7601514,6.9204905
536,1778255793030,7.997023600000001,1.1416998,1.8084643,7.833422,-6.9194255,6.849650399999999
537,1778255793040,7.997023600000001,1.1416998,1.8084643,6.7654945,-7.6517945,3.601037733333333
538,1778255793050,7.922342085714286,-0.7545203955714285,-3.208097642857143,-0.9117902485714285,1.6797699285714285,-5.935120785714285
539,1778255793060,6.250916149999999,-1.3667206250000001,-2.17174335,-3.2826123,4.7276435,-6.9801455
540,1778255793070,4.322707142857143,-2.2604931142857145,-0.7264886585714285,-3.9293799714285713,6.482514671428571,-6.885260799999999
541,1778255793080,3.3828776,-2.647777,-0.17938207,-4.8235173,9.388176,-6.499711
542,1778255793090,1.6675734285714285,-2.7425409714285713,1.6945243142857145,-3.3065808,10.143447999999998,-4.722316999999999
543,1778255793100,1.4445748,-2.6755996000000004,2.2282426,0.47541231428571423,9.540812285714285,-2.0017840571428573
544,1778255793110,1.961592742857143,-2.5715266,1.8622613285714287,1.3765499428571428,9.0127455,-1.4957074000000001
545,1778255793120,3.1701642857142858,-2.1668099714285716,1.0266093285714286,3.4193466285714287,5.1278026714285705,-1.7719152142857144
546,1778255793130,3.559575,-1.9673455,0.7658516000000001,3.976632,3.3688989,-2.5614283
547,1778255793140,3.851258057142857,-1.6151709,0.6310274428571427,4.1433463,2.301504,-3.8791604
548,1778255793150,3.8894588999999997,-1.4497814333333334,0.5564505333333333,4.1779671,2.1278658333333333,-5.143451833333334
549,1778255793160,3.7756266625,-1.4249282625,0.492934635,4.16391905,2.2760706875,-5.758553425000001
550,1778255793170,3.34944175,-1.5046129,0.26834094999999997,4.143701366666666,2.8582820666666664,-6.488525766666666
551,1778255793180,3.1517553,-1.5612342,0.17401282,4.1417484,2.9960563,-6.608368
552,1778255793190,3.05486465,-1.598697,0.067115744,3.8877492,3.610780375,-6.984939125
553,1778255793200,2.6653492,-1.7608731000000002,-0.14643435,3.6341497,3.7307336,-7.064212516666667
554,1778255793210,2.388344,-1.8060236,-0.09176553,3.5196338000000003,3.2325449999999996,-6.903218085714286
555,1778255793220,2.2159482500000003,-1.8371714375000001,0.15277984375,3.7047234500000004,2.4602283500000004,-6.8014472999999995
556,1778255793230,2.226046,-1.8780205,0.2421048,3.8237667,2.1715417,-6.834204
557,1778255793240,2.3197642857142857,-2.0064643,0.22767054,4.119149528571429,1.442444242857143,-7.0825628571428565
558,1778255793250,2.445209628571429,-2.2065216857142858,0.12652625,4.3500834,0.67903,-7.484167714285715
559,1778255793260,2.3912031142857146,-2.578360228571429,-0.08102700399428572,4.498536,-0.46004206000000003,-8.17727457142857
560,1778255793270,2.2147890125,-2.7829542875,-0.20397083875,4.4763080375,-1.9682757875,-9.001950625
561,1778255793280,2.1215897,-2.8313080999999998,-0.22990192,4.3910203,-2.6221485,-9.303487
562,1778255793290,2.05496205,-2.8477820500000006,-0.24210479,4.288311083333333,-3.0560661833333334,-9.473041666666667
563,1778255793300,1.87191915,-2.82026445,-0.27236788749999996,3.912583125,-4.350872875,-9.876266125
564,1778255793310,1.7808857333333332,-2.6961004,-0.3653537,3.5973091333333334,-5.168219116666666,-10.066926166666667
565,1778255793320,1.7945528166666664,-2.6324829666666667,-0.4608614383333333,3.2472811333333333,-5.679812533333333,-10.204345666666667
566,1778255793330,1.8287209,-2.5828578,-0.56987363,2.8708878,-6.0384517,-10.327739
567,1778255793340,1.8539401,-2.603033266666667,-0.65252771,2.389388266666667,-6.310449233333333,-10.428229
568,1778255793350,1.6917002714285714,-2.6512985,-0.7261051428571428,1.1723996428571428,-6.677382285714286,-10.306128999999999
569,1778255793360,1.5364624999999998,-2.6209307500000003,-0.6522429750000001,0.47124635,-6.75058115,-10.024004999999999
570,1778255793370,1.4511645,-2.575292,-0.56548065,-0.4607269,-6.693056600000001,-9.384447
571,1778255793380,1.4416462333333333,-2.5178572333333338,-0.5187843666666666,-0.4607269,-6.693056600000001,-9.384447
572,1778255793390,1.4226097,-2.4029877,-0.4253918,-0.566987025,-6.62008595,-9.2550175
573,1778255793400,1.3670622399999999,-2.01176392,-0.4364719839999999,-1.69217258,-4.21642328,-7.11298398
574,1778255793410,1.3514669499999998,-1.7586764750000001,-0.59989271,-1.879525975,-3.766775075,-6.905177475
575,1778255793420,1.246705375,-1.6655991375,-0.88583627125,-2.43386295,-3.0718233374999997,-6.5873289999999995
576,1778255793430,1.1963686,-1.6510473,-0.9598771300000001,-2.6056368,-2.9395974,-6.511429
577,1778255793440,1.11729405,-1.6623960000000002,-1.0193051149999999,-3.178882375,-3.11110475,-6.29005365
578,1778255793450,0.78806084,-1.7679508,-0.99868226,-4.112986,-3.7332194000000003,-5.6576195
579,1778255793460,0.78806084,-1.7679508,-0.99868226,-4.150879000000001,-3.604094114285714,-5.456056285714285
580,1778255793470,0.22047522062500002,-1.678198625,-0.67945540625,-4.3627907,-2.3582292,-3.7883468000000002
581,1778255793480,-0.0009762349999999989,-1.50876195,-0.601967225,-4.3550675,-1.3946975000000001,-2.8751488
582,1778255793490,-0.1681554475,-1.3631004333333332,-0.56324345,-4.442863,-0.59921126,-2.2000375500000002
583,1778255793500,-0.41343296,-1.1241276,-0.5191097,-5.070925225,1.1987554375,-0.9851698750000001
584,1778255793510,-0.6343048,-1.0794652,-0.485918,-5.4504256,1.6698021,-0.7957525
585,1778255793520,-0.8412653428571428,-1.1590976285714285,-0.3200985257142857,-6.089888728571429,2.043101157142857,-0.7342715428571428
586,1778255793530,-1.1187584,-1.2837411,-0.04344219,-7.2901373,2.6466496,-0.6641924
587,1778255793540,-1.7193833833333334,-1.6494202,0.8442753499999999,-7.986109549999999,4.604516933333334,-0.6810590666666667
588,1778255793550,-2.0036185125,-1.6562029125000002,1.0813262125,-7.712048625,6.418085325,-0.55054199375
589,1778255793560,-2.7967741499999996,-1.76978115,1.1792846000000001,-7.3852123,7.295464,-0.450074235
590,1778255793570,-3.3001422999999996,-1.9070634,1.1839217,-7.255959916666666,7.286231666666666,-0.372665015
591,1778255793580,-3.3552643714285715,-1.9081442142857143,1.223877342857143,-6.504352385714285,5.756993571428572,-0.02297927285714286
592,1778255793590,-3.5162548,-1.7818619,1.526578,-4.55906545,2.5398569,0.6146575799999999
593,1778255793600,-3.3465128000000006,-1.6490947,1.5895447999999999,-3.8924763,1.5456988,0.73982614
594,1778255793610,-2.9073318625,-1.15585510625,1.5404893249999998,-1.8192054,-0.25433189,0.372309925
595,1778255793620,-2.9108707,-0.8167550214285714,1.426654057142857,-0.6701274285714286,-0.36401608571428573,0.07837303
596,1778255793630,-2.9313715,-0.76926845,1.3989362,-0.4165184,-0.128897,0.02130529
597,1778255793640,-3.073941716666667,-0.658181725,1.2540068333333332,-0.005770179333333338,0.25433189,-0.012428084666666667
598,1778255793650,-3.1360542666666666,-0.6295863666666667,1.0929697,0.5345852249999999,0.40231486666666666,0.02583266366666667
599,1778255793660,-2.8176713875,-0.58256466875,0.56059949375,1.42119596875,0.05266400625,-0.14693991299999998
600,1778255793670,-2.4439892333333333,-0.5719888766666666,0.06825467333333333,1.7093943999999999,-0.13395700833333332,-0.34017444333333335
601,1778255793680,-2.340753,-0.5791479,-0.060770255,1.7901769,-0.3669836,-0.72011876
602,1778255793690,-2.151547725,-0.641931565,-0.368068824375,1.73145425,-0.6745787375,-1.2164654325
603,1778255793700,-2.1245184,-0.65090066,-0.41196861999999995,1.7230653,-0.7185209,-1.2873721
604,1778255793710,-2.2657578428571425,-0.9795759999999999,-0.25155329285714284,1.7016077714285716,-1.930487457142857,-1.838494257142857
605,1778255793720,-2.33013665,-1.0595134750000001,-0.12102188750000001,2.20762745,-2.387324225,-1.1272495249999999
606,1778255793730,-2.5040274,-1.2495731,0.191829,2.4559672,-2.3483756,-0.5656554
607,1778255793740,-2.4122618499999997,-1.2654368,0.16144387000000002,2.67842995,-1.9837886833333334,0.2868224833333333
608,1778255793750,-2.020794,-1.2285842,-0.3270367,2.8192225,-1.4817829,1.1510183
609,1778255793760,-1.6168793,-1.2285842,-0.3270367,2.8016455,-0.78563255,1.9489013
610,1778255793770,-0.5856560333333333,-1.0769433,-0.9452337333333333,2.2306636,0.7263328166666666,3.1957933
611,1778255793780,-0.3243521,-1.0294335,-1.0433447,1.9297266,1.0689929,3.5020568000000005
612,1778255793790,-0.02587007599999999,-0.9862004914285715,-1.0231926085714285,1.703738314285714,1.1128208428571429,3.7043049714285714
613,1778255793800,0.65379886125,-0.9174722399999999,-0.8591120575,1.7126789875000001,0.44714473875,3.9733698875000005
614,1778255793810,0.8828945142857142,-0.8881242771428572,-0.7764158342857143,2.0408184285714284,-0.20643304571428572,4.058733771428572
615,1778255793820,0.9744391666666666,-0.8457397166666668,-0.6861262666666667,2.3972001,-0.62016148,4.101090666666667
616,1778255793830,0.9479183,-0.83125895,-0.63943,2.5758095,-0.74728304,4.172108
617,1778255793840,0.9257497716666667,-0.8392721583333334,-0.6259661733333334,2.6770096,-0.5816344,4.47198
618,1778255793850,0.652365,-1.1353543,-0.48860259999999994,2.6574798,0.40480049333333334,5.263826666666667
619,1778255793860,0.6883227666666667,-1.2386176555555555,-0.50888648,2.4899373666666667,1.430176731111111,5.969386888888889
620,1778255793870,0.893615575,-1.71523435,-0.60880083,1.64157255,3.8184405499999996,7.3181005
621,1778255793880,0.9730561999999999,-1.8304292999999998,-0.6377216,1.3454290999999998,4.3441486,7.583085
622,1778255793890,0.9730562,-1.8304293,-0.6377216,0.945954875,4.846154475,7.8174431250000005
623,1778255793900,1.0791398333333333,-2.1427413333333334,-0.46981018,0.36218992,5.381538666666667,8.105064333333333
624,1778255793910,1.1131451,-2.2577736,-0.35071027,-0.39911907666666663,5.754381216666666,8.449588499999999
625,1778255793920,0.99068936375,-2.3769346125,0.002684627370000003,-0.7726496187499999,4.982175187499999,8.7460879375
626,1778255793930,0.94669807,-2.4076247,0.12373702000000002,-0.78563255,4.491155,8.8193245
627,1778255793940,0.943281265,-2.4500907499999998,0.12007616,-0.6263755,2.974751,8.902415
628,1778255793950,0.9476742650000001,-2.4887126999999998,0.14082102825,-0.5675196225,1.9969714,8.895890249999999
629,1778255793960,0.99819416,-2.4998784,0.032459613,-0.57151437,1.4141386,8.863533
630,1778255793970,1.120955,-2.4908483,-0.09127741,-0.7659251585714285,0.0967108042857143,8.60528242857143
631,1778255793980,1.4096746,-2.348807,-0.31312546,-0.9436467833333332,-0.6291274,8.3820335
632,1778255793990,1.4635299666666668,-2.3200082666666666,-0.3273621066666667,-1.4247912000000003,-2.3419838,7.798801
633,1778255794000,1.4941794750000001,-2.3260486,-0.329416245,-1.7238642875,-3.4194989125,7.5136430375
634,1778255794010,1.531866,-2.3656469999999996,-0.3315110866666667,-1.9711831833333333,-4.1316282499999994,7.3907160166666666
635,1778255794020,1.5738205714285713,-2.4654314,-0.2558766045714286,-2.4123674857142854,-4.249720485714286,7.568171485714286
636,1778255794030,1.564407,-2.5635774,-0.084687866,-2.731338,-3.9846218,7.819574
637,1778255794040,1.6509659333333333,-2.766958366666666,0.037178053333333336,-2.953179366666667,-3.2070674666666665,8.062898083333332
638,1778255794050,1.7196274,-2.8071465,0.09298581,-3.1068437,-2.6530411,8.233962
639,1778255794060,1.7196274,-2.8071465,0.09298581,-3.21629965,-2.46448935,8.3181175
640,1778255794070,2.1153836285714287,-3.0760277428571428,-0.15155955928571427,-3.8799214571428573,-2.1051907714285716,8.476233142857144
641,1778255794080,2.3678434000000004,-3.2469375,-0.32044718,-4.2051315,-2.018676,8.513061
642,1778255794090,2.3678434000000004,-3.2469375,-0.32044718,-4.2051315,-2.018676,8.513061
643,1778255794100,3.1703036,-3.8678192999999994,-0.8002637,-6.6339345,-1.3630058166666668,9.174413000000001
644,1778255794110,3.5858111375,-4.0481165625,-0.9235431125,-7.106712125,-1.2988902125000001,9.262408375
645,1778255794120,4.6727201,-4.476172666666667,-1.1172940666666669,-9.334912000000001,-1.5377092,9.177253333333333
646,1778255794130,4.8699183,-4.539953,-1.1114367,-9.633186,-1.6783241,9.129316
647,1778255794140,5.527957575,-4.774064975,-1.00728525,-10.184860500000001,-2.0889835999999997,8.751013749999998
648,1778255794150,7.163812,-4.7847424,-0.22282428,-11.245464,-4.077832,7.2379394
649,1778255794160,7.355292400000001,-4.618713828571429,0.06362920000000001,-11.258855857142859,-4.144943714285715,6.775005857142857
650,1778255794170,7.737997755555556,-4.1159444,0.925817588888889,-11.2923355,-4.312723,5.617672
651,1778255794180,7.402013000000001,-3.8090014,1.437009,-11.292335499999998,-4.312723,5.617672
652,1778255794190,6.872129571428571,-3.6232390000000003,2.0948479142857144,-10.594131142857142,-3.068570342857143,4.3152339714285715
653,1778255794200,6.591552444444444,-3.5254881555555553,2.3775785555555555,-8.14554477777778,-2.4637199222222224,2.7964966222222225
654,1778255794210,5.147381,-2.532124375,4.388332624999999,-4.05919015,-3.9550608749999996,2.3533023
655,1778255794220,5.218990142857143,-2.1955737571428573,4.195797414285714,-2.536318585714286,-4.491383428571428,2.292753485714286
656,1778255794230,5.358033,-1.9141409,3.9032073,-1.4887071,-4.815528,2.2732744
657,1778255794240,5.358033,-1.9141409,3.9032073000000005,-1.4587275285714285,-4.194174485714286,2.374778857142857
658,1778255794250,6.866027628571429,-1.2377537571428572,4.3062505571428575,-4.182380314285715,3.424749085714286,1.4556077857142857
659,1778255794260,6.049392588888889,-1.5200969777777777,3.9178236111111113,-3.377243311111111,3.9749159333333335,0.2177874022222222
660,1778255794270,4.941304949999999,-2.1901698,4.1248112500000005,2.862232425,-0.5071324749999999,-1.98318948
661,1778255794280,4.841607599999999,-2.1250064,3.326256,5.2016864,-1.7496969,-2.9028456
662,1778255794290,4.596140244444444,-2.1084918444444445,2.7216177999999998,5.854575311111111,-0.67715312,-3.5859761444444445
663,1778255794300,3.8656228,-2.0988922,1.1619565,6.143836885714285,1.5278175342857143,-3.806494342857143
664,1778255794310,3.719096875,-2.184739375,0.9497182375000001,6.554439,5.0410978375,-3.5069171999999997
665,1778255794320,3.4778156625,-2.334316025,0.5281093775,7.010505,6.6776104,-2.9513152
666,1778255794330,3.4983163,-2.3798022,0.05296042,7.010505,6.6776104,-2.9513152
667,1778255794340,3.278817625,-1.8670989875000001,-1.037517875,5.980927125,4.8176584375000004,-2.6768098
668,1778255794350,3.04150255,-1.5021724125,-1.1223887875,4.89322605,4.0904823125,-2.7670909375
669,1778255794360,2.7961638714285715,-1.2309202,-0.9908724142857143,3.427412357142857,3.7988852285714287,-2.6980866
670,1778255794370,2.3771447222222224,-0.94366088,-0.6586291799999999,2.4470308333333333,4.159739377777778,-2.3263600666666666
671,1778255794380,2.186509,-0.80685323,-0.41904628,1.1387677,5.1958275,-1.540905
672,1778255794390,2.186509,-0.80685323,-0.41904628,1.1387677,5.1958275,-1.540905
673,1778255794400,2.1934239,-0.8172663533333333,-0.20639106666666668,0.29188245333333335,6.111777266666667,-0.8736944333333333
674,1778255794410,2.3074916,-1.0138834828571428,0.28477995857142857,-0.43394309999999997,7.215416642857143,-0.3690380357142857
675,1778255794420,2.3084155,-1.14511655,0.7834238149999999,-0.187486555,7.2270204,-0.4094610125
676,1778255794430,2.285108,-1.2254114,1.1404796,0.59388494,7.0376697,-0.54807854
677,1778255794440,2.3142205000000002,-1.2843338285714285,1.2870881714285713,0.59388494,7.0376697,-0.54807854
678,1778255794450,2.522911175,-1.4698042125000002,1.3281596125,2.1837255175,6.549445524999999,-0.83516733
679,1778255794460,2.8914273999999995,-1.7956105333333336,1.0185322666666667,3.8456047000000004,5.8648133,-1.3768543
680,1778255794470,3.227412971428571,-2.1581634,0.5835408714285715,6.003069628571429,4.811951785714286,-2.870202942857143
681,1778255794480,3.309416,-2.3644266,0.3243521,6.5551047,4.463458,-3.4104443
682,1778255794490,3.309416,-2.3644266,0.3243521,6.5551047,4.463458,-3.4104443
683,1778255794500,3.272258575,-2.7728564625,-0.20601481925,7.5551219,3.502855875,-4.71193115
684,1778255794510,3.011945285714286,-2.944864457142857,-0.6020892142857143,8.116707000000002,2.685379485714286,-5.760189371428572
685,1778255794520,2.843755,-2.9277108,-0.7455949,8.279235,1.9462382000000003,-6.800648
686,1778255794530,2.703422,-2.9057454999999996,-0.8676235,8.204362428571429,1.8217543714285716,-7.033788799999999
687,1778255794540,2.612358125,-2.8866176125000003,-0.9346172500000001,7.959056875,1.62233115,-7.4567179999999995
688,1778255794550,2.528704266666667,-2.8696521555555554,-1.0013940444444445,7.859639744444444,1.5467639888888889,-7.6291282888888885
689,1778255794560,2.1980841714285715,-2.7861574285714283,-1.1605619142857144,6.873238442857143,0.9036485857142857,-8.404708428571428
690,1778255794570,2.109996925,-2.7599823,-1.172756075,6.44924425,0.4775047925,-8.653809
691,1778255794580,2.0195737,-2.7297804,-1.1480453,6.162022,0.08042747,-8.810802
692,1778255794590,1.9966671857142857,-2.7219356857142856,-1.138840857142857,5.638216257142857,-0.7404348857142856,-8.952710714285715
693,1778255794600,1.6158217,-2.520840111111111,-0.9632126355555557,5.1649346,-1.4759239,-9.045693
694,1778255794610,1.5450219,-2.356616842857143,-0.9165744628571428,4.851746771428571,-1.8824745142857144,-9.103674
695,1778255794620,1.5618444,-2.29572455,-0.93461723,4.2857583625,-2.5369939625,-9.23850625
696,1778255794630,1.5853959,-2.2589939,-0.95792466,4.0384173,-2.7244139,-9.33438
697,1778255794640,1.6083983,-2.241970875,-0.9775102449999999,4.0384173,-2.7244139,-9.33438
698,1778255794650,1.9296211857142858,-2.1447402571428573,-1.315189542857143,3.4233793999999995,-3.047873757142857,-9.68698257142857
699,1778255794660,2.0239124555555557,-2.187756277777778,-1.4193827333333333,0.8369427733333334,-4.129260777777778,-11.317901999999998
700,1778255794670,2.0283247714285717,-2.2715105,-1.3790629142857143,-0.2867844314285714,-4.610616571428571,-11.901895571428572
701,1778255794680,2.0237226,-2.3217165,-1.3457316,-0.5299691,-4.709534,-12.019379
702,1778255794690,1.4400597625,-2.21250105,-1.29856755,-1.0818426374999999,-4.596283199999999,-11.9545975
703,1778255794700,0.9169231,-2.0962079,-1.2693417,-2.1582258,-3.6458676,-11.096327
704,1778255794710,0.07276395714285717,-1.7732154999999998,-1.6616462714285716,-2.5875274,-3.3016349714285718,-10.244876428571429
705,1778255794720,-0.7854304222222221,-1.4298772444444445,-2.1053461666666666,-4.090438066666667,-2.3888554666666666,-7.559649333333334
706,1778255794730,-1.0667742,-1.3035098,-2.2921855,-4.949751400000001,-2.2844596,-6.446447999999999
707,1778255794740,-1.1968872,-1.664104425,-2.42062075,-8.2237753,-1.8929748875,-4.4927529
708,1778255794750,-1.433714275,-2.635940325,-1.72597285,-10.6451215,-0.99915144375,-3.3811494
709,1778255794760,-1.675544525,-3.4987741125,-0.5143811375,-12.055731000000002,0.018109512499999994,-2.64185575
710,1778255794770,-1.7640458,-3.7326114,-0.10665302,-11.913232714285714,0.9455744,-2.059308314285714
711,1778255794780,-2.52404,-3.8846593000000005,2.1042616,-11.213507,1.133974,-1.7619474
712,1778255794790,-2.52404,-3.8846593,2.1042616,-9.920352,0.7862412357142857,-1.5462314
713,1778255794800,-2.7835949749999997,-3.775260475,2.930730825,-7.4764254,0.040346886875,-1.152349775
714,1778255794810,-2.829843875,-3.2617029,3.264082475,-4.105596,-0.31498538,-0.6164552225
715,1778255794820,-2.6174094714285716,-3.132370114285714,2.6674410285714285,-1.66143218,0.3472001114285715,-0.21952056714285714
716,1778255794830,-2.5001225,-3.0648708,2.3636944,-0.35420042,1.0530139,0.00479369
717,1778255794840,-2.1785771,-2.87914335,1.75306315,0.503870075,1.85702225,-0.103596967
718,1778255794850,-2.0935230000000002,-2.724271642857143,1.5453355857142856,0.9744125857142857,2.1871400142857143,-0.25969625571428573
719,1778255794860,-2.1137526444444443,-2.544242611111111,1.378191211111111,1.5780117444444444,2.1003463444444446,-0.35917167
720,1778255794870,-2.2301951428571427,-2.1033551714285714,0.8757819857142858,2.8975954,0.9656622371428573,-0.2299449457142857
721,1778255794880,-2.251184,-2.0466642,0.78757274,3.1089742,0.67484504,-0.11717909
722,1778255794890,-2.306097,-1.8428763,0.45638704,3.244795525,0.35926043750000003,0.22437132249999997
723,1778255794900,-2.2575644142857145,-1.6350441,0.16236780142857143,3.1941954714285714,0.04725208728571429,0.8477222085714285
724,1778255794910,-2.0119382142857143,-1.4994528,0.004323298571428568,2.4027039857142856,0.42070339142857144,2.4833596428571427
725,1778255794920,-1.4355176444444444,-1.4465272666666666,-0.05488576488888889,2.2322617,0.57364494,2.7563717
726,1778255794930,-1.2795922,-1.4758140999999998,-0.023429496,2.1358552,0.61625546,2.9337382
727,1778255794940,-1.1317632,-1.5188728142857144,0.034795589714285716,2.1787701142857143,0.5461762914285714,2.9586198142857145
728,1778255794950,-0.9027677866666666,-1.5794571444444445,0.170324836,2.4930739111111113,0.18239695555555555,2.978538588888889
729,1778255794960,-0.5815884149999999,-1.7196273999999998,0.215502545,3.1312783875,-0.1575259825,2.8511802499999996
730,1778255794970,-0.40328716428571426,-1.8830411714285715,0.13381309857142856,4.137487,-0.44368264,2.6013758
731,1778255794980,-0.37536004,-1.9300048,0.09835507,4.137487,-0.44368264,2.6013758
732,1778255794990,-0.3761968171428572,-1.9938082857142858,0.01572425962857143,5.134270000000001,-0.4840866042857143,2.5416448714285713
733,1778255795000,-0.24433617714285716,-2.0864454857142856,-0.33610170887142854,6.348976,-0.31318775,2.7563717
734,1778255795010,-0.22233616000000003,-2.1001127,-0.39244407,6.348976,-0.31318775,2.7563717
735,1778255795020,-0.07726155028571428,-2.1196022142857145,-1.1193511571428572,6.4546655714285714,-0.032186203999999996,3.549613357142857
736,1778255795030,-0.014399378,-2.0996244,-1.27886,6.2685485,0.06178534,3.9990027
737,1778255795040,-0.014399378,-2.0996244,-1.27886,6.1846589375,0.08375641875,4.0926128625
738,1778255795050,0.12087806342857144,-2.1174058285714286,-1.3072752142857145,5.597432,0.23755397,4.747884
739,1778255795060,0.34431052888888886,-2.1310264888888892,-1.3481451222222223,5.440246377777778,0.3289299988888889,4.939749866666666
740,1778255795070,0.5835408657142857,-2.087107828571429,-1.4245272285714285,4.5229607,0.8214711,5.829659614285715
741,1778255795080,0.70328145,-2.05008085,-1.458028475,4.1360223750000005,0.978445425,5.9895159375
742,1778255795090,0.9231464999999999,-1.9317131,-1.419559,2.7734826875,1.4375078000000001,6.1849255625
743,1778255795100,1.0272369,-1.8523946,-1.3574464,2.1960428,1.6250609,6.2296667
744,1778255795110,1.050526957142857,-1.8199698285714285,-1.2617062285714284,2.055808328571428,1.6522251428571428,6.220535814285715
745,1778255795120,1.1398829666666666,-1.7075871,-0.8957443655555556,1.0643767222222222,1.770528711111111,6.111599666666667
746,1778255795130,1.1487775,-1.6986383,-0.85956967,0.9443569,1.7347832,6.0682789999999995
747,1778255795140,1.1487775,-1.6986383,-0.85956967,0.9443569000000002,1.7347832,6.068279
748,1778255795150,1.1829455,-1.5580615,-0.5110559,1.1110709,1.0061423,5.5010257
749,1778255795160,1.16061425,-1.5441502,-0.5183776250000001,1.274855225,0.8922921500000001,5.443501225
750,1778255795170,1.1217917,-1.5130503142857141,-0.5550210542857144,1.4253237857142855,0.7890565971428571,5.4268376571428565
751,1778255795180,1.0799533,-1.4777666,-0.60062486,1.5531555,0.70200926,5.430186
752,1778255795190,0.9786696,-1.4589742,-0.69214636,1.9259981,0.3110572,5.70023
753,1778255795200,1.0163241,-1.401969342857143,-0.8194047885714285,1.9107039714285714,0.28351252857142856,5.967002771428571
754,1778255795210,1.14023545,-1.39857005,-1.19575845,1.7594839875,0.26997797125,6.297643825
755,1778255795220,1.4296874,-1.1395032,-1.5932056999999997,0.30342281666666665,0.33990814500000005,6.9411741000000005
756,1778255795230,1.4296874,-1.1395032,-1.5932057,0.07084008,0.3435478,7.010505
757,1778255795240,1.471756775,-1.170803575,-1.595036125,-0.3844273,0.092744595,7.1062458
758,1778255795250,1.6857382714285714,-1.3963212857142857,-1.4780455,-1.9444880142857144,-0.9660426571428572,7.518332114285714
759,1778255795260,1.7860109,-1.5168158,-1.3908823000000001,-2.4847293,-1.4556838,7.7545924
760,1778255795270,2.1966780555555556,-1.8734377111111111,-0.7489574722222222,-3.611246666666667,-1.4073327444444446,9.163227444444443
761,1778255795280,2.2731493,-1.8904673999999997,-0.61966133,-3.713512,-1.1547467,9.428123
762,1778255795290,2.498623285714286,-2.0101600714285714,-0.4906247857142857,-3.787167342857143,-0.05676338342857142,10.031215
763,1778255795300,2.97844415,-2.2764745375,-0.29787187625,-3.8032604375,0.672980825,10.340455500000001
764,1778255795310,3.8281077142857143,-2.4653268142857145,-0.2687418942857143,-4.075549657142857,0.27354470285714283,8.943731857142858
765,1778255795320,4.180700714285714,-2.5037135142857143,-0.049160100000000005,-3.9807411428571426,-0.22089019999999998,8.412012857142857
766,1778255795330,4.199005,-2.4718118,0.302631,-3.671434,-1.149953,7.64274
767,1778255795340,4.123486714285714,-2.4097864,0.4083077857142857,-3.0791469142857144,-2.023469857142857,7.170371085714286
768,1778255795350,3.855163114285714,-2.2305089714285713,0.8842194142857143,-0.06414411999999996,-4.7800697,6.256374114285714
769,1778255795360,3.965808225,-1.72408135,0.4758506225,0.6526076525,-5.2273190625,6.140783475
770,1778255795370,4.145800471428571,-1.5595954571428572,0.13290660714285715,2.670618,-5.9063587,5.984656
771,1778255795380,4.3495884,-1.4096746,-0.2523552,2.6706179999999997,-5.906358700000001,5.984656
772,1778255795390,4.6889805,-1.0986542000000001,-1.0222337375,2.35316925,-4.67045225,5.67333225
773,1778255795400,4.802035500000001,-0.9413288000000001,-1.2453892142857141,1.7846984428571429,-4.3158427999999995,5.673066057142857
774,1778255795410,4.930967571428572,-0.6693444285714286,-1.139119742857143,0.03964307142857147,-3.4048135142857143,6.142467099999999
775,1778255795420,5.208216771428572,-0.3234804514285714,-0.72575652,-1.0339152,-2.7398601714285715,6.574127371428572
776,1778255795430,5.3519316,-0.23551524,-0.60819066,-1.442368,-2.360626,6.741526
777,1778255795440,5.4047699875,-0.209919736625,-0.5699957025,-1.614874275,-2.0391824549999997,6.600311875
778,1778255795450,6.246157000000001,0.25357547,0.511544,-2.4164763,-1.0799498971428572,6.3864125
779,1778255795460,5.801810333333333,0.33281273666666666,1.0504223333333333,-3.52362845,0.7038735300000001,4.968926
780,1778255795470,5.4528795,0.34881882,1.4319753625,-3.7033918875,1.2227904875,4.181429325
781,1778255795480,5.241617,0.30946457,1.6188318,-3.6421392,1.2660667999999997,3.9404131999999996
782,1778255795490,5.1678305,0.30157339333333333,1.7079126333333334,-3.6421392000000004,1.2660668,3.9404132
783,1778255795500,4.9464303125,0.4154464525,2.1528594875,-3.353652275,1.062534725,3.6163731375
784,1778255795510,5.094486071428571,0.6209513714285714,2.3391841999999996,-2.367017642857143,0.6771277314285714,2.9335861142857143
785,1778255795520,5.521446785714287,0.7831448400000001,2.314429857142857,-1.9259981,0.53955644,2.743056
786,1778255795530,5.947674999999999,0.76292294,2.165032,-1.7347832,1.1893678,2.282329
787,1778255795540,5.947675,0.76292294,2.165032,-1.6993631,2.28525855,1.3528858149999998
788,1778255795550,5.704594125,0.309251033,2.0680191375,-1.365535825,3.7803572500000002,-0.21265341000000004
789,1778255795560,4.83953325,-0.318291335,2.2453672499999997,-0.5701828066666667,4.2912403333333335,-1.3022857833333334
790,1778255795570,3.9693471,-0.68104175,2.4906042000000004,0.5074209833333333,4.15053645,-1.8086414833333333
791,1778255795580,3.455877833333333,-0.8509733577777777,2.4738185,2.1987650111111114,3.402750655555556,-2.2177622
792,1778255795590,2.8927291000000004,-0.9183874166666667,2.0795304,5.1185955666666665,1.1980674266666667,-2.6784299666666667
793,1778255795600,2.8720655,-0.88983274,1.9839413,5.5567521625000005,0.695151655,-2.7698207375
794,1778255795610,2.969993675,-0.8322352049999999,1.3418267125,6.345513875,-0.35440016249999995,-3.231013625
795,1778255795620,3.2318758142857145,-0.7527422742857143,0.45506220571428574,6.5077764714285715,-0.8641577285714286,-3.9574574285714283
796,1778255795630,3.2937965,-0.7121590400000001,-0.15229172,6.4666877,-0.9406285,-4.257862
797,1778255795640,2.9478759375,-0.72573473875,-0.49177535875,5.062469525,0.023169497499999997,-5.3432332375
798,1778255795650,2.7817645,-0.71826047,-0.53082454,4.375041,0.7819040999999999,-5.48771
799,1778255795660,2.5445712375,-0.71423352125,-0.37764806500000003,3.878960725,1.4964967875,-5.508083125
800,1778255795670,2.432135028571429,-0.7887930442857142,-0.08594301428571428,3.308939714285714,2.356973657142857,-5.698708257142856
801,1778255795680,2.5348482571428574,-0.8683905571428571,-0.07014902571428572,3.364409542857143,2.211336857142857,-6.009841428571428
802,1778255795690,2.6494583222222223,-0.9691513111111111,-0.08664032555555555,3.4372533333333335,2.0027564000000004,-6.330925688888889
803,1778255795700,2.7585792999999996,-1.1604922,-0.13935669,3.5636645833333334,1.55981345,-6.946500666666666
804,1778255795710,2.837374742857143,-1.5790155000000001,-0.30465317999999997,3.703772357142857,0.5918305,-8.049138285714285
805,1778255795720,2.882595028571429,-1.9686354285714285,-0.5016073828571429,3.739611,0.15446335000000003,-8.502941
806,1778255795730,2.7700496,-2.114024,-0.5693855,3.739611,0.15446335,-8.502941
807,1778255795740,2.6561795142857143,-2.2933014,-0.73705288,3.392867314285714,-0.6453980657142857,-9.124675142857143
808,1778255795750,2.6174529,-2.353139025,-0.7889150500000001,3.0741534875,-1.11439975,-9.486046875
809,1778255795760,2.5702715571428567,-2.3829054,-0.8211480571428572,2.102375457142857,-1.390094014285714,-9.663546142857143
810,1778255795770,2.3333616,-2.3670066857142857,-0.8477154142857143,1.6188215142857143,-1.4346829428571428,-9.654187142857143
811,1778255795780,2.2369939285714286,-2.3507593428571427,-0.8382319857142857,1.1240061985714287,-1.3953442285714286,-9.566150642857142
812,1778255795790,2.168855433333333,-2.3380685,-0.8194628666666667,0.67670925,-1.3334447999999999,-9.43531325
813,1778255795800,2.1374533,-2.3165915,-0.7997756,0.47564057,-1.2980248,-9.371131
814,1778255795810,1.9070633999999997,-2.2399576,-0.69263446,-0.23307985799999997,-1.07208213,-8.974746399999999
815,1778255795820,1.8903977714285713,-2.222524914285714,-0.6831510885714286,-0.53476275,-0.9722820785714286,-8.737831428571429
816,1778255795830,1.8487337,-2.1789432,-0.65944266,-0.69987875,-0.9262474,-8.5594
817,1778255795840,1.8213993000000002,-2.1386737,-0.64858213,-0.7597111,-0.8976628333333334,-8.468319833333334
818,1778255795850,1.6915259714285715,-1.9386861285714285,-0.6532715285714286,-1.0680798,-0.6351259128571429,-7.9598081857142855
819,1778255795860,1.609252525,-1.7541005,-0.669449025,-1.4666028625,-0.23202791375,-7.339871875
820,1778255795870,1.548543257142857,-1.6907938714285713,-0.6586407571428572,-1.6137995857142857,-0.2050634042857143,-7.181175928571428
821,1778255795880,1.5270662,-1.6735007,-0.65382934,-1.6506273,-0.21145499,-7.1420655
822,1778255795890,1.2993607333333332,-1.5626714666666668,-0.6575986933333334,-1.750525477777778,-0.6285652211111111,-6.980381944444444
823,1778255795900,1.1614684,-1.4994878,-0.66749656,-1.8184065,-0.9827065,-6.860835599999999
824,1778255795910,1.0592432971428571,-1.4640646000000002,-0.6821399914285714,-1.9348246285714286,-1.1324521857142857,-6.6510545571428565
825,1778255795920,0.7287244375,-1.351527975,-0.73961545625,-2.145842025,-1.313737325,-6.2605591249999994
826,1778255795930,0.6037976,-1.3115636,-0.7743936,-2.3132217,-1.2586099999999998,-5.928197
827,1778255795940,0.33892577285714287,-1.1803654142857145,-0.8830339542857143,-2.830940357142857,-0.613972802857143,-4.790951
828,1778255795950,0.08517598,-1.03163,-1.0611609,-3.238327942857143,-0.09945004857142858,-4.153237857142857
829,1778255795960,-0.02473113666666667,-1.0012855333333335,-1.0923188666666668,-3.753636933333334,0.4481212266666666,-3.7195483999999994
830,1778255795970,-0.4423537525,-0.9798288,-1.1371237,-4.7207194999999995,1.33877105,-3.119760225
831,1778255795980,-1.0357789,-1.0975254,-1.0845904,-5.300756,1.7022926,-2.8469193
832,1778255795990,-1.5921075,-1.32205815,-0.8460244549999999,-6.671751233333334,2.400395866666667,-2.0041175333333334
833,1778255796000,-1.7991290875,-1.406929075,-0.6907125225,-7.0275497,2.590723,-1.8471686
834,1778255796010,-2.347423866666667,-1.5024977333333334,-0.2207904546666667,-7.463243000000001,2.7089674,-1.7331853
835,1778255796020,-2.7535234857142856,-1.6188665714285713,0.1757560822857143,-7.631250199999999,2.6366057428571428,-1.478510942857143
836,1778255796030,-3.6570078666666666,-1.7956647555555554,1.2583862222222222,-7.3744708333333335,2.5648610555555553,-1.233931262222222
837,1778255796040,-4.2629477428571425,-1.8632375571428572,2.0997290285714287,-5.091355285714286,2.0182957142857143,-0.11778781
838,1778255796050,-4.377515414285715,-1.8155418142857143,2.476274657142857,-4.481567514285714,1.856527657142857,0.09298236285714286
839,1778255796060,-4.5337293,-1.5160836,2.7728565,-2.609099,1.535445575,0.586161725
840,1778255796070,-4.469013366666666,-1.4393683,2.5643909333333332,-0.6723593999999999,1.1801354466666667,0.8289532666666667
841,1778255796080,-4.4501395,-1.4045495,2.3136628,0.5949502000000001,0.91133374,0.9358348
842,1778255796090,-4.403829925,-1.362266525,1.956362875,2.1602232,0.58010307125,1.1558784874999999
843,1778255796100,-4.296628,-1.330112,1.1790406,3.9489353,0.23222765,1.6447684
844,1778255796110,-3.7742758571428574,-1.1764256999999998,-0.40506534285714285,4.280080242857143,0.44436747,2.601375885714286
845,1778255796120,-3.437162942857143,-1.1000358,-1.2438203171428572,4.039939157142857,0.4936739885714286,3.367985885714286
846,1778255796130,-3.3052673,-1.074096,-1.4992436,3.7209687,0.39414784,3.7097836
847,1778255796140,-3.1164280375,-1.0472497,-1.630271875,2.9731531,0.168578096,4.2096588
848,1778255796150,-3.0172799000000006,-0.9952655,-1.7843026,2.0063495571428573,-0.14327807142857144,4.807842742857143
849,1778255796160,-1.9512378000000001,-1.0391958,-2.02055,1.4588797,-0.35899412999999997,5.0536146
850,1778255796170,-0.7974163999999999,-1.1941449888888889,-1.7979154888888889,-0.02627651444444444,-1.126398788888889,5.292411333333333
851,1778255796180,-0.503002,-1.2359059,-1.6559285,-0.22690132,-1.2687299,5.279983
852,1778255796190,-0.458298845,-1.24196665,-1.6293669166666664,-0.37017941,-1.3675331999999998,5.2307145
853,1778255796200,0.12672672375,-1.3489959,-1.2563151874999998,-0.6877613875,-1.6472983749999999,5.0546798
854,1778255796210,0.39675572333333337,-1.4089017833333333,-1.0563204666666666,-0.6700513300000001,-1.8588864999999999,4.7340352
855,1778255796220,0.70868121875,-1.4834714375,-0.7272906112499999,-0.5085972,-1.9654129375,4.4556684
856,1778255796230,0.78586435,-1.4921659999999999,-0.64431113,-0.3850931,-2.016013,4.3095274
857,1778255796240,0.79816482,-1.48665032,-0.6277152239999999,-0.275583914,-2.0472252600000003,4.1525074
858,1778255796250,0.858959425,-1.467516275,-0.55178286875,0.16245283,-2.1720743,3.5244274
859,1778255796260,0.9401085,-1.488017,-0.48494175,0.16245283000000002,-2.1720743,3.5244274
860,1778255796270,0.9771354857142857,-1.5798523142857144,-0.37218730714285714,0.30991587571428575,-2.155638757142857,3.310081
861,1778255796280,0.98330665,-1.5951582,-0.3533949,0.50653327,-2.1337247,3.0242858
862,1778255796290,0.9816330785714286,-1.7715069428571428,-0.12928060857142856,1.1755954128571429,-2.2327943857142856,2.7629155142857145
863,1778255796300,0.99209267,-1.7908920000000002,-0.1010397,1.6037556000000002,-2.2988408,2.6397252
864,1778255796310,0.99209267,-1.790892,-0.1010397,1.6037556,-2.2988408,2.6397252
865,1778255796320,0.9731259528571429,-1.8281282,-0.14748031714285714,2.320754742857143,-2.2047931142857142,2.5819726714285713
866,1778255796330,0.8881243,-1.8519063,-0.25284332,2.5853968000000003,-2.1523669,2.5811357
867,1778255796340,0.8731147862499999,-1.8557502750000001,-0.274808465,2.88946325,-1.9928435,2.7130954875
868,1778255796350,0.8111242483333333,-1.8554046666666668,-0.3535169249999999,3.1256635,-1.8911994333333333,2.868313416666666
869,1778255796360,0.76463133,-1.854591,-0.41099238,3.235741,-1.8956381,2.9885995
870,1778255796370,0.7655262333333334,-1.8087896,-0.4640341833333333,3.4647726666666667,-1.9781960666666667,3.2964608666666666
871,1778255796380,0.8263778,-1.688876,-0.50812715,3.567038,-2.014415,3.4328146
872,1778255796390,0.969151275,-1.564040875,-0.5859814375,3.8608513999999996,-1.9421103125,3.635481175
873,1778255796400,1.113249642857143,-1.4581375142857145,-0.6253792642857142,3.9293041428571427,-1.8241893,3.6145183857142853
874,1778255796410,1.33910145,-1.3362134,-0.6208816266666667,3.987906333333333,-1.7291017333333334,3.4466631999999997
875,1778255796420,1.4694687,-1.2312689,-0.69165826,4.020308,-1.6873789,2.9859362
876,1778255796430,1.482647785714286,-1.2512815857142858,-0.6885552414285714,4.021601528571429,-1.6266588285714285,2.9710986
877,1778255796440,1.5319473285714287,-1.3716017571428571,-0.6791415771428572,4.022818985714286,-1.1442462285714285,2.962272228571429
878,1778255796450,1.3532975,-1.3730661,-0.73436826,3.974560933333333,-0.7840346644444445,3.2559809333333334
879,1778255796460,0.8789198714285715,-1.3997031857142856,-1.1736713228571427,3.44575,-0.026935974285714277,5.059930057142857
880,1778255796470,0.7558104285714285,-1.469085157142857,-1.8307432142857143,2.3985950285714286,0.56618804,7.705590199999999
881,1778255796480,1.1102165,-1.4723973,-1.9736909999999999,1.4908376,0.56618804,7.7055902
882,1778255796490,2.0590296,-1.7693336666666666,-1.9150358666666667,-2.41699625,1.1701042733333333,10.542389366666667
883,1778255796500,3.0904968,-2.0937672,-1.7652661,-3.5276232,1.4104102,11.235344
884,1778255796510,3.195227875,-2.110180025,-1.685978,-4.7766457,2.0996363,11.20818
885,1778255796520,4.2391931000000005,-1.9503021333333335,0.40371133533333325,-4.86160055,1.9805042166666667,10.716471833333335
886,1778255796530,4.3066344,-1.7420806,1.2629962,-4.3739758,1.5856462,10.3602295
887,1778255796540,4.633496757142858,-1.3242197428571427,1.524311842857143,-1.8362876285714287,0.14685434285714288,9.794802142857142
888,1778255796550,5.293915528571428,-0.7315790142857143,0.2364566117714286,1.5472966,-1.7715348,9.040899
889,1778255796560,5.3821945,-0.66066295,0.0043930304,2.315818375,-2.61462495,8.463459375
890,1778255796570,5.466359242857143,-0.051321755999999996,-1.3490089857142855,2.1973362,-3.3491154,7.631858928571428
891,1778255796580,5.634514742857143,0.13196524342857144,-1.4943625285714286,1.3885721985714288,-3.1012131857142857,7.107824857142857
892,1778255796590,5.79761025,0.40730105,-1.5233748125000002,-0.05432848499999998,-1.76194745,6.7055733
893,1778255796600,5.8127112,0.5012936,-1.5331676,-0.8590026,-0.7129282450000001,6.59398685
894,1778255796610,5.40001065,0.5903744999999999,-1.6536098499999998,-3.57449495,1.3670007100000001,6.5950522000000005
895,1778255796620,5.1313033,0.5759751,-1.6295702,-5.3348446,2.343582,6.621684
896,1778255796630,5.0244062142857135,0.6625805685714286,-1.0279342285714286,-6.591247857142856,1.7625562285714287,6.616814057142856
897,1778255796640,4.864752083333333,0.9152960499999999,0.7375816833333332,-7.348904483333333,1.1230550700000002,6.66677995
898,1778255796650,5.402695,1.0963051,2.0447116,-6.4256754,0.10439592,6.9348717
899,1778255796660,6.7925662,1.320977242857143,2.0604010857142856,-4.6136603,-0.17896443999999997,6.823019
900,1778255796670,7.5106174999999995,1.51730385,1.2487189650000001,-4.46106115,1.27352368,5.0043461
901,1778255796680,7.9970236,1.6761851,0.43442193,-4.308462,2.7260118,3.1856732
902,1778255796690,6.2925279142857145,0.5097309714285715,1.8018048171428573,-4.777634914285714,3.5957240571428573,2.261023696285714
903,1778255796700,4.019867,-1.0455412,3.624982,-3.0131006,6.6003785,-0.7089335
904,1778255796710,3.8059507999999997,-1.3033877,3.7330994000000004,-3.0131006,6.6003785,-0.7089335
905,1778255796720,3.5621201428571427,-1.6202263714285714,3.4429154142857143,2.249306,6.3718796,-0.9736517000000001
906,1778255796730,3.5222342,-1.6988826,2.9118469,4.066647,5.952165,-1.3118731999999997
907,1778255796740,3.3448045,-1.4478697,1.475570075,4.595750525,5.40648335,-1.5540211375
908,1778255796750,3.1961735166666667,-1.1626887833333335,0.19321199166666667,5.1175303,4.5614624,-1.8471686
909,1778255796760,3.1797912,-0.8414483325,-0.19259167424999998,3.686147875,4.1906837375,-2.26308785
910,1778255796770,2.9817170714285717,-0.6064125085714286,-0.015619669999999999,2.800351957142857,4.262275285714286,-2.4643372428571433
911,1778255796780,2.6940782857142858,-0.44711288714285713,0.594662922857143,2.1013863285714285,4.719730114285714,-2.6250398714285716
912,1778255796790,2.50951865,-0.405867215,1.2208963499999999,2.104030375,4.8475525,-2.793656
913,1778255796800,2.4874313,-0.4271002,1.3620834,2.3164175,4.763330000000001,-2.9001825
914,1778255796810,2.628171,-0.5522608666666667,1.6292854666666667,2.9490070166666666,4.402116433333333,-3.2958394833333333
915,1778255796820,2.7387019777777777,-0.6913599555555555,1.7684387888888888,3.9397623777777775,3.7608568666666664,-3.9642041333333333
916,1778255796830,2.7297804000000006,-0.8073414,1.730854,4.636564,3.1846079999999994,-4.465056
917,1778255796840,2.5988436000000004,-1.190694325,1.2513729775,5.9927783125,1.77652825,-5.63644725
918,1778255796850,2.5379512,-1.3925906,0.97037166,6.5265424125,1.0858373425,-6.23166375
919,1778255796860,2.473311028571428,-1.5735764714285714,0.63611778,6.7441893,0.60720074,-6.678143
920,1778255796870,2.4402064,-1.8145656499999998,0.023429499999999992,6.4275393,0.2005360225,-7.2461951000000004
921,1778255796880,2.4508228,-1.8933961,-0.22380049999999999,6.1556306,0.090014845,-7.4840155
922,1778255796890,2.2325136333333333,-1.9441194166666669,-0.46082075666666666,5.313627933333333,-0.0378168925,-7.54571175
923,1778255796900,2.1124549142857143,-1.9164421714285713,-0.5949767,5.1452274000000005,-0.06338324,-7.558051
924,1778255796910,2.1621642,-1.9135003874999998,-0.6736895,4.17064365,-0.12217252125,-7.499328625
925,1778255796920,2.116708457142857,-1.8809839857142856,-0.6561653285714286,3.5201664,-0.04527374,-7.422762999999999
926,1778255796930,2.1058071999999997,-1.8837150833333334,-0.6434976166666667,3.0900658500000002,0.013848437,-7.40571865
927,1778255796940,2.11429845,-1.88763025,-0.58512723125,2.471546675,0.11724566775,-7.3983281125
928,1778255796950,2.1301317,-1.8846099999999997,-0.56865335,2.3584955,0.1438107,-7.4041204
929,1778255796960,2.06740905,-1.9021821499999998,-0.568287275,2.1509020750000003,-0.009986854999999989,-7.40425355
930,1778255796970,2.0046864,-1.9197543,-0.5679212,1.5281217999999999,-0.47137952,-7.404653000000001
931,1778255796980,1.6919443714285713,-1.8590886857142856,-0.45966438285714284,1.3181125857142857,-0.8780062071428573,-7.356640142857143
932,1778255796990,1.5037892875,-1.8162130250000001,-0.39043058750000004,1.177916175,-1.3432984875,-7.244597
933,1778255797000,1.462147,-1.8050474,-0.37633628,1.1467572,-1.4743260000000002,-7.2086444
934,1778255797010,1.4871628166666666,-1.7221493333333333,-0.38670871999999995,1.020789675,-1.7751744,-7.154227249999999
935,1778255797020,1.77283195,-1.6057747,-0.57670726,0.732103005,-1.89643705,-7.22449025
936,1778255797030,1.8253042857142856,-1.5795733857142855,-0.6766312714285715,0.21853138785714288,-1.5017945714285712,-7.461340285714286
937,1778255797040,1.820911,-1.5958903,-0.7914777000000001,0.026276524166666666,-1.3535072333333333,-7.510203
938,1778255797050,1.705471988888889,-1.5922837555555556,-0.8486141533333333,-0.38680936,-1.0324779888888889,-7.529466555555555
939,1778255797060,1.1582259428571429,-1.5174782714285715,-0.73761071,-0.9773040571428572,-0.9369762428571429,-6.958687857142857
940,1778255797070,0.9025934571428572,-1.4205527,-0.6638357071428571,-1.1254519,-1.0365024,-6.6254125
941,1778255797080,0.8217408,-1.3686731,-0.64187056,-1.1888351,-1.3001553,-6.08266
942,1778255797090,0.77244117,-1.08239385,-0.723141615,-1.5875103499999998,-1.1241203499999999,-5.0360377
943,1778255797100,0.8080735,-0.916679,-0.792942,-1.8636801,-0.7536746,-4.5321674
944,1778255797110,0.7697565214285714,-0.8899721714285714,-0.8564666142857142,-1.8636801,-0.7536746,-4.5321674
945,1778255797120,0.4392333271428571,-0.7371226285714286,-1.2854495285714285,-3.6620749428571426,2.124974257142857,-3.5579072857142857
946,1778255797130,-0.049970717500000005,-0.80548045,-1.3696492875,-4.4422195124999995,2.9808095875,-3.371695225
947,1778255797140,-0.9371391933333334,-1.02638275,-0.7140708833333332,-6.513115549999999,4.445348516666667,-3.5346362333333334
948,1778255797150,-1.0860548,-1.0645777,-0.5872018,-6.715427,4.5657234,-3.593137
949,1778255797160,-1.637081822222222,-1.1871487222222221,-0.2210074088888889,-6.715427,4.5657234,-3.5931370000000005
950,1778255797170,-2.3913078857142858,-1.3691263285714288,0.1516641442857143,-6.188501642857142,3.310385371428571,-4.1696734285714285
951,1778255797180,-3.190351142857143,-1.5290186142857143,0.6754807642857142,-5.559234857142856,2.3014277857142855,-4.2501009000000005
952,1778255797190,-4.1877168750000004,-1.6749953375,1.5061687375,-3.4784211875,1.1919643375,-3.5075163875
953,1778255797200,-4.496405871428571,-1.6561026714285716,1.6766731857142858,-3.0232205,1.0807108,-3.2490566
954,1778255797210,-4.6667232571428565,-1.6090344857142858,1.6510472428571428,-1.5819177,0.8979418571428572,-2.1716937714285716
955,1778255797220,-4.629979525,-1.57355905,1.42062675,-0.37330864125,0.90946955,-1.073853185
956,1778255797230,-4.494314228571429,-1.5364101142857145,0.9612020714285715,0.30443735857142856,1.089841642857143,-0.17782307142857137
957,1778255797240,-4.406372166666666,-1.501928333333333,0.6280813550000001,0.68780575,1.2167095666666665,0.5642350733333333
958,1778255797250,-4.396325075,-1.4831969,0.5782326600000001,0.92425009375,1.1252521,0.9884322274999999
959,1778255797260,-4.3966913,-1.4819156,0.56596875,1.2942963000000003,0.9076053,1.4647386
960,1778255797270,-3.9362946571428568,-1.537874442857143,0.23094788142857142,2.300210285714286,0.17295328999999998,2.767633228571428
961,1778255797280,-3.1234445714285712,-1.5415004142857143,-0.33742658285714283,2.8836708,-0.22210763,3.5617118
962,1778255797290,-2.8224406666666666,-1.5339811333333333,-0.5266755433333333,3.07248905,-0.2953445633333333,4.14689705
963,1778255797300,-2.4453315875,-1.5140701250000002,-0.72533813125,3.118228825,-0.26877953374999997,4.4423525375
964,1778255797310,-1.8482454714285714,-1.4787777,-0.9270688857142858,3.034634157142857,-0.03522981428571429,4.7886681428571425
965,1778255797320,-1.2024701,-1.4950947000000003,-1.1739154,2.9433258,0.08841694999999998,5.101019
966,1778255797330,-1.2024701,-1.4950947000000003,-1.1739154,2.9433258,0.08841694999999998,5.101019
967,1778255797340,-0.300016088,-1.5510186428571429,-1.436381542857143,2.5272639000000003,-0.52030557,4.907825428571429
968,1778255797350,0.008786061,-1.5724608,-1.5177921,2.4197483,-0.721184,4.8331046
969,1778255797360,0.353822,-1.6414984874999998,-1.4375886875000001,2.287921775,-1.550758725,4.468251525
970,1778255797370,0.5422254857142857,-1.6026890857142857,-1.1851420000000001,2.2880358285714286,-2.3169502285714287,4.064896885714286
971,1778255797380,0.541319,-1.5951582,-1.1441404,2.3148196,-2.4064324,3.9894154
972,1778255797390,0.55730476,-1.5828332999999999,-1.0308978,2.33006625,-2.4897227625,3.9762994000000003
973,1778255797400,0.59281504,-1.6007715,-0.9884319,2.324407,-2.4980452,4.0112534
974,1778255797410,0.6647770771428572,-1.6258745571428572,-0.9911513314285714,2.252729885714286,-2.336429285714286,4.0874959142857135
975,1778255797420,0.75343521125,-1.680151075,-0.9473692025,1.8297248875,-1.6500281125,4.30713035
976,1778255797430,0.7665837828571428,-1.6827747,-0.8144887828571429,1.7710022,-1.5558187999999997,4.3366914
977,1778255797440,0.7471987142857143,-1.6926416285714285,-0.6535156028571428,1.1426482571428571,-0.8494723085714285,4.498079242857143
978,1778255797450,0.7304634,-1.7123058,-0.54766446,1.0583402,-0.773382,4.5428205
979,1778255797460,0.7028848499999999,-1.7657542,-0.39146784,1.2080099333333332,-0.9297983333333333,4.7189437666666665
980,1778255797470,0.67628264,-1.90059575,-0.2255699175,1.4466292,-1.1819109,4.9177933
981,1778255797480,0.67628264,-1.9500173,-0.24845028,1.4466292,-1.1819109,4.9177933
982,1778255797490,0.7590180628571429,-1.9994912,-0.29844715285714285,1.8305808142857143,-1.9893053142857142,5.2439925999999994
983,1778255797500,0.86933196,-2.0654564,-0.36510965,1.9765981,-2.2967103,5.3902383
984,1778255797510,0.86933196,-2.0654564,-0.36510965,2.0957555285714284,-2.467456928571429,5.571485185714286
985,1778255797520,0.9935978266666666,-2.1104035666666667,-0.410666975,2.2072279666666668,-2.4980452333333334,5.882922733333333
986,1778255797530,1.019128888888889,-2.149357888888889,-0.5144184455555556,2.391518666666667,-2.2370553666666666,6.624347066666667
987,1778255797540,1.0196712,-2.1733298,-0.59013045,2.4607608,-2.1060278,6.9247518
988,1778255797550,1.1115064285714287,-2.1930984714285713,-0.6475536000000001,2.4607608,-2.1060278,6.9247518
989,1778255797560,1.2339534,-2.2194567,-0.7241178,2.4492205499999997,-2.1552963000000003,7.1346978000000005
990,1778255797570,1.4409139666666666,-2.2615157666666668,-1.1054979666666667,1.7553782333333334,-2.6331561333333333,7.791166666666666
991,1778255797580,1.5414655,-2.2514281,-1.1277885,1.4631407,-2.8266791999999996,7.960189
992,1778255797590,1.86713558,-2.0618445000000003,-0.8632304599999999,1.1320565400000002,-3.06955944,8.1549194
993,1778255797600,2.2621667,-1.8938841999999998,-0.4166057,0.5800365,-3.1073763,8.34688
994,1778255797610,2.5597946,-1.5520819999999997,-0.014399374999999999,0.6748450500000001,-2.15316575,7.930361
995,1778255797620,2.589508425,-1.351466925,0.106592001,0.70933295,-1.442634375,7.69800025
996,1778255797630,2.6414315250000002,-1.326939225,-0.010799532,0.5323658925,-0.2372877,7.32728835
997,1778255797640,2.4216174,-1.3692425333333331,-0.36657398666666663,-0.17417073500000002,1.1366371999999998,7.2062477
998,1778255797650,2.3041446,-1.4099188,-0.4803047,-0.5328097733333333,1.1920309666666666,7.538699
999,1778255797660,2.2884027,-1.4126644000000002,-0.545284895,-0.81013364,1.1323761,7.901599
1000,1778255797670,2.4820623,-1.4267586,-0.6040417,-1.1472899,0.9720538,8.432633
