id,timestamp,acc_x,acc_y,acc_z,gyro_x,gyro_y,gyro_z
0,1778255689580,0.23177303666666668,0.39309484666666666,0.81027002,0.40373522,-0.80374205,-0.4910869
1,1778255689590,0.27316981142857144,0.4142697342857143,0.7222351228571429,0.3224707514285714,-0.7845672785714285,-0.5190881571428572
2,1778255689600,0.26968326666666664,0.4051350266666667,0.6712387999999999,0.21216515333333333,-0.7410689666666667,-0.5379585666666666
3,1778255689610,0.2562601,0.4024504,0.6343048,-0.031158984999999997,-0.5777728275,-0.5269064525
4,1778255689620,0.26520888,0.39919631333333333,0.6336539733333334,-0.15552860666666665,-0.46072690000000005,-0.5198490633333334
5,1778255689630,0.31635920500000003,0.3803632425,0.72448392,-0.498011155,0.011318431999999993,-0.527039585
6,1778255689640,0.33367505799999997,0.375506498,0.809635492,-0.56874472,0.1416801688,-0.536573704
7,1778255689650,0.33061621,0.3782073866666667,0.8722605866666667,-0.5873157999999999,0.2879764833333333,-0.5544701333333334
8,1778255689660,0.298726065,0.39030856,0.955423115,-0.5656554,0.35899413,-0.5587312
9,1778255689670,0.27334411999999997,0.4059282175,0.9798288325,-0.426638415,0.3909520575,-0.5119927224999999
10,1778255689680,0.26764945,0.4522380766666667,0.9768797766666667,-0.11575873666666668,0.08912712666666667,-0.42672718000000004
11,1778255689690,0.27114761,0.47652178,0.943525315,0.0077231699999999945,-0.052730588999999994,-0.39974048500000003
12,1778255689700,0.274320362,0.476595,0.8928590639999999,0.09054747999999999,-0.14349112,-0.382323416
13,1778255689710,0.25748038,0.45760733,0.7038611,0.118670456,-0.177153472,-0.34354778399999997
14,1778255689720,0.245033465,0.447967085,0.6374775,0.015180016999999997,-0.0671116575,-0.305065115
15,1778255689730,0.23688196600000003,0.41294486399999997,0.558402988,-0.1460477584,0.072118404,-0.26226812
16,1778255689740,0.272709564,0.39312741000000007,0.5692879399999999,-0.446558868,0.224877328,-0.194197712
17,1778255689750,0.29292969999999996,0.386769715,0.581466395,-0.47351006,0.22423817,-0.18908444
18,1778255689760,0.35942657714285714,0.39317620000000003,0.6422889714285714,-0.5832322942857143,0.10310238085714285,-0.19882399999999997
19,1778255689770,0.5288721,0.35583547,0.7653635,-0.5928197,-0.080960095,-0.23116238
20,1778255689780,0.6532192649999999,0.38695276,0.7936741350000001,-0.5403553999999999,-0.3115898475,-0.297208775
21,1778255689790,0.8701454766666666,0.47192536999999996,0.8416720566666666,-0.32703618,-0.8404936666666667,-0.52588555
22,1778255689800,0.92265845,0.489334795,0.8589595,-0.12623383725,-1.1249193,-0.68336717
23,1778255689810,0.9613415000000001,0.42197499,0.7565775,0.029294771625000004,-1.356348025,-0.7769773
24,1778255689820,1.07360785,0.36694008,0.5742667,0.12001979250000001,-1.6356248666666666,-0.8696996666666665
25,1778255689830,1.1982601,0.346683325,0.4263680225,-0.03515372625,-1.551957125,-1.213469375
26,1778255689840,1.2158322,0.33362625749999997,0.380363235,-0.0854874725,-1.546763975,-1.3013537
27,1778255689850,1.2296824,0.31658291666666666,0.30840701499999995,-0.15499598,-1.5691346,-1.4231933
28,1778255689860,1.30863492,0.32054477800000003,0.191633742,-0.272175074,-2.48366412,-2.0465861
29,1778255689870,1.33562768,0.322253178,0.11875826060000001,-0.306796172,-3.0349385,-2.34805596
30,1778255689880,1.312784,0.30604777,0.013911263000000002,-0.36005938,-3.5185684999999998,-2.5363946
31,1778255689890,1.4589131499999999,0.28695030499999996,-0.15766097675,-0.62957129,-3.9284289,-2.8272117999999997
32,1778255689900,1.5458585000000002,0.27139166,-0.27651685,-0.8990832000000001,-4.3382893,-3.118029
33,1778255689910,1.5695321,0.24436232,-0.3644994875,-1.3936321999999999,-3.89194365,-3.19233125
34,1778255689920,1.6405529,0.1632743,-0.6284474,-1.8881812,-3.445598,-3.2666334999999997
35,1778255689930,1.6217255571428573,0.04455787885714286,-0.7155061399999999,-2.4926427999999996,-3.0182747428571433,-3.401769785714286
36,1778255689940,1.7201155,-0.20525214,-0.4971446,-3.7172403,-2.7121632,-3.8967373
37,1778255689950,1.7201155,-0.20525214,-0.4971446,-3.7172403,-2.7121632,-3.8967373
38,1778255689960,1.68780232,-0.249719372,-0.43852205,-3.7899978399999994,-2.7769312800000003,-3.95756394
39,1778255689970,1.50925,-0.4637087666666666,-0.16425052199999998,-4.172108,-3.2650355999999996,-4.266384
40,1778255689980,1.3732612400000002,-0.59549968,-0.0415385436,-4.184039199999999,-3.34216068,-4.25424
41,1778255689990,1.1941720999999998,-0.80158161,0.11729390399999999,-4.2164231999999995,-3.55073942,-4.139724
42,1778255690000,1.14737415,-0.84736675,0.139722765,-4.22736875,-3.575160625,-4.0895501
43,1778255690010,1.0992339,-0.89715445,0.136428,-4.24934,-3.5787558999999995,-4.0112534
44,1778255690020,0.92796661,-0.98336767,0.1265436875,-4.309660675,-3.63122025,-3.80019775
45,1778255690030,0.854749455,-1.00673615,0.07492557575,-4.620185175,-3.656520325,-3.20165225
46,1778255690040,0.8798670166666667,-1.05542565,0.0025626011666666664,-4.8132198,-3.6636220666666666,-2.994813533333333
47,1778255690050,0.8749452,-1.0557916999999999,0.017328065400000002,-4.95907235,-3.6826192,-2.8543762
48,1778255690060,0.8757994175,-1.0653099,0.05192318,-5.1191285,-3.69859815,-2.6354642999999998
49,1778255690070,0.9796457842857142,-1.1133543142857143,0.19548985142857142,-5.2379054428571425,-3.660248685714286,-2.4469124
50,1778255690080,1.27886,-1.1602482,0.56596875,-5.179848,-3.4370759,-2.0831246
51,1778255690090,1.510592375,-1.18148115,0.6377215875,-5.018061225,-3.493401725,-2.124669875
52,1778255690100,1.7429349,-1.1806269,0.66395775,-4.9641323,-3.512177,-2.1385183
53,1778255690110,2.0085912,-1.1063116,0.5000733,-4.6759782,-4.132294,-2.519749975
54,1778255690120,2.050691,-1.09410865,0.34924592000000004,-5.0416303,-4.47490965,-2.74571915
55,1778255690130,2.1243556,-1.1585397000000002,0.22331237333333334,-5.591040466666667,-4.839318866666667,-3.0587293333333334
56,1778255690140,2.1350128,-1.297347325,0.306963,-6.4294036,-4.121774525,-3.060371625
57,1778255690150,2.13603784,-1.38707496,0.367599022,-6.721712200000001,-3.77998444,-3.03067736
58,1778255690160,2.2054476999999997,-1.54463826,0.5277982,-7.743514,-2.43785776,-2.9423668800000002
59,1778255690170,2.58444415,-1.8445846000000001,1.26250815,-8.3804355,-1.5334482500000002,-2.9925941
60,1778255690180,2.778998533333333,-1.8366935,2.055206033333333,-8.7974865,-0.5813680600000001,-3.4956653
61,1778255690190,2.7807882,-1.7935766999999998,2.9735935,-8.375642,-0.221575,-4.4645233
62,1778255690200,2.74594905,-1.7561139,3.0753653749999996,-8.124106424999999,-0.29095035,-4.580370725
63,1778255690210,2.6054738333333334,-1.5977207333333334,3.3762472999999997,-6.868292666666666,-0.42557315333333334,-5.0818439
64,1778255690220,2.2909655,-1.395702425,3.083175275,-5.5878449,0.19041602,-5.529521375
65,1778255690230,2.178394075,-1.4357888,2.931066575,-5.46307575,0.526240635,-5.57253135
66,1778255690240,0.9721613266666668,-1.6879813333333331,2.9371476,-5.0655985,1.8793928999999998,-5.26480315
67,1778255690250,0.47054234,-1.7679508,3.0328994,-4.764395,2.694054,-4.9678607
68,1778255690260,0.47054234,-1.7679508,3.0328994,-4.764395,2.694054,-4.9678607
69,1778255690270,-0.039188611428571433,-1.631941085714286,4.070107742857143,-2.962424385714286,2.2713720714285714,-3.4837191428571432
70,1778255690280,0.3108679325,-1.4605606,4.36789235,-0.79322255,0.8574047,-2.5104287999999997
71,1778255690290,0.7131963275,-1.415471025,4.200713125,-0.12010856749999999,0.637693925,-2.2608905999999998
72,1778255690300,1.6754530999999997,-1.4145557999999998,3.5754385,0.9855471750000001,0.6013418,-1.9504992
73,1778255690310,1.6754531,-1.4145558,3.5754385,1.9640813499999998,1.4295849,-1.876197
74,1778255690320,1.6754531,-1.4145558,3.5754385,2.0611535500000002,2.52014935,-1.744104225
75,1778255690330,2.0959635,-1.1260802,2.550398,1.64237145,3.7619813499999997,-1.4000238500000002
76,1778255690340,1.81664015,-0.825157585,1.9284183000000001,1.2442289,4.543086499999999,-1.04182865
77,1778255690350,1.7689270000000001,-0.81783587,1.9095039,1.0519487,4.8693237,-0.8543421
78,1778255690360,1.7357352,-1.0091767,2.3173234,0.9438242999999998,5.526592,-0.19760656
79,1778255690370,1.7465550666666667,-1.0461920333333332,2.4120177,1.0583402333333334,5.522863533333333,-0.12623384033333332
80,1778255690380,1.7681948,-1.1202227,2.6014063,1.2873721,5.5154066,0.016511599
81,1778255690390,1.713952975,-1.17287815,2.4350203,2.7707528750000003,4.995957125,0.359260445
82,1778255690400,1.633231,-1.1836777,2.1452632,3.87583135,4.22057785,0.48829058999999997
83,1778255690410,1.5791317500000002,-1.16191595,1.95916945,4.2381544,3.8227014999999995,0.50387007
84,1778255690420,1.5380487999999999,-1.1332799,1.79430885,4.5886265,3.3956636,0.5114600975
85,1778255690430,1.453604975,-1.0697639749999999,1.5155345249999999,4.7697215,3.1739554,0.51984906
86,1778255690440,1.2263179142857141,-0.8608596285714285,0.9954049028571428,4.829072171428572,3.0814296857142858,0.6395391028571428
87,1778255690450,1.1399914,-0.7392494,0.90642864,4.8064733,3.1127027999999997,0.6945524
88,1778255690460,1.1075805600000002,-0.6140480399999999,0.76599812,4.6845,3.2746229999999996,0.7547399
89,1778255690470,1.1293749,-0.523624835,0.72619237,4.282185566666667,3.580531366666667,0.9028116
90,1778255690480,1.19710075,-0.537536115,0.78049507,4.18116315,3.7609161999999996,0.9739180000000001
91,1778255690490,1.30321686,-0.554351628,0.79801836,4.0888046,3.9381761400000004,1.00134862
92,1778255690500,1.3484163,-0.55913514,0.797335,4.0601666666666665,3.9973160666666665,0.9814636916666667
93,1778255690510,1.5290187,-0.682139995,0.7649974500000001,3.9634495000000003,4.326172125,0.8295747124999999
94,1778255690520,1.7096211000000001,-0.8051448499999999,0.7326599,3.858388,4.8107343,0.6641924
95,1778255690530,1.6971741749999998,-0.9850760375000001,0.7344903125,3.8511973,5.49543285,0.5048022050000001
96,1778255690540,1.675331,-1.09410865,0.7469372249999999,3.8844868,5.7961037,0.4343615875
97,1778255690550,1.6576368,-1.1431642,0.758774,3.991546,6.0134177,0.38242993
98,1778255690560,1.6195638333333333,-1.1796100666666667,0.70801009,4.124881666666667,6.010754566666667,0.3776362466666667
99,1778255690570,1.5434179,-1.2525018,0.60648227,4.50020985,5.86215015,0.374440465
100,1778255690580,1.6595543571428573,-1.1903020285714287,0.3513378242857143,4.756558114285714,5.326246142857143,0.3673640642857143
101,1778255690590,1.8773492999999999,-1.038036525,0.04942159325,4.938299625,4.659733125000001,0.3306314675
102,1778255690600,1.9207305,-1.001611,-0.008053889,4.9332395,4.6120625,0.32437304
103,1778255690610,2.12315158,-0.8205693000000001,-0.229706688,4.7771783,4.574778,0.25353295
104,1778255690620,2.2577735666666663,-0.6251933,-0.39594219999999997,4.546903633333334,4.715038,0.19938200466666667
105,1778255690630,2.3235294714285715,-0.5887706428571429,-0.2884407942857143,3.9262603,5.129020285714286,-0.010880918571428573
106,1778255690640,2.4113465749999996,-0.6504125625,0.09628058249999999,3.547596875,5.54536725,-0.49867695
107,1778255690650,2.41464135,-0.6834213125,0.19622202749999998,3.5979305999999998,5.57066725,-0.665390825
108,1778255690660,2.1909019,-0.7940402849999999,0.28457075,4.061143066666666,5.363251333333333,-1.3086773999999999
109,1778255690670,1.9856498,-0.85908157,0.281398,4.2280345,5.262939,-1.4966966
110,1778255690680,1.9856498000000002,-0.8590815700000001,0.281398,4.2280345,5.262939,-1.4966966
111,1778255690690,1.7259729,-0.64772797,-0.5008055,5.2538843,3.8296256,-1.5132082
112,1778255690700,1.7259729,-0.64772797,-0.5008055,5.2538843,3.8296256,-1.5132082
113,1778255690710,1.9887005,-0.42197497500000003,-1.24084805,5.27332545,3.75425815,-1.5856462
114,1778255690720,1.9385467,-0.29872608,-2.519891,4.048005,5.5942364,-2.6008432
115,1778255690730,1.705106,-0.277615115,-2.7322208999999997,3.6173718499999996,5.9795957,-2.650378
116,1778255690740,0.2918518083333333,-0.1810498,-3.062715133333333,2.054717633333333,6.2871908,-2.3551222
117,1778255690750,-0.1507663775,-0.0760848475,-2.8796924,1.1203919025,5.388640175,-1.9034944
118,1778255690760,-0.225630935,-0.045028561499999994,-2.6596138500000004,0.880707385,4.4674528,-1.6823188500000001
119,1778255690770,-0.21049937500000002,-0.028676726249999996,-2.3488070000000003,0.7630844333333333,3.086071066666667,-1.4267442
120,1778255690780,0.53985465,-0.13105874,-3.2508426,0.18109496,1.2378373,-1.6255935
121,1778255690790,0.12088969999999999,0.16636569,-1.92666932,-0.15890194,1.6389093333333333,-1.2935861
122,1778255690800,-0.6177902516666667,0.6472804916666667,0.29803453333333335,-0.75118897,2.58948025,-0.5768407083333332
123,1778255690810,-0.05326549525,0.3142847225,-1.9300047249999999,-0.50040798,3.14332905,-0.32490566499999995
124,1778255690820,0.06620052474999999,0.4513228725,-1.810721725,-0.5269064325,2.7387949000000003,-0.35886097
125,1778255690830,0.31723373666666665,0.6236883,-1.3334474166666668,0.43533806,1.3670893433333333,-0.5917543933333334
126,1778255690840,-0.050458837000000006,0.6724387199999999,-1.3502466499999999,1.66554095,-0.462591105,-0.9166600650000001
127,1778255690850,-0.107873306,0.69214636,-1.3718457,1.9387813,-0.8463526399999999,-0.9092032299999999
128,1778255690860,-0.26655933,0.761507422,-1.9334215799999999,2.3077888,-1.4496118,-0.7648599020000001
129,1778255690870,-0.38813238,0.8244253866666668,-2.271440933333333,2.265462266666667,-1.7576863333333332,-0.6125270566666666
130,1778255690880,-0.86742014,1.0096241933333334,-2.3302992833333334,2.2465538666666665,-1.9651466,-0.4606380909166667
131,1778255690890,-0.982513425,1.0376704,-2.2655834749999997,2.4129571,-2.66822115,0.255929763625
132,1778255690900,-0.9969738,1.0377314,-2.2472792,2.4570324,-2.706837,0.3392867
133,1778255690910,-1.08080755,1.0747061,-2.4081128499999997,2.75104545,-2.7502465,0.860201025
134,1778255690920,-1.005882,1.04895805,-2.66156635,2.8149613,-2.89938355,1.10388025
135,1778255690930,-0.9608534,1.0245523,-2.8120277,2.8032434,-3.0317426,1.200553
136,1778255690940,-0.8452516066666668,0.7406324,-3.5133667,1.8549804333333333,-3.7871925999999996,1.4982945
137,1778255690950,-0.816859615,0.53692595,-3.6149759,0.9507485200000001,-3.8141794,1.6775252
138,1778255690960,-0.818690015,0.35010015,-3.49758435,0.11504856999999999,-3.6357475,1.88365385
139,1778255690970,-0.7929420333333334,-0.017165346666666654,-2.8830481999999997,-1.0102257333333333,-3.384522666666667,2.3728765333333333
140,1778255690980,-0.74895068,-0.3415581125,-2.3713821999999998,-1.52612445,-3.590473775,2.863697275
141,1778255690990,-0.6822864559999999,-0.553912304,-2.19612464,-1.63592662,-3.92912148,3.1807732
142,1778255691000,-0.6452874,-0.6545615,-2.136477,-1.696833125,-4.197941,3.4286868249999998
143,1778255691010,-0.44189003600000004,-1.0555964,-1.8579590400000001,-1.85366666,-4.7343548,4.38111316
144,1778255691020,-0.27773714,-1.296188,-1.6766733,-1.9126823,-4.887966,4.8091364
145,1778255691030,0.6823841,-1.6249331,-1.7452533,-2.336923925,-4.947887025,5.417934875
146,1778255691040,0.9307123500000001,-1.6786257,-1.76526605,-2.7638286499999998,-4.97345335,5.6522932
147,1778255691050,1.2456682285714287,-1.7602803,-1.7758651714285716,-3.1517370714285713,-4.987644242857143,5.667054885714285
148,1778255691060,2.067897,-2.4137263,-1.2825208,-4.240995333333333,-4.978513566666666,5.404974200000001
149,1778255691070,2.067897,-2.4137263,-1.2825208,-5.190501,-4.8570733,5.0807786
150,1778255691080,2.1484766166666667,-2.6908530833333337,-0.8878802916666667,-5.36200855,-4.76013425,5.034972266666667
151,1778255691090,1.9494805,-3.1972475,-0.278030036,-6.4384583399999995,-3.9373240000000003,4.8148886399999995
152,1778255691100,1.8785087,-3.3831215,-0.06589546,-6.5843997000000005,-3.711914,4.820854
153,1778255691110,1.8785087,-3.3831215,-0.06589546,-6.696430033333333,-3.4571382666666666,4.8789109999999996
154,1778255691120,1.9282963,-3.7496955,0.07272906,-6.9204907,-2.9475868,4.995025
155,1778255691130,2.01282145,-3.77845355,0.07687803333333333,-7.056844516666668,-2.9336496000000003,4.9341273333333335
156,1778255691140,2.5852008,-3.97398412,0.22433741999999998,-8.048392320000001,-3.08596472,4.290459
157,1778255691150,2.6226392,-3.9869192,0.25601605,-8.125837,-3.141465,4.205664
158,1778255691160,2.3751651333333332,-4.075430399999999,0.6772588633333334,-8.34901,-3.4053841333333335,3.7812449333333333
159,1778255691170,2.21101234,-4.1737692,1.012642374,-8.339955,-3.4866107,3.6820867
160,1778255691180,2.2009084,-4.18729,1.0438329,-8.339955,-3.4866107,3.6820867000000006
161,1778255691190,2.1407307714285717,-4.2306975,1.0450183,-8.162132285714284,-3.019263857142857,4.146694042857143
162,1778255691200,2.1821158499999997,-4.2475112500000005,0.970554665,-8.188953999999999,-2.7924576,4.443883875
163,1778255691210,2.350576375,-4.182164875,1.02992157,-8.342352250000001,-2.68260225,4.4818341
164,1778255691220,2.7345802,-4.086250499999999,1.1791218333333333,-8.4139915,-2.81895615,4.368916
165,1778255691230,3.0707281999999996,-3.6257143999999997,1.6919268,-8.12703575,-3.526957525,3.5730302
166,1778255691240,3.3395573,-3.0452243,2.23117125,-7.808921,-3.7768952000000002,3.1140344
167,1778255691250,3.4028902,-2.8784113,2.3656468,-7.601727,-3.8397458000000007,2.8905952
168,1778255691260,3.4028902,-2.8784113,2.3656468,-7.289471625,-3.089799625,2.372610175
169,1778255691270,3.3572026999999998,-2.71113438,2.4221704799999997,-7.2027855,-2.2652848,2.0266657
170,1778255691280,2.8762147,-2.0832727,2.79592,-7.0589747,-0.74728304,1.617604
171,1778255691290,2.586518733333333,-1.9202424333333334,2.906559233333333,-6.4160876,0.03160280666666663,1.2667769333333334
172,1778255691300,1.6117541,-1.3576904999999997,2.937961,-5.1303134,1.5893745,0.5651228
173,1778255691310,1.5368285199999998,-1.3147364199999998,2.8803635200000004,-4.425321479999999,0.712768436,0.1640507226
174,1778255691320,1.2371262,-1.1429201,2.6499736,-4.004329,-0.19867182000000003,-0.025566347
175,1778255691330,0.12544542642857143,-0.6964696671428572,2.3451810714285712,-3.1345406285714286,-2.7637526,0.4394976857142857
176,1778255691340,0.37495328,-0.6637543533333333,2.484258666666667,-2.8241935666666667,-3.335343133333333,0.9482629333333333
177,1778255691350,0.5375116839999999,-0.6627130400000001,2.50612614,-2.7595675,-3.4088464000000003,1.0620687
178,1778255691360,1.2038124000000001,-0.6045298,2.60189435,-2.874704916666667,-3.319896733333333,1.4597673833333333
179,1778255691370,1.5163277,-0.5098356,2.762484,-3.1553133,-3.2618399,1.8748654
180,1778255691380,2.348990075,-0.24991462500000003,3.601736025,-3.1553133,-3.2618399,1.8748654
181,1778255691390,3.1662360666666665,-0.10990711333333332,4.4364729,-2.971910166666666,-4.268869866666667,1.8832100666666667
182,1778255691400,3.436082,-0.08322352,4.713966,-2.858637,-4.3952813,1.7933728
183,1778255691410,3.8150541799999997,-0.091130974,5.291502899999999,-2.6969298999999998,-4.398264039999999,1.6929183399999999
184,1778255691420,4.248365525,-0.1864597375,6.3257809,-0.6823018999999999,-3.5550539,0.707601905
185,1778255691430,3.7772740750000002,0.152901865,5.615208025,1.05634285,-2.334127625,-0.05632585000000001
186,1778255691440,3.4696153799999996,0.43393378,4.59628148,1.9934293,-0.9865414400000001,-0.7238471740000001
187,1778255691450,3.389223,0.5188657,4.1763077,1.8764633,-0.819721,-0.80800307
188,1778255691460,3.478792,0.24716897499999999,4.2399456749999995,1.3989585500000001,0.40120522750000004,-1.06819395
189,1778255691470,3.58239435,-0.12105239000000001,4.2229228,1.4349113000000002,1.8445054,-1.4317155
190,1778255691480,3.48556465,-0.997706,4.267401899999999,2.6477149,2.3957798,-1.7757958
191,1778255691490,3.3565804,-1.1786134499999998,4.117245575,2.9340047,2.39870925,-1.79497055
192,1778255691500,3.2176855714285715,-1.3013132857142857,3.7752865428571427,3.2202945,2.4016387,-1.8141453
193,1778255691510,3.1097163,-1.367391725,3.2814715750000003,3.74799985,2.418549875,-1.805090625
194,1778255691520,3.045021033333333,-1.3863264,2.6859314,4.099138,2.5683527,-1.7523600000000001
195,1778255691530,3.0452766142857146,-1.3630596714285714,2.414667485714286,4.194402371428572,2.7616981,-1.8063842
196,1778255691540,3.0204525,-1.3415827,2.328062,4.2514706,2.8320055,-1.881257
197,1778255691550,2.90440335,-1.295089825,2.2098162500000003,4.3173839,2.778475975,-1.9559587250000001
198,1778255691560,2.7609788,-1.2863037000000002,2.1362330833333334,4.579039166666667,2.46768505,-2.3368351333333335
199,1778255691570,2.468577975,-1.32614605,2.048982725,4.704873475,2.5269405249999997,-2.45197235
200,1778255691580,2.42597776,-1.3283547599999999,2.0209405800000004,4.75725784,2.6955453,-2.5100825
201,1778255691590,2.2270223199999997,-1.2918438799999998,1.9034024200000002,5.182511440000001,3.42546434,-2.7610588999999996
202,1778255691600,2.183092,-1.2866699,1.8850980999999998,5.2624063,3.478621,-2.7803402
203,1778255691610,2.0553281,-1.24200735,1.7397620500000002,5.527568666666667,3.60006125,-2.8827832499999997
204,1778255691620,2.033729,-1.2371262,1.6905845,5.748167,3.629356,-2.9768815
205,1778255691630,2.025187,-1.3020454,1.5162056,6.2259383,3.448261,-3.3949978
206,1778255691640,2.012391357142857,-1.6760108571428574,1.0242385142857144,6.355519785714286,2.9574024571428574,-3.8590726999999996
207,1778255691650,2.0054183,-1.7369554,0.9798898,6.3638897,2.8714204,-3.9345543
208,1778255691660,2.0054183,-1.7369554,0.9798898,6.3227438750000005,2.7012443499999996,-4.0939446
209,1778255691670,1.8565433833333334,-2.026366566666667,0.8352859083333333,6.192382300000001,2.4431841,-4.3207126
210,1778255691680,1.8267684,-2.0842488,0.80636513,6.1923823,2.4431841,-4.3207126
211,1778255691690,1.6528777,-2.3721144499999998,0.7902573749999999,5.832456125,2.736131775,-4.3992759
212,1778255691700,1.6494364799999999,-2.3859036600000003,0.7970421599999999,5.7502975,2.9795446,-4.388357
213,1778255691710,1.6918048,-2.3907847,0.7987994,5.70715425,3.1582428,-4.3750411499999995
214,1778255691720,1.7014857333333335,-2.3497424833333334,0.7122810833333334,5.504843066666666,3.7618038333333335,-4.31503095
215,1778255691730,1.859228125,-2.1530731750000003,0.419717425,4.7514789,4.95041725,-4.137620425
216,1778255691740,1.92866245,-2.0692394,0.32752482,4.2043323500000005,5.77040445,-3.994475475
217,1778255691750,1.9641030857142856,-2.0258493857142854,0.3017244985714286,4.085289,5.9500346,-3.9606533
218,1778255691760,1.9390348,-2.0102994,0.4898229,3.6709013,6.678143000000001,-3.8136467999999994
219,1778255691770,1.9390348,-2.0102994,0.4898229,3.6709013,6.678143,-3.8136468
220,1778255691780,1.7423944,-1.966578342857143,0.6183713571428572,3.3817581,6.798289285714286,-3.343789
221,1778255691790,1.4254773749999998,-1.9148731,0.9746425750000001,3.6598492,5.845372175,-3.049452575
222,1778255691800,1.4072341,-1.9170696,1.036267,3.7364151,5.6208677,-2.9816751
223,1778255691810,1.42422042,-1.89012576,1.1846538800000002,4.179565,4.8304415,-2.7451866
224,1778255691820,1.6451899,-1.86630575,1.2749551000000001,4.463324825,4.4904890250000005,-2.698181775
225,1778255691830,1.8619128,-1.8492217,1.3281596,5.3146043,3.4706316,-2.5571673
226,1778255691840,2.3736519199999995,-1.7549669399999999,0.16713040920000002,5.97634664,2.3936493800000003,-3.25502204
227,1778255691850,2.4422808,-1.7523311,-0.041001618,5.9590893,2.3691483,-3.3220272
228,1778255691860,2.16393355,-1.64177315,-0.622345959,4.7833038,3.0531368000000003,-3.5621556166666664
229,1778255691870,2.269427375,-1.65696575,-0.654378465,5.3978283000000005,2.605903125,-3.628956575
230,1778255691880,1.8855863,-1.5312152,-1.2036903,4.5481467,3.1899345,-3.6101812999999994
231,1778255691890,0.8887344583333334,-1.2583591666666667,-1.2581151000000002,3.8473802,2.5665771,-3.0674289
232,1778255691900,0.83150303,-1.2542102,-1.2368821,3.9329565,2.0847225,-2.936934
233,1778255691910,0.83150303,-1.2542102,-1.2368821,3.9329565,2.0847225,-2.936934
234,1778255691920,0.77019585,-1.20569162,-1.5242351200000002,3.9329565000000004,2.0847225,-2.936934
235,1778255691930,0.416056585,-0.9520063074999999,-2.87926545,4.0120521,0.14447649499999998,-2.9848709749999998
236,1778255691940,-0.16839951,-0.710889934,-3.7574566399999996,3.02226186,0.42322958,-2.9267075
237,1778255691950,-0.5549862,-0.61746484,-4.1494613,2.3249397,0.74728304,-2.8107002
238,1778255691960,-0.8998391,-0.64040625,-3.9544597,0.98057595,1.2125372700000001,-2.5739452
239,1778255691970,-1.15502534,-0.7214332499999999,-3.43569178,-0.9138903599999999,1.69526182,-2.09601428
240,1778255691980,-1.4472594,-0.8600578000000001,-2.5245283,-0.9491506,1.6092950000000001,-1.71954982
241,1778255691990,-1.6349395,-0.9526774499999999,-1.9995611,-0.9925601500000001,1.5390408,-1.46367335
242,1778255692000,-1.8511254799999999,-1.04036716,-1.5204278599999999,-0.62690816,1.33253925,-1.399437936
243,1778255692010,-2.04612722,-1.00336815,-1.9809638200000002,1.97990046,-0.099602224,-0.09512811839999999
244,1778255692020,-2.1309249,-0.9694564125,-2.27558975,2.289785875,-0.4440821125,0.102398542
245,1778255692030,-2.283358916666667,-0.8435025,-2.9959653833333335,2.495204466666667,-0.79477605,0.4111033
246,1778255692040,-2.3517356,-0.7577977650000001,-3.4971573,1.685514725,-0.3451456825,1.368199075
247,1778255692050,-2.386147625,-0.7225315,-3.6524998,1.4327807,-0.18269286,1.5808525
248,1778255692060,-2.4211872285714287,-0.6984221114285714,-3.602424571428571,1.2352502428571428,-0.1329297902857143,1.710662557142857
249,1778255692070,-2.2737594,-0.78305768,-3.1000152,0.00039947499999999636,-0.24833979,2.8381308
250,1778255692080,-1.890589575,-0.912835075,-2.596159,-0.15499598,-0.7344999,3.5420043
251,1778255692090,-1.4954782142857144,-0.9702321428571429,-2.5239704571428567,0.021837922,-1.2026836,3.9441415999999996
252,1778255692100,-1.3142482666666666,-0.9872115666666668,-2.536161633333333,0.25104732,-1.8824998,4.349829933333333
253,1778255692110,-0.8786060849999999,-0.9780594,-2.6464347000000004,0.3371562025,-2.3450465,4.55520395
254,1778255692120,-0.5954996666666666,-0.9676056000000001,-2.783961,0.225303428,-2.776434266666667,4.752322266666667
255,1778255692130,-0.0350222075,-0.94602695,-2.99293495,-0.9287774689999999,-2.793123475,5.22365725
256,1778255692140,0.11661055199999999,-0.9342023700000001,-2.9958026,-1.2506205,-2.7174897,5.322061
257,1778255692150,0.28932985000000006,-0.9784254583333333,-2.8474158666666667,-2.04610675,-2.5632926,5.5585498499999995
258,1778255692160,0.716674085,-1.1581736999999999,-2.2074979,-3.03600375,-2.407897125,5.90476095
259,1778255692170,0.99209267,-1.2866699,-1.7969935999999997,-3.762514133333333,-2.404302,6.2339277
260,1778255692180,1.245424122,-1.36252286,-1.52589476,-4.36012768,-2.56153496,6.17129002
261,1778255692190,1.72035955,-1.52145285,-0.975374765,-4.429636,-2.66529165,6.0424463
262,1778255692200,1.8152978,-1.5666034,-0.83150303,-4.403004216666667,-2.7473169666666664,5.8878055
263,1778255692210,1.5975988,-1.8194468,-0.6274712,-4.2844934,-2.9981868,5.4759917
264,1778255692220,1.5975988,-1.8194468,-0.6274711999999999,-4.2844934,-2.9981868,5.4759917
265,1778255692230,1.5147413500000002,-1.9503833999999998,-0.7343682500000001,-4.4742881,-3.0294346,5.5429258
266,1778255692240,1.6578809,-2.258668333333333,-0.8394755466666667,-5.201863833333333,-3.135961,5.825931333333333
267,1778255692250,1.7708794,-2.3473425,-0.83858067,-5.375857,-3.1579764,5.9005
268,1778255692260,1.9733249,-2.65131575,-0.781593345,-6.0665923,-3.144660633333334,6.182795033333334
269,1778255692270,2.4925568,-3.035828,-0.3248402,-6.533089400000001,-3.0896220000000003,6.339743933333334
270,1778255692280,2.4925568,-3.035828,-0.3248402,-7.502125,-2.702576,6.466155
271,1778255692290,2.85546982,-3.4001566600000004,0.7728804480000001,-8.1483144,-1.59960112,5.5937038
272,1778255692300,2.9018407,-3.4253433,1.0225998,-8.114652,-1.5041534,5.256015
273,1778255692310,2.9018406999999997,-3.4253433,1.0225998,-8.114652,-1.5041534,5.256015
274,1778255692320,2.8598628,-3.3897111000000004,1.2632403,-7.726363000000001,-1.9254655,4.3249736
275,1778255692330,2.793153866666667,-3.371976333333333,1.3047300333333334,-7.641141999999999,-2.1552075,4.211878066666666
276,1778255692340,2.5086296571428575,-3.2064938285714284,1.519465557142857,-7.364934428571429,-2.8215049999999997,3.9432286000000003
277,1778255692350,2.3468544,-3.0336316,1.6354275,-7.109575000000001,-3.3923347,3.7502635
278,1778255692360,2.3470986,-2.7214823,1.7318302,-6.031261075,-4.18901915,3.7847514249999996
279,1778255692370,2.4486264666666666,-2.4230816333333336,1.7860923666666666,-5.847236649999999,-3.5880770999999996,3.6823528999999997
280,1778255692380,2.6199546,-2.1849226,1.91987635,-5.782921249999999,-2.959437875,3.5019237
281,1778255692390,2.57095995,-1.97954845,2.094316275,-5.666408,-1.74064214,3.126684225
282,1778255692400,2.2892568,-1.6698397,2.3837073,-5.200621,0.17310549333333336,2.5750992333333333
283,1778255692410,1.94239065,-1.3365794750000002,2.2891351,-4.327104,2.1877869,1.93159075
284,1778255692420,1.7803977,-1.1443844,2.0991364,-4.076767,2.5513084,1.7528926
285,1778255692430,1.544882366666667,-0.7407950666666666,1.4642620766666667,-3.5961553333333334,2.927524366666667,1.0297556433333332
286,1778255692440,1.32420576,-0.345585062,0.71499015,-3.6504483199999997,2.37095908,-0.033768889999999996
287,1778255692450,1.2424954,-0.27529657,0.58232063,-3.7870152,2.0863204,-0.29348037
288,1778255692460,1.1844586,-0.251183714,0.538634378,-4.43096748,1.40753392,-0.6817692479999999
289,1778255692470,0.81313775,-0.27895743,0.46505109499999997,-5.1265853,0.84315682,-0.750478805
290,1778255692480,0.38805102,-0.761092525,0.974520585,-6.2349928666666665,0.057524282,-0.66170675
291,1778255692490,0.357055744,-0.909699,1.40435422,-6.42109444,-0.1446629148,-0.380405918
292,1778255692500,0.3219115,-0.9684192,1.7401282,-6.4613614,-0.22903186,-0.24021713
293,1778255692510,0.41404311999999993,-0.88397535,2.1091427499999997,-6.4231895,-0.27572595,-0.18571110000000002
294,1778255692520,0.96256185,-0.60306543,3.0058090000000006,-6.23233,-0.5091964,0.08681905
295,1778255692530,1.7321230799999998,-0.70498382,3.56406564,-5.07140464,-1.93334848,-0.15595471
296,1778255692540,1.6542200285714286,-0.5419814428571429,3.9418381428571427,-4.523341171428571,-2.759871942857143,-0.34697184142857146
297,1778255692550,1.6205401000000001,-0.5012936,4.055743,-4.3334956,-3.0988543000000006,-0.25832662
298,1778255692560,1.6205401,-0.5012936,4.055743,-4.3334956,-3.0988543,-0.25832662
299,1778255692570,1.7165591857142855,-0.7730338571428571,4.2890619999999995,-4.283428,-3.2543827999999997,-0.056991648
300,1778255692580,1.7461075,-0.9747645999999999,4.56606715,-3.93721725,-2.10922358,0.456732146
301,1778255692590,1.98779748,-1.13198632,5.9249781200000005,-2.7738422,-0.4108725122,0.960868546
302,1778255692600,2.1563504714285715,-1.1977632428571428,6.739327428571428,-1.7390443142857142,0.05044788071428571,0.9496071642857142
303,1778255692610,2.2559838,-1.3355625666666668,6.492166833333333,0.44155213333333326,0.1873090011,0.8459975000000001
304,1778255692620,2.234344,-1.3162007,5.7321725,2.3526366,-0.0015978967,0.6631271
305,1778255692630,2.234344,-1.3162007,5.7321725,2.58784696,-0.07254450936,0.62733422
306,1778255692640,2.2776032,-0.91686205,4.354469425,3.5127094750000003,-0.3028014225,0.457264775
307,1778255692650,2.3180556,-0.7072778999999999,3.7106464,3.4647726999999997,-0.14221281,0.376571
308,1778255692660,2.46327,-0.5452239,3.3736033,3.4647727,-0.14221281,0.376571
309,1778255692670,2.55698795,-0.58085626,3.290257725,2.933072475,1.1187940075,0.0061252749999999995
310,1778255692680,2.569190783333333,-0.74783205,3.2120781666666667,2.9278794,1.9513869333333336,-0.36076957
311,1778255692690,2.4238547,-0.84163145,3.1655445,3.254116625,2.32906755,-0.6042712324999999
312,1778255692700,2.3807786,-0.8668914,3.150779,3.3230925,2.3829966,-0.6402239
313,1778255692710,2.3216469714285717,-0.8777693628571429,3.114309857142857,3.549841642857143,2.462891457142857,-0.7010961857142857
314,1778255692720,2.0776594,-0.9175332199999999,2.8848786000000004,3.6405413,2.4948494,-0.7254451
315,1778255692730,1.9815009,-0.93010217,2.7466202,4.9155564400000005,2.2307702199999997,-1.0371415000000002
316,1778255692740,1.9146291333333334,-0.9745206233333333,2.5349005333333334,5.0730558,2.20563005,-1.0924287
317,1778255692750,1.8877828,-0.9884319,2.460097,5.480786,2.150769,-1.2202604
318,1778255692760,1.7722950000000002,-1.0798068600000001,1.8673796200000001,6.21837484,1.9143867,-1.6631974200000001
319,1778255692770,1.77873804,-1.09791592,1.76658398,6.2403193,1.8998991,-1.6964337
320,1778255692780,1.8335409500000002,-1.134073025,1.6452509,6.238987725,1.958754975,-1.7896442750000001
321,1778255692790,2.02015952,-1.25645548,1.51134894,6.2055916,2.29681664,-2.1660020799999997
322,1778255692800,2.17952896,-1.4835752,1.28452208,6.1614895,2.5390577,-2.3110912
323,1778255692810,2.2668037,-1.6852154,1.0433447,5.9628177,3.9345543,-2.7382622
324,1778255692820,2.1527069333333335,-1.6988012,1.0185321999999999,5.7689399,4.351161350000001,-2.7930345666666665
325,1778255692830,2.1935866,-1.7472057,1.0836142,5.6794577,4.6637278,-2.8687572
326,1778255692840,2.1935866,-1.7472057,1.0836142,5.6794577,4.6637278,-2.8687572
327,1778255692850,2.455216,-2.207742,0.9752528,5.651227999999999,4.910869,-3.0663638
328,1778255692860,2.4053305600000003,-2.3340169800000004,0.9727633920000001,5.7067283,5.110819220000001,-3.41790112
329,1778255692870,2.2672104333333336,-2.403638433333333,0.9512537533333334,5.796104,5.13564,-3.636813
330,1778255692880,2.10247185,-2.4212511833333332,0.8419975166666668,5.87892825,5.0360375500000005,-3.7027704666666668
331,1778255692890,1.7395791,-2.374555,0.3945185475,5.56094675,4.8900968250000005,-3.44240215
332,1778255692900,1.7074246,-2.3651588,0.36291313,5.498895,4.888499,-3.3939326000000003
333,1778255692910,1.735003,-2.1891935,0.38902727,5.036481666666666,5.02707175,-2.9740409166666666
334,1778255692920,1.7627035000000002,-2.15148665,0.415385435,4.8277785,5.181978900000001,-2.81070025
335,1778255692930,1.78630384,-2.1103142000000004,0.4591693,4.6542468,5.3172674,-2.6728549
336,1778255692940,1.6617858,-2.0437355,0.5620638,4.7345676,5.1739893,-2.5656893
337,1778255692950,1.6617858,-2.0437355,0.5620638,4.7345676,5.1739893,-2.5656893
338,1778255692960,1.6617857999999999,-2.0437355,0.5620638,4.772917233333334,5.031687883333333,-2.4670636166666666
339,1778255692970,1.5730466,-1.8679653200000002,0.334065562,4.79827064,4.882959319999999,-2.36510004
340,1778255692980,1.6897710333333331,-1.7402095,0.20761137333333335,4.696040666666668,4.465411166666667,-2.178110666666667
341,1778255692990,1.790055285714286,-1.5305178571428573,0.06028214428571428,4.5861915714285715,4.1468462285714285,-2.2238156428571427
342,1778255693000,1.7718556,-1.5024164000000002,0.026602242,4.570517,4.086887,-2.2338595
343,1778255693010,1.7247036999999998,-1.4497000400000002,-0.0390003456,4.570517,4.086887,-2.2338595
344,1778255693020,1.9851615,-1.3008251,-0.34192422,4.482366475,3.495532125,-2.1788653
345,1778255693030,2.0077125600000003,-1.2277543999999998,-0.534631788,4.35384242,3.27419676,-2.52382444
346,1778255693040,1.8122471,-1.1226634,-0.807158325,4.374908125,3.28940335,-2.74731705
347,1778255693050,1.7420806000000002,-1.103871,-0.8551766,4.436915416666667,3.226597116666667,-2.7480272833333337
348,1778255693060,1.57111855,-0.9506030000000001,-1.30887895,4.9004828499999995,2.18032995,-2.83946235
349,1778255693070,1.4001565,-0.797335,-1.7625813000000001,5.1612062,1.4247912,-3.033873
350,1778255693080,1.1880219300000001,-0.782203448,-2.0259679,4.9562493199999995,0.8395349120000001,-3.1676702800000003
351,1778255693090,0.03856106000000001,-0.67396407,-3.4293704,4.18089665,-0.19973709,-3.2932651
352,1778255693100,-0.3478512928571429,-0.5849006342857143,-3.9343074999999996,3.7129793,-0.36112466000000004,-3.2181639999999994
353,1778255693110,-0.656086875,-0.4680408025,-4.344219174999999,-0.45327002,1.979794,-2.4208136
354,1778255693120,-0.9396204000000001,-0.4275882999999999,-4.4108467,-0.45327002,1.979794,-2.4208136
355,1778255693130,-1.3507755333333333,-0.5852493,-3.7188630333333332,-0.9663724133333332,2.299906,-2.0941324333333333
356,1778255693140,-1.6300584,-0.7397375,-2.6033587,-1.7928400500000001,2.4284035,-1.0033459275
357,1778255693150,-1.6300584,-0.7397375,-2.6033587,-1.726261,2.257828,-0.85753787
358,1778255693160,-1.2781278,-0.5593792066666667,-1.8685836,-1.22594181,1.8311896,-0.7080457633333334
359,1778255693170,-1.4066849499999998,-0.6233222,-2.0400745999999996,0.43249738,1.4652712,-0.44741106
360,1778255693180,-2.01947616,-0.516473932,-2.2637285599999997,0.955116136,1.08049772,-0.0686030282
361,1778255693190,-2.2716036666666666,-0.41042293999999996,-2.8601068,1.8748655333333335,-0.27270770000000005,0.6475032533333334
362,1778255693200,-2.3622303,-0.41001618,-3.121004,2.0708742,-0.6791061,0.85594
363,1778255693210,-2.30910705,-0.38703413,-3.416638733333333,2.0356316833333334,-0.7347661666666667,0.9155948166666666
364,1778255693220,-2.11469505,-0.40556211,-3.55438885,0.9934922749999999,-1.2471583499999999,1.8346517
365,1778255693230,-1.8726513,-0.42368335,-3.4492612,0.44967477,-1.40681485,2.15316575
366,1778255693240,-1.6645053,-0.4714837428571429,-3.230760185714286,-0.12440765999999999,-1.676878442857143,2.670617971428572
367,1778255693250,-1.3869773,-0.5352176,-2.9394255,-0.45380265,-1.8471686,2.9997847
368,1778255693260,-1.1743424625,-0.564626475,-2.771087,-0.6221144375000001,-1.9161444250000002,3.27848445
369,1778255693270,-0.7545901642857142,-0.6197659257142857,-2.453019257142857,-0.7584683,-1.9409119,3.5446675
370,1778255693280,-0.5720702,-0.64260274,-2.3383124,-0.8655274,-1.8684739,3.7651772
371,1778255693290,0.08542004,-0.7487676,-2.0056624,-1.165133015,-1.83944545,4.2016693499999995
372,1778255693300,0.11462555666666667,-0.75690285,-1.9899614166666666,-1.3379722,-1.8908445,4.2626557
373,1778255693310,0.2930517425,-0.8030093825,-1.8945554999999998,-1.45834705,-1.933455,4.31485365
374,1778255693320,0.39024755,-0.81930023,-1.8438525,-1.8817897,-2.0932446,4.4416203
375,1778255693330,0.7824475733333335,-0.8763282633333334,-1.7814552333333333,-1.8817897,-2.0932446,4.4416203
376,1778255693340,1.10753185,-0.99270288,-1.5648951,-2.9394640499999998,-3.9430764,4.377038475
377,1778255693350,1.159272,-1.057256,-1.4475036,-3.4458641333333335,-4.721074583333333,4.390753666666666
378,1778255693360,1.4243181,-1.3152245,-1.095573,-3.9926112000000002,-4.8410945,4.6339
379,1778255693370,1.555193775,-1.41919295,-0.9551790299999999,-4.0602555,-4.835901274999999,4.666657
380,1778255693380,1.829278857142857,-1.6426448142857144,-0.5628657114285714,-4.362942942857143,-4.744307471428571,4.810582085714286
381,1778255693390,1.9900427,-1.8431203,-0.24088451,-4.5151234,-4.4586644,4.8837047
382,1778255693400,1.9900427,-1.8431203,-0.24088451,-4.5151234,-4.4586644,4.8837047
383,1778255693410,1.9865910857142859,-1.9380585285714285,-0.11707774785714285,-4.519232285714286,-4.235491485714285,4.929815528571429
384,1778255693420,2.066615775,-2.056243275,-0.14429884875,-4.7553406,-2.7297401,5.0749197
385,1778255693430,2.0866895,-2.067653,-0.17840585,-4.7553406,-2.7297400999999994,5.0749197
386,1778255693440,2.5552793,-2.178699,-0.30677995,-5.300756,-2.4543693,4.708469
387,1778255693450,2.4483821,-2.3334312,-0.46224442000000004,-5.928197,-2.4282703,4.4714475
388,1778255693460,2.3901746,-2.413238025,-0.41538542500000003,-6.612629,-2.3350596,4.184891
389,1778255693470,2.0303123,-2.7605317,0.03441207,-7.6821547,-2.0575583,4.010188
390,1778255693480,1.9956562,-2.89268865,0.326304515,-7.86351585,-1.92946025,3.99474175
391,1778255693490,1.9605119999999998,-3.0487631499999996,0.76109251,-8.002533,-1.7678063499999999,3.9659796000000003
392,1778255693500,1.9600239,-3.0726807,0.90398806,-7.960189,-1.7342505,3.9526637
393,1778255693510,1.9600239,-3.0726807,0.90398806,-7.79400745,-1.7026920749999999,3.894739925
394,1778255693520,2.0232752666666665,-3.0376993166666666,1.1578076000000002,-7.7386136,-1.6921726,3.875432
395,1778255693530,2.16644726,-2.6872656,1.31673764,-7.1335435,-1.8242654000000003,3.5649076
396,1778255693540,2.2875485,-2.3800464,1.3244987,-6.8549767,-2.7585022,2.3643544
397,1778255693550,2.2875485,-2.3800464,1.3244987,-6.854976699999999,-2.7585022,2.3643544
398,1778255693560,2.343193725,-1.958742425,1.8229245250000001,-6.6989155,-2.6586337,2.07806465
399,1778255693570,2.337214075,-2.003038725,1.7556257750000002,-6.493319475,-2.377270775,1.71401055
400,1778255693580,2.4862111666666666,-1.5879584833333336,2.1208980499999996,-6.174983,-1.1716133666666666,1.1927410999999999
401,1778255693590,2.34768428,-1.2301462,1.9690050199999998,-5.89112556,0.033342764000000004,0.6392652200000001
402,1778255693600,2.3119543,-1.1478013,1.9265879,-5.8413777,0.25193503,0.5368933
403,1778255693610,1.4433545,-0.9669548000000001,1.7015672,-5.6519738,1.6298545999999998,-0.357183172
404,1778255693620,0.76497304,-0.8319911400000001,1.7306100199999999,-5.7642522,1.44471168,-0.6294647400000001
405,1778255693630,0.6168547,-0.9464539999999999,2.00078135,-5.825931,1.1478225,-0.7323693
406,1778255693640,0.6881193999999999,-1.121321,2.3866358,-5.379053075,-1.657018925,-0.6387591875
407,1778255693650,0.69614888,-1.15692896,2.68570358,-5.241634,-1.8301244,-0.61412495
408,1778255693660,0.6633476,-1.0518868,3.0326555,-4.61504504,-2.35849556,-0.35824843800000006
409,1778255693670,0.64187056,-0.7985553,3.3645732,-3.9997127999999997,-2.745896666666667,-0.082380452
410,1778255693680,0.7645499866666666,-0.7118336133333334,3.5362268,-3.4809292,-2.9262814,0.12481348600000002
411,1778255693690,1.16210294,-0.53990342,3.95431308,-2.76084582,-3.1811992399999998,0.190256232
412,1778255693700,1.3862451,-0.45419051999999993,4.1758194,-2.4857945,-3.2985914000000003,0.1768339
413,1778255693710,1.5463467,-0.45199401,4.30272935,-2.23599,-3.5723643,0.17896444
414,1778255693720,2.1599065833333335,-0.5376581133333334,4.778031016666667,-1.8919984166666666,-3.1577988833333333,-0.09267801000000002
415,1778255693730,2.3998636400000004,-0.5734857,5.1767959999999995,-1.3784522,-0.66579026,-0.350472
416,1778255693740,2.3014597749999997,-0.6020281725000001,5.240702375,-1.2066783499999998,0.17430391,-0.368847825
417,1778255693750,2.2286087,-0.6229560916666667,5.242024333333333,-1.0980213833333332,0.60400495,-0.37097835500000004
418,1778255693760,1.879851025,-0.698125775,5.227462275,-0.39521313,1.8823223,-0.23435818
419,1778255693770,1.8211553000000003,-0.7050814,5.2247777,-0.291243316,1.91545204,-0.2064482508
420,1778255693780,1.7422026833333335,-0.7087015666666666,5.104010016666667,0.6900250200000001,1.88631705,0.03781688800000001
421,1778255693790,1.7125497,-0.6765267,4.7639976,1.8492991,1.4823155,0.2545982
422,1778255693800,1.7125496999999998,-0.6765267,4.7639976,1.8492991,1.4823155,0.2545982
423,1778255693810,1.7956512333333334,-0.66086636,4.515954066666667,2.3171276833333336,1.280803,0.2590368083333333
424,1778255693820,1.7674626,-0.6424806999999999,4.1681317,2.933338825,0.9590043425,0.2162486825
425,1778255693830,1.79279576,-0.671352684,3.95480126,3.226686,0.79894835,0.19281286
426,1778255693840,2.0783916,-0.8254015999999998,3.5798316,3.9846218000000007,0.8394283699999999,-0.11345066
427,1778255693850,2.1221592,-0.8462278233333334,3.543385733333333,4.088307533333333,0.95394428,-0.17399319
428,1778255693860,2.1618999,-0.9283531283333333,3.077155,4.6658585,1.78085585,-0.5791487916666667
429,1778255693870,2.042271,-0.88421935,2.745156,4.862932,2.201369,-0.7451525
430,1778255693880,1.94796732,-0.819202558,2.54502904,4.9140648,2.44382316,-0.8111989
431,1778255693890,1.8596349333333333,-0.7534860800000001,2.378175166666667,4.9534796666666665,2.7503352833333334,-0.8827491416666667
432,1778255693900,1.803095,-0.704837355,2.23715075,4.960004425,2.8699556,-0.9149290025000001
433,1778255693910,1.7789333,-0.68091977,2.1545374,4.9635997,3.0812774,-0.9784454
434,1778255693920,1.8347411333333332,-0.7193994466666668,1.8730579333333335,4.939809,3.7163525666666666,-1.3344213
435,1778255693930,1.872834375,-0.8286964,1.8142605,4.975317875,3.9954076,-1.536643975
436,1778255693940,1.88812438,-0.93425116,1.7501833999999998,5.0230413,4.285559000000001,-1.68056126
437,1778255693950,1.8909554,-0.9540197999999999,1.7376876999999997,5.032309,4.342018,-1.7060211
438,1778255693960,2.0322647,-1.308635,1.5614783,5.02525175,4.6449525000000005,-1.754091125
439,1778255693970,2.1120715,-1.5565971,1.4941185,5.01366725,5.18903625,-1.8639464000000001
440,1778255693980,2.1172943,-1.6072633800000002,1.48879804,5.0598996,5.64078832,-1.8556906400000002
441,1778255693990,2.0496415800000003,-2.0605265000000004,1.4351053999999999,5.2772135,6.68954126,-1.75395796
442,1778255694000,1.8759217,-2.4781084200000003,1.3687218399999999,5.6243832,6.94307426,-1.51384734
443,1778255694010,1.7572122999999997,-2.6062875,1.26202,6.117281,6.557235199999999,-1.1930962
444,1778255694020,1.7445822249999998,-2.62385955,1.18184725,6.3045013,6.1809306,-1.096157125
445,1778255694030,1.7582697333333333,-2.5981521666666665,1.0104783333333334,6.630649683333334,5.22450075,-0.9459548416666667
446,1778255694040,1.956851,-2.4644902,0.58036816,6.5625615,4.0053945,-1.1100056
447,1778255694050,1.969725,-2.44545365,0.5599893775,6.519152025,3.9465386250000005,-1.165532475
448,1778255694060,1.9578271999999999,-2.353444,0.482379155,6.301838149999999,3.7744983,-1.4064153
449,1778255694070,1.834273225,-2.282484525,0.397447245,6.0605557,3.93122535,-1.5238608
450,1778255694080,1.79074558,-2.2585059,0.34656131,6.0091567,3.9819586,-1.5382419
451,1778255694090,1.55371718,-2.0991852599999996,0.13764828599999998,5.1521516,5.045625,-1.3422332
452,1778255694100,1.513643,-2.0713139,0.11348662,5.0682621,5.0501525,-1.2745889
453,1778255694110,1.4328600666666667,-1.9451361666666667,0.124875952,4.9589837333333335,4.885303,-1.1361045133333334
454,1778255694120,1.34756205,-1.82444995,0.0759018045,4.92298625,4.0659814,-0.8362325850000001
455,1778255694130,1.4099675,-1.7214334,0.014204131399999997,5.0199518,3.1403996800000002,-0.666855544
456,1778255694140,1.65890594,-1.61761144,-0.0935715484,5.0855726,2.35402136,-0.6858172880000001
457,1778255694150,1.7569193200000002,-1.53555938,-0.31073367199999996,5.0510581199999995,2.26688276,-0.743021988
458,1778255694160,1.7698421500000001,-1.474593875,-0.48451462999999995,4.82484895,2.21215495,-0.89548792
459,1778255694170,1.8814780666666666,-1.2444884833333332,-0.7783798916666668,4.353380666666666,2.3892105999999997,-1.00809522
460,1778255694180,2.1457515,-0.85542065,-1.1568314,4.0414357999999995,2.8332483666666666,-1.2919882333333332
461,1778255694190,2.132389275,-0.7490727125000001,-1.4149219249999998,3.9611859000000003,2.8972530499999998,-1.5699334999999999
462,1778255694200,2.1285453000000003,-0.68653304,-1.5698982666666665,3.9921674166666663,2.6635163,-1.79612465
463,1778255694210,1.443061618,-0.444184178,-2.65851564,3.9660862199999998,1.8396051800000002,-2.4204939
464,1778255694220,0.8451702539999999,-0.33528584199999995,-3.22448446,3.8503983000000006,1.4040185,-2.7771444
465,1778255694230,0.05027579,-0.04271002,-3.6003325,1.419465,1.3097427,-2.4437168
466,1778255694240,-0.04515059,-0.0085420045,-3.5786115,0.95341174,1.4982945,-2.32866815
467,1778255694250,-0.18662243999999997,0.03668993833333333,-3.4831037666666664,0.3684927216666667,1.7583965499999998,-2.1725180666666666
468,1778255694260,-0.38683072,-0.067359805,-3.0331435,-0.902279,1.9563582,-1.9052254999999998
469,1778255694270,-0.38683072,-0.067359805,-3.0331435,-0.902279,1.9563582,-1.9052255
470,1778255694280,-0.5770326666666666,-0.072403652,-2.8276472666666663,-0.86526107,1.77552955,-1.81068325
471,1778255694290,-1.09618313,-0.06845805599999999,-2.3130525,-0.66978502,1.44689545,-1.58777665
472,1778255694300,-1.2349297,-0.054424766,-2.2094502,-0.5113269,1.29909,-1.4594123
473,1778255694310,-1.4728855166666666,-0.08838939516666666,-2.0497961,-0.5113269,1.29909,-1.4594123
474,1778255694320,-1.6122422,-0.102992155,-1.956851,0.3211772625,0.561660675,-0.7691209250000001
475,1778255694330,-1.6122422,-0.102992155,-1.956851,1.3460948625,0.165249145,-0.004527375000000021
476,1778255694340,-1.9369848400000003,0.0414409216,-1.90145016,1.70964296,0.080960098,0.234038594
477,1778255694350,-2.0134723,0.09200958249999999,-2.300849825,2.1672804,-0.05539375,0.47564057
478,1778255694360,-2.2260461333333335,0.06906820066666668,-3.362539433333333,2.8502038833333336,-1.1192379166666668,0.9216312833333333
479,1778255694370,-2.32800115,0.022880367,-3.623945125,2.6668895999999997,-1.553288725,1.29988895
480,1778255694380,-2.3896459333333335,-0.08306082,-3.957876333333333,2.1401161666666666,-1.8702492666666668,1.8615496
481,1778255694390,-2.2942602,-0.16429121500000002,-4.1006091,1.5630092883333333,-2.0712291666666665,2.3422502
482,1778255694400,-1.3303561,-0.44808912,-3.5161326,0.90920323,-2.275405,2.7803402
483,1778255694410,-1.263118325,-0.4712745525,-3.368111925,-0.733434585,-2.73586545,3.79260775
484,1778255694420,-0.9578433666666667,-0.5650738666666667,-2.8151189666666667,-0.9214537333333332,-2.8771018,4.0961191999999995
485,1778255694430,-0.38707477,-0.6604189,-2.3624742,-1.0860372,-3.1925976,4.6317697
486,1778255694440,-0.2064114025,-0.661761225,-2.2627767999999997,-1.0860372,-3.1925976,4.6317697
487,1778255694450,0.3355787,-0.6657882,-1.9636846,-1.0812434,-3.4099116,4.854943
488,1778255694460,0.5790258125,-0.6776859749999999,-1.943366725,-1.193895125,-3.499793275,4.9076735
489,1778255694470,1.1207108,-0.677747,-1.956607,-1.34170058,-3.7540985200000003,5.0879162
490,1778255694480,1.5983308999999999,-0.6892990333333332,-1.9349672666666666,-2.4582752666666665,-3.7923413999999998,4.743267333333333
491,1778255694490,1.8131012499999999,-0.82955057,-1.5411605499999999,-3.670235625,-3.80139615,4.44521525
492,1778255694500,1.9593892199999998,-0.9383024760000002,-1.2576758,-4.0021987,-3.8024614,4.369182
493,1778255694510,2.1032365200000003,-1.1882171400000001,-0.66461672,-4.79869688,-3.64874372,4.06941672
494,1778255694520,2.1032853,-1.2263877,-0.5757311,-4.8849477666666665,-3.5954450000000002,3.987462333333333
495,1778255694530,2.1134543333333333,-1.2604743333333335,-0.44825184333333334,-4.879088733333334,-3.4273108000000003,3.8187954333333334
496,1778255694540,2.0404161600000004,-1.45262872,0.18431203000000002,-4.70569902,-3.1928105,3.7091442799999994
497,1778255694550,1.946844625,-1.564895075,0.48597898,-4.5902247,-3.0232205,3.6767602
498,1778255694560,1.9126766666666668,-1.6133811,0.5300923333333333,-4.517786500000001,-2.8428356999999997,3.659360866666667
499,1778255694570,1.8834874199999998,-1.64328632,0.513740494,-4.45429684,-2.45692594,3.6029374400000003
500,1778255694580,1.8467811,-1.6503152,0.47762007,-4.4474792,-2.3829966,3.5910065
501,1778255694590,1.7383499857142855,-1.7425689,0.33840280571428577,-4.941229299999999,-1.2740563,3.1638355
502,1778255694600,1.7218238,-1.7579445,0.3099527,-4.9412293,-1.2740563,3.1638355
503,1778255694610,1.68941308,-1.78703602,0.312100428,-5.06788918,-1.31048834,3.0608244
504,1778255694620,1.4128474,-1.9195102,0.4729829,-6.0613546,-1.9829898,2.1582258
505,1778255694630,1.2000295,-2.0647242,0.72045696,-6.1353908,-2.2327943,2.1081583
506,1778255694640,1.153024,-2.08039272,0.782252262,-6.09032996,-2.24174252,2.1362813199999997
507,1778255694650,1.0973789200000001,-2.09371826,0.835798424,-6.0602894,-2.247708,2.15503
508,1778255694660,0.9980314333333334,-2.099054966666667,0.9061845466666667,-5.8875391666666665,-2.180063666666667,2.2789558333333333
509,1778255694670,0.9938011000000001,-2.0866895,0.94816244,-5.7475457,-2.175713883333333,2.400307216666667
510,1778255694680,0.9827208800000001,-2.03582792,0.92639248,-5.35955828,-2.4170850799999997,2.63162928
511,1778255694690,1.0598185500000001,-1.9767416999999998,0.80770745,-5.195294499999999,-2.6162894999999997,2.68659685
512,1778255694700,1.0997219,-1.9517258,0.7482795,-5.168663,-2.7004454,2.6876621
513,1778255694710,1.3819742,-1.7018111,0.6194782825,-5.5649414,-3.5883434,2.6098979
514,1778255694720,1.1956364,-1.8782645,0.66139513,-5.189436,-3.0109699,2.6727486
515,1778255694730,1.7910548333333332,-1.6547081,0.7865151333333333,-5.915147083333333,-3.589586183333333,2.5721697000000003
516,1778255694740,1.9387907750000002,-1.4658687750000001,1.1484113125,-6.36388975,-3.0285467749999997,2.408562925
517,1778255694750,1.9675895,-1.4096746,1.2485968,-6.417153000000001,-2.900715,2.3787355
518,1778255694760,2.14306675,-0.886904,2.3095137,-6.12800055,-1.2661333937500001,1.8911773250000001
519,1778255694770,2.253461966666667,-0.7453508266666667,2.430484733333333,-5.6750188,-0.83907328,1.4057940333333334
520,1778255694780,2.44193916,-0.467369624,2.3463176,-5.4168696,-0.78936094,1.0492855
521,1778255694790,2.36802645,-0.33472450125000003,1.9918732125,-5.352021725,-0.9485513649999999,-0.10719223624999999
522,1778255694800,1.85605542,-0.44345200200000007,2.07614616,-5.92201812,-0.9321063479999999,-0.53241916
523,1778255694810,1.3957634333333333,-0.5433527633333334,2.7326276000000003,-6.661631466666667,-0.6475032566666666,-0.6904689333333334
524,1778255694820,1.3137602,-0.55718267,2.9848201,-6.603130683333333,-0.5353841616666667,-0.6087986783333333
525,1778255694830,1.3046894,-0.5610062416666667,3.1118925833333333,-6.244047599999999,-0.39468047,-0.47564057
526,1778255694840,1.2316654,-0.5704228250000001,3.9208407,-4.7000133375,-1.058606555,-0.466785565
527,1778255694850,1.0379754,-0.5025139,5.1359406,-3.1782165,-2.086853,-0.38615838
528,1778255694860,1.1885588,-0.50934744,5.200616,-2.0229373,-2.9262815,-0.25885928
529,1778255694870,1.4631842,-0.5422341925,5.054334375,-1.13976635,-3.29266585,-0.17909759375
530,1778255694880,1.8509709333333333,-0.4298661833333333,4.7170573,-0.5438175,-3.3230925,-0.10652645
531,1778255694890,2.177827485714286,-0.15389552542857143,4.492048,-0.43546488571428565,-2.533731528571429,0.019783479714285714
532,1778255694900,2.3317533625,-0.0626616963125,4.480555,-0.40373522,-1.5803198,0.16298546
533,1778255694910,2.6463824285714286,-0.011679882857142857,4.833658285714286,-0.5715904671428572,-0.36873367428571424,0.13863656142857142
534,1778255694920,2.699029,-0.015375607,4.945088,-0.59601545,-0.058589544,0.12357068
535,1778255694930,2.727014422222222,-0.10887664966666666,5.3401351111111115,-0.17896444,0.7099988,0.08042747
536,1778255694940,2.6686033333333334,-0.28269964666666664,5.364215433333334,1.09668976,1.7446368,0.012516857916666667
537,1778255694950,2.6941478,-0.3533949,5.4922643,1.3518206,1.9515644,-0.0010652645
538,1778255694960,2.4919158875,-0.35434062375,4.910950275,2.7489149875,2.1435783375,-0.052197959437500004
539,1778255694970,2.435203271428571,-0.3116262257142858,4.024294885714285,3.5076115,2.012056242857143,-0.11443983828571427
540,1778255694980,2.575187314285714,-0.3537784171428571,3.6405322571428576,4.0795065,1.9107039285714287,-0.3556461542857143
541,1778255694990,2.58807445,-0.3858545175,3.5297085625,4.111921,1.911617,-0.38296258
542,1778255695000,2.5906677,-0.42978483,3.396545,4.111921,1.911617,-0.38296258
543,1778255695010,2.5765733500000003,-0.46993224625,3.2595982875000002,4.4309675,2.0844563,-0.72704297625
544,1778255695020,2.557859514285714,-0.58999096,2.9149849857142853,4.692109714285714,2.3023409142857143,-1.0344478857142858
545,1778255695030,2.5114188428571427,-0.7346820399999999,2.5916787428571433,4.935674857142857,2.7707528,-1.3929854714285714
546,1778255695040,2.459853,-0.7922098,2.3128083999999998,5.046158,3.029612,-1.556884
547,1778255695050,2.459853,-0.7922098,2.1852884,5.046158,3.029612,-1.556884
548,1778255695060,2.0479889428571427,-0.8312938599999999,1.9077258571428573,5.016634614285714,3.5461132,-1.7790678142857141
549,1778255695070,1.9614881,-0.82344913,1.833358,5.0072756,3.6171055,-1.816276
550,1778255695080,1.9533296142857142,-0.8416139614285714,1.812299342857143,5.043494657142857,3.643584957142857,-1.8597996285714287
551,1778255695090,1.9043786999999999,-0.95060295,1.6859474,5.1340423,3.7097836,-1.9686087
552,1778255695100,1.9043786999999999,-0.95060295,1.6859474,5.1340423,3.7097835999999997,-1.9686086999999999
553,1778255695110,1.9798329499999998,-1.165373325,1.5777488166666667,5.704313583333334,3.9493793,-2.73275845
554,1778255695120,1.9931108285714285,-1.2877506285714284,1.4741755571428572,5.7502975,4.0027313,-2.7989824
555,1778255695130,1.950230975,-1.5910092249999999,1.153200975,5.7760635625,4.1892858125,-2.8315394874999997
556,1778255695140,1.8737670285714287,-1.8157161714285712,0.8447518857142857,5.7931365,4.658857857142857,-2.8663982285714282
557,1778255695150,1.8648415,-1.8703326999999998,0.7402256500000001,5.7369819,4.8067395,-2.833337
558,1778255695160,1.8547537333333335,-1.9364316,0.5739413,5.5285451666666665,5.128716000000001,-2.7544187333333334
559,1778255695170,1.8749291333333336,-1.9456244333333332,0.48445363333333336,5.343366700000001,5.389972,-2.73373495
560,1778255695180,1.9201030285714287,-1.9278430857142854,0.4049258285714286,5.180761685714286,5.6126501428571425,-2.742295157142857
561,1778255695190,1.9197543750000001,-1.91987635,0.3873188475,4.9590727,5.93938185,-2.7459854999999997
562,1778255695200,1.8401917,-1.92658795,0.32581642499999997,4.701478375000001,6.3905215125,-2.6740135125
563,1778255695210,1.6586828285714286,-1.9515166285714287,0.3010271842857143,4.579647971428571,6.570246714285714,-2.5613522285714287
564,1778255695220,1.59833095,-1.9615796125,0.32371142875000003,4.6015429,6.48013665,-2.474076675
565,1778255695230,1.3863671999999998,-1.99931695,0.41977844999999997,4.7780663,6.028509066666667,-2.3206786
566,1778255695240,1.2536000999999999,-2.0572805499999998,0.43344566,5.2629392,4.6956857,-2.0716729000000003
567,1778255695250,1.1944162000000003,-2.0986483,0.4131889,5.5809207,3.7939394,-1.9249328
568,1778255695260,1.2066190333333333,-1.986788633333333,0.20777406666666667,5.7247312,3.2226912333333337,-1.79088705
569,1778255695270,1.2930154,-1.7818619,-0.09322987,5.716209,2.7217507,-1.562743
570,1778255695280,1.4789055666666666,-1.5943445666666667,-0.341964895,5.4930363,2.7063043000000007,-1.3949638999999998
571,1778255695290,1.5160836,-1.5568411,-0.3917119,4.601409966666666,3.1524726333333333,-1.5833381
572,1778255695300,2.2646376999999998,-0.9622566975,-1.0617710875,3.701660875,3.6475987749999996,-1.9532955749999998
573,1778255695310,2.1459604428571426,-0.9103335114285714,-1.0719691285714286,3.0104373285714283,4.064059957142858,-2.5102196428571424
574,1778255695320,2.055694,-0.9059405,-1.0672623,2.8554413,4.1220407,-2.6519759
575,1778255695330,1.852058875,-0.904720225,-1.0585678625000001,2.8065723,3.8131140250000004,-2.679273275
576,1778255695340,1.326834657142857,-0.7691289742857144,-1.2434368571428571,2.654030314285714,2.6359207857142857,-2.702728057142857
577,1778255695350,1.0245523,-0.66798466,-1.3860011,2.646117,2.3020365,-2.6248116
578,1778255695360,0.9867583,-0.4679972028571429,-1.8038271285714287,2.4706525428571426,1.5925704142857142,-2.5377642857142857
579,1778255695370,0.9549960000000001,-0.37536004,-2.0010254,2.3670175,1.3342438,-2.5081651
580,1778255695380,0.8290624625,-0.274442355,-2.4092416500000002,1.9359183875,1.23077995,-2.4480442
581,1778255695390,0.5905836571428571,-0.19032979142857145,-2.647533085714286,0.5050875285714286,1.4305740857142857,-2.3683871714285716
582,1778255695400,0.41800032142857146,-0.19043438857142858,-2.4525661285714286,-0.5620030714285714,1.510392842857143,-2.3354400857142856
583,1778255695410,0.01595524374999999,-0.221390425,-2.0211295125,-0.92451637,1.3096095,-2.2345254
584,1778255695420,-0.14008886,-0.23502712,-1.876068,-0.94329166,1.2543489,-2.2040322
585,1778255695430,-0.24503348428571428,-0.23478306571428573,-1.7937161285714287,-0.8180470071428572,0.6751493914285714,-1.806840657142857
586,1778255695440,-0.49299568428571433,-0.23948988714285716,-1.5182453,-0.6733232285714286,0.31539437571428575,-1.3386569714285714
587,1778255695450,-0.5093126285714286,-0.21839636571428572,-1.3220581285714288,-0.5631444457142857,0.55294835,-1.2370002857142857
588,1778255695460,-0.7825172714285714,-0.16400647285714284,-1.3969488,-0.2561200057142857,1.0198385428571428,-1.2834153571428573
589,1778255695470,-1.1744035,-0.10640897,-1.5895448,-0.0628506,1.1893678,-1.3534185
590,1778255695480,-1.63933255,-0.1453361,-1.6539760000000001,0.2070164,1.0801781333333333,-1.4865765833333333
591,1778255695490,-1.3030913857142856,-0.10484002857142857,-1.6644355142857143,2.2945795714285717,-0.878690957142857,-1.562895057142857
592,1778255695500,-2.2617698875,-0.056987365625,-2.2905688,2.7535755,-0.69002505,-1.0940266225
593,1778255695510,-2.7098024285714284,-0.027090354142857143,-2.6112731714285715,2.772579,-0.6818453428571428,-0.20019363714285715
594,1778255695520,-2.9618788,-0.021965152000000005,-2.7722464,2.7611654,-0.690824,0.11771172
595,1778255695530,-2.9550452,-0.07337987555555556,-2.897854488888889,2.6430986,-0.6579783533333333,0.5306792133333333
596,1778255695540,-2.815758342857143,-0.19273550142857143,-3.1054191714285713,2.235000885714286,-0.5338496828571428,1.6904986
597,1778255695550,-2.5672382285714286,-0.2521459957142857,-3.167758314285714,2.0478948000000003,-0.4630856757142857,2.0170022142857142
598,1778255695560,-2.4200716,-0.2801777,-3.1993463,1.6990968,-0.30146983,2.4735441
599,1778255695570,-1.4680043,-0.33997175,-3.3230833999999994,0.4951957871428571,-0.47952117857142856,3.1134635999999998
600,1778255695580,-1.0535951257142857,-0.3864123585714285,-3.1287440857142856,-0.23587997428571428,-1.2895787571428572,3.303080742857143
601,1778255695590,-0.9077534885714286,-0.39478003428571423,-3.0009626857142857,-0.4445196142857143,-1.6106798999999998,3.4175966428571427
602,1778255695600,-0.6366639933333333,-0.41644301,-2.7035034000000002,-0.7843897333333333,-2.1078033333333335,3.7484881333333333
603,1778255695610,-0.08993509775,-0.46364775125,-2.2531975625,-1.1839083375,-2.53140135,4.3214450625
604,1778255695620,-0.060038086,-0.46444094,-2.2375169,-1.2903016,-2.586817283333333,4.4557348333333335
605,1778255695630,0.24775297428571427,-0.4768529814285714,-2.1184516714285713,-1.5733195285714285,-2.6947386714285715,4.665629928571429
606,1778255695640,0.5280178375,-0.5074560275,-1.9943136249999998,-1.913681025,-2.795853125,4.7915593875
607,1778255695650,1.0970722214285715,-0.7023967571428571,-1.6754529999999999,-2.837864457142857,-3.0450584,4.751155814285715
608,1778255695660,1.1619914571428571,-0.7468151857142856,-1.6040836857142857,-3.128681614285714,-3.0881255285714286,4.750090442857143
609,1778255695670,1.1900232,-0.8537123,-1.411627,-3.3587787,-3.1057785,4.7665257
610,1778255695680,1.4529948666666666,-1.11993805,-1.0955729166666668,-3.96198495,-3.094415833333333,4.870033866666667
611,1778255695690,1.539055525,-1.1914264875,-1.00518022875,-4.0753025,-3.1156323,4.8448226000000005
612,1778255695700,1.9510241750000001,-1.4731905625000001,-0.4346354425,-4.3364253999999995,-3.2453282,4.51965065
613,1778255695710,2.0688035857142855,-1.6004926285714287,-0.02935660142857143,-4.336843871428571,-3.2541546285714285,4.143422142857143
614,1778255695720,2.06704285,-1.6182216666666667,0.06833602833333334,-4.3068643,-3.2304143999999995,4.088485
615,1778255695730,2.06326,-1.6359970000000001,0.14594622999999998,-4.144233722222221,-2.9344485000000002,3.746239222222222
616,1778255695740,2.0809948,-1.6212722333333334,0.08216593500000001,-4.20007135,-2.8543760500000004,3.45571795
617,1778255695750,2.046768657142857,-1.5918808285714285,0.034725858,-4.386378571428572,-2.8906712,3.134388557142857
618,1778255695760,2.0174380875,-1.6520235250000002,-0.00848098975,-4.672516375,-3.006176375,2.786731875
619,1778255695770,2.0021758142857142,-1.671687542857143,-0.0022313802857142845,-4.850149142857142,-3.135149371428571,2.623974657142857
620,1778255695780,1.8085688857142856,-1.7598618714285714,0.10675761514285713,-5.1117475428571435,-3.2419800857142858,2.4237049142857146
621,1778255695790,1.6700838,-1.8079761,0.17816179,-5.3929014,-3.2016523,2.2365227
622,1778255695800,1.6364038,-1.9088531,0.18824948333333333,-5.660282733333333,-2.921132633333334,2.1981732333333333
623,1778255695810,1.6072796,-1.9580713111111112,0.19459497,-5.8332697555555555,-2.7402744,2.1869287666666666
624,1778255695820,1.4997318285714287,-1.9514468714285713,0.2064375685714286,-5.994851571428571,-2.5777878,2.2250329857142854
625,1778255695830,1.4275315666666666,-1.9824769333333332,0.23795581666666665,-6.139119,-2.4554346,2.2871227
626,1778255695840,1.3447554,-2.0434911,0.3526627,-6.4283385,-2.1619542,2.368083
627,1778255695850,1.5170598666666664,-2.1206947333333335,0.4233579633333333,-6.623992166666667,-2.0177884,2.4202809999999997
628,1778255695860,1.8072786857142857,-2.108027114285714,0.4298894242857143,-6.906870428571429,-1.9015731571428571,2.338027257142857
629,1778255695870,1.842144,-2.1008449,0.4288086,-7.045659,-1.8684739,2.2567627
630,1778255695880,1.8973009714285713,-2.1000778714285713,0.4504948285714286,-7.157359571428572,-1.8632997285714286,2.1666717857142856
631,1778255695890,2.201501057142857,-2.1471111285714284,0.8643113142857143,-7.602640142857142,-1.8538644714285717,1.7163693285714285
632,1778255695900,2.1198508125,-2.0577991875,1.107562275,-7.995542250000001,-1.7469671125000001,0.94176035
633,1778255695910,1.6882136714285714,-1.524451214285714,1.7743658857142857,-7.591987571428571,-1.179399942857143,0.3917890542857143
634,1778255695920,1.6466541999999997,-1.462635,1.8345782999999998,-7.530887,-1.1169298,0.35899412999999997
635,1778255695930,1.6844525625,-1.417667475,1.831283525,-7.506785375,-1.1494203625000001,0.2714427075
636,1778255695940,1.9490411,-1.1028948,1.8082201,-7.338074,-1.3768543,-0.34141725
637,1778255695950,2.094417866666667,-1.2095477666666667,1.8176569666666669,-7.452057333333333,-1.5847584166666666,-0.558376125
638,1778255695960,2.4428502666666665,-1.4854951,2.1137798,-8.291604222222222,-3.615211666666667,-2.1116501444444444
639,1778255695970,2.558208,-1.6107778999999998,2.6682779999999995,-8.652344166666666,-4.967416966666667,-2.7189988333333335
640,1778255695980,2.5345693714285713,-1.7174657,3.1096728857142857,-8.747418999999999,-5.583964214285714,-2.817091871428571
641,1778255695990,2.519342,-1.84513375,3.899302625,-8.57937325,-5.4234610625,-2.7894615624999997
642,1778255696000,2.182046214285714,-1.9094341857142858,4.6986250571428565,-7.853662142857144,-3.681097414285714,-2.5936145999999995
643,1778255696010,1.52047665,-1.8808272000000001,5.7786655,-7.067097575,-2.3662852125000002,-2.317749225
644,1778255696020,1.30778075,-1.953190125,6.35384735,-5.8907794625,-1.6721988875,-1.9704729499999998
645,1778255696030,1.3170142333333332,-2.150876466666667,6.9503436,-4.396169066666666,-1.6287893999999998,-1.6854258666666666
646,1778255696040,1.6202961500000002,-2.1696688,7.1298885,-2.56315945,-2.0265990625,-1.57559275
647,1778255696050,1.8240490857142857,-1.9478904857142858,6.492794371428571,-1.1100816142857144,-2.3889317142857145,-1.6147126714285716
648,1778255696060,1.8667241285714287,-1.7104577142857142,5.730812628571429,1.2554901714285713,-2.658519685714286,-1.4473900714285715
649,1778255696070,1.95227485,-1.52133085,5.1305712,1.5452992,-2.322276575,-1.16286935
650,1778255696080,2.14026005,-1.3111365,4.46313575,1.19828938,-1.088034475,-0.6169212825
651,1778255696090,2.3130350428571425,-1.0942132285714286,4.251930428571429,0.26205506285714286,1.7500773142857144,0.35579833
652,1778255696100,2.362718,-1.095573,4.3168845,0.21911158749999998,2.6747458749999997,0.5890912375
653,1778255696110,2.365786357142857,-1.162723642857143,4.515651714285714,0.4775428428571429,3.6892391142857144,0.7608270571428571
654,1778255696120,2.3457388428571426,-1.1869201999999999,4.570285714285714,0.6311691999999999,3.9622512,0.7957525
655,1778255696130,2.2803793375,-1.2361195249999999,4.4170396875,1.2556138625,4.057392675,0.77797593125
656,1778255696140,2.2826674,-1.2715731857142856,3.864925571428571,2.6306705,3.7619815,0.54168695
657,1778255696150,2.2423630857142856,-1.2633449285714284,3.664659142857143,3.092234428571429,3.4106725,0.35381996428571433
658,1778255696160,2.1257995875,-1.2420683125,3.406429,3.707653,2.9422605,0.10333065
659,1778255696170,2.0151806,-1.206619,3.168107,4.188695942857143,2.479250714285714,-0.12151623285714286
660,1778255696180,1.8720932857142856,-1.1821435428571427,2.972721885714286,4.5119276,2.257828,-0.24021713
661,1778255696190,1.6678601444444443,-1.1558008666666666,2.357999866666667,5.157714533333333,2.474905244444445,-0.30602681
662,1778255696200,1.6527556,-1.1594346333333334,2.1647065666666667,5.4235275,2.72334865,-0.34301515
663,1778255696210,1.5188291999999999,-1.1474962249999998,1.99712055,5.6711348125,3.066230625,-0.40300284875
664,1778255696220,1.4787428,-1.1414558,1.9746673,5.763613,3.2000544,-0.42876893
665,1778255696230,1.7001028,-1.2503052999999997,1.7891837,5.827529,3.2458608,-0.44535662142857146
666,1778255696240,1.7528191,-1.3957634,1.5221851,6.5311365,3.4381409999999994,-0.69295454
667,1778255696250,1.825853275,-1.57514555,1.2412141,6.626610749999999,3.4168357,-0.7910920300000001
668,1778255696260,1.999561,-1.78320435,0.9959975499999999,6.923686249999999,3.2953956000000004,-1.1986888500000001
669,1778255696270,2.143275828571429,-1.9744928428571427,0.8221939428571429,6.941034957142857,3.214435571428571,-1.331047957142857
670,1778255696280,2.1129431000000003,-2.1893677714285715,0.6345836971428572,6.9876023,3.2920475714285713,-1.6618886142857143
671,1778255696290,2.0913267,-2.3324552,0.45858355999999995,6.992396,3.4557178,-1.8237327
672,1778255696300,2.127935175,-2.422237625,0.340337825,6.8825405,3.8020618749999997,-1.8854514375
673,1778255696310,2.141671985714286,-2.5518623714285718,0.007914422857142849,6.516983428571429,4.712729857142857,-2.0167738
674,1778255696320,1.9398484333333332,-2.4853162666666666,-0.4062739633333334,6.060821999999999,5.5462995,-2.0879183
675,1778255696330,1.6892016333333335,-2.414539733333333,-0.5695482466666666,5.3833139333333335,5.944175766666667,-1.9732248999999997
676,1778255696340,1.41870475,-2.2599702,-0.5512032699999999,5.0541472,6.0432453,-1.8695391
677,1778255696350,1.2935382428571427,-2.159558014285714,-0.5054774,4.9635236,6.023309628571428,-1.7857636714285712
678,1778255696360,1.1224192999999998,-1.9025482999999999,-0.44296392,4.0466066875,5.782188975,-0.8087354999999999
679,1778255696370,1.0799533,-1.7735641,-0.40513503999999995,3.7720253571428572,5.650543285714286,-0.43401919714285714
680,1778255696380,1.0974440666666665,-1.7570902333333331,-0.37645831166666666,3.636812883333333,5.468002666666666,-0.16982091433333335
681,1778255696390,1.34207075,-1.5974768,-0.10897156000000001,3.6157739500000003,5.2442971,0.08788431699999999
682,1778255696400,1.627617742857143,-1.4801375571428572,0.016526162857142857,3.6991308571428574,5.411162914285714,-0.02366409142857143
683,1778255696410,1.9485531,-1.3798997,0.020012695,3.7454698,5.5702677,-0.15446335000000003
684,1778255696420,2.0389762499999997,-1.303936775,-0.038377999999999995,3.784618225,5.744837925000001,-0.375372565
685,1778255696430,2.0691173,-1.2786158,-0.057841565000000005,3.8319337,5.769117133333334,-0.6679208133333333
686,1778255696440,1.9301512000000003,-1.04041606,-0.34319330800000003,3.90344856,5.53074642,-1.14313534
687,1778255696450,1.4165082,-0.8668913999999999,-0.49226347,4.099138,4.059723,-1.5446335
688,1778255696460,1.4014580333333333,-0.8377672133333333,-0.54611876,4.1396178,3.6858150000000003,-1.5435681666666667
689,1778255696470,1.3713576999999997,-0.77951884,-0.65382934,4.143422214285715,3.4404236571428575,-1.5406006142857145
690,1778255696480,1.3365795249999999,-0.7321107099999999,-0.8231440975,3.9401469999999996,3.000051,-1.48151655
691,1778255696490,1.236455025,-0.6377215900000001,-1.049934225,3.7589187749999997,2.943858275,-1.390436475
692,1778255696500,1.1947009,-0.4228698766666667,-1.4664180333333334,3.2008533000000003,3.49113795,-1.0359696999999999
693,1778255696510,1.32742738,-0.24483823200000004,-1.7260216800000001,2.6999127,4.13652838,-0.8152469
694,1778255696520,1.359887,-0.20818083,-1.7747843,2.5848641,4.2690473,-0.8111989
695,1778255696530,1.3873608857142856,0.024335993285714286,-2.0546134,2.5538192428571427,4.243557014285715,-0.8356999857142856
696,1778255696540,1.089227485,0.31019676,-2.6417977,2.1591577749999997,2.305099125,-1.732120025
697,1778255696550,0.90447617,0.38853914,-2.7976282,2.0596888,1.7342505,-1.9558256
698,1778255696560,0.05426205333333334,0.5413189733333333,-3.5694999333333333,1.47299445,1.5683356,-2.0546288
699,1778255696570,-0.15180361,0.55913514,-3.756041,1.1616709,1.6421051,-2.0010993
700,1778255696580,-0.557914864,0.520769352,-3.85908196,0.66067704,1.90661028,-1.7566211079999998
701,1778255696590,-0.97593614,0.49685174399999993,-3.67955352,-0.131240576,2.1751634799999997,-1.420423628
702,1778255696600,-1.530483,0.46285455,-2.80348555,-1.474326,2.9204226,-0.41225734
703,1778255696610,-1.5292627,0.5008054366666667,-2.3452273,-0.9303310000000001,2.2159276666666665,-0.022548096666666666
704,1778255696620,-1.5143752,0.51788944,-2.2392251,-0.77231675,2.031992,0.029827405
705,1778255696630,-1.3784354,0.6037976,-2.0527656,0.23821976749999998,0.7416903425000001,-0.023968452749999994
706,1778255696640,-1.27588246,0.756577476,-2.04837244,1.3747238,-0.71958613,-0.2428803
707,1778255696650,-1.649583025,0.8678675625,-2.400180925,1.97899505,-1.361408015,-0.27670244
708,1778255696660,-1.83116164,0.8663544,-2.6574417,2.6061695,-2.0169718199999997,-0.24607608220000002
709,1778255696670,-2.220677,0.8066092,-3.3413877,2.6977823,-2.0719395,0.011717909
710,1778255696680,-2.1884613749999997,0.7707938000000001,-3.4506643749999997,2.527206875,-2.0188093499999997,0.38962047725000004
711,1778255696690,-2.0918145,0.6633476,-3.7784944,1.123854,-1.9084213,1.8056233
712,1778255696700,-1.6852966333333335,0.48542985,-3.6536183999999996,0.026098979999999994,-1.9863630666666667,2.5790051333333337
713,1778255696710,-0.7834237374999999,0.24686391,-3.3154566,-0.562592795,-2.320545525,3.04412625
714,1778255696720,-0.56865335,0.19451363,-3.2371752000000003,-0.6924219,-2.4208136,3.1547806
715,1778255696730,-0.28984237399999996,0.1276419404,-3.1094845799999997,-1.5606124,-2.6290727,3.2288164999999998
716,1778255696740,0.214770375,-0.003904913499999999,-2.81642065,-2.0170782,-2.90723995,3.260374975
717,1778255696750,0.36567910833333334,-0.06813264749999999,-2.6871109499999997,-2.5418985333333333,-3.0999196666666666,3.317233533333333
718,1778255696760,0.67301225,-0.29618785999999997,-2.11778242,-3.22966878,-3.07914698,3.5698076999999997
719,1778255696770,0.75682151,-0.3649875925,-1.9590475500000002,-3.454785825,-3.063168,3.6662407249999998
720,1778255696780,0.9301370685714286,-0.5436200514285715,-1.6376241142857142,-3.7635794285714286,-3.0391234000000003,3.788765114285714
721,1778255696790,1.06982498,-0.658466415,-1.4420123249999999,-4.253734,-3.1692948999999997,3.84680305
722,1778255696800,1.4845514000000002,-0.8714796079999999,-1.1377949600000001,-4.341591719999999,-3.29848486,3.8227014400000003
723,1778255696810,1.99882885,-1.10911815,-0.79623677,-4.540956,-4.19101665,3.2780849999999995
724,1778255696820,2.1350129,-1.2201642000000001,-0.643578945,-4.610065049999999,-4.941362249999999,2.745585925
725,1778255696830,2.2474012500000002,-1.3388981000000002,-0.5347294275000001,-4.6477486500000005,-5.670935,2.36115875
726,1778255696840,2.2267782666666665,-1.5087212833333332,-0.396430335,-4.70047925,-5.931303500000001,2.2299536166666667
727,1778255696850,2.15716105,-1.7894888500000001,-0.046858993275,-5.08690395,-5.355350875,2.161421575
728,1778255696860,2.13730702,-1.8305271,0.02987260584,-5.1793156,-5.1351075,2.1779332
729,1778255696870,2.05911106,-1.9120421399999998,0.22238496,-5.39364708,-4.053011639999999,2.2232068600000003
730,1778255696880,1.9449410399999998,-1.99829194,0.344901694,-5.53713828,-3.05720244,2.23311388
731,1778255696890,1.82274145,-2.0974280000000003,0.41745990499999996,-5.60835135,-2.56009675,2.235990075
732,1778255696900,1.58515186,-2.2971644,0.444623492,-5.93576028,-1.45184896,2.23268778
733,1778255696910,1.4997318,-2.38236475,0.44406217000000003,-6.0962423,-1.1571435,2.1819279
734,1778255696920,1.4928981,-2.4017673,0.44808911999999995,-6.1934476,-1.0306433,2.133192
735,1778255696930,1.4928981,-2.4017673,0.44808912,-6.387645279999999,-0.9392437000000001,1.9095931199999998
736,1778255696940,1.38490285,-2.373517775,0.607519515,-6.4437847,-1.0508834,1.5403723999999999
737,1778255696950,1.2461075400000001,-2.3002883400000003,0.7690732259999999,-6.3538762,-1.2465724200000001,1.34478984
738,1778255696960,1.1394423500000002,-2.2294629500000003,0.8227780375,-6.190917475,-1.5441007999999998,1.189900425
739,1778255696970,1.10196734,-2.20085948,0.8478061,-6.10396524,-1.67683276,1.15325532
740,1778255696980,1.0484699,-2.1459954,0.8973985,-5.918609,-1.9244002,1.1217234
741,1778255696990,1.0484699,-2.1459954,0.8973985,-5.5635212,-2.207405533333333,1.1117809333333333
742,1778255697000,1.0250404,-1.9885784,0.89666635,-5.3859773,-2.3489082,1.1068097
743,1778255697010,1.0250404,-1.9885784,0.89666635,-5.337241416666667,-2.340829933333333,1.1064546166666667
744,1778255697020,1.0733638,-1.879484825,0.7789697125,-5.1252536,-2.1491710250000002,1.0970892
745,1778255697030,1.146947075,-1.7228611749999998,0.7027018349999999,-5.376256375,-1.894040175,1.0723218
746,1778255697040,1.249085,-1.6139506,0.78415596,-5.818474300000001,-1.6495620000000002,1.0056096
747,1778255697050,1.30137425,-1.5643459499999999,0.916923095,-5.8605523250000005,-1.539706625,0.9266468750000001
748,1778255697060,1.48577168,-1.35852024,1.42134062,-5.908169839999999,-1.09445276,0.5495699000000001
749,1778255697070,1.50007348,-1.2443503,1.61853892,-5.723878999999999,-0.8721320300000001,0.261096295
750,1778255697080,1.2741009,-1.1008813,1.756968175,-5.29636165,-0.6486128875,-0.15646071875
751,1778255697090,0.8795125714285714,-1.0068755714285715,1.6638776714285715,-4.815071342857143,-0.6353541571428571,-0.48819550000000006
752,1778255697100,0.8557866999999999,-1.03882965,1.5517159500000002,-4.979844675,-1.180446175,-0.5878928250000001
753,1778255697110,0.907953935,-1.11418235,1.602479925,-5.108475425,-1.48710915,-0.6298376
754,1778255697120,0.97330034,-1.2146729,1.8829017,-5.3417687,-2.0415792,-0.6993461
755,1778255697130,0.97330034,-1.2146729,1.8829017,-5.3417687,-2.0415792,-0.6993461
756,1778255697140,0.993496055,-1.2401769,1.9818669249999998,-5.3417687,-2.0415792,-0.6993461
757,1778255697150,1.1663844142857143,-1.5546447,3.885461,-5.381715885714286,-4.557353442857143,-0.2452390942857143
758,1778255697160,1.4115050500000001,-1.585944975,4.874311325,-3.9619848500000003,-4.12723395,0.34900727
759,1778255697170,1.4846002,-1.5917413,5.1056776,-3.558516,-3.9862195999999996,0.50813115
760,1778255697180,1.8381579166666668,-1.6536911500000002,5.153594333333333,-3.39224595,-3.9357971000000003,0.5399115416666667
761,1778255697190,2.083516625,-1.444879925,4.6919397499999995,-1.88178965,-3.5499939,0.81705785
762,1778255697200,2.24176334,-1.33997194,4.31888608,-1.19373536,-3.3932934,0.95341168
763,1778255697210,2.5372193,-1.3279155,4.2221904,-1.5471900399999998,-3.15467414,1.10542494
764,1778255697220,2.5372193,-1.3279155,4.2221904,-1.6389093,-3.103648,1.1366372
765,1778255697230,2.7625653666666667,-1.3285663666666667,4.477474399999999,-1.5271453833333333,-2.6502892166666667,1.0471549500000001
766,1778255697240,3.324669625,-1.5098601249999999,5.71246525,-0.430899475,-1.1932293500000002,0.6277070675
767,1778255697250,3.4416952666666667,-1.5407334,5.780740000000001,0.7613089999999999,0.11788926666666666,0.38775626
768,1778255697260,3.2072609142857145,-1.4883656714285713,5.476574542857143,1.9349768,1.2765672857142858,0.18269285685714287
769,1778255697270,3.0287504,-1.4562895,5.2389326,2.5065672,1.7443706,0.108124346
770,1778255697280,2.9596822,-1.45513025,5.10415195,3.50924745,2.262089125,-0.0091879075
771,1778255697290,2.6555462333333337,-1.4359921666666666,4.501594916666667,4.1126310833333335,2.4630689166666664,-0.060720079
772,1778255697300,1.9190221,-1.2180897,2.7261195,4.6727824,2.3936493,0.091080114
773,1778255697310,1.907673475,-1.1996024250000001,2.509213575,4.678375,2.37580605,0.08522115699999999
774,1778255697320,1.9038906,-1.19344,2.4369115999999997,4.6839676,2.3579628,0.07936219999999998
775,1778255697330,1.702706,-1.1053353,2.085469133333333,4.6914247,2.2532118000000003,-0.12800927963333333
776,1778255697340,1.6195638,-1.0750722,2.0132282,4.7063384,2.2125542,-0.1933455
777,1778255697350,1.48679675,-1.0428566499999998,1.9524579,4.80061435,2.1387845999999997,-0.23062975
778,1778255697360,1.38075395,-1.0191831,1.86813615,4.95134915,2.040514,-0.292947725
779,1778255697370,1.4249689666666665,-1.0314673,1.8380765166666666,5.007808,2.016013,-0.31798145
780,1778255697380,1.6051644799999998,-1.0978183,1.7122081200000001,5.12956792,2.217135,-0.5099420880000001
781,1778255697390,1.73439275,-1.22492335,1.49143385,5.1351075,2.122007,-0.45327002
782,1778255697400,1.6210282000000003,-1.3759948,1.2666571,5.248025583333334,2.7167795333333333,-0.92509341
783,1778255697410,1.4846002,-1.5007081,1.1700104,5.3225937,3.6400087,-1.5174692
784,1778255697420,1.4846002,-1.5007081,1.1700104,5.3225937,3.6400087,-1.5174692
785,1778255697430,1.4786033714285713,-1.5646162142857143,1.1589580857142856,5.361476000000001,3.8099184,-1.4418354
786,1778255697440,1.4259655,-1.874969775,1.10429795,5.661348,3.9361522,-1.2096078
787,1778255697450,1.560502075,-2.1600287,0.9789745750000001,5.954162475,3.87263575,-1.2247877999999999
788,1778255697460,1.6051644999999999,-2.310083233333333,0.8615221000000001,6.1462208333333335,3.764822133333334,-1.2795601333333333
789,1778255697470,1.6078491,-2.3497832,0.8217408,6.1934476,3.7215014,-1.3044163
790,1778255697480,1.5980868,-2.3963982,0.7835458200000001,6.3255405,3.487676,-1.427987
791,1778255697490,1.6061407,-2.5506425,0.7070338,6.5567026,3.3651705,-1.6793894
792,1778255697500,1.5806368000000002,-2.56845855,0.66115105,6.6725503,3.5121770000000003,-1.7587516
793,1778255697510,1.46785792,-2.56855618,0.39312741399999995,6.72256464,3.8649925000000005,-1.7494838000000001
794,1778255697520,1.4096746,-2.5567439,0.24503349,6.6238146,4.173706,-1.6165388
795,1778255697530,1.4096746,-2.5567439,0.24503349,6.4477794500000005,4.297543,-1.50655025
796,1778255697540,1.4176798,-2.50148934,0.055059318,6.2717443,4.42138,-1.3965617
797,1778255697550,1.51382605,-2.3422174,-0.09542638,4.989965,4.760933,-0.8628642
798,1778255697560,1.7203596,-2.21921252,0.386635484,4.61046464,4.7680169999999995,-0.650130908
799,1778255697570,1.9804026,-2.1722314500000004,0.628813505,4.5738905,4.835412900000001,-0.6707615466666667
800,1778255697580,2.2494757,-2.1237862,0.77512586,5.0392337,5.6389775,-1.2287825
801,1778255697590,2.0835168,-2.1801634,0.61941725,5.247359675,6.064816850000001,-1.429318625
802,1778255697600,1.9283777333333332,-2.2089621333333334,0.44361469333333337,5.4495379,6.201437033333334,-1.4672243
803,1778255697610,1.479231,-2.1794312,-0.15277983,5.8600197,5.70023,-1.2389026
804,1778255697620,1.479231,-2.1794312,-0.15277983,5.8600197,5.70023,-1.2389026
805,1778255697630,1.3194141166666666,-1.8930705833333334,-0.6819773533333334,5.980128499999999,4.369360066666666,-1.0009047
806,1778255697640,1.3104247,-1.8176569,-0.8247508333333334,5.983058,4.244014,-0.9805759
807,1778255697650,1.2737348000000002,-1.64518986,-1.0864940600000002,5.7084326,3.5195272599999994,-0.8022506999999999
808,1778255697660,1.0294335,-1.194172,-1.5995511999999998,5.255482,3.3699640999999994,-0.40426784999999993
809,1778255697670,1.0294335,-1.194172,-1.5995512,5.200487825,3.424692075,-0.323307755
810,1778255697680,1.0811736333333333,-1.1051725,-1.7022993,5.0355053,3.5888760000000004,-0.08042747
811,1778255697690,1.97530176,-0.49899945600000006,-2.68360464,4.6189866,3.1334753,-0.7765778
812,1778255697700,1.8661837499999998,-0.19915072385,-3.4381563,3.9843553000000003,2.55636835,-1.41680175
813,1778255697710,1.022111775,0.07407136871666667,-4.099754916666666,2.799337466666666,1.7573312666666665,-2.2182357666666666
814,1778255697720,0.91399443,0.08981306,-4.1299367,2.5241442,1.6463662,-2.2988408
815,1778255697730,0.91399443,0.08981306,-4.1299367,2.5241442,1.6463662,-2.2988408
816,1778255697740,0.3577879,0.19329333,-3.9803295,1.34249955,1.41866595,-2.07114045
817,1778255697750,-0.73461235,0.28579104,-3.3308933,0.15073492,1.4658039,-1.3725933
818,1778255697760,-0.8284523500000001,0.31239328,-3.218627,0.11771172199999999,1.462341775,-1.2921658249999999
819,1778255697770,-0.92229235,0.33899552,-3.1063607,0.018642128,1.4519554,-1.0508834
820,1778255697780,-0.967320925,0.45626500999999997,-2.7988485,0.018642128,1.4519554,-1.0508834
821,1778255697790,-1.0006347,0.42441553,-2.8083668,0.273506647,1.4888401999999998,-0.639025505
822,1778255697800,-1.3432098333333335,0.7274533000000001,-2.7878661,1.5799646999999999,0.46143703866666663,0.023435820000000007
823,1778255697810,-1.52096482,0.8147119,-3.15077918,2.1099693200000003,-0.5674663768,0.289219304
824,1778255697820,-1.5956463,0.8471227000000001,-3.3221073,2.2237396,-0.948618,0.3882889
825,1778255697830,-1.67728345,0.7891997816666666,-3.7073109166666662,2.1029207,-2.005981783333333,0.89251405
826,1778255697840,-1.6695957,0.5720702,-4.3864408,1.4189322,-2.8160267,1.6879115
827,1778255697850,-1.5839804,0.520427688,-4.41314064,1.4189322,-2.8160267,1.6879114999999998
828,1778255697860,-0.7992875,0.10518867,-4.4108467,-1.5664713,-1.984055,3.137204
829,1778255697870,-0.7992875,0.10518867,-4.4108467,-1.5664713,-1.984055,3.137204
830,1778255697880,-0.50868505,0.015933450714285712,-4.180735485714285,-1.5664713,-1.984055,3.137204
831,1778255697890,0.37121107999999997,-0.39073566,-3.0656033,-4.422978,-1.5920377,3.6245622999999996
832,1778255697900,0.4945088080000001,-0.48386790399999996,-2.65177978,-4.640292,-1.8658106999999997,3.64096738
833,1778255697910,0.7189578071428572,-0.6375821228571429,-1.9996308285714286,-5.082453,-2.4305530285714285,3.6735645142857143
834,1778255697920,0.95597225,-0.72167724,-1.8111488000000002,-5.237373,-2.6359968,3.6842172
835,1778255697930,1.214917,-0.8002637,-1.5160836,-5.5447016,-2.931075,3.6314864
836,1778255697940,1.7230443,-1.0135698,-0.81539524,-5.851497828571429,-3.125257571428571,3.521916457142857
837,1778255697950,1.8128573333333333,-1.089797,-0.5872830733333333,-6.2355256,-3.3481262,3.2740902999999997
838,1778255697960,1.9924834,-1.2422514,-0.13105874,-6.252569833333333,-3.3502566999999996,3.2066235333333335
839,1778255697970,1.9878768375,-1.3310272125,0.188107115,-6.117946975,-3.38900565,2.9198898
840,1778255697980,1.864144157142857,-1.5586890857142859,0.8081432542857143,-5.557712857142858,-3.5162097,2.4403685999999998
841,1778255697990,1.8457701285714285,-1.5856399714285714,0.8104792471428571,-5.083594571428571,-3.7168599428571425,2.2189458857142856
842,1778255698000,1.8549571875,-1.6128828499999999,0.63110154125,-4.8343035,-3.838014675,2.072738275
843,1778255698010,1.9970856571428572,-1.6137065428571429,0.2369795857142857,-4.829072000000001,-4.228262871428571,1.5695911
844,1778255698020,2.0693614,-1.607117,0.14399378,-4.937501,-4.422978,1.2911005
845,1778255698030,2.03946445,-1.63176675,0.10665301999999999,-5.2522864,-4.695686,0.87298423
846,1778255698040,1.95123775,-1.7262168999999998,0.064309083,-5.746746616666666,-4.5714938,0.54497154
847,1778255698050,1.3916144,-2.1950507,0.2877435,-6.164951725,-4.25093795,0.4237089425
848,1778255698060,1.3916144,-2.1950507,0.2877435,-6.656304999999999,-3.662912,0.44208476
849,1778255698070,1.3240106,-2.2768102,0.47127452,-6.7781446249999995,-3.150386475,0.49108692249999997
850,1778255698080,1.2701959500000002,-2.2940161,0.62320019,-6.7018450000000005,-2.632801,0.47670585
851,1778255698090,1.2163813,-2.311222,0.77512586,-6.560963828571429,-2.338179342857143,0.4130182542857143
852,1778255698100,1.2163813,-2.311222,0.77512586,-6.5002437,-2.2258701,0.38402784
853,1778255698110,1.0078479266666667,-2.285270811111111,0.7172299733333334,-6.299914877777777,-1.8829140333333332,0.36449799
854,1778255698120,0.89080894,-2.2553332,0.6794554,-6.206674416666666,-1.7507620666666668,0.4374686083333333
855,1778255698130,0.89080894,-2.2553332,0.6794554,-6.166283,-1.7401094,0.5209143
856,1778255698140,0.8518207975000001,-2.1955695625000002,0.6194173000000001,-6.21461975,-1.839179075,0.635163945
857,1778255698150,0.9211069000000001,-2.0936625,0.5696645,-6.397598,-1.9715001571428572,0.6684534642857143
858,1778255698160,1.1077758,-2.016610057142857,0.7501274171428571,-6.665131485714285,-2.095831757142857,0.6387782357142857
859,1778255698170,1.1604922,-2.0159128,0.91497064,-6.767506844444444,-2.0601031888888888,0.5726388444444444
860,1778255698180,1.2464816666666667,-1.9147511166666666,1.50762294,-6.6856,-1.9355855,0.5091964
861,1778255698190,1.2722704,-1.8282329,1.8482454,-6.5345987,-1.798699,0.468183725
862,1778255698200,1.2715992375,-1.7879024374999999,1.8506554625,-5.307813449999999,-1.2443620499999999,0.1599228225
863,1778255698210,1.3606191285714286,-1.2639724571428572,1.7880331,-4.9912965,-1.2972638142857142,-0.05569810857142856
864,1778255698220,1.3762388,-1.223703,1.7747843,-4.599583571428572,-1.333482785714286,-0.2654791185714286
865,1778255698230,1.3984130857142856,-0.7928374285714286,1.6698397,-4.518319142857143,-1.9922728,-1.0249365714285714
866,1778255698240,1.3367015,-0.690438,1.6954657,-4.577974,-2.5358619999999994,-1.5243934
867,1778255698250,1.141028675,-0.842546625,2.029885,-4.7157925,-3.2157670749999996,-1.856755975
868,1778255698260,1.0184857999999999,-1.0844509857142859,2.4469877285714285,-4.9274568,-3.8464416714285714,-1.8524948714285714
869,1778255698270,1.0089327,-1.1163179,2.497926,-4.9550776,-3.9137816,-1.8333201
870,1778255698280,1.0089327,-1.1163179,2.497926,-4.9550776,-3.9137816,-1.8333201
871,1778255698290,1.2182292000000001,-1.1381783857142858,3.8356038000000003,-4.430967514285714,-2.868300714285714,-1.4324763285714286
872,1778255698300,1.2185779,-1.023088,4.8911514,-3.6724991666666664,-1.7702920566666664,-1.15714355
873,1778255698310,0.9036626388888889,-0.9310241944444445,4.972015555555555,-1.337262,-0.40426786666666664,-0.4942827
874,1778255698320,0.81368685,-0.9047202499999999,4.9951196,-1.0391655,-0.42344263,-0.4165184
875,1778255698330,0.81368685,-0.90472025,4.9951196,-1.0391655,-0.42344263,-0.4165184
876,1778255698340,1.14316413125,-0.7614890937500001,4.72198895,0.2594584825,-1.2230567625,0.099136173125
877,1778255698350,1.4532795333333333,-0.5528709866666667,4.5837205333333335,0.6137699116666667,-0.9791555333333334,0.37665977
878,1778255698360,1.7697506625,-0.47798610625,4.612834525,0.6740461,-0.65061025625,0.49361691875
879,1778255698370,2.1506326,-0.4932397,4.7005424,0.6892261,-0.48522797,0.53955644
880,1778255698380,2.4326581000000003,-0.5643649457142857,5.007566528571429,0.9464874571428571,0.23907577428571433,0.5210664928571428
881,1778255698390,2.5885932499999997,-0.5994046,5.13386635,1.4961639,1.44716175,0.45353634499999995
882,1778255698400,2.6321574857142855,-0.5861557457142856,5.116520785714286,2.1022992857142855,1.9725653142857145,0.35861367714285713
883,1778255698410,2.683775333333333,-0.6054653333333333,4.9318682166666665,2.6527748,2.27274165,0.29854037
884,1778255698420,2.695368,-0.6118515,4.898229,3.1366713,2.525742,0.24714136
885,1778255698430,2.695368,-0.6118515,4.898229,3.1366713,2.525742,0.24714136
886,1778255698440,,,,,,
887,1778255698450,2.7273395333333332,-0.8061210666666666,4.097395733333333,4.686808766666666,3.0408862333333335,-0.15526229916666667
888,1778255698460,2.66425075,-1.12522585,3.5218683250000002,5.450958375,3.2108401250000003,-0.41132525750000004
889,1778255698470,2.643872,-1.1736712,3.4363263,5.7881145,3.2815470000000007,-0.5267733
890,1778255698480,2.3600824400000002,-1.38853934,2.88451252,5.99232576,3.3198966,-0.57694722
891,1778255698490,2.14977825,-1.48704085,2.3852935,6.74632,3.293265,-0.6040049
892,1778255698500,2.1315960400000002,-1.50881076,2.05213096,7.054713819999999,3.11493978,-0.7257646400000001
893,1778255698510,2.0616005200000003,-1.54317404,1.6606630800000002,7.39453314,2.86438958,-0.9918677199999999
894,1778255698520,2.045688,-1.5502517,1.5934497,7.428089,2.8314729,-1.0381002
895,1778255698530,1.9697512714285714,-1.5654181142857142,1.4612403857142857,7.4989289999999995,2.674879,-1.2831111
896,1778255698540,1.4304195999999998,-1.6317668,0.8171035999999999,7.387076400000001,2.4256072,-1.587244
897,1778255698550,1.0643337,-1.6141946,0.6726217,7.192133,2.4762073,-1.5371766
898,1778255698560,1.0717367333333332,-1.6176927666666667,0.6485414133333333,7.166389,2.4991105,-1.5274117
899,1778255698570,1.0865428,-1.6246891,0.60038084,7.114901,2.5449169,-1.5078819
900,1778255698580,1.12461576,-1.67603862,0.5164251440000001,7.0343670000000005,2.61330684,-1.50489914
901,1778255698590,1.1888028,-1.7088889,0.3990336,6.9609704,2.6945865,-1.4897723
902,1778255698600,1.2480273333333334,-1.7445211666666667,0.29018406,6.6280752666666665,2.9081720333333334,-1.5240383
903,1778255698610,1.3222533200000002,-1.7795189399999998,0.260750754,5.84286886,3.42716888,-1.64870974
904,1778255698620,1.5619664,-1.846293,0.383658,5.572043216666667,3.605831416666667,-1.7037130000000003
905,1778255698630,1.4673942,-1.9347637999999998,0.43893697,5.18091365,4.02377015,-2.3134881
906,1778255698640,1.372822,-2.0232346,0.49421593999999996,5.14576,4.082626,-2.479403
907,1778255698650,1.1953924,-2.0681412,0.4087959,5.14576,4.082626,-2.479403
908,1778255698660,1.0480428075,-1.9986456499999998,0.2754186075,4.920323475,3.9365517,-2.201102625
909,1778255698670,0.97647303,-1.8641093000000002,0.12715383,4.713795,3.8035266,-1.9286613
910,1778255698680,1.1055794,-1.6383562,0.0034168016,4.3814325,3.6591835,-1.530785
911,1778255698690,1.1055794,-1.6383561999999998,0.0034168016,4.713795,3.8035266,-1.9286613
912,1778255698700,1.255325842857143,-1.4688759714285715,-0.014782894571428574,4.409129357142858,3.5295254999999996,-1.4982183714285713
913,1778255698710,1.445551075,-1.361107275,-0.186581768,4.44694635,3.34732725,-1.5640744999999998
914,1778255698720,1.7823502,-1.2725145,-0.53253293,4.4639907,3.2623725,-1.6543556
915,1778255698730,1.7625815666666667,-1.2209370666666668,-0.7800069533333334,4.4496096,3.204493133333333,-1.7500518999999999
916,1778255698740,1.6103711333333333,-1.0837769,-1.3734728,4.0417908,3.099031933333333,-2.2842821333333334
917,1778255698750,1.00741952,-0.9364964600000001,-1.77258784,2.70587816,3.1635158,-2.89709324
918,1778255698760,0.9130182000000001,-0.9166789999999999,-1.8231077000000002,2.3870800333333335,3.181767333333333,-2.7769668999999997
919,1778255698770,0.706423715,-0.839923,-1.8683803,2.0383835,3.196326,-2.5731463
920,1778255698780,0.45321432,-0.6782351,-1.8887589999999999,1.5764848400000002,3.13549942,-2.27210256
921,1778255698790,0.451115404,-0.565675926,-1.83428556,0.9308280600000002,3.0634875999999998,-1.8560102600000001
922,1778255698800,0.46151224,-0.52789587,-1.8045594,0.2695119,2.9667616,-1.5249261
923,1778255698810,0.45297024999999996,-0.38927132,-1.5162056499999998,-0.45060687666666666,3.0489643999999996,-1.2646465
924,1778255698820,0.48518583,-0.34338856,-1.4567777,-0.6178534,3.0727553,-1.1973573
925,1778255698830,0.49671750750000004,-0.2595548875,-1.3874045,-0.6588660749999999,2.9888657,-1.2061457
926,1778255698840,0.41597813428571434,-0.20873867857142855,-1.319164357142857,-0.6656381,2.529013914285714,-1.187085057142857
927,1778255698850,-0.0993313,0.039781332,-1.1111927,-0.04633900500000001,0.61572284,-0.80587256
928,1778255698860,-0.086249832,0.0805877032,-1.1494608999999998,0.0005326300000000006,0.481925627,-0.7829693799999999
929,1778255698870,-0.06662763,0.14179726,-1.2068632,0.18801917,-0.053263225,-0.69135666
930,1778255698880,-0.014643434999999996,0.17218239000000002,-1.2534781,0.283626655,-0.3760383625,-0.71106403
931,1778255698890,0.08346757,0.23575929,-1.3564702,0.32250882,-0.5877596675,-0.69441929
932,1778255698900,-0.343095692,0.3376776,-1.1376972699999999,0.360911596,-1.532169862,-0.758468296
933,1778255698910,-0.5389394325,0.434482905,-0.9698224975,0.554869635,-2.255963825,-0.7564709399999999
934,1778255698920,-0.27334413,0.5210622,-0.90374404,0.7733820000000001,-1.0871024,-0.74089146
935,1778255698930,-0.43881494,0.80368054,-0.967443,0.8404937,0.34248254,-0.6173208
936,1778255698940,-0.43881494,0.80368054,-0.967443,0.8404937,0.34248254,-0.6173208
937,1778255698950,-0.8709589666666666,0.9801339083333334,-1.1013490499999998,1.954227666666667,1.4416579,-0.7524318000000001
938,1778255698960,-1.5502517,0.9091133,-1.9710064,2.6168222,-0.26844665,-0.664725
939,1778255698970,-1.5502517,0.9091133,-1.9710064,2.6168222,-0.26844665,-0.664725
940,1778255698980,-1.6233293,0.8770371857142857,-2.110188742857143,2.592245028571429,-0.47175997142857146,-0.5951784528571429
941,1778255698990,-1.8366935,0.9340070833333334,-2.3210658,2.3245846666666665,-1.6534679333333333,-0.04793690333333333
942,1778255699000,-2.02921405,1.0112512,-2.2904773,1.7973675,-1.1986888,0.6426208149999999
943,1778255699010,-2.0061506333333337,1.0012855333333333,-2.1253318333333335,1.4998923333333334,-0.78545498,1.2144015333333333
944,1778255699020,-1.9766197,0.9898962,-2.0759509,1.478587,-0.71585774,1.4966966
945,1778255699030,-1.64719118,0.87894776,-2.0788797800000003,1.71070816,-0.947659256,1.7137974799999998
946,1778255699040,-1.1338899,0.7231416,-2.3395329,1.9845876999999998,-1.2516857,1.8935076000000002
947,1778255699050,-1.1338899,0.7231416,-2.3395329,1.9845877,-1.2516857,1.8935076
948,1778255699060,-0.6874278966666667,0.5037341599999999,-2.9334867999999994,1.1366372,-1.8522285,1.4535533999999999
949,1778255699070,-0.75657743,0.43295756,-2.984088,0.902279,-2.0394487,1.423726
950,1778255699080,-0.9350442875,0.34674434,-3.00257535,0.902279,-2.0394487,1.423726
951,1778255699090,-1.1177822066666667,0.06784791583333333,-2.7962046333333332,0.06373833000000001,-2.4480664666666665,1.9555592333333334
952,1778255699100,-1.0261997324999999,-0.04576073074999999,-2.6582105499999997,-1.34782585,-2.6043053,3.2724924
953,1778255699110,-0.5343023375,-0.260775155,-2.327268775,-2.0085561,-2.59684845,3.9204395499999998
954,1778255699120,-0.10470056,-0.33362624,-2.1938305,-2.3664849,-2.790993,4.14814
955,1778255699130,0.9794017466666668,-0.3909797066666667,-1.8376697,-2.9140309666666666,-3.3655254666666665,3.910941
956,1778255699140,1.7838144,-0.44296389999999997,-1.4892373,-3.50184376,-4.0431047399999995,3.23627342
957,1778255699150,2.1384296666666667,-0.47688785333333333,-0.7312768599999999,-3.6682382,-4.3425508,2.4815335
958,1778255699160,2.05178935,-0.54058681,-0.07614588,-3.24692605,-4.66505935,1.73185375
959,1778255699170,1.9339097,-0.5857374,0.21110949999999998,-3.0344057,-4.805408,1.5227956
960,1778255699180,1.9339097000000003,-0.5857374,0.2111095,-2.1433121,-5.4062172,1.2098208400000001
961,1778255699190,1.1650073,-0.7465710999999999,0.18084642750000002,-1.4721955,-5.7257963499999995,1.453287
962,1778255699200,0.9586568999999999,-0.7878168,0.11129010499999999,-1.3390373999999998,-5.719404700000001,1.6543556
963,1778255699210,1.09398665,-0.86823368,-0.286401175,-1.38324585,-5.45881465,2.407098275
964,1778255699220,1.2505494,-0.91472656,-0.46736962,-1.5781893,-5.1899686,2.8868666
965,1778255699230,1.6705021142857142,-1.0325713742857143,-0.32407315571428574,-2.163475985714286,-4.664032257142858,3.2801014
966,1778255699240,1.6054085,-1.0033194,-0.41880223,-3.1771511999999995,-3.7108487999999995,3.5697011999999995
967,1778255699250,1.6054085,-1.0033194,-0.41880223,-3.536678,-3.3044503,3.4935348
968,1778255699260,1.7613262428571428,-1.2460517714285715,0.09744857485714285,-3.8726928285714286,-2.6822598,3.489882457142857
969,1778255699270,1.6615417,-1.3208379,0.25674823,-4.1614556,-2.1268005,3.510579
970,1778255699280,1.56387,-1.33523726,0.29857964,-4.1614556,-2.1268005,3.510579
971,1778255699290,1.1436116,-1.4018241333333334,0.47497606666666664,-4.3078406,-1.66074725,3.9339329833333334
972,1778255699300,0.9853404333333334,-1.6332310333333335,0.5838663000000001,-4.397766666666667,-1.2923433333333334,4.276859300000001
973,1778255699310,1.1232735,-1.6443357,0.59867243,-4.463458,-1.000816,4.5364285
974,1778255699320,1.2268758,-1.6407969,0.60013676,-4.463458,-1.000816,4.5364285
975,1778255699330,1.4073967666666665,-1.6065475000000002,0.6069703533333334,-4.496303666666667,-0.9463099533333333,4.432742800000001
976,1778255699340,1.7504191666666664,-1.516856416666667,0.6181969766666667,-4.5658121666666664,-0.9588267666666667,4.02048555
977,1778255699350,1.6603215,-1.410895,0.60599416,-4.584898,-1.5664713,2.9960563
978,1778255699360,1.1802609,-1.3100992,0.47786412,-4.7697215,-2.3936493,2.5960495
979,1778255699370,0.9247328999999999,-1.3310882,0.460536,-4.9971557,-2.7419908,2.7830033
980,1778255699380,0.9247329,-1.3310882,0.460536,-5.125386725,-2.8446556,2.9364015500000002
981,1778255699390,1.33338234,-1.19675916,1.0663837600000001,-5.1681304,-2.8788772,2.9875343
982,1778255699400,1.6143573666666668,-1.0946781,1.3188853666666667,-5.082377,-2.5624936,3.2149682
983,1778255699410,2.1427006750000004,-0.670547275,1.488200025,-4.658934125,-1.507881775,2.4675518
984,1778255699420,2.289013,-0.5405868,1.5277983,-4.5177865,-1.1563445,2.218413
985,1778255699430,2.29208812,-0.19436719800000002,1.07565788,-4.3584229,-2.9042304999999997,0.1343298
986,1778255699440,2.238005,-0.10201593,0.8690878,-4.318582,-3.341202,-0.386691
987,1778255699450,2.151201983333333,-0.13073333,0.8609118933333333,-4.318582,-3.3412020000000004,-0.38669100000000006
988,1778255699460,1.7171869000000002,-0.27432033,0.8200323600000001,-4.9938532,-4.6802394,-0.539769516
989,1778255699470,1.7171869,-0.27432033,0.82003236,-5.444034,-5.572931,-0.64182186
990,1778255699480,2.547364942857143,-0.33652006285714287,2.953371602857143,-5.444034,-5.572931,-0.64182186
991,1778255699490,3.3150296,-0.20061506,4.6614933,-5.857223325,-5.6536247500000005,0.18961706749999999
992,1778255699500,3.2766638200000004,-0.035583548000000007,4.75838404,-4.09913772,-3.7624072399999995,0.22647521799999998
993,1778255699510,2.9731867666666667,0.9087879,4.949887666666666,-1.2577222666666668,-2.759922733333333,0.16902196333333333
994,1778255699520,2.8254507,1.406502,3.8641584,-0.40306945,-2.370746075,-0.024900557500000003
995,1778255699530,2.579257875,1.582772325,3.64999815,-0.30932617500000004,-2.062751475,-0.08215852325
996,1778255699540,2.3724107,1.7287620714285714,3.6218095571428575,-0.6041571485714285,-1.4886309857142856,-0.011261368285714288
997,1778255699550,2.2092062500000003,1.8272566000000001,3.75299035,-0.9755159200000001,-0.7920240999999999,0.3733752
998,1778255699560,2.26418015,1.799861225,3.888625075,-1.0747186750000002,-0.535561675,0.577772825
999,1778255699570,2.4195836,1.7711233999999998,4.0747795,-1.0855045,-0.330232,0.7451525
1000,1778255699580,3.3160057,1.7489142,4.6180515,-0.45486793,0.44421527,0.7222493
