id,timestamp,acc_x,acc_y,acc_z,gyro_x,gyro_y,gyro_z
0,1778255817260,0.37316352,-0.08297946,0.92180425,-0.002130529,0.08522116,0.026631612
1,1778255817270,0.3845854,-0.0727290544,0.88607426,0.013741911480000002,-0.034194989999999995,-0.0066046392
2,1778255817280,0.40528146,-0.0664323778,0.8587886319999999,0.012570120600000002,-0.0878843196,-0.026631611399999998
3,1778255817290,0.38219365,-0.058085624,0.88690406,-0.036751624,0.028229509,0.022370555
4,1778255817300,0.386037555,-0.055462008,0.884158395,-0.036751624,0.028229509,0.022370555
5,1778255817310,0.39756927,-0.04759116,0.8759213999999999,-0.07350325,0.07456851,0.053263225
6,1778255817320,0.4876263533333333,-0.035469652666666664,0.8566409666666667,-0.11256294333333333,0.19636374999999998,0.0142035268
7,1778255817330,0.5089813624999999,-0.0273954255,0.8485260675,-0.13209279,0.25726137,-0.0053263223
8,1778255817340,0.502025756,-0.0224532678,0.823449138,-0.15552861199999998,0.292628136,-0.08926916160000001
9,1778255817350,0.48559258000000005,-0.024731135,0.8045754166666667,-0.1739932,0.3130102,-0.14203526
10,1778255817360,0.471128128,-0.0270415424,0.794308748,-0.18290590999999998,0.3206446,-0.168311784
11,1778255817370,0.42954077,-0.038561045,0.756089355,-0.194677075,0.3206446,-0.215449735
12,1778255817380,0.42661208,-0.040513504,0.75096416,-0.19707392,0.314253,-0.22210763
13,1778255817390,0.41392107499999997,-0.0502757915,0.71972483,-0.213984995,0.23555658999999998,-0.23582292249999998
14,1778255817400,0.4197784375,-0.055156936999999996,0.7180164125,-0.225969215,0.138883855,-0.2454103
15,1778255817410,0.42246305999999995,-0.05613316599999999,0.7194807500000001,-0.22690132,0.12357068,-0.24607609
16,1778255817420,0.43775736,-0.06101431233333334,0.6755504800000001,-0.23888556000000002,0.0354200435,-0.265250845
17,1778255817430,0.44011657666666665,-0.055482347999999994,0.6450432933333333,-0.26471822666666667,0.011717909333333333,-0.2698669933333333
18,1778255817440,0.44906533,-0.05222825,0.61722076,-0.31638355,-0.006791060999999999,-0.2861566675
19,1778255817450,0.49055508,-0.042465962,0.5637722,-0.37550572,-0.014381070000000001,-0.31691617
20,1778255817460,0.49747001333333335,-0.037747519666666667,0.4216495666666667,-0.6702288900000001,0.0218379211,-0.4932174333333333
21,1778255817470,0.48001181,-0.043735057,0.396153718,-0.7373760600000001,0.047297742,-0.50770503
22,1778255817480,0.45345837,-0.050763905,0.37291947,-0.8447547,0.10226539,-0.50813115
23,1778255817490,0.36974675,-0.043320164,0.457363285,-0.99548966,0.10918961,-0.4426174
24,1778255817500,0.311173,-0.033435844,0.5276518,-0.9715212000000001,0.036218993,-0.08042747
25,1778255817510,0.33509057999999997,-0.051252022,0.35900820000000006,-0.9715212000000001,0.036218993,-0.08042747
26,1778255817520,0.39939967,-0.08950799450000001,0.19823549750000002,-1.18017985,-0.53423012,-0.1601891475
27,1778255817530,0.45402782,-0.09091132083333332,0.15827112566666668,-1.27316855,-0.9504822083333334,-0.21553850333333335
28,1778255817540,0.45919371,-0.1441158075,0.002318549499999996,-1.7740647999999999,-2.072205775,-0.1866875975
29,1778255817550,0.511544,-0.17108414,-0.102992155,-1.961285,-2.2654180999999998,-0.1510012375
30,1778255817560,0.50308335,-0.14065833,-0.11869317666666666,-2.1134846,-2.2546322,-0.03195793
31,1778255817570,0.5284652933333334,-0.15879992,-0.13333661333333333,-2.379800766666667,-1.907178466666667,0.09303309666666666
32,1778255817580,0.55840296,-0.18597162,-0.13349932,-2.5236115,-1.6692694,0.07350325
33,1778255817590,0.53316748,-0.25108610200000003,-0.181529772,-3.00106302,-1.2321914,-0.4941761720000001
34,1778255817600,0.49860897,-0.31519993999999996,-0.17987018999999999,-3.1955271,-1.37552275,-0.8724516
35,1778255817610,0.47377613500000004,-0.325755415,-0.1572948985,-3.2474587,-1.5254587,-1.0125339
36,1778255817620,0.39403041,-0.34851375500000004,-0.09847709900000001,-3.2633045999999997,-2.158225825,-1.0984208
37,1778255817630,0.37560410000000005,-0.36632994,-0.079562664,-3.260242,-2.2482407,-1.0924287
38,1778255817640,0.333382185,-0.33704306,-0.025381952750000002,-3.226331066666667,-2.2846372333333336,-0.9983303533333333
39,1778255817650,0.25253823,-0.299275215,-0.00482013035,-3.2312134500000003,-1.6990968,-0.97977698
40,1778255817660,0.24112856,-0.2889638,-0.0056133163,-3.2634377,-1.4359765,-1.0162623
41,1778255817670,0.1633353125,-0.2536364875,0.007992874725,-3.31789925,-0.980043225,-0.9203884099999999
42,1778255817680,0.11592719,-0.25015867,0.01513155,-3.3039176,-0.7819040999999999,-0.65194184
43,1778255817690,0.240396395,-0.195123765,0.012935034500000001,-3.28687345,-1.01519705,-0.55580172
44,1778255817700,0.41664641,-0.13484163000000002,0.0078911845,-3.271782266666667,-1.4052613999999999,-0.4738651333333333
45,1778255817710,0.67555046,-0.10860548,-0.006345488,-3.2756882,-1.7188042,-0.5022722
46,1778255817720,1.6794799249999999,-0.32294876250000004,-0.1628472025,-3.6950030000000003,-2.40723135,-1.1217235
47,1778255817730,1.9675895,-0.56548065,-0.31312546,-4.074104,-2.6413233,-1.2911005
48,1778255817740,2.4178753,-0.91497064,-0.4846977,-4.9449577,-2.7808728,-1.4716629
49,1778255817750,2.98965252,-1.46424584,-0.60452977,-6.5141984399999995,-2.56675474,-1.68269168
50,1778255817760,3.3457806,-1.8348223999999997,-0.53228885,-7.692807,-2.1257353,-1.8578212
51,1778255817770,3.5656762,-2.2328796,1.1460928,-7.692806999999999,-2.1257353,-1.8578212
52,1778255817780,3.5808892999999995,-2.3140289666666667,1.7697811833333335,-9.792798,2.5667546,-2.002164516666667
53,1778255817790,3.405575,-2.2697322,3.0641387,-8.660068,5.2437644,-1.8242654
54,1778255817800,3.405575,-2.2697322,3.0641387,-8.660068,5.2437644,-1.8242654
55,1778255817810,3.2140714,-2.0579719666666665,3.6412527666666663,-7.3519225,6.249374,-1.5638081999999998
56,1778255817820,3.5748287999999997,-1.9406212,3.70454505,-4.7321709499999995,6.350574,-1.9568908
57,1778255817830,3.7035690000000003,-1.9807687,3.5908144,-2.1124194,6.451774,-2.3499734
58,1778255817840,3.9911902,-2.117562875,3.1030659,-0.14487597999999996,5.39343405,-3.18940175
59,1778255817850,4.0647736,-2.1816278,2.7541859999999994,1.1139115133333333,4.329057266666667,-3.9823136666666663
60,1778255817860,3.6725327166666664,-2.1313519833333334,1.7396808166666666,1.6628777999999997,3.6927392,-4.401673
61,1778255817870,3.5393183,-2.1801634,1.3506129,2.1252027,3.3502567,-4.829376
62,1778255817880,3.4778971666666667,-2.098729666666667,1.2467258666666667,1.9957730333333332,3.5844373666666667,-4.7256903333333335
63,1778255817890,3.2884273333333334,-1.9262625333333334,0.7961961000000001,0.8181230899999999,6.2059643499999995,-4.2045985
64,1778255817900,3.058525533333333,-1.7851974000000002,0.8956087666666667,0.34035198666666666,7.3682567,-4.022616
65,1778255817910,3.0375366,-1.7757605,0.9518233,0.2743056,7.6214347,-3.908988
66,1778255817920,2.90847908,-1.77654146,1.06233234,0.35228296,7.55624054,-3.87319504
67,1778255817930,2.4976819,-1.6935132,1.3274274,1.0199907,6.5295386,-4.247742
68,1778255817940,2.37399368,-1.6630548600000001,1.36110728,1.21812988,6.25651128,-4.2931222
69,1778255817950,1.8792408,-1.5412215,1.4958268,2.0106866,5.164402,-4.474643
70,1778255817960,1.750622625,-1.525174725,1.49515565,2.30110435,4.978912825,-4.438956675
71,1778255817970,1.3647681,-1.4770344,1.4931422,3.1723576,4.4224453,-4.3318977
72,1778255817980,1.1685461,-1.4933863,1.4440868,3.627758,4.2136536,-4.1784997
73,1778255817990,1.0928884,-1.547567,1.3367015,4.037352,4.000601,-4.020308
74,1778255818000,1.07848892,-1.5941331,1.07419354,4.7132626,3.2123049999999997,-4.007525
75,1778255818010,1.0396838,-1.5936939,1.036267,4.7132626,3.212305,-4.007525
76,1778255818020,0.950663975,-1.6137064749999999,0.9764120749999999,5.1863732250000005,2.1832595175000002,-4.0992707500000005
77,1778255818030,0.9274175000000001,-1.6605655,0.8942258,5.9862537,0.60773337,-4.243481
78,1778255818040,0.9274175000000001,-1.6605655,0.8942258,5.9862537,0.60773337,-4.243481
79,1778255818050,1.2588474,-1.8411678,0.7070338,6.3325977,0.29374667250000003,-4.53030335
80,1778255818060,1.29692032,-1.8990582,0.609215668,6.51196154,0.244691248,-4.835554879999999
81,1778255818070,1.3532161,-1.9784094666666665,0.36779427666666664,6.534687099999999,0.36467553999999996,-5.268620333333334
82,1778255818080,1.3528093,-1.9746673,0.32044718,6.498113,0.38296258,-5.32792
83,1778255818090,1.2511188000000002,-1.9552239333333332,0.12129644666666667,6.2761830000000005,0.32703617999999995,-5.445543
84,1778255818100,1.168302,-1.8821694,0.05344854,5.590508,0.012250541,-5.6986322
85,1778255818110,1.1035292,-1.8513206,0.055449808,5.590508,0.012250541,-5.6986322
86,1778255818120,0.849868285,-1.6972351749999999,0.108361415,4.6177881,-0.30892669,-5.372927625
87,1778255818130,0.86615914,-1.6051645,0.24308102,4.1236386,-0.27856666,-5.022189
88,1778255818140,1.0396024833333335,-1.5929615833333333,0.36201823333333333,3.8830664,0.19014970533333334,-4.7917371
89,1778255818150,1.1801388499999999,-1.577342,0.38182754999999996,3.7643782,0.49534797500000005,-4.6890278
90,1778255818160,1.248840975,-1.571911675,0.32789091000000004,3.6310870250000002,0.5118595775,-4.752943625
91,1778255818170,1.2854496,-1.5744481857142858,0.22585753285714283,3.2954717428571425,0.4180402107142857,-5.0116128571428575
92,1778255818180,1.2034464,-1.6346955,0.17816179,3.053048,-0.010652645,-5.1494884
93,1778255818190,1.06445574,-1.58509085,0.206777505,2.8218855,-0.5149222025,-5.22818475
94,1778255818200,0.816406342857143,-1.5144798142857143,0.21846610285714285,2.6205505714285713,-1.1055162628571429,-4.85091
95,1778255818210,0.5824426,-1.3974718,0.143383635,2.42321035,-1.452754375,-4.10086875
96,1778255818220,0.59515798,-1.3363110599999999,0.051398456,2.3594542400000003,-1.42308674,-3.90121154
97,1778255818230,0.6631035,-1.2673893,-0.07980672,2.214152,-1.3012205,-3.5633097
98,1778255818240,0.81417495,-1.1492655,-0.27212384,1.9371833999999999,-0.9811085499999999,-3.2607746
99,1778255818250,1.1146095,-0.9686632,-0.8559087499999999,0.8852348,-0.30679616,-3.1755532999999994
100,1778255818260,1.1146095,-0.9686632,-0.8559087499999999,0.8852348,-0.30679616,-3.1755532999999994
101,1778255818270,0.784644075,-0.91631295,-1.070923125,0.445546885,-0.15566176999999998,-3.2173649749999997
102,1778255818280,0.3515644633333333,-0.8450889333333333,-1.2909813666666665,-1.0050770166666665,0.295699645,-3.2850981666666663
103,1778255818290,-0.7480355,-0.5730464,-1.1988091,-2.6560592666666665,0.15428580333333333,-2.017610866666667
104,1778255818300,-1.0786353600000003,-0.324840202,-0.9410359140000001,-2.8982649,0.066898608,-1.7374462999999998
105,1778255818310,-1.231547742857143,-0.24318561142857145,-0.6956328814285715,-3.249741385714286,-0.05919827171428572,-1.3376677857142858
106,1778255818320,-1.4831359499999999,-0.28444870499999997,-0.35424909,-3.39553045,0.09747169950000001,-1.000283325
107,1778255818330,-1.5587937,-0.21232979,-0.24820623,-3.3625073,0.1784318,-0.8847021500000001
108,1778255818340,-1.8638653,0.009518232,-0.2923806,-3.2871779,0.4003111657142857,-0.6121465871428571
109,1778255818350,-1.86640342,-0.0011226640000000002,-0.28437552,-3.2531046000000003,0.951600756,-0.5375324239999999
110,1778255818360,-2.1428714199999996,0.1347684068,0.104407692,-2.7158917199999997,1.63997466,-0.770186198
111,1778255818370,-2.358406516666667,0.253900885,0.40562315,-1.7117024666666667,1.1417859399999999,-1.1664645833333334
112,1778255818380,-2.5272126,0.34338856,0.6557818,-1.3779196,0.9203884600000001,-1.2724584
113,1778255818390,-2.8050196857142855,0.4767832771428572,0.7764856,0.3594506562857143,0.04786082857142856,-1.921965342857143
114,1778255818400,-3.1642022,0.52423495,0.6570021,2.5608957,-1.4034859,-3.038667
115,1778255818410,-3.1642022,0.52423495,0.6570021,2.5608957,-1.4034859,-3.038667
116,1778255818420,-3.1642022,0.52423495,0.6570021,3.0178941750000003,-2.305099125,-3.45159015
117,1778255818430,-4.537024066666667,0.19178831666666665,-0.1022599845,3.3768882999999996,-3.3475935,-3.6362803000000006
118,1778255818440,-4.6348910000000005,0.16717921,-0.12568948,3.3520828571428574,-3.2091852142857142,-3.336256171428572
119,1778255818450,-5.205551222222223,-0.10887664555555555,-0.08528444777777777,3.3198374888888886,-2.9333831888888886,-2.7482048166666666
120,1778255818460,-5.34597636,-0.446185478,0.051007968,3.2107072000000003,-1.5574167,0.15606125
121,1778255818470,-5.4002547,-0.54912883,0.09786696000000002,3.201500257142857,-1.4750108714285715,0.35229817142857145
122,1778255818480,-4.098732271428571,-1.05091048,-0.3622855542857143,3.0181986285714286,-0.7237710871428572,2.5726897142857146
123,1778255818490,-2.8082041666666666,-1.4073968333333333,-0.6897871333333333,2.6997353333333334,-0.48149955666666666,4.9472658
124,1778255818500,-2.4949624714285714,-1.4749425857142857,-0.7617723857142857,2.625877,-0.531567,5.439240500000001
125,1778255818510,-1.5980170628571428,-1.5579916714285713,-0.9036742057142856,2.583266428571428,-0.6881608571428571,5.516700357142858
126,1778255818520,-0.6972715654285715,-1.6110218,-0.9670594071428571,2.4706527428571428,-1.230152157142857,5.569278571428571
127,1778255818530,-0.032215554,-1.6769173,-1.019183,2.4554346,-1.6064188,5.2166
128,1778255818540,0.400742,-1.7184072,-1.0323621,2.51819645,-1.9294603,4.785966999999999
129,1778255818550,0.6050179,-1.8109047,-1.0413923,2.5645481142857145,-2.0956796428571427,4.5533209999999995
130,1778255818560,0.87970438,-1.888209925,-0.998438235,2.7188212,-2.06235195,4.3111253000000005
131,1778255818570,1.0960610833333335,-1.9302081166666667,-0.8835279566666667,2.819577466666667,-1.961862,4.3315426666666665
132,1778255818580,1.1033828,-1.9234152,-0.873725,2.8277445,-1.9244002,4.363323
133,1778255818590,1.1617125,-1.9256116,-0.8546885,2.7771444,-1.7656758,4.4842305
134,1778255818600,1.2815446285714285,-1.9770032,-0.8846378,2.5827336714285716,-1.5851896142857143,4.618530085714285
135,1778255818610,1.4065425999999999,-2.016767133333333,-0.9061032216666667,2.4197483,-1.4492923,4.716991
136,1778255818620,1.5846637000000001,-2.0020016,-0.833455465,1.722466,-0.7066032437499999,4.7870985
137,1778255818630,1.6063848,-1.9927274,-0.7905014,1.617604,-0.5997439,4.774515
138,1778255818640,1.6131486714285717,-1.994470657142857,-0.7373317857142857,1.5084905285714285,-0.4382041514285714,4.741111485714286
139,1778255818650,1.632376925,-1.9916901249999999,-0.61081425,1.366468,-0.1544633475,4.715659575
140,1778255818660,1.7047399499999998,-1.90193815,-0.38780698499999994,1.2703279,1.058340265,4.956941850000001
141,1778255818670,1.8176774,-1.843791575,-0.3680993575,1.27885,1.7710022,5.1766524
142,1778255818680,1.9470887,-1.8128573,-0.43051702,1.171791,2.3094933,5.441903599999999
143,1778255818690,1.9760502333333332,-1.7713675,-0.4951108066666667,1.08284135,2.56595575,5.512211099999999
144,1778255818700,1.9905309999999998,-1.7506226,-0.5274077,0.9938917000000002,2.8224182,5.5825186
145,1778255818710,2.023374142857143,-1.7269840571428572,-0.7010369857142857,0.6024831285714286,2.5268834,5.706089114285715
146,1778255818720,2.05227748,-1.6262999399999998,-0.7477425600000001,0.11856393999999999,2.0879183400000003,5.78683608
147,1778255818730,1.929950522222222,-1.3949498444444446,-0.6239730277777777,-1.4183996333333333,0.7898344266666667,5.707805222222222
148,1778255818740,1.7921124333333331,-1.3493925333333332,-0.4151413833333333,-1.77881405,0.6837222500000001,5.737247916666667
149,1778255818750,1.6090695,-1.3318204,-0.13154685,-2.2088258,0.7004113571428572,5.857661
150,1778255818760,1.5643155,-1.3333762375,-0.023368473749999997,-2.4860608749999997,0.8406267749999999,6.02713325
151,1778255818770,1.4844375666666665,-1.3188853,0.18011425333333334,-2.6407906,1.0164398333333333,6.153855466666666
152,1778255818780,1.4738617,-1.2847173,0.22648512,-2.6770096000000003,0.9901633,6.0981064
153,1778255818790,1.4738617,-1.2847173,0.22648512,-2.6770096,0.9901633,6.0981064
154,1778255818800,1.41304262,-1.2017379,0.37086938399999997,-2.6889406399999998,-0.41683798000000005,5.58166608
155,1778255818810,1.307379842857143,-1.1289042285714286,0.5576708285714286,-2.6832490571428567,-1.1864763285714286,5.4161848571428575
156,1778255818820,1.2104891142857142,-1.1323906857142858,0.6527834214285715,-2.659584857142857,-2.3718113142857145,5.386433657142857
157,1778255818830,1.1714748,-1.138771,0.6933666500000001,-2.654639,-2.7233486,5.5393753
158,1778255818840,1.1714748,-1.138771,0.69336665,-2.55157475,-2.9969885,5.8877166249999995
159,1778255818850,1.73471014,-0.9055499999999999,0.9506517800000001,-1.0189254479999998,-2.87727926,7.215781559999999
160,1778255818860,2.918262242857143,-0.5519180542857143,0.7830053285714286,-0.9886415,-2.7053912857142857,7.2183078571428565
161,1778255818870,3.9129699125,-0.23810833999999997,0.1917984875,-1.4500912499999998,-2.30842825,6.93407275
162,1778255818880,4.1340857,-0.12910628,0.05515694000000001,-1.7981664000000002,-2.1747375,6.738862999999999
163,1778255818890,4.2628667,-0.03945592,0.10738518333333334,-2.9458113333333333,-2.106915633333333,6.094733000000001
164,1778255818900,4.524875333333333,0.09469421244444445,0.8011585777777778,-3.927452533333333,-2.3835292666666668,5.463031233333333
165,1778255818910,4.815045883333334,0.088877516,1.2996048833333333,-3.7420965333333336,-2.579005233333333,5.307147333333333
166,1778255818920,5.351338785714286,-0.030507157142857146,1.5967619714285715,-3.429923314285714,-2.659813214285714,5.116769428571429
167,1778255818930,5.5872025,-0.08542004,1.9461124,-3.2229576,-2.763296,4.9710565
168,1778255818940,5.772360633333332,-0.06068890200000001,2.3177303333333334,-2.2521465666666667,-2.6988475,5.2545945
169,1778255818950,7.2598184125000005,0.40717901125,2.51827425,-0.7398261610000001,-1.7801901249999998,4.9371013249999995
170,1778255818960,7.9970236,0.6375821314285715,1.7656496,0.020772656,0.2231729,3.2453282
171,1778255818970,7.997023600000001,0.741812,1.4118712,-0.46285743500000004,1.29163315,1.3813816999999997
172,1778255818980,7.997023600000001,0.7180164,1.500464,-0.9576728,2.3600934,-0.48256480000000007
173,1778255818990,7.8027951,0.4288085916666666,2.212501083333333,-0.36378780000000005,3.3268209,-1.9409119
174,1778255819000,7.0432834,0.11000009164285714,2.7073968571428573,-0.18763871428571427,3.420868542857143,-2.091418542857143
175,1778255819010,5.0170034999999995,-0.8724775759666668,2.064453211111111,1.9114395333333336,3.8867949333333334,-3.6107139333333333
176,1778255819020,3.9243184,-1.1569534000000001,1.3260850499999999,4.0996703000000005,3.2815471499999997,-4.8842375
177,1778255819030,3.5290678,-1.2146729,1.0455412,4.2035336,2.8730183000000005,-4.92525
178,1778255819040,3.5290678,-1.2146729,1.0455412,4.00918945,2.1744045625,-4.8730521375
179,1778255819050,3.0927282857142857,-0.9412241571428571,0.7763460857142856,3.6603248,1.812851857142857,-4.7211758999999995
180,1778255819060,2.9870979833333333,-0.9379932666666667,0.68649235,2.8575718,1.158475,-4.3601274
181,1778255819070,2.849856475,-0.41935136794,0.643823025,2.0777984,1.6612799,-3.9617186
182,1778255819080,3.1764052,-0.00073217176,0.7067898,1.7374463,1.9888487,-3.858388
183,1778255819090,3.3066272,0.05139148664,0.6930180142857143,1.5966031571428572,2.0993318857142858,-3.873910342857143
184,1778255819100,3.7489983,0.11240579435714286,0.8360354714285715,1.2080098,2.5070999,-4.1049967
185,1778255819110,3.7477430999999997,-0.0053692595,0.8881243,1.4828481166666665,3.0194919833333334,-4.932795616666667
186,1778255819120,3.587850742857143,-0.28871972,0.9828882714285714,1.9709675285714285,3.162085285714286,-5.660358714285715
187,1778255819130,3.4351666,-0.46663745,0.98025595,2.706837075,2.92521625,-6.352971074999999
188,1778255819140,3.18177436,-0.7588716,0.8052425,3.59217832,2.3010778000000003,-7.147285459999999
189,1778255819150,2.77017185,-1.16903425,0.397081145,4.3481431375,1.18211066125,-8.0507361875
190,1778255819160,2.3734568285714284,-1.5462420857142856,-0.001324883714285709,4.814005985714286,-0.4778471842857143,-9.043714857142858
191,1778255819170,2.2081951857142856,-1.7187207857142859,-0.20643757085714284,4.7637864,-1.0120012600000001,-9.282638714285714
192,1778255819180,2.1215897,-1.8167621,-0.33753118,4.679174,-1.4082797,-9.449429
193,1778255819190,2.0160523571428572,-1.9839412714285716,-0.6655789642857143,3.6738689571428575,-2.1628672714285715,-9.778822714285713
194,1778255819200,1.9334215,-2.1047497,-0.9176551999999999,3.1707597,-2.3664849,-9.863283
195,1778255819210,1.8258735777777777,-2.1192032444444444,-0.968473388888889,3.1707597,-2.3664849,-9.863283
196,1778255819220,1.779386542857143,-2.0867242,-0.9162605871428572,1.595918357142857,-2.3839858428571428,-9.613402857142859
197,1778255819230,1.8177384,-2.0495927,-0.84809893,1.186172,-2.3531692,-9.47606
198,1778255819240,1.726705,-1.956851,-0.74339837,0.6034723,-2.338788,-9.199091
199,1778255819250,1.6634535,-1.8167214999999999,-0.5922862283333333,0.005326322300000001,-2.4570324,-8.76393
200,1778255819260,1.6495829,-1.6990451999999998,-0.50259522,-0.1097222418,-2.6164669333333332,-8.628464166666667
201,1778255819270,1.6463753714285712,-1.6447715857142857,-0.5185170628571428,-0.41651841142857143,-3.004730457142857,-8.283344428571429
202,1778255819280,1.705228,-1.6168792999999997,-0.5662128,-0.5187838,-3.0972564,-8.184427
203,1778255819290,1.7054721,-1.565139,-0.7192367,-0.7545031611111112,-3.107198811111111,-8.038603777777778
204,1778255819300,1.6706067714285715,-1.5675795714285716,-0.7499879142857143,-1.6582363357142857,-2.914183042857143,-7.333585142857143
205,1778255819310,1.3460802857142855,-1.5946351142857143,-0.9757757714285714,-2.1099084857142856,-2.5580042714285716,-6.8442482857142855
206,1778255819320,1.2149440666666667,-1.5887041999999998,-0.9830355111111112,-3.0728737777777777,-1.3722973166666668,-5.488952666666666
207,1778255819330,1.0587204,-1.5353642,-0.9000831,-3.7108488,-0.05326322499999999,-4.059723
208,1778255819340,1.1376903285714286,-1.4464576285714286,-0.9487202071428572,-3.8097662285714287,0.3710163892857143,-3.6287472857142857
209,1778255819350,1.3040283875,-1.2977134,-1.15225523125,-4.050535075,1.2424978,-2.874083475
210,1778255819360,1.329196825,-1.1812065375,-1.5529973,-4.8751826,2.4431841,-2.0788636
211,1778255819370,1.177179625,-1.1863622875,-1.5489092999999998,-5.2379052999999995,2.4852620500000002,-1.90842125
212,1778255819380,1.0809295,-1.1875826,-1.4958268,-5.600628,2.52734,-1.7379789
213,1778255819390,0.7542066571428572,-1.1183749571428572,-1.10955393,-5.6745114857142855,2.3810183428571428,-1.6752805285714287
214,1778255819400,0.4038333866666666,-1.0970373,-0.7967655633333334,-5.354255644444445,2.3589097555555556,-1.5484210444444446
215,1778255819410,-0.13621879714285717,-0.9696045542857143,-0.5547072485714286,-4.949066428571428,2.455814985714286,-1.3258738
216,1778255819420,-0.8409864142857143,-0.7717090285714285,-0.3304535,-4.3964988,2.815874442857143,-0.7319128428571429
217,1778255819430,-1.1514622,-0.6936107,-0.3133695,-3.7896783000000003,3.4892738,0.24394554999999998
218,1778255819440,-1.5084830571428574,-0.69988645,-0.2682189071428572,-3.8140271571428572,3.870105728571428,0.7655446785714286
219,1778255819450,-1.9666133,-0.78464407,-0.16644704,-4.005926957142857,4.525547757142857,1.58229819
220,1778255819460,-1.9922664333333333,-0.8212526588888889,0.08769790786666667,-4.259815033333333,4.832099022222222,1.877410288888889
221,1778255819470,-1.987149,-0.8540609357142858,0.9275221428571429,-3.749883071428571,4.2689712,1.1151797414285716
222,1778255819480,-2.0952315,-0.7902574,1.2359059,-3.3268209,4.037352,0.80533993
223,1778255819490,-2.118722,-0.753953875,1.32864765,-2.613759525,3.579554775,0.3623230825
224,1778255819500,-2.5736882857142858,-0.6158610571428572,1.6748602714285714,-0.8917024628571429,3.0658310428571425,-0.3106767714285715
225,1778255819510,-3.086348,-0.5769514,1.7655101,0.6514757824999999,2.846053725,-0.6743789950000001
226,1778255819520,-4.690169975,-0.4068434225,0.3311856875,2.94452405,1.72759265,-0.5143895725000001
227,1778255819530,-4.852346,-0.6550496,-0.46834585,3.4242926,1.567004,-0.29028457
228,1778255819540,-5.368862775,0.3900950125,-1.21110360625,2.117479435,0.575309385,0.53256567375
229,1778255819550,-5.339891250000001,0.5777648333333333,-1.335725316666667,-0.21305289000000002,0.6177646099999999,1.8740665833333334
230,1778255819560,-5.260514428571429,0.5524758857142857,-1.1956015857142859,-0.42039900714285716,0.6444849914285714,2.0809181285714287
231,1778255819570,-4.8390449625,0.534302375,-0.76246534375,-0.87005475,0.279365595,2.8138961
232,1778255819580,-4.5556423142857145,0.5179243771428571,-0.5604251628571429,-0.8253516971428573,-0.0008369971428571448,3.0228400285714287
233,1778255819590,-3.6916405625,0.33655495,-0.25534489000000005,0.053662689999999985,-0.8845024,3.07688325
234,1778255819600,-3.162707325,0.13279765625,-0.28033025625,1.31000895,-1.888980225,3.0990541
235,1778255819610,-2.861257414285714,-0.1524311857142857,-0.7555315285714286,1.9855768428571428,-2.3989756285714283,3.2630572571428575
236,1778255819620,-2.504118825,-0.46831535,-1.4688586125,2.3672173874999998,-3.1053790125,3.7085184625
237,1778255819630,-2.4417927,-0.5776835,-1.704984,2.3718114,-3.3055155,3.8701057
238,1778255819640,-1.4276536433333333,-1.0575000666666667,-2.2441877333333333,1.4836470866666664,-3.5005477999999997,4.440111083333334
239,1778255819650,-0.79782313,-1.3489044,-2.3409972,0.87990844,-3.4871433,4.798484
240,1778255819660,-0.5006660028571429,-1.4703402857142858,-2.1102585,0.6835954171428572,-3.2648073857142856,5.0062105571428575
241,1778255819670,-0.013248817142857135,-1.6617508571428572,-1.7109111000000001,0.4695533514285714,-2.7873406142857142,5.342301328571429
242,1778255819680,0.25162303555555554,-1.750649688888889,-1.4505407444444447,0.53316486,-2.5459821,5.4211307
243,1778255819690,0.7979974571428572,-1.9010317,-1.0663907571428572,0.9109532657142857,-1.9702827,5.404923242857143
244,1778255819700,0.9810404342857142,-1.9286798142857144,-1.0326411142857144,1.1771172,-1.6357136,5.326322
245,1778255819710,1.1121960777777777,-1.9542205222222222,-1.0629778,1.194398177777778,-1.7294568444444447,5.060479333333333
246,1778255819720,1.3746697714285714,-1.9955165857142858,-1.0507012571428571,1.222391,-1.9358137857142859,4.441467771428572
247,1778255819730,1.415074325,-1.9960221125000002,-1.005973425,1.2271847,-2.0026972,4.2264366
248,1778255819740,1.4252943249999999,-1.98223295,-0.75493006,1.534779775,-2.70776915,3.1055121
249,1778255819750,1.3659883857142856,-2.0059761714285713,-0.5608435514285715,1.6840309285714288,-2.896682342857143,2.9104546142857144
250,1778255819760,1.3004183333333335,-2.055856866666667,-0.35551004333333336,2.042822166666667,-3.2149681,2.603210488888889
251,1778255819770,1.1084673833333334,-2.19858965,-0.036567911,2.9381769999999996,-3.684927416666667,2.2060739666666667
252,1778255819780,1.0651269,-2.2369066,-0.0099453319,3.20351665,-3.8035268875000003,2.1429126625
253,1778255819790,1.013569775,-2.312625375,-0.080782945,4.626709999999999,-4.36944875,1.96221705
254,1778255819800,0.97421554,-2.389930675,-0.2411285575,5.085838799999999,-4.40779815,2.0588898
255,1778255819810,0.95279956,-2.4378877,-0.39927766,5.319778428571429,-4.303668328571429,2.235076914285714
256,1778255819820,0.9609347177777777,-2.5463577444444443,-0.8779010066666667,5.171740777777778,-3.407070733333333,3.1308713666666663
257,1778255819830,0.96768695,-2.591644,-1.0450531,4.957741,-2.8346686,3.6639771
258,1778255819840,0.9734746142857144,-2.5729213142857144,-1.0947711,4.2765802285714285,-1.9039318714285716,4.781211142857144
259,1778255819850,1.0418532422222222,-2.5475780333333335,-1.0576627222222221,3.7199034666666666,-1.0830188333333333,5.855048666666667
260,1778255819860,1.3278108999999998,-2.4888957857142855,-0.985328842857143,3.1037240571428577,-0.17310545714285716,7.025647428571429
261,1778255819870,1.7320743625000001,-2.41287185,-0.990231825,2.3783361375,0.69448583125,7.984357187500001
262,1778255819880,1.8638653,-2.388344,-1.0135698,2.156628,0.9044095,8.16472
263,1778255819890,2.160046,-2.1711683285714285,-1.0354999714285715,1.1258323514285715,1.3872025857142858,8.386522714285714
264,1778255819900,2.2797115555555556,-2.021634788888889,-0.8518954,0.27282605666666665,1.6241140555555555,8.36995988888889
265,1778255819910,2.2660367142857143,-1.9971902142857143,-0.6241241142857142,-0.8383631428571429,1.5866352857142856,8.148436
266,1778255819920,2.2381792142857146,-2.0366924857142856,-0.35838062000000004,-1.8759307714285713,1.0094902,7.741885371428572
267,1778255819930,2.2684847777777777,-2.0944720444444447,-0.2115976311111111,-1.9444035888888886,0.6492194888888889,7.566809988888888
268,1778255819940,2.294626257142857,-2.1314913714285715,-0.10490974857142857,-1.830809157142857,-0.05539374285714286,7.2288844999999995
269,1778255819950,2.2928829714285714,-2.0969398285714287,-0.08583841285714286,-1.7113473,-0.5161206,7.018495
270,1778255819960,2.4692318,-2.069187085714286,-0.22502077857142858,-1.2974921857142856,-1.7250435571428573,7.274843
271,1778255819970,2.8167343285714286,-2.175352014285714,-0.47172781142857145,-1.506816585714286,-1.383626342857143,7.651870857142858
272,1778255819980,2.9796948,-2.2277546,-0.5864696,-1.6650083,-1.1366372,7.815313
273,1778255819990,3.0903226,-2.2567625714285713,-0.5780670114285714,-2.662476257142857,-0.0006848142857142874,8.360727857142857
274,1778255820000,3.0778757428571426,-2.112454828571429,-0.15842800714285715,-4.204979142857143,1.7620996142857144,9.346934857142857
275,1778255820010,3.5878856,-2.0708258,0.16498269,-4.453338,2.4309335,9.856892
276,1778255820020,4.515442714285713,-1.5052404428571429,0.5302317628571429,-4.130106514285714,2.024611185714286,9.697787214285714
277,1778255820030,5.111291,-1.1822133,0.45370242,-3.9736361000000002,1.38291301875,9.329186625
278,1778255820040,6.74342365,-0.86359655,-0.18645973700000001,-4.455068925,-0.11025488750000001,8.0667149
279,1778255820050,7.4575961875,-0.745289825,-0.24295898937500002,-5.65335845,-1.16673093,6.221144300000001
280,1778255820060,7.292011928571428,-0.6209164885714286,0.2569574107142857,-5.9409038,-1.0515682,5.784462028571428
281,1778255820070,6.768981977777778,-0.22545466666666666,1.5707795444444443,-5.652589122222222,-2.070459888888889,6.097751333333333
282,1778255820080,6.7708807,0.054668825,2.2514281,-4.897325199999999,-3.053961028571429,6.810692228571428
283,1778255820090,7.471533785714286,0.2723678964285714,2.424499585714286,-3.2963848571428573,-0.1413757142857143,6.4486545714285715
284,1778255820100,7.9970236,0.21080445374999998,0.4450079,-3.9502669999999998,3.5935365625,4.2386207
285,1778255820110,7.9970236,-0.33404463,1.3376080857142856,-5.077659257142857,6.518353285714285,1.0186210871428572
286,1778255820120,7.9970236,-0.88434139375,3.062583,-3.9523975499999997,7.736549650000001,-1.2108062312499999
287,1778255820130,7.997023600000001,-1.2571388,4.138723,-2.3798008,7.9559274,-2.4485104
288,1778255820140,6.6467769,-1.9569729999999999,3.98923785,2.4391005000000003,6.3718793,-4.108547533333334
289,1778255820150,4.35898435,-2.98616245,2.48194015,6.844124375,4.4002081125,-5.4538876125
290,1778255820160,2.95797385,-3.12320055,0.56560263,7.418768,3.22295765,-5.426723450000001
291,1778255820170,2.4475688333333334,-2.711638666666667,-0.11271377333333332,7.362575,2.706837,-5.2677326
292,1778255820180,2.212867,-1.615415,-0.71167094,5.5255265,2.0730047,-4.083691
293,1778255820190,2.420420242857143,-0.9301718742857144,-0.6486344500000001,4.296972285714285,2.467761314285714,-3.544515214285714
294,1778255820200,2.582552825,-0.6718896050000001,-0.4626105225,2.841726125,3.1553134,-3.0217558
295,1778255820210,2.9295237714285713,-0.4965867842857143,0.020047568571428556,2.014415,3.7289581,-2.7696877
296,1778255820220,3.2644399428571433,-0.5103934314285714,0.46255821857142854,1.3849959714285713,4.567930028571428,-2.8078089142857143
297,1778255820230,3.3979276666666665,-0.6344675166666667,0.7132166466666666,1.1122544222222224,5.333127999999999,-3.1335938888888886
298,1778255820240,3.4307475142857142,-0.8172082814285714,1.1111926571428572,1.6425617714285714,5.716361142857143,-3.8158535
299,1778255820250,3.369140442857143,-0.9175855214285714,1.2941309857142858,1.9068234428571427,5.7315030714285715,-4.027080228571429
300,1778255820260,3.1932450222222224,-1.1959076666666668,1.3198344777777777,3.183187666666667,5.136172666666667,-4.8078936
301,1778255820270,3.1234448285714285,-1.3521120714285715,1.2136618242857142,4.480350057142857,4.1852721,-5.604888857142858
302,1778255820280,3.1095333999999997,-1.521300225,0.9461184525,5.1826448125,3.3934664249999997,-6.2297997125
303,1778255820290,3.0376585499999997,-1.796017275,0.5681042425,5.7300575,2.402970325,-6.989599775
304,1778255820300,2.8528897428571427,-2.1260174857142857,0.13883370857142857,5.928653214285714,1.2715453,-7.802149142857142
305,1778255820310,2.62178495,-2.477852225,-0.33673799000000004,5.813348075,0.029095031249999993,-8.616524625
306,1778255820320,2.51720645,-2.5898135,-0.5315566700000001,5.4598797,-0.47737165,-8.85554325
307,1778255820330,2.5301414,-2.6441162,-0.60135704,5.0566770000000005,-0.8731173999999999,-9.01346925
308,1778255820340,2.4781921142857146,-2.614271457142857,-0.6517025828571429,4.454022771428572,-1.2929266714285714,-9.212559428571428
309,1778255820350,2.338495625,-2.53548005,-0.75840791875,3.7752972,-1.6783241,-9.4366455
310,1778255820360,2.2121349,-2.4954853,-0.8152732500000001,3.2597092500000002,-1.9124160499999998,-9.491240249999999
311,1778255820370,2.1051463,-2.4641849875,-0.8367503000000001,2.4315328000000003,-2.3222765625,-9.540841875
312,1778255820380,2.0642362,-2.4544837,-0.8393129,2.1764875714285714,-2.473924528571429,-9.529399999999999
313,1778255820390,1.861842957142857,-2.384195328571429,-0.8029134671428572,1.2818175200000002,-3.2821558428571427,-9.301585142857144
314,1778255820400,1.7137428666666668,-2.301080222222222,-0.7635466322222223,0.7840938311111111,-3.8258381111111115,-9.095819888888888
315,1778255820410,1.7081567,-2.25435685,-0.763655095,0.43995422333333334,-4.1538211333333335,-8.912712999999998
316,1778255820420,1.6994403714285713,-2.2209211142857144,-0.7558801228571428,0.3150900157142857,-4.251318171428571,-8.844130142857143
317,1778255820430,1.6852154,-2.165276,-0.7150877,0.10918961,-4.397412,-8.708537
318,1778255820440,1.5494148428571428,-2.0002234142857143,-0.8135474142857142,-0.42793196428571434,-4.175988971428572,-8.194318714285714
319,1778255820450,1.3698119333333334,-1.8836338,-0.9475929333333334,-0.7337009,-3.9553270166666668,-7.8628944999999995
320,1778255820460,1.2161101333333333,-1.8484895777777777,-1.0559543555555555,-1.1530303444444445,-3.598818411111111,-7.300671444444445
321,1778255820470,0.9797852857142857,-1.8392851285714287,-1.2610089285714285,-1.695444442857143,-3.016828957142857,-6.428034028571429
322,1778255820480,0.9096014,-1.8375069,-1.3310882,-1.9718045,-2.6865969,-5.9660134
323,1778255820490,0.4518109625,-1.6976317625000001,-1.6243535500000001,-3.0021816,-0.91932325,-3.79367285
324,1778255820500,0.2651507657142857,-1.6173674571428571,-1.7818619285714286,-3.760992114285714,0.6800952714285715,-2.083429014285714
325,1778255820510,0.11226633444444443,-1.589165188888889,-1.9963610777777778,-4.159088044444444,1.4891213555555556,-1.3425883166666666
326,1778255820520,-0.06070052714285714,-1.698986957142857,-2.1780365857142856,-5.288809885714286,2.9208030571428574,-0.011413547142857155
327,1778255820530,-0.13166888666666668,-1.7421618666666667,-2.135867016666667,-5.917100333333333,3.38834,0.472711125
328,1778255820540,-0.47216941333333334,-1.8658990666666666,-1.6975809666666666,-7.476913566666667,4.041435666666667,1.2417433333333332
329,1778255820550,-0.7075568028571428,-1.8223755285714287,-1.1127267257142857,-8.147675442857143,3.9939047142857143,1.2942962857142857
330,1778255820560,-0.9252558885714286,-1.8340902714285714,-0.3744186742857143,-8.314389142857143,3.784123714285714,1.1869328285714287
331,1778255820570,-1.2251674000000001,-1.74647375,0.554131995,-7.6848177,3.4413367499999996,1.04262755
332,1778255820580,-1.449456,-1.6405529,1.2046666,-6.9361364750000005,3.1264178874999997,0.9261142575
333,1778255820590,-1.6760805571428572,-1.5569109714285714,1.646584514285714,-5.8400841,2.8468430857142857,0.8962678657142857
334,1778255820600,-1.9277470875,-1.3746219874999999,2.23428325,-3.80619,2.5883263,0.8737831650000001
335,1778255820610,-2.016157,-1.0967933,2.541368,-3.1670313,2.5699506,0.82344943
336,1778255820620,-2.359138666666667,-0.5697109666666668,2.5002851333333336,-1.5550494222222222,2.6806788555555556,0.2354826283333333
337,1778255820630,-2.489872,-0.45150590000000007,2.4488704,-1.1568772,2.7249465,0.007989483
338,1778255820640,-3.0294827285714283,-0.40527447857142856,2.191843142857143,0.31128546285714276,2.5874513,-0.6300278434285714
339,1778255820650,-3.3516383,-0.37023485,1.9971205,1.7038904,2.2716765,-0.92997587
340,1778255820660,-4.081264914285714,0.05097310057142858,1.073712442857143,2.6768574285714286,1.8506686714285714,-0.5316430714285715
341,1778255820670,-4.126072583333333,0.10038888166666667,1.0477784666666667,2.5623161,1.9799715000000002,-0.4182938666666667
342,1778255820680,-4.243423,0.20451997,1.0223558,2.3861923,2.1603563,-0.2972088
343,1778255820690,-4.337873285714286,0.21790825428571428,1.0936902714285714,2.2098150285714286,2.3281354857142853,0.10234148142857144
344,1778255820700,-4.2662426,0.24039638500000002,1.0969153,2.2277342,2.5047696375,0.47364321625
345,1778255820710,-3.8159572749999997,0.1871613925,0.68226201875,2.347576475,3.1212249,1.08150973
346,1778255820720,-3.6597605,0.0433201565,0.251500985,2.51482295,3.85412675,2.09564155
347,1778255820730,-3.6648855125,-0.084108229875,-0.023185437499999996,2.5630262,3.762514,2.3963125
348,1778255820740,-3.6794071,-0.28505886,-0.409284,2.7063043,2.8975194,3.086071
349,1778255820750,-2.9355903857142858,-0.5914552999999999,-1.362292657142857,2.491196942857143,0.27247944,4.284569885714285
350,1778255820760,-2.1191219111111113,-0.6993053866666666,-1.8602856666666665,1.8234367888888887,-0.45155375555555555,4.510980777777778
351,1778255820770,-1.5052753142857143,-1.0081656457142858,-1.9810127142857143,0.8737451142857143,-0.8396566428571429,4.512460285714285
352,1778255820780,-1.2567553571428571,-1.1268820428571427,-1.949006357142857,0.6514092,-0.9241169000000001,4.507134
353,1778255820790,-0.6893803666666667,-1.2318382666666667,-1.5491939333333333,0.11356902666666668,-1.0188070333333332,4.484881555555556
354,1778255820800,-0.19359840407499998,-1.37446945,-1.1038709,-0.3653857,-1.0386329,4.321245
355,1778255820810,0.08294460158571429,-1.5901724571428573,-0.86085964,-0.3039808142857143,-1.1128209571428571,4.281449857142857
356,1778255820820,0.222458185,-1.6937573,-0.710572685,0.232826875,-1.7804564125,3.9965395624999998
357,1778255820830,0.29555333,-1.7298778,-0.6360132,0.5134575,-2.1513016,3.9196405
358,1778255820840,0.584334075,-1.6956487375,-0.5486406875000001,1.32678685,-2.75504015,3.66104755
359,1778255820850,0.8530106125,-1.652755725,-0.6327184,1.481316825,-2.9459888875,3.6438036
360,1778255820860,0.9556235857142857,-1.636403842857143,-0.7276740714285715,2.3373423714285715,-3.3848016857142857,3.1552371999999997
361,1778255820870,1.0377314499999999,-1.59308365,-0.82357115,2.6386601,-3.39020425,2.6786075
362,1778255820880,1.0340706,-1.581979,-0.8366282,2.6770096000000003,-3.3609095000000004,2.5316009999999998
363,1778255820890,0.9763336,-1.6043277428571427,-0.7816456114285714,2.7308816285714284,-3.3613659285714284,2.3152001142857137
364,1778255820900,0.8005078,-1.7005095555555556,-0.5251569644444445,3.080744833333333,-3.474123333333333,1.9444035222222225
365,1778255820910,0.8005078,-1.7245085,-0.46224442,3.23432045,-3.5159941166666666,1.88143455
366,1778255820920,0.6950053171428571,-1.8131012857142856,-0.39767383,3.9500767142857143,-3.6704447142857144,1.7771654714285714
367,1778255820930,0.70337296,-1.9204865,-0.42417148,4.1646514,-3.6911414000000002,1.7789917
368,1778255820940,0.7521844514285715,-1.9932155142857142,-0.5002476428571428,4.875411142857144,-3.5275472571428574,2.016165142857143
369,1778255820950,0.8278422,-2.0683851,-0.61502427,5.103682,-3.3257556,2.2120216
370,1778255820960,0.9042320875,-2.1552391249999996,-0.81240556,5.3030194999999996,-2.791592075,2.7217506625
371,1778255820970,0.9338850750000001,-2.2672917999999997,-1.06982493,5.2426990374999995,-2.0081566375,3.5175697125
372,1778255820980,0.92937,-2.3261096,-1.2244352,5.0190599875,-1.1098058375,4.4917541375
373,1778255820990,0.9738189125000001,-2.3150659874999997,-1.349575475,4.4815011875,-0.18329206125,5.7321214375
374,1778255821000,1.0926094857142858,-2.24965,-1.4001214857142856,4.132998071428572,0.25315249714285715,6.379184042857142
375,1778255821010,1.2927712111111112,-2.198657388888889,-1.394000711111111,3.070920722222222,1.2065303711111113,7.767435077777778
376,1778255821020,1.7829602500000001,-2.1076783999999997,-1.2704399499999999,2.3012376,1.7829864000000002,8.51385975
377,1778255821030,1.9075515,-2.0749748,-1.2256554,1.888314475,2.045574075,8.742491999999999
378,1778255821040,2.00108645,-2.0520029,-1.1968566625,1.3893712,2.3443141250000004,8.860736375
379,1778255821050,2.4053236714285715,-1.916232985714286,-0.9876647785714285,0.6240928,2.684086042857143,8.835227285714286
380,1778255821060,2.477494814285714,-1.9120491000000002,-0.86619405,0.04930654285714283,2.8237877857142855,8.669959285714285
381,1778255821070,2.4696152000000002,-1.9316318333333333,-0.7193180666666668,-0.6856752133333334,2.7519332333333333,8.335694333333333
382,1778255821080,2.422786725,-1.9307979124999999,-0.6441891000000001,-0.91612744,2.5001757,8.230233
383,1778255821090,2.446918,-1.9192662000000003,-0.5100796,-1.1214952571428571,1.2615013285714285,7.998842285714285
384,1778255821100,2.67749105,-1.9360450500000002,-0.323375855,-1.0659302899999998,0.61452441,7.86045335
385,1778255821110,2.8476250999999997,-1.9768287285714286,-0.25406359714285714,-0.9172688042857143,0.07905783857142858,7.7564189428571435
386,1778255821120,2.6492718125,-1.8722852,-0.2002489725,-0.9667274612500001,0.4324973825,8.0847579375
387,1778255821130,2.489872,-1.7716117,-0.15204766,-1.0338391,0.65460503,8.2483425
388,1778255821140,2.4767277857142855,-1.681798557142857,-0.15926478142857142,-1.4227368142857144,1.604592614285714,9.214765285714284
389,1778255821150,2.6785283333333334,-1.4521406000000001,-0.29197380666666667,-1.6736488555555558,2.1763352777777776,9.724503222222221
390,1778255821160,4.078894142857143,-1.372089857142857,-0.7949990142857143,-3.1518130857142856,2.759491442857143,10.103957285714285
391,1778255821170,4.740498428571429,-1.3690216857142856,-0.9199563485714286,-3.860974857142857,2.5344162714285714,9.90612242857143
392,1778255821180,5.372432,-1.3491484,-0.90130347,-4.469317,1.9888487,9.420666
393,1778255821190,5.936518171428572,-1.0142670428571428,-0.39502412000000003,-5.368628571428571,0.5497525571428571,7.716700085714286
394,1778255821200,6.246854457142858,-0.9522417,-0.30643131714285715,-5.688664285714286,0.019631304285714284,6.460676857142857
395,1778255821210,6.4246444333333335,-0.6471042333333332,0.3191455,-5.467114722222223,-0.55772511,4.295442
396,1778255821220,6.1364128,-0.8418347666666666,1.4862271666666667,-4.854232666666667,-1.4739709,3.029256933333334
397,1778255821230,5.921805,-0.7336361,2.0918145,-4.179565,-2.7302727999999994,2.5331988
398,1778255821240,6.779330475,-0.51734035125,2.181139725,-0.5004080000000001,-4.6472163,3.3848778
399,1778255821250,7.997023600000001,0.17791773,1.4367651,1.423726,-4.0575924,3.8855522
400,1778255821260,7.997023600000001,0.21867529333333333,1.217493211111111,1.0886411344444444,-2.8764508444444443,3.400028311111111
401,1778255821270,7.9970236,0.5105329028571429,-0.3885740128571428,-0.6998026542857143,2.128170057142857,0.8917024342857143
402,1778255821280,7.997023600000001,0.3709670016666667,-0.00040677499999998884,-1.520665,3.289004,-0.18695392
403,1778255821290,7.013527333333333,-0.6324065722222223,1.5404079,0.06669741111111116,5.603587000000001,-3.2068602577777776
404,1778255821300,5.784157,-1.2993608,2.2746134,1.4503576,6.42461,-4.4096622
405,1778255821310,5.066628571428572,-1.6402390142857146,1.6922231257142855,2.7485344857142855,6.233775542857144,-4.8504534
406,1778255821320,3.7851652,-2.080859166666667,0.5113270328888889,4.585786000000001,5.694548733333333,-5.479010133333333
407,1778255821330,3.2250771142857144,-1.9379888428571428,-0.11212687371428572,4.650031771428572,4.697816,-5.521037385714286
408,1778255821340,2.3002396,-1.1848979,-0.82003236,3.6473134285714286,1.968380465714286,-5.265221971428572
409,1778255821350,2.412017725,-0.7090168125,-0.666581345,2.7395938875,0.83250415,-5.167265125
410,1778255821360,2.64757365,-0.3675502083333333,-0.4182327766666667,2.3467777,0.6034723,-5.183577
411,1778255821370,2.766510975,-0.15857619625,-0.21086546875,1.7941717,1.110804525,-5.3600112
412,1778255821380,2.7083846444444446,-0.04262866611111111,-0.12411666277777776,1.3981004222222222,1.8832691777777777,-5.554703011111112
413,1778255821390,2.6878720714285715,-0.14845653285714283,-0.21721095285714287,1.2953615,1.9611518,-5.647499599999999
414,1778255821400,2.73093945,-0.25110438874999996,-0.213367055,1.1667308875,1.8210029625,-5.8548267124999995
415,1778255821410,2.8111429,-0.37740401875,-0.11641531175,1.0090718,1.46553755,-6.40144035
416,1778255821420,2.7993018571428574,-0.49174048571428575,0.026183855714285713,1.1271259428571427,1.1965202,-6.8284971428571435
417,1778255821430,2.6961005,-0.5850052,0.16303024,1.4678161333333333,0.84528734,-7.397847333333333
418,1778255821440,2.6494507571428576,-0.6699022614285715,0.015166414857142858,1.7524361714285714,0.6878564985714285,-7.73199357142857
419,1778255821450,2.570899142857143,-0.8483430114285715,-0.30761672,1.8672564142857144,0.5321756942857143,-8.104760285714287
420,1778255821460,2.4306882,-1.15609918,-0.705813555,1.7491642500000002,0.391218365,-8.3535375
421,1778255821470,2.2868512,-1.4549298571428568,-1.0451577442857143,1.1587034,0.20338941285714288,-8.505223285714285
422,1778255821480,2.2482553,-1.5273103,-1.1190025,0.7909589,0.11345066,-8.544486
423,1778255821490,2.161370944444444,-1.6364309666666665,-1.198076988888889,0.29371709,0.05924053866666666,-8.436421333333334
424,1778255821500,2.089343575,-1.686588175,-1.19746685,-0.18122811625,0.055793227,-8.26086
425,1778255821510,2.0449557,-1.6998588,-1.1687901,-0.45486793,0.09214537600000001,-8.106663
426,1778255821520,1.9604203875000001,-1.66547715,-1.1258055625,-0.8978847325000001,0.297475099,-7.74473925
427,1778255821530,1.8704547,-1.6300584,-1.0887394,-1.2974921,0.6359629,-7.364706
428,1778255821540,1.816151975,-1.619868975,-1.059452525,-1.4974289,0.882038975,-7.13400945
429,1778255821550,1.7445909571428573,-1.5982960857142856,-1.0126632714285715,-1.7872093714285715,1.227793342857143,-6.784365171428571
430,1778255821560,1.667643166666667,-1.5784809333333334,-0.95743652,-1.9228023666666665,1.4040186,-6.54534
431,1778255821570,1.5666034500000001,-1.5744133,-0.8777518799999999,-2.0438431125,1.4895060249999998,-6.229200499999999
432,1778255821580,1.55196,-1.5831994,-0.8644508,-2.05383,1.4615428,-6.188654
433,1778255821590,1.5515023875,-1.5834739625,-0.86075943375,-2.05569415,1.35608165,-6.1665497
434,1778255821600,1.5369098111111112,-1.5971106555555556,-0.7886032166666667,-1.9787288222222221,0.7302387577777778,-6.205106266666666
435,1778255821610,1.3279155,-1.6254213,-0.59281504,-1.6580842,-0.10226539,-6.21422
436,1778255821620,1.3049043857142857,-1.605966442857143,-0.5791478285714285,-1.6125821714285713,-0.14715867857142856,-6.172066
437,1778255821630,1.2473766,-1.5573293,-0.5449798,-1.4988271,-0.2593919,-6.066681
438,1778255821640,1.20369035,-1.51852415,-0.54205113,-1.3418781166666667,-0.18260408466666667,-5.706266416666666
439,1778255821650,1.134317075,-1.4616282625,-0.563863765,-1.225986225,-0.083157204,-5.3672016
440,1778255821660,0.9331393399999999,-1.249735811111111,-0.9018186777777779,-1.3671486,0.23080729555555557,-4.299821722222222
441,1778255821670,0.88434145,-1.0925223,-1.1751356499999999,-1.6881779000000001,0.48522793999999997,-3.5478632500000002
442,1778255821680,0.85535962,-1.0291894149999998,-1.2585421749999999,-2.0748688,0.8082694,-3.1015174500000002
443,1778255821690,0.76914635125,-0.9929468875,-1.2530508999999999,-2.7395938125,1.4385730625000002,-2.7517778125
444,1778255821700,0.6067873125,-1.00978685,-1.11436535,-3.650128775,2.32041225,-2.5164209
445,1778255821710,0.44735694,-1.0511546,-0.9664667,-4.1486726,2.803776,-2.5363946
446,1778255821720,-0.10555476500000001,-1.206619,-0.5120321200000001,-5.053792166666667,3.828737933333333,-2.886156533333333
447,1778255821730,-0.29164842,-1.2647047,-0.3250842400000001,-5.2059474,4.030428,-2.9901974
448,1778255821740,-0.5509418314285714,-1.3400137714285714,-0.15849774285714288,-5.257688671428572,3.519253385714286,-3.7122183142857144
449,1778255821750,-2.1494820285714282,-1.8139030857142855,0.8895189057142857,-4.755797057142857,2.3915187428571434,-3.9261082000000003
450,1778255821760,-2.5028884000000002,-1.9178424666666667,1.2530305833333333,-4.453871,1.6863136,-4.004329
451,1778255821770,-3.0242353250000003,-1.7287185125,1.7540394375,-3.9256328000000003,0.8400941625,-3.9639822000000002
452,1778255821780,-3.1800659875,-1.615445325,2.0753102625,-3.1047132,-0.3568636,-3.858388
453,1778255821790,-3.8726305714285716,-1.3608981,2.7315235714285717,-1.5527750999999999,0.40008288571428574,-2.8163309857142855
454,1778255821800,-4.122615,-1.2468885,2.8620594,-0.2790993,1.1819109,-1.8769959
455,1778255821810,-4.2219462,-1.0787331,2.813004,1.1760519714285713,1.7787633285714286,-0.7273473485714286
456,1778255821820,-4.0649259749999995,-0.9627753675,2.5134540999999997,2.3745410375000002,1.8347848625,0.095008275
457,1778255821830,-3.6879492,-0.78366786,1.88461,3.0360036,1.7715348,0.49481535
458,1778255821840,-3.3217237428571424,-0.7362161171428571,1.02287876,4.3787696,1.4037902857142857,1.072493014285714
459,1778255821850,-3.1617618,-0.71167094,0.61746484,5.109718633333333,1.0608258666666666,1.3688647999999999
460,1778255821860,-3.0379027499999998,-0.66176122,0.232342505,5.1462927,0.8633968,1.3741912
461,1778255821870,-2.708408014285714,-0.5064188142857143,-0.7270116900000001,4.647064114285714,0.34225422571428565,1.2045858571428572
462,1778255821880,-2.4064350374999997,-0.42764928874999997,-1.3032962625,3.981426,-0.35260254,0.9784454
463,1778255821890,-2.080065128571429,-0.4830241714285714,-1.3232085857142857,2.4981973,-1.460629742857143,0.6292669314285714
464,1778255821900,-1.9634057285714286,-0.56188956,-1.1783083285714286,2.2903185,-1.582983,0.62531024
465,1778255821910,-1.8501166666666664,-0.7159012566666667,-1.0363484,2.187638922222222,-1.9000174999999997,0.9818779222222221
466,1778255821920,-1.6700489571428572,-0.9091481028571428,-1.0673669714285714,2.2709915714285716,-1.9543798142857143,1.7955033
467,1778255821930,-1.6098017,-0.99087244,-1.1358424,2.23599,-1.9680761,2.2242723
468,1778255821940,-1.3376778,-1.1163179,-1.2895985,1.8707375625,-1.6934376,3.210174475
469,1778255821950,-1.0243431685714286,-1.2436460285714286,-1.4030851285714285,1.5730152142857143,-1.4502054,3.720055714285714
470,1778255821960,-0.80343646,-1.274467,-1.4187049,1.4333134,-1.3134711,3.933489
471,1778255821970,-0.41733789250000003,-1.216442325,-1.3578734749999999,0.937033275,-0.7632619875,4.57890595
472,1778255821980,-0.135116193,-1.1903586874999998,-1.333894825,0.6178534,-0.45060685,4.9247174
473,1778255821990,0.140729505,-1.2755346875,-1.2929847749999999,0.2640524325,-0.33249565999999997,4.98663585
474,1778255822000,0.32606047,-1.3537855,-1.2034464,-0.25513083,-0.21145499,4.957208
475,1778255822010,0.34652641142857143,-1.3722641142857144,-1.1391547342857142,-0.29028455857142854,-0.2366408857142857,4.898922857142857
476,1778255822020,0.470725405,-1.492104925,-0.701420555,-0.48229848625000005,-0.42097919,4.511594875
477,1778255822030,0.47493544,-1.5190123,-0.545468,-0.34993938,-0.6535397,4.248275
478,1778255822040,0.4693569542857143,-1.5469045857142858,-0.43581652857142855,0.19083451714285715,-1.2909483714285714,3.633008385714286
479,1778255822050,0.40746714222222224,-1.694299722222222,-0.35030350444444447,0.77444726,-1.8658108,3.0056436
480,1778255822060,0.36364530857142857,-1.7549808571428571,-0.34502722,0.90562698,-1.9947078,2.7937320714285714
481,1778255822070,0.011470692857142858,-2.0975326,-0.30141070857142854,1.9565864571428573,-3.1577482285714282,1.2508487257142857
482,1778255822080,-0.35225594888888895,-2.3155610666666666,-0.19215441111111112,2.5088160666666663,-3.9251443999999998,0.8045705466666666
483,1778255822090,-0.7015600028571429,-2.6103666857142858,-0.2462189057142857,4.162292614285714,-5.486796714285715,0.6176250999999999
484,1778255822100,-0.852492,-2.7651687,-0.31776255,5.431783700000001,-6.412359,0.7621967
485,1778255822110,-0.77039724,-2.8730725125,-0.67140151875,5.9279305625,-6.186256725,1.3616076874999998
486,1778255822120,-0.49714462000000004,-3.0869581000000004,-1.4804513,6.80943665,-5.3726613,2.9196235
487,1778255822130,-0.3607166,-3.121004,-1.7001028,6.823085262499999,-4.6892276625,3.7540585
488,1778255822140,1.0406950000000001,-3.1862371285714284,-2.1970032285714285,6.441730285714286,-2.5913318571428574,6.038908257142857
489,1778255822150,1.2802895142857145,-3.1757077714285713,-2.2116466000000004,6.285744814285714,-2.008480157142857,6.6108028
490,1778255822160,1.7683033000000001,-3.109262111111111,-2.235998266666667,6.097751222222222,-1.4327214333333333,7.244330999999999
491,1778255822170,2.1167783,-3.0818502285714287,-2.353339514285714,5.969513657142857,-0.9886415285714286,7.765093
492,1778255822180,2.6245918,-3.0285063,-2.4525313,5.8477693,-0.8383631,7.937818
493,1778255822190,2.9243243875,-2.9122436,-3.07606715,4.538293025,-0.8715194562499999,8.275707125
494,1778255822200,3.1901072,-2.834515742857143,-2.785878542857143,3.6394760571428573,-1.0326977857142856,8.195612
495,1778255822210,3.2101459875,-2.8317046875000003,-2.5978368,3.1812791125,-0.98170777375,8.14461325
496,1778255822220,3.23937175,-2.87584855,-1.7795434500000002,3.069093625,-0.8115317875,8.29994175
497,1778255822230,3.3041167714285713,-2.8975522,-1.5118300142857142,3.2135225857142857,-0.43439962285714284,8.493658428571427
498,1778255822240,3.37476265,-2.8933596,-1.5714236,3.4985948249999996,0.658599755,9.10987525
499,1778255822250,3.5578971125,-2.86950285,-1.7359182375,3.3083119500000002,1.7510284249999999,9.554356499999999
500,1778255822260,3.7340759999999995,-2.8037298,-1.9763755,2.5513082999999996,3.3145703428571425,10.123436142857143
501,1778255822270,4.045167422222223,-2.6408079777777775,-2.078011811111111,1.5045084777777777,3.6824416888888885,10.451368777777779
502,1778255822280,4.2915025857142854,-2.492347542857143,-1.9931457857142856,0.7499462,3.4232273,10.589261000000002
503,1778255822290,4.798932357142857,-2.362857657142857,-1.9673455,0.7261299142857143,2.4062802185714287,10.45191807142857
504,1778255822300,5.634034222222223,-2.0547451,-2.1955661555555555,0.6230021333333333,0.5214469666666667,10.003011
505,1778255822310,6.334575485714287,-1.5258807285714284,-2.246721257142857,-0.5198490714285714,-2.2751004428571426,8.065117428571428
506,1778255822320,6.405491714285715,-1.1999248257142856,-2.014971457142857,-1.0500464057142858,-2.3044712857142855,7.604009985714286
507,1778255822330,6.1912988888888885,-0.9834693244444446,-1.6376512444444442,-1.8185839888888888,-1.378215488888889,7.478630155555556
508,1778255822340,6.099316000000001,-0.9193636466666666,-1.1014302666666669,-2.911900433333333,0.6998788,7.705057933333333
509,1778255822350,6.095024675,-0.9462099525,-0.9402914925000001,-3.3386720249999997,1.3592775000000001,7.74473905
510,1778255822360,5.8710715625,-0.4879619475,0.29689565625000003,-3.315568975,-1.4333799125,8.15806175
511,1778255822370,6.431640428571429,1.0499342085714285,2.2317640714285716,-2.151225382857143,-4.5549186285714285,8.823053
512,1778255822380,7.762782911111111,2.3252689222222225,1.8565977000000002,0.983061571111111,-6.365487755555556,9.366041333333333
513,1778255822390,7.9970236,3.1897236999999996,-2.160220314285714,1.4511945742857144,-3.387617057142857,7.555540142857143
514,1778255822400,7.997023600000001,2.8438770000000004,-3.59345805,0.57763965,-0.026631599999999978,4.84721975
515,1778255822410,7.9970236,0.9097233,-1.96807759,-3.13913465,2.1650834624999997,-1.7988987625
516,1778255822420,6.3122152,-1.5845011333333334,1.771855706666667,-5.084507333333334,1.7896443,-7.347306400000001
517,1778255822430,5.469811,-2.02836,2.680969,-2.9571741862499996,1.99111245,-7.6032583875
518,1778255822440,2.234405075,-3.12872235,4.3059019875,2.2154835850000003,1.015995985,-6.53326705
519,1778255822450,1.1425365,-3.478129457142857,3.774519657142857,4.9883288142857145,0.014381077142857144,-5.471883257142857
520,1778255822460,1.6701447,-3.101418325,1.328952725,6.0209413125,0.5472796249999999,-4.009522275
521,1778255822470,2.8115089875,-1.8322596875,-1.7339351875,4.70966725,2.240517475,-3.113102175
522,1778255822480,3.279850542857143,-1.3078678785714286,-1.9614184,3.2472304285714286,3.401465557142857,-2.9713269285714285
523,1778255822490,3.8886455555555557,-0.6985731777777777,-1.7205765444444443,1.6453601111111111,4.197496977777778,-3.761271333333333
524,1778255822500,4.117734,-0.4639528,-1.5094941,1.055677,4.274906,-4.311658
525,1778255822510,4.063065166666666,-0.53798351,-1.3480095333333333,0.84635256,4.166781733333333,-4.889208866666667
526,1778255822520,3.73810275,-0.7746377,-0.8856837200000001,0.34967306499999995,3.9092542000000003,-6.3156868
527,1778255822530,3.3288709857142855,-0.9393763542857142,-0.6439275942857143,0.2794036557142857,3.8486482571428575,-6.640478428571428
528,1778255822540,3.0308074999999994,-1.0602893142857144,-0.46227927571428573,0.38585400285714283,3.779938714285714,-6.7461679142857145
529,1778255822550,2.792665711111111,-1.1763830555555557,-0.19201880999999998,0.908138,3.6575855999999995,-6.5790734
530,1778255822560,2.8037298,-1.1746475,-0.19548985,1.187009,3.6461720285714283,-6.576410257142858
531,1778255822570,2.8693506,-1.1490520124999999,-0.34750702625,1.5470303,3.5185685,-6.665626025
532,1778255822580,2.9992194,-1.171963,-0.68384844,1.7902434875000002,3.2232905,-6.9479877125
533,1778255822590,3.022230542857143,-1.2673195714285714,-0.8600926471428572,2.0251437857142855,2.2008363285714285,-7.9117191857142855
534,1778255822600,3.0375365375000003,-1.5400928125,-1.187369025,1.9627497,1.7406421,-8.3239765
535,1778255822610,2.9686818625,-1.7965664625,-1.3480502125,1.602890175,0.995356475,-8.9263835
536,1778255822620,2.8794223000000003,-2.014448457142857,-1.4081753714285714,1.3141559285714286,0.5472415885714286,-9.249843285714286
537,1778255822630,2.8830483,-2.1198812,-1.424074,1.077515,0.19760656,-9.452624
538,1778255822640,2.8830483,-2.1198812,-1.4240739999999998,0.7097704914285714,-0.2486631542857143,-9.585021285714287
539,1778255822650,2.6524838714285712,-2.354978042857143,-1.3219883857142858,0.3475805714285714,-0.7286409028571429,-9.743898428571429
540,1778255822660,2.384012175,-2.5266024750000002,-1.2539051,0.0031957934,-0.9006811,-9.773802
541,1778255822670,2.217957257142857,-2.536626357142857,-1.270841,-0.4687163695142857,-1.0787324142857142,-9.709885142857143
542,1778255822680,2.191878,-2.5296533,-1.2759314,-0.7121293,-1.164334,-9.666209
543,1778255822690,2.1752279333333338,-2.5243382555555556,-1.2810836888888888,-0.7442647777777778,-1.1866453777777777,-9.659580777777778
544,1778255822700,2.071767257142857,-2.489523214285714,-1.3091579142857142,-1.1401373428571429,-1.4705975857142857,-9.574368857142858
545,1778255822710,1.9643471,-2.4471968,-1.3149106857142858,-1.4232694285714285,-1.698183742857143,-9.489528142857143
546,1778255822720,1.680632411111111,-2.323994411111111,-1.1426761333333333,-2.3995082666666665,-2.4145993999999997,-8.899219
547,1778255822730,1.549101,-2.2608068857142856,-0.9882575571428571,-2.5933864,-2.5118935,-8.729842
548,1778255822740,1.471116,-2.20597245,-0.854932475,-2.6525085625,-2.4713469249999998,-8.581837
549,1778255822750,1.3845977875,-2.12881975,-0.7189316375,-2.7339347125,-2.3102923625000003,-8.0428795375
550,1778255822760,1.313899657142857,-1.976724242857143,-0.7266978842857144,-2.6514432,-2.1885858,-7.6533923
551,1778255822770,1.3079028,-1.8841218999999998,-0.83101493,-2.533198866666667,-2.0721168666666667,-7.237939433333334
552,1778255822780,1.253512842857143,-1.7989809142857143,-1.0756649042857143,-2.523839757142857,-2.059993085714286,-6.836182428571428
553,1778255822790,1.1609453857142857,-1.7519475857142857,-1.2767332999999998,-2.7399363,-2.258512742857143,-6.3860321142857135
554,1778255822800,1.0341790166666667,-1.7069635222222221,-1.4427851555555555,-2.8932583,-2.3148196,-6.0752034
555,1778255822810,0.6291098657142857,-1.554470357142857,-1.6479094142857142,-3.3121354857142857,-2.038383542857143,-4.997612071428571
556,1778255822820,0.43149322,-1.4367651,-1.7530632999999998,-3.7188382,-1.6895094,-3.832289
557,1778255822830,0.43149322,-1.4367651,-1.7530633,-3.7188381999999995,-1.6895094,-3.832289
558,1778255822840,0.09274175666666667,-1.4255384333333332,-1.8983587,-3.7188382,-1.6895093999999997,-3.832289
559,1778255822850,-0.35412707250000003,-1.6049204499999998,-1.7192612999999999,-5.696967675,-0.2743721775,-1.93365475
560,1778255822860,-0.7439475025000001,-1.832869875,-1.1774541625,-6.953247299999999,0.28975193,-1.02491752
561,1778255822870,-1.1789359428571429,-1.9744928571428573,-0.03301745714285715,-7.469025428571428,0.9316498914285714,-0.36218992
562,1778255822880,-1.3096112,-1.9915072,0.33265,-7.354585600000001,1.099353,-0.20879184
563,1778255822890,-1.6379378714285713,-2.0945689857142855,1.0085491142857141,-6.687425742857143,1.1943136571428572,-0.18992143428571429
564,1778255822900,-2.0268953,-2.1735737,1.722556,-5.5281897,1.1387677,-0.25193503
565,1778255822910,-2.0947432375,-2.1937694624999997,1.791654725,-5.5281897,1.1387677,-0.25193503
566,1778255822920,-2.6629784,-2.3580811714285717,2.362160428571429,-4.376106428571428,0.1431258907142857,-0.9208450571428571
567,1778255822930,-2.98024405,-2.4349592,2.681823075,-4.111921,-0.053795855,-1.0599382
568,1778255822940,-3.539155288888889,-2.463486777777778,3.3325744999999998,-2.7514005999999998,0.04835117388888889,-0.8463526222222222
569,1778255822950,-3.9227319,-2.425929,3.761166,-1.574017005,0.18864058666666664,-0.6001877416666667
570,1778255822960,-4.197011600000001,-2.400750566666667,3.9980644833333336,-0.39317136999999996,0.32410671500000005,-0.13972717999999998
571,1778255822970,-4.451170377777778,-2.2451369444444444,4.091673911111111,1.0361472344444445,0.5400890755555555,0.5445276877777778
572,1778255822980,-4.5726566,-2.1538053,3.896862,2.0975058,0.7041398,1.087635
573,1778255822990,-4.2280171625,-1.9032803875,2.4685170875,4.246210425,0.94655405125,2.5050359125
574,1778255823000,-3.9373755,-1.7589207,1.7996782,4.680039649999999,1.2661333,3.081876725
575,1778255823010,-3.5859332,-1.6107779,1.108508,4.7904944,1.6729977999999999,3.5409389999999994
576,1778255823020,-3.103703133333333,-1.4650486222222223,-0.06418705100000001,4.601113933333334,2.126800466666667,4.090497111111111
577,1778255823030,-2.5425885,-1.479475,-0.38707477,4.3249736,2.4016387,4.569452
578,1778255823040,-2.0836794333333333,-1.52316125,-0.7315209450000001,4.103487416666667,1.757597578333333,4.885924233333333
579,1778255823050,-1.6959538,-1.5417097,-0.9503590000000001,3.8738340999999994,0.36645097,5.2666674
580,1778255823060,-1.1687901,-1.5185242,-1.2283401,3.9106746,-0.583853705,5.200088733333334
581,1778255823070,-1.1687901,-1.5185242,-1.2283401,3.9180427,-0.77391464,5.186773
582,1778255823080,-0.18865626,-1.4091865,-1.6637384,3.69899765,-2.1548303300000002,4.589292374999999
583,1778255823090,-0.18865626,-1.4091865,-1.6637384,3.3947315000000002,-2.56329265,4.0746364999999996
584,1778255823100,0.100917675,-1.3886043833333332,-1.62289945,3.158154,-2.8087473000000003,3.7023266666666665
585,1778255823110,0.5464442,-1.406502,-1.381364,3.113035675,-2.5491778375000003,3.6047217000000003
586,1778255823120,0.7194110171428572,-1.4635067285714285,-1.1580865142857142,3.1957934,-1.6868463000000002,3.6117792
587,1778255823130,0.7746377000000001,-1.4863087,-1.1260802,3.1957934,-1.6868463000000002,3.6117792
588,1778255823140,0.7746377000000001,-1.4863087,-1.1260802,3.2239466857142856,-1.1926396785714286,3.7605357000000006
589,1778255823150,0.8841147714285714,-1.5380837,-1.0941784142857143,3.2047719999999997,-0.8039702942857143,3.8976503714285715
590,1778255823160,0.9514396857142857,-1.5694624714285716,-1.0840325857142858,3.1798905142857143,-0.6949328571428571,3.9432284571428573
591,1778255823170,1.1036268,-1.6317667,-1.1009073428571428,3.008458985714286,-0.42922548,4.121736428571428
592,1778255823180,1.1695224,-1.6215163,-1.10802,2.8815403,-0.33609092,4.243481
593,1778255823190,1.2783414375,-1.6316752,-1.10509125,2.6336666500000003,-0.4852945475,4.3241748875
594,1778255823200,1.3630598,-1.6407969,-1.0884954,2.492719,-0.5928197,4.345214
595,1778255823210,1.5019283,-1.6810663,-0.8866599,2.4973604857142857,-0.6215057428571428,4.328778428571429
596,1778255823220,1.5391335,-1.6956012777777778,-0.7506387222222223,2.7429376555555556,-0.9312778444444443,4.057000444444444
597,1778255823230,1.5551329,-1.71377,-0.70190865,2.9630332000000004,-1.0695255,3.882889
598,1778255823240,1.5551329,-1.7137699999999998,-0.70190865,2.9630332,-1.0695255,3.882889
599,1778255823250,1.4089426000000003,-1.7813739,-0.6399181,3.5404065,-1.2447615,3.6123118
600,1778255823260,1.35759292,-1.7648756200000002,-0.6806268600000001,3.8306910000000003,-1.3182647,3.5393412
601,1778255823270,1.2805684,-1.7401282,-0.7416899999999998,4.26958,-1.3459617,3.556918
602,1778255823280,1.2202863,-1.7274371,-0.8851956,4.343616,-1.2447615000000003,3.6735644
603,1778255823290,1.119393,-1.67325644,-1.1202228,4.0686711,-0.97695402,4.07293212
604,1778255823300,1.1443844,-1.7160478666666668,-1.1296597333333334,3.6985981,-0.6535397,4.569452
605,1778255823310,1.0164984,-1.5797825,-1.2954559,3.342178433333333,-0.5434624,4.968926166666667
606,1778255823320,1.04090408,-1.55186234,-1.2987751,2.97368576,-0.396171848,5.4192133
607,1778255823330,1.0470055,-1.5448823,-1.2996049,2.7755466000000006,-0.31265512,5.6661415
608,1778255823340,1.1657800333333335,-1.4823222999999999,-1.2271199000000002,2.2011027000000003,-0.16893318850000003,6.364067333333334
609,1778255823350,1.570813475,-1.3723949750000002,-1.0054548250000002,1.5243934,0.018109497,7.115434
610,1778255823360,1.92768615,-1.4786208250000001,-0.7300362425,1.2988902875000001,0.2832937625,7.11396945
611,1778255823370,2.0931976999999997,-1.5853145666666668,-0.436293,1.4095224000000002,0.6615292233333333,7.1053139666666665
612,1778255823380,2.1423345,-1.6193199,-0.2936009,1.6037556,0.88203895,7.1532507
613,1778255823390,2.4507183571428572,-1.4329646999999999,-0.39701139999999996,2.371202657142857,1.1545944785714286,7.565964728571428
614,1778255823400,2.8952509999999996,-1.2129645,-0.5940353,2.7931235,1.2687299,7.813715
615,1778255823410,3.336018333333333,-1.0714113,-0.8429737666666668,2.7931235,1.2687299,7.813714999999999
616,1778255823420,4.05647565,-0.6122176262500001,-1.6104727250000002,2.78533365,0.54102119375,7.078149725
617,1778255823430,4.4620986,-0.052472305,-1.9712504,2.5901904,-1.0460896,5.8126154
618,1778255823440,4.4620986,-0.052472305,-1.9712504,2.371963414285714,-1.2424026571428572,5.624291814285714
619,1778255823450,4.46789495,0.135146706,-2.515864175,1.4262558749999998,-1.45701545,5.208211175
620,1778255823460,4.308830866666667,0.24698593333333332,-2.605717933333333,-0.7985932978333334,-0.22912064833333337,5.516383333333333
621,1778255823470,4.25147745,0.161169300775,-2.427515625,-3.1714255375000002,1.4810504500000001,6.1331935
622,1778255823480,4.2771034,0.0012202862,-2.148192,-4.3952813,2.449043,6.445915
623,1778255823490,4.245782599999999,-0.13960073253333333,-1.8340089333333331,-4.855120333333333,2.9126106000000003,6.6124513333333335
624,1778255823500,4.18460575,-0.243508115,-1.338898075,-5.36933235,3.506584325,6.796120999999999
625,1778255823510,4.450558428571428,-0.6459497471428571,-0.9958929857142858,-5.234177,3.3955305,6.74632
626,1778255823520,5.062316833333333,-0.9241634333333334,-0.44678744666666664,-6.428515933333333,2.9060414666666667,6.362292
627,1778255823530,5.290550875,-0.7778409625,0.42285969875,-6.13179515,0.9897638375000001,5.3937
628,1778255823540,5.159614142857143,-0.2083551548571429,1.3141785285714285,-4.773297885714285,-1.1478224785714286,5.139139942857143
629,1778255823550,5.202812333333333,0.21106885166666664,1.7011196666666668,-3.3426222666666665,-1.3915904666666667,5.6164293333333335
630,1778255823560,6.5222672,0.8581866599999999,0.6674966000000001,-3.2124824333333333,0.6957952666666665,5.161028833333334
631,1778255823570,7.944830371428572,0.8551766285714285,-1.1187933257142857,-5.401575514285715,5.6801424,2.3562888857142856
632,1778255823580,7.766215557142857,0.41810494142857146,-0.4955408228571429,-5.904304214285714,6.044691142857142,1.4635211714285714
633,1778255823590,6.5736821,-0.350466205,1.8127352,-5.253617875,6.06495025,-1.1647335125
634,1778255823600,5.657897966666667,-0.9291259333333333,2.836840066666667,-1.9375384,4.372733266666667,-3.7415638
635,1778255823610,4.6339498571428575,-1.8340205285714286,2.4734504428571427,2.598560442857143,1.7863723571428571,-6.575649085714285
636,1778255823620,4.239762499999999,-2.0017576,1.8311614999999999,4.6309708625,0.40759681249999996,-8.3971466
637,1778255823630,3.851153742857143,-2.0587623857142856,1.3729963142857142,5.065104171428572,0.1412997257142857,-8.804258285714285
638,1778255823640,2.9782307,-1.8444627,0.63930796,5.271394525,0.23735425,-8.78530275
639,1778255823650,2.51610815,-1.2705620499999999,-0.09652463999999997,4.886634275,0.9737849000000001,-8.09348
640,1778255823660,2.3628807999999997,-0.7399002166666667,-0.6457754666666666,3.5991735000000005,2.625521866666667,-6.560963666666667
641,1778255823670,2.5771224999999998,-0.447234915,-0.84175347,2.78553345,3.478754375,-5.887317
642,1778255823680,2.798778714285714,-0.26469751999999996,-0.8337344371428571,1.906747242857143,4.339278714285714,-5.384607428571429
643,1778255823690,3.0202896666666668,-0.14318025166666667,-0.7317649666666667,1.4528432,4.701544666666667,-5.2980928
644,1778255823700,3.184947,-0.11714747499999999,-0.6474839,1.2591426,4.778243555555555,-5.499605522222222
645,1778255823710,3.5181667,-0.4452417833333333,-0.5298075666666666,1.5528004833333335,4.036908416666667,-7.00633325
646,1778255823720,3.54063624,-0.532288868,-0.570605806,1.5851135,3.9755668999999996,-7.1164994
647,1778255823730,3.553473525,-0.8099039749999999,-0.72542965125,1.7385116,3.661314,-7.7950726
648,1778255823740,3.1621103142857145,-1.4089424714285712,-1.1441054857142858,1.7309786571428571,3.009295971428571,-9.121935
649,1778255823750,3.0492512999999994,-1.5026605,-1.2090596,1.7156084,2.9822078,-9.212939
650,1778255823760,2.8061702,-1.7269491,-1.4030851,1.5749935,2.8059065,-9.330119
651,1778255823770,2.45692435,-1.87399355,-1.61041175,1.2291376333333333,2.716602,-9.272949666666667
652,1778255823780,2.3427055,-1.9085277,-1.6622739,1.0072075,2.692456,-9.185243
653,1778255823790,1.946997225,-1.959291675,-1.7109023625,-0.17157415250000002,2.79425525,-8.448145875
654,1778255823800,1.9075515,-1.9512378,-1.6971741,-0.37230992,2.8224182,-8.321313
655,1778255823810,1.8445846714285712,-1.9399413428571428,-1.6511519571428572,-0.722021017142857,2.864420085714286,-8.129109
656,1778255823820,1.7661028285714286,-1.9061569285714286,-1.5241374285714284,-1.2169885714285713,2.882986,-7.8671304
657,1778255823830,1.7088540857142858,-1.867282014285714,-1.3864195428571426,-1.4098775,2.871953,-7.7503314
658,1778255823840,1.6358852625,-1.8001968125,-1.2014938375,-1.5317836999999999,2.8648956375,-7.5987975500000005
659,1778255823850,1.5897889571428572,-1.7989808857142857,-1.1574937285714284,-1.789187742857143,2.8166353999999996,-7.227591142857143
660,1778255823860,1.5067047714285715,-1.7689270142857143,-1.0923653428571427,-1.8643649714285715,2.7121633,-6.955644428571429
661,1778255823870,1.4265145499999998,-1.67276845,-0.97683915,-1.869139625,2.6057034375000003,-6.718822525
662,1778255823880,1.4139863000000001,-1.5458586666666667,-0.8494819666666666,-1.7398431499999998,2.234037066666667,-6.129442733333334
663,1778255823890,1.4685621857142857,-1.4814275142857143,-0.8302130542857143,-1.5434920714285716,1.8361354285714284,-5.883227314285714
664,1778255823900,1.55952585,-1.4211453,-0.86176612,-1.4556839,1.6445020000000001,-5.8445735
665,1778255823910,1.6612976999999998,-1.3838046000000002,-0.9342511,-1.4322481,1.5861788,-5.858422
666,1778255823920,1.7142986333333334,-1.3424775166666665,-1.0405787166666667,-1.4887958166666666,1.5209312666666666,-5.976133666666667
667,1778255823930,1.4139456,-1.2893544499999998,-1.0014888750000002,-1.51733605,1.415603325,-5.97413635
668,1778255823940,1.1183516333333332,-1.2165440333333333,-0.9331935833333334,-1.2644689333333332,1.3022858666666668,-5.5761268
669,1778255823950,1.036023,-1.1912434,-0.9159469000000001,-1.1417859783333333,1.2310906666666668,-5.391392216666667
670,1778255823960,0.7101717542857143,-1.0424033857142858,-0.9931037571428571,-0.91186637,1.077515,-5.0482883
671,1778255823970,0.37609223999999997,-0.8638406000000001,-1.1847759,-0.66712186,0.57923755,-4.23256175
672,1778255823980,0.27212384,-0.8297946,-1.2402989,-0.74302197,0.5230448,-4.1294975
673,1778255823990,-0.2917530157142857,-0.8404285571428571,-1.4325463428571428,-1.6488011714285715,1.05232913,-3.682847557142857
674,1778255824000,-0.48201308000000004,-0.8515157,-1.4863087,-2.0229373,1.3214606,-3.5084486
675,1778255824010,-0.9133842212500001,-0.9017000125000001,-1.512575325,-2.72401435,1.8739334,-3.17328965
676,1778255824020,-0.9750086699999999,-0.9088692000000002,-1.5163277,-4.290352566666667,3.091752666666667,-2.2182356666666667
677,1778255824030,-2.1766071342857143,-1.3029170285714287,-1.0031450285714285,-5.585866371428572,3.9700123142857144,-1.2914809142857142
678,1778255824040,-2.8182511000000003,-1.5328015499999998,-0.36974673500000005,-6.2773372,4.1812963,-0.8495484
679,1778255824050,-2.8832923999999998,-1.5573293,-0.10006347,-6.402772,3.991546,-0.9582054
680,1778255824060,-2.8832924,-1.5573293,-0.10006347,-6.0684565,3.6266041333333336,-1.1139115499999999
681,1778255824070,-3.797134175,-1.39652605,1.095725545,-5.27359165,2.59125575,-1.6277241
682,1778255824080,-4.674951285714286,-1.3084606142857143,1.8087431285714286,-4.396879,1.8018948,-1.8924423000000001
683,1778255824090,-4.868087666666667,-1.2600675,1.7431788666666668,-1.3792511666666665,0.41199102666666665,-1.1533263316666666
684,1778255824100,-5.009031,-1.177088,1.1177822,0.9257148,-0.40586576,-0.22956449
685,1778255824110,-5.009031,-1.177088,1.1177822,0.9257148000000001,-0.40586576,-0.22956449
686,1778255824120,-4.9676225333333335,-1.0579475333333332,0.3802818498666667,1.2204379333333335,-0.57559792,0.08504360999999999
687,1778255824130,-4.7812035,-0.93986445,-0.0835896102,1.6367788,-0.69295454,1.4791197
688,1778255824140,-4.358211666666667,-0.8799077333333333,-0.24893838333333332,1.7216449,-0.6251326866666665,2.726899433333333
689,1778255824150,-3.712111,-0.8254016,-0.42124277,1.8466359,-0.53316486,3.6970003
690,1778255824160,-3.543497925,-0.832143675,-0.49507008625,1.8466359,-0.53316486,3.6970003
691,1778255824170,-2.3632064,-0.8793382,-1.0118613,1.9627497,-0.4612595,4.343616
692,1778255824180,,,,,,
693,1778255824190,-0.7607264428571429,-1.2842292714285715,-1.6619252857142859,1.3838546142857144,-1.5600797685714285,3.700043885714286
694,1778255824200,-0.539325825,-1.3836419166666667,-1.5801893333333332,1.2251428666666666,-2.796940583333333,3.3086226666666665
695,1778255824210,-0.4084298,-1.53591325,-1.334505,1.3720607,-3.516438,3.145726
696,1778255824220,-0.2945771,-1.6217605,-1.155123,1.55209035,-3.781689,3.0897995
697,1778255824230,0.03925835285714286,-1.7621630857142858,-1.0522702142857143,2.1555626,-4.359062,3.0786142
698,1778255824240,0.49769374,-1.7923564250000001,-1.0693978499999999,2.84718565,-3.938948325,3.33534295
699,1778255824250,0.6962953,-1.8157859,-1.1226633,2.9374666,-3.6533244,3.4216294
700,1778255824260,0.9520673,-1.8314055,-1.1526824,2.9374666,-3.6533244000000002,3.4216294
701,1778255824270,1.2303197777777777,-1.8487878333333336,-1.049066488888889,2.7937743555555556,-2.5684117000000004,3.4515751999999997
702,1778255824280,1.3020455,-1.8653295000000003,-0.93937635,2.6381273,-1.8620822,3.4184337
703,1778255824290,1.2148821857142857,-1.8744990571428573,-0.7367391214285713,2.651443114285714,-1.2812087714285714,3.341125857142857
704,1778255824300,1.1739154,-1.8772882,-0.6365013,2.8687572,-1.4519554,3.315103
705,1778255824310,1.1678488,-1.8844008571428572,-0.540273,3.1122461285714285,-1.6722369,3.2671660714285715
706,1778255824320,1.1543297875,-1.90819205,-0.42389695625,3.601525925,-2.0830580375,3.13627165
707,1778255824330,1.0301308,-2.0263725,-0.4200225528571428,4.429902,-2.5710158,2.9374666
708,1778255824340,1.00209908,-2.05164288,-0.44823555600000003,4.82990888,-2.57847254,2.9376797999999997
709,1778255824350,0.9269294,-2.114512,-0.5191097,5.019526,-2.5337315,2.9939258
710,1778255824360,0.915011275,-2.1277724333333334,-0.5315566333333334,5.045713733333334,-2.51766375,3.0240195
711,1778255824370,0.8714586928571428,-2.2085437142857143,-0.6274014657142857,5.288200814285714,-2.2257178714285715,3.8093858
712,1778255824380,0.96768695,-2.2953584,-0.82906246,5.3375077,-2.0010993,3.8093858
713,1778255824390,1.1702544916666666,-2.3167134,-0.94612866,5.1863288,-1.2249653066666666,4.710599283333333
714,1778255824400,1.2962926285714285,-2.331199957142857,-1.0096998,5.060539,-0.86233157,5.130846
715,1778255824410,1.4257824,-2.3514917,-1.0596966,4.856008,-0.5683186,5.5052867
716,1778255824420,1.5913345666666665,-2.306137533333333,-1.0594931833333332,4.565900933333334,-0.29419053333333334,5.9786190999999995
717,1778255824430,1.719836542857143,-2.2644329285714284,-1.0552686714285715,4.4208474,-0.1571265,6.2152853
718,1778255824440,1.7301915571428572,-2.188077914285714,-1.0397885,3.884867257142857,0.06825301428571429,7.047561285714286
719,1778255824450,1.6486067,-2.118905,-1.0233321,3.7689056,0.11664646,7.241135
720,1778255824460,1.8421440875000001,-2.004991375,-1.154207775,3.55452115,0.17024258125,7.51983475
721,1778255824470,2.0312884,-1.9163376,-1.2649487,2.7217507,0.007989483,7.917578
722,1778255824480,2.0958590285714287,-1.871988885714286,-1.2595794142857142,2.7217507,0.007989483,7.917578
723,1778255824490,2.402530075,-1.8042236875000002,-1.3395996374999999,1.9430424,-0.78536621,8.0861565
724,1778255824500,2.6446042,-1.876068,-1.4953387000000002,1.7337179,-0.96992326,8.303737
725,1778255824510,2.6446042,-1.876068,-1.4953387000000002,1.7337179,-0.96992326,8.303737
726,1778255824520,3.0385126749999998,-2.014265475,-1.45250665,1.7337179,-0.96992326,8.303737
727,1778255824530,3.316947042857143,-1.9133391285714285,-1.225411357142857,0.7176077914285715,0.5638292342857143,9.484734142857144
728,1778255824540,3.9157458,-1.493386325,-1.212323825,0.773448575,1.01406514375,9.6194045
729,1778255824550,4.182073487499999,-1.3673917,-1.11866695,0.78003991875,1.1275158425,9.669538249999999
730,1778255824560,4.555491066666667,-0.9664666666666667,-1.4904577,0.81732415,-0.28362668,8.1559307
731,1778255824570,5.0947257,-0.3615403025,-2.0471827625,0.77950725,-1.2708605,7.61464355
732,1778255824580,5.295066,-0.12837411,-2.276566,0.5718695,-1.9348752999999999,7.122358333333334
733,1778255824590,5.660315271428572,0.08060862428571428,-2.7227722857142855,-0.1070590714285714,-1.3070795128571429,6.715883742857144
734,1778255824600,5.8280873,0.14570218,-2.9643192,-0.6269081,-0.38242993,6.5034394
735,1778255824610,5.506175533333334,0.21607202,-2.6511124666666666,-3.3286851333333334,1.00427805,6.835002833333334
736,1778255824620,5.2030563,0.27212384,-2.2924297,-4.2461443,1.9643476,7.209177000000001
737,1778255824630,5.3417112,0.17462296875,-1.74564995,-5.4039534,2.8985846375,7.46777045
738,1778255824640,6.2753219499999995,0.21062141999999998,-0.56889743,-6.866516999999999,2.771285466666667,6.388035933333334
739,1778255824650,6.4211464,0.3141017,-0.08297946,-6.974819000000001,2.1140172,5.6267266
740,1778255824660,6.486950125,0.52368584375,0.29710921125,-6.974819,2.1140172,5.6267266
741,1778255824670,6.9463571,1.1048878166666667,0.9879437700000001,-5.689044933333332,0.8882529696666667,4.264519816666667
742,1778255824680,7.294627,1.3079027999999997,1.3733101,-2.4092477285714287,0.5569050285714285,-0.027925149999999985
743,1778255824690,7.2255894375,1.2906052375,0.19939477875,-2.23412585,1.31640055,-1.485245
744,1778255824700,6.9207315,1.1190025,0.11299851,-2.2397184,1.7022926,-1.9446403000000003
745,1778255824710,6.2928940625,0.8130157499999999,0.11238836625,-2.2803317125,2.1833261,-2.2499051125
746,1778255824720,4.8660482428571425,0.011470700142857147,0.5078134114285715,-2.1429315714285715,3.0795272857142857,-2.7803402142857143
747,1778255824730,4.174843433333333,-0.29343816,0.9202585666666666,-1.3729483433333334,3.359311333333333,-2.9939256999999997
748,1778255824740,3.750854875,-0.414226165,1.142309975,-0.014514232500000016,3.5100463,-3.318831375
749,1778255824750,3.7030804,-0.3968371,1.0211354,0.63702816,3.3135051999999994,-3.6000612
750,1778255824760,3.7041787999999998,-0.36669602,0.866281125,1.27441136,2.8634308666666666,-4.108281033333333
751,1778255824770,3.6771190249999997,-0.263368271875,0.43973013875000005,1.705488425,2.369347925,-4.701078625
752,1778255824780,3.5539615,-0.057841565,-0.34265637,1.5555143714285715,2.198173214285714,-5.404238714285714
753,1778255824790,3.4545489000000003,-0.006752249999999997,-0.47892167,1.2184849666666666,2.440876,-5.503511333333333
754,1778255824800,3.2557237,0.09542638,-0.75145227,0.9443569000000002,2.683401,-5.529788
755,1778255824810,3.1319052833333334,0.07533233470666667,-0.8366689566666666,0.52411014,3.0866039,-5.526592
756,1778255824820,2.96676,-0.00073217176,-0.79318607,-0.10120012600000002,3.7486656,-5.6027584
757,1778255824830,2.96676,-0.00073217176,-0.79318607,-0.101200126,3.7486656,-5.6027584
758,1778255824840,2.8681911875,-0.15735590272,-0.59961817875,-0.147272809,3.943608925,-5.88132505
759,1778255824850,2.861083,-0.25137895,-0.54912883,-0.07456851,4.0298953,-6.128999
760,1778255824860,2.9294190000000007,-0.47200669999999995,-0.6262509,0.27350663999999997,3.7523941,-6.849650399999999
761,1778255824870,3.060164142857143,-0.9642353857142858,-0.9115887,0.40746364,3.5499938,-7.2070465
762,1778255824880,3.0748163249999996,-1.10408455,-0.991635125,0.40746364,3.5499938,-7.2070465
763,1778255824890,2.9876093999999997,-1.6031074714285716,-1.2561626857142856,0.43622579285714286,3.0110460714285714,-7.871619571428572
764,1778255824900,2.8945189,-1.8389714,-1.3489044,0.40426785,2.914031,-7.996407499999999
765,1778255824910,2.75592485,-1.8389714,-1.3489044,0.3239735625,2.8373318000000003,-8.044743875
766,1778255824920,2.4747405,-2.0059066,-1.3381659,-0.0127831735,2.5928538,-7.991081
767,1778255824930,2.3868799166666665,-2.0187196,-1.2797955666666665,-0.0127831735,2.5928538,-7.991081
768,1778255824940,2.2233615,-2.0272615,-1.1824572999999998,-0.19520970499999998,2.3309984,-7.7595858625
769,1778255824950,2.1686926,-2.0149367,-1.1495095,-0.23116238,2.1848574,-7.6826873
770,1778255824960,2.120043933333333,-2.0286852666666664,-1.1552855666666666,-0.23116238,2.1848574,-7.6826873
771,1778255824970,2.1417853,-2.0241193625,-1.1479841499999999,-0.41971418,1.7374463,-7.7753654
772,1778255824980,1.9443227666666667,-2.080018666666667,-1.1329136666666666,-0.49055427,1.4556838,-7.804660000000001
773,1778255824990,1.9407432714285715,-2.0441537142857142,-1.1833986857142857,-0.56953602,1.2689582000000001,-7.815845371428572
774,1778255825000,1.9517258,-2.029824,-1.227852,-0.8367652,1.0647318,-7.81478
775,1778255825010,1.900656875,-2.0102385,-1.2311468250000002,-1.016195675,1.0344383375000001,-7.734153125000001
776,1778255825020,1.8836339,-2.00371,-1.2322451,-1.1273826625,1.000483075,-7.6137781250000005
777,1778255825030,1.735003,-1.9217068000000002,-1.1751355999999997,-1.2394352000000002,0.9257148,-7.312507599999999
778,1778255825040,1.735003,-1.9217068000000002,-1.1751355999999997,-1.2275650999999999,0.6394630285714286,-6.9810583428571436
779,1778255825050,1.6148183777777778,-1.850767511111111,-1.2059411111111114,-1.2369495666666668,0.5425747333333333,-6.6971402666666675
780,1778255825060,1.5501122142857144,-1.8341948428571426,-1.229037457142857,-1.1969006857142859,0.19859575714285713,-6.519875171428572
781,1778255825070,1.3415013,-1.7799908333333334,-1.2898426,-1.1299792499999999,-0.2650733,-6.175160666666667
782,1778255825080,0.7980672133333333,-1.6432373999999998,-1.8624823333333334,-1.3092100333333334,-0.1724544722222222,-5.172214111111111
783,1778255825090,0.5343226799999999,-1.5578173333333334,-2.122321933333333,-1.9881386333333333,0.3383990166666666,-4.403803133333334
784,1778255825100,0.2894519,-1.4777666,-2.2624106,-2.2264028,0.47297743,-4.2269692
785,1778255825110,-0.0436862425,-1.3536635750000001,-2.216466875,-3.2192292,0.892159,-3.6820867
786,1778255825120,-0.21159762833333332,-1.2985473333333333,-2.1565305,-3.587100466666667,1.0585178,-3.537920866666667
787,1778255825130,-0.9219087885714286,-1.3055318999999999,-1.4327554428571427,-5.367030671428572,1.9161063285714286,-3.0285468857142854
788,1778255825140,-2.0111232875000002,-1.6483627,-0.23261706999999998,-6.4338644625,2.27800145,-2.8563068874999997
789,1778255825150,-2.445070142857143,-1.8290697285714288,0.2760287514285715,-6.3543024,1.9867182,-2.8266792
790,1778255825160,-2.9718036666666667,-1.9057617333333334,0.86672862,-5.503333866666668,1.3619406666666667,-2.511005866666667
791,1778255825170,-3.320643,-1.7718556,1.211012,-4.8505486875,1.1395000875,-2.1311947625
792,1778255825180,-4.224061533333334,-1.6687820000000002,1.1588651666666667,-4.045696866666666,1.3695750333333334,-1.1813782666666668
793,1778255825190,-4.4933380625,-1.616177575,1.108569075,-3.7185718249999997,1.9911124,-0.1444765
794,1778255825200,-4.6373315,-1.5824672,1.0814177,-3.7129793,2.3046997,0.30413299999999993
795,1778255825210,-4.6373315,-1.5824672,1.0814177,-3.68155395,2.46049465,0.57124805
796,1778255825220,-4.875318125,-1.45421505,1.3595818874999999,-3.009638425,2.4310666999999997,1.2655342
797,1778255825230,-4.792877666666667,-1.1249412,1.7197900666666666,-0.9209211150000001,1.34409742,1.6876452000000002
798,1778255825240,-4.778885,-1.0653099,1.6940014,-0.18056233000000002,0.87990844,1.7017599
799,1778255825250,-4.707620222222222,-1.0214338644444443,1.2759855999999998,0.9155948000000002,0.03834952,1.7576864
800,1778255825260,-4.262948,-0.9530435,0.08688438,1.9281287200000001,-0.65812038,2.18528344
801,1778255825270,-4.262948,-0.9530435,0.08688438,2.569418,-0.8383631,2.928412
802,1778255825280,-3.9193153142857144,-1.0185903571428572,-0.3978830371428571,2.569418,-0.8383630999999999,2.9284119999999993
803,1778255825290,-3.5732014,-1.0880885833333334,-0.8106361333333334,2.2652848999999997,-0.6968604866666667,3.99962425
804,1778255825300,-3.1312544,-1.189779,-1.0565238,1.8327875,-0.5486112,5.0861053
805,1778255825310,-2.7775456142857142,-1.3001277142857144,-1.1783780857142858,1.572862992857143,-0.6151141228571427,5.485731657142857
806,1778255825320,-1.6174284,-1.6440915500000002,-1.4030851,1.19875545625,-0.72517874375,6.0538315
807,1778255825330,-1.3049741342857144,-1.7161756000000001,-1.4212150571428572,0.68595423,-1.3174277142857143,6.559670428571429
808,1778255825340,-0.12343194499999999,-1.946325925,-1.3311186875,0.46898268,-2.197108,6.34924245
809,1778255825350,0.17645338,-2.0373898,-1.2510375,0.50120693,-2.398443,6.1966434
810,1778255825360,0.47392866125,-2.07732375,-1.1359339625,1.095225015,-3.243929975,5.4213306375000005
811,1778255825370,0.8681116000000001,-2.084981,-0.9015475,1.5254587,-3.7710361,4.9556103
812,1778255825380,0.8681116,-2.084981,-0.9015475000000001,1.5254587,-3.7710361,4.955610299999999
813,1778255825390,1.0852005249999999,-2.0388542375,-0.9258921999999999,1.7577529374999998,-3.7776274499999998,4.5580669125
814,1778255825400,1.2195541,-1.9466007,-0.9056965,2.4884577,-3.711914,3.113768
815,1778255825410,1.4270027999999997,-1.9846735000000002,-0.9091133,2.5136689333333333,-3.646932866666667,2.9727980333333335
816,1778255825420,1.258054075,-2.0787575625,-0.68750926875,2.7574369625,-3.4609776500000002,2.488657525
817,1778255825430,1.1772972571428573,-2.1514344428571426,-0.5311034285714287,3.1108765857142857,-3.3736925714285713,2.146888242857143
818,1778255825440,1.1808535142857142,-2.1702616999999997,-0.5066977114285715,3.5316559285714284,-3.427108,2.139431385714286
819,1778255825450,1.216991425,-2.19645415,-0.50586967,4.1617216875,-3.4649723999999997,2.1986391125
820,1778255825460,1.2585684,-2.2242332285714284,-0.5521969400000001,4.663803928571428,-3.3341255714285714,2.291916371428571
821,1778255825470,1.2609741428571428,-2.2083345999999997,-0.5830527285714285,4.9018907,-3.1321057857142853,2.3834530571428574
822,1778255825480,1.2501309142857142,-2.1458907714285713,-0.7192017999999999,5.169119657142858,-2.2177284142857143,2.6676504428571426
823,1778255825490,1.2089201714285716,-2.133409057142857,-0.8159182285714286,5.193012,-1.6799981714285717,2.8580284
824,1778255825500,1.1354154250000001,-2.1305588,-0.8721386025,5.107943,-1.18790305625,3.1240876625
825,1778255825510,0.9496267166666666,-2.1282198833333332,-0.9465760983333333,4.9272029999999996,-0.7426668766666666,3.6318417000000003
826,1778255825520,0.8777925433333333,-2.135989,-0.9897335533333332,4.819433833333333,-0.6597537933333334,4.021196
827,1778255825530,0.8231237433333334,-2.1272028,-1.0987457333333333,4.526308555555556,-0.8976628444444444,5.194407222222222
828,1778255825540,0.9759036,-2.0955567333333334,-1.1760305333333332,4.217737,-1.1895453333333335,6.0963308
829,1778255825550,1.0858107333333333,-2.07696775,-1.2201642333333333,4.081383233333333,-1.2235450333333333,6.338234583333333
830,1778255825560,1.484691775,-1.999988125,-1.3830724625,3.47942005,-0.8894958374999999,6.912634275
831,1778255825570,1.7510758714285715,-1.9444040285714286,-1.5525179285714288,2.927270671428571,-0.47997772857142856,7.192513628571429
832,1778255825580,1.8420219833333331,-1.9197543,-1.5597292166666668,1.7688716333333332,0.10510608666666665,7.75406
833,1778255825590,1.8531267,-1.891748725,-1.443903725,0.8024104525,0.55739962,8.31185925
834,1778255825600,1.868711542857143,-1.8749523428571429,-1.384397342857143,0.5088159614285714,0.68306279,8.52942057142857
835,1778255825610,2.1990256,-1.7799095142857142,-1.1717188571428572,-0.19364986571428572,0.8238299028571429,9.039377714285715
836,1778255825620,2.52318585,-1.7073024499999998,-1.13608655,-0.649012385,0.7158577150000001,9.1673995
837,1778255825630,2.709000528571429,-1.649582857142857,-1.1697316285714285,-0.9663470428571428,0.4947392271428572,9.066389714285714
838,1778255825640,2.908277725,-1.5968055,-1.1048166375,-1.5451660500000002,-0.08815064,8.76579525
839,1778255825650,2.9557774,-1.5944259,-1.0421244,-1.7853832,-0.41385525,8.6052065
840,1778255825660,3.4689251,-1.2925620857142857,-0.1384850585714286,-1.5368722414285716,-1.3869743500000002,8.271398157142858
841,1778255825670,4.0086403,-1.0374874,0.33484653,0.24980451,-2.5198832,7.7572556
842,1778255825680,4.622932385714286,-0.7548690828571428,-0.2154328285714286,0.8381348500000001,-2.4310096571428574,7.399326771428571
843,1778255825690,5.599196171428572,-0.2530524928571428,-1.295769722857143,2.3249396857142854,-2.244207757142857,6.104345671428571
844,1778255825700,5.8245480999999995,-0.051801156249999994,-1.8348530375,2.346245,-2.2913837,5.5708003
845,1778255825710,5.93474,0.19036464,-2.3732128,1.9441077,-2.5294704,4.608334
846,1778255825720,5.4389901428571426,0.5096263771428572,-2.716148071428571,0.5196968828571429,-3.0266444571428575,3.4487174285714284
847,1778255825730,4.883856777777778,0.6269288222222222,-2.639126611111111,0.08930467111111108,-3.0152309111111113,3.298354511111111
848,1778255825740,4.441458428571429,0.6505868642857143,-2.2047783,-2.1019949428571425,-1.5611451428571428,4.015970942857143
849,1778255825750,4.403525,0.65260905,-2.0947433,-2.209891,-1.4444987,4.078365
850,1778255825760,4.346984988888888,0.6532599,-1.778174011111111,-2.7556615666666664,-0.6901730555555555,4.6358533
851,1778255825770,4.4945583,0.6164886,-1.5641629000000001,-3.6826193000000003,0.5320996,5.553756
852,1778255825780,4.6517659714285715,0.7021527000000001,-1.4569869,-3.6788908428571427,0.4335626371428572,5.573387357142857
853,1778255825790,5.8826335,1.34262,-0.7852541749999999,-3.526291525,-0.200003405,5.603158025
854,1778255825800,6.745498,1.7220681,-0.699224,-3.1356058,-0.32703619999999994,5.339105600000001
855,1778255825810,7.9970236,2.0398304,-1.3830724,-3.1205399714285713,1.1612904571428573,3.2883192285714284
856,1778255825820,7.9970236,1.6068729,-1.5607461,-4.302336875,2.2361898124999997,0.42171155375
857,1778255825830,7.120522825,0.849380225,-0.696661395,-4.70008,2.4453145,-1.2282499025
858,1778255825840,5.7576765,0.1550983675,0.5173403525,-3.7980673000000005,2.586595225,-2.25156955
859,1778255825850,4.53678,-0.42587993,1.52609,-1.8578212,2.6844664,-2.9630332
860,1778255825860,4.35276085,-0.5147167650000001,1.5565971,-0.90600741,2.6818032666666665,-3.271782333333333
861,1778255825870,3.960072825,-0.5198419425,1.25018324,-0.059721385000000016,2.6242789374999997,-3.5202329875
862,1778255825880,3.5075908000000005,-0.08664032,-0.20842488,1.9568908,2.5459821,-4.2626557
863,1778255825890,3.5075908,-0.08664032,-0.20842488,2.6796727,2.6951191,-4.7500143
864,1778255825900,3.4773278,0.045394648,-0.7219213,2.4703484,2.9598372,-4.878911
865,1778255825910,3.4067138,0.13667206266666668,-1.0636828333333332,1.5236833333333333,3.5460878,-5.015265
866,1778255825920,3.37169972,0.163615982,-1.16961996,1.0503508,3.8392131,-5.083442
867,1778255825930,3.0770737999999995,0.046858987,-1.2679994,-0.15046861,4.1982072,-5.2488243
868,1778255825940,2.93466635,-0.136916118,-1.0671403000000002,-0.7627293500000001,4.2072617999999995,-5.42991915
869,1778255825950,2.8976917000000006,-0.20061505999999998,-0.9752528000000001,-0.8745821,4.1891522,-5.510080300000001
870,1778255825960,2.86010686,-0.41157814400000003,-0.8412165359999999,-0.92827144,4.20566414,-5.723453
871,1778255825970,2.861693225,-0.6333895625,-0.7638381625,-0.87032104,4.2248387,-5.893043
872,1778255825980,2.8960239666666667,-0.9216821999999999,-0.8007111166666667,-0.7137272,4.2040663,-6.1359234
873,1778255825990,2.9526046,-1.400217425,-0.9716528875,-0.293746675,4.0962082,-6.69092605
874,1778255826000,2.975302,-1.5783182,-1.0604287,-0.1587244,4.0442767,-6.8650966
875,1778255826010,2.9739074285714286,-1.729285057142857,-1.155785342857143,-0.049154344499999995,4.010035914285714,-7.021462385714286
876,1778255826020,2.957485866666667,-1.8921758666666666,-1.2892730666666667,0.16085494,3.9153795,-7.5825524
877,1778255826030,2.7968960999999997,-2.2066436,-1.564163,0.09347696,3.86051845,-7.7870832
878,1778255826040,2.5994189142857143,-2.3377546285714286,-1.6478397285714286,-0.0008369928571428574,3.772025457142857,-8.034376857142858
879,1778255826050,2.5079324,-2.3666232,-1.6471423,-0.08721852625,3.664776075,-8.1661845
880,1778255826060,2.396967666666667,-2.370039866666666,-1.6225739000000001,-0.14434333,3.5952675,-8.240886
881,1778255826070,2.0190856,-2.3605218,-1.5385368999999998,-0.27856666,3.4711642,-8.354869
882,1778255826080,2.0190856,-2.3605218,-1.5385369,-0.27856666,3.4711642,-8.354869
883,1778255826090,1.6431397799999998,-2.34524372,-1.44906556,-0.47351006,3.2522523,-8.387893
884,1778255826100,1.4894813000000002,-2.324157,-1.3840486,-0.5438175,2.9822078,-8.311726
885,1778255826110,1.33582286,-2.2207745,-1.35695824,-0.5438175,2.9822078,-8.311726
886,1778255826120,1.1914874,-2.0932791,-1.3457316,-0.618386025,2.46635355,-8.086023149999999
887,1778255826130,1.21882184,-1.9727147999999999,-1.41938816,-1.10915336,1.48977234,-7.25082916
888,1778255826140,1.2356618,-1.9184120999999998,-1.4261485500000002,-1.2841763,1.4024206499999998,-6.9415295
889,1778255826150,1.2432276,-1.8865626000000002,-1.4233418999999998,-1.3656689999999998,1.355549,-6.7553744
890,1778255826160,1.2583592,-1.7803977,-1.4094306,-1.38122186,1.3170929599999999,-6.49662172
891,1778255826170,1.2284214999999998,-1.6909913666666665,-1.4674348666666666,-1.4375743333333333,1.2287825666666665,-5.904583433333333
892,1778255826180,1.0609982333333334,-1.4516524333333332,-1.6511285333333332,-1.5032656666666666,1.1968246333333334,-4.794932833333333
893,1778255826190,0.9271125,-1.402657925,-1.716820625,-1.544367125,1.246226275,-4.54055655
894,1778255826200,0.6867771,-1.3464638,-1.8123692,-1.6250609,1.3528858,-4.1742387
895,1778255826210,0.6867770999999999,-1.3464638,-1.8123692000000002,-2.448205957142857,2.0701131142857143,-2.7069129857142857
896,1778255826220,-0.8484243666666668,-1.0463548,-1.5186869333333333,-3.8324664333333334,3.258999033333333,-1.11160341
897,1778255826230,-0.9752528,-0.9925808,-1.2881342,-4.8075385,4.2280345,-0.25513083
898,1778255826240,-1.0940273,-0.9542638333333334,-0.9497081333333334,-4.888321,4.463813133333333,-0.12552365666666665
899,1778255826250,-1.35686064,-0.86933194,-0.189193176,-5.049886,4.9353704,0.13369069
900,1778255826260,-1.457998,-0.8361401,0.14545812,-4.624313,4.8538775,0.027164243
901,1778255826270,-1.8177384,-0.7158199,0.4800606399999999,-3.9505332,4.5119276,-0.15606125
902,1778255826280,-2.1069462,-0.6740861,0.5430274,-3.2431977,3.9563923,-0.3685815
903,1778255826290,-2.68881945,-0.45606161666666667,0.56356885,-2.7864655333333332,3.411331883333333,-0.5443501666666667
904,1778255826300,-3.1546838,-0.32093528,0.59037447,-2.1124194,2.359028,-0.6695187
905,1778255826310,-3.3483026000000002,-0.27488982666666667,0.6264949566666667,-2.028796133333333,2.3837066666666664,-0.5567782166666667
906,1778255826320,-3.6512707142857144,-0.2154328257142857,0.7187486028571428,-1.8238088142857143,2.4451623714285717,-0.29249118714285716
907,1778255826330,-4.14787485,-0.0715087735,0.825035525,-1.14249615,2.24797435,0.162719145
908,1778255826340,-4.274825466666667,0.07053254533333332,0.7601569499999999,-0.6876282000000001,1.9781961,0.3850931
909,1778255826350,-4.249281,0.16571487,0.6521209499999999,-0.19973709,1.3837786,0.4111921
910,1778255826360,-4.1522272,0.32077258000000003,0.38024118793333334,0.40568820333333333,0.4790139333333334,0.28442562
911,1778255826370,-4.035486,0.48787045000000007,-0.0012202862,1.1408982,-0.5928197,0.15180019
912,1778255826380,-3.9219996999999998,0.48481974,-0.26321574309999995,1.1408982,-0.5928197,0.15180019
913,1778255826390,-3.721141,0.447723015,-0.62478655,1.463140775,-1.215200475,0.577373345
914,1778255826400,-3.6337686,0.413677,-0.7243619,1.4439659,-1.2703278,0.8586032
915,1778255826410,-3.4875782,0.32410803,-0.9010593,1.2841763,-1.2809805,1.4466292
916,1778255826420,-3.2769566,-0.053692598,-1.3401184,1.0700581,-1.496164,1.9691414
917,1778255826430,-2.5291652499999997,-0.254551699,-1.39966835,0.43276367999999993,-1.994974,2.8085696500000004
918,1778255826440,-1.88027805,-0.6433959,-1.4420122499999999,-0.18708706249999998,-2.2935142749999997,3.3481262
919,1778255826450,-1.811881,-0.7060576,-1.4362769,-0.27696875,-2.3409185,3.4120421
920,1778255826460,-1.8118810000000003,-0.7060576,-1.4362769,-0.482831105,-2.4852619,3.53880855
921,1778255826470,-1.4226097,-0.93278676,-1.3659884,-0.5608617,-2.4730115,3.5681033
922,1778255826480,-0.72631437,-1.3489044,-0.9786696000000001,-0.63010395,-2.9417279,3.7646445999999996
923,1778255826490,0.019524579999999996,-1.6204587333333331,-0.6680660066666667,0.21749148333333335,-3.1531829333333334,3.8186180333333333
924,1778255826500,0.22843759,-1.692537,-0.6638357,0.52357745,-3.137204,3.7848847
925,1778255826510,0.28100752399999995,-1.70620422,-0.67389086,0.72959963,-3.11525944,3.72991702
926,1778255826520,0.7748818,-1.7801535000000002,-0.7660957,1.7672738,-3.4386737,3.449859
927,1778255826530,0.8900767999999999,-1.7869871,-0.7732221800000001,1.90320154,-3.51675756,3.40373304
928,1778255826540,1.0848751333333333,-1.8011424166666667,-0.78484745,2.4959146833333334,-3.8405446,3.1924200333333332
929,1778255826550,1.1949043,-1.8206669999999998,-0.7895252,2.7409256,-3.8978026,3.0583742
930,1778255826560,1.27812785,-1.8229856,-0.74888965,2.881140975,-3.86651045,2.954111475
931,1778255826570,1.3751812333333333,-1.7958138666666665,-0.6529344833333334,3.3017871,-3.772634,2.6413233
932,1778255826580,1.2792871,-1.7505615,-0.6125836899999999,4.0677123,-3.361442,1.8727349
933,1778255826590,1.22419118,-1.74105548,-0.5964271,4.10840544,-3.33981712,1.8325744400000001
934,1778255826600,1.1353543,-1.7555038000000003,-0.5708499,4.271178,-3.2533176000000004,1.6719326
935,1778255826610,0.8174697625,-1.8743596999999999,-0.50092752,4.84708665,-3.0595727,1.51587135
936,1778255826620,0.7907455,-1.888515,-0.50446635,5.134575,-2.9438584,1.4839134
937,1778255826630,0.6557818333333333,-1.9743419333333332,-0.6177902433333333,5.478300166666667,-2.5916109,1.9061131
938,1778255826640,0.56596875,-2.0292142,-0.8561528150000001,5.5412395,-2.3262713,2.56462405
939,1778255826650,0.53717,-2.0515454,-1.0177187,5.551093,-2.1273332,3.1095068
940,1778255826660,0.5538879,-2.0287260000000003,-1.12010075,5.2504222,-1.70202635,3.8357508999999994
941,1778255826670,0.6134378650000001,-1.966857425,-1.303936875,4.9497514,-1.2767195,4.561995
942,1778255826680,0.74193406,-1.8497099,-1.5482991,4.373443,-0.74941355,5.286375
943,1778255826690,0.9538245599999999,-1.76882932,-1.58266244,3.29283898,-0.03632552099999999,6.3348081
944,1778255826700,1.121199,-1.7437891,-1.5522041,3.0216227,0.118776985,6.5774755
945,1778255826710,1.17619325,-1.7524938,-1.5300762333333333,2.8107890999999996,0.18926197916666668,6.7526227500000005
946,1778255826720,1.4610894333333333,-1.735003,-1.4105696333333333,1.0302883333333333,0.42805877333333336,7.961076266666667
947,1778255826730,1.87333468,-1.71547834,-1.30297288,0.30637006199999994,0.20698088600000003,8.0230389
948,1778255826740,2.0581346000000003,-1.6994926000000001,-1.2315129,0.09587380499999999,0.07155026200000002,7.953797000000001
949,1778255826750,2.1162202,-1.6913167,-1.1875826,-0.068176925,-0.091080114,7.868576
950,1778255826760,2.1725975,-1.6694736,-1.1022846,-0.1113201375,-0.28309402699999997,7.784686300000001
951,1778255826770,2.3434782999999997,-1.6779341666666667,-0.9303462666666666,-0.09010362083333334,-0.8989944400000001,7.563200266666667
952,1778255826780,2.62245615,-1.89724,-1.258237125,0.04474111,-1.423726,7.477624
953,1778255826790,2.6962225,-1.9545935,-1.358483625,-0.44488108249999997,-1.1817778,7.9980057
954,1778255826800,2.6614444,-1.9134089,-1.3140042,-1.1361046,-0.8564726,8.564194
955,1778255826810,3.056003633333333,-1.7428942666666665,-0.76902435,-1.7631902666666666,-0.18997217,9.371841666666667
956,1778255826820,3.1890962,-1.7220681000000002,-0.6696930499999999,-1.8040253999999998,-0.026098980000000004,9.51654
957,1778255826830,3.714795,-1.5182801,-0.52374685,-1.5478293,0.42184472,9.78552
958,1778255826840,5.5564513,-0.9488945499999999,-1.28325305,-1.350489,0.29561087999999996,8.7463535
959,1778255826850,5.9359603000000005,-0.8715284,-1.5065655,-1.4993597,0.08362326000000002,8.272843
960,1778255826860,6.545615,-0.7499879,-1.7528191,-2.07939615,-1.52465972,6.137787149999999
961,1778255826870,6.7196283,-0.34509695,-0.79562664,-2.2008364,-1.3357084750000001,6.207828575
962,1778255826880,6.298873433333334,0.052553649999999986,0.06247865333333332,-2.4379463833333337,-3.1697830833333334,3.7218565333333333
963,1778255826890,6.01259425,0.2900010125,0.49476506249999996,-1.055543915,-3.0993868250000003,2.218146825
964,1778255826900,5.784889,0.4058672,0.50446635,-0.23062976,-2.3355923,1.9201392
965,1778255826910,5.2694401428571425,0.8254016428571429,0.27561037457142856,-0.05105660571428571,-1.7146953428571428,2.1105171857142855
966,1778255826920,4.582175,1.3847809,-0.029530926,-0.2561961,-1.4833808,3.1569111
967,1778255826930,4.582175,1.3847809,-0.029530926000000002,-0.13113405399999997,-1.2432701800000001,3.42237498
968,1778255826940,7.55405968,2.5301416199999998,-0.71220782,0.20719393400000002,0.36187033999999996,4.01231842
969,1778255826950,7.9970236,2.6450925,-1.2427394,-0.03568636,1.3289174,3.3044503
970,1778255826960,7.9970236,2.54502898,-1.55864708,-0.03568636,1.3289174,3.3044503
971,1778255826970,6.814225120000001,1.102992312,-0.9870651199999999,-3.1320903200000005,2.70726302,-1.40700126
972,1778255826980,5.56597,0.44345203,-0.3162982,-2.4566774,2.776256633333333,-0.4580637
973,1778255826990,3.8229127428571426,-0.13084955285714286,0.3844599,-4.135508771428571,4.560169028571428,-2.6909339999999995
974,1778255827000,2.9050133,-0.43368974,0.7170402,-3.552657,5.780658,-1.7038904
975,1778255827010,2.7044593249999997,-0.56487051,0.70270185,-2.3587616999999996,6.7412600000000005,-0.32929987499999996
976,1778255827020,2.8402685999999995,-0.5123459199999999,0.6943428857142857,-1.8388746857142857,6.480460271428571,-0.30025239428571426
977,1778255827030,3.0657658333333333,-0.4144092,0.70044428,-1.4109427666666665,6.121897199999999,-0.49002164
978,1778255827040,3.2706113,-0.33533466,0.69556314,-1.0785803,5.850965,-0.7307714
979,1778255827050,3.6603706,-0.29774985,0.36510965,-0.54275227,5.3305836,-1.865278
980,1778255827060,3.6603706,-0.29774985,0.36510965,-0.49188587500000003,5.4046193,-2.2865900999999997
981,1778255827070,3.3919077,-0.45980385,0.24625376999999998,-0.4910869,5.3731937,-2.363289
982,1778255827080,3.2415683399999997,-0.5716796900000001,0.270659474,-0.411831236,5.452236340000001,-2.5942384400000003
983,1778255827090,2.99275195,-0.91985175,0.5224045500000001,0.251002955,5.2947639,-3.3136382500000003
984,1778255827100,2.9367409,-0.9608534,0.5864696,1.1110709,4.7031426,-3.834952
985,1778255827110,2.94689374,-0.99014028,0.58695772,1.7880464,4.2445464,-4.347877
986,1778255827120,2.9831118500000002,-1.06335745,0.5657247325,2.1353226,4.017645,-4.680239500000001
987,1778255827130,3.1185634666666666,-1.7065296333333333,-0.11283580000000003,3.168540483333333,3.379018933333333,-5.925533633333334
988,1778255827140,3.1061165,-1.8829017,-0.3231318,3.9798281,2.8330708,-7.3753586
989,1778255827150,3.1061165,-1.8829017,-0.3231318,3.9798281,2.8330708,-7.3753586
990,1778255827160,2.757603,-2.396398,-0.95719254,4.01267375,2.7408366666666666,-7.5782915
991,1778255827170,2.5106983333333335,-2.5381139666666668,-1.21369668,4.1305629,2.1718967333333334,-8.700192333333332
992,1778255827180,2.225558,-2.6358182,-1.4675162,4.0378847,1.9563582,-8.914665
993,1778255827190,2.0705817000000004,-2.55781764,-1.54498,2.6254508000000003,1.7899638799999997,-8.8471276
994,1778255827200,2.0105436,-2.5169625,-1.5656272,2.3355923,1.8967034,-8.744224
995,1778255827210,1.9758874666666666,-2.4691271666666665,-1.5493567333333333,2.10283205,1.9736687499999999,-8.654475
996,1778255827220,1.9585594,-2.4452095,-1.5412215,1.8700718,2.0506341,-8.564726
997,1778255827230,1.832259775,-2.3316618499999997,-1.331210225,1.145026125,2.19258065,-8.20919425
998,1778255827240,1.7029268714285715,-2.2493711000000003,-1.1492655714285716,0.9235842857142857,1.9656411571428571,-8.041453085714284
999,1778255827250,1.6471423,-2.2218971,-1.104359,0.8942895,1.7837853,-7.9996033
1000,1778255827260,1.6471422999999998,-2.2218971,-1.104359,0.8942894999999998,1.7837853,-7.9996033
