id,timestamp,acc_x,acc_y,acc_z,gyro_x,gyro_y,gyro_z
0,1778255258210,-0.0654561528,0.191780188,1.36618356,0.555748456,0.60134178,-0.5044027160000001
1,1778255258220,-0.2997999404,0.24464297999999998,1.029531076,0.540941282,-0.35313518,-0.66706862
2,1778255258230,-0.42563586999999997,0.2630937,0.85273606,0.43675843,-0.8410263,-0.71585774
3,1778255258240,-0.32837904,0.217821085,0.88897853,0.07669904999999999,-0.642620785,-0.5211806449999999
4,1778255258250,-0.17777827142857142,0.1625072557142857,0.9698834999999999,-0.3744404457142857,-0.37253818999999994,-0.3189706142857143
5,1778255258260,-0.10665302,0.14911897,1.0294335,-0.4958806,-0.27696875,-0.3089267
6,1778255258270,-0.0929858124,0.159711054,1.0950849,-0.572047,-0.11345066,-0.3787015
7,1778255258280,-0.09884319,0.16547081,1.1351103,-0.5720470000000001,-0.11345066,-0.3787015
8,1778255258290,-0.103480278,0.154927538,1.1137309,-0.54285876,-0.055074168,-0.37060549200000004
9,1778255258300,-0.19202424599999998,0.07292430800000001,0.86552468,-0.4523113,0.16713999799999998,-0.408102804
10,1778255258310,-0.24632348714285715,0.05452936114285715,0.7219213542857144,-0.5042505514285714,0.11588556142857143,-0.37398391000000003
11,1778255258320,-0.24391080199999998,0.1038707616,0.689608156,-0.8727711959999999,-0.22679479800000002,-0.092145378
12,1778255258330,-0.21306197333333335,0.17987019333333334,0.7519403666666667,-1.17525305,-0.5624596300000001,-0.041545315
13,1778255258340,-0.17355956142857143,0.23760717142857143,0.87083115,-1.232206642857143,-0.6856498571428571,-0.05303495428571429
14,1778255258350,-0.1430175425,0.2452775475,0.9728732124999999,-1.21733095,-0.711996125,-0.06258429
15,1778255258360,-0.10453785633333333,0.16852153166666664,1.1281545499999999,-1.1462245,-0.6860303,-0.06018744
16,1778255258370,-0.04128053914285714,0.06812683771428571,1.0920167285714286,-0.4495416199999999,-0.6465394571428572,0.028990411857142857
17,1778255258380,-0.028310640000000005,0.05003173600000001,1.0626253,-0.30040458,-0.561927,0.050600062999999994
18,1778255258390,-0.02831064,0.050031736,1.0626253,-0.30040458,-0.561927,0.050600063
19,1778255258400,-0.02831064,0.050031736,1.0626253,-0.30040458,-0.561927,0.050600063
20,1778255258410,-0.02831064,0.050031736,1.0626253,-0.30040458,-0.561927,0.050600063
21,1778255258420,-0.1506809392,0.0863962608,0.73231822,0.055819853600000004,0.029720879999999995,0.41204430300000006
22,1778255258430,-0.17498904,0.10372432000000001,0.6379657,-0.014913701999999997,0.18375812,0.5182512
23,1778255258440,-0.1730365866666667,0.10852411333333334,0.6309693666666667,-0.14416579399999999,0.19476584666666666,0.5345852466666666
24,1778255258450,-0.13358066166666666,0.17132818833333333,0.7374596283333333,-0.6736022333333334,-0.10688153666666667,0.5312119000000001
25,1778255258460,-0.12910628,0.17840585,0.7602383,-0.7978831,-0.22583607,0.5219796
26,1778255258470,-0.1353907525,0.1799312075,0.8470616750000001,-0.8111989,-0.312921435,0.518251165
27,1778255258480,-0.15562716666666668,0.17409416999999996,1.15675,-0.6366730466666667,-0.56388,0.5516294333333334
28,1778255258490,-0.1184897925,0.056804323999999996,1.335176225,-0.15805861375,-0.27257454000000003,0.682301875
29,1778255258500,-0.10518867000000001,0.024649782,1.3618395,-0.046339005,-0.16564862,0.7174556
30,1778255258510,-0.079562664,-0.040513504,1.309123,0.07137272,0.25086978,0.8479504999999999
31,1778255258520,-0.1123883635,-0.11360865349999999,1.157929575,-0.05885586100000001,0.82105257,1.081776025
32,1778255258530,-0.1998015333333333,-0.14537677333333335,1.0511545333333334,-0.38633591333333334,1.5432131333333334,1.4008227666666666
33,1778255258540,-0.30507156,-0.12080834,0.9969738,-1.041429175,2.368482375,1.8925755
34,1778255258550,-0.2659003625,-0.0989042,1.134805275,-1.1946941,2.305099125,1.975932425
35,1778255258560,-0.24803190857142857,-0.0990872437142857,1.2171135571428573,-1.515643057142857,1.8648215428571429,2.1077018
36,1778255258570,-0.30751213,-0.14863087,1.1739154,-1.7108147,1.5361114,2.1784658
37,1778255258580,-0.30751213,-0.14863087,1.1739154,-1.9451729,1.3267869,2.3089607
38,1778255258590,-0.19075515999999998,-0.20256751199999998,1.1754772199999999,-2.3665916000000005,1.17061912,2.68372068
39,1778255258600,-0.0408795904,-0.31495587999999997,1.25298985,-2.4390562,1.1439608749999999,2.74824905
40,1778255258610,-0.0017084007999999997,-0.35193056,1.2900866,-2.4825988,1.1147993,2.7830033
41,1778255258620,-0.0084931916,-0.391126148,1.33011202,-2.5182853,1.3491575,2.787797
42,1778255258630,-0.13821774666666667,-0.30254964,1.469875433333333,-2.3233418666666665,2.4428289333333333,2.7915254
43,1778255258640,-0.1403329,-0.17498904,1.5541565,-2.1283984,2.5092304,2.8107002
44,1778255258650,-0.38097337,-0.10396838000000001,1.6847272,-1.2767194666666666,3.080567333333333,2.7918805333333334
45,1778255258660,-0.4229512000000001,-0.09030118,1.8411678000000002,-0.5086638,4.0922136,2.560363
46,1778255258670,-0.32951214285714286,0.014817762857142858,1.9042740857142857,0.42876889999999995,4.1124535657142856,1.4537815771428573
47,1778255258680,-0.5967199999999999,0.205252153,1.38709935,1.6026903,0.80587256,-0.30679616
48,1778255258690,-0.5379022,0.11055793600000001,1.2471325,1.6026903,0.80587256,-0.30679616
49,1778255258700,-0.49730732333333333,-0.0875352,1.0534323666666667,2.2572954,-1.2241663999999999,-0.4727998666666667
50,1778255258710,-0.51520485,-0.1313028,1.0662861,2.4064324,-1.045557,-0.41918156
51,1778255258720,-0.28388736200000003,-0.12432276,1.03509568,2.7417776799999998,-0.5674663759999999,-0.406398392
52,1778255258730,-0.19402550000000002,-0.23746769199999998,1.09757422,4.16443836,0.6325540359999999,-0.70062443
53,1778255258740,-0.2222751275,-0.262239495,1.0289452749999999,4.501275,0.49321744,-0.79042625
54,1778255258750,-0.27041543,-0.23405088,0.7726852,4.3702474,-1.4828482,-1.0737866
55,1778255258760,-0.42270714,0.024405725,0.2818861,3.0221553,-5.352954,-1.4679344
56,1778255258770,-0.350954316,0.092937003,0.35646999999999995,2.38320966,-7.1973528,-1.48923972
57,1778255258780,-0.23636945,0.184812355,0.4399131825,1.431848575,-10.0696785,-1.5144066500000002
58,1778255258790,-0.273392914,0.11831895,0.32635336000000004,1.5040469,-10.6583968,-1.51491256
59,1778255258800,-0.2893298475,0.1955508675,0.367855295,1.4575481250000002,-10.1710115,-1.51533865
60,1778255258810,-0.25012381,0.36622532999999996,0.3567070928571429,1.0278281,-7.483634757142857,-1.4474660714285716
61,1778255258820,-0.14643435,0.114218794,0.12154051,-0.603339145,-1.5639413500000001,-0.6902914
62,1778255258830,-0.111290106,0.129838458,0.1555254775,-0.79135832,-1.16153769,-0.523976985
63,1778255258840,-0.00317274425,0.18296158666666665,0.27598806000000004,-0.9606022216666666,-0.6467930933333333,-0.27670243666666666
64,1778255258850,0.007504760435,0.2198345675,0.36071662,-0.8937568650000001,-0.4657868825,-0.07962852249999999
65,1778255258860,-0.00073217176,0.23649145999999996,0.3372871,-0.76113147,-0.59122175,0.18801917
66,1778255258870,-0.0062234594600000005,0.240152335,0.25044340833333334,-0.7691209116666666,-0.4438601916666667,0.38376151166666667
67,1778255258880,0.08322352,0.18255483000000003,0.010738519,-0.7707188,-0.41438788,0.42290998
68,1778255258890,0.087714172,0.170254342,0.010738519,-1.0205233,-0.19121496,0.892159
69,1778255258900,-0.150192826,0.26075076999999997,0.096060931,-1.14963338,-1.327212992,1.30931652
70,1778255258910,-0.7721971425,0.5861644899999999,0.26419197850000004,-1.262604675,-2.303501125,1.6896425750000001
71,1778255258920,-1.0728757333333332,0.8332928000000001,0.45353972,-1.2267407933333334,-2.8500262833333334,2.0680334
72,1778255258930,-0.19548985,0.647972,1.4067459,-0.70200926,-1.4199976,2.390986
73,1778255258940,-0.14466492955,0.54144101,1.30759765,-0.46658582,-1.28231215,2.40803025
74,1778255258950,0.044255712866666665,0.2232310333333333,1.0294334666666667,0.5044027,-0.8364101333333332,2.392583966666667
75,1778255258960,0.117147475,0.22599702,1.0679946,1.1717908750000001,-0.7072024100000001,2.159956825
76,1778255258970,0.13783132625,0.2684629775,1.023027025,1.5856462,-0.51665324,1.8615496
77,1778255258980,0.19988288,0.39586085,0.8881243,1.5856462,-0.51665324,1.8615496
78,1778255258990,0.011897791250000005,1.1463369125,0.891052975,1.844505475,-1.7382453349999998,1.339436875
79,1778255259000,0.10152781,1.4145558,0.94620997,1.3880396,-4.9119344,0.48363006
80,1778255259010,0.31019676,1.2359059,1.1841658,0.94755274,-6.0629525,0.02876214
81,1778255259020,0.48372149999999997,1.0167425,2.1926103,0.94755274,-6.062952499999999,0.028762140000000002
82,1778255259030,1.0330943,0.60086894,2.8444872,1.08497186,-6.813644479999999,-0.3500459
83,1778255259040,1.338898,0.384438984,3.0396842800000003,1.5579493199999999,-6.863179239999999,-0.7458982000000001
84,1778255259050,1.6031510500000001,0.24838927,2.9715190750000002,2.40976145,-5.7650780500000005,-1.23517415
85,1778255259060,1.7369554,0.19402551999999998,2.8496125000000005,2.7409256,-4.7755804,-1.4604776
86,1778255259070,1.8558112000000002,0.16449459,2.5594285,2.8054805600000003,-4.30601184,-1.538668
87,1778255259080,1.8558112,0.16449459,2.5594285,2.8506476999999997,-2.5595641000000002,-1.8996328
88,1778255259090,1.8558112,0.16449459,2.5594285,2.7989824,-1.5174692,-2.143312
89,1778255259100,1.8558112,0.16449459,2.5594285,2.7989824,-1.5174692,-2.143312
90,1778255259110,1.8558112000000002,0.16449459,2.5594285,2.7989824,-1.5174692,-2.143312
91,1778255259120,1.8558112,0.16449459000000002,2.5594285,2.7989824,-1.5174692,-2.143312
92,1778255259130,1.8558112,0.16449459,2.5594285,2.7989824,-1.5174692,-2.143312
93,1778255259140,1.8558112,0.16449459,2.5594285,2.7989824,-1.5174692,-2.143312
94,1778255259150,1.8522898142857145,0.16916654285714286,2.4666867142857143,2.7989824,-1.5174692,-2.143312
95,1778255259160,1.8311614999999999,0.19719826,1.910236,2.7989824,-1.5174692,-2.143312
96,1778255259170,1.8311615,0.19719826,1.910236,2.7989824,-1.5174692,-2.143312
97,1778255259180,1.8311615,0.19719826,1.910236,2.683933833333333,-1.1323761066666667,-2.3149971333333332
98,1778255259190,-0.32996540500000004,-0.7822645175,0.05143506675000001,2.1859226,-2.4650218,-0.34567833
99,1778255259200,-0.35559141999999994,-0.79269797,-0.05271636300000001,2.1017668,-2.4442494,-0.1257012
100,1778255259210,-0.35559142,-0.79269797,-0.052716363,2.1017668,-2.4442494,-0.1257012
101,1778255259220,-0.35559142,-0.79269797,-0.052716363,2.1017668,-2.4442494,-0.1257012
102,1778255259230,-0.35559141999999994,-0.79269797,-0.05271636300000001,2.1017668,-2.4442494,-0.1257012
103,1778255259240,-0.35559142,-0.79269797,-0.052716363,2.1017668,-2.4442494,-0.1257012
104,1778255259250,-0.40171823,-0.79269797,-0.1361839515,2.01441505,-2.4434504500000003,0.03568636
105,1778255259260,-0.4478450400000001,-0.79269797,-0.21965154,1.9270633,-2.4426515,0.19707392
106,1778255259270,-0.44784504,-0.79269797,-0.21965154,1.9270633,-2.4426515,0.19707392
107,1778255259280,-0.434275458,-0.7957730759999999,-0.236589108,1.9270633,-2.4426515,0.19707392
108,1778255259290,-0.37999713,-0.8080735,-0.30433938,1.7933726333333333,-2.411581266666667,0.43604824666666664
109,1778255259300,-0.37999713,-0.8080735,-0.30433938,1.467002275,-2.327869175,0.985369625
110,1778255259310,-0.3300264075,-0.7994705125,-0.33399234,1.2900352,-2.2631543,1.1994878
111,1778255259320,0.7175283,-0.5042223,-0.13325526,0.7009440000000001,-1.9084212999999999,2.6114957
112,1778255259330,1.7529819333333334,0.39398974666666664,0.24243020266666668,-2.7103878,-1.7346056,3.1290367333333333
113,1778255259340,1.9212188,0.38390204,0.5452239,-2.9389757499999996,-1.3129384016666668,3.1584202833333332
114,1778255259350,2.3380683285714285,0.3461429142857143,1.4678997999999999,-2.5048172285714285,0.2582505528571429,2.940434242857143
115,1778255259360,2.3761413,0.34460884,1.564407,-2.2461102,0.76592517,2.8208203
116,1778255259370,2.3383473571428572,0.3793347028571428,1.5306573428571428,-1.888637857142857,1.105211872857143,2.5988648428571426
117,1778255259380,2.01152,0.7185045,1.3306,-1.0652645,1.3113406,1.9973708
118,1778255259390,1.9033677285714286,0.8293762285714286,1.2553955714285714,-0.7527615371428571,0.6157989700000001,1.7837092142857143
119,1778255259400,1.7591647,0.9772052,1.155123,-0.33609092,-0.31158987,1.4988271
120,1778255259410,1.706611033333333,1.0453785333333334,1.1346222,-0.33609092,-0.31158987,1.4988271
121,1778255259420,1.6803342,1.0794652,1.1243718,-0.33609092,-0.31158987,1.4988271
122,1778255259430,1.6803342,1.0794652,1.1243718,-0.33609092,-0.31158987,1.4988271
123,1778255259440,1.6803342,1.0794652,1.1243718,-0.33609092,-0.31158987,1.4988271
124,1778255259450,1.6803342,1.0794652,1.1243718,-0.33609092,-0.31158987,1.4988271
125,1778255259460,1.5655662625,1.11924655,1.047768325,0.332495685,-1.72226632625,1.0171278275
126,1778255259470,1.20534996,1.15936958,0.6712062480000001,1.2557337199999998,-2.47258536,0.354520012
127,1778255259480,1.0390215142857142,1.125173657142857,0.3880161557142857,1.1628122428571428,-0.9516616314285714,0.34286298142857147
128,1778255259490,0.9517186757142857,0.99550945,0.4238228357142857,0.9698471714285715,0.8729842428571428,0.3115137671428571
129,1778255259500,0.87640953,0.98379475,0.45980384999999996,1.0844392,1.7006947,0.14807177
130,1778255259510,0.6958072,0.9947773,0.47493544,1.2206599,1.69070785,0.018642131
131,1778255259520,0.6958072,0.9947773,0.47493544,1.2660667999999997,1.6873789,-0.024501082
132,1778255259530,0.4975351,0.9798410040000001,0.48489295600000004,1.5285479599999998,1.0260627251999999,-0.2381931292
133,1778255259540,0.20012695,0.95743656,0.49982923,1.9222697,0.034088463,-0.5587312
134,1778255259550,0.20012695,0.95743656,0.49982923,1.4919028,1.3518206,-0.2050634
135,1778255259560,0.20012695,0.95743656,0.49982923,1.4919028,1.3518206,-0.2050634
136,1778255259570,0.20012695,0.95743656,0.49982923,1.4919028,1.3518206,-0.2050634
137,1778255259580,0.20012695,0.95743656,0.49982923,1.4919028,1.3518206,-0.2050634
138,1778255259590,0.20012695,0.95743656,0.49982923,1.4919028,1.3518206,-0.2050634
139,1778255259600,0.20012695,0.95743656,0.49982923,1.4919028,1.3518206,-0.2050634
140,1778255259610,0.20012695,0.95743656,0.49982923,1.4919028,1.3518206,-0.2050634
141,1778255259620,0.19719826,0.7380291,0.72753465,1.4919028,1.3518206,-0.2050634
142,1778255259630,0.19719826,0.7380291,0.72753465,1.4919028,1.3518206,-0.2050634
143,1778255259640,0.19719826,0.7380291,0.72753465,1.4919028,1.3518206,-0.2050634
144,1778255259650,0.19719826,0.7380291,0.72753465,1.9734024000000001,0.14487594999999998,-0.48016795
145,1778255259660,0.35010012999999995,0.64284678,0.811002225,2.7047065125,-0.8151270675,-0.852211575
146,1778255259670,1.0735265,0.10950034733333334,0.7105319900000001,4.0581249,1.7520049199999999,-1.5536881999999999
147,1778255259680,0.7886186628571429,0.24454535857142856,-0.10435191285714286,3.8287125285714287,2.991795342857143,-2.2171956857142856
148,1778255259690,0.36096065625,0.5566335499999999,-0.14149219625,3.4908717,2.5198832,-2.3840618
149,1778255259700,0.2571317614285714,0.5599718571428572,0.0809224057142857,3.4522177571428574,2.1325834,-2.4140414571428574
150,1778255259710,0.5406565514285714,0.46534745,0.47368020000000005,3.923140671428572,1.0358175042857143,-2.1823464571428572
151,1778255259720,0.677747,0.43076107,0.5613316,4.1614556,0.7637946000000001,-2.0644825
152,1778255259730,0.677747,0.43076107,0.5613316,4.1614556,0.7637946000000001,-2.0644825
153,1778255259740,0.698613895,0.45492273625,0.5543149625,4.39168595,0.7637946,-1.9200059999999999
154,1778255259750,1.0460293314285714,0.6923904,0.37637114285714285,4.569299857142857,0.8016875742857144,-1.8098843
155,1778255259760,1.1265682,0.7197248000000002,0.3248402,4.604073083333333,0.704583645,-1.7528039333333334
156,1778255259770,1.5495804249999998,0.914116425,0.09121639675000001,4.528306199999999,0.542086435,-1.804424875
157,1778255259780,1.9493549857142856,0.9604001628571428,-0.14218078071428572,3.169237857142857,-0.6078855457142858,-2.400345114285714
158,1778255259790,1.6030899666666667,0.6499650983333334,-0.08668100499999999,0.6824794399999999,0.38322888666666666,-2.155473833333333
159,1778255259800,1.1446589875,0.267456225,0.216692325,-0.16185361625,0.72557824375,-1.443766275
160,1778255259810,1.1275444,0.030995270000000002,0.30385128,-0.27004454,0.64768076,-1.2735237
161,1778255259820,1.1275444,0.03099527,0.30385128,-0.27004454,0.64768076,-1.2735237
162,1778255259830,1.1275444,0.03099527,0.30385128,-0.27004454,0.64768076,-1.2735237
163,1778255259840,1.0794651833333333,-0.07150877,0.3225216616666667,-0.26764769166666663,0.6211379266666667,-1.2791163166666666
164,1778255259850,0.9610975,-0.20232345,0.37877685,-0.23595606,0.43812805857142856,-1.320090857142857
165,1778255259860,0.9610975,-0.20232345,0.37877685,-0.11771172,0.13635385,-1.3981596000000003
166,1778255259870,0.9610975,-0.20232345,0.37877685,-0.11771172,0.13635385,-1.3981596000000003
167,1778255259880,0.9610975,-0.20232345,0.37877685,-0.11771172,0.13635385,-1.3981596
168,1778255259890,0.6997121333333333,-0.30734943,0.41863955333333336,0.21820166666666665,-0.036751624,-1.3521757
169,1778255259900,0.635281,-0.33240595,0.4036707,0.3009372,-0.036751624,-1.3038837
170,1778255259910,0.635281,-0.33240595,0.4036707,0.3009372,-0.036751624,-1.3038837
171,1778255259920,0.635281,-0.33240595,0.4036707,0.3876801771428572,0.0006848128571428574,-1.2217060714285712
172,1778255259930,0.60184515,-0.35266271,0.38695277499999997,0.40213734000000007,0.006924219,-1.2080098
173,1778255259940,0.5684093,-0.37291947,0.37023485,0.40213734,0.006924219,-1.2080098
174,1778255259950,0.5684093,-0.37291947,0.37023485,0.40213734,0.006924219,-1.2080098
175,1778255259960,0.5431900666666667,-0.40684342333333334,0.3284197066666667,0.40213734000000007,0.006924219,-1.2080098
176,1778255259970,0.4927516,-0.47469133,0.24478942,0.40213734,0.006924219,-1.2080098
177,1778255259980,0.4927516,-0.47469133,0.24478942,0.40213734,0.006924219,-1.2080098
178,1778255259990,0.4927516,-0.47469133,0.24478942,0.40213734000000007,0.006924219,-1.2080098
179,1778255260000,0.4927516,-0.47469133,0.24478942,0.40213734,0.006924219,-1.2080098
180,1778255260010,0.4927516,-0.47469133,0.24478942,0.40213734,0.006924219,-1.2080098
181,1778255260020,0.4927516,-0.47469133,0.24478942,0.46498793,0.19600865,-0.9827065
182,1778255260030,0.4502856,-0.54815257,0.17132818999999996,0.45737890857142854,0.5140661857142858,-0.8122641428571429
183,1778255260040,0.47123385833333337,-0.5963538566666666,0.086396268,0.40071698333333333,1.1443603516666667,-0.6372057083333332
184,1778255260050,0.460780085,-0.5836018725,-0.0352357675,0.2985403625,1.9126158,-0.5826331124999999
185,1778255260060,0.19988288,-0.5452239,-0.13911264,0.09498608333333335,2.6952967,-0.3518923666666667
186,1778255260070,0.1509668357142857,-0.5390527428571429,-0.15103657857142858,0.08522116,2.7206854999999996,-0.32224250000000004
187,1778255260080,-0.14252943,-0.5020258,-0.22258021,0.08522116,2.7206854999999996,-0.32224250000000004
188,1778255260090,-0.35376096749999997,-0.5686534225000001,-0.40544008750000005,-0.3273690925,2.7641616,0.7991480799999999
189,1778255260100,-0.51304903,-0.6144547716666667,-0.5308651466666666,-0.6673882,2.684999,1.4370418
190,1778255260110,-0.53082454,-0.6191732,-0.5437595,-0.6673882,2.684999,1.4370418
191,1778255260120,-0.5585656766666667,-0.6667644200000001,-0.6885668466666667,-1.7974561666666666,2.4346618,2.974750866666666
192,1778255260130,-0.5133744100000001,-0.6890956500000001,-0.7190740166666667,-2.163552,2.359028,3.4317493
193,1778255260140,-0.32728076,-0.7165521,-0.6731099,-2.904909575,1.9268636499999998,4.2132541375
194,1778255260150,0.07521031666666667,-0.70040362,-0.538837735,-3.0332517666666665,1.8237327833333332,4.319381066666668
195,1778255260160,1.007834375,-0.48298928999999996,0.07455949,-4.543264266666667,0.17967461083333333,5.313628066666667
196,1778255260170,1.3330406,-0.33460248,0.4881145,-4.64189,0.036218993,5.350291
197,1778255260180,1.9866259333333331,-0.24365048666666667,0.8180799,-4.941762,-0.98377174,5.3577476
198,1778255260190,3.3250010857142853,-0.029182270000000003,1.9297257857142858,-4.282667571428571,-0.5301973542857142,4.969230457142857
199,1778255260200,3.162772757142857,0.6392207842857144,2.310803771428571,-1.8660389714285712,1.8368202714285715,3.461653028571429
200,1778255260210,2.9544523714285718,0.9222923142857143,2.1913551142857144,-1.0533182857142858,1.8922139999999998,2.8308642
201,1778255260220,2.8303318,1.0667742,2.0647242,-0.8357,1.8514296,2.5928538
202,1778255260230,2.8303318,1.0667742,2.0647242,-0.8357,1.8514296000000001,2.5928538
203,1778255260240,2.78571,1.1018371,2.0148551833333337,-0.8357,1.8514296000000001,2.5928538
204,1778255260250,2.562601,1.2771516,1.7655101,-0.8357,1.8514296,2.5928538
205,1778255260260,2.562601,1.2771516,1.7655101,-0.8357,1.8514296000000001,2.5928538
206,1778255260270,2.562601,1.2771516,1.7655101,-0.8015227666666668,1.82364395,2.5201495
207,1778255260280,1.1184533,1.8186841,0.95948059,-0.734766155,1.3004881375,1.1169963625000001
208,1778255260290,0.5798393833333333,1.6844018166666668,1.1737932549999999,-0.728818455,1.5055737666666669,0.69508505
209,1778255260300,0.528384,1.6556844,1.2256553999999997,-0.7036071999999999,1.5451661,0.6530071
210,1778255260310,0.528384,1.6556844,1.2256553999999997,-0.7036071999999999,1.5451661,0.6530071
211,1778255260320,0.528384,1.6556844,1.2256554,-0.7036072,1.5451661,0.6530071
212,1778255260330,0.528384,1.6556844,1.2256554,-0.7036072,1.5451661,0.6530071
213,1778255260340,0.528384,1.6556843999999997,1.2256554,-0.7036072,1.5451661,0.6530071
214,1778255260350,0.528384,1.6556844,1.2256554,-0.7036072,1.5451661,0.6530071
215,1778255260360,0.528384,1.6556844,1.2256554,-0.7036072,1.5451661,0.6530071
216,1778255260370,0.528384,1.6556844,1.2256554,-0.7036072,1.5451661,0.6530071
217,1778255260380,0.528384,1.6556844,1.2256554,-0.7036072,1.5451661,0.6530071
218,1778255260390,0.08371163,1.5700202,1.5051011,0.04917970833333334,1.983700016666667,0.5549139916666667
219,1778255260400,0.08371163,1.5700202,1.5051011,0.19973709,2.0714068,0.53529537
220,1778255260410,0.08371163,1.5700202,1.5051011,0.19973709,2.0714068,0.53529537
221,1778255260420,0.08371163,1.5700202,1.5051011,0.19973709000000003,2.0714068,0.53529537
222,1778255260430,0.08371163,1.5700202,1.5051011,0.19973709,2.0714068,0.53529537
223,1778255260440,0.059598774599999994,1.54410134,1.50436892,0.19973709,2.0714068,0.53529537
224,1778255260450,-0.036852647,1.4404259,1.5014402,0.19973709000000003,2.0714068,0.53529537
225,1778255260460,-0.036852647,1.4404259,1.5014402,0.7254451,2.183792,0.5885586
226,1778255260470,-0.036852647,1.4404259,1.5014402,0.7254451,2.183792,0.5885586
227,1778255260480,-0.036852647,1.4404259,1.5014402,1.28897,2.2471755,0.6892261
228,1778255260490,-0.04685899275,1.425660425,1.494240525,1.28897,2.2471755,0.6892261
229,1778255260500,-0.07687803,1.3813640000000003,1.4726415,1.28897,2.2471755,0.6892261
230,1778255260510,-0.07687803,1.381364,1.4726415,1.28897,2.2471755,0.6892261
231,1778255260520,-0.07687803,1.381364,1.4726415,1.28897,2.2471755,0.6892261
232,1778255260530,-0.07687803,1.3813640000000003,1.4726415,1.28897,2.2471755,0.6892261
233,1778255260540,-0.07687803,1.381364,1.4726415,1.28897,2.2471755,0.6892261
234,1778255260550,-0.07687803,1.381364,1.4726415,1.28897,2.2471755,0.6892261
235,1778255260560,-0.07687803,1.381364,1.4726415,1.2889700000000002,2.2471755,0.6892261
236,1778255260570,-0.07687803,1.381364,1.4726415,1.28897,2.2471755,0.6892261
237,1778255260580,-0.07687803,1.381364,1.4726415,1.28897,2.2471755,0.6892261
238,1778255260590,-0.07687803,1.381364,1.4726415,1.28897,2.2471755,0.6892261
239,1778255260600,-0.07687803,1.381364,1.4726415,1.28897,2.2471755,0.6892261
240,1778255260610,-0.01652616,1.2953861,1.3524606857142858,1.2889700000000002,2.2471755,0.6892261
241,1778255260620,0.063943,1.1807489,1.1922196,1.28897,2.2471755,0.6892261
242,1778255260630,0.063943,1.1807489,1.1922196,1.8338528,2.39993436,0.75505945
243,1778255260640,0.063943,1.1807489,1.1922196,2.197108,2.5017736,0.79894835
244,1778255260650,0.28749946,0.9313224,1.057256,2.197108,2.5017736,0.79894835
245,1778255260660,0.27590672666666666,0.8373604,1.0194270833333334,3.00812925,2.5519298333333333,0.7280195166666666
246,1778255260670,0.2892775742857143,0.7794142428571428,0.9888850571428572,3.4431629999999998,2.494164657142857,0.6034723142857142
247,1778255260680,0.405964828,0.580758612,0.8742618500000001,3.5643749999999996,2.4724789,0.5603291
248,1778255260690,0.473617492,0.689559348,0.9439645999999999,3.8780951000000004,2.4192157,0.5496765
249,1778255260700,0.38341394,0.5444917,0.8510276,3.8780951,2.4192157,0.5496765
250,1778255260710,0.38341394,0.5444917,0.8510275999999999,3.8780951000000004,2.4192157,0.5496765
251,1778255260720,0.38341394,0.5444917,0.8510276,3.8780951,2.4192157,0.5496765
252,1778255260730,0.38341394,0.5444917,0.8510276,3.8780951,2.4192157,0.5496765
253,1778255260740,0.38341394,0.5444917,0.8510276,3.8780951,2.4192157,0.5496765
254,1778255260750,0.38341394,0.5444917,0.8510275999999999,3.8780951000000004,2.4192157,0.5496765
255,1778255260760,0.38341394,0.5444917,0.8510275999999999,3.8780951000000004,2.4192157,0.5496765
256,1778255260770,0.38341394,0.5444917,0.8510275999999999,3.8780951000000004,2.4192157,0.5496765
257,1778255260780,0.38341394,0.5444917,0.8510276,3.8780951,2.4192157,0.5496765
258,1778255260790,0.44212714571428574,0.49860894,0.8099562571428571,3.7106965285714284,2.6563130142857143,0.5661119857142858
259,1778255260800,0.7706839999999999,0.36974672399999997,0.7950409,3.04122352,3.18428848,0.47691890066000003
260,1778255260810,0.97330034,0.36291313,0.933519,1.68152,3.955327,-0.0015978967
261,1778255260820,0.8117344,0.15424417,1.19344,0.85594,3.8200383,-0.5118596
262,1778255260830,0.8117344,0.15424417,1.19344,0.85594,3.8200383,-0.5118596
263,1778255260840,0.7874681428571428,0.0651981442857143,1.2243306571428572,0.773001542857143,3.7748406714285716,-0.5597964971428572
264,1778255260850,0.5577521666666666,-0.4842909233333333,1.2730026666666667,-0.28762139999999997,3.2368060666666665,-1.32128298
265,1778255260860,-0.233440765,-0.879582345,1.10204055,-0.998286,3.2425318499999998,-0.5189169899999999
266,1778255260870,-0.1384414735,-0.5601113725,1.06012365,0.339419885,1.54956034825,1.2859072999999999
267,1778255260880,-0.07443746,-0.3325686666666667,0.7673973333333333,1.5488945333333335,-0.5487887356666667,1.6055310666666667
268,1778255260890,0.281056332,0.0180114276,0.248987202,1.29323106,-0.25225462,1.55379476
269,1778255260900,-0.036852644,0.09249769625000001,0.56053849,-0.72424668,1.10294819,1.6077504
270,1778255260910,0.15946702,-0.0213306042,0.9835995000000001,-1.48828096,0.477131946,1.6538231199999998
271,1778255260920,0.14423785,-0.030507157,0.97208,-1.5984293,0.5603291,1.6943032
272,1778255260930,0.14423785,-0.030507156999999997,0.97208,-1.5984293,0.5603291,1.6943032
273,1778255260940,0.14423785,-0.030507156999999997,0.97208,-1.5984293,0.5603291,1.6943032
274,1778255260950,0.14423785,-0.030507157,0.97208,-1.5984293,0.5603291,1.6943032
275,1778255260960,0.14423785,-0.030507156999999997,0.97208,-1.5984293,0.5603291,1.6943032
276,1778255260970,0.14423784999999997,-0.030507157,0.97208,-1.5984293,0.5603291,1.6943032
277,1778255260980,0.14423784999999997,-0.030507157,0.97208,-1.5984293,0.5603291,1.6943032
278,1778255260990,0.01192394428571429,-0.07914428057142857,0.9649326428571429,-1.5984293,0.5603291,1.6943032
279,1778255261000,-0.057248857714285714,-0.1332901214285714,0.9592844771428571,-1.7115755857142858,0.10934180285714287,2.0658521000000003
280,1778255261010,0.05438990271428571,-0.36936320428571434,0.4555154142857143,-0.29005628,-0.7300104825714284,4.101724714285714
281,1778255261020,0.24971124,-0.39045090833333335,0.6357691366666667,0.6522081783333333,-2.1464190833333334,4.07765465
282,1778255261030,1.177820242857143,-0.5007706171428571,2.5205884000000003,1.9717284428571429,-4.671717342857143,2.3867249428571427
283,1778255261040,1.6472399800000002,-0.07985553279999999,2.1097284600000004,2.9096634000000003,3.4447457200000002,1.2007661
284,1778255261050,1.4945717,-0.04752143400000001,1.8443754714285716,2.6095936285714285,4.648890257142857,1.0917439285714285
285,1778255261060,1.3698933,-0.028554698000000003,1.6410409,2.3771377,5.3508234,1.0753845
286,1778255261070,1.151218,-0.016351834,1.6110218999999997,2.2334791,5.5468319428571435,1.0893851285714284
287,1778255261080,1.151218,-0.016351834,1.6110218999999997,2.3579628,5.3103433,1.0753845
288,1778255261090,1.151218,-0.016351834,1.6110219,2.3579628,5.3103433,1.0753845
289,1778255261100,1.151218,-0.016351834,1.6110218999999997,2.3579628,5.3103433,1.0753845
290,1778255261110,0.68148915,-0.17177562833333335,1.3634665166666666,3.4800413,3.95213105,0.828598225
291,1778255261120,0.617495325,-0.18588009375,1.20948675,3.704457,3.6804886,0.77924097
292,1778255261130,0.4965170328571428,-0.19130601,0.9658740285714285,4.615866857142857,1.8935075314285714,0.50531582
293,1778255261140,0.3811128428571428,-0.20410158857142857,0.6770496971428572,5.252438428571429,0.6129836028571428,0.2835886257142857
294,1778255261150,0.3885934022222222,-0.2262139488888889,0.5853848622222223,5.571924888888889,0.016866686666666655,0.10605300088888889
295,1778255261160,0.36755022,-0.25528386,0.46151223999999996,5.704491,-0.22370553,0.014913702
296,1778255261170,0.29684335142857143,-0.2743900771428571,0.2972268571428572,5.860095642857144,-0.6121466157142857,-0.18139932085714286
297,1778255261180,0.1236672942857143,-0.32222527142857144,-0.020082425428571433,5.903695514285714,-0.9256387285714285,-0.3340365142857143
298,1778255261190,0.06565140028571428,-0.3430050142857143,-0.11338202714285714,5.790473428571429,-0.9784454257142857,-0.35199382
299,1778255261200,-0.0174500925,-0.359740375,-0.21806514500000002,5.572331875,-0.9847704024999999,-0.29820747
300,1778255261210,-0.051740136,-0.36218095,-0.25894472,5.5010257,-0.9853696,-0.27324033
301,1778255261220,-0.07133444857142857,-0.3536040785714286,-0.29778469999999996,5.0157219571428575,-1.1885308,0.017576862
302,1778255261230,-0.245887675,-0.363370745,-0.55266761875,4.53409845,-1.1947606875,0.23236081
303,1778255261240,-0.2532616828571429,-0.36409856,-0.6321779714285715,4.038113185714286,-1.2765672428571428,0.3336560628571429
304,1778255261250,-0.23506198571428571,-0.3452015528571429,-0.6780259142857143,3.5760927,-1.4066817,0.44368264
305,1778255261260,-0.2689511,-0.34729347,-0.6079466,2.5555694,-1.551025,0.8016115
306,1778255261270,-0.2689511,-0.34729347,-0.6079466,2.193379542857143,-1.5848852142857144,0.9214537357142857
307,1778255261280,-0.18493438499999998,-0.374322805,-0.559196175,1.696167325,-1.60082615,1.0960239825
308,1778255261290,-0.19719826,-0.36755022,-0.5789038,1.245902842857143,-1.5696671285714285,1.3277000142857143
309,1778255261300,-0.18641092799999998,-0.392785736,-0.53111739,1.190433,-1.5643408,1.3592775
310,1778255261310,-0.12007616785714285,-0.5477690142857143,-0.2358987642857143,0.5798082142857143,-1.4304218714285715,2.008327857142857
311,1778255261320,-0.110801995,-0.5693855,-0.19426957,0.3355583,-1.3768543,2.267948
312,1778255261330,-0.110801995,-0.5693855,-0.19426957,0.3355583,-1.3768543,2.267948
313,1778255261340,-0.110801995,-0.5693855,-0.19426957000000003,0.33555830000000003,-1.3768543,2.267948
314,1778255261350,-0.11080199500000001,-0.5693855,-0.19426957,0.3355583,-1.3768543,2.267948
315,1778255261360,-0.03568117,-0.5783668200000001,-0.177185562,0.221468476,-1.2836436599999999,2.48142702
316,1778255261370,0.6956677885714286,-0.5820765371428571,0.024614915142857147,-0.9483897314285714,-0.5616987542857143,4.1253126714285715
317,1778255261380,0.79499212,-0.59486514,0.0396348948,-1.0588729000000001,-0.6504505039999999,4.16220134
318,1778255261390,0.9413776199999999,-0.6036511860000001,0.0446624746,-1.23666552,-1.003585616,4.07005592
319,1778255261400,1.1480103714285714,-0.5634235885714286,0.009169579657142856,-1.4689235714285716,-1.474402057142857,3.952968142857143
320,1778255261410,1.1550183714285716,-0.4730177928571429,-0.0008367677214285715,-1.7169780285714287,-1.9241718714285714,3.9181187142857143
321,1778255261420,1.1933702285714287,-0.4266469014285715,0.02691602878714286,-2.059841085714286,-2.5172198,3.9957309428571426
322,1778255261430,1.23871255,-0.4256968275,0.05131303825,-2.1619542750000003,-2.7017769,4.03482235
323,1778255261440,1.6391233571428572,-0.45506217000000004,0.273413855,-2.4459232714285717,-3.2670899571428573,4.156890185714286
324,1778255261450,1.9647828875,-0.46111566000000004,0.45202454375,-2.553971575,-3.4980620625,4.1808300375
325,1778255261460,2.1520967,-0.44662476,0.5464442,-2.5220137,-3.406183,4.1278996
326,1778255261470,2.409507471428572,-0.35552168999999995,0.6685076428571428,-2.3485277000000004,-2.9126613285714282,3.8382238285714285
327,1778255261480,2.5469816,-0.18109047,0.8090498,-2.0921793,-2.2269354,3.4168358
328,1778255261490,2.517555257142857,-0.14364511571428573,0.7949990714285714,-2.0921793,-2.2269354,3.4168358
329,1778255261500,2.314429757142857,0.12244700714285714,0.6666597999999999,-1.9371834,-1.6655409,3.2155008
330,1778255261510,2.2790065,0.17767367,0.6079466,-1.9371834,-1.6655409,3.2155008
331,1778255261520,2.2628988333333333,0.21054005,0.564179,-1.9371834,-1.6655409,3.2155007999999996
332,1778255261530,2.254845,0.22697324,0.5422952,-2.1499319142857143,-1.0432743857142857,3.105017742857143
333,1778255261540,2.254845,0.22697324,0.5422952,-2.18539,-0.9395633,3.0866039
334,1778255261550,2.254845,0.22697324,0.5422952,-2.18539,-0.9395633,3.0866039
335,1778255261560,2.254845,0.22697324,0.5422952,-2.18539,-0.9395633,3.0866039
336,1778255261570,2.24273365,0.2388100175,0.585279775,-2.24790775,-0.80633864,2.9591715875
337,1778255261580,2.1784551714285714,0.2727165628571428,0.6851384142857143,-2.352104,-0.58429754,2.7467844
338,1778255261590,2.1198203749999998,0.306535925,0.7476083625000001,-2.0727384,-0.5121258725,2.383662375
339,1778255261600,1.9336655,0.43246945999999997,1.0355349,-1.2346416,-0.29561087,1.2942963
340,1778255261610,1.9336655,0.43246946,1.0355349,-1.2346416,-0.29561087,1.2942963
341,1778255261620,1.9336655,0.43246946,1.0355349,-1.2346416,-0.29561087,1.2942963
342,1778255261630,1.8483675499999999,0.45626505,1.03163,-1.067395025,-0.31398668500000004,1.1547466499999999
343,1778255261640,1.5700691,0.518719276,0.96095104,-0.591008722,-0.40128511600000005,0.81631214
344,1778255261650,1.4414021,0.5444917,0.916435,-0.28708878,-0.47404268,0.6263755
345,1778255261660,0.78991568,0.605994132,0.48064635200000005,0.8788432,-0.7621967,-0.14487597
346,1778255261670,0.7787867,0.60306543,0.47713193,0.89069425,-0.76366145,-0.161520725
347,1778255261680,0.76243484,0.60721445,0.50324607,0.9912286,-0.8005462,-0.294013
348,1778255261690,0.7226535,0.6135599,0.528628,1.1134677,-0.87191898,-0.38589205
349,1778255261700,0.7226535,0.6135599,0.528628,1.1590078,-0.8836369,-0.4079963
350,1778255261710,0.7226535,0.6135599,0.528628,1.1590078,-0.8836369,-0.4079962999999999
351,1778255261720,0.7226535,0.6135599,0.528628,1.1590078,-0.8836369,-0.4079963
352,1778255261730,0.71557585,0.6149022166666667,0.5314346666666666,1.1590078,-0.8836369,-0.4079963
353,1778255261740,0.67707585,0.63369465,0.5328379999999999,1.282045825,-0.8133294025,-0.446745275
354,1778255261750,0.882816075,0.6893396975,0.4215478875,1.1918978,-0.27430560000000004,-0.795752515
355,1778255261760,1.0389517166666666,0.7282668166666667,0.3926067633333334,0.8752922833333333,0.24589855000000002,-1.2081873833333334
356,1778255261770,1.30160614,0.749255748,0.515204852,0.60475064,0.60592242,-1.63933554
357,1778255261780,1.3789234,0.75145227,0.53863436,0.4990764,0.7819041,-1.8690065
358,1778255261790,1.3839789,0.7507549771428571,0.5435155314285713,0.37809278571428573,0.9538681714285715,-2.0436337142857144
359,1778255261800,1.3860011,0.75047606,0.545468,0.32969934,1.0226538,-2.1134846
360,1778255261810,1.3860011,0.75047606,0.545468,-0.10034791120000001,2.01313668,-2.1311680199999996
361,1778255261820,1.2185779,0.6948310000000001,0.77610207,-0.035153728,1.6788567,-2.218413
362,1778255261830,1.2185779,0.694831,0.77610207,-0.035153728,1.6788567,-2.218413
363,1778255261840,1.2185779,0.694831,0.77610207,-0.035153728,1.6788567,-2.218413
364,1778255261850,1.24449676,0.67784458,0.899839068,-0.0639158668,2.3036344200000003,-2.04679902
365,1778255261860,1.261776,0.6665203,0.9823304,0.12836437,3.1164312,-1.8205370000000003
366,1778255261870,1.3297866333333335,0.6663576,1.0795465333333334,0.12836437,3.1164311999999996,-1.820537
367,1778255261880,1.7062856333333334,0.65789699,1.2841478000000002,1.280803,3.0090170666666665,-2.177578133333333
368,1778255261890,1.6699617500000001,0.56169775,1.07775685,1.8650117499999999,2.30629755,-2.67514535
369,1778255261900,1.5746573333333334,0.49067709499999995,0.9580873933333334,2.1047849333333333,2.2395410000000004,-2.896631533333333
370,1778255261910,1.5846636,0.3226437,0.9342511,2.4476225333333335,2.4051897,-3.158864166666667
371,1778255261920,1.5846636,0.3226437,0.9342511,2.5587652,2.4197483,-3.2288165
372,1778255261930,1.5658713857142856,0.2572014871428571,0.8846378014285714,2.7677853142857143,2.2618608,-3.4180532
373,1778255261940,1.5282865,0.243996245,0.8042296625,2.9121667,1.9771307999999999,-3.61444235
374,1778255261950,1.48201322,0.254112414,0.757456076,2.9612220799999998,1.6998424799999998,-3.7370542
375,1778255261960,1.3786794,0.31288140000000003,0.6607849899999999,2.93240675,1.3038836999999999,-3.80911935
376,1778255261970,1.3448368000000002,0.38813238000000005,0.5851679266666666,2.6771871666666667,0.7439097,-3.807077566666667
377,1778255261980,1.3518330999999997,0.40318257,0.57329047,2.56782,0.5581986,-3.8008635
378,1778255261990,1.40191366,0.450920168,0.472201936,2.177081,0.46200519999999995,-3.7516483199999997
379,1778255262000,1.4178262,0.446331884,0.46195153599999994,1.89659686,0.48948903999999993,-3.71521628
380,1778255262010,1.4484798,0.41099238,0.4588276,1.5531555,0.6045376,-3.6730318
381,1778255262020,1.3803877500000001,0.331429735,0.527285665,0.88496845,1.1052118499999999,-3.5393410999999997
382,1778255262030,1.3162006750000002,0.2933568025,0.57292436,0.7946873,1.2074772,-3.4977958
383,1778255262040,1.1751007999999998,0.22359129285714285,0.6604189085714286,0.7194339742857142,1.4078991142857142,-3.316168285714286
384,1778255262050,1.0211354,0.13911264,0.7055695,0.9997507,1.506284,-2.996589
385,1778255262060,1.021074425,0.13282816375,0.6984918499999999,1.09695605,1.4516892000000001,-2.9670278000000003
386,1778255262070,1.0239829,0.10404974233333335,0.6370707666666667,1.3234135333333332,1.2866619333333336,-2.9321403333333333
387,1778255262080,1.0133256959999999,0.0940108556,0.57402262,1.4177604799999999,1.1891547,-2.92958372
388,1778255262090,0.99502134,0.08639627,0.5095915,1.536644,1.0199907,-2.9300098
389,1778255262100,0.80918924,0.018199698000000004,0.2680794514285714,1.5956139857142857,0.4998373071428571,-2.8643439857142856
390,1778255262110,0.7690244,0.005857374,0.23575929,1.5755261,0.38935417,-2.8314729
391,1778255262120,0.7690244,0.005857374,0.23575929,1.5240738200000001,0.352602544,-2.77586604
392,1778255262130,0.6167815,-0.0362180944,0.1548299152,1.41115586,0.340884634,-2.65059102
393,1778255262140,0.38658668,-0.109703725,0.0998194105,1.1566108750000001,0.46924900999999997,-2.27433965
394,1778255262150,0.34216826,-0.14843561200000002,0.123590587,0.96044246,0.6067746439999999,-1.80828642
395,1778255262160,0.366818034,-0.17411043799999998,0.130131328,0.893650364,0.682834508,-1.53824184
396,1778255262170,0.482013045,-0.21733297499999998,0.125445425,0.86073369,0.71665667,-1.3875069
397,1778255262180,0.53961056,-0.2328306,0.13032657,0.84564246,0.72287071,-1.3110741666666665
398,1778255262190,0.6957095799999999,-0.20212821399999997,0.118270142,0.8314389240000001,0.664298904,-1.2436962
399,1778255262200,0.695929225,-0.17145021,0.083833662,0.765392515,0.655403935,-1.14063195
400,1778255262210,0.65905217,-0.150436882,0.0687265204,0.675058076,0.746111204,-0.9634252400000001
401,1778255262220,0.4745082875,-0.1610167675,0.0918265375,0.5687180525000001,0.94848482,-0.552605945
402,1778255262230,0.40518383,-0.17215798200000001,0.102259984,0.55340487,0.9944243399999999,-0.47031426
403,1778255262240,0.33321949333333334,-0.168074095,0.1242658125,0.5191388733333334,1.4872866666666666,-0.07581131666666667
404,1778255262250,0.208424885,-0.166813125,0.12867918625000002,0.5982791399999999,1.907089625,0.4941495425
405,1778255262260,0.20085911,-0.17547716,0.13252309,0.6215818,1.9265307,0.57098174
406,1778255262270,0.22514281,-0.19671013999999998,0.09384001250000001,0.9388530833333334,1.5285657333333333,0.8630417466666667
407,1778255262280,0.20085911,-0.18133454,0.024405725,1.149953,1.2112057,0.97471696
408,1778255262290,0.20085911,-0.18133454,0.024405725,1.149953,1.2112057,0.97471696
409,1778255262300,0.09400271716666668,-0.20037099833333336,-0.17604662000000001,1.2210594,0.8244259266666667,1.08000059
410,1778255262310,0.041489733,-0.18706988,-0.260592135,1.340102675,0.11478225250000001,1.292698375
411,1778255262320,0.0011226632,-0.14804513079999998,-0.36647634399999995,1.212377414,-0.444960962,1.6435964600000001
412,1778255262330,-0.010982576,-0.10762925399999998,-0.5125202,0.88044107,-0.50120693,1.9989687
413,1778255262340,-0.005491287950000001,-0.07211891849999999,-0.57841568,0.716124035,-0.457797405,2.1196098500000002
414,1778255262350,0.0013829910666666664,0.012487596666666665,-0.6806756533333332,0.21136623000000002,-0.34177234500000003,2.4472675
415,1778255262360,-0.0036608585999999997,0.09811102,-0.74535084,-0.29880667,-0.26312032,2.747317
416,1778255262370,-0.00219651515,0.15400013,-0.7686582975,-0.5755091025,-0.27257454000000003,2.8935245249999997
417,1778255262380,0.020622837666666668,0.338304025,-0.835489285,-2.0282635333333334,-0.4937500666666667,3.600593866666667
418,1778255262390,0.40635533749999997,0.5518134125,-0.633877665,-3.2101743,-1.0077401,4.0591903
419,1778255262400,0.694037825,0.62948465,-0.45541079875,-3.465571475,-1.164733475,4.08129455
420,1778255262410,1.31998365,0.7422188166666667,-0.0617871525,-4.282363,-1.6564862500000002,4.121685833333333
421,1778255262420,1.73256235,0.823693225,0.29848203,-4.645618000000001,-1.7672737,3.8730351499999998
422,1778255262430,1.8626448,0.85493255,0.4368625,-4.755873,-1.7741979,3.7539918
423,1778255262440,2.0892927666666665,0.95052164,0.8227169999999999,-4.8970208,-1.5764138666666667,3.3790187666666665
424,1778255262450,2.17967525,1.0661641,1.29655415,-4.716991,-1.10095082,2.8149613
425,1778255262460,2.1789432,1.138039,1.5702643,-4.523113,-0.77391464,2.4501083
426,1778255262470,2.10128416,1.1540491400000001,1.59506054,-4.4530186,-0.722142784,2.38267704
427,1778255262480,1.89351815,1.2034462499999998,1.6868017499999999,-4.172641,-0.51505536,2.112952
428,1778255262490,1.8206263833333332,1.2117441999999998,1.6564572499999999,-4.041347166666666,-0.49321744,2.02613295
429,1778255262500,1.2751991,1.2895008799999998,1.5038318800000001,-2.28627052,-0.9724799000000001,0.99154812
430,1778255262510,1.2184558,1.2981405499999998,1.4367649500000002,-1.9052254499999999,-1.2223909499999999,0.78110515
431,1778255262520,1.16034574,1.2953095,1.3336752,-1.6053535,-1.41009056,0.598785152
432,1778255262530,1.1275444,1.2852055,1.2566508,-1.4263891,-1.5174692,0.47830373000000004
433,1778255262540,1.0550594,1.2605556,1.1263242,-1.4263891,-1.5174692,0.47830373
434,1778255262550,0.8773044833333333,1.2158119333333333,0.9302648333333333,-0.9765811866666666,-1.6460111333333334,0.077231671
435,1778255262560,0.7314396,1.1685461,0.77292925,-0.8388957400000001,-1.6218651999999998,-0.070307456
436,1778255262570,0.7314396,1.1685461,0.7729292500000001,-0.83889574,-1.6218652,-0.070307456
437,1778255262580,0.5387040857142857,1.0957473,0.5251763157142857,-0.9968592857142858,-1.2664472857142857,-0.2088679214285714
438,1778255262590,0.456143,1.0611609,0.41465324,-1.0540792,-1.1728562,-0.24021713
439,1778255262600,0.456143,1.0611609,0.41465324,-1.0540792,-1.1728562,-0.24021713
440,1778255262610,0.34534100000000006,1.0196712,0.25650415,-1.4013554,-0.8277104999999999,-0.42184472
441,1778255262620,0.26559529,0.9771442175,0.2368575475,-1.9254655,-0.44048685,-0.75314198
442,1778255262630,0.13764828,0.8878802699999999,0.23356278000000003,-2.0026972,-0.37710363,-0.8191883599999998
443,1778255262640,0.11836775860000001,0.8688438100000001,0.254063584,-2.1475731600000003,-0.1493500738,-1.033626124
444,1778255262650,0.03679162875,0.780556115,0.352906755,-2.168079425,0.019041601625,-1.1879030750000001
445,1778255262660,0.023429496000000005,0.74413055,0.40342662,-2.1097562,0.09374327,-1.2634037
446,1778255262670,0.023429496,0.74413055,0.40342662,-1.6062057199999997,0.196860872,-1.43608308
447,1778255262680,0.0046370877,0.69434285,0.4893348,-1.3289174,0.23382555,-1.5190672
448,1778255262690,0.0029286880000000005,0.6462636,0.579025835,-1.2179523499999998,0.18313671566666667,-1.5383307166666667
449,1778255262700,0.08956901,0.6799434999999999,0.52374685,-0.3387541,-0.39254996,-1.7220000000000002
450,1778255262710,0.117733216,0.69395238,0.52306348,-0.19920445520000002,-0.588558616,-1.78186788
451,1778255262720,0.25642280666666667,0.7655262166666666,0.5394478333333333,0.052197957999999996,-0.9633541666666666,-1.8874711
452,1778255262730,0.30848834,0.7966028499999999,0.5776835,0.13635385,-1.1249193,-1.9190739
453,1778255262740,0.352857956,0.8292577,0.6384537800000001,0.13635385,-1.1249193,-1.9190739
454,1778255262750,0.47727833999999997,0.897837794,0.806121134,0.420992508,-1.31283192,-1.9081017
455,1778255262760,0.7807391,1.03163,1.1924638,0.7057377,-1.2202604,-1.834918
456,1778255262770,1.01308162,1.17415944,1.37697096,0.93913714,-0.993146072,-1.83587676
457,1778255262780,1.1634209,1.2715383,1.4806952000000002,1.2108506333333333,-0.7015654166666666,-1.8535601666666668
458,1778255262790,1.4191928666666669,1.3966582666666667,1.5325981666666666,1.4677569000000001,-0.3893541733333333,-1.8736226
459,1778255262800,1.5073382000000002,1.4185420833333333,1.53341165,1.5524454333333333,-0.230452211,-1.9055805000000001
460,1778255262810,1.6698397,1.432372,1.5151074,1.6309198999999999,-0.041545313,-1.9627497000000003
461,1778255262820,1.8541842333333334,1.2990354,1.5063213666666666,1.7548457,0.15446333566666667,-2.1718967
462,1778255262830,1.8788224428571427,1.2368821714285716,1.5032531571428573,1.9794135428571429,0.23656481428571433,-2.4242375857142853
463,1778255262840,1.7851161,1.1236396,1.4626350666666668,2.3137543333333332,0.036751623733333336,-2.422056233333333
464,1778255262850,1.8023627,1.0899596,1.4089426,2.3877902,0.0037284256,-2.4138892
465,1778255262860,1.6654117571428573,0.9309389285714287,1.0763970685714286,2.5513084,-0.26365295,-2.4032366
466,1778255262870,1.5778301,0.8266219,0.86274236,2.6040389499999996,-0.6213154949999999,-2.5654231000000003
467,1778255262880,1.3667207,0.7150877,0.759018,2.6567695,-0.97897804,-2.7276096
468,1778255262890,1.3103026783333334,0.5226892550000001,0.7078067249999999,2.8850025,-1.37605535,-2.6727484500000003
469,1778255262900,0.9504402466666667,0.22737999333333334,0.5303364233333333,3.0917524999999997,-1.5606124666666668,-2.4937840666666666
470,1778255262910,0.8681116,0.15741692,0.41172456999999996,3.1755533,-1.5361114,-2.408563
471,1778255262920,0.560843565,0.024161668999999997,0.1140967735,3.0747527249999997,-1.445830125,-2.0321251499999997
472,1778255262930,0.38579348999999996,-0.0419168315,-0.032764687249999994,2.97142215,-1.414271675,-1.87659655
473,1778255262940,0.21135357,-0.10177187,-0.17718557,2.766492,-1.3651363999999997,-1.6085494
474,1778255262950,-0.1342315,-0.23551524,-0.50593066,1.9350528999999999,-1.2804478,-0.69135666
475,1778255262960,-0.1342315,-0.23551524,-0.50593066,1.9350529,-1.2804478,-0.69135666
476,1778255262970,-0.1663424542857143,-0.41820951142857143,-0.5431319428571428,0.7741429000000001,-1.3839307142857142,0.33898238
477,1778255262980,-0.14570218,-0.4600479,-0.5100796,0.5336975,-1.4189322,0.53742594
478,1778255262990,-0.11238836499999999,-0.5147777474999999,-0.46413585999999996,0.18535602,-1.4130733,0.8245147
479,1778255263000,-0.06401272942857143,-0.7003048714285713,-0.3177625242857142,-0.32117724,-1.2729911,1.3022858
480,1778255263010,-0.060038086,-0.7770783,-0.26797485,-0.32117724,-1.2729911,1.3022858
481,1778255263020,-0.092253644,-0.877568885,-0.14747158819,-0.57710702,-0.9122658349999999,1.900032275
482,1778255263030,-0.14692247,-0.9808661,0.00024405724,-0.46924898,-0.69295454,2.3078954
483,1778255263040,-0.238260895,-0.99343505,-0.00067115747,-0.32996566,-0.661529245,2.7052390500000003
484,1778255263050,-0.41948559999999996,-1.021330792,0.006540734720000001,-0.1539307158,-0.6502374399999999,3.2057003
485,1778255263060,-0.44545328,-0.9902866960000001,0.041977848,-0.006924219,-0.7307714,3.6181706999999994
486,1778255263070,-0.4510178,-1.0025872,0.0353883,0.04527373825,-0.752476175,3.7163082
487,1778255263080,-0.22258020999999997,-0.9191196,-0.0959145,0.20186761,-0.8175905,4.0107207
488,1778255263090,-0.0914604575,-0.9092352875,-0.12178457,0.48948902,-1.144094,4.778776
489,1778255263100,0.3018988,-0.8795823500000001,-0.19939478,0.65460503,-1.347027,5.2118063
490,1778255263110,0.5873644333333333,-0.7708141333333334,-0.2931941066666667,0.6462604533333334,-1.3488024,5.256725
491,1778255263120,1.23090275,-0.5439425800000001,-0.49928012,0.28762139999999997,-1.4038854,5.136838325
492,1778255263130,1.3891739,-0.48957883999999996,-0.5503491,0.1736381,-1.4210628,5.0669303
493,1778255263140,1.7618493,-0.18694785800000002,-0.688729555,-0.41296752666666664,-1.6927052,4.7386515
494,1778255263150,1.9375705666666665,-0.021802445333333326,-0.7730106333333334,-0.9635316999999999,-1.9267083333333332,4.5238231
495,1778255263160,2.0517893,0.099575356,-0.84931916,-1.6349678600000002,-2.0968667,4.38036724
496,1778255263170,2.895251,0.14765464,-0.644921265,-2.9803436,-2.19178165,4.329501
497,1778255263180,3.0604777,0.12495731,-0.5332651,-3.2549155,-2.0975058,4.295679
498,1778255263190,3.4626841999999995,0.12446920000000002,-0.22306832999999998,-3.5739623000000003,-1.5454856600000002,4.0600423
499,1778255263200,3.6866312800000003,0.314492164,0.37653152,-3.74355236,-0.459342016,3.5750273999999997
500,1778255263210,3.45255575,0.53228885,0.6058721,-3.46051155,0.8833705550000001,3.0088394000000003
501,1778255263220,3.24630286,0.66407976,0.653146,-3.10481978,1.81286704,2.5916818
502,1778255263230,3.1088011,0.7482795,0.6491923,-2.9364014,2.112952,2.4101608
503,1778255263240,2.93820512,0.8011910999999999,0.586860076,-2.8526716399999996,2.23439212,2.2625151199999998
504,1778255263250,2.2558212,1.0128375,0.33753118,-2.5577,2.5118935,1.2191951
505,1778255263260,1.7854008000000001,1.00935975,0.29341783,-2.53493,2.225870125,0.8113320275
506,1778255263270,1.5742913,1.005393825,0.2862791525,-2.51282575,2.04623995,0.6402239375000001
507,1778255263280,1.4113832000000002,0.9969738,0.30897647,-2.469283,1.7933728,0.53476274
508,1778255263290,1.206558075,1.0138748,0.3724923625,-2.3043002,1.24516105,0.42237735
509,1778255263300,1.0772687,1.027481,0.4131889,-2.0021646,0.4165184,0.2727077
510,1778255263310,1.0772687,1.027481,0.4131889,-1.9497890833333333,0.310435815,0.2352459
511,1778255263320,0.9378306866666666,1.0152782,0.36608587,-1.6879115,-0.21997711,0.0479369
512,1778255263330,0.89983912,1.01288646,0.35647002399999994,-1.6879114999999998,-0.21997711,0.0479369
513,1778255263340,0.7820408133333334,1.0129190000000001,0.3584387566666667,-1.4393498333333332,-0.49303990000000003,-0.2645406633333333
514,1778255263350,0.67530644,1.014546,0.38658667,-1.4162691,-0.49375007,-0.29880667
515,1778255263360,0.67530644,1.014546,0.38658667,-1.3665567666666665,-0.43445035666666665,-0.37053449
516,1778255263370,0.42402507199999995,1.02889652,0.39571443,-1.20918162,-0.05997438799999999,-0.5124987360000001
517,1778255263380,0.27236789,1.0353721666666666,0.4104229533333334,-1.0801781,0.44208476,-0.67005134
518,1778255263390,0.12753733857142857,0.9722195000000001,0.48047901428571427,-0.8963439285714285,0.8042746685714286,-0.7458373171428571
519,1778255263400,0.10055158,0.9408407,0.5195979,-0.7584683,1.0759171,-0.8026768
520,1778255263410,0.095963304,0.9088203800000001,0.5368283399999999,-0.639158678,1.14675718,-0.8345281999999999
521,1778255263420,0.060648225,0.74022563,0.61172948,0.029827405,1.4812502499999998,-1.0170611999999999
522,1778255263430,0.032398601625,0.6532192450000001,0.607824545,0.529969075,1.5827167000000002,-1.14409395
523,1778255263440,-0.0014643435,0.5137405,0.5781716,0.6327671,1.5994946,-1.1680624
524,1778255263450,0.06687169,0.42612398,0.55108124,1.4732608,1.5984293,-1.3182647
525,1778255263460,0.18792408333333332,0.39651167333333337,0.5126829133333334,1.4732608,1.5984293,-1.3182647
526,1778255263470,0.47679024000000003,0.4727876999999999,0.43778987799999997,2.3091738,1.181058674,-1.7699369400000002
527,1778255263480,0.5513253,0.5749989,0.4080636999999999,2.7148266,0.77924097,-2.1214743
528,1778255263490,0.5346684375,0.686838075,0.38316988,2.767956525,0.5119927275,-2.1658158750000003
529,1778255263500,0.5695889333333333,0.8519225,0.4083891433333333,2.7006228833333332,-0.012605636666666661,-2.0298615
530,1778255263510,0.950847025,1.1233345000000001,0.6566360475,2.41495455,-0.9781790799999999,-1.5038871
531,1778255263520,1.7071804,1.4021089,1.0787331,2.3339944,-1.2154667,-1.3369069
532,1778255263530,1.7071803999999997,1.4021089,1.0787331,2.2920941333333333,-1.4260340333333332,-1.2225685000000002
533,1778255263540,2.8347249999999997,1.450066075,1.4742888,2.6098979,-1.5030881,-1.7108147
534,1778255263550,3.66217672,1.30653604,1.7043494199999998,2.68766222,-1.44311372,-1.87103046
535,1778255263560,4.089097683333333,1.0392770999999998,1.7179189333333333,2.9987195,-1.2032162,-2.5118935
536,1778255263570,3.77800605,0.642846785,1.39039415,3.74893195,-0.623179705,-3.927496875
537,1778255263580,2.9983245333333333,0.1879240766666667,0.7744750333333332,4.3144987,-0.14753913,-5.0521943333333335
538,1778255263590,2.2055452,0.088836834,0.20988922,4.125769,-0.08628642,-5.1793156
539,1778255263600,1.8773494,0.073461231,-0.069800375,3.776229325,-0.1026648645,-5.085838900000001
540,1778255263610,1.4916779,-0.0019524579,-0.41733786,2.8698225,-0.056459017,-4.836301
541,1778255263620,0.7654123,-0.241177376,-0.64353017,0.800120136,0.6956176879999999,-4.0688841
542,1778255263630,0.644799215,-0.2683409475,-0.622040925,0.64395237,0.78776306,-4.0139165
543,1778255263640,0.3662485833333333,-0.3489205066666667,-0.5220384333333333,-0.154285805,1.5096573333333332,-3.6116903666666667
544,1778255263650,-0.08184054333333333,-0.48331470000000004,-0.22819352,-0.8140396000000001,2.353169166666667,-2.977059133333333
545,1778255263660,-0.27544301400000004,-0.5456632000000001,-0.131449233,-1.22910214,2.9719813200000003,-2.24248832
546,1778255263670,-0.4687526,-0.61811565,-0.11364932333333333,-1.3647813333333332,3.151584966666667,-1.6350033999999998
547,1778255263680,-0.5691415,-0.65212095,-0.11202228,-1.4290522,3.1792817,-1.262871
548,1778255263690,-0.65675807,-0.6801876,-0.088836834,-1.5030881,3.067429,-0.71532506
549,1778255263700,-0.7472219566666666,-0.7011764833333333,-0.005287907999999998,-1.4606551666666665,2.6478924333333334,-0.00514877666666667
550,1778255263710,-0.7661567275000001,-0.7415679375,0.0718138445,-1.09429292,1.7100158,0.883903165
551,1778255263720,-0.6902345666666667,-0.8430551166666667,0.16258281,-0.7123068266666667,0.8941120000000001,1.4968740666666667
552,1778255263730,-0.5879339,-0.8983747,0.16522676,-0.4857606,0.4527374,1.7656758
553,1778255263740,-0.3197760075,-0.946637025,0.1069580875,-0.2352902925,-0.022237397499999992,2.00975445
554,1778255263750,-0.12568948,-0.97598493,0.06345488,0.45806372,-1.2016183,2.535862
555,1778255263760,-0.12568948,-0.97598493,0.06345488,0.569517015,-1.369930075,2.558232575
556,1778255263770,0.2859740825,-0.9271124775,-0.0387440875,0.943824325,-1.922669125,2.5997779750000003
557,1778255263780,0.39634898,-0.88885653,-0.07004443,1.0636666,-2.0660803,2.523079
558,1778255263790,0.432835525,-0.758407885,-0.13886857,1.2010857,-2.1614215,2.3702135
559,1778255263800,0.4144092,-0.70166457,-0.18475133,1.2010857,-2.1614215,2.3702135
560,1778255263810,0.4298196714285714,-0.6986661671428571,-0.24492887857142856,1.3593534999999999,-2.074754742857143,2.0693523285714286
561,1778255263820,0.3702348475,-0.660418915,-0.4727999,1.004278075,-1.86154965,2.025067775
562,1778255263830,0.33753118,-0.6501685,-0.49860895000000005,0.9219864,-1.8477012,2.0485036
563,1778255263840,0.33753118,-0.6501685,-0.49860895,0.9219864000000001,-1.8477012000000002,2.0485036
564,1778255263850,0.179565115,-0.5557183375,-0.481585975,0.6336992,-2.121340975,2.781938175
565,1778255263860,0.31263736,-0.40171823,-0.39659303,0.21411815,-2.5731463,3.9792955
566,1778255263870,0.39913124,-0.374188572,-0.399033604,0.086286418,-2.6835077,4.3242281
567,1778255263880,0.96557184,-0.19280522333333336,-0.39659303999999995,-0.22707887333333332,-2.9110126333333333,5.088235766666666
568,1778255263890,3.1395526,0.4046469,-0.40000984,-1.2937636,-2.7222834,6.288256
569,1778255263900,4.152146,0.6545615433333333,-0.34940861333333334,-2.5186401333333333,-0.8712087666666667,5.414384233333333
570,1778255263910,4.6114616,0.82296103,-0.21013328,-3.472762,0.9038769,4.4453487
571,1778255263920,4.148729066666667,0.9406779533333333,-0.09819236000000002,-3.689898433333333,1.3189749333333334,4.2308754
572,1778255263930,3.0840903749999997,1.149509575,0.184751335,-4.3390884750000005,2.5089641,3.683551275
573,1778255263940,2.6665695,1.0697029,0.3619369,-4.98384,3.5883434,3.3284187
574,1778255263950,2.2190904166666665,0.9288004916666667,0.7980671916666667,-4.9836625,3.4630859,3.0103484999999996
575,1778255263960,1.64647125,1.078183975,1.7689268999999999,-3.3787524,1.12558505,2.393383
576,1778255263970,1.55318035,1.1455438,1.98638195,-2.9337382,0.5320996,2.269546
577,1778255263980,1.5195004,1.214917,2.066921,-1.7566211,-0.5422196,2.0266657
578,1778255263990,1.51510735,1.2544543,2.01347245,-1.2029499000000001,-0.85194525,1.88977915
579,1778255264000,1.45126198,1.37199224,1.7589694000000002,0.07563377200000002,-1.32103444,1.52087802
580,1778255264010,1.27998262,1.60189418,1.18846114,1.0047574000000001,-1.27480203,1.114905772
581,1778255264020,1.23017055,1.6811273500000001,0.9829405375,1.4249243,-0.6636597625,0.617720215
582,1778255264030,1.2180897,1.7179188999999997,0.84785485,1.4812502,-0.2977414,0.36485308
583,1778255264040,1.2180897,1.7179189,0.84785485,1.474192825,-0.1608549225,0.26884612
584,1778255264050,1.1918128666666667,1.7440330333333334,0.7782985566666666,1.4354438333333333,0.41030435666666665,-0.15393071666666666
585,1778255264060,0.9059405,1.7235322,0.6987359,1.5451661,1.4562165,-1.0961571
586,1778255264070,0.9059405000000001,1.7235322,0.6987359,1.6218651500000003,1.5952335,-1.21919515
587,1778255264080,0.8855617,1.6257874,0.704715325,1.6985642,1.7342505,-1.3422332
588,1778255264090,1.1160738,1.445551,0.6164886,2.801113,2.1315942,-2.4985778
589,1778255264100,1.1160738,1.445551,0.6164886,2.801113,2.1315942,-2.4985778
590,1778255264110,1.1160738,1.445551,0.6164886,2.801113,2.1315942,-2.4985778
591,1778255264120,1.1160738,1.445551,0.6164886,2.963698975,2.13199365,-2.871287225
592,1778255264130,1.4013767,1.3306,0.42563587,3.0178943,2.1321268,-2.9955237
593,1778255264140,1.60326078,1.2087667199999999,0.402987334,3.05113052,1.82405236,-3.4566766799999997
594,1778255264150,1.8567874,0.9376678999999999,0.5657247,3.073288,1.6186694,-3.764112
595,1778255264160,1.8567874,0.9376679,0.5657247,3.1143007,1.2624715825,-4.081827175
596,1778255264170,1.799027266666667,0.8439906333333335,0.6687982033333334,3.2056471,-0.2584153983333333,-5.229205683333333
597,1778255264180,1.7625813,0.82759815,0.71020657,3.1089742,-0.6514092,-5.320463
598,1778255264190,1.7625813,0.82759815,0.71020657,2.959171375,-0.8347678725000001,-5.2841109500000005
599,1778255264200,2.2531364,0.8725046500000001,0.9215601699999999,2.4804683,-0.6737798,-5.331116
600,1778255264210,2.3137847,0.650046475,0.9125300350000001,2.3880566500000002,-0.46552058500000004,-5.5036887
601,1778255264220,2.374433,0.4275883,0.9034999,2.295645,-0.25726137,-5.6762614
602,1778255264230,2.2201886,0.11299851000000001,0.80123997,2.221609,-0.22264028,-5.721535
603,1778255264240,2.0695240666666668,-0.07866778333333334,0.7041051899999999,1.9212044,-0.25974698333333335,-5.426989666666667
604,1778255264250,1.72709556,-0.445550912,0.48435603,2.0863204,-0.257794,-5.601693
605,1778255264260,1.1499978,-0.81149036,0.3436326,1.0594054,-0.2231729,-4.5023403
606,1778255264270,1.1499978,-0.81149036,0.3436326,0.8016114333333334,-0.017754400000000004,-4.271000366666667
607,1778255264280,1.0087699333333333,-0.9125300866666667,0.3504662,0.5168308,0.14913702866666667,-4.027054633333333
608,1778255264290,0.31581008,-1.2122324,0.6299118,0.103863284,0.8815063,-3.3912694
609,1778255264300,-0.26480211000000003,-1.4583885200000002,0.821740726,0.300085006,1.5907594399999998,-1.99960794
610,1778255264310,-0.57524294,-1.6163912,0.8934935300000001,0.48629323,1.6772588,-1.4801849
611,1778255264320,-0.6940988299999999,-1.6670941,0.8785450225,1.0012154575,1.83904595,-0.3592604225
612,1778255264330,-1.0506665,-1.8192028,0.8336995,1.1728562,1.892975,0.01438107
613,1778255264340,-1.115550742857143,-1.817215357142857,0.6086090428571429,2.199542957142857,2.086092171428571,2.430248657142857
614,1778255264350,-1.1116807,-1.8228635,0.5320448,2.492585775,2.3339945249999996,3.610980225
615,1778255264360,-1.0711672,-1.85886195,0.42514773,2.5422537,2.394182,3.8647795
616,1778255264370,-0.416703344,-1.9962418399999997,-0.12949676999999998,2.5028388599999998,2.5808161800000002,6.09373864
617,1778255264380,-0.10299215249999999,-2.00444215,-0.25918879,2.34038605,2.30017235,6.613694199999999
618,1778255264390,0.17581883599999998,-1.9748136200000002,-0.35246747,2.06320424,1.69664678,7.0039006200000005
619,1778255264400,0.975350328,-1.5679213,-0.5180359339999999,1.7993382400000002,1.0180732559999999,7.0475762799999995
620,1778255264410,1.27973856,-1.34988056,-0.57143566,1.3871873799999999,-0.17992315600000003,6.620725
621,1778255264420,1.49270294,-1.11309626,-0.6386490200000001,0.97343866,-1.13397398,6.0755228
622,1778255264430,1.6235664,-0.901449824,-0.6932202180000001,0.66238146,-1.47571086,5.689684000000001
623,1778255264440,1.7075871333333332,-0.7678854266666667,-0.7072779200000001,0.24359047666666667,-1.6412175,5.272881466666667
624,1778255264450,1.8827969428571427,-0.5748942571428571,-0.7443746371428571,-0.39414787285714287,-1.4084318428571427,4.848551028571428
625,1778255264460,2.028848,-0.4334457,-0.7292431,-1.943575,-0.08149273,4.3686495
626,1778255264470,2.0453218250000003,-0.4053791075,-0.699407085,-2.1082915,0.049002165,4.350406875
627,1778255264480,2.102959866666667,-0.27179841666666665,-0.5640976266666666,-2.798094633333333,0.5960154533333334,4.283783533333334
628,1778255264490,2.13842965,-0.04417436215,-0.3538830125,-3.65558825,1.1024155150000001,4.326305425
629,1778255264500,2.3773129400000004,0.19851616552,-0.1077268742,-4.1190580599999995,1.0435330280000001,4.42127366
630,1778255264510,2.732139566666667,0.4249036533333334,0.1616472476666667,-4.7402492,0.6476808033333333,4.5408672
631,1778255264520,3.11301115,0.509225445,0.3927491175,-4.936036,0.4269047425,4.41898325
632,1778255264530,3.30072776,0.539659386,0.49992685200000003,-4.974785,0.3882889,4.376639
633,1778255264540,3.9204380800000003,0.747400906,1.19851634,-4.70474036,1.1112838960000002,3.2720661200000003
634,1778255264550,3.9554969,0.81210049,1.372822025,-4.5059354,1.431582275,2.91642765
635,1778255264560,3.6782913142857145,0.9928945885714286,1.6289774714285714,-3.9945896142857142,2.011371414285714,2.2334791714285713
636,1778255264570,3.1751847000000004,1.1504859,1.7140139,-2.938532,2.422944,1.1520835
637,1778255264580,3.1751847,1.1504859,1.7140139,-2.938532,2.422944,1.1520835
638,1778255264590,2.2827488000000002,1.3733101,1.4879357666666666,-1.8299468333333333,1.8292365000000002,0.40799627
639,1778255264600,2.0647242,1.4235859,1.3945432,-0.9443569,1.0072075,-0.10652645
640,1778255264610,2.0647242,1.4235859,1.3945432,-0.9443569,1.0072075,-0.10652645
641,1778255264620,1.3678189000000003,1.5404893499999999,1.065553915,0.10599381349999999,-0.30999194999999996,-0.650876575
642,1778255264630,1.3037539,1.5280423999999997,0.9840388299999999,0.24820662000000002,-0.5422196,-0.71798825
643,1778255264640,1.34636626,1.50007352,0.924147142,0.24820662,-0.5422196,-0.71798825
644,1778255264650,1.07565782,1.52452796,0.725972668,0.77817572,-0.87905624,-1.3387178800000001
645,1778255264660,1.036999225,1.4686754249999998,0.6676185800000001,0.8527442,-0.8266452,-1.4610102
646,1778255264670,1.000927608,1.41304264,0.6461171699999999,1.02371914,-0.3968110228,-1.8441858
647,1778255264680,0.9737884400000001,1.364036,0.59964865,1.1435614,-0.010120012,-2.1161478
648,1778255264690,0.9889809500000001,1.279104075,0.6014180474999999,1.366201725,0.5105280050000001,-2.531600975
649,1778255264700,0.9421016233333334,1.2464818333333334,0.5315566933333333,1.5275892500000001,0.8819502333333333,-2.8847361166666663
650,1778255264710,0.88983274,1.189535,0.46322066,1.655421,1.1132014,-3.1643682
651,1778255264720,0.785986395,1.15182815,0.42221904,1.73238635,1.2405004499999999,-3.26104085
652,1778255264730,0.44394013,0.9606094,0.27871338,1.9973708,1.5648734999999998,-3.4157705
653,1778255264740,0.48237913,0.947003075,0.18786306,2.3526366,1.7576864,-3.4083135
654,1778255264750,0.54864067,0.9530435,0.17376876,2.54758,1.7837853,-3.5388086
655,1778255264760,0.6535853000000001,0.9510911,0.13667206,2.6935213,1.5659387,-3.6970003
656,1778255264770,0.9316478333333333,0.9271734733333332,0.24828757333333332,2.9104800999999996,0.8596684133333333,-4.192703433333333
657,1778255264780,1.0706791,0.9152146599999998,0.30409533,3.0189595,0.50653327,-4.440555
658,1778255264790,1.2609462,0.8461464599999999,0.399716964,3.0696661,0.11004181360000001,-4.8337442
659,1778255264800,1.3762998499999999,0.8201543625000001,0.45181099,3.0675621499999997,-0.0229031855,-5.0510845
660,1778255264810,1.4989996,0.8629457416666666,0.49437865,3.0407975,-0.061252706,-5.158543
661,1778255264820,1.6869236,0.9835507,0.5342413,2.91962365,-0.0575242805,-5.227519
662,1778255264830,1.9168256000000001,1.00588195,0.5201469774999999,2.595517,0.18109496,-5.4887753
663,1778255264840,2.1333857999999997,1.0263421,0.5255365966666666,2.4396331333333334,0.34017443999999997,-5.6134111
664,1778255264850,2.2332864999999997,1.0632761000000002,0.41343297333333334,1.7278589,0.91133374,-5.6927733
665,1778255264860,2.256126225,0.986540425,0.42203599,1.7278589,0.91133374,-5.6927733
666,1778255264870,2.277705166666667,0.6759165500000001,0.666154265,1.1648667,0.82877576,-5.583583999999999
667,1778255264880,2.267536,0.5020258,0.87909424,1.2703278,0.6673882,-5.576659
668,1778255264890,2.1943187500000003,0.38469526,0.94041361,1.6258599,0.742888825,-5.565074500000001
669,1778255264900,1.8914087142857146,0.06687168314285714,0.7781242857142857,2.3188524857142854,1.09151566,-5.290559828571429
670,1778255264910,1.276907485,-0.14021088199999998,0.3000683845,2.4232104,1.37179435,-4.7707868
671,1778255264920,0.8911140425,-0.25394156,0.0021355004999999982,2.2724754249999997,1.4199975500000002,-4.337623649999999
672,1778255264930,0.70020026,-0.31434575,-0.079318605,2.0431771,1.3081448,-4.0815606
673,1778255264940,0.2924619366666667,-0.49551758333333334,-0.135858535,1.688089,1.1281150566666667,-3.5201663
674,1778255264950,-0.19963882999999996,-0.7394935,-0.19280522,1.6788567166666668,1.1343290616666666,-3.5455551166666663
675,1778255264960,-0.41284725800000005,-0.82549926,-0.17191392,1.0603642199999999,0.6146575820000001,-2.2854183200000002
676,1778255264970,-0.78403395,-1.01649845,-0.111534158,0.644218685,0.001597895000000002,-1.1656656
677,1778255264980,-0.835408,-1.078489,-0.082491346,0.52464277,-0.19281286,-0.7882957
678,1778255264990,-0.8524919799999999,-1.2847662,0.10387076880000001,0.19643477199999998,-0.556068054,0.78509989
679,1778255265000,-0.8261338,-1.3576905,0.2421048,0.09960223,-0.54648066,1.6863136
680,1778255265010,-0.8261338,-1.3576904999999997,0.2421048,0.16067738666666667,-0.3348481233333333,2.1303514
681,1778255265020,-0.30336314,-1.5199885,0.30629185,0.2828277,0.08841695,3.0184270000000004
682,1778255265030,-0.30336314,-1.5199885,0.30629185,0.2828277,0.08841695,3.0184270000000004
683,1778255265040,-0.17429173142857143,-1.5160139285714285,0.24960084142857145,0.4599659742857143,0.5915261385714287,3.7950045999999995
684,1778255265050,0.0347781585,-1.42993145,0.09945332999999999,0.61385865,0.95194696,4.672782675
685,1778255265060,0.055400997,-1.410895,0.0656514,0.6306366,0.99708754,4.9060755
686,1778255265070,0.09835507,-1.3764828,-0.0046370877,0.6135923533333334,1.0063198466666667,5.1074105
687,1778255265080,0.21379416,-1.3323085,-0.11617125,0.5543370125,0.9717875,5.4190005
688,1778255265090,0.249963432,-1.31400418,-0.131546856,0.350791588,0.730345328,5.8608720000000005
689,1778255265100,0.3432258383333333,-1.2786158833333334,-0.170473985,0.19964832166666666,0.5328097866666667,6.087986099999999
690,1778255265110,0.38469523,-1.266291,-0.18633771,0.13262543,0.42184472,6.1598916
691,1778255265120,0.582222962,-1.19959016,-0.259579302,0.039308262,-0.008522127999999985,6.229346959999999
692,1778255265130,0.98403883,-1.0140579,-0.38536638,-0.03089267,-0.15499598,6.2823973
693,1778255265140,1.1563432,-0.88958865,-0.42099872,-0.093610115,-1.102948145,6.410628325
694,1778255265150,1.3733507833333334,-0.7909488250000001,-0.45740395333333334,-0.055748835999999996,-2.4021712833333333,6.6871087666666655
695,1778255265160,2.7395427,0.053936653,-0.6711573999999999,0.091080114,-3.5750274999999996,7.024886599999999
696,1778255265170,2.9801831400000003,0.12734907980000001,-0.7384196000000001,-0.0390952036,-3.6593964999999997,7.27948476
697,1778255265180,3.3411437999999998,0.23746772000000002,-0.8393129,-0.23435818,-3.78595,7.661382
698,1778255265190,3.9363992,0.37169918,-1.2036903,-0.68389976,-3.3811493,7.8488684
699,1778255265200,4.50749312,0.510128476,-1.75545494,-2.2794528720000002,-1.722852232,7.5554947
700,1778255265210,4.811100633333333,0.6823840733333334,-1.9146291333333334,-3.7580753666666666,-0.5921982841666666,6.871577216666666
701,1778255265220,4.6226883,0.93229866,-1.0477377,-5.074120925,0.33848777375,5.194495825
702,1778255265230,4.6226883,0.93229866,-1.0477377,-5.2166,0.4612595,4.9060755
703,1778255265240,3.996112,1.0820684666666667,0.4328761966666667,-4.771586,0.49827745999999995,3.4205642
704,1778255265250,3.31490755,1.3676358,1.2232148999999999,-3.8112500000000002,0.139549645,2.50656725
705,1778255265260,3.04080688,1.4592671200000003,1.36447524,-3.2123049999999997,-0.10546118,2.0596888
706,1778255265270,2.50134275,1.52535785,1.05786615,-0.04713793500000002,-1.3126721499999998,0.271642443
707,1778255265280,2.0259192,1.5777081,0.68360437,0.7645936,-1.45168915,-0.264984537
708,1778255265290,1.6458244400000002,1.5986726399999998,0.39185834399999997,1.0157297,-1.4141386,-0.4862932300000001
709,1778255265300,1.003368158,1.5781718,-0.054083086,1.2591426000000001,-0.5807821599999999,-0.639052154
710,1778255265310,0.891175015,1.58393155,-0.17071804000000002,1.144094,-0.222906583,-0.6255765600000001
711,1778255265320,0.81881205,1.5817351000000002,-0.26834093499999995,0.95128112,0.130228587,-0.63915867
712,1778255265330,0.78776797,1.55937948,-0.319031632,0.7953264320000001,0.340778112,-0.676442936
713,1778255265340,0.7523675125,1.48313595,-0.33411439,0.497079015,0.5897570375,-0.83077315
714,1778255265350,0.6735979933333334,1.3648494666666668,-0.25691094,0.10679276500000001,0.7717841,-1.1773835499999998
715,1778255265360,0.67091334,1.343047,-0.24137263,0.03089267,0.78083885,-1.2911005
716,1778255265370,0.70020022,1.2996048,-0.22904774,-0.024234765,0.769120925,-1.4492923
717,1778255265380,0.7285109,1.1475571,-0.174745,-0.1760729957142857,0.8307541128571428,-2.1487906857142858
718,1778255265390,0.59639456,0.9267667666666667,-0.08411840133333333,-0.2379090566666667,1.39478625,-2.8921930000000002
719,1778255265400,0.56718904,0.86298645,-0.059549972,-0.24394555,1.6149409,-3.103648
720,1778255265410,0.5227706,0.7600988914285713,-0.066488166,-0.17850788999999997,2.1779331857142856,-3.4066395999999997
721,1778255265420,0.50074447,0.7058746250000001,-0.1258725225,-0.12623383999999999,2.57101585,-3.5742287
722,1778255265430,0.49177536,0.6984919,-0.1381364,-0.10226538999999998,2.744654,-3.636813
723,1778255265440,0.49832421333333327,0.656351275,-0.16652839166666666,0.010120013333333336,2.997299,-3.663621966666667
724,1778255265450,0.8107581766666666,0.6397553833333334,-0.19231711333333334,0.19831673666666663,2.8584595999999998,-3.6689484333333335
725,1778255265460,0.9075268833333334,0.6629408333333334,-0.202811575,0.23062976,2.7734159999999997,-3.683152
726,1778255265470,1.23902986,0.8110510599999999,-0.09498707799999999,0.451991704,0.9451025999999999,-3.98973476
727,1778255265480,1.5102262,0.9374239,0.06858008,0.537559065,0.4487426375,-4.0610542249999995
728,1778255265490,1.7601816499999998,1.0756010666666667,0.3930542166666666,0.7542072166666666,-0.2245044833333333,-4.1367769333333335
729,1778255265500,2.09723282,1.19602692,0.70840058,1.2202604400000001,-0.8551942800000001,-4.1965027599999996
730,1778255265510,2.3801074,1.237919325,0.839556925,1.60055985,-1.101350225,-4.259992575
731,1778255265520,2.8408263333333337,1.11810765,0.7579604666666667,2.2120216,-1.1174623866666666,-4.587561433333334
732,1778255265530,3.218627,0.86347455,0.5098356,2.8388232,-0.9928264559999999,-5.2299158199999995
733,1778255265540,3.1069708,0.587201725,0.28097091750000003,2.9944584,-1.0199907,-5.503156
734,1778255265550,2.6429772666666667,0.2739949366666667,0.07769155800000001,3.215234366666667,-1.4914590833333332,-5.984300766666667
735,1778255265560,2.1223218,0.12495731,0.046614934,3.5739622,-3.0146985,-6.4192834
736,1778255265570,1.9759850799999998,0.071655208,-0.0014643468000000049,3.5634161,-3.2453282000000003,-6.3601613200000005
737,1778255265580,1.3906382,-0.1415532,-0.19378147,3.5212317,-4.167847,-6.123673
738,1778255265590,0.9842828749999999,-0.21355009,-0.47371512,3.3497241,-4.23788825,-5.93272425
739,1778255265600,0.8072437539999999,-0.239468972,-0.5827598999999999,2.45681944,-4.05184,-5.1348942
740,1778255265610,0.418802245,-0.4239681066666667,-0.6534226,0.4840739416666667,-2.407764,-3.6198573333333335
741,1778255265620,0.32093528666666665,-0.4789216733333333,-0.5986724266666666,-0.053440766666666674,-1.8253306666666667,-3.1936628666666667
742,1778255265630,0.14549879200000002,-0.55303375,-0.462976605,-0.6788397666666667,-1.0143980799999999,-2.654816633333333
743,1778255265640,-0.1374652395,-0.6889736,-0.069495299875,-1.496962875,0.45526743,-1.602424075
744,1778255265650,-0.2156245775,-0.7303413,0.075474707625,-1.5978967,0.6801714,-1.4359765
745,1778255265660,-0.3701651285714286,-0.8313635714285714,0.43557245714285714,-1.6749000428571428,1.4938812285714285,-0.5186316085714285
746,1778255265670,-0.49421595,-0.9601212,0.84016705,-0.9412943249999999,2.351038625,1.137303
747,1778255265680,-0.5037342,-0.9928249000000001,0.899595,-0.8293084000000001,2.3888555,1.2767195
748,1778255265690,-0.4379200833333334,-1.0550594666666668,0.8921919333333334,-0.21012341666666667,2.3952471833333333,1.8091741666666667
749,1778255265700,-0.27956758,-1.175928825,0.8158223375,0.51345745,2.29431335,2.28685655
750,1778255265710,-0.17206037,-1.2317569599999998,0.678576748,1.33690688,2.0108998,2.6091522599999997
751,1778255265720,-0.11416998199999999,-1.25992116,0.526577898,1.9061841999999998,1.7718544,2.7849209000000004
752,1778255265730,-0.07870846000000001,-1.27666345,0.39342028,2.09950305,1.684715725,2.8395956250000003
753,1778255265740,-0.060282140000000005,-1.2845953,0.16900965450000002,2.3558323,1.6093483,2.9995184
754,1778255265750,-0.04412555,-1.2772491,-0.10518866820000002,2.3232353199999998,1.68034818,3.24341068
755,1778255265760,-0.051577432,-1.2571388,-0.18523944333333334,2.2205438666666666,1.7388667,3.3358756666666665
756,1778255265770,-0.08270054571428571,-1.2000294571428571,-0.31354383,1.9388574714285713,1.8706043857142858,3.5356888285714283
757,1778255265780,-0.10640897,-1.1475571,-0.38780698,1.7635453,1.9387813,3.6501286
758,1778255265790,-0.045394653,-1.0731807,-0.493727825,1.482315475,2.003496175,3.771968275
759,1778255265800,0.10339892333333334,-0.8829177766666666,-0.7549504066666666,0.4119022433333333,2.124847433333333,3.99633975
760,1778255265810,0.2169669,-0.71948075,-1.001611,-0.6625945,1.9249328,4.2008705
761,1778255265820,0.2169669,-0.7194807500000001,-1.001611,-0.6625945,1.9249327999999999,4.2008705
762,1778255265830,0.12837411,-0.58256465,-1.0657979,-1.2836437,1.7672738,4.6147256
763,1778255265840,0.07931860500000001,-0.4807927925,-1.031385875,-1.7078852500000001,1.61787035,5.25268565
764,1778255265850,0.33112467749999996,-0.43167627,-0.97189695,-2.060088325,1.476057,6.044310325
765,1778255265860,2.5554014499999997,-0.17791773,-0.7923318500000001,-2.9635657,0.8953547500000001,8.32424265
766,1778255265870,3.9752045,0.0302631,-0.7568215,-3.2346754,0.5906891,8.867261
767,1778255265880,3.9752045,0.0302631,-0.7568215,-3.2346754,0.5906891,8.867261
768,1778255265890,6.1039697,0.6874605,-1.13735558,-3.9362586800000003,0.8086422600000001,7.318579799999999
769,1778255265900,6.100577125,0.889039575,-1.060306735,-4.80474205,1.08004501,5.4678694
770,1778255265910,4.827647600000001,0.884951608,-0.5360473673999999,-6.549245999999999,3.635215,2.4234767
771,1778255265920,3.55878175,0.7553571800000001,0.33460249225,-6.3313995,4.8075385,1.336906875
772,1778255265930,2.520379,0.6828722,1.2754432,-5.832323,4.938566,0.89535475
773,1778255265940,2.0479249833333335,0.8008738833333333,1.6786256666666668,-5.25175375,4.54068985,0.739826145
774,1778255265950,1.5618443499999999,0.95340965,1.9516038,-2.8808745,2.5687521749999997,0.32410671
775,1778255265960,1.357568425,0.9887369125000001,1.8350665,-1.3274526625,1.120658231,0.15166702625
776,1778255265970,1.05054445,0.985381125,1.28923245,0.990163275,-0.906273738,-0.1257012125
777,1778255265980,1.001611,0.9752528,1.1153417,2.004295,-1.7204021,-0.26205507
778,1778255265990,0.95450792,0.96780902,0.952311415,2.3118901999999997,-1.8929749,-0.326237245
779,1778255266000,0.8303234583333333,0.9669955083333334,0.41689044999999997,2.9875343,-2.181129,-0.51984906
780,1778255266010,0.78537625,0.9818423,0.15961345,3.0925958749999998,-2.1176127,-0.6157228349999999
781,1778255266020,0.7580418250000001,1.0074683,-0.10506664500000001,2.9162946,-1.695368425,-0.8641957775
782,1778255266030,0.7063017,1.0472497,-0.5271637,2.5023062,-1.1728562,-1.1190603
783,1778255266040,0.70272218,1.0473310333333334,-0.5510813,2.5023062,-1.1728562,-1.1190603
784,1778255266050,0.60697037,1.1026506,-0.65993077,1.8621887200000002,-0.474788382,-1.55379478
785,1778255266060,0.468004172,1.11861198,-0.684238888,0.87404948,0.707122541,-2.32003944
786,1778255266070,0.37536004000000006,1.1292529,-0.7004443,0.7286408999999999,0.89322424,-2.4298682
787,1778255266080,0.2630937,1.151218,-0.73339206,0.4016047,1.3235911,-2.586462
788,1778255266090,0.24600969399999997,1.1542443,-0.739688728,0.1195226704,1.6150474200000002,-2.67083112
789,1778255266100,0.15277982333333334,1.1676511666666667,-0.7611332000000001,-0.06249551466666667,1.7711796666666668,-2.7238812666666665
790,1778255266110,0.15776557142857145,1.1466855285714286,-0.5724188442857143,-0.5645901428571428,2.0389923857142858,-2.8820731
791,1778255266120,0.34314448000000003,1.0972814,-0.20199805699999998,-0.5965481266666667,1.7287467,-3.0376015333333335
792,1778255266130,0.51691324,1.069947,-0.025626010999999997,-0.45593318,1.5036207,-3.144128
793,1778255266140,0.5706465166666667,1.0652285499999998,0.0179788825,-0.13413454666666666,1.1338852833333333,-3.3891388333333334
794,1778255266150,1.3262070000000001,1.0114953,0.68018752,0.3720436225,0.6773750627499999,-3.7852841
795,1778255266160,1.42875992,1.05569402,0.77732234,1.1776499,0.007456850999999999,-4.4006076
796,1778255266170,1.5576547333333333,1.1443031000000001,0.8113276466666667,2.406432433333333,-0.8181231000000001,-4.993427333333333
797,1778255266180,1.6049204999999998,1.1768441,0.8151512,2.6972497,-0.9768475,-5.083975
798,1778255266190,1.6639823,1.2627522333333332,0.78879304,2.6972497,-0.9768475,-5.083975
799,1778255266200,2.0278716,1.5951582,0.6113634,3.1606395,-1.71188,-4.7958207
800,1778255266210,2.0278716,1.5951582,0.6113634,3.1606395,-1.71188,-4.7958207
801,1778255266220,2.887848083333333,1.5197037666666666,0.43246943833333334,2.7112754666666667,-1.4865765666666668,-4.970523966666666
802,1778255266230,3.1009915,1.2559186,0.36779428,2.5092304,-1.2969595,-5.1132693
803,1778255266240,3.1009915,1.2559186,0.36779428,2.2831280499999997,-1.003745425,-5.265468824999999
804,1778255266250,2.78981848,0.59613423,0.29306394399999997,1.5733956,0.33768883,-5.43711
805,1778255266260,2.3660131,0.2960414395,0.21361111,1.11679665,1.0503507324999999,-5.10954105
806,1778255266270,1.7330505999999999,0.022209208,0.11348662000000001,0.964597,1.2879047,-5.0003514
807,1778255266280,1.4028411,-0.12007617,0.099819414,0.67963874,1.6096145999999998,-4.6259108
808,1778255266290,0.658039375,-0.5224655324999999,0.11964905749999999,0.06977482175,2.1437116,-3.6667734249999997
809,1778255266300,0.511202328,-0.57939188,0.137550658,0.028229508999999996,2.1699438,-3.588876
810,1778255266310,-0.02035438,-0.73090262,0.194611244,-0.031105721599999997,1.94442718,-3.04282142
811,1778255266320,-0.18182266,-0.7746377,0.20622836,-0.020240024,1.7331853,-2.7654266
812,1778255266330,-0.18182266,-0.7746377,0.20622836,-0.020240024,1.7331853,-2.7654266
813,1778255266340,-0.672865825,-1.0684825999999998,0.256138065,0.078563253,0.509729065,-1.34835852
814,1778255266350,-0.7042271875,-1.0915460000000001,0.29768880000000003,0.1922802325,-0.1524659725,-0.318114595
815,1778255266360,-0.7582509999999999,-1.1081244714285714,0.3584852271428572,0.4315082028571428,-0.04489328285714285,0.45327003714285713
816,1778255266370,-0.748462575,-1.1902061,0.2506467875,0.84741785,0.497478495,1.60269035
817,1778255266380,-0.720762075,-1.2290112,0.1757822275,0.96259955,0.694685575,1.988981875
818,1778255266390,-0.6308066333333333,-1.2919577666666668,-0.015538307333333334,0.9977976733333334,0.9709885666666667,2.5758094666666667
819,1778255266400,-0.569873675,-1.32523085,-0.113486618,0.9379653299999999,1.0865698,2.8525119
820,1778255266410,-0.5156441519999999,-1.369698,-0.198028052,0.8878979000000001,1.1488878,3.0045784
821,1778255266420,-0.42185296,-1.5076636499999998,-0.36266907,0.572845965,1.32225955,3.49167055
822,1778255266430,-0.39366436,-1.5536685,-0.4058672,0.39148468,1.3960291,3.720436
823,1778255266440,-0.3014107,-1.670816,-0.49543622,0.266848745,1.41919855,3.7960697999999997
824,1778255266450,-0.22445132,-1.7777943333333333,-0.6024146333333333,-0.5278385,1.6010925,3.8988678
825,1778255266460,-0.2770659975,-1.849892875,-0.6584664499999999,-0.6555371,1.53358135,3.9737027
826,1778255266470,-0.46746723599999995,-2.00214808,-0.75291662,-0.8459265,1.354164196,4.05716628
827,1778255266480,-0.47225075999999994,-2.0300682,-0.8027042999999999,-1.3230585,0.98377174,4.294614
828,1778255266490,-0.5318007466666667,-2.0129841666666666,-0.8882870366666666,-1.5453437,0.5516294533333334,4.643843133333333
829,1778255266500,-0.53302103,-2.0405626,-0.98208636,-2.0456882857142857,-0.4385085028571428,5.4272182
830,1778255266510,0.4200225375,-1.84592695,-1.09850165,-2.8005801999999997,-2.3411850000000003,6.902115
831,1778255266520,1.5462247300000003,-1.4228537499999998,-1.10850805,-3.4197652,-3.7926079,8.331167500000001
832,1778255266530,2.1467276,-1.21931,-1.0650659,-3.6187034,-4.0964746,8.794824
833,1778255266540,2.1467276,-1.21931,-1.0650659,-3.6187034,-4.0964746,8.794824
834,1778255266550,5.4448687200000006,-0.442378161,-0.27436918600000004,-4.02904328,-3.3924412599999996,8.7561546
835,1778255266560,7.27197085,0.0881046625,0.40265377499999994,-4.125236666666667,-2.323430576666667,8.209371883333334
836,1778255266570,7.795106866666667,1.0454599,1.6710599666666666,-2.9044435666666666,0.97862296,5.006742966666667
837,1778255266580,7.6941485,1.1629328,1.8294530999999998,-2.2365227,1.5861788,3.8115163
838,1778255266590,6.448969000000001,1.6312786,2.0029778,-1.6287893,1.5733956000000002,3.1081754000000004
839,1778255266600,4.40657575,2.132267275,1.6872287,0.6723151,0.17683388499999997,1.5651398250000002
840,1778255266610,3.22653456,2.32034998,1.112022392,1.58767016,-0.738228288,1.23730466
841,1778255266620,2.823091433333333,2.1924882999999995,0.36478424200000004,1.9313244999999999,-1.1824435,0.99442434
842,1778255266630,2.6331336,2.1601508,0.055645052,1.7241305,-0.7882957,0.63436496
843,1778255266640,2.4915804,2.16932728,-0.003612048800000001,1.3640711,-0.26365295,0.27537087
844,1778255266650,1.5607461,2.038366,0.030263100000000005,0.7030745000000002,0.5278385,-0.27537087
845,1778255266660,1.37867942,1.9577296,0.116171256,0.6844323800000001,0.55415054,-0.34354778799999997
846,1778255266670,1.07365668,1.8177385000000001,0.26665696,0.6098639,0.6593987,-0.61625546
847,1778255266680,0.9459658,1.7415925,0.35315084,0.7259777,0.582167,-0.7701862
848,1778255266690,0.8892748,1.6932691571428573,0.3758133028571429,1.0813194714285714,0.3932347528571429,-1.0721886428571428
849,1778255266700,0.66721179,1.51018555,0.42006319666666664,1.3092101,0.30360037,-1.2703278
850,1778255266710,0.584395065,1.4343245,0.3818275875,1.5454324000000002,0.3332946325,-1.4952318249999998
851,1778255266720,0.4962729771428572,1.3710439142857143,0.3294772885714286,1.7974816,0.4760210228571428,-1.7128691
852,1778255266730,0.44662476,1.3481722,0.29726174,1.8780613,0.5342301,-1.7763284
853,1778255266740,0.347903615,1.2317569499999999,0.08761655,2.212288,0.8840363499999999,-2.0554277
854,1778255266750,0.34143609999999996,1.193684,0.05027579000000001,2.305765,1.0274476,-2.1784658
855,1778255266760,0.421120775,1.02052535,-0.0860301785,2.3776703,1.0977551,-2.3377228
856,1778255266770,0.47845678857142854,0.9244539857142857,-0.15180360857142855,2.4385424428571425,0.9132360071428572,-2.7090435142857143
857,1778255266780,0.49641246,0.8578612,-0.15058333,2.4628913,0.83942837,-2.8575718
858,1778255266790,0.48274523,0.8118563999999999,-0.141187125,2.49085465,0.500141655,-3.1462585499999998
859,1778255266800,0.3617625657142857,0.6955631257142858,-0.10742005785714286,2.5125023428571427,-0.15172409857142857,-3.620072842857143
860,1778255266810,0.3358227833333333,0.6705879416666667,-0.10726316166666666,2.4650219666666664,-0.2670263016666667,-3.642405416666666
861,1778255266820,0.5064188111111112,0.7340157122222223,-0.17431110555555554,2.231906566666667,-0.17807670733333333,-3.5171482333333333
862,1778255266830,0.5869577,0.7741495400000001,-0.1871919,1.9361181,0.049534798,-3.3704967
863,1778255266840,0.7758928428571429,0.8303525057142858,-0.1430872831142857,1.6542796142857144,0.2604571568571429,-3.259328828571429
864,1778255266850,1.10039315,0.9647583,0.06998341115,1.4265888625,0.27969851500000004,-3.0951259749999998
865,1778255266860,2.041538842857143,1.2990469285714286,0.7183999171428572,1.5682214857142858,-0.3269600971428571,-2.9930126
866,1778255266870,2.6443602285714287,1.4500486428571429,1.0723178,2.2530344,-1.8445054000000003,-3.0738206
867,1778255266880,3.260849,1.5897889,1.3281596,2.2530344,-1.8445054,-3.0738206
868,1778255266890,3.6983389428571427,1.6434814714285715,1.3930090857142858,2.2530344,-1.8445054000000003,-3.0738206
869,1778255266900,4.450709150000001,1.60117815,1.1516247833333335,4.223951133333333,-3.5782233,-4.279699866666666
870,1778255266910,4.6293390500000005,1.09618316,-0.12794702249999998,4.112054025,-3.57209815,-5.3970291
871,1778255266920,4.0784407499999995,0.641382455,-1.362571625,2.55077565,-3.0916639,-6.2784024
872,1778255266930,3.58935,0.5366819,-1.6327430000000003,1.4753913,-2.6594326,-6.4789386
873,1778255266940,3.26194715,0.460414,-1.5993072000000002,-0.7976167128,-1.51320815,-6.09331275
874,1778255266950,2.9345443,0.3841461,-1.5658714,-1.591505,-1.0274476,-5.857356499999999
875,1778255266960,1.8842033666666669,-0.9054524,-0.34168012433333333,-2.7255679333333336,1.1272273833333333,-5.119128233333334
876,1778255266970,1.2734907,-1.420535225,0.43411682925,-3.4770231,1.9750003,-5.0738544
877,1778255266980,1.1277885,-1.5087619,0.58256465,-3.4770231,1.9750003,-5.0738544
878,1778255266990,0.306820675,-1.8931113999999998,1.2025108166666667,-1.467135485,2.65703595,-4.0991377
879,1778255267000,-0.8412653,-2.3846834,1.7725879,-0.40266997,2.3989756,-3.445598
880,1778255267010,-1.04314946,-2.39400638,1.79982468,-0.40266997,2.3989756,-3.4455979999999995
881,1778255267020,-1.9133274666666666,-2.427068033333333,1.8134267666666666,2.1965754,1.7326527,-1.5116103
882,1778255267030,-2.05447385,-2.4094553,1.3866113,2.1965754,1.7326527,-1.5116103
883,1778255267040,-2.0703375,-2.4003031,1.1504859,3.4489003600000006,1.5269501,0.27888624399999995
884,1778255267050,-1.7271931,-2.3085375,0.21208574,4.55081,1.5158713,2.9720879
885,1778255267060,-1.5483804666666667,-2.2537873,0.05125201666666666,4.286446833333334,1.7537803666666665,3.5331271666666666
886,1778255267070,-1.1379168333333334,-2.1283825000000003,-0.27916081666666664,3.6663740333333337,2.2864126166666665,4.770786916666666
887,1778255267080,-0.521257484,-1.91633754,-0.263581836,3.2096417,2.5704832,5.348693
888,1778255267090,-0.18190399366666665,-1.8018747333333334,-0.19142224,2.233948283333333,3.0648546166666666,6.30068425
889,1778255267100,0.026846299,-1.7496464,-0.1261776,1.8141453,3.244263,6.677078
890,1778255267110,0.26276829983333333,-1.7134445666666667,-0.04177446583333333,1.5616777,3.2362735,6.848585
891,1778255267120,0.424025054,-1.67725902,-0.0035632352000000006,1.45770794,3.1152593399999997,6.88309972
892,1778255267130,0.88031447,-1.5614783,0.08175918,1.355682175,2.762829875,6.8287447125
893,1778255267140,1.0450531333333333,-1.5594444333333335,0.016839949666666666,1.236772,1.9244003,6.55377335
894,1778255267150,1.15595266,-1.5840291,-0.0230878156,1.18340228,1.6454073999999999,6.449110999999999
895,1778255267160,1.3715319857142858,-1.6407620142857142,-0.06551194142857143,1.1210386857142856,1.1251475142857144,6.2454931714285715
896,1778255267170,1.6937085,-1.77058644,-0.132474272,1.0947722599999998,0.7614510539999999,6.10023692
897,1778255267180,1.8624009000000001,-1.842144,-0.16254212,1.0700581,0.34514567,5.923403
898,1778255267190,1.9161631857142858,-1.8860046285714287,-0.10145808571428572,1.2961985714285713,0.027468597142857147,5.882162142857142
899,1778255267200,2.0344613,-1.8863186,-0.03172744,1.5483619,0.045806370000000006,6.087454
900,1778255267210,2.3737006,-1.8362867,-0.19573392,1.7757958000000003,0.47617322,6.8943915
901,1778255267220,,,,,,
902,1778255267230,4.9267836,-0.8871480999999999,-1.2222387,1.206412,2.4037693,8.061921
903,1778255267240,5.347456966666667,-0.7002002433333333,-1.2340347999999999,1.206412,2.4037693,8.061921
904,1778255267250,6.8927255625,0.17544666750000001,-1.15265185,0.5797701625,2.4066321875,5.4274557625
905,1778255267260,6.135599133333333,1.1546348666666668,-0.9276615666666667,0.6442187,2.3648871000000002,2.209358515
906,1778255267270,5.544736400000001,1.3628156999999999,-0.8793382,0.7254451,2.2807312,0.65460503
907,1778255267280,4.202178,1.5932057,-0.89617825,0.7254451,2.2807312,0.65460503
908,1778255267290,2.9312902333333333,1.6639823666666667,-1.0855666333333334,0.70041137,1.6831178,-0.21092236499999997
909,1778255267300,2.4654663,1.6215163,-1.2168695,0.60720074,1.5430355,-0.23329292
910,1778255267310,2.1972823000000004,1.6141248714285712,-1.292875842857143,0.5169576228571429,1.4681626428571428,-0.21503124
911,1778255267320,1.52633405,1.6876966333333332,-1.4088611833333333,0.29134983,1.2809805,-0.16937704
912,1778255267330,1.3938458571428571,1.6766733428571428,-1.2736999428571427,-0.31242684000000004,1.11411444,-0.19037796999999998
913,1778255267340,1.4159504857142857,1.5863024,-0.9373890571428571,-1.1902047714285715,0.7909588685714286,-0.35564614714285714
914,1778255267350,1.4511237833333333,1.518158116666667,-0.676404695,-0.9677927666666667,0.7829693633333333,-0.43445035666666665
915,1778255267360,1.4778277,1.470810975,-0.354767698,-1.4855113,0.37390783,-0.84848315
916,1778255267370,1.3502641857142856,1.3857570857142858,0.1630302465714286,-0.7535224314285714,-0.096710796,-1.8912248999999999
917,1778255267380,1.3388981,1.3777032,0.18231077000000004,-0.71159667,-0.105993815,-1.9462382
918,1778255267390,0.995997625,1.20966975,0.330819615,-0.10739198125,0.06784402249999999,-2.6059698625
919,1778255267400,0.80246025,1.1133891,0.38463423,0.08575378999999998,0.1555286,-2.7915256
920,1778255267410,0.663469625,1.02235575,0.4062333,0.173904425,0.20311041333333332,-2.835290183333333
921,1778255267420,0.46956612,0.8886124,0.42465961,0.7157245625,0.4649879125,-3.0774823875
922,1778255267430,0.41465324,0.8459024,0.42148685,0.8841694999999999,0.5049353,-3.1164312
923,1778255267440,0.38791154142857137,0.7698611542857143,0.49065964285714286,1.7754915285714286,0.24113022285714286,-3.100832657142857
924,1778255267450,0.41789573142857145,0.62743634,0.5990908028571429,2.1878249999999997,0.0736554302857143,-3.1104200857142854
925,1778255267460,0.605384025,0.4970226,0.6599308199999999,2.623923833333333,-0.099957316,-3.203427733333333
926,1778255267470,0.7162267,0.40513505333333333,0.6983291666666667,2.9087045,-0.19760656,-3.2996566
927,1778255267480,0.7844000000000001,0.33826336,0.7404696999999999,3.3822145,-0.3190467,-3.4690337
928,1778255267490,0.8279816571428571,0.27683066,0.7417945742857144,3.675618814285714,-0.3622660028571429,-3.565059642857143
929,1778255267500,0.959633115,0.03843901725,0.60410268,4.680439225000001,-0.5212472225,-3.9053260625
930,1778255267510,0.9579246600000001,-0.023673553,0.44662476,5.099776083333333,-0.6507877999999999,-4.048448666666666
931,1778255267520,0.9492606,-0.020744865499999997,0.21196373,5.318332750000001,-0.8318827716666667,-4.090882000000001
932,1778255267530,0.9459658,-0.006345488,0.13276714,5.331649,-0.93796533,-4.068245
933,1778255267540,1.1383236333333333,0.22079046400000002,-0.11706612500000001,4.978336,-1.0660633983333334,-3.913337783333333
934,1778255267550,1.30473,0.37218732,-0.26553428,4.334561,-1.2559468,-3.6938045
935,1778255267560,1.611418325,0.52002495625,-0.25147049375,3.750529775,-1.466336475,-3.53215065
936,1778255267570,1.9335433999999998,0.586591575,-0.16925369999999998,3.0525153333333335,-1.6696244666666669,-3.4498589
937,1778255267580,2.1772346,0.6233221999999999,-0.09445015,2.373942,-1.8524948,-3.4083135000000007
938,1778255267590,2.6225172000000003,0.45919372,0.11873384149999999,1.7670962,-1.8244429,-3.405472833333333
939,1778255267600,2.7085474,0.39146784,0.19353738,1.4601446875,-1.705688175,-3.408713
940,1778255267610,2.83655525,0.26437499174999995,0.37450585999999997,1.1221895375,-1.308677385,-3.424891875
941,1778255267620,2.8322842,0.10762925399999998,0.56670094,0.7302388,-0.34674358,-3.5185684999999998
942,1778255267630,2.8322842,0.107629254,0.56670094,0.7302388,-0.34674358,-3.5185685
943,1778255267640,2.4798352375,-0.007047152625000002,0.66188326,0.62091603,0.38016624,-3.4492597875
944,1778255267650,2.241143,-0.09490340714285714,0.6902985,0.49854377,1.1888351,-3.3593116000000003
945,1778255267660,2.097428,-0.19134088,0.6909260999999999,0.4903260142857143,1.2171406999999999,-3.348430657142857
946,1778255267670,1.55757335,-0.461512265,0.75901806,0.44681185,1.6090819625000001,-3.138135875
947,1778255267680,1.3057063,-0.506418805,0.7985553150000001,0.4564658,1.9792613999999997,-2.896454
948,1778255267690,1.11794492,-0.5243977000000001,0.8356520133333333,0.532809755,2.086941866666667,-2.7851338833333332
949,1778255267700,0.99917036,-0.5315567,0.8639627,0.78723043,2.3989756,-2.4431841
950,1778255267710,0.8551766,-0.5366819,0.8742131,0.78723043,2.3989756,-2.4431841
951,1778255267720,0.6438927885714286,-0.56607335,0.7593666971428572,1.6239957,2.7569044,-1.8040254
952,1778255267730,0.5757311,-0.5845171,0.70020026,1.8801918,2.8064392,-1.6522251
953,1778255267740,0.5757310999999999,-0.5845171,0.70020026,1.8801918,2.8064392,-1.6522251000000001
954,1778255267750,0.5386343571428572,-0.5887009514285715,0.6501336542857142,2.2057822857142857,2.729588014285714,-1.4956312857142857
955,1778255267760,0.3787419971428571,-0.5493729142857143,0.1851348442857143,2.2284572,2.5191220571428574,-1.3437550142857142
956,1778255267770,0.3617974314285714,-0.6013919428571429,0.10145807514285714,2.1183545571428573,2.4991103142857143,-1.2941441571428574
957,1778255267780,0.35290676,-0.6557818,0.058573738,1.9494339,2.5790052,-1.2676647
958,1778255267790,0.33077892000000003,-0.7224908000000001,0.06296676933333334,1.8224898999999999,2.7441212,-1.2450278666666668
959,1778255267800,0.319715,-0.7558453000000002,0.065163285,1.7971011,2.7771443999999996,-1.2405005
960,1778255267810,0.2657173325,-0.8978866,0.11165619375,1.8122811749999999,3.189801225,-1.17059255
961,1778255267820,0.10746654333333333,-1.1113553666666667,0.10258539666666666,2.0836573,3.566239,-1.08097715
962,1778255267830,-0.241791,-1.2410311,-0.05459909028571429,2.727077,3.7843520000000006,-0.84155893
963,1778255267840,-0.4075756,-1.2495731,-0.18011424,2.964164975,3.120625625,-0.34541201125000004
964,1778255267850,-0.9437694,-1.2644606,-0.70312893,3.2087540666666663,2.911012733333333,-0.17718900666666668
965,1778255267860,-0.9851196714285714,-1.2595794571428571,-0.75207984,3.3593116000000003,2.014415,0.48149952
966,1778255267870,-1.2198388166666667,-1.2326111333333334,-1.0570525999999998,2.889618683333333,0.8274441566666667,2.0714954833333334
967,1778255267880,-1.1529264,-1.2442038,-1.1133891,2.6423886,0.58909124,2.8149614
968,1778255267890,-0.9933827142857142,-1.2408567428571426,-1.1239881857142857,2.1611933285714287,0.42298608,4.444663614285714
969,1778255267900,-0.37738224857142855,-1.087519157142857,-1.1634558428571429,1.8892465,0.3201119599999999,5.4706655
970,1778255267910,0.017223467142857142,-0.9043715714285714,-1.2520835,1.7620234714285714,0.2921107257142857,6.015776642857142
971,1778255267920,2.0781474,-0.44833317,-1.6303024,0.98909805,0.25752769,7.230349250000001
972,1778255267930,2.0781474,-0.44833317,-1.6303024,0.763262,0.25300032,7.498929
973,1778255267940,2.5815155,-0.281275975,-1.4563302666666667,0.6189186633333333,0.288065275,7.400392
974,1778255267950,4.716986,0.406812945,-0.7695125175,0.15406386,0.6514092,5.738180075000001
975,1778255267960,5.471240571428572,0.9147614,0.03441207142857143,1.0797215857142857,0.8360804071428571,3.674097157142857
976,1778255267970,5.155668666666667,1.16081755,0.25674822166666667,1.7009610000000002,0.8079142916666666,2.7732384666666667
977,1778255267980,3.8280380000000003,1.5212901666666665,-0.04222190333333333,3.218814888888889,0.3926091222222222,0.7501237444444445
978,1778255267990,3.1784389333333336,1.4894813666666666,-0.35778790666666666,3.3781310666666666,0.15694896666666666,0.07048500266666667
979,1778255268000,2.9582179,1.475082,-0.45882759999999995,3.3795514,0.09321064,-0.104928546
980,1778255268010,2.00465565,1.5377436625,-0.7206705437500001,2.899649975,0.29913957375,-0.2862232495
981,1778255268020,1.4855764,1.6076051,-0.83125895,2.0005667,0.7584683,-0.24288030000000002
982,1778255268030,1.4855764,1.6076051,-0.83125895,2.0005667,0.7584683,-0.2428803
983,1778255268040,1.1163178142857144,1.5035669714285713,-0.25918879285714286,0.7618923628571429,1.6956727714285713,-0.39003897857142855
984,1778255268050,1.0792211,1.4767903999999998,-0.16351835,0.5184287266666666,2.116858066666667,-0.6011642566666667
985,1778255268060,0.8991678875,1.373340575,0.16663008125,0.598012855,2.4053671999999997,-0.8274441775000001
986,1778255268070,0.45150590000000007,1.1421878,0.7814713000000001,0.9827065,2.5859294,-1.1206582
987,1778255268080,0.4515059,1.1421878,0.7814713,0.9827065,2.5859294,-1.1206582
988,1778255268090,0.12407259825,0.9481014,1.1146704374999998,1.7859824375,2.45097375,-1.4967631375
989,1778255268100,-0.024161667,0.8295506,1.2027141,2.783536,2.139051,-1.8626148999999999
990,1778255268110,-0.13851992628571427,0.7659213857142857,1.1995762428571428,3.329560171428571,1.8651258857142856,-1.998207957142857
991,1778255268120,-0.4256358700000001,0.6367454,0.96671075,4.4096622,1.1787151,-2.0655477
992,1778255268130,-0.42563587,0.6367454,0.96671075,4.4096622,1.1787151,-2.0655477
993,1778255268140,-0.31349154,0.6627985000000001,0.736442745,4.809136425,1.34110135,-2.134856475
994,1778255268150,-0.16449459,0.7556012,0.53765815,5.087703,1.5680692,-2.209891
995,1778255268160,0.01931538714285714,0.8781876571428572,0.34966431,5.1799245,1.6424855714285713,-2.298003571428571
996,1778255268170,0.15717287,0.9701275,0.20866893,5.308479125,1.6731309749999999,-2.449841825
997,1778255268180,0.21623472,1.0326062,0.11023251333333334,5.325257,1.4674017,-2.5529063
998,1778255268190,0.5798103171428571,1.4925495142857144,-0.4193949428571429,4.899531542857143,-0.1332341785714286,-2.676629214285714
999,1778255268200,0.8571291,1.9365941,-0.6284474,4.4783716,-1.5856462,-2.698315
1000,1778255268210,0.8571291,1.9365941,-0.6284474,4.4783716,-1.5856462,-2.698315
