id,timestamp,acc_x,acc_y,acc_z,gyro_x,gyro_y,gyro_z
0,1778413279310,0.563478,0.93307275,0.9885943000000001,0.5414397,2.9219115,-2.142852
1,1778413279320,0.7764544777777779,1.033668,1.0428996,0.7161420333333334,3.2489185000000003,-2.2328502666666665
2,1778413279330,1.0266859,1.1292833,1.01219324,0.897563711111111,3.6257432666666665,-2.4237061444444445
3,1778413279340,1.2625940111111111,1.2921757111111112,0.9034741588888888,0.9614990666666665,3.8495848666666665,-2.6832993
4,1778413279350,1.32891294,1.34683474,0.9021014319999999,0.9610918399999999,3.9681707600000005,-2.8506562200000003
5,1778413279360,1.5906924666666666,1.4546072333333333,1.18439836,0.9062513333333333,4.216907933333334,-3.170848833333333
6,1778413279370,1.9925993333333334,1.5334533666666665,1.6790614000000001,1.029846088888889,4.447197288888889,-3.3355738777777777
7,1778413279380,2.6832664,1.5639327,2.398951,1.6170059777777779,4.952096155555555,-3.583713577777778
8,1778413279390,2.933416511111111,1.5278703666666666,2.555006833333333,2.179502922222222,5.296071166666667,-3.8848612
9,1778413279400,3.14145172,1.4343947,2.65993566,2.76383945,5.563604549999999,-4.157869209999999
10,1778413279410,3.0600430666666667,1.1565850555555555,2.4441771222222224,3.7145960555555555,5.573836888888888,-4.423832088888889
11,1778413279420,2.9276571666666666,0.9502146611111111,2.2100476333333336,4.334062922222222,5.391499,-4.570367444444445
12,1778413279430,2.5630153,0.572466366,1.8383267799999998,5.285180479999999,4.363144440000001,-4.3988487
13,1778413279440,2.504654911111111,0.43049600222222223,1.5585665,5.6245205,3.8774123222222223,-4.117458555555555
14,1778413279450,2.5907778111111113,0.45989134444444446,1.4334508,5.8254213,3.5706313,-3.909499
15,1778413279460,3.01615462,0.626039552,0.8756639199999998,5.9397718,2.9965569800000003,-3.5100048
16,1778413279470,3.0979382666666666,0.6154864433333334,0.6201039444444444,5.719880444444445,2.9058258555555554,-3.566542
17,1778413279480,2.856149,0.42553973666666667,0.2740708638888889,5.481777266666666,2.9010069888888887,-3.644391033333333
18,1778413279490,2.08559724,0.0624670584,-0.059192473,4.01693142,3.31468634,-3.8214756899999998
19,1778413279500,1.815434477777778,-0.03418559905555555,-0.12235469333333333,3.6733298111111115,3.4455434555555557,-3.7664247555555557
20,1778413279510,0.93448741,-0.267168045,-0.25538685899999997,2.6309800599999997,3.7080719800000006,-3.14960488
21,1778413279520,0.7863602333333334,-0.3047569422222222,-0.26710907777777776,2.3940376666666667,3.7001988000000003,-2.9212837
22,1778413279530,0.44932838222222227,-0.4264781411111111,-0.3185449911111111,1.9330856111111112,3.452262644444444,-2.258794322222222
23,1778413279540,0.267744272,-0.575323217,-0.43528148599999994,1.6994839900000003,3.1821936,-1.84561395
24,1778413279550,0.19542806122222223,-0.66360919,-0.5128720644444444,1.6187707,3.0375568888888886,-1.6973409888888886
25,1778413279560,-0.231202503,-1.1137438766666667,-0.9395365666666667,1.222602288888889,2.169746377777778,-1.1692974333333332
26,1778413279570,-0.470868918,-1.2464996199999998,-1.10937572,1.042762068,1.83324417,-0.9778443500000001
27,1778413279580,-0.8070898,-1.3927032,-1.3093448,0.21463646,0.2921377,-0.04703524
28,1778413279590,-0.71249278,-1.40309406,-1.20918644,-0.11783243799999998,-0.38155046000000004,0.40381585400000003
29,1778413279600,-0.6494281,-1.4100213,-1.1424142,-0.33947837,-0.8306759,0.70438325
30,1778413279610,0.038061163333333335,-1.3861784,-0.5523899800000001,-1.0712733788888888,-1.706087922222222,1.7870081833333333
31,1778413279620,0.378790392,-1.3346998,-0.310219326,-1.2911784000000002,-1.70266035,2.0723757
32,1778413279630,0.7355273222222222,-1.1567849222222222,0.08692920111111112,-1.5184135777777776,-0.8691592777777778,2.1478153777777775
33,1778413279640,0.6701915444444445,-1.0155639222222221,0.31915820111111115,-1.5116264222222222,-0.34505234577777777,2.1016624666666663
34,1778413279650,0.65378815,-1.0031987,0.3372453,-1.4542747,0.058106847,2.0500798
35,1778413279660,0.13749786555555554,-0.7760581666666666,0.30838183333333336,-0.683317511111111,0.24903054077777778,2.2950973666666665
36,1778413279670,0.070327277,-0.72885047,0.285080673,-0.3830088652,0.162248658,2.43045433
37,1778413279680,0.18750077,-0.5850646333333333,0.20528636333333333,0.5996059795555556,-0.5937350355555556,2.817371744444445
38,1778413279690,0.28831627,-0.5063202044444445,0.1693865688888889,1.1934173666666668,-0.9565104533333333,2.8471081333333337
39,1778413279700,0.43770845299999994,-0.387720798,0.085172649,1.49680482,-1.12247766,2.83564456
40,1778413279710,0.545916,-0.19408653,-0.20592664333333335,2.1510222666666667,-1.3272947666666666,2.6208400666666667
41,1778413279720,0.5311183666666666,-0.13681692666666667,-0.4057960233333333,2.3819903555555557,-1.3681535555555555,2.478012288888889
42,1778413279730,0.50833452,-0.0584424346,-0.55689832,2.4022026999999997,-1.3709092,2.4390674199999998
43,1778413279740,0.49759,-0.019696271,-0.6128406,2.4088,-1.3712758,2.397652
44,1778413279750,0.49076036,0.010335969,-0.6545504,2.3886418,-1.3529503,2.3860457
45,1778413279760,0.4845269211111111,0.10779423066666666,-0.8591219444444445,2.3886418,-1.3529503,2.3860457
46,1778413279770,0.53346608,0.25698654,-1.2156298333333333,1.08224315,-1.02166748,2.6986724000000004
47,1778413279780,0.704888696,0.42570777,-1.38151962,-0.21949269400000002,-0.793536368,3.0261679999999997
48,1778413279790,0.8970950533333334,0.5459464766666667,-1.3564409666666668,-1.4964231,-0.8893172999999999,3.4080696
49,1778413279800,0.9757615777777777,0.5680717466666666,-1.2714360222222223,-1.5512635999999997,-0.8953578999999999,3.4336573111111113
50,1778413279810,1.62889996,0.77722212,-0.51735944,-2.41171648,-0.918760116,3.8963807600000004
51,1778413279820,1.9936054666666665,0.9059234333333333,-0.23779164911111111,-2.5866496333333333,-0.8500873055555556,3.9950937555555552
52,1778413279830,2.6220797300000003,1.11376317,0.1163970356,-2.66924985,-0.6989161700000001,3.9369411999999997
53,1778413279840,2.9253738666666664,1.2343911333333333,0.29591158333333334,-2.600563411111111,-0.6414489944444445,3.698561422222222
54,1778413279850,3.023611333333333,1.2966237666666667,0.3808386222222222,-2.5312661555555556,-0.6229878266666666,3.5149
55,1778413279860,3.2814231200000004,1.66946942,0.8489580480000001,-1.99463011,-0.7315964800000001,2.85684095
56,1778413279870,3.3999578666666666,1.792398011111111,1.062253688888889,-1.7432732555555555,-0.7214021288888889,2.6110835000000003
57,1778413279880,3.366527733333333,1.9016963,1.2992729333333335,-0.6626844511111112,-0.5642107866666666,1.582170688888889
58,1778413279890,2.8446354200000004,1.7888116,1.13459068,0.218706212,-0.5726540499999999,0.826247261
59,1778413279900,2.5085406,1.6825574333333335,0.9733902,0.4956261800000001,-0.5924455,0.59809583
60,1778413279910,1.69514158,1.3883188199999998,0.527750296,1.6215398799999998,-0.9479586000000001,-0.027091078400000003
61,1778413279920,1.352169011111111,1.2575700555555553,0.3085884655555555,1.8869326333333332,-1.0548568666666667,-0.090812629
62,1778413279930,0.8293268,1.0551936999999998,-0.10480285500000001,1.8219113666666666,-1.1256472333333334,0.16240901622222223
63,1778413279940,0.7355307200000001,0.987313704,-0.189645204,1.6379106,-1.1327399,0.33879117000000003
64,1778413279950,0.7335794,0.9670076399999998,-0.19452354,1.4919181,-1.1318237,0.45515758000000006
65,1778413279960,0.8164737833333333,0.9367077877777779,0.05902783488888889,1.1676939666666666,-1.0379567777777778,0.5835712399999999
66,1778413279970,0.8719563499999999,0.9356339,0.2177871,1.01698435,-0.9778901,0.614588715
67,1778413279980,0.9088572333333332,0.9565124622222222,0.4314106722222222,1.1231699888888889,-0.8680733222222222,0.4166063166666667
68,1778413279990,0.8911922600000001,0.9637879420000001,0.4800463,1.24953386,-0.668923556,0.229510592
69,1778413280000,0.8758743,0.96603197,0.47975360000000006,1.3123289,-0.55579466,0.13934954
70,1778413280010,0.7815869155555556,0.9200333444444444,0.4393345788888889,1.3430749000000002,-0.2595337356666667,-0.0450839172
71,1778413280020,0.6300123839999999,0.862940618,0.39718172799999996,1.35178968,0.0793796004,-0.234931848
72,1778413280030,0.33449782222222224,0.78574367,0.35334718,1.3074421666666667,0.5752314622222222,-0.4252854266666667
73,1778413280040,0.19687123333333334,0.7612639444444445,0.3318249177777778,1.2684158666666667,0.8472621322222222,-0.4727279088888889
74,1778413280050,0.11345174,0.7485803,0.31870762,1.260407,0.89504397,-0.47585002000000004
75,1778413280060,-0.057418660555555556,0.7425907666666666,0.2767776711111111,1.2367875333333334,1.0044534633333333,-0.42698223333333335
76,1778413280070,-0.10357920999999999,0.75511722,0.285260556,1.2303532799999999,0.99931557,-0.386421962
77,1778413280080,-0.027654051488888887,0.8702303333333332,0.39417613333333335,1.2917638,0.9404502666666666,-0.3561239533333333
78,1778413280090,0.055778997244444434,0.93555595,0.43906018888888887,1.3299077666666665,0.9885714555555557,-0.3887024777777778
79,1778413280100,0.10296332,0.96408063,0.4560937,1.3434821,1.0611944,-0.43553410000000004
80,1778413280110,0.2184138177777778,1.0527782444444445,0.50166884,1.261153588888889,1.4936742444444444,-0.6700994333333333
81,1778413280120,0.25933422333333334,1.0988750666666667,0.5251525666666667,1.1845940333333334,1.7659763777777777,-0.8129019666666667
82,1778413280130,0.30331647500000003,1.1523538199999999,0.5561757390000001,0.9839985500000001,2.24532185,-1.041799975
83,1778413280140,0.3290334222222222,1.1569747666666668,0.6294405155555556,0.7162099222222222,2.7650935444444444,-1.2897021777777777
84,1778413280150,0.341102217,1.15630536,0.6672096599999999,0.611870436,2.95080467,-1.3886391100000002
85,1778413280160,0.47366585666666666,1.1600373,1.0003226333333335,0.5613940733333334,3.3028766,-1.6995806333333334
86,1778413280170,0.5924159888888889,1.150145022222222,1.2346621444444446,0.6722967988888889,3.5472834222222223,-1.9308881555555557
87,1778413280180,0.7305731,1.1342307200000001,1.50705738,0.875206686,4.03682976,-2.20601372
88,1778413280190,0.77540092,1.1301167333333335,1.645909,1.0213620833333334,4.4282608,-2.3063556666666667
89,1778413280200,0.7960830155555556,1.1301167777777779,1.7204526777777778,1.0783745,4.5809727,-2.3383234
90,1778413280210,1.0326456400000001,1.2147111,2.07772488,1.50193592,5.0176062,-2.12892476
91,1778413280220,1.5200717444444445,1.3713536555555554,2.4753003,2.022608611111111,4.963362888888889,-2.0029681
92,1778413280230,2.0934147999999997,1.4727451111111112,2.926380177777778,2.889791033333333,4.825718733333334,-2.1080338333333333
93,1778413280240,2.49111488,1.44714542,3.1486653799999997,3.6694816099999996,4.81254469,-2.37387458
94,1778413280250,2.5946839999999995,1.3089178333333333,3.0974978,4.264019333333334,4.767280833333333,-2.6128228
95,1778413280260,2.3646988799999997,0.7136392199999999,2.63494648,5.6602327599999995,4.32014106,-2.98858548
96,1778413280270,2.1540282,0.37477797999999996,2.2024863666666668,6.344302022222222,3.741329222222222,-2.708310111111111
97,1778413280280,2.121160466666667,0.28390884,1.7536795666666665,6.629703344444445,3.334504933333333,-2.2862656111111113
98,1778413280290,2.35820157,0.38730918000000003,1.3948709899999998,6.60632822,2.95550816,-2.00516718
99,1778413280300,2.449716,0.4247199,1.2990392,6.5908127,2.8797631,-1.9589871
100,1778413280310,2.706939777777778,0.24800227777777778,1.0291691555555555,6.3561118,2.1546957888888887,-2.201764911111111
101,1778413280320,2.6643811200000003,0.0956458258,0.8806794400000001,6.231757020000001,1.8637255,-2.3335587999999996
102,1778413280330,2.140927733333333,-0.25350057744444443,0.42641037333333337,5.909921933333333,1.8514271666666664,-2.4499048
103,1778413280340,1.8101787200000001,-0.37740618000000004,0.15055146424000002,5.4973962,1.9866280499999998,-2.4559114
104,1778413280350,1.6289974,-0.4367633,-0.0007622396,5.23351,2.1100192,-2.4171226
105,1778413280360,1.4577272666666667,-0.4466893511111112,-0.09800368413333332,4.851509933333333,2.209247955555556,-2.2527367999999997
106,1778413280370,0.82704828,-0.47585703000000007,-0.439324404,3.3661959799999996,2.56876556,-1.59064622
107,1778413280380,0.7061692666666667,-0.44245466,-0.37651586,2.4267348444444443,2.5571594666666666,-1.0334178111111112
108,1778413280390,0.63888892,-0.4357876133333333,-0.2908604533333333,1.9311172,2.4732697333333333,-0.7326094666666667
109,1778413280400,0.60990145,-0.43871462,-0.236855276,1.7217188,2.4039588800000002,-0.6021732200000001
110,1778413280410,0.5715441744444445,-0.4451106644444444,-0.17190705,1.3353375444444444,2.1993385333333335,-0.3616215777777778
111,1778413280420,0.528683278,-0.46511860799999993,-0.1334163164,1.2310863,2.1368964,-0.30053684
112,1778413280430,0.4145838166666667,-0.5182348666666666,-0.09692638577777778,0.9684898666666667,1.9681668333333333,-0.10676252444444445
113,1778413280440,0.39093745,-0.52826256,-0.09009672,0.9128349,1.9310409000000002,-0.06230642
114,1778413280450,0.3799612,-0.5273844240000001,-0.0865660296,0.89933516,1.9009871699999998,-0.0241819156
115,1778413280460,0.27399973000000005,-0.5546292333333334,-0.085469084,0.8788310333333333,1.6979008999999998,0.21875968
116,1778413280470,0.13613598777777777,-0.5913353066666667,-0.08416141999999999,0.9067942777777778,1.5925636555555558,0.35491075111111114
117,1778413280480,0.08656602799999999,-0.5879306420000001,-0.095365322,0.9709875199999999,1.45543519,0.522045346
118,1778413280490,0.029541018666666665,-0.5665066277777778,-0.1302210188888889,1.0823110555555555,1.2053543222222223,0.7457172444444444
119,1778413280500,0.009756667,-0.5600022,-0.15476513,1.128464,1.0862391,0.8302178
120,1778413280510,0.04261427333333333,-0.5076922300000001,-0.24895761666666663,1.2482578,0.5301645244444445,1.0336299777777775
121,1778413280520,0.06144328222222222,-0.4899676122222222,-0.28442713888888893,1.2555200999999998,0.4777674022222222,1.0489011666666666
122,1778413280530,0.1078142125,-0.45609064200000005,-0.307713057,1.23890516,0.22306613999999997,1.16887154
123,1778413280540,0.14416152666666668,-0.42893085555555555,-0.32512397666666665,1.1614497333333333,0.1880645933333333,1.2586253666666665
124,1778413280550,0.1583629,-0.4179817,-0.33413535,1.1315182,0.20478654,1.2798014
125,1778413280560,0.10698184899999999,-0.43298258,-0.369905728,0.9152171749999999,0.46781736799999996,1.4164479
126,1778413280570,0.04340700555555556,-0.45570747777777776,-0.37247430555555555,0.728358991111111,0.7464723277777777,1.5850892444444444
127,1778413280580,0.005369215660000001,-0.451764149,-0.460475,0.6132142899999999,1.069318655,1.89840634
128,1778413280590,0.10467075,-0.39697438,-0.7516902,0.4327767911111111,1.2318244333333332,2.2685594555555557
129,1778413280600,0.12240891,-0.38146534444444447,-0.8173105555555555,0.314000934,1.2296525444444444,2.4013169222222226
130,1778413280610,0.21707975,-0.248691328,-1.26116508,-0.39443170909999997,1.035905342,2.83794291
131,1778413280620,0.22522657,-0.22906823,-1.3147109,-0.58503896,0.98422766,2.9389389
132,1778413280630,0.6460810377777777,0.03325397888888889,-1.289651833333333,-2.157631302222222,0.6483295022222222,3.8482867333333335
133,1778413280640,1.6870802,0.502712265,-1.0284442249999999,-3.0382397,0.431105435,4.1966734
134,1778413280650,2.341186911111111,0.6867338288888889,-0.7085610122222223,-3.469536,0.30985227,4.2852464
135,1778413280660,3.68595898,1.089368412,0.305572732,-4.53302122,1.24860238,3.73169648
136,1778413280670,3.9807948,1.2691593888888888,0.7065520566666668,-4.90034408888889,2.2339533,3.1776444
137,1778413280680,3.5802091666666667,1.5072898111111113,1.0696592933333333,-5.134502066666666,3.3696371,2.3514565333333333
138,1778413280690,3.2277677099999997,1.60963959,1.2789374,-5.1455787399999995,3.7946900999999995,1.79767768
139,1778413280700,3.1298778,1.6322598,1.3390415,-5.1145477,3.8467342999999996,1.6188216
140,1778413280710,2.956090533333333,1.6109780999999999,1.4845276666666667,-4.968351544444444,3.7688173,1.5322170444444445
141,1778413280720,2.5400262,1.5322236,1.8064164000000003,-3.7859548500000004,3.1838429,0.9107885149999999
142,1778413280730,2.2357030333333334,1.4128737444444444,1.764395022222222,-2.9078196,2.7486259222222227,0.4954056251111112
143,1778413280740,1.4266107350000001,1.1676169399999998,1.49988019,-1.47913605,1.94869446,-0.055533649799999994
144,1778413280750,0.8004735177777778,0.9966231222222223,1.2383683666666667,-0.55896764,1.2819818055555556,-0.21121740555555554
145,1778413280760,0.25766070333333335,0.8151525444444445,0.9571121333333333,0.62614388,-0.12206765000000003,0.021634176666666664
146,1778413280770,0.195944366,0.757416124,0.947256536,1.1638931,-0.8435037,0.18039847
147,1778413280780,0.16259078999999999,0.6028705400000001,0.99024068,1.8572726000000002,-1.5638962666666667,0.33095196222222223
148,1778413280790,0.158948307,0.509276683,0.931115292,2.8051098199999998,-2.14735714,0.44782740400000004
149,1778413280800,0.09873882977777777,0.44277313777777777,0.7873189555555555,3.2341308,-2.239289622222222,0.47972721111111105
150,1778413280810,-0.11545388699999999,0.30208063777777777,0.4266170333333334,3.634710811111111,-2.151531311111111,0.5873720533333332
151,1778413280820,-0.19672489399999998,0.25726501599999996,0.311414522,3.63264748,-2.06947424,0.698030444
152,1778413280830,-0.2675765866666666,0.23307254666666666,0.21667932,3.533853111111111,-1.9566710888888887,0.8989041666666667
153,1778413280840,-0.23255014799999998,0.313390236,0.11263462399999999,3.2966813999999998,-1.80522162,1.21932752
154,1778413280850,-0.10716072300000001,0.39893588,0.09458885333333333,3.146983111111111,-1.7219020555555555,1.3490986666666667
155,1778413280860,0.18717556,0.5008829,0.15177715,2.7468783666666665,-1.4217723666666666,1.4231468999999999
156,1778413280870,0.262686058,0.541711499,0.19380093599999998,2.558381,-1.1951073399999999,1.3526143400000001
157,1778413280880,0.2930963488888889,0.5787228299999999,0.29292697888888886,2.245703633333333,-0.6626929333333333,1.1004158666666666
158,1778413280890,0.24976390666666667,0.5701585833333334,0.3700825777777778,2.0824037333333334,-0.28620739333333334,0.9411883666666666
159,1778413280900,0.21701877499999997,0.578064185,0.426860288,2.03398384,-0.08200624200000001,0.87590916
160,1778413280910,0.14592314999999997,0.6821705555555556,0.5498153111111111,2.1047336000000003,0.5089206122222223,0.7022113111111111
161,1778413280920,0.171510006,0.80011378,0.5430621999999999,2.266839,0.6368388410000001,0.60976297
162,1778413280930,0.19225037666666667,0.8452695388888889,0.5364811944444444,2.4202448333333333,0.6965864611111111,0.49187626111111116
163,1778413280940,0.3142832511111111,0.9796574444444445,0.5604087111111111,2.6023111666666665,0.6902065166666667,0.2794371766666667
164,1778413280950,0.361752816,1.03310296,0.5915375509999999,2.6958522,0.6882111,0.1499630088
165,1778413280960,0.47747704444444444,1.1689503111111113,0.65596645,2.9111962,0.8053851444444445,-0.22078735333333332
166,1778413280970,0.5747184999999999,1.2775745333333335,0.6798059166666667,3.0010586,0.9667845555555554,-0.47211706666666664
167,1778413280980,0.7048520760000001,1.4298090399999999,0.6496720400000001,3.0023141499999997,1.36936685,-0.994459325
168,1778413280990,0.8246145133333334,1.6175265888888888,0.7067079444444445,2.7375119666666667,1.9707459666666667,-1.691436
169,1778413281000,0.8451103,1.6557062999999999,0.7299207,2.6263378,2.162552,-1.8972915000000001
170,1778413281010,0.8378233111111111,1.773850088888889,0.8634650488888889,2.4211185222222222,2.4877348444444443,-2.189072911111111
171,1778413281020,0.8535796666666666,1.8985287555555554,1.029494368888889,2.2715626777777778,2.7282050333333334,-2.4055928222222223
172,1778413281030,1.3840716100000001,2.30407339,2.2047779499999995,2.2194370599999997,3.4529821,-2.8504118
173,1778413281040,1.8355372666666665,2.434823588888889,2.829992188888889,2.5485311,3.6976874333333334,-2.9321431
174,1778413281050,2.0489914,2.4759371,3.0647213,2.68559,3.7819843,-2.9584095
175,1778413281060,2.8773904999999997,2.31453748,3.54561225,4.53273116,4.675898290000001,-3.66577076
176,1778413281070,2.9636113555555554,2.0010077,3.403504877777778,5.503072100000001,4.637374133333334,-3.9903341333333326
177,1778413281080,2.7894004,1.4636341800000001,2.76771032,6.31696999,4.175247990000001,-4.12518881
178,1778413281090,2.5858115555555554,1.0194090155555555,2.0379034888888885,6.7275069,3.5409034888888886,-4.103680222222222
179,1778413281100,2.5269158333333333,0.9318768122222222,1.8411440222222224,6.7697231888888885,3.191889111111111,-4.052233333333334
180,1778413281110,2.35741193,0.576304939,1.11487296,6.53754692,2.14068376,-3.8209259199999996
181,1778413281120,2.2949205666666668,0.31890071666666664,0.85829196,6.137224777777778,1.7517233222222222,-3.6733045333333334
182,1778413281130,2.2661994,0.21973844,0.77531964,5.9121614,1.5975183,-3.6040752
183,1778413281140,2.01923377,-0.0522621942,0.5162466139999999,5.3750281399999995,1.59147093,-3.42717375
184,1778413281150,1.9008730999999999,-0.18784632,0.3623687,4.956109,1.6720417,-3.2797153
185,1778413281160,1.8666773444444447,-0.20883331555555557,0.3397826944444444,4.956109,1.6720417,-3.2797153
186,1778413281170,1.52575371,-0.403813181,0.138816027,4.2273684,1.9713569,-3.0909636
187,1778413281180,0.9469319444444445,-0.5394217,0.021661156666666667,3.1697882,2.4368224333333335,-2.5924612000000002
188,1778413281190,0.289556536,-0.61008439,0.027260737099999998,1.9552533999999997,2.31611892,-1.26610303
189,1778413281200,0.15351845222222224,-0.6021354,0.10590048499999999,1.8079297999999997,2.0804948,-0.8625162666666666
190,1778413281210,0.16033456222222223,-0.5578069444444443,0.15552058666666665,1.681280688888889,1.2103768888888888,0.08694392888888888
191,1778413281220,0.221104374,-0.567026952,0.13009295399999998,1.63540611,0.81538948,0.407816911
192,1778413281230,0.30528203666666665,-0.5478063266666666,0.10564640666666666,1.6183635,0.6757498,0.51685315
193,1778413281240,0.40619749,-0.5208382850000001,0.081971247,1.40804878,0.38633035,0.8408465310000001
194,1778413281250,0.4895509466666666,-0.5005373066666667,0.07146758599999999,1.2141862333333333,0.25121093333333333,1.0138792
195,1778413281260,0.5630714622222223,-0.48969659555555556,0.14252863666666668,0.8855503444444444,0.3687650888888889,1.0941038222222224
196,1778413281270,0.563819478,-0.494309348,0.16592431000000002,0.8282936,0.42640192600000004,1.1021670000000001
197,1778413281280,0.5187633111111111,-0.47988573111111116,0.14256590111111112,0.6604192,0.7298437155555555,1.1050312555555557
198,1778413281290,0.5066149,-0.47484478,0.13296507,0.6251258,0.7985301,1.1044883
199,1778413281300,0.440458629,-0.45033116,0.07361709790000001,0.557810456,0.804455293,1.0903776200000002
200,1778413281310,0.29090111333333335,-0.44072016444444445,-0.038759035444444444,0.45429219444444446,0.4969072833333333,1.1716814333333332
201,1778413281320,0.288657084,-0.44603212000000003,-0.06055231679999999,0.43087639,0.416139704,1.19916956
202,1778413281330,0.2907926977777778,-0.4568457577777778,-0.08761690611111111,0.3673482722222222,0.2849772222222222,1.260933
203,1778413281340,0.3183010711111111,-0.4377118511111111,-0.10568028555555556,0.27280268444444444,0.17477867777777778,1.3404788666666667
204,1778413281350,0.33944052,-0.4179817,-0.10936613400000002,0.16637953,0.1918824,1.4074684
205,1778413281360,0.3606748355555556,-0.40173413888888887,-0.12623365277777776,0.013235026666666668,0.28353494333333334,1.4441192333333333
206,1778413281370,0.4038040466666667,-0.3600413333333333,-0.13872761,-0.32889035333333333,0.48597992,1.5208823666666667
207,1778413281380,0.43316552,-0.30815822,-0.19769447,-0.61509262,0.7075138360000001,1.5502844999999998
208,1778413281390,0.4587157866666667,-0.28130706,-0.23755453,-0.7794919733333333,0.7728744566666667,1.5668995666666665
209,1778413281400,0.456993114,-0.264369086,-0.280699322,-0.869449428,0.80097343,1.5846141599999999
210,1778413281410,0.3544075311111111,-0.22254007777777776,-0.4732762555555555,-1.1616787222222222,1.0177563666666667,1.799768166666667
211,1778413281420,0.3523173155555555,-0.19839910555555557,-0.6272385111111112,-1.438121088888889,1.1598801666666665,2.0617536666666667
212,1778413281430,0.48226594999999994,-0.133550474,-0.8478482599999999,-2.02761588,1.3631973,2.52915198
213,1778413281440,0.56542933,-0.10095101,-0.9220355,-2.296633,1.4448065,2.7263641
214,1778413281450,0.85006992,0.013750800000000007,-0.8925927333333333,-2.7469886,1.4473856222222221,2.888102866666667
215,1778413281460,1.936603577777778,0.5041520488888889,-0.60761679,-4.266080866666666,0.8339592333333333,3.1162882666666665
216,1778413281470,2.41921435,0.631674055,-0.424823571,-4.53436514,0.274430772,2.90033341
217,1778413281480,2.9950665,0.4814847033333333,0.12586099555555555,-4.660552433333333,-0.3586267477777778,2.261449933333333
218,1778413281490,3.13482316,0.302889592,0.44276972800000003,-4.5954497000000005,-0.5046056379999999,1.7969445999999998
219,1778413281500,3.1314665777777773,0.22605991444444445,0.5573495866666667,-4.479063,-0.43790112000000003,1.6326673999999999
220,1778413281510,2.891147711111111,0.06814760666666667,0.7107087755555556,-3.777199577777778,-0.32469076444444445,1.3218140777777778
221,1778413281520,2.71782316,0.092834682,0.610810012,-3.07511966,-0.8157101900000001,1.1459647099999999
222,1778413281530,2.435799366666666,0.020831160666666668,0.4234156333333334,-2.036208411111111,-2.016194811111111,0.9703732444444443
223,1778413281540,2.374898122222222,-0.001893742666666667,0.38458545555555557,-1.8073443,-2.2997637,0.9371160000000001
224,1778413281550,2.1373503,-0.10363410000000002,0.23815413999999996,-0.651621316,-3.9906500199999995,0.91903496
225,1778413281560,1.9349977222222223,-0.22322440222222223,0.15083874555555554,0.5091835955555556,-5.633496255555555,1.0361411777777778
226,1778413281570,1.53996792,-0.243370912,-0.22139707400000003,1.6750501200000003,-6.77144017,1.63274891
227,1778413281580,1.2628920111111113,-0.12543076222222224,-0.9025966922222223,1.5781832777777778,-6.544490155555555,2.5137128111111107
228,1778413281590,1.23183413,-0.0235745459,-1.23819726,0.642229536,-5.77991302,3.0614595600000003
229,1778413281600,1.2613507444444445,0.07024461055555556,-1.0417240777777779,-0.5337532555555556,-4.736280488888889,3.5924096666666667
230,1778413281610,1.57125016,0.5234085960000001,-0.324762856,-3.07625744,-2.1135926,4.7364178
231,1778413281620,2.0236139333333334,0.8341442166666666,0.020458513333333345,-4.080994333333333,-1.0953764000000001,4.9248032
232,1778413281630,2.5481567666666667,1.1305029133333333,0.41899802666666663,-4.774305933333333,-0.5863370166666666,4.578656433333333
233,1778413281640,2.69215706,1.2552622599999999,0.763062816,-4.987125000000001,-0.47015387200000003,4.060210039999999
234,1778413281650,2.6774123,1.2769343,0.89904636,-5.03697,-0.43973368,3.5540621
235,1778413281660,2.6774123,1.2769343,0.89904636,-4.91455632,-0.460258141,3.12412487
236,1778413281670,1.207719491111111,1.1474348777777776,1.5081740399999999,-3.754123044444444,-0.7699305555555556,1.3029456777777777
237,1778413281680,0.27551911,1.1126869000000001,1.78028685,-2.9866231500000002,-1.05546768,1.2559783
238,1778413281690,-0.08640748,1.1788188,1.8330034,-1.9482464444444443,-1.1872071333333334,1.5901117777777778
239,1778413281700,-0.0281327392,1.2226049099999998,1.80056857,-1.8088103699999998,-1.070372408,1.6713544600000003
240,1778413281710,0.35991598844444445,1.4679515222222221,1.7437773444444447,-1.6497456666666668,-0.266660275,1.6754267
241,1778413281720,0.4291307133333333,1.5121546222222222,1.7880278777777778,-1.6705145000000001,0.21398319111111108,1.5147739111111111
242,1778413281730,0.42488454400000003,1.62821688,2.01951428,-1.44382915,1.0106773610000002,0.933512068
243,1778413281740,0.3665762888888888,1.740264088888889,2.159411288888889,-1.0729023111111111,1.3745590555555556,0.4913333066666667
244,1778413281750,0.28583377099999996,1.79118989,2.11300441,-0.7359182,1.49062,0.20593189
245,1778413281760,0.10351552388888889,1.6893227777777777,1.8501282666666665,0.4934458088888889,1.313067088888889,-0.6392771122222223
246,1778413281770,-0.010604275200000002,1.5589019,1.6211799,1.0836888349999998,1.3603262900000002,-1.03984535
247,1778413281780,-0.08729506611111111,1.4406463999999999,1.4096113444444445,1.3616718555555556,1.6660010555555556,-1.242802688888889
248,1778413281790,-0.0417981713,1.3785469899999998,1.3199520100000002,1.46516294,2.0475906000000004,-1.31106143
249,1778413281800,0.05006050911111111,1.3632876555555555,1.298903688888889,1.5131619444444444,2.286078922222222,-1.3374839666666665
250,1778413281810,0.6846029444444445,1.4338844444444443,1.2229711111111112,1.7812560777777777,3.0114938444444443,-1.5514162111111112
251,1778413281820,1.03895088,1.48805936,1.09309735,1.9269635100000002,3.12990491,-1.84488083
252,1778413281830,1.3200194222222221,1.5101592444444445,1.0155233666666668,2.1858405333333333,3.012113266666667,-2.4224167000000003
253,1778413281840,1.7074716199999997,1.54230954,1.0458048999999998,2.4066618699999998,2.80628585,-2.9954651599999997
254,1778413281850,1.860020533333333,1.5697664555555555,1.1275996333333334,2.4786485333333332,2.7453004,-3.1801471333333335
255,1778413281860,2.7075156,1.7402234333333333,1.5520214333333333,2.8150894666666666,2.9053932000000002,-3.6781912666666665
256,1778413281870,3.3701508,1.8439794499999997,1.4964592,3.00396352,3.3091886799999997,-4.10924592
257,1778413281880,3.8271541555555553,1.8765051111111113,1.3204529999999999,3.1426394444444443,3.8818919333333333,-4.8375796555555555
258,1778413281890,3.912558877777778,1.7807847777777777,1.2353024444444443,3.0994050888888887,3.9843785333333335,-5.03915908888889
259,1778413281900,3.94767534,1.6726829199999997,1.2408407399999999,3.0585733999999998,4.074946799999999,-5.19552313
260,1778413281910,3.9961579,1.2045418,1.4857980333333334,3.0979118,4.4017908666666665,-5.6783852999999995
261,1778413281920,4.027775722222222,0.911326888888889,1.6833977444444443,3.598806644444444,4.318647633333334,-5.649607577777778
262,1778413281930,4.0638562899999995,0.45214833200000004,1.6390926000000001,4.511595590000001,4.14287303,-5.52263967
263,1778413281940,3.990425955555556,0.1290454688888889,1.1918716111111112,5.342164566666667,3.8626841555555558,-5.406558388888889
264,1778413281950,3.9681888,0.07476046,1.0818313,5.4155426,3.8332956000000005,-5.3963776
265,1778413281960,3.8421516000000002,-0.02145111777777778,0.7525303044444445,5.596964222222223,3.591468011111111,-5.3563670000000005
266,1778413281970,3.5217907444444445,-0.20212562555555558,0.16475556133333333,5.813136266666667,2.998572888888889,-5.3162121777777775
267,1778413281980,3.1517508,-0.32254320999999997,-0.1587043804,5.77514878,2.4357839,-5.34162272
268,1778413281990,2.8345081222222226,-0.39625279444444444,-0.31077694666666666,5.556309222222222,2.318793077777778,-5.367056888888889
269,1778413282000,2.4899929,-0.47435695,-0.46859442999999995,5.321472,2.2071438,-5.382328
270,1778413282010,1.6684052,-0.6803140900000001,-0.5391320599999999,4.6241748000000005,1.88632688,-5.15562726
271,1778413282020,1.2490430666666665,-0.7666233388888889,-0.5210669788888889,4.300941611111111,1.7283074333333333,-4.923301777777778
272,1778413282030,0.6097063,-0.9036563799999999,-0.49696802,3.74162266,1.45665698,-4.28394808
273,1778413282040,0.2974021766666667,-0.9469522777777778,-0.4723412555555556,3.3427258666666666,1.3368901111111111,-3.7780988333333334
274,1778413282050,0.24013597,-0.9519458,-0.46615526000000007,3.2597864,1.3177502,-3.6712684999999996
275,1778413282060,-0.1150341422,-0.9793132419999999,-0.447227308,2.7074583199999998,1.24628108,-2.91694838
276,1778413282070,-0.31404609111111115,-0.9753075666666666,-0.4286327222222222,2.3991365222222223,1.1801738333333334,-2.458660288888889
277,1778413282080,-0.38896239444444447,-0.9571764666666667,-0.38076748555555556,2.0531509444444445,1.0466019,-1.8763192222222225
278,1778413282090,-0.280065113,-0.93045983,-0.29647766,1.5678463900000001,0.7590082380000001,-0.996719489
279,1778413282100,-0.21392168555555557,-0.9235939333333333,-0.26938223777777776,1.4338197111111113,0.6596641244444444,-0.7603691044444445
280,1778413282110,0.029385861800000003,-0.95167439,-0.17062276199999998,1.07269364,0.348702155,-0.24391130300000002
281,1778413282120,0.08283003422222222,-0.9474739833333332,-0.13878519666666667,0.9387619666666667,0.21614660555555554,-0.07710249555555555
282,1778413282130,0.17187995333333334,-0.9847322833333334,-0.06568472533333333,0.7196713955555556,-0.007050195555555565,0.09173738066666666
283,1778413282140,0.18315093,-1.04336881,0.0421548959,0.45512701800000005,-0.20620676000000002,0.231526379
284,1778413282150,0.17164280111111113,-1.063883211111111,0.08643457911111112,0.39666894,-0.23571068,0.2566322
285,1778413282160,0.08132587933333332,-1.1574252333333332,0.20472739333333334,0.28671643333333335,-0.3770200266666667,0.48101673333333334
286,1778413282170,0.04202683995,-1.19579842,0.24738333199999998,0.24053637500000002,-0.47901116099999996,0.66101305
287,1778413282180,-0.023466815666666665,-1.261977477777778,0.27517866444444444,0.29839039111111115,-0.55246892,1.058810388888889
288,1778413282190,-0.0699553024,-1.3252907400000002,0.20634131,0.300765916,-0.451584102,1.43006982
289,1778413282200,-0.10281087777777778,-1.3741689,0.131213614,0.25434152666666665,-0.3412515188888889,1.628255811111111
290,1778413282210,-0.11381423222222223,-1.4083409555555555,-0.11441724155555555,-0.03214584,-0.11578101066666667,2.182226366666667
291,1778413282220,-0.129961855,-1.41233845,-0.25823152,-0.25257007200000003,-0.08544226320000001,2.4531167599999995
292,1778413282230,-0.1586373,-1.453225,-0.46664307000000005,-0.7141313666666667,-0.151278026,2.911170811111111
293,1778413282240,-0.11478989499999999,-1.4410596999999998,-0.4829584133333333,-0.864807,-0.17421873333333332,3.0452263333333334
294,1778413282250,-0.1150036605,-1.45955467,-0.494287998,-1.2760904100000001,-0.1296065185,3.43714592
295,1778413282260,-0.19910715,-1.5509475777777777,-0.6850094666666666,-1.9668433555555553,0.16667646555555557,4.2266049444444445
296,1778413282270,-0.10626840099999998,-1.61312159,-1.06191558,-2.7573263199999998,0.312539995,5.03023579
297,1778413282280,0.3342437733333333,-1.5827312222222223,-1.3372629111111112,-3.900387,0.35648026666666666,5.787166933333333
298,1778413282290,0.8242858800000001,-1.4782671333333335,-1.3192538,-5.171611,0.3766382333333333,6.414735933333334
299,1778413282300,1.2978470899999999,-1.31793666,-1.1998230699999999,-5.91532258,0.35419977999999996,6.72913904
300,1778413282310,2.8843215222222223,-0.7495288111111111,-0.7725721888888889,-7.421115477777779,0.09653931788888889,7.049406555555556
301,1778413282320,3.4726824,-0.6499769333333334,-0.5140747133333333,-8.0559041,-0.10722914566666666,6.889364466666667
302,1778413282330,4.07147854,-0.43799810969999997,-0.194999184,-8.625238999999999,-0.27999711,6.206131699999999
303,1778413282340,4.986581733333334,0.10335630300000001,0.4157762722222222,-9.018014333333333,-0.4429915133333333,4.739538366666666
304,1778413282350,5.175683,0.518835159,0.9197457,-9.0189919,-0.49501533999999997,4.2030872299999995
305,1778413282360,4.343119,0.5160056966666666,1.4532758666666667,-8.434859000000001,-1.0336808666666668,2.939956866666667
306,1778413282370,4.092935022222222,0.6046423055555555,1.9605446333333336,-7.743006733333333,-1.5030830222222222,2.6646344777777777
307,1778413282380,3.98560432,0.8531656440000001,2.65847212,-6.5827345600000005,-1.90369018,2.43137062
308,1778413282390,3.900305577777778,1.1684624866666666,2.835636388888889,-5.120333888888889,-1.995629577777778,2.1044450888888893
309,1778413282400,3.7711788222222222,1.270202811111111,2.7803215000000003,-4.410105155555556,-2.1370916222222225,1.888205155555556
310,1778413282410,2.74699246,1.39944142,2.16100432,-1.87332343,-3.01037744,1.09135493
311,1778413282420,2.3868465333333333,1.4101940666666666,1.8401684,-1.4078501777777777,-3.1757948444444444,1.0415030111111112
312,1778413282430,1.9159837499999999,1.3819861,1.32904096,-0.99186324,-3.1084795400000003,1.1408946800000002
313,1778413282440,1.6576814666666668,1.332770788888889,1.0440547555555557,-1.0901418222222223,-2.5921048777777775,1.2855026444444446
314,1778413282450,1.5943376666666669,1.3145210777777778,1.0063391411111113,-1.211225311111111,-2.3592872333333332,1.305457
315,1778413282460,1.105375504,1.1839105,0.8426711219999999,-1.56123396,-1.72098577,1.26013214
316,1778413282470,0.95468986,1.1549149,0.8616966,-1.6139093666666668,-1.6076735666666666,1.2318838444444442
317,1778413282480,0.5342080133333333,1.0460569666666666,0.86349555,-1.525404377777778,-1.4984676666666668,1.152813
318,1778413282490,0.376265868,1.0109127,0.809138684,-1.3626475,-1.61133865,1.1838983500000002
319,1778413282500,0.35394342222222225,1.0059259577777777,0.7863500688888888,-1.252966511111111,-1.7467431444444443,1.213490522222222
320,1778413282510,0.35732573600000006,0.9919359,0.794589064,-1.10816858,-1.78616322,1.07455672
321,1778413282520,0.2850843844444444,0.9900983966666667,0.7957002311111112,-1.0601424222222222,-1.7432138666666668,0.9883593777777777
322,1778413282530,0.16057170555555556,0.9818594444444445,0.8300619944444444,-0.9684474333333335,-1.6570844333333334,0.8857370277777777
323,1778413282540,0.112439492,1.00180844,0.863989424,-0.821009239,-1.50663953,0.834371565
324,1778413282550,0.13542456666666666,1.0375401666666666,0.8776324933333333,-0.73917608,-1.3659817333333333,0.8108743
325,1778413282560,0.3046824066666667,1.0912763555555556,0.9027254444444446,-0.5918940244444445,-0.9894961666666666,0.6652211444444445
326,1778413282570,0.38474806000000006,1.0989299200000002,0.9671723200000001,-0.523954232,-0.815282535,0.537499768
327,1778413282580,0.42593948000000004,1.0803069,1.0972897000000001,-0.2625370611111111,-0.31960037222222226,0.12552910833333333
328,1778413282590,0.310582142,1.03413958,1.1352552900000001,0.032115292000000004,0.002886253999999999,-0.16847167989999998
329,1778413282600,0.22165927666666665,1.0103638166666666,1.1461746000000002,0.24741858666666663,0.11921702333333334,-0.29585369666666667
330,1778413282610,0.020001167,0.93038964,1.113571,1.0191901555555556,0.2439486488888889,-0.5665947888888889
331,1778413282620,-0.0182693586,0.9051930479999999,1.0551774,1.47212666,0.25609772,-0.67645226
332,1778413282630,-0.05928869044444444,0.9021596466666667,0.924854111111111,2.0867476333333332,0.2999429777777778,-0.82199678
333,1778413282640,-0.05727976533333333,0.94122361,0.7110476,2.223373833333333,0.36224938888888886,-0.8835566111111111
334,1778413282650,-0.022415942,0.96100732,0.6722709339999999,2.33684214,0.45657778000000004,-0.95609812
335,1778413282660,0.1513265811111111,0.9874424355555556,0.6909651266666667,2.369366311111111,0.8520131222222223,-1.1312212444444443
336,1778413282670,0.18473639,0.99237496,0.701108,2.3715382,0.9390249,-1.1685508
337,1778413282680,0.30336120555555557,1.0311746533333332,0.9169607111111111,2.4457052666666663,1.6117714333333335,-1.3933426
338,1778413282690,0.5870735155555555,1.1717655777777776,1.0443765777777778,2.5340998,2.2812599666666666,-1.6120259
339,1778413282700,0.65422106,1.2086193399999998,1.02174246,2.54601131,2.55850314,-1.7611948000000002
340,1778413282710,1.0275463333333332,1.4503250555555556,1.004689388888889,2.449081833333333,2.8738242888888887,-2.1864938222222223
341,1778413282720,1.2182112777777778,1.5650201888888888,1.200446088888889,2.365633311111111,2.8970704777777776,-2.510378611111111
342,1778413282730,1.6067950199999999,1.65340138,1.83974756,2.50420649,2.86456066,-2.93664059
343,1778413282740,2.1567011666666667,1.7262185666666667,2.7104325333333334,3.1440647333333334,3.0830902444444446,-3.3015023111111113
344,1778413282750,2.6675094,1.7685361199999998,3.2883077800000002,3.5846350100000004,3.30436286,-3.4605873000000003
345,1778413282760,3.582451622222222,1.640817311111111,3.751333555555556,5.094762844444444,3.9473203888888886,-4.006148555555556
346,1778413282770,3.8602253999999996,1.3370596666666668,3.4687694666666666,6.014580333333333,3.9847857666666666,-4.438899666666667
347,1778413282780,3.82626,0.9563819849999999,3.0953329999999997,6.720312699999999,3.8296305000000004,-4.81172015
348,1778413282790,3.433228833333333,0.46930583,2.5047905666666663,7.404054133333334,3.487556,-4.999453766666666
349,1778413282800,3.2754564100000003,0.334674998,2.2809625,7.5699398,3.3533529,-4.9318736
350,1778413282810,3.1162186,0.18751094,1.8801097,7.6403841111111115,3.012249,-4.295961222222222
351,1778413282820,3.2916081111111115,0.19087156666666666,1.7551566333333333,7.63800861111111,2.952029622222222,-4.231890111111111
352,1778413282830,3.6991089500000003,0.109488089,1.2028018399999998,7.5348162,2.48911084,-4.1984294
353,1778413282840,3.5651876999999996,-0.10274989333333333,0.7347887666666666,7.056957333333333,2.1130733333333334,-4.581702233333334
354,1778413282850,3.4578848,-0.1905294,0.5856744,6.8397944,2.07068058,-4.70909784
355,1778413282860,2.441992022222222,-0.5527862844444444,0.13506546844444445,5.583271333333332,2.428881366666667,-4.9070122666666665
356,1778413282870,1.8490163599999998,-0.70979138,-0.0760715144,4.8658262,2.7084355600000003,-4.80170224
357,1778413282880,1.1909231333333334,-0.7494543,-0.26635700666666673,3.8292998000000003,3.0247374666666667,-4.2438358
358,1778413282890,0.87044716,-0.72800591,-0.327683742,3.1616843599999997,3.06338372,-3.7583751999999997
359,1778413282900,0.7020227111111111,-0.72693945,-0.3122776877777778,2.7313865777777777,2.9903093999999997,-3.3994414444444443
360,1778413282910,0.36966926,-0.7950701,-0.18927255999999998,1.6880001,2.6667046111111112,-2.423044422222222
361,1778413282920,0.279430944,-0.8121571620000001,-0.164131532,1.42655745,2.57181965,-2.1361328
362,1778413282930,0.06978727233333333,-0.8192483244444445,-0.15465672333333333,1.06235672,2.418564888888889,-1.683630777777778
363,1778413282940,-0.07460496359999999,-0.8169287070000001,-0.173717448,0.558543482,2.11789908,-0.97069741
364,1778413282950,-0.11619580499999999,-0.81574875,-0.18183987,0.53227705,2.0978022,-0.9303203999999999
365,1778413282960,-0.213573438,-0.7335519100000001,-0.21318926500000002,0.175236811,1.40491811,-0.23676439700000002
366,1778413282970,-0.22064973,-0.7119182222222222,-0.20731222555555556,0.07821390133333334,1.0829812666666667,-0.010944346666666669
367,1778413282980,-0.1888159,-0.69666262,-0.11507988799999999,-0.020661908,0.565064264,0.373792707
368,1778413282990,-0.13588191666666666,-0.68267195,-0.06332686666666668,-0.07734853244444445,0.2868691466666667,0.6194754777777778
369,1778413283000,-0.09716014333333332,-0.6805580133333333,-0.03281695539999999,-0.11535680666666666,0.13100128222222224,0.7853544555555555
370,1778413283010,-0.015067952099999999,-0.669679352,0.03335865524,-0.16958647200000002,0.0378267158,1.0193360999999999
371,1778413283020,0.006097917,-0.6625082,0.049027253,-0.18877726000000003,0.026750019666666666,1.1592609
372,1778413283030,0.006097917,-0.6625082,0.049027253,-0.19043164,0.027564483,1.193672
373,1778413283040,0.006097917,-0.6625082,0.049027253,-0.19043164,0.027564483,1.193672
374,1778413283050,0.0201261739,-0.650913,0.05532640009999999,-0.15302487920000002,0.0526092207,1.32237749
375,1778413283060,0.12240552333333334,-0.5977381,-0.004746213333333337,-0.025426516,0.09659022,1.7232765
376,1778413283070,0.16619533777777776,-0.5843260833333334,-0.05353293522222222,-0.01863932488888889,0.0976761711111111,1.7341359666666667
377,1778413283080,0.15860681,-0.591254,-0.056649648,-0.010155336,0.09903361,1.7477103
378,1778413283090,0.0084930438,-0.6418768666666667,-0.08786759111111112,0.1593208488888889,0.30530484888888887,2.071662988888889
379,1778413283100,-0.01139700612,-0.6528978320000001,-0.10024365400000002,0.212681752,0.384742134,2.21140451
380,1778413283110,0.04056131088888889,-0.6253007244444445,-0.2430223033333333,0.3227564266666667,0.6810437666666666,2.693760133333333
381,1778413283120,0.092734071,-0.59367795,-0.31228954999999997,0.33527879,0.81532835,2.9041205999999997
382,1778413283130,0.27367112000000005,-0.5304645222222223,-0.6001468022222223,0.22115215333333335,0.9974627,3.1631198
383,1778413283140,0.283903773,-0.56370051,-0.948479138,-0.029335942000000004,1.0544750200000002,3.39377564
384,1778413283150,0.24543438966666667,-0.590850811111111,-1.0953213888888889,-0.1334192211111111,1.0388644611111113,3.468882688888889
385,1778413283160,0.15323387277777778,-0.54900562,-1.4399078777777778,-1.0950964166666666,0.8178735944444444,4.224433
386,1778413283170,0.5354214939999999,-0.283022602,-1.60044092,-2.1287721599999996,0.62382776,4.993585
387,1778413283180,1.965371982222222,0.17271333666666666,-1.2601446222222221,-3.895415333333334,0.40032552777777775,5.357342611111111
388,1778413283190,2.6625821199999997,0.27845529,-0.8591110900000001,-4.6933684,0.37093699,5.272413500000001
389,1778413283200,2.9626864444444445,0.2529551588888889,-0.4461100544444445,-5.2583852,0.5676977011111111,4.960368166666667
390,1778413283210,3.1231701000000003,0.21986039500000004,0.6515775899999999,-5.98202748,1.35635584,4.21060084
391,1778413283220,3.0232524444444446,0.37007241333333335,1.1833006777777777,-5.904788922222222,1.5726772,3.919823877777778
392,1778413283230,3.1119132,0.773038992,1.9554189000000002,-5.002549,1.035661,3.7496552999999997
393,1778413283240,3.243153211111111,1.0301616977777777,2.2352286666666665,-3.347723066666666,0.07747579333333336,3.4801495
394,1778413283250,3.2791919333333333,1.0868079555555556,2.247485488888889,-2.7901976,-0.23998661,3.390355
395,1778413283260,3.1378354199999996,1.0811118800000001,1.79321754,-0.039437825,-1.62740397,2.48380427
396,1778413283270,2.8896401777777774,1.0713429444444444,1.5040275444444444,1.0152535833333332,-1.9705168999999998,2.0026373
397,1778413283280,2.5067163999999997,1.1354015499999999,1.0698795,1.5032187499999998,-2.10245995,1.7587056
398,1778413283290,2.0350067999999997,1.1925085333333334,0.51418652,1.6541998333333332,-2.073546433333333,1.6066046
399,1778413283300,1.84878459,1.1810109,0.30230119,1.53809812,-1.96391968,1.58656882
400,1778413283310,1.5630722555555556,1.129307111111111,0.08217959444444445,0.5660093555555555,-1.3600769333333333,1.633482011111111
401,1778413283320,1.42267452,1.1060035799999999,0.258661428,0.061512317999999996,-1.0786799200000001,1.62431928
402,1778413283330,1.2900244666666667,1.0655906333333334,0.6031042666666667,-0.31389064222222224,-0.832304838888889,1.5689357333333334
403,1778413283340,1.1411337,0.9862771,0.98908216,-0.21316872666666667,-0.7454287900000001,1.3854101333333333
404,1778413283350,1.12671212,0.9782735730000001,1.006092294,-0.048692161,-0.76549851,1.30649542
405,1778413283360,0.8742922111111111,0.87643324,1.2189905666666665,0.8032217355555555,-0.88897788,1.0357339111111112
406,1778413283370,0.7673415,0.8758844666666668,1.1988199666666668,1.3019445533333334,-0.9111041333333334,0.9377268933333335
407,1778413283380,0.5884093100000001,0.857159785,0.91095253,2.088105,-0.7775322,0.7758524
408,1778413283390,0.5152536333333333,0.8444903666666667,0.7765290333333333,2.136429777777778,-0.7116964444444445,0.7552193333333334
409,1778413283400,0.465182637,0.8401802070000001,0.708074832,2.30495568,-0.443826362,0.6778114000000001
410,1778413283410,0.06245282999999999,0.8668323966666667,0.2558651977777778,2.2021299,0.15792947333333332,0.6099055333333333
411,1778413283420,-0.03670945666666667,0.8714938999999999,0.21807166666666666,2.0280383,0.38926243,0.6062404533333333
412,1778413283430,-0.09752092999999999,0.8967139,0.285382505,1.9099819199999999,0.451935348,0.6232627519999999
413,1778413283440,-0.06595574433333334,1.0054279,0.5354275822222222,2.01969,0.39842513,0.593209
414,1778413283450,-0.03644860344444444,1.0554850111111111,0.6146666333333334,2.086747466666667,0.38362905222222227,0.5611734666666667
415,1778413283460,0.035611834599999996,1.19147194,0.79913199,2.4861101000000003,0.26617669,0.32840675999999996
416,1778413283470,0.05398689166666667,1.2506623666666665,0.9708696833333335,2.8991829333333334,0.16584502666666667,0.03749074866666667
417,1778413283480,0.165985296,1.34952382,1.2331756999999999,3.48518892,0.40170843199999995,-0.2831887774
418,1778413283490,0.2994009344444445,1.3752665333333334,1.2176964000000001,3.8426025,0.6550488466666666,-0.5029309000000001
419,1778413283500,0.4014089177777778,1.3758865111111112,1.1537867888888889,4.0361733,0.80708194,-0.63161606
420,1778413283510,0.59123268,1.32455297,0.9926860200000001,4.375499,1.4203726,-1.29988295
421,1778413283520,0.6211304222222221,1.3109200666666667,0.9584841588888889,4.4292196666666666,1.717515811111111,-1.6176592444444444
422,1778413283530,0.8080925222222223,1.2734381555555556,1.0495158800000002,4.335352666666667,2.2700612,-2.1265629666666666
423,1778413283540,0.930334764,1.2174977999999999,1.21327202,4.23256051,3.00514716,-2.66334745
424,1778413283550,0.975978331111111,1.1986877333333332,1.3134269,4.2151513,3.1809108,-2.7733228
425,1778413283560,1.11941278,1.228218,1.6871167,4.26536301,4.172926599999999,-3.1458786200000004
426,1778413283570,1.1344665666666667,1.1981898666666666,1.9217584,4.350488,4.48221911111111,-3.1982011444444445
427,1778413283580,1.3404779333333332,1.118086911111111,2.697985977777778,4.479784111111112,4.584298588888888,-3.1473651222222223
428,1778413283590,1.8007147199999998,1.16183604,3.21719364,5.5349786,4.5441994999999995,-2.71746094
429,1778413283600,2.2339107666666664,1.1152886,3.323486433333333,6.405794111111111,4.251250844444445,-2.6841476666666666
430,1778413283610,3.122475666666667,0.7233077611111112,3.1702798555555556,8.044875333333334,3.5050669666666665,-3.2100787777777775
431,1778413283620,3.13733255,0.19825852000000002,2.57941885,8.921882,3.06393345,-3.7470136
432,1778413283630,2.544694577777778,-0.19227747666666667,1.4890909555555556,9.245428,2.9998962000000002,-4.1336797333333335
433,1778413283640,2.01825792,-0.0346819,0.82109671,8.5839614,3.15855364,-3.8926394199999996
434,1778413283650,1.8103832888888887,0.09340314555555557,0.6031788488888888,8.16407511111111,3.1550514777777776,-3.680023888888889
435,1778413283660,1.5588138999999999,0.6491028911111111,0.7701804677777777,6.552465344444445,2.6599344,-2.6789215333333334
436,1778413283670,1.7530901,0.7895735,1.163955135,6.1931512600000005,2.322594,-2.37937224
437,1778413283680,2.579290055555555,0.7494271888888888,1.7799615666666666,5.7039303666666665,1.427770611111111,-2.110545177777778
438,1778413283690,2.8879733888888888,0.46463415777777783,1.8214071666666665,5.508323533333334,1.4116849666666667,-2.321151755555556
439,1778413283700,2.8443915599999996,0.375418248,1.75209012,5.32964228,1.6659331800000001,-2.5843879000000003
440,1778413283710,2.250202322222222,0.025689167222222222,1.3320797666666666,4.712041844444445,2.6958895333333333,-3.0595387
441,1778413283720,1.68635749,-0.0921273295,1.08449621,4.20928724,3.3115480399999995,-2.94203896
442,1778413283730,1.0680433555555555,-0.14756281444444444,0.715516,3.5983993555555553,3.7271440000000005,-2.3681274777777777
443,1778413283740,0.8720766444444444,-0.16372229000000002,0.5460040888888888,3.396208977777778,3.722053633333333,-2.1160427333333334
444,1778413283750,0.8114497999999999,-0.17196125,0.47560704,3.2109186999999997,3.6830273,-1.8801879
445,1778413283760,0.7610030777777778,-0.17524057555555558,0.43328070444444444,3.2109187,3.6830273,-1.8801879000000001
446,1778413283770,0.6114076,-0.15797669666666667,0.3517176666666667,2.9541591777777776,3.398643888888889,-1.5395387333333332
447,1778413283780,0.46555155,-0.13274249600000002,0.26258849399999995,2.64747323,2.7677718600000003,-1.0824824899999999
448,1778413283790,0.4067615511111111,-0.1332631877777778,0.22250959333333334,2.422874766666667,2.0324415333333334,-0.7670205333333333
449,1778413283800,0.347495887,-0.152618659,0.179168992,2.3807008,1.9023311,-0.7189672
450,1778413283810,0.38301352777777775,-0.18430954,0.19015337555555556,2.210138722222222,1.4999863777777778,-0.5955761
451,1778413283820,0.4125681088888889,-0.21185856666666666,0.19069540888888892,2.126927788888889,1.3139494555555555,-0.5766398377777777
452,1778413283830,0.402608854,-0.25211226400000003,0.16880253,2.0642821000000002,1.1619841499999999,-0.6255075800000001
453,1778413283840,0.34026035777777774,-0.2973378022222222,0.12416375222222222,1.9773380666666667,1.0084579,-0.70369602
454,1778413283850,0.32529336,-0.3049873,0.11467133000000002,1.9512752000000002,0.9732324,-0.72446483
455,1778413283860,0.21926888299999997,-0.365249967,-0.057424084599999994,1.8269067199999998,0.8376242960000001,-0.721288446
456,1778413283870,0.17733080555555555,-0.4026454477777778,-0.14992406333333333,1.6968234,0.6955005000000001,-0.6986056644444445
457,1778413283880,0.1327364,-0.47714674500000004,-0.25725587,1.32760018,0.44155093999999995,-0.607548688
458,1778413283890,0.10101199222222222,-0.5483890533333333,-0.30261251777777776,1.0575378444444443,0.30130041111111106,-0.5603505555555555
459,1778413283900,0.09125533,-0.5746372,-0.3023957,0.8932878,0.21822518,-0.5351022
460,1778413283910,-0.05483246194,-0.6357566259999999,-0.062546332,0.6194449399999999,0.30178144900000003,-0.371883808
461,1778413283920,-0.16765205777777778,-0.6666276444444444,0.05872971444444445,0.5178202999999999,0.5138752533333333,-0.11574706888888889
462,1778413283930,-0.17748663888888888,-0.6654893555555556,0.058675511111111106,0.49745872333333335,0.70038728,0.109010784
463,1778413283940,-0.14339250499999998,-0.68996403,0.003506303500000002,0.43167047700000005,0.9186226380000001,0.45192008499999997
464,1778413283950,-0.11895002666666667,-0.7387321166666667,-0.048681704,0.38770983555555555,0.9897931444444446,0.5950416055555556
465,1778413283960,-0.06296708799999999,-0.769258286,-0.081919414,0.28024146200000005,1.1348626400000001,0.97608818
466,1778413283970,-0.057808251777777785,-0.7833891888888889,-0.12545786355555555,0.2667620866666667,1.2686788,1.2305264
467,1778413283980,-0.06030839933333333,-0.8310546133333333,-0.3031376,0.19834718666666667,1.4476570666666666,1.5662887333333333
468,1778413283990,-0.0412127718,-0.886951181,-0.5960682939999999,-0.12437614500000001,1.6708199999999997,1.9590023700000003
469,1778413284000,-0.032715324,-0.9016685,-0.6860461,-0.24846213,1.7404566,2.0775678
470,1778413284010,-0.025936467777777777,-0.9471724611111111,-1.0222648777777779,-1.7639741666666664,2.0481199,3.0704492666666665
471,1778413284020,0.242123884,-0.77724658,-0.94028651,-2.5462023,1.9887659500000001,3.6527138999999997
472,1778413284030,1.0743512533333335,-0.43040111999999997,-0.5769442166666666,-3.3350818666666666,1.4310284666666666,4.314091888888889
473,1778413284040,1.82631999,-0.20449364499999997,-0.15829582409999998,-3.74710506,0.707452725,4.6784487
474,1778413284050,2.3696707666666668,-0.08801327133333334,0.16762157466666666,-3.8052984444444444,0.47966779888888883,4.712567844444444
475,1778413284060,3.663499722222222,0.22960690022222222,0.781278688888889,-3.6865225999999995,0.26539615777777775,4.317281733333334
476,1778413284070,3.89057765,0.34236753000000003,0.836695175,-3.5716698200000003,0.391094954,3.8955256400000002
477,1778413284080,3.5147476,0.5264941166666667,0.78352135,-3.4047863,0.6545737433333333,3.2740903333333335
478,1778413284090,2.8674606111111114,0.8732386177777777,0.828978,-3.1725286444444447,0.5036944777777778,3.181648822222222
479,1778413284100,2.8226616,0.9268863999999999,0.86954167,-3.09666737,0.394508074,3.2410638999999994
480,1778413284110,3.0235605333333333,1.1501179333333331,1.1962791,-2.3784866,-0.46783264,3.7022942666666663
481,1778413284120,3.3469453200000006,1.32159544,1.26295782,-1.76592888,-0.8531550640000001,3.7651708400000006
482,1778413284130,3.4671263999999997,1.6438730444444445,0.9601915166666666,-0.85279368,-1.30286082,3.169024666666667
483,1778413284140,3.444560777777778,1.9141936333333334,0.6110654555555555,-0.41033665333333336,-1.5060693666666667,2.7328543333333335
484,1778413284150,3.33665812,1.96655984,0.42293014199999995,-0.21608722,-1.5716337,2.397652
485,1778413284160,2.2733475333333337,1.9130012555555556,-0.48403572,-1.05213354,-1.1908722333333333,1.7139102
486,1778413284170,2.1516703666666666,1.8770506333333334,-0.49593343333333334,-1.6280267666666668,-0.9047920777777778,1.3352527222222221
487,1778413284180,1.78766532,1.7274545200000002,-0.23791632699999998,-2.7248827600000003,-0.2524478872,1.040837924
488,1778413284190,1.460457877777778,1.5478003555555557,0.17704963555555558,-3.226215322222222,0.06876273355555555,0.7535903844444445
489,1778413284200,1.19893582,1.39070304,0.495785036,-3.2746758700000003,0.13006465,0.53609482
490,1778413284210,0.9178245333333334,1.2350618666666666,0.7644314799999999,-2.921300688888889,0.00957842777777778,0.25792177555555557
491,1778413284220,0.7002339444444444,1.1336806444444443,0.9082711722222222,-2.5290943555555554,-0.0819807911111111,0.09998382333333333
492,1778413284230,0.43865365,1.1054913499999999,0.870233725,-1.91057755,-0.142251055,0.019585292
493,1778413284240,0.12565773666666666,1.0486790666666665,0.7103158666666667,-1.0739882666666665,-0.26645666444444444,-0.06637873844444445
494,1778413284250,0.011768975555555557,1.0103943,0.6574672444444444,-0.9491039444444446,-0.2904154555555556,-0.07357316222222222
495,1778413284260,-0.266732032,0.978422962,0.59109851,-0.34711396,-0.355742185,-0.0034131094000000002
496,1778413284270,-0.30320874666666664,1.00196902,0.5495544333333333,-0.1998234111111111,-0.3938522611111111,0.03482677844444445
497,1778413284280,-0.16221678,1.05928138,0.48332088399999995,0.12190984,-0.6030742069999999,0.0099186332
498,1778413284290,-0.032552712,1.1073105333333333,0.46365511,0.41010757333333336,-0.9125294199999998,-0.17185168333333334
499,1778413284300,0.02794878511111111,1.1276775333333333,0.46330617777777783,0.5343131844444444,-1.061644022222222,-0.2950392111111111
500,1778413284310,0.0721444542,1.04372252,0.52173775,0.90666533,-1.32008674,-0.9881676199999999
501,1778413284320,-0.01270738077777778,0.9380392,0.5454756133333334,0.9838289188888889,-1.0538387911111111,-1.3419636222222222
502,1778413284330,-0.08152237377777778,0.8709857555555556,0.5174895377777777,0.9441916833333335,-0.6551591333333333,-1.48273
503,1778413284340,-0.07772404299999999,0.84428406,0.5007853179999999,0.8396553600000001,-0.155934034,-1.56511288
504,1778413284350,-0.06529174366666667,0.8350115333333333,0.4935755533333333,0.7851678,0.06910209,-1.5924788
505,1778413284360,-0.05541786759999999,0.75956874,0.436025452,0.514684624,1.096677059,-1.78794994
506,1778413284370,-0.08139363677777778,0.7156887777777778,0.4368920388888889,0.4229353588888889,1.5291034444444445,-1.8605050222222224
507,1778413284380,-0.03492073566666667,0.7332033466666666,0.4871727433333333,0.48035501,1.8536669333333333,-1.9082868
508,1778413284390,0.08519399679999999,0.770044944,0.55717888,0.67741438,2.0010439,-2.00724416
509,1778413284400,0.15093360333333333,0.8029330455555557,0.5795290888888889,0.7173638,2.014116,-2.028013
510,1778413284410,0.4193638888888889,0.9745487666666666,0.6150561944444444,1.0151857222222223,2.1253580666666667,-2.2213800555555556
511,1778413284420,0.651333715,1.1179311,0.6257072499999999,1.1758046500000001,2.27097735,-2.4091815999999997
512,1778413284430,0.9237191800000001,1.3501227666666666,0.6648321666666667,1.2400454,2.606230833333333,-2.8632955666666664
513,1778413284440,1.053034,1.5675914499999999,0.6979370749999999,1.1990168,2.9246222,-3.2659712
514,1778413284450,1.0603294777777779,1.6711171777777778,0.7369569499999999,1.1104778666666666,3.1190794,-3.478783622222222
515,1778413284460,1.5768230777777776,2.023793511111111,1.0790094222222222,0.8102125333333333,3.2625606,-3.5519495333333335
516,1778413284470,1.90317511,2.22474563,1.4921023,0.78944372,3.1145727200000004,-3.73638476
517,1778413284480,2.5492172444444443,2.2488981999999997,2.067068488888889,1.0252308,3.0108916,-4.1564846666666675
518,1778413284490,2.7835396444444442,2.0691926222222223,2.452660177777778,1.4786830333333334,3.2536015333333332,-4.5857067
519,1778413284500,2.76252996,1.9433085399999999,2.53354123,1.83759652,3.5432653299999997,-4.79388347
520,1778413284510,2.462609755555556,1.5203935444444445,2.3427145444444446,2.705849733333333,4.0156676000000004,-4.938233577777778
521,1778413284520,2.22749564,1.21309514,2.06782178,3.52403896,3.7872378400000004,-4.6626736399999995
522,1778413284530,2.117328666666667,0.987334,1.8063147333333331,3.777445555555556,3.570291977777778,-4.487699844444445
523,1778413284540,2.207639,0.8178119333333334,1.4420454666666669,4.414898611111111,2.845241711111111,-3.9749953888888894
524,1778413284550,2.2686446,0.77391709,1.2969902000000002,4.5988858399999994,2.58440328,-3.8403509400000004
525,1778413284560,2.2271285555555553,0.5381716377777779,0.6907008233333333,4.8555230555555555,2.114702388888889,-3.6665173777777778
526,1778413284570,2.0901184444444443,0.39570059777777783,0.43288770777777774,4.835976077777778,1.9591398999999998,-3.608419022222222
527,1778413284580,1.83164944,0.172375912,0.11868375439999998,4.55368322,1.9265206400000001,-3.51635744
528,1778413284590,1.4352158888888888,-0.08168837777777778,-0.12685698911111112,4.172595833333334,2.0106546666666665,-3.4371102666666666
529,1778413284600,1.22177257,-0.166762784,-0.196493169,3.9943913,2.0671376799999996,-3.38123812
530,1778413284610,0.7339859533333333,-0.29098242333333335,-0.32339286666666667,3.6065440555555557,2.1046572444444447,-3.0412812666666666
531,1778413284620,0.28372590444444445,-0.3615658033333334,-0.4267085055555555,3.4050323000000002,2.040111077777778,-2.7589256777777775
532,1778413284630,0.013982520000000003,-0.41382290800000004,-0.46903346399999996,3.04000351,1.67619538,-1.97328097
533,1778413284640,-0.1458621711111111,-0.4523468222222222,-0.48640034000000004,2.8753598,1.4995791,-1.6020487333333333
534,1778413284650,-0.17777798555555557,-0.4621305844444445,-0.4846929211111111,2.796484144444444,1.4213906555555555,-1.4373236033333334
535,1778413284660,-0.190526361,-0.456301006,-0.45786207900000003,2.3275570500000002,0.9713998500000001,-0.56930965
536,1778413284670,-0.17483743666666665,-0.45473181666666673,-0.45517900666666666,2.1388052666666666,0.7797974333333334,-0.27854635666666666
537,1778413284680,-0.081651103,-0.4543253,-0.42821097,1.8409561799999998,0.461220238,0.061985725999999984
538,1778413284690,0.05993913477777778,-0.46232033333333333,-0.3905919011111111,1.4522130333333334,0.2558941033333333,0.36638109
539,1778413284700,0.07965573222222223,-0.46937019999999996,-0.3863911188888889,1.3016731,0.23580401333333334,0.45312139555555553
540,1778413284710,0.0359777085,-0.53596115,-0.38124175499999996,0.78138056,0.41174159,0.69375451
541,1778413284720,-0.016535517333333333,-0.5705719,-0.3803473833333333,0.52331792,0.5169294866666667,0.8269599466666667
542,1778413284730,-0.08452729266666667,-0.5931951666666666,-0.38636401000000004,-0.05962548666666666,0.6331262011111112,1.2388067088888888
543,1778413284740,-0.07055289760000001,-0.61310892,-0.365167652,-0.441734199,0.565369681,1.53623502
544,1778413284750,-0.048536029666666675,-0.6175969855555555,-0.3480318288888889,-0.55022067,0.5285356,1.6230975
545,1778413284760,0.12677568849999998,-0.636637735,-0.17635176000000002,-0.9481876249999999,0.08777112249999999,1.94195985
546,1778413284770,0.23394658000000002,-0.6504749333333334,-0.05852983666666667,-1.1010012999999998,-0.21555273166666666,2.0875450666666664
547,1778413284780,0.3356835355555556,-0.6655435577777777,0.03385699055555556,-1.1502762666666666,-0.39839968666666664,2.146797166666667
548,1778413284790,0.481433554,-0.6917781510000001,0.18905980800000002,-1.13626746,-0.44559780800000004,2.15526768
549,1778413284800,0.5019804866666667,-0.7043906833333333,0.23109071666666667,-1.105888,-0.40674792000000004,2.1563672
550,1778413284810,0.5190749866666667,-0.7288026833333334,0.25255539,-1.0415454555555557,-0.30480430000000003,2.1809367777777777
551,1778413284820,0.5256709,-0.73278666,0.24791080999999998,-0.9802571500000001,-0.19600561,2.2455509
552,1778413284830,0.5514278277777778,-0.7440644266666667,0.18815122544444446,-0.9673614955555555,-0.11211592288888889,2.3430149
553,1778413284840,0.60588292,-0.752153652,0.1105674306,-1.00524079,-0.048058408399999995,2.48433098
554,1778413284850,0.8210675666666667,-0.7680258533333333,-0.09585924955555555,-1.1152543444444445,-0.04600867888888889,2.466745433333333
555,1778413284860,0.9841258777777777,-0.8582106333333334,-0.37658700999999994,-1.6012851888888888,-0.06121198666666667,2.3299155777777774
556,1778413284870,0.95902551,-0.8832070100000001,-0.42651878299999996,-1.6949484299999997,-0.0682774535,2.33100832
557,1778413284880,0.6616036666666667,-0.8975218666666667,-0.5685697333333333,-2.3632153333333332,0.03374082722222222,2.7168874222222223
558,1778413284890,0.497541224,-0.529360138,-0.628646418,-3.2163705,0.25252425,3.54086778
559,1778413284900,0.5605543688888889,-0.28976963,-0.5978329777777778,-3.6735591666666667,0.30150401666666665,4.063237166666667
560,1778413284910,1.8480549555555557,0.9079154277777778,-0.2730985777777778,-4.886498011111111,0.17221650555555554,5.457250222222222
561,1778413284920,2.1937803600000003,1.044365764,-0.329781428,-5.39333841,0.155781323,5.767849
562,1778413284930,3.4247831333333334,0.9530840111111112,-0.3965780311111111,-6.829187488888889,-0.13593896444444445,5.722849766666666
563,1778413284940,4.009271844444445,1.035487211111111,-0.027332234444444437,-7.636472933333333,-0.5070625933333334,5.214107366666667
564,1778413284950,4.5428442,1.21240607,0.483308661,-8.02018,-0.82493392,4.53630452
565,1778413284960,4.674683222222222,1.668159688888889,1.5969494777777777,-7.636812666666667,-1.5097343777777779,1.6194494444444443
566,1778413284970,3.99298904,1.6586151199999999,1.76549924,-6.90904902,-1.72092466,0.32365742799999997
567,1778413284980,2.5995147444444444,1.4937254444444443,1.726391288888889,-5.829586933333334,-1.8223524333333334,-0.6104400322222223
568,1778413284990,1.5242894333333332,1.272743711111111,1.5570182666666668,-5.101126111111111,-1.7899775333333332,-0.6092861866666667
569,1778413285000,1.37071104,1.2408773400000002,1.5407361600000002,-4.82586132,-1.78604098,-0.46900850520000004
570,1778413285010,0.7579202666666666,1.1929862333333334,1.5986298666666667,-3.707359133333333,-1.9363095000000001,0.47019967799999995
571,1778413285020,0.7061794333333333,1.2206403000000001,1.6260501666666665,-3.1199278,-2.0871888000000003,0.8784747333333334
572,1778413285030,0.8032297999999999,1.3130096000000002,1.6528525200000002,-2.31652375,-2.41861155,1.088606175
573,1778413285040,0.9010282055555555,1.434355377777778,1.580109088888889,-1.1609322222222223,-2.845326488888889,1.1925180333333332
574,1778413285050,0.9426891640000001,1.49321512,1.44969432,-0.652965188,-2.98948648,1.1389399399999998
575,1778413285060,0.9305962977777776,1.4239549555555557,0.9890855000000001,-0.035217041888888884,-3.0861362,0.9056913666666667
576,1778413285070,0.9171876533333333,1.3846437333333332,0.8769922333333333,-0.016331681555555554,-2.948831322222222,0.8047658222222221
577,1778413285080,0.8160171039999999,1.22979738,0.736933228,-0.409344002,-2.0591051,0.446727872
578,1778413285090,0.6694936733333333,1.0921064111111112,0.7391826822222222,-0.6569831811111111,-1.5550049888888888,0.2663378922222222
579,1778413285100,0.57089714,1.03036502,0.7870174733333334,-0.7138598544444444,-1.4232655777777778,0.22032073266666666
580,1778413285110,0.29449889999999995,0.889637292,0.9855819,-0.735979307,-0.8932266600000001,0.019203509599999998
581,1778413285120,0.2361655511111111,0.8565811444444444,1.0281189444444445,-0.6444268688888889,-0.7939571777777777,-0.023008580666666667
582,1778413285130,0.14047466400000003,0.7864574679999999,1.07619704,-0.181856865,-0.786817061,-0.11257915
583,1778413285140,0.06085720611111112,0.7239819822222222,1.0662038555555555,0.9130385,-1.1804877233333333,-0.36325049000000004
584,1778413285150,0.038294915,0.7117184,1.0496039,1.235497977777778,-1.3270231666666668,-0.4532486444444445
585,1778413285160,-0.0933499531,0.64500412,0.7654105400000001,2.27587937,-1.7503064599999998,-0.746944011
586,1778413285170,-0.14427332444444443,0.61665182,0.5998317666666666,2.5765536444444446,-1.8564242000000002,-0.8343494744444445
587,1778413285180,-0.18383864555555554,0.6385603111111111,0.25686458333333334,2.6660428,-1.8090496,-0.8175172500000001
588,1778413285190,-0.131074725,0.6803598500000001,0.102460247,2.45190275,-1.620196,-0.75317467
589,1778413285200,-0.024723666666666668,0.7332237,0.016393232844444446,2.2457037,-1.4714547,-0.71285874
590,1778413285210,0.26385687,0.86893484,0.11192726875999999,1.0986546320000001,-0.34346414999999997,-0.8246437999999999
591,1778413285220,0.3098453333333333,0.8933753000000001,0.16835332333333333,0.8548043933333332,0.022499540000000002,-0.9164745066666666
592,1778413285230,0.3734228677777778,1.0161873222222222,0.24064750444444444,0.4599934333333333,0.8541171755555556,-1.237576588888889
593,1778413285240,0.43692792799999997,1.0904294799999998,0.22171415,0.29624564800000003,1.26619478,-1.54776484
594,1778413285250,0.49616716666666666,1.1133915555555556,0.18960116555555556,0.26431869555555554,1.3169358555555555,-1.711661911111111
595,1778413285260,0.6506748177777778,1.0798123222222222,0.14534045333333334,0.19271383333333333,1.2484530555555555,-2.0664963
596,1778413285270,0.8460981399999999,1.14657914,0.274131854,0.0891684318,1.33717518,-2.37375252
597,1778413285280,0.9773944333333334,1.2480606333333333,0.4131440433333333,-0.05332187733333333,1.8293687333333333,-2.7307502111111113
598,1778413285290,1.03440792,1.38935538,0.47621680799999994,-0.20984130520000002,2.4128772,-2.93495314
599,1778413285300,1.0881936,1.4772304666666667,0.5036167833333333,-0.34653703888888887,2.7937354222222224,-3.0005581333333335
600,1778413285310,1.3712318000000001,1.7552752666666667,0.645921838888889,-0.5377322133333333,3.1812500666666668,-3.0311683333333335
601,1778413285320,1.5412637,1.8670450000000003,0.7297987,-0.5819846999999999,3.19526565,-3.05156385
602,1778413285330,2.0918800333333336,2.1127146666666667,1.117616,-0.5398362466666666,3.0860258,-3.1620253666666667
603,1778413285340,2.4668375555555553,2.1673248333333337,1.4480011222222222,-0.3064586688888889,2.948652977777778,-3.5224252333333332
604,1778413285350,2.69903242,2.12228531,1.6993857300000001,-0.15370443,2.9591732,-3.7433484
605,1778413285360,2.7359388666666664,1.7774173777777778,2.1295754222222225,0.7805525222222223,3.3233059666666667,-4.556386222222223
606,1778413285370,2.5157414,1.4919467499999999,2.19395425,1.69258145,3.5138225499999995,-4.93358425
607,1778413285380,2.0957016,1.1348325000000001,1.8708307666666666,2.8855915999999997,3.3668798,-4.825226533333333
608,1778413285390,1.8963099,0.9030710000000001,1.4963780333333334,3.4736508111111113,3.0286994666666667,-4.617267066666667
609,1778413285400,1.87621623,0.79217731,1.33353214,3.80325716,2.75342457,-4.46127713
610,1778413285410,1.9050197666666666,0.5658765333333333,1.0872789333333333,4.6579477111111105,2.1092726555555554,-4.018365311111111
611,1778413285420,1.8870105555555554,0.4611515777777778,0.9461155555555555,4.886269133333333,1.9925328999999996,-3.9086843333333334
612,1778413285430,1.7958791399999998,0.34863618,0.75876382,5.20576274,1.87447644,-3.70950742
613,1778413285440,1.415617811111111,0.07754856277777777,0.21597465555555556,5.287672166666667,1.8391423444444446,-3.5805236000000003
614,1778413285450,1.22909612,-0.0221964189,-0.026242385999999996,5.2712454,1.81705684,-3.4821500399999996
615,1778413285460,0.8132690222222223,-0.20325373333333333,-0.4047695388888889,4.928688888888889,1.6968827555555555,-3.2146940222222224
616,1778413285470,0.5552864866666667,-0.2824453333333333,-0.5455501166666666,4.592858666666667,1.6447571333333333,-2.9889519333333334
617,1778413285480,0.30029192,-0.33328163,-0.64784268,4.07881048,1.64259882,-2.62349728
618,1778413285490,0.014797607999999999,-0.3552341333333333,-0.7298088333333334,3.4532214000000003,1.6893489666666666,-2.146110066666667
619,1778413285500,-0.06169398155555555,-0.3515482811111111,-0.7443726833333334,3.2665057,1.7080816,-1.9986923000000003
620,1778413285510,-0.226732745,-0.3214029,-0.7443971100000001,2.4072421999999998,1.7752748600000001,-1.26176608
621,1778413285520,-0.2822217533333333,-0.31384961,-0.7350225833333334,1.924601611111111,1.774392488888889,-0.8371322
622,1778413285530,-0.334836616,-0.33403779299999997,-0.69200072,1.3513010399999998,1.69928544,-0.33523296599999997
623,1778413285540,-0.32882,-0.3467072333333333,-0.6587884333333334,0.9783991333333333,1.6146220333333334,2.545333333335102e-05
624,1778413285550,-0.3013353233333333,-0.3713902422222223,-0.5897431111111111,0.6658489488888889,1.517972411111111,0.2983055488888889
625,1778413285560,-0.21587539900000002,-0.435705308,-0.42140873,0.18775917160000002,1.31384078,0.8426790399999999
626,1778413285570,-0.20379238,-0.44895914,-0.3890471,0.025952525555555557,1.2124130555555555,1.0954611777777776
627,1778413285580,-0.1197021111111111,-0.5214769311111112,-0.28845179555555556,-0.134819085,1.0377786333333332,1.4131696666666667
628,1778413285590,-0.0391394809,-0.54458666,-0.24124883000000003,-0.248156706,0.8045164,1.6841211600000001
629,1778413285600,0.035855752,-0.5388525666666667,-0.21023583666666668,-0.2810406511111111,0.6523339777777778,1.8013291777777778
630,1778413285610,0.19946285400000002,-0.54214138,-0.110933298,-0.29977329199999997,0.18310146,2.01403978
631,1778413285620,0.2463084111111111,-0.5763174799999999,-0.06272723511111111,-0.2777828,0.03855973133333333,2.0673870666666665
632,1778413285630,0.27176382000000004,-0.6017898799999999,-0.039467072666666665,-0.2557922944444444,-0.047637600555555555,2.121684633333333
633,1778413285640,0.28820279000000004,-0.6191824749999999,-0.048722357,-0.25957953600000006,-0.10682191199999999,2.2064566
634,1778413285650,0.29992604,-0.63174415,-0.061771900000000005,-0.27228516,-0.11415208000000002,2.2333338
635,1778413285660,0.30011574,-0.7471608111111111,-0.17529139777777777,-0.4904255244444444,-0.08028399177777777,2.3529921111111114
636,1778413285670,0.278464424,-0.865892012,-0.275019102,-0.8443436419999999,-0.027045261499999994,2.52220364
637,1778413285680,0.25387660666666667,-0.9753719200000001,-0.35235795333333336,-1.13385126,0.03217977166666666,2.6566256
638,1778413285690,0.1929008177777778,-1.125990577777778,-0.3705128111111111,-1.7665532666666666,0.25865988111111116,2.9748430666666668
639,1778413285700,0.140462461,-1.21106466,-0.325799496,-2.05663106,0.416689472,3.1718549
640,1778413285710,-0.00744962111111111,-1.3854060222222224,-0.04843439524444445,-2.6682317777777778,1.042258111111111,3.9158191777777773
641,1778413285720,0.11208987666666664,-1.3599167333333333,0.1489212934666667,-2.7260585333333336,1.4397160666666666,4.6201940666666665
642,1778413285730,0.336964778,-1.26554328,0.27071703199999997,-2.53449692,1.6454698300000001,5.26008968
643,1778413285740,0.6946746755555555,-1.056907811111111,0.18113862555555554,-2.107202477777778,1.6476078111111112,5.810540111111111
644,1778413285750,1.12513273,-0.794290216,-0.0196932248,-1.7168778100000002,1.54083168,6.1912879
645,1778413285760,2.5476351888888886,0.11553858444444447,-0.9664182477777776,-1.5463768,0.5000293888888889,5.946962666666668
646,1778413285770,3.0777405,0.4714909166666667,-1.1426581666666664,-1.9529296,-0.5620813,5.112562466666667
647,1778413285780,3.27949,0.60872453,-1.1890328,-2.1506405,-1.0408074,4.7195587
648,1778413285790,3.3094006333333335,0.9500960888888889,-0.7742321777777778,-3.472853388888889,-1.1613479222222223,3.665304044444445
649,1778413285800,3.1099309666666666,0.9854064555555555,-0.6143820555555555,-4.014004666666667,-0.9982517000000001,3.5451029000000003
650,1778413285810,2.90941996,1.03660328,0.00256112799999999,-5.36194104,-0.432036996,3.6960230199999997
651,1778413285820,2.929287,1.0365545,0.10198766,-5.5250373,-0.37254047,3.7257102
652,1778413285830,3.3782460100000002,1.1902128099999998,0.8328778419999999,-5.631561410000001,-0.536736201,3.33873837
653,1778413285840,3.5345051,1.2459569,1.0893928,-5.6772146,-0.6071058,3.1728933
654,1778413285850,3.462193888888889,1.2794141222222222,1.3126951444444446,-5.5014857,-0.6969003444444445,2.997028677777778
655,1778413285860,2.7388152900000002,1.39223371,1.9287924099999998,-3.13686866,-1.8160336299999997,1.24541062
656,1778413285870,2.6237202,1.4209366,1.9562422,-3.0303369,-1.8605644000000001,1.2071105
657,1778413285880,2.38415,1.4534011555555555,1.8428853222222221,-2.3651241888888888,-2.128794266666667,1.0626791222222223
658,1778413285890,1.9390400200000002,1.35361554,1.46356706,-0.932244564,-2.4065397600000002,0.724785526
659,1778413285900,1.7536321666666668,1.3129763444444444,1.3306161888888888,-0.7903515322222222,-2.3720472444444445,0.6807638033333334
660,1778413285910,1.2917705000000002,1.2467678599999998,1.05121988,-0.15506357399999998,-2.16892008,0.444406662
661,1778413285920,1.1204007666666669,1.2177133,0.9706155666666666,-0.0009926266666666628,-2.1898111,0.41463803
662,1778413285930,0.9106290222222222,1.1859601,0.8921455222222221,0.3928681133333333,-2.365327966666667,0.41742077222222224
663,1778413285940,0.8712307000000001,1.22927906,0.79891552,0.823406842,-2.55318888,0.421560956
664,1778413285950,0.8866066,1.2505913,0.7733683,0.9824714699999999,-2.6187022,0.41545248
665,1778413285960,0.9471352111111112,1.313769011111111,0.4282499122222222,1.079121022222222,-2.1623908333333333,0.08602765888888889
666,1778413285970,0.81719402,1.2430238,0.21200627,0.84301502,-1.68213589,-0.189362655
667,1778413285980,0.5036371166666667,1.122047277777778,0.019113582777777777,0.31155756,-1.1935191333333333,-0.40539897333333336
668,1778413285990,0.12575598555555556,1.0522192555555554,0.03906731888888889,-0.36042532,-0.6309288466666667,-0.4707596166666666
669,1778413286000,0.0615401753,1.04821358,0.070888281,-0.622483884,-0.40974108200000003,-0.45434817999999993
670,1778413286010,-0.03331156411111111,0.9885570333333332,0.35552886111111115,-1.1861126,0.014125843000000003,-0.27243787
671,1778413286020,-0.01064086472,0.970885942,0.465691819,-1.1961916000000001,0.018096350500000004,-0.27029991
672,1778413286030,0.043176640733333334,0.9693384044444444,0.6976762,-1.0067272,0.029193409444444447,-0.37458512777777775
673,1778413286040,0.08572655000000001,0.9843257333333333,0.8959465500000001,-0.9045121022222222,0.03516613833333333,-0.4204665455555555
674,1778413286050,0.10052416,1.0082296,0.97859365,-0.74630266,0.048944138,-0.47462833
675,1778413286060,0.10454200755555555,1.0323095777777778,1.0504542166666666,-0.38697175777777776,0.14764687399999998,-0.5799655455555555
676,1778413286070,0.14120742466666666,1.1475059666666665,1.2375315333333332,1.2164259333333334,0.69305713,-1.0484174666666666
677,1778413286080,0.23392828400000001,1.18347756,1.0065709200000001,1.63607802,1.011471454,-1.2825349
678,1778413286090,0.28178473,1.1549251666666667,0.9147485,1.8280876444444445,1.2783845777777776,-1.6999879111111111
679,1778413286100,0.291236498,1.1351516799999999,0.9035893080000001,1.85524998,1.32813469,-1.77842071
680,1778413286110,0.2914126633333333,1.1431764444444446,0.9683762822222223,2.0838292,1.8009303999999997,-2.3401558
681,1778413286120,0.3316555333333333,1.1625576999999998,1.0055261,2.160320688888889,2.0494094777777776,-2.5449254
682,1778413286130,0.38778177,1.18627355,1.0396186,2.20599855,2.27952925,-2.702121
683,1778413286140,0.6404946600000001,1.3507834666666667,1.043238411111111,2.278689522222222,2.8383527777777777,-3.1754641555555554
684,1778413286150,0.66744745,1.3694397,1.0415547,2.291585177777778,2.8663075333333334,-3.344329488888889
685,1778413286160,1.3477249150000001,1.84497046,1.4786350799999999,2.29774788,2.72550896,-4.09580716
686,1778413286170,1.654158211111111,1.9971186222222224,1.7262491444444443,2.2775355999999998,2.758671222222222,-4.603896222222222
687,1778413286180,2.33235566,2.1244625299999997,2.56784493,2.4180847,3.49878815,-5.79348142
688,1778413286190,2.2823045222222222,1.8171250333333333,2.789339711111111,2.5661183999999997,4.415229444444445,-6.238464066666667
689,1778413286200,2.287135422222222,1.7092257666666666,2.8321030222222223,2.6564050222222217,4.978176066666666,-6.296019533333333
690,1778413286210,2.6899435,1.4254033,3.01462096,3.13541786,6.591347279999999,-6.018342179999999
691,1778413286220,2.905660666666667,1.3664381333333333,3.0462346444444446,3.624530077777778,7.0276281111111105,-5.9274751
692,1778413286230,3.2410935333333333,0.9027356333333333,2.8081314,4.959952522222222,7.0031942222222225,-6.110389933333334
693,1778413286240,3.0397138499999996,0.410953864,2.31166245,6.195961280000001,6.76947022,-6.3258426
694,1778413286250,2.9346528,0.26949742,2.1432045,6.502851,6.7025213,-6.373733
695,1778413286260,2.24773769,-0.064644024,0.956592465,7.00954875,6.267292830000001,-6.10758696
696,1778413286270,1.6775571666666667,-0.2211816,0.140709434,7.1553714444444445,5.727159622222222,-5.78874508888889
697,1778413286280,1.0077620755555554,0.10122202555555555,-0.3628700971111111,6.292855266666667,4.646333133333333,-4.697839888888889
698,1778413286290,1.064784658,0.48249461,-0.414633935,6.1937623,4.5400457,-4.577766
699,1778413286300,1.1177176,0.62826836,-0.41807315,6.1937623,4.5400457,-4.577766
700,1778413286310,1.6015264222222223,0.8713312844444444,-0.38488695222222225,3.5128214444444446,4.452151933333334,-3.061099833333333
701,1778413286320,1.69024808,0.8687152699999998,-0.34327612500000004,3.0191126,4.5296617,-2.9400842
702,1778413286330,1.0337595222222222,0.41579663777777776,-0.02467962533333333,2.384366,4.688482,-2.924813
703,1778413286340,0.6221298066666666,0.21687241333333335,0.023812364666666665,1.8132237222222223,4.721467611111111,-2.584800122222222
704,1778413286350,0.349813099,0.07773929099999999,0.029407203399999998,1.45832142,4.65293048,-2.2221401
705,1778413286360,-0.017097881111111116,-0.18355406999999999,0.02604149111111111,1.2871484666666668,4.0191968,-1.155315767777778
706,1778413286370,-0.0313493902,-0.21833591599999996,0.04185609999999999,1.24733486,3.64894186,-0.596797774
707,1778413286380,0.09690267177777777,-0.23549137666666667,0.03482587977777778,1.2172404555555554,3.0263662444444446,0.14537316777777776
708,1778413286390,0.24046118,-0.21191276333333334,0.030977416666666664,1.2137789555555554,2.6179384999999997,0.44423017222222216
709,1778413286400,0.307664287,-0.197209672,0.035977708,1.2145934,2.3928413,0.57427275
710,1778413286410,0.4443044,-0.20263377333333332,0.09319649,1.2705877,1.5810254666666665,0.6791349033333334
711,1778413286420,0.4510527666666666,-0.22492166,0.10060546166666667,1.2901348,1.4293317333333333,0.6750625933333333
712,1778413286430,0.443751519,-0.28450439000000005,0.071988958,1.2682257199999998,1.19478666,0.6611352549999999
713,1778413286440,0.40111082333333337,-0.3415138266666667,0.06423139166666665,1.1901595,1.0767370222222223,0.6510358988888889
714,1778413286450,0.37019845,-0.365411573,0.06617459499999999,1.1661532200000002,1.05814013,0.6536218170000001
715,1778413286460,0.23092470888888889,-0.4205767044444444,0.046154456,1.0804106333333334,0.98931806,0.7554908133333333
716,1778413286470,0.19592944555555555,-0.43871461666666667,0.013533988111111112,1.010841911111111,0.9038672844444444,0.8845153166666666
717,1778413286480,0.18459003400000001,-0.46291115000000005,-0.0422036846,0.88736254,0.7869850620000001,1.0716246210000002
718,1778413286490,0.20433102666666667,-0.47066770666666663,-0.06705675666666666,0.7008708666666666,0.75190206,1.2288974333333333
719,1778413286500,0.21056445333333332,-0.4774770577777778,-0.08560119888888888,0.5863030666666665,0.7580105311111112,1.3026742111111114
720,1778413286510,0.165540152,-0.52074984,-0.149002602,0.18604880399999998,0.73549062,1.47771588
721,1778413286520,0.15150614,-0.5246850611111111,-0.14434107777777777,0.029210376444444446,0.6188052222222222,1.5479633444444445
722,1778413286530,0.169354395,-0.5038708749999999,-0.013445904999999994,-0.0824796484,0.23552742516,1.63201596
723,1778413286540,0.19132213,-0.4853332000000001,0.10832949,-0.13965495,-0.0005344914,1.6799064
724,1778413286550,0.19132213,-0.4853332000000001,0.10832949,-0.13965495,-0.0005344914,1.6799064
725,1778413286560,0.394559614,-0.21179894400000002,0.490552992,0.251287306,-0.28250159428,1.6569384799999998
726,1778413286570,0.54995756,-0.039802459944444445,0.5098637322222221,0.4475728833333333,-0.08880192555555554,1.6188894333333332
727,1778413286580,0.6584191777777778,0.03959242005555555,0.3568195722222222,0.6249222,0.50464466,1.4497525777777778
728,1778413286590,0.81121198,0.22753766400000003,0.0578143413,0.685477538,0.8140456159999999,1.20772136
729,1778413286600,0.8470074222222223,0.3373638522222222,-0.220449865,0.7168886522222222,1.0247472222222223,0.9427494222222221
730,1778413286610,0.62250275,0.322890788,-0.8886586160000001,0.608266459,0.89797602,0.533284935
731,1778413286620,0.36565138333333336,0.22623271,-1.1693467333333334,0.48537757111111113,0.7191199266666666,0.43866469444444445
732,1778413286630,-0.26293202222222223,0.1614389622222222,-1.4315028777777778,-0.9304306533333333,0.1330459288888889,1.6689110222222223
733,1778413286640,-0.50664544,0.2116587,-1.4833487,-1.84937064,0.336103433,2.7840125799999997
734,1778413286650,-0.50664544,0.2116587,-1.4833487,-2.0431314,0.39476004,3.025679
735,1778413286660,-0.50664544,0.2116587,-1.4833487,-2.0431314,0.39476004,3.025679
736,1778413286670,-0.50664544,0.2116587,-1.4833487,-2.0431314,0.39476004,3.025679
737,1778413286680,1.907404768888889,1.282801811111111,-1.3398546111111111,-3.2071941444444447,-0.0428696,3.488904933333333
738,1778413286690,2.5971334,1.5888427,-1.2988563,-3.5397835,-0.16790664,3.6212551999999993
739,1778413286700,2.5971334,1.5888427,-1.2988563,-3.5397835,-0.16790664,3.6212551999999993
740,1778413286710,2.5971334,1.5888427,-1.2988563,-3.5397835,-0.16790664,3.6212551999999993
741,1778413286720,2.5971334,1.5888427,-1.2988563,-3.5397835,-0.16790664,3.6212551999999993
742,1778413286730,2.3785739,1.4627513666666667,-0.9124516333333332,-2.796543611111111,-0.38611484,2.980841311111111
743,1778413286740,1.7578837111111112,1.2514179555555556,0.02341938888888888,-0.7426121177777778,-0.9390673666666667,2.0722823777777775
744,1778413286750,1.21469888,1.12357782,0.1111375829,0.67741434,-1.24055446,1.84019268
745,1778413286760,0.7724739333333334,0.9975073999999999,-0.20046900566666664,1.4998591,-1.4073157666666667,2.1614575333333335
746,1778413286770,0.729188908,0.9700322119999999,-0.472356804,1.9521915499999998,-1.48611505,2.6383638
747,1778413286780,0.9685592688888889,0.9634030755555556,-0.7774301800000001,1.8941271000000002,-1.3646922,3.1487988666666666
748,1778413286790,1.1840866777777779,0.9940281333333334,-0.9254740777777778,1.3690699000000002,-1.0584540666666666,3.5294244666666668
749,1778413286800,1.21078401,1.01028755,-0.91524548,1.3178266,-1.0322555,3.5442884
750,1778413286810,1.2175947000000003,1.0847686111111112,-0.7320481333333333,0.48727795555555553,-0.7385737333333333,3.4800138666666665
751,1778413286820,1.1964112222222223,1.1139504444444444,-0.5890248722222222,0.14805410466666666,-0.6244131533333334,3.3836356666666667
752,1778413286830,1.18170304,1.13798706,-0.32789107,-0.0724617515,-0.532582445,3.2513872
753,1778413286840,1.148627277777778,1.1549149444444444,-0.13276519666666664,-0.17135113444444444,-0.4510682822222222,3.0264936000000002
754,1778413286850,1.0735900600000001,1.16520828,-0.036785683,-0.16824260500000002,-0.37730508399999996,2.84889991
755,1778413286860,0.8807153222222222,1.1499824333333333,0.023521019555555557,-0.14732448222222225,-0.19532690000000003,2.6082328555555554
756,1778413286870,0.6412467666666666,1.0977367999999998,0.08204747133333333,-0.11338852333333332,-0.019267140000000002,2.367720333333333
757,1778413286880,0.5720151,1.0804899,0.11076866,-0.028786177178,0.0724006705,2.24213022
758,1778413286890,0.3809402577777778,1.094989377777778,0.21875600111111113,0.11771535348666667,0.13344468,2.147815366666667
759,1778413286900,0.28463043666666665,1.1140792333333334,0.27982325333333335,0.23798439333333332,0.14274313444444442,2.0802149111111112
760,1778413286910,0.215335738,1.20158842,0.35702083599999995,0.7308024200000001,0.0177909264,1.8583959
761,1778413286920,0.23529488999999998,1.3191318333333333,0.3745408111111111,1.1654541777777778,-0.09881303222222222,1.6859469444444446
762,1778413286930,0.392169208,1.5691036600000001,0.18803535,1.82458554,-0.24548423800000002,1.18951808
763,1778413286940,0.49706153333333336,1.7003295666666667,-0.0007588522222222218,1.9087195333333336,-0.27052896666666665,0.7658751666666667
764,1778413286950,0.5268600555555555,1.7380215777777779,-0.08475426777777778,1.9072942,-0.2735832,0.6005392
765,1778413286960,0.41623162,1.8077945199999998,-0.03711802198,1.41928831,0.2329847842,-0.3319725716
766,1778413286970,0.3150996888888889,1.8471098666666665,0.016681189644444445,1.0863155,0.617244211111111,-0.6618869288888889
767,1778413286980,0.19112225333333333,1.8946193777777778,0.14846394222222223,0.9103914999999999,0.8138013,-0.7989882
768,1778413286990,0.0439141453,1.91307191,0.517694821,-0.647994418,2.42466653,-1.41301187
769,1778413287000,0.027074749,1.9026719000000003,0.6152188,-0.9343757377777777,2.7526389,-1.4992227777777778
770,1778413287010,0.261704304,1.8963729399999998,1.72821674,-1.4780976200000002,3.889127,-1.7472675
771,1778413287020,0.5230386611111111,1.9368644222222224,2.2506868777777775,-1.3112684777777777,4.528643333333333,-1.9739868555555558
772,1778413287030,1.0235963166666666,1.9922402000000001,2.9765355000000002,-0.7153530888888889,5.216525388888889,-2.3255633555555555
773,1778413287040,1.58342779,2.0868107,3.46058909,0.48045425,5.75312002,-2.88343574
774,1778413287050,1.8134663000000002,2.0951763555555556,3.6381457999999998,1.1311109222222224,5.912017455555556,-3.1937894222222223
775,1778413287060,2.4234443333333333,1.9629600666666667,4.06977,3.0832260666666667,5.957287666666667,-3.9270097333333336
776,1778413287070,2.65188347,1.9359452999999998,4.1847107,4.01589316,5.9696268,-4.2000176
777,1778413287080,3.4281876666666666,1.7848806000000002,4.095899333333333,5.007861688888889,5.909981111111112,-4.550888444444444
778,1778413287090,4.13540592,1.6146552,3.7396996000000002,6.62349315,5.58951975,-5.3624373499999995
779,1778413287100,4.4838288,1.4416762222222221,3.4200672222222224,7.518299333333333,5.2295567555555555,-6.0556851
780,1778413287110,4.480515333333333,0.74069364,2.5770305999999996,8.427503,4.5359734666666665,-7.263941000000001
781,1778413287120,4.05055324,0.305972136,1.9694960000000001,8.6878056,4.10817678,-7.872683
782,1778413287130,3.4816056333333334,0.06659263666666666,1.3676915333333333,8.667363,3.6286618,-8.143637333333334
783,1778413287140,3.0846244666666665,0.08588915999999999,0.7356831444444444,8.416711666666666,2.910865333333333,-8.024674933333333
784,1778413287150,3.0056632,0.10210961999999998,0.5900649,8.310424,2.6402345,-7.9393344
785,1778413287160,2.9305572666666664,0.1789975711111111,0.20398547333333333,7.614295888888888,2.0239575444444444,-7.73992668888889
786,1778413287170,2.78038789,0.223509981,-0.30683193200000003,6.357469289999999,1.68560245,-7.5094811
787,1778413287180,2.50414,0.10983363866666666,-0.75919066,4.7918169,2.3276843333333335,-7.345387533333334
788,1778413287190,2.024701522222222,-0.08705453822222224,-0.9523048444444444,2.501725,3.547419,-7.073764
789,1778413287200,1.6615512899999998,-0.18809024800000002,-0.90954084,1.8722774279999999,3.8354945999999996,-6.88073624
790,1778413287210,0.5295363266666667,-0.4525738177777778,-0.6302027444444445,0.47892968999999996,4.243581333333334,-6.1619725333333335
791,1778413287220,0.146654896,-0.53218548,-0.5444118333333334,0.08086089666666667,3.998631533333333,-5.528676833333333
792,1778413287230,-0.101057723,-0.59819035,-0.44735841499999995,-0.0871220925,3.3693188500000004,-4.7656013999999995
793,1778413287240,-0.2769944733333334,-0.6807409444444444,-0.22630723777777778,-0.1656499088888889,2.089250311111111,-3.4517027000000002
794,1778413287250,-0.294663528,-0.6957814649999999,-0.1598995694,-0.153032519,1.9220003399999999,-3.2566786700000003
795,1778413287260,-0.3320993133333333,-0.7029204433333333,0.17187994511111113,0.11995513666666666,0.9454048977777778,-1.770371088888889
796,1778413287270,-0.24959450222222224,-0.6656892355555555,0.23216802444444445,0.3703346244444444,0.5430601733333333,-1.1392980055555555
797,1778413287280,-0.020525588000000004,-0.6078403490000001,0.30777100799999996,0.7601230489999999,0.0923371969,-0.42166786600000006
798,1778413287290,0.19993036,-0.5997097899999999,0.32887081333333334,0.9879690566666667,0.009646296666666667,-0.08933641333333334
799,1778413287300,0.348727648,-0.634439454,0.268472986,1.06450821,0.14132714705,0.12365076149999998
800,1778413287310,0.5282693177777777,-0.7209397844444445,0.12044740111111112,0.905301088888889,0.8757004577777778,0.62531245
801,1778413287320,0.53499395,-0.7239514722222222,0.0887450111111111,0.7220469166666666,1.2295846511111113,0.825670361111111
802,1778413287330,0.500898135,-0.701428115,0.044621506,0.55329016,1.3799345600000001,1.0238563680000001
803,1778413287340,0.4639227533333334,-0.6762487800000001,0.020621122888888888,0.5085897055555555,1.3516184111111111,1.087045111111111
804,1778413287350,0.47064330000000004,-0.6567456,0.023440391999999997,0.485363964,1.2051100399999999,1.1663059
805,1778413287360,0.5902241222222222,-0.6679217466666666,0.05141221022222223,0.3944970266666667,0.6742565988888889,1.3473339333333334
806,1778413287370,0.60851115,-0.688582868,0.076147736,0.23735996799999998,0.698228978,1.40136
807,1778413287380,0.5680615777777778,-0.7169286755555555,0.09136373111111111,0.06470738777777778,0.863279891111111,1.461019411111111
808,1778413287390,0.5337574111111111,-0.7354426377777777,0.08775918444444446,-0.23805227666666667,1.1906939799999998,1.5978491666666668
809,1778413287400,0.478701709,-0.76833449,0.082196868,-0.3345916,1.294538,1.6475314
810,1778413287410,0.39173016,-0.8059379222222222,0.041520037555555556,-0.7972065866666667,1.7452075999999999,2.095486066666667
811,1778413287420,0.3640252933333333,-0.7910319266666667,-0.024269706,-0.9810037444444445,1.8468797444444445,2.2790796
812,1778413287430,0.335065275,-0.78635687,-0.07947109799999999,-1.2282611,1.8913358500000002,2.52470805
813,1778413287440,0.33448088,-0.7859096933333333,-0.12172458333333333,-1.4785048666666667,1.8607934999999998,2.7412025
814,1778413287450,0.34261143,-0.78501534,-0.12912339,-1.5587295,1.8516308,2.806385
815,1778413287460,0.22582956666666668,-0.7719251666666667,-0.007571580111111111,-1.8323890999999999,1.7726278,3.2777554
816,1778413287470,0.21498205,-0.77159995,0.0028965105,-1.8531579000000002,1.7728314,3.381803
817,1778413287480,0.21498205,-0.77159995,0.0028965105,-1.8531579,1.7728314,3.381803
818,1778413287490,0.6117226311111111,-0.34062963777777777,-0.35018980433333335,-2.0253490000000003,1.9504522222222225,4.572887333333333
819,1778413287500,0.7833688,-0.17049775,-0.49472398000000006,-2.117044,2.010451,4.985888
820,1778413287510,1.4569447199999999,0.23637965,-0.8430126039999999,-3.1179172,1.7196878000000002,5.1261384
821,1778413287520,1.7424796999999999,0.4254618266666667,-0.9091079199999998,-3.570122233333333,1.4893983333333332,5.132287666666667
822,1778413287530,2.25966228,0.872898488,-0.720365204,-4.08844632,0.21181128,4.905256039999999
823,1778413287540,2.674983366666667,1.1900491666666666,-0.46444783666666667,-4.277822544444444,-0.7829619355555555,4.710531622222222
824,1778413287550,2.856880888888889,1.3126105444444445,-0.3003359577777778,-4.3189529888888885,-1.06205128,4.642523999999999
825,1778413287560,3.2139254,1.5756681499999998,0.419628139,-4.332418819999999,-1.24446388,4.45884898
826,1778413287570,3.274462688888889,1.7370221,0.6489131866666666,-4.1959691,-1.1052178222222222,4.343141055555555
827,1778413287580,3.343341888888889,1.9473460999999999,0.8640070222222221,-3.7259561333333338,-1.0747433,4.148145166666667
828,1778413287590,3.48808754,2.19187184,1.1404933800000001,-3.4934812600000003,-1.1554022800000001,4.041274
829,1778413287600,3.5044591777777776,2.238182744444445,1.2290859666666667,-2.8180251333333337,-1.4580839111111112,3.6736524222222227
830,1778413287610,3.00414484,2.1193858800000003,1.15348194,-1.18195888,-2.07582702,2.73792432
831,1778413287620,2.5552406,1.9770157999999998,0.9010688533333333,-0.4902897444444444,-2.354061088888889,2.4152307222222222
832,1778413287630,2.007518888888889,1.741466811111111,0.4851062244444444,-0.09361234000000002,-2.5620546,2.2580393888888888
833,1778413287640,1.4700827,1.47921123,0.085547677,-0.06873559,-2.79529801,2.26155515
834,1778413287650,1.3809206444444444,1.4430854666666666,0.03786467444444444,-0.1579294688888889,-2.7826806000000004,2.2807764666666666
835,1778413287660,1.4739342222222223,1.521786,0.07496372222222221,-0.7945595777777777,-2.348911222222222,2.2218634999999995
836,1778413287670,1.45092608,1.47719598,0.097633744,-1.1996734839999998,-1.95561224,2.02992174
837,1778413287680,1.2606426666666666,1.3350982333333334,0.16160496,-1.7789059555555555,-1.3373398333333333,1.7289777
838,1778413287690,1.1112233999999999,1.2475484,0.210622052,-2.15784844,-0.9214478399999999,1.52951572
839,1778413287700,0.8499886,1.1163456,0.31038398,-2.5800662,-0.490434,1.3115654
840,1778413287710,0.49295559999999994,0.9250235,0.52734786,-2.8512824,-0.21555273,1.0794435
841,1778413287720,0.4929556,0.9250235,0.52734786,-2.8512824,-0.21555273000000003,1.0794435
842,1778413287730,0.1531830611111111,0.7899885,0.9738169377777778,-2.169712577777778,-0.7347050288888889,1.0886062
843,1778413287740,-0.10899687555555555,0.696189,1.3868559222222223,-0.9761848555555555,-1.3653029888888888,1.1170445333333334
844,1778413287750,-0.0891332514,0.7205054719999999,1.42285738,-0.38784219799999997,-1.4864815,1.1047325799999999
845,1778413287760,-0.08986974155555555,0.7699636355555556,1.2907290666666666,0.9528793444444444,-1.4994858444444443,0.93603011
846,1778413287770,-0.14247782199999998,0.76682524,1.20550328,1.21978565,-1.4067049,0.8839723349999999
847,1778413287780,-0.16815005,0.7651666,1.1672328,1.7223432333333333,-0.9959440555555555,0.8254667111111111
848,1778413287790,-0.17739178777777778,0.993160928888889,0.8447884622222221,1.8309383000000001,-0.8972583,0.8155574
849,1778413287800,-0.11765931,1.1136625,0.7165052,1.9592161999999997,-0.622377,0.7758524
850,1778413287810,0.21729248822222222,1.351955611111111,0.5200574533333334,1.9027468,-0.27582299311111114,0.447420182
851,1778413287820,0.479296265,1.52109495,0.352734,1.7652110800000003,0.0026419148000000016,-0.0767987764
852,1778413287830,0.54811126,1.5734456,0.30550563,1.6867783,0.062382776,-0.3579565
853,1778413287840,0.5525559444444444,1.566724311111111,0.26483929666666667,1.5373243333333333,0.15750526888888888,-0.78745
854,1778413287850,0.5077674054,1.5220797099999999,0.211515384,1.2909493,0.31718245,-1.4507623
855,1778413287860,-0.019584476,1.1067650777777778,0.2912941022222222,0.12239853333333331,1.5278816666666666,-2.220633466666667
856,1778413287870,0.032483604799999996,1.04782938,0.359075808,-0.491319746,2.39736162,-2.16630868
857,1778413287880,0.26170566,1.0732469,0.3730502177777778,-0.9879266855555557,3.172418322222222,-2.1245268222222222
858,1778413287890,0.512654928,1.1134429899999998,0.323622544,-1.31646748,3.6212704799999997,-2.21340514
859,1778413287900,0.64408232,1.1305808444444443,0.3178234222222222,-1.4656092222222223,3.785649444444444,-2.2931885888888885
860,1778413287910,0.9073548,1.1153852,0.5549409,-1.65646504,3.6962214799999997,-2.7474994600000002
861,1778413287920,1.2617369777777778,1.1221961555555555,1.1067447777777777,-1.2043702777777776,3.086093611111111,-3.2351235
862,1778413287930,1.5130794888888888,1.1191168,1.6463087777777776,-0.51316262,2.734330433333333,-3.6162922333333336
863,1778413287940,1.43745273,0.9923719219999999,1.98296636,0.500917676,2.64438824,-3.9273967
864,1778413287950,1.3592256,0.9364875533333333,2.089329288888889,0.9275631,2.6898573333333333,-3.9730269555555555
865,1778413287960,1.13557848,0.966952732,2.05796152,2.86626334,3.21682864,-3.2473402800000004
866,1778413287970,1.2695964333333334,1.01768128,1.8667552666666667,3.533649666666667,3.2928994666666664,-2.8141987
867,1778413287980,1.7243322499999998,1.1780168400000002,1.6606304600000001,4.33909245,3.21585129,-2.2732681300000004
868,1778413287990,2.2456323222222223,1.4102381444444445,1.5271114222222222,4.917532666666667,3.0279274999999997,-1.9522000444444447
869,1778413288000,2.5310013,1.5473465,1.46475,5.17548,2.9060295,-1.8294875999999998
870,1778413288010,3.8134904900000004,2.00840073,1.10836958,5.7391087,2.48789687,-2.30955248
871,1778413288020,4.130173144444445,2.0613906,0.8361090999999999,5.814493766666667,2.4058049333333336,-2.764957755555556
872,1778413288030,4.0106364800000005,1.8251187500000001,0.363816964,5.37266151,2.39540699,-3.5804355
873,1778413288040,3.5846130444444446,1.4470458666666666,0.04630690322222222,4.783876,2.373905166666667,-4.241392666666666
874,1778413288050,3.3277491400000003,1.2791905399999999,-0.007549220400000001,4.50811398,2.3822737700000003,-4.43751534
875,1778413288060,2.3091829444444443,0.7268547444444444,-0.13968972999999998,3.599417466666667,2.576095666666667,-4.6146202
876,1778413288070,2.0610806,0.6191062350000001,-0.172327135,3.31751145,2.5654058500000003,-4.5117943
877,1778413288080,1.3587242666666666,0.3062916077777778,-0.18059319222222223,2.8107457444444446,2.1909225444444447,-4.045310566666667
878,1778413288090,1.2007171222222222,0.20651951666666668,-0.1476203988888889,2.6012931,1.8595717666666667,-3.678802166666667
879,1778413288100,1.1247913,0.14967337,-0.12278154999999999,2.5463169,1.7428999,-3.5503206
880,1778413288110,1.0906530444444444,0.033792619999999995,-0.16632406444444445,2.2826937555555555,1.427295477777778,-3.1297183888888886
881,1778413288120,1.0194344699999998,-0.028489465600000003,-0.20807005900000003,2.15144979,1.33851899,-3.04087408
882,1778413288130,0.6164485688888889,-0.2616514488888889,-0.3351516577777778,1.7780661111111111,1.241122911111111,-2.826127177777778
883,1778413288140,0.32778132800000004,-0.42221368000000004,-0.438385332,1.49436144,1.19338178,-2.6226421600000003
884,1778413288150,0.25560096277777783,-0.46566065999999995,-0.46808625666666664,1.3624184,1.1735903,-2.5221884
885,1778413288160,0.03658411166666667,-0.6604111555555555,-0.5797086311111112,0.7918871177777778,0.9056998777777778,-1.9837603444444443
886,1778413288170,0.0081346212,-0.747000884,-0.59184552,0.37577797,0.615886768,-1.5717099399999999
887,1778413288180,0.07551253733333334,-0.8223514622222222,-0.4649830888888889,-0.04868113333333334,0.2803534511111111,-1.1388907555555554
888,1778413288190,0.155935932,-0.9009306,-0.32484212,-0.41326872000000003,0.0554191204,-0.7335054
889,1778413288200,0.20498148,-0.9485309999999999,-0.25748456,-0.600921,-0.005421269,-0.49234289999999997
890,1778413288210,0.27275304,-1.058791388888889,-0.09226487488888888,-0.79428808,0.04018865888888889,-0.18430619333333334
891,1778413288220,0.298389356,-1.12493445,-0.0190315986,-0.9298011599999999,0.088404868,0.06421531999999999
892,1778413288230,0.2783360222222222,-1.257620777777778,0.09170589177777777,-0.8759380333333334,0.06041449011111111,0.46615283
893,1778413288240,0.24188403555555554,-1.348940511111111,0.17424458333333334,-0.6834532533333334,0.04107099577777778,0.7141568111111111
894,1778413288250,0.21449423000000004,-1.3775499,0.1934869,-0.63512844,0.037948888,0.7605812
895,1778413288260,0.09830858116666667,-1.3771026777777777,0.11690384288888889,-0.3824158366666667,-0.04471910866666667,1.0295576
896,1778413288270,-0.03149574125,-1.33241005,-0.0018598640000000014,-0.11595408040000002,-0.1150072664,1.41101134
897,1778413288280,-0.11902117400000001,-1.2810808333333332,-0.15948084333333334,-0.17525377555555555,0.14637428,1.8170075555555556
898,1778413288290,-0.35070813222222225,-1.175420922222222,-0.6866321911111111,-0.7059867,0.9565359099999999,2.634100666666667
899,1778413288300,-0.38096735,-1.1625679,-0.76412994,-1.28348172,1.5509717200000002,3.1183447600000003
900,1778413288310,-0.5112256111111111,-1.0609324933333335,-1.3200059555555557,-3.0068109222222223,2.9499001666666667,4.1919224
901,1778413288320,-0.2137658611111111,-0.9082643822222223,-1.1490271222222221,-5.3474587,4.500815833333333,5.436735622222222
902,1778413288330,0.34689522500000003,-0.7752586499999999,-0.7438849000000001,-6.842466419999999,5.311454299999999,6.2088804
903,1778413288340,1.3793047555555555,-0.5275307944444445,-0.4215625422222222,-8.32211511111111,4.9288246000000004,6.5781036111111115
904,1778413288350,2.08135928,-0.156655494,-0.14465477999999998,-8.5082621,4.38959411,6.31034213
905,1778413288360,3.4871445555555556,0.8358482266666667,0.9353222122222223,-8.188212,1.6331594666666667,3.8842672888888887
906,1778413288370,3.617192711111111,0.9463221333333335,1.4789176777777777,-7.241322866666668,0.25210174,2.308960244444444
907,1778413288380,3.31213839,0.9063029,1.68142741,-5.11042456,-1.7694718479999998,0.45804383600000004
908,1778413288390,2.9557652777777776,0.8165043111111111,1.4505351333333332,-3.2275386666666668,-3.5900173333333334,-0.8758871444444445
909,1778413288400,2.681071,0.7327257,1.1228398,-2.440182,-4.459796,-1.3224844
910,1778413288410,2.09827482,0.539113779,0.7203468900000001,-1.91595297,-5.733480999999999,-1.27471606
911,1778413288420,1.778101711111111,0.4418889411111111,0.5572276111111112,-2.098514777777778,-5.887218399999999,-0.7624731055555556
912,1778413288430,1.69732466,0.480906132,0.509102884,-3.22725884,-4.4918192,0.489471906
913,1778413288440,1.7453727666666667,0.5941335777777778,0.6716787333333333,-4.017126577777778,-3.2839827333333336,1.2248251666666665
914,1778413288450,1.7587678333333332,0.6371916444444444,0.7761834666666666,-4.100880488888889,-3.1177644444444446,1.3175382000000002
915,1778413288460,1.71188941,0.713059895,1.01650136,-4.06951024,-2.72523398,1.6402012
916,1778413288470,1.6670586666666667,0.7053765033333332,1.0862319999999999,-3.4921374666666667,-3.2930775666666667,1.7346789333333335
917,1778413288480,1.6101142666666666,0.7047260766666666,1.1477194333333331,-2.7126454666666664,-4.1073371666666665,1.7452670000000001
918,1778413288490,1.48233038,0.6489616500000001,1.10069535,-1.87887457,-4.85373118,1.6996366600000001
919,1778413288500,1.3899760777777777,0.5992016222222223,1.0443292444444445,-1.6375288,-5.0565934,1.6829605
920,1778413288510,1.1535002,0.53416529,0.8222980200000001,-1.3499419199999998,-5.08811324,1.79193566
921,1778413288520,1.0332920333333333,0.6293964999999999,0.4588479033333333,-1.3302726666666667,-4.746486999999999,2.270595666666667
922,1778413288530,1.0919404222222222,0.6210118699999999,0.41055579999999997,-2.4768753111111113,-3.891300666666667,2.6864893
923,1778413288540,1.38036098,0.474363032,0.9029978419999999,-3.60648796,-2.81731908,2.92904318
924,1778413288550,1.4935628,0.45767912,1.4027648,-4.1720104,-1.9992267000000001,2.98292
925,1778413288560,1.2845566666666666,0.5005373366666667,2.226898333333333,-4.0378276,-0.33385348,2.5365432
926,1778413288570,1.1177176,0.526006315,2.4436183,-3.6975043100000002,-0.11366340100000001,2.35886305
927,1778413288580,0.83950014,0.6185015333333334,2.6200513333333335,-1.9743431722222222,-0.6612675933333334,1.9404666222222222
928,1778413288590,0.527799046,0.70198304,2.5262695,0.765605434,-1.8627635000000002,1.4755167999999999
929,1778413288600,0.5039318,0.7078157,2.5119455,1.1791643,-2.0548139,1.4202962
930,1778413288610,0.5039318,0.7078157,2.5119455,1.1791643,-2.0548139,1.4202962
931,1778413288620,0.39334001,0.9216575,1.29477972,3.47425478,-3.02235005,1.082986362
932,1778413288630,0.26560832222222225,0.9804535777777778,0.7830707222222222,4.622179333333333,-2.9220897,0.71761828
933,1778413288640,0.21262419999999999,1.0912933333333334,0.3508233066666666,4.410283088888889,-2.2730560222222227,0.6223261111111111
934,1778413288650,0.19360886,1.13303562,0.21296973279999998,4.06610456,-1.7530553000000002,0.545562964
935,1778413288660,0.09446012222222222,1.3107404777777778,0.13290748755555556,3.0016016666666667,-0.5032617933333333,0.39488728666666667
936,1778413288670,0.106637315,1.42909255,0.18691639,2.5927107,0.019287496000000005,0.33665319200000005
937,1778413288680,0.30215178111111113,1.6686644222222222,0.26167514666666664,2.0081518999999997,0.800769838888889,-0.039620222222222216
938,1778413288690,0.42909345000000004,1.6811346222222223,0.31791488777777777,1.8568653333333331,0.8969443388888888,-0.5823410444444446
939,1778413288700,0.435013164,1.65706614,0.34959356599999997,1.85476128,0.875985494,-0.8437022200000002
940,1778413288710,0.3320247733333333,1.581457411111111,0.42647473888888887,1.9406871555555556,0.8083036411111111,-1.4980689444444444
941,1778413288720,0.12478032166666668,1.4621551,0.40992228888888893,2.075956066666667,0.7510876111111111,-2.0913374444444446
942,1778413288730,0.07291279440000001,1.33984038,0.354038938,2.01492556,0.95796122,-2.4069826
943,1778413288740,0.24122342533333332,1.2767987666666667,0.37884324333333336,1.6793125,1.5310038666666665,-2.521713211111111
944,1778413288750,0.32265297200000004,1.27708368,0.40177345000000003,1.6024815000000001,1.654938,-2.5325727
945,1778413288760,0.9022104966666666,1.4129280333333334,0.5897566333333333,0.8778129577777778,3.1810975333333333,-2.9736130444444444
946,1778413288770,1.0593199544444445,1.481800611111111,0.6300503000000001,0.72001074,3.550677,-3.1210986666666667
947,1778413288780,1.4693846,1.72818015,0.8414515249999999,0.47705642800000003,4.116973,-3.6580741600000004
948,1778413288790,1.4924855,1.8312281999999998,1.2737362111111112,0.3791579777777778,4.591289333333333,-4.424918266666667
949,1778413288800,1.4088627,1.8316617999999998,1.4803607,0.4931827999999999,4.640836,-4.6339636
950,1778413288810,1.9369795111111108,2.074534922222222,2.186919588888889,1.3299078066666667,4.399754555555556,-4.635660666666666
951,1778413288820,2.58958707,2.20438761,2.6453586099999997,1.87650747,4.29772272,-4.7145345999999995
952,1778413288830,3.3827516888888893,2.2151358888888892,2.9042683666666664,2.4588892,4.2382874,-4.91251
953,1778413288840,3.87256742,1.8048615399999999,2.89177244,3.98431224,3.95509841,-6.1160778
954,1778413288850,3.844289233333333,1.5155356,2.7698162,4.3568679999999995,3.8694713,-6.410791244444444
955,1778413288860,3.347674944444444,0.8441142777777777,2.011340288888889,5.303808555555555,3.655674733333333,-6.949083077777778
956,1778413288870,3.01962732,0.5506053,1.45614598,5.34236324,3.4353895999999997,-6.71250888
957,1778413288880,2.6565743444444445,0.48716933333333334,1.0254087555555556,5.023930222222223,3.1805035555555556,-6.0521559
958,1778413288890,2.52206493,0.6682493300000001,0.79012231,4.556859510000001,2.98519522,-5.41074013
959,1778413288900,2.5375872,0.7258655,0.7455313,4.3922973,2.9170246,-5.1959434
960,1778413288910,2.52034828,0.561874234,0.665977898,3.96983533,2.63989096,-4.65247222
961,1778413288920,2.378953288888889,0.3066608577777778,0.41113510666666664,3.673940866666667,2.5276350888888888,-4.328607733333333
962,1778413288930,2.2176447,0.161274655,0.152615609,3.2823877500000003,2.60877595,-4.11260555
963,1778413288940,1.9498394,-0.04408793666666667,-0.10481302066666667,2.7480999333333336,2.7367484,-4.046532233333334
964,1778413288950,1.8557180999999998,-0.110951595,-0.16500962,2.604958,2.7642365,-4.064654
965,1778413288960,0.9833439799999999,-0.379720329,-0.23171168300000003,2.0844399499999997,2.7000976999999997,-3.86735035
966,1778413288970,0.40712743111111105,-0.5323413555555556,-0.25495389,1.9322032333333334,2.516504111111111,-3.533691966666667
967,1778413288980,0.14259978199999998,-0.59313825,-0.245776524,1.85757124,2.1977368200000003,-2.9828129599999995
968,1778413288990,-0.19459468333333332,-0.6764114166666667,-0.22853975333333335,1.8199430333333335,1.6093280666666665,-1.8740794666666665
969,1778413289000,-0.206765108,-0.6716763840000001,-0.225799759,1.8107192400000003,1.4300851399999999,-1.5181387499999999
970,1778413289010,-0.03822377511111111,-0.6071899044444444,-0.2228212744444444,1.6688601333333333,0.9735717555555556,-0.6470229888888889
971,1778413289020,0.016866837200000002,-0.58865021,-0.198877458,1.62019595,0.8703046249999999,-0.4782934
972,1778413289030,0.13092227666666667,-0.5454756022222222,-0.13717940577777776,1.4992481999999998,0.652334,-0.13988402133333333
973,1778413289040,0.17025383666666666,-0.5356105200000001,-0.11229313199999999,1.4332767666666666,0.551747811111111,0.025969491333333334
974,1778413289050,0.16819274,-0.54190356,-0.11771418200000001,1.39125052,0.513020072,0.10526425000000002
975,1778413289060,0.07047837,-0.6069663055555555,-0.1736009111111111,1.1896844222222223,0.3693759377777778,0.34506929555555554
976,1778413289070,0.01641864166,-0.645424855,-0.1351084938,1.06456931,0.227029015,0.5035977380000001
977,1778413289080,0.0004573438,-0.657142,-0.117171474,1.0246199,0.17661121,0.55839074
978,1778413289090,0.02134880704,-0.65035502,-0.07124196520000001,1.01020391,0.1175422818,0.660829832
979,1778413289100,0.1218939688888889,-0.6188165888888889,0.12467867888888888,0.9863401555555554,-0.036913836444444445,0.9757352
980,1778413289110,0.25321598,-0.5842596820000001,0.17748596,1.03879154,0.1507723662,1.0804207799999999
981,1778413289120,0.3106854666666667,-0.5721167277777778,0.17424457999999998,1.0445742333333332,0.22479178777777775,1.0686518333333332
982,1778413289130,0.3226103,-0.5729298,0.16177773,1.0453887,0.24082652999999998,1.0641723
983,1778413289140,0.22460457800000003,-0.6569834460000001,-0.0571313788,0.9959101499999999,0.367577325,1.04767935
984,1778413289150,0.19171850999999998,-0.6742161666666667,-0.14654310333333334,0.940798141111111,0.35912727555555557,1.080529377777778
985,1778413289160,0.13650797399999998,-0.68368016,-0.21777491,0.661043611,0.15714809300000002,1.16734441
986,1778413289170,0.09402988,-0.7056204666666667,-0.22862106,0.54157546,0.12170282999999998,1.2033097222222222
987,1778413289180,-0.07631542799999999,-0.8019614799999999,-0.310219292,0.27846999,0.25636495,1.3598223500000002
988,1778413289190,-0.20095684333333333,-0.8636073,-0.35584392,-0.23154505222222227,0.6744602066666666,1.7951528333333333
989,1778413289200,-0.26693325199999995,-0.8885945080000001,-0.35979538,-0.32603973,0.75699246,1.8839292999999997
990,1778413289210,-0.4423394977777778,-0.971394788888889,-0.3959783955555556,-1.319888177777778,2.2453556555555556,3.063475288888889
991,1778413289220,-0.5431312811111111,-0.9922767455555555,-0.5470915666666667,-1.6516461555555557,2.758170522222222,3.6001469555555556
992,1778413289230,-0.633030834,-0.889021398,-0.927346788,-2.42436113,3.7234042799999996,4.67515008
993,1778413289240,-0.2679831166666667,-0.5556015400000001,-1.3863004333333333,-3.7603333555555554,4.7769867999999995,5.830460844444445
994,1778413289250,0.07637029999999999,-0.364612748,-1.5810252200000001,-5.1303306,5.5618941,6.68815139
995,1778413289260,1.5037869666666666,-0.2377679311111111,-1.1214374777777778,-7.971276555555556,5.765006955555555,7.194041600000001
996,1778413289270,2.10620822,-0.07551050108,-0.30173410040000004,-9.182943400000001,5.02910556,6.891441240000001
997,1778413289280,2.7437981999999996,0.1750711904,0.399139152,-9.356831333333334,4.308127533333333,6.4707302
998,1778413289290,4.100381266666666,0.82163334,2.1416392,-8.060129,0.67025214,4.119096
999,1778413289300,4.2646571699999996,0.836780572,2.97585049,-8.060129,0.67025214,4.119096
1000,1778413289310,3.7958312999999997,0.41115815199999994,3.7587865000000003,-4.9518332,-1.8152548119999998,2.3407362
