id,timestamp,acc_x,acc_y,acc_z,gyro_x,gyro_y,gyro_z
0,1778413189950,1.1247058600000002,-0.556873968,0.00860416,1.17342228,3.18201036,-4.927414799999999
1,1778413189960,0.9205753777777778,-0.4823079722222222,-0.046039272222222226,1.0055478888888887,3.1188078333333333,-4.773440444444445
2,1778413189970,0.7876001555555555,-0.44055755,-0.059495342,0.9451418955555556,3.061388211111111,-4.717378444444445
3,1778413189980,0.570444895,-0.40320949500000003,-0.0633573585,0.897441516,2.89514112,-4.61966992
4,1778413189990,0.36819559555555553,-0.38483275111111115,-0.08986635888888889,0.8963420000000001,2.4099450555555553,-4.376593322222222
5,1778413190000,0.259789536,-0.373558384,-0.119269154,0.90367216,2.2755587,-4.3138795
6,1778413190010,0.07858182122222222,-0.3217972511111111,-0.1245973797777778,0.8410264111111112,1.592156477777778,-3.893752488888889
7,1778413190020,0.017795755333333333,-0.29855402,-0.10870553266666666,0.7973169088888888,1.4739235888888889,-3.760723555555556
8,1778413190030,-0.0905754,-0.263100719,-0.056649649999999996,0.6644644000000001,1.2227024400000002,-3.35668194
9,1778413190040,-0.11358386666666667,-0.22371224333333334,-0.043803369999999994,0.6082257133333333,1.1306273333333334,-3.0787466
10,1778413190050,-0.12302547999999999,-0.20467658000000002,-0.03884373,0.5835882,1.090515,-2.953523
11,1778413190060,-0.02842645666666667,-0.10378993222222221,-0.039006339333333334,0.4451294955555556,1.0470771111111112,-2.624157444444444
12,1778413190070,0.007683375000000001,-0.0356972043,-0.019650536000000003,0.38017607,0.999559919,-2.5078945999999998
13,1778413190080,-0.007500438,0.011708000666666668,0.07603085733333333,0.4412608,0.7307260233333334,-2.4710807999999997
14,1778413190090,-0.026739365100000002,0.023775777300000002,0.1648663268,0.620422325,0.399463569,-2.45829362
15,1778413190100,-0.03567281333333334,0.022640209333333335,0.17982756555555557,0.7039251477777778,0.28968583388888886,-2.4621894444444443
16,1778413190110,-0.14582152222222222,0.014048922111111112,0.08686143222222223,0.9567479799999999,-0.013226541111111108,-2.496872088888889
17,1778413190120,-0.286772832,-0.00444538116,-0.0037319244000000003,1.03262199,-0.198510087,-2.4571331800000005
18,1778413190130,-0.43685474999999996,-0.013486559,-0.08577736333333334,1.0071089500000001,-0.4642354388888889,-2.2250450222222224
19,1778413190140,-0.49682773999999996,0.011775077,-0.10668305549999998,0.8705642469999999,-0.502284429,-1.9945384499999999
20,1778413190150,-0.5045517766666667,0.04107963133333333,-0.10855308333333333,0.81815356,-0.5099811,-1.9113411000000002
21,1778413190160,-0.38727261,0.142813218,-0.0544117104,0.466672042,-0.42678369,-1.48270959
22,1778413190170,-0.3302970522222222,0.17387871666666666,-0.026495447444444445,0.2550881233333333,-0.3234690611111111,-1.2804037222222222
23,1778413190180,-0.272348202,0.18699871699999998,0.0115799446,0.098941985,-0.18348324500000002,-1.18174514
24,1778413190190,-0.2500315155555556,0.18732122444444446,0.015959603222222223,-0.031670734444444446,-0.06569153333333333,-1.1236874777777777
25,1778413190200,-0.24748394,0.18726702,0.014116677000000001,-0.05841227000000001,-0.0432938,-1.1129637
26,1778413190210,-0.24777664800000002,0.20678035600000003,0.0827426314,-0.118763982,-0.00737598076,-1.13886362
27,1778413190220,-0.2957150755555556,0.2133559511111111,0.16130344555555556,-0.09404502666666666,-0.08598523435555555,-1.1948851111111112
28,1778413190230,-0.365155448,0.23871515999999998,0.24997800200000003,-0.0108272681,-0.18580446199999998,-1.21198207
29,1778413190240,-0.3857643866666667,0.2570576866666667,0.2836344366666667,0.052354699,-0.13532812,-1.2021473666666667
30,1778413190250,-0.39775798,0.263594644,0.288894902,0.0884354113,-0.06143596490000001,-1.19402309
31,1778413190260,-0.39896975777777777,0.2824758233333334,0.27821405777777775,0.14011309444444445,0.1480116831111111,-1.2054052555555554
32,1778413190270,-0.40585903200000006,0.29069989,0.28272381199999996,0.16301986899999998,0.249928152,-1.23287301
33,1778413190280,-0.47232429333333337,0.2577996066666667,0.28810625666666667,0.33266572,0.28331436,-1.2654719333333333
34,1778413190290,-0.48713207333333336,0.23250340666666666,0.27094061999999997,0.3923930033333333,0.26831466666666665,-1.2642502333333334
35,1778413190300,-0.4671309,0.2194945,0.23839806000000002,0.47424653,0.2377723,-1.2601779
36,1778413190310,-0.3868077866666667,0.24396749777777782,0.17005735,0.57300018,0.17230134444444445,-1.3914421444444445
37,1778413190320,-0.36008808000000003,0.247154658,0.13805074,0.604051552,0.112227911,-1.51319086
38,1778413190330,-0.3597466088888889,0.24602722444444444,0.1900076888888889,0.6585187888888888,-0.014448233888888891,-1.734874088888889
39,1778413190340,-0.407377436,0.21425641,0.20585957000000002,0.70300885,-0.0417666805,-1.8603353500000002
40,1778413190350,-0.45149653999999995,0.18910657,0.19906988555555555,0.7332458,-0.037185326,-1.9290557000000002
41,1778413190360,-0.630408728,0.151795436,0.11302184,0.5961106,0.2434913545,-1.9259403599999998
42,1778413190370,-0.6730067666666666,0.14433429666666667,0.09483277,0.5108295244444444,0.3731767666666667,-1.884531688888889
43,1778413190380,-0.67690945,0.13609533333333335,0.08579769333333334,0.31237201666666664,0.6967221833333332,-1.7826558666666665
44,1778413190390,-0.6879365,0.12118389599999999,0.0597595878,0.222210966,0.8432440800000001,-1.7567967
45,1778413190400,-0.7221254955555555,0.10646962722222222,0.04474177233333333,0.21219307,0.8571714,-1.7641269
46,1778413190410,-0.8959425270000001,0.0813218235,0.0077260605199999995,0.43967258600000003,0.28709821199999996,-1.6700564199999999
47,1778413190420,-0.9068686144444444,0.10074097222222221,0.019174561933333334,0.6933370888888889,-0.31104851666666666,-1.5379776444444444
48,1778413190430,-0.9040771249999999,0.11733001000000001,0.0315384281,0.862439975,-0.59653815,-1.45137304
49,1778413190440,-0.9267411,0.16717439,0.061060477333333335,1.2017656666666667,-0.9616007999999999,-1.2774852666666667
50,1778413190450,-0.9434494,0.18393350222222224,0.07981834644444445,1.2834834666666668,-0.9791796333333332,-1.2328934333333335
51,1778413190460,-1.02043755,0.20794810999999996,0.0786478819,1.64841712,-0.9664062,-0.9817536800000001
52,1778413190470,-0.9548354888888889,0.25578389555555553,-0.03498171511111112,1.8485849777777779,-0.9292259555555555,-0.8788734444444445
53,1778413190480,-0.98523121,0.26139940000000006,-0.09377071699999999,1.9821229500000002,-0.870686425,-0.8912261499999999
54,1778413190490,-1.1683405000000002,0.23941437333333335,-0.14792530666666667,2.1170185,-0.85205555,-1.0036220333333334
55,1778413190500,-1.2926729700000001,0.22336973699999998,-0.165863347,2.1614068,-0.8593857,-1.0421054
56,1778413190510,-1.7210895222222222,0.15378946666666668,-0.14654987777777775,2.4040573111111114,-1.0984984222222223,-1.0846611066666665
57,1778413190520,-2.11464164,0.0191291652,-0.15699696800000001,2.6881555599999998,-1.4245416800000001,-0.8505437240000001
58,1778413190530,-2.3476979555555557,-0.029818812444444447,-0.19538065000000002,2.7983931888888893,-1.5552764666666665,-0.4734066344444444
59,1778413190540,-2.6725407555555556,-0.11670735111111112,-0.2928931166666666,2.6969670333333333,-1.3427694766666667,-0.25021831833333336
60,1778413190550,-2.97242339,-0.22449175700000001,-0.423384467,2.40647848,-0.799034014,0.06849125
61,1778413190560,-3.3600436666666664,-0.40951576666666667,-0.69052808,1.6197887333333332,0.19987428333333332,0.6866686766666668
62,1778413190570,-3.51242756,-0.605379835,-0.9044765779999999,0.813755432,1.07060142,1.27576976
63,1778413190580,-3.051509188888889,-0.8739398777777777,-0.9222591533333334,-0.9749376933333332,2.8744436333333336,2.2162302
64,1778413190590,-2.53358384,-0.858263475,-0.63740612,-2.69404259,4.88126506,2.6656838800000004
65,1778413190600,-2.3116526333333334,-0.8209760633333334,-0.45100193555555557,-3.2425045111111115,5.617520888888889,2.6874648
66,1778413190610,-2.088621355555555,-0.8441210577777778,-0.18715862,-4.5208042,7.559947333333333,2.2532884
67,1778413190620,-2.12439848,-0.9564338400000001,-0.24792909999999999,-4.63637658,7.5202016,2.09357224
68,1778413190630,-2.191398233333333,-1.2679093000000001,-0.21014436666666667,-4.212733533333333,5.817963933333334,2.1461863333333335
69,1778413190640,-2.0983205,-1.49366941,0.13067836,-3.41248288,3.8268205600000003,2.6573229599999997
70,1778413190650,-2.057315,-1.5561883,0.24693514000000003,-3.2532961,3.4649546,2.7691233
71,1778413190660,-1.257728792,-1.64385506,0.6008063800000001,-2.15471788,2.38616796,3.5505191000000003
72,1778413190670,0.28782845333333335,-1.7544520222222222,1.1929456444444446,-0.41929575,1.2633849,4.6635642
73,1778413190680,1.0737211333333334,-1.7915476000000001,1.111762,0.6672488166666666,2.102078233333333,4.5519827
74,1778413190690,1.11909874,-1.77040514,0.494318466,1.3639455999999999,2.6793288,4.42604635
75,1778413190700,1.0332919,-1.7514437,0.26355198,1.5988164,2.8552527,4.3878684
76,1778413190710,0.940176765,-1.7235,-0.12156195999999997,1.377139912,2.74548346,4.50386849
77,1778413190720,0.8396729633333333,-1.8519068666666665,-0.6983232733333333,-0.0460765511111111,2.341665922222222,4.916794655555556
78,1778413190730,0.843439429,-1.9407260100000001,-0.33123580799999996,-1.33399883,2.13414759,5.1970809000000004
79,1778413190740,0.7486785666666667,-2.070310677777778,0.5892213888888889,-2.3712921111111114,2.160515711111111,5.617173144444444
80,1778413190750,0.7728161444444444,-2.1021689,0.7944603444444445,-2.5214248,2.169882,5.6969905
81,1778413190760,1.2450666300000002,-2.14221664,1.71839896,-2.75085892,1.8065502599999999,6.2127900799999995
82,1778413190770,1.4970487333333335,-2.0979984666666667,1.9633361333333335,-2.510972466666667,1.5422705444444444,6.224694822222222
83,1778413190780,1.61666445,-1.9626602000000002,1.9177034,-1.9881551000000002,1.19558078,5.92300415
84,1778413190790,1.4283760666666667,-1.8148924333333332,1.4810925333333333,-1.5713536666666665,1.0677100866666667,5.4642577
85,1778413190800,1.213964149,-1.77479865,1.11972388,-1.6786387899999997,1.20425481,5.34768519
86,1778413190810,1.0106585433333333,-1.5909363,0.2384082,-2.3652768666666666,1.4560053666666668,5.2929409000000005
87,1778413190820,1.0578239,-1.50100222,-0.036185037999999996,-3.3338057999999995,1.5196963799999998,5.18429146
88,1778413190830,1.0693205000000001,-1.5081266333333334,-0.29100275333333336,-4.759034722222222,0.6175835577777778,4.644153144444445
89,1778413190840,1.0293689333333333,-1.6486938,-0.2778312466666667,-5.722943155555556,-0.30180095333333334,4.387325611111112
90,1778413190850,1.0333437499999998,-1.7311803399999999,-0.2073474562,-6.1445737000000005,-0.6402748220000001,4.35469959
91,1778413190860,1.3396343888888889,-2.0439336333333333,0.16542970133333335,-7.0238611111111116,-1.0662593333333334,4.384
92,1778413190870,1.59029394,-2.1393748599999998,0.378442808,-7.72074262,-1.2065913,4.3818824
93,1778413190880,2.020432866666667,-2.1077517444444442,0.6700458899999999,-8.4816813,-1.5579235,4.200474222222222
94,1778413190890,2.2730441000000003,-2.1023787,0.807882485,-8.703916000000001,-1.83832956,3.9839153400000002
95,1778413190900,2.4535238444444443,-2.1217429444444442,0.9332048333333334,-8.768788,-1.9405854000000002,3.8998017
96,1778413190910,2.562476733333333,-2.0614719,1.0429572,-9.133260777777776,-2.651263722222222,3.4168929222222224
97,1778413190920,2.7074444,-1.9108127,1.1306452,-9.198825,-2.7420933,3.3555367000000005
98,1778413190930,2.872779422222222,-1.8233075666666667,1.8281960555555559,-9.512868333333333,-3.237151188888889,2.8747320555555556
99,1778413190940,3.05684602,-1.6254089,2.35841493,-9.503821499999999,-3.44401809,2.56498584
100,1778413190950,3.1219368444444444,-1.4816786555555557,2.626707977777778,-9.40922861111111,-3.430382622222222,2.4312484666666667
101,1778413190960,2.92547558,-0.9285114800000001,3.03479282,-8.70978125,-2.92638586,1.64575995
102,1778413190970,2.6447816333333334,-0.7685001022222222,3.2904765,-8.508160888888888,-2.8639912,1.4395718555555557
103,1778413190980,2.40278042,-0.501181686,3.9278022399999997,-8.0280294,-2.85387832,1.18035544
104,1778413190990,2.474053588888889,-0.23133125555555553,4.198690255555555,-7.4756845555555556,-2.868267177777778,1.0865021555555556
105,1778413191000,2.4406201333333337,-0.12333037200000001,4.3956631,-7.196595333333333,-2.9899615444444447,0.9936533666666667
106,1778413191010,2.1164162600000003,0.16885741159999998,5.314194280000001,-6.408887300000001,-3.3976546599999997,0.9944135599999999
107,1778413191020,1.9396457222222223,0.3671250788888889,5.917218577777778,-5.746766077777777,-3.702888211111111,1.2067712222222222
108,1778413191030,2.9261037599999997,1.4579326600000002,7.4627826200000005,-3.2477602999999995,-4.5755512000000005,2.0067095999999998
109,1778413191040,4.799945111111111,2.411560066666667,7.981614488888888,-0.74665896,-5.053742866666667,2.0653509333333333
110,1778413191050,5.4051266,2.6604296400000003,7.982753,0.539546142,-4.779513140000001,1.581498815
111,1778413191060,6.285414111111111,2.8480624666666667,7.465310355555555,3.0127749999999995,-3.0133094666666667,0.05276192999999999
112,1778413191070,6.58009435,2.7103562,6.70918705,3.7057048999999997,-1.17889703,-1.078756265
113,1778413191080,6.255558033333333,2.1632358666666667,4.968033500000001,4.068208733333333,1.3564202755555557,-2.847354222222222
114,1778413191090,5.489168588888889,1.604775188888889,3.7155486666666664,4.0442498888888885,2.0444548,-3.6144594666666663
115,1778413191100,4.83867575,1.16192454,2.89098583,3.9417362,2.3159967200000002,-4.096662220000001
116,1778413191110,3.8492049333333336,0.44607278888888885,1.7901247222222223,3.0668943333333334,2.340105022222222,-4.613737855555556
117,1778413191120,3.5918069000000004,0.25805166,1.69976384,2.5349779000000003,2.50890245,-4.622663
118,1778413191130,3.4920158333333333,0.18949955444444447,1.7041069000000002,1.8130201222222222,2.922327211111111,-4.582720355555555
119,1778413191140,3.0504340799999996,-0.022714737999999998,1.8517116200000001,0.35342094900000004,4.35703598,-4.31106976
120,1778413191150,2.859787511111111,-0.08878227888888889,1.983974111111111,0.000839915,4.7379603,-4.1996512
121,1778413191160,2.8186279999999995,-0.125318286,3.01355996,-0.18181104850000002,5.36401781,-3.6393821199999996
122,1778413191170,2.8404165333333333,-0.15411129222222222,3.148960822222222,-0.1738624,5.4612036,-3.5503206
123,1778413191180,2.906572,-0.31571963,3.186497,1.5768258666666666,4.9193820666666666,-3.6519248666666666
124,1778413191190,2.8692404799999998,-0.356889715,3.09470504,1.9344159,4.6831064,-3.72685554
125,1778413191200,2.813107811111111,-0.41449571222222226,2.9267427,2.6475224555555554,4.091616088888888,-3.9321002555555555
126,1778413191210,2.6290008200000003,-0.56921608,2.38021204,4.07954352,2.86113216,-4.44692208
127,1778413191220,2.3986459333333334,-0.6638903333333332,1.9657650666666666,4.3906684,2.8799411333333333,-4.564734133333333
128,1778413191230,2.2155926399999997,-0.7080534999999999,1.48279382,4.42125136,3.25592274,-4.58057542
129,1778413191240,2.0997567,-0.71376115,1.0354568,4.304335,3.7551072,-4.543558
130,1778413191250,2.07419422,-0.72039567,0.95754976,4.19102279,3.93176427,-4.5421532
131,1778413191260,1.5709928222222223,-0.8275076055555555,0.34465764666666665,3.6468599000000004,4.193695433333334,-4.4623156
132,1778413191270,1.508187666666667,-0.8407942777777778,0.2917514488888889,3.5533323333333335,4.091751866666667,-4.4200314222222215
133,1778413191280,1.2959994300000002,-0.877755462,0.02046765735,3.2817768299999996,3.6228586999999997,-4.311314299999999
134,1778413191290,1.2117780555555555,-0.9062487133333332,-0.05428500988888888,3.0851518222222225,3.3919244666666666,-4.249197711111111
135,1778413191300,1.1390421,-0.962232988,-0.156362778,2.8105694,3.3261702,-4.1600682
136,1778413191310,1.096805211111111,-0.9903389266666667,-0.23347568444444444,2.6013949555555556,3.349233122222222,-4.105784333333334
137,1778413191320,1.0199680299999998,-1.017102,-0.27776011,2.2130233,3.35225345,-4.0200622500000005
138,1778413191330,0.9459087866666667,-1.0246635,-0.2355422,1.929216811111111,3.2731487777777777,-3.940109055555556
139,1778413191340,0.89759805,-1.0227121499999998,-0.20697854,1.770159,3.1769403,-3.8529954500000003
140,1778413191350,0.8592879,-1.0241756,-0.19964579,1.6800591,3.119826,-3.797103
141,1778413191360,0.7641536722222222,-0.9562956333333332,-0.19576006444444444,1.5369171666666668,2.7633288333333335,-3.6375360666666663
142,1778413191370,0.7256673499999999,-0.914718,-0.15976542,1.49277326,2.51904248,-3.54531174
143,1778413191380,0.6398747666666667,-0.9119942333333333,-0.17761199333333333,1.421467,2.1865787,-3.3670664666666665
144,1778413191390,0.6264633959999999,-0.87052029,-0.13761778,1.35362227,1.9056296400000001,-3.20525302
145,1778413191400,0.6023014133333333,-0.8579768799999999,-0.07095942,1.3441609333333335,1.7940753222222223,-3.1475686555555558
146,1778413191410,0.48461669399999996,-0.8464395940000001,0.089447291,1.5362656000000001,1.30382294,-2.87716686
147,1778413191420,0.47783275999999997,-0.8455371,0.09515799,1.5694957,1.254833,-2.8417377
148,1778413191430,0.47783275999999997,-0.8455371,0.09515799,1.5694957,1.254833,-2.8417377
149,1778413191440,0.354002362,-0.83721651,0.057134433000000005,1.98273382,0.537919727,-2.47115211
150,1778413191450,0.3612846288888889,-0.7852185866666667,0.007903577111111108,2.293027333333333,-0.06711684222222222,-2.1647069777777777
151,1778413191460,0.7190968520000001,-0.667581588,-0.1376299806,2.64331928,-0.829332048,-1.7922258599999998
152,1778413191470,0.7904864833333334,-0.6479374777777778,-0.19256205444444444,2.6763593111111112,-1.0582504577777778,-1.7874747666666666
153,1778413191480,0.818986735,-0.62584138,-0.19721578,2.73793964,-1.25032804,-1.7663259
154,1778413191490,0.8106367000000001,-0.5986528333333333,-0.18013247000000002,2.9044768888888886,-1.5460458666666668,-1.7168880666666668
155,1778413191500,0.7858263400000001,-0.56753312,-0.172961322,3.03224575,-1.7451752500000002,-1.6712170499999999
156,1778413191510,0.69382095,-0.48362577,-0.17720546,3.4187423111111115,-2.186213866666667,-1.522842211111111
157,1778413191520,0.6264220333333334,-0.39590046444444443,-0.2128613377777778,3.6174035111111116,-2.3328850666666665,-1.4215094333333333
158,1778413191530,0.56650254,-0.26904618199999997,-0.28238232399999996,3.7912235,-2.4384259,-1.30476975
159,1778413191540,0.49694972666666665,-0.23045042999999998,-0.48039386,3.8480322000000005,-2.3885400333333333,-1.2247487666666668
160,1778413191550,0.43488513900000003,-0.208594482,-0.6339699050000001,3.76031456,-2.1565809000000002,-1.1703833399999999
161,1778413191560,0.19179980333333335,-0.12486501333333333,-0.7666606100000001,3.0567814666666666,-1.5809999666666665,-1.2579381666666667
162,1778413191570,0.031068882,-0.06961382099999999,-0.7501779319999999,2.8804502,-1.4818391,-1.2956071
163,1778413191580,-0.30846311444444446,0.08771514611111111,-0.7934812777777778,1.8965025666666666,-0.8105179666666666,-1.3430495
164,1778413191590,-0.553840236,0.10668611000000001,-1.1037290599999998,1.02229874,-0.25208139440000005,-1.4197312
165,1778413191600,-0.6790978999999999,0.109420348,-1.2047518888888888,0.31785270444444447,0.144524768,-1.4852412
166,1778413191610,-0.9782380666666667,0.041811381333333335,-1.0575617666666668,-1.0572239266666665,0.62138438,-1.5969583333333335
167,1778413191620,-1.09210039,-0.0164643767,-0.874081525,-1.6526778700000002,0.775989809,-1.6440343000000002
168,1778413191630,-1.4071281333333334,-0.2063433488888889,-0.015265116666666668,-2.6788706666666666,1.2749909766666667,-1.8443515
169,1778413191640,-1.5814337,-0.23480029500000002,0.519923625,-2.7679397999999997,1.54315295,-1.9944163
170,1778413191650,-1.6941842,-0.22931216999999998,0.8851431,-2.4903394333333333,1.6159116444444444,-2.1002964888888886
171,1778413191660,-1.98442978,-0.1374531524,1.40886277,-0.471864232,1.3761472600000002,-2.59516936
172,1778413191670,-2.3140577333333336,-0.37851800333333335,1.1711660000000002,0.6528175244444445,1.1435230555555558,-2.9558983333333333
173,1778413191680,-3.3488233,-0.7120538,0.42337835,2.5342186,-0.021761411111111115,-3.2248069333333333
174,1778413191690,-3.65171925,-0.774566565,0.1975511568,3.5058357200000003,-1.03787528,-3.03537638
175,1778413191700,-3.9027381000000005,-0.8075471333333333,-0.06713806733333333,4.020902166666667,-1.8039592333333334,-2.6474629333333333
176,1778413191710,-3.86596326,-0.61179182,-0.61381627,4.24642693,-2.5586940799999995,-1.61184271
177,1778413191720,-3.5860085111111113,-0.47325256111111114,-0.7733649055555556,4.001083511111111,-2.4195235333333334,-1.1267417055555555
178,1778413191730,-2.88372924,-0.27499165799999997,-1.190142686,3.1898443999999997,-1.46076485,-0.72568655
179,1778413191740,-2.280011111111111,-0.07191476611111111,-1.480255711111111,1.4840025333333333,0.43382883333333333,-0.5067996100000001
180,1778413191750,-2.1156814,-0.0148606235,-1.53374492,0.8516280074999999,1.08110804,-0.516165924
181,1778413191760,-1.9728082000000002,-0.08297231666666667,-1.3241524,-0.5963395999999999,2.502361333333333,-0.7362745844444445
182,1778413191770,-2.057599722222222,-0.19124421444444445,-1.2405025777777778,-1.158353011111111,3.040483777777778,-0.7547357666666668
183,1778413191780,-2.02900565,-0.613450426,-1.48562328,-1.56905281,2.84487603,-0.1030499378
184,1778413191790,-1.8869089444444447,-0.9364232111111112,-1.7932245777777776,-1.8755556,2.4195150666666665,0.32909395266666663
185,1778413191800,-1.70319393,-1.01818748,-1.86575827,-2.6483894,2.2888751999999997,0.8807959399999999
186,1778413191810,-1.0328244666666668,-1.2320231666666668,-1.6051952333333332,-4.523655000000001,2.6907313666666663,1.5742297333333335
187,1778413191820,-0.7694961,-1.512756,-0.94619848,-5.715667399999999,3.15265912,1.5756958
188,1778413191830,-1.126817088888889,-2.4139993777777775,2.127268408888889,-4.998232333333333,3.4221275555555555,1.8832505555555556
189,1778413191840,-1.4303510666666668,-2.5360117333333334,3.0714021333333332,-3.7121443333333337,3.210231377777778,2.3435918000000004
190,1778413191850,-1.11916288,-2.43734336,2.87551536,-1.4450279700000002,2.36803332,3.21443091
191,1778413191860,0.4028995333333334,-2.038198133333333,1.7894845,2.5216538666666666,0.36905355333333334,4.342462333333334
192,1778413191870,1.09702132,-1.8102153399999998,1.0602021000000001,3.6736354999999996,-0.13980766,4.29746325
193,1778413191880,1.2187601,-1.7465653,0.8248347,4.113751,-0.2967954,4.1801805
194,1778413191890,0.518304626,-1.40335021,-1.52157358,3.3536124999999997,0.088450683,3.6716501100000003
195,1778413191900,0.10914253333333335,-1.377306,-1.9119002,2.3977961022222223,0.32878854333333335,3.7586280555555556
196,1778413191910,-0.36775926400000003,-1.45609112,-1.9307345999999999,-0.7735311679999999,0.39634824,5.0362218400000005
197,1778413191920,-0.29475297333333333,-1.6254301333333334,-1.3186134999999999,-2.172223711111111,0.08025005541111112,6.016786288888889
198,1778413191930,0.04032755999999998,-1.7498987333333333,-0.81840138,-2.888450555555556,-0.23421749928888888,6.706178333333333
199,1778413191940,0.60375476,-1.849803,-0.38416874,-3.24590478,-0.436679425,7.100901
200,1778413191950,0.8977861022222222,-1.8455108777777778,-0.1690206911111111,-3.437772,-0.5851153,7.327953
201,1778413191960,2.01625784,-1.6507487400000003,0.682137348,-3.3682575200000002,-1.140253298,7.172186740000001
202,1778413191970,1.9250819333333336,-1.6309658,0.7357780277777778,-3.021785,-1.6404557666666666,6.812804799999999
203,1778413191980,1.71977718,-1.7253385600000002,0.633226,-2.85325228,-2.09024304,6.8749482
204,1778413191990,1.6681122777777777,-1.792391177777778,0.5996928555555556,-2.7840891666666665,-2.3590158333333333,7.074451066666667
205,1778413192000,1.7507627333333333,-1.773325,0.5836417666666667,-2.740719,-2.5182688,7.267886066666667
206,1778413192010,2.19054846,-1.61598456,0.47990603,-2.70590056,-2.61503714,7.57192496
207,1778413192020,2.4194128555555556,-1.5343171999999998,0.3916556277777778,-2.7329136,-2.5587034555555555,7.610910533333333
208,1778413192030,2.61443009,-1.43455322,0.180370273,-2.85836043,-2.5364821999999996,7.40125426
209,1778413192040,2.666924,-1.4041673,0.10759774,-2.8996155,-2.5460114,7.322455000000001
210,1778413192050,2.50856706,-1.36396678,0.101682766,-3.00492569,-2.74111599,7.12667848
211,1778413192060,2.4214963,-1.1614736222222222,0.43935150444444443,-2.6281449,-3.6027770666666665,6.971014433333334
212,1778413192070,2.513148055555556,-1.0594012844444445,0.4377321711111111,-2.2691448333333333,-4.047202466666667,6.930087555555556
213,1778413192080,2.9716428,-0.747031448,0.0492101904,-2.052294,-4.3064733,6.898527
214,1778413192090,3.1182407666666667,-0.5443712133333334,-0.2972734256666667,-2.2125396,-4.229506466666667,6.457291933333334
215,1778413192100,3.081145166666667,-0.40689365666666666,-0.40716805,-2.6433396555555557,-3.9802809222222226,6.291005755555556
216,1778413192110,2.94611706,-0.227415702,-0.11858619000000001,-4.14672131,-3.17555057,5.99221305
217,1778413192120,2.9372818888888887,-0.15000535666666667,0.2711235355555555,-4.3919153,-3.0120878,5.9535465
218,1778413192130,3.11998084,-0.0432159364,0.720206652,-5.08486082,-2.33057315,5.67603856
219,1778413192140,3.323500166666667,0.009726177555555555,1.0456606488888889,-5.430084555555556,-1.9656979222222222,5.2775419333333335
220,1778413192150,3.4520307000000003,0.03814247,1.2521768,-5.450514,-1.941807,5.2393894
221,1778413192160,3.668811711111111,0.4742451655555555,2.061434633333333,-5.082512222222222,-1.8591390666666665,4.548046377777777
222,1778413192170,3.8751528399999997,1.046945252,2.37780956,-4.73814356,-1.79666974,4.1067567799999996
223,1778413192180,4.182540933333333,1.5876841666666666,2.5074734666666663,-4.380512988888889,-1.6192796666666667,3.491959188888889
224,1778413192190,4.2266319999999995,1.9089969333333332,2.5748790777777777,-4.1494092444444455,-0.9887495888888888,2.304412677777778
225,1778413192200,4.04530602,1.93632946,2.62500978,-4.12338716,-0.7874279279999999,1.9843525
226,1778413192210,3.4450384,1.9973523333333334,2.8693849,-3.8934641333333335,-0.5790068533333333,1.4799557
227,1778413192220,3.3375972,2.0718435,3.00744381,-3.68052266,-0.6876154760000001,1.35603514
228,1778413192230,3.387433466666667,2.3594567333333334,3.7418444,-2.8425521333333332,-1.2421832999999998,1.0647831200000002
229,1778413192240,3.4079245,2.53400149,4.225240449999999,-2.18991787,-1.4950944499999999,0.934733743
230,1778413192250,3.426877,2.7121706,4.679328,-1.4292299,-1.614393,0.89069164
231,1778413192260,5.079592409999999,3.42686143,5.09025119,0.91478959015,-0.725365856,0.636090526
232,1778413192270,5.861030022222222,3.5394341,4.603798222222222,1.6402861333333334,-0.23197772266666672,0.08169234666666668
233,1778413192280,6.603935688888889,3.1549877333333334,3.030827244444444,2.5705216,0.05057306333333333,-2.29805824
234,1778413192290,6.1077344,2.6762996,2.3339015499999998,2.799513,0.075210569,-4.0536586
235,1778413192300,5.534469,2.311446,1.9528275,2.769887,0.10636378,-4.879524
236,1778413192310,3.64632844,1.5263085,1.4055881,1.80956631,0.8075018979999999,-5.33584224
237,1778413192320,2.7668247333333333,1.1982203333333332,1.182162488888889,0.7851678222222223,1.7453433111111112,-4.732853
238,1778413192330,2.66263716,1.1414934,1.2298156800000002,-0.3429373,2.85787179,-3.7939265900000003
239,1778413192340,3.011124111111111,1.1847778,1.5082689555555555,-0.7752160666666668,3.455792033333333,-3.4096221
240,1778413192350,3.0976806,1.1937282,1.5782324,-0.8847206140000001,3.7458223599999996,-3.33114856
241,1778413192360,3.3484337777777777,1.0549057055555555,1.6661947888888888,-0.5506278966666667,4.153922333333334,-3.759230444444445
242,1778413192370,3.437351722222222,0.9413963722222223,1.6767949555555557,-0.2574551466666667,3.945284111111112,-4.039473722222223
243,1778413192380,3.06764236,0.534653152,1.43588856,0.37779374899999996,3.4450411799999996,-4.64532569
244,1778413192390,2.7473790555555557,0.3519548288888889,1.2686071222222222,0.5772082288888888,3.313939788888889,-4.847624700000001
245,1778413192400,2.468772,0.22925119,1.1299134,0.6263475,3.2908632999999994,-4.9027367
246,1778413192410,2.3161004666666667,0.17447156688888887,1.0504372555555554,0.6165060666666666,3.3692553555555556,-4.8667644
247,1778413192420,1.9307040199999999,0.022361060699999998,0.8131633199999999,0.46538925,3.6692831499999996,-4.600367
248,1778413192430,1.9405129777777776,-0.02821980277777778,0.7854692777777778,0.39110344999999996,3.673185833333333,-4.426479333333334
249,1778413192440,2.0124039,-0.07995893400000001,0.80751663,0.45958620000000006,3.5502290000000003,-4.4033078
250,1778413192450,2.062925,-0.117049515,0.8116632,0.5023455,3.5028272,-4.412837
251,1778413192460,2.108954188888889,-0.31525213611111114,0.70914705,0.6814595222222222,3.6616475555555557,-4.637153633333333
252,1778413192470,2.09560384,-0.407377436,0.65436136,0.780403208,3.78455002,-4.76700602
253,1778413192480,1.8924072222222224,-0.6302095288888888,0.4045391777777778,1.0146427333333332,3.903950233333333,-4.936332833333334
254,1778413192490,1.78195764,-0.7578307919999999,0.278290632,1.2170368,3.8947467799999997,-4.99338632
255,1778413192500,1.7010680777777778,-0.8535152111111111,0.15948085555555555,1.2944107666666664,3.8984526000000006,-4.986626333333333
256,1778413192510,1.44380682,-1.03433466,-0.17733352100000002,1.3863636199999998,3.8960906399999997,-4.876348
257,1778413192520,1.3009430888888889,-1.1022560222222222,-0.3529880844444444,1.3527127666666667,3.836757133333333,-4.744051977777778
258,1778413192530,1.184784622222222,-1.1307468999999999,-0.5282320333333334,1.1313145666666666,3.667823933333333,-4.479894522222223
259,1778413192540,1.16367762,-1.11148869,-0.62583223,0.9610918039999999,3.5689208999999997,-4.32389752
260,1778413192550,1.1665314,-1.100796,-0.6491842,0.88779014,3.5327587,-4.2662334
261,1778413192560,0.99300306,-1.08523404,-0.63075022,0.260205664,3.4058248399999997,-4.00112588
262,1778413192570,0.9114861,-1.091771,-0.5667099,0.11384666,3.3659976,-3.9302675999999996
263,1778413192580,0.75188837,-1.088844,-0.32289992500000003,0.0629019968,2.97554388,-3.48935808
264,1778413192590,0.7123721844444444,-1.0598009555555554,-0.1503983411111111,0.16251082466666666,2.767927,-3.210893066666667
265,1778413192600,0.76305674,-1.04477432,-0.0844256604,0.293069248,2.62496324,-3.02486974
266,1778413192610,0.7610098444444444,-1.0448848111111113,-0.012961461377777778,0.6489488422222223,2.2040218222222223,-2.7350432444444444
267,1778413192620,0.7283893888888889,-1.0274820888888891,0.03443290353333333,0.8842608177777778,1.9032813777777777,-2.5755017999999996
268,1778413192630,0.7626237560000001,-0.939109736,0.11965332399999999,1.4287565,1.36014306,-2.20625816
269,1778413192640,0.8970137266666668,-0.8405673866666666,0.18023409,1.928673833333333,0.9709925933333332,-1.8909795333333332
270,1778413192650,0.94542104,-0.8162366999999999,0.19299906,2.0422914,0.9005415400000001,-1.8258225
271,1778413192660,1.177216448888889,-0.6879669600000001,0.0870918011111111,2.972136733333333,0.5198479766666666,-1.5712349111111112
272,1778413192670,1.24243535,-0.6356621,-0.028583985,3.32300915,0.33275904,-1.52772905
273,1778413192680,1.3246742222222223,-0.5953192888888889,-0.46160889222222223,3.8750453555555557,-0.30159734,-1.5948543
274,1778413192690,1.3648662,-0.5513939999999999,-0.63618549,4.124271155555555,-0.8508339177777778,-1.7899182333333334
275,1778413192700,1.35831397,-0.52157621,-0.6888603200000001,4.15870928,-0.9672613800000001,-1.9140288399999998
276,1778413192710,1.1399140555555556,-0.51500972,-0.8504696777777778,4.129632844444445,-1.0514633333333334,-2.4436604666666666
277,1778413192720,1.00547025,-0.544620185,-0.95729675,4.0521774,-1.0055004520000002,-2.5562736
278,1778413192730,0.7373769888888889,-0.5983750511111111,-1.1456495000000002,3.5559115333333335,-0.5578308122222223,-2.965247688888889
279,1778413192740,0.466963216,-0.61942639,-1.32139717,3.10114945,-0.0866639558,-3.2687811599999996
280,1778413192750,0.2586194433333333,-0.6333465600000001,-1.4315231666666666,2.8136559222222224,0.14458414977777778,-3.386953
281,1778413192760,-1.127590165,-0.7833353430000001,-2.0001836500000003,0.922608445,0.9863045099999999,-3.3493518799999995
282,1778413192770,-1.5119987666666668,-0.8270536944444444,-2.1168070444444442,-0.09964445666666667,1.2758053777777778,-2.9403218
283,1778413192780,-2.090281122222222,-0.9125328777777777,-2.063450466666667,-2.045235437777778,1.6772000111111112,-1.976090888888889
284,1778413192790,-2.175011,-0.8567512020000001,-1.81188626,-2.78731132,1.6912222799999999,-1.53603648
285,1778413192800,-2.2108843333333335,-0.7621142611111111,-1.4017552333333334,-3.3548325333333335,1.6983080666666668,-1.1962424999999999
286,1778413192810,-2.30820162,-0.7330732799999999,-0.69296728,-4.34182601,1.9061184,-0.5577035450000001
287,1778413192820,-2.2790048,-0.6786981733333333,-0.177764444,-4.440511622222222,1.9491627666666664,-0.30304811
288,1778413192830,-2.00293998,-0.47629304799999994,0.6352352052000001,-3.7263362799999995,1.7058826599999999,-0.38910971400000005
289,1778413192840,-1.9359700999999998,-0.3026667111111111,1.1362248,-2.9076583888888887,1.4046942555555555,-0.6367743333333333
290,1778413192850,-1.9816889,-0.24195924,1.2159550799999999,-1.620302824,0.93432149,-1.06030869
291,1778413192860,-2.3983242666666666,-0.17615188333333334,1.0075757555555556,0.8577144133333333,0.10596502888888888,-1.8448266111111111
292,1778413192870,-2.8386853444444444,-0.29305233333333336,0.3920621822222222,1.5951512666666665,-0.24636656888888886,-1.9602088444444443
293,1778413192880,-3.44014594,-0.498834,-0.46860054240000004,2.15615332,-0.70594088,-1.8624732800000001
294,1778413192890,-3.668001977777778,-0.5695623666666667,-0.7224812,2.152243866666667,-0.8118754,-1.7444440444444445
295,1778413192900,-3.7717596,-0.537058775,-0.7991625,1.7472521500000002,-0.92810605,-1.08730814
296,1778413192910,-3.5451254666666667,-0.40927185666666666,-0.7141067333333333,1.1789607,-0.9670984733333334,-0.18040356
297,1778413192920,-3.0397566400000002,-0.313615866,-0.61257842,0.623537648,-0.49489318200000004,0.521350522
298,1778413192930,-2.389875177777778,-0.19113581444444444,-0.48207760222222223,0.20445567333333334,0.026750020000000003,0.8063947533333333
299,1778413192940,-2.1663256,-0.14667521666666666,-0.4224738533333333,-0.01320957333333334,0.41020939666666667,0.7214869666666668
300,1778413192950,-2.06046476,-0.145252369,-0.41121912099999997,-0.060794575000000003,0.514547185,0.601088965
301,1778413192960,-1.8966316222222224,-0.20528636444444442,-0.4206749533333333,0.03647267,0.34453480000000003,0.30536423888888886
302,1778413192970,-1.94272916,-0.28866928000000003,-0.40421872,0.223799166,-0.027732463999999995,0.133974078
303,1778413192980,-2.2397276,-0.4751564544444445,-0.40162236222222225,0.6101261055555556,-0.89508636,0.30244575444444444
304,1778413192990,-2.2773584,-0.5553616699999999,-0.419780568,0.69219684,-1.277327468,0.709147868
305,1778413193000,-2.119473166666667,-0.5663440333333333,-0.4413367133333333,0.6618445222222221,-1.417632277777778,1.0330869655555555
306,1778413193010,-1.1275962555555554,-0.46330954888888887,-0.4040141033333333,0.22400278111111108,-1.439690588888889,2.3080355555555556
307,1778413193020,-0.349462456,-0.328644181,-0.286001453,-0.3534973096,-0.828599,2.89593532
308,1778413193030,-0.09957898,-0.28324825,-0.24455696000000002,-0.5880932,-0.522198,3.0378962
309,1778413193040,0.16965015600000002,-0.26772904999999997,-0.081632814,-0.8887522000000001,0.11151019999999993,2.8523055
310,1778413193050,1.2465667,-0.20565225,0.57006377,-2.0913882,2.646343,2.1099427
311,1778413193060,0.9790968,-0.37758300499999997,0.6350980350000001,-1.656465,2.3644369999999997,1.67837915
312,1778413193070,0.6758050266666666,-0.5707175755555556,0.7135544922222222,-1.2215418,2.082531,1.2468156
313,1778413193080,0.21874446600000003,-0.9106628600000001,0.781640099,0.15939295999999997,0.966513089,1.75894986
314,1778413193090,0.14481197555555556,-1.0120847666666668,0.7240395444444445,0.5760544266666666,0.7732817233333333,2.0427496
315,1778413193100,0.12054565499999999,-1.0092153666666668,0.5588435866666667,0.8468633933333334,0.7514948333333334,2.3913652666666665
316,1778413193110,0.11835140750000002,-0.9396402250000001,-0.0030855470000000053,1.40499452,0.451385578,3.3530322200000002
317,1778413193120,0.20604182222222223,-0.8612426944444445,-0.2276250777777778,1.4475977444444446,0.13395371055555555,3.6729058444444442
318,1778413193130,0.461575716,-0.712675728,-0.540793756,1.0996319199999998,-0.6867603253,4.11103273
319,1778413193140,0.5880628,-0.6847960333333334,-0.6979167266666667,0.7039929788888889,-1.0881141133333334,4.237396422222222
320,1778413193150,0.576814162,-0.72488376,-0.637860368,0.46630553599999996,-1.26364447,4.33405278
321,1778413193160,0.572018448888889,-0.765722228888889,-0.5224965866666667,0.10589716222222223,-1.4680611222222222,4.534946944444445
322,1778413193170,0.6835032679999999,-0.8976133559999999,-0.351947356,-0.361591044,-1.5718779399999998,4.940441099999999
323,1778413193180,0.84837268,-0.9822117333333333,-0.22650712166666664,-0.8485177777777778,-1.343855422222222,5.327529888888889
324,1778413193190,1.0105772333333334,-1.0904091333333334,-0.05828592166666666,-1.1702306666666666,-1.1196066666666669,5.553713
325,1778413193200,1.0492318900000002,-1.09798782,-0.010506711400000002,-1.3080378,-1.1039690199999999,5.67280114
326,1778413193210,1.2854781333333334,-1.03857,0.14851815466666665,-1.4674417777777777,-1.6439851333333335,5.971736155555556
327,1778413193220,1.35127396,-1.02261452,0.17280277,-1.40479595,-1.9164569999999999,5.9773695
328,1778413193230,1.3898914222222223,-1.0090256333333334,0.09953155,-1.287784788888889,-2.457693111111111,5.938003677777778
329,1778413193240,1.35861893,-1.05910141,0.025687472899999998,-1.30980925,-2.6110666,5.9660686499999995
330,1778413193250,1.3414299,-1.1026761,-0.025407988666666666,-1.4054068333333332,-2.6551493666666666,6.056983166666666
331,1778413193260,1.4146319444444444,-1.1539190111111113,-0.11326541333333334,-1.6281624333333333,-2.6580000333333333,6.2992862333333335
332,1778413193270,1.49847766,-1.13877988,-0.17266251,-1.7405176399999998,-2.70080004,6.40789476
333,1778413193280,1.6485311999999999,-1.1307468333333333,-0.37391407,-1.8564157555555556,-2.7863457666666664,6.471069733333334
334,1778413193290,1.6690791099999998,-1.14077994,-0.444300285,-2.13359776,-3.03768234,6.47600394
335,1778413193300,1.727844666666667,-1.1244761,-0.4533801,-2.4686882444444445,-3.2886659444444444,6.588420111111111
336,1778413193310,2.04694864,-0.9972776360000001,-0.278186972,-3.1631884599999998,-3.4878767,6.82546976
337,1778413193320,2.304199533333333,-0.8564320566666667,-0.14703094,-3.4797168000000003,-3.3592526666666664,6.818709666666667
338,1778413193330,2.68640367,-0.580381426,0.182937507,-3.7734324999999997,-3.1446416499999996,6.66823765
339,1778413193340,2.7219983666666665,-0.43542514444444447,0.38470739555555555,-4.027036,-2.8722037333333335,6.3320680000000005
340,1778413193350,2.7282081,-0.36882573111111117,0.4702577733333333,-4.081062077777777,-2.7976803666666665,6.195916922222223
341,1778413193360,2.75313634,0.072924985,0.8217735099999999,-4.03915105,-2.6397764500000003,5.6777489
342,1778413193370,2.7652020333333334,0.25795203666666666,0.7282945,-3.9679195555555555,-2.5954900444444444,5.423178122222222
343,1778413193380,2.7991024,0.363667562,0.6463608599999999,-4.13157222,-2.5391392,5.144463979999999
344,1778413193390,2.9417705888888888,0.57211671,0.6147851777777777,-4.482524333333334,-2.430688533333333,4.897315166666667
345,1778413193400,3.17924336,0.796323875,0.693967322,-4.7919593,-2.29988583,4.68687825
346,1778413193410,3.6857368,1.1714132222222222,1.066363088888889,-5.663139666666667,-1.8357233333333332,3.7407776666666663
347,1778413193420,3.74871581,1.2427768399999999,1.29157545,-5.8598579,-1.6984455600000001,3.3289037
348,1778413193430,2.7766085666666664,1.1936468666666666,2.0315278333333335,-5.980466111111111,-1.7652043333333334,2.560239
349,1778413193440,2.5464493333333333,1.1348223333333334,2.3209485,-5.902820600000001,-2.0953333333333335,2.2691704
350,1778413193450,2.61601838,1.15183554,2.51883604,-5.8568034,-2.2032497,2.2956405
351,1778413193460,3.7906513555555557,1.6133867777777777,3.229324588888889,-5.200745222222222,-3.012087911111111,2.5777160555555554
352,1778413193470,4.221947439999999,1.79987328,3.6180587,-4.8733851999999995,-2.94917066,2.4270946799999997
353,1778413193480,4.944374,2.1872312666666667,5.059949700000001,-4.421982444444445,-2.3655230666666665,2.0072526555555554
354,1778413193490,5.2412389,2.3886760000000002,5.735938280000001,-3.08191545,-0.88901183,1.05317705
355,1778413193500,5.702141666666666,2.4912429333333335,5.723108333333333,-1.95659471,-0.41916846,0.31728423333333333
356,1778413193510,6.435912109999999,2.3213517799999996,4.866933350000001,0.515516931,0.192852109,-1.99111777
357,1778413193520,5.946509022222222,1.8936877555555556,4.217349777777778,1.3998837666666668,0.19190784333333333,-3.2762283333333335
358,1778413193530,4.453528777777778,1.1438675777777776,3.1975001555555553,2.195478288888889,0.34641826666666664,-4.5419296
359,1778413193540,4.107233519999999,1.00505865,2.9731429,2.3351315599999998,0.424813722,-4.768961160000001
360,1778413193550,3.40029,0.77955765,2.5297513,2.2628074,0.54502845,-4.6687818
361,1778413193560,3.040653,0.78674712,2.17788934,1.9586054000000002,0.820825975,-4.2595142500000005
362,1778413193570,2.8796699222222224,0.8238082444444443,1.9232491666666667,1.5092253722222224,1.2481136222222222,-3.765881911111111
363,1778413193580,3.87808626,1.09756404,1.87751202,0.029244310000000003,3.0617116199999996,-3.1944410999999997
364,1778413193590,4.013384666666666,1.0607969777777777,1.877463911111111,-0.08488231666666667,3.4441180888888887,-3.5079006555555554
365,1778413193600,3.9909305777777777,0.9569968888888888,1.8244255555555557,0.014889403333333337,3.4959043333333333,-3.904611866666667
366,1778413193610,3.7382973999999995,0.75650755,1.6343484,0.318847002,3.24700444,-4.5276762
367,1778413193620,3.2283151111111112,0.4756273444444445,1.3389128000000001,0.5614619666666667,2.932321266666667,-5.101940777777778
368,1778413193630,2.61924448,0.17994342800000002,1.1055035199999999,0.520976355,2.88926932,-5.2824392
369,1778413193640,2.2058333444444447,0.045581928,0.9734307555555556,0.33246210111111113,3.0381760555555553,-5.1271210555555555
370,1778413193650,2.1124403,0.018629136,0.9442014000000001,0.28671643,3.0776775,-5.0786605
371,1778413193660,2.111203822222222,-0.05370909177777778,1.0715564333333334,-0.012395107777777773,3.7815093555555555,-4.568535288888889
372,1778413193670,2.1546837,-0.13889529,1.1903134000000002,-0.06073348629999999,4.3991235799999995,-4.307343489999999
373,1778413193680,2.2229311999999997,-0.2514746988888889,1.0384176166666668,0.2935036206666667,4.695676388888889,-4.270034444444445
374,1778413193690,2.2476616666666667,-0.39519582333333336,0.8717073766666666,0.8819531466666667,4.653731355555555,-4.394919
375,1778413193700,2.20343659,-0.473710559,0.800470525,1.2712800400000002,4.504860979999999,-4.5199799
376,1778413193710,1.9821277999999998,-0.6703134666666667,0.5117270133333334,1.973808711111111,4.134239888888889,-4.718803777777778
377,1778413193720,1.8567851000000002,-0.7419274020000001,0.315122048,2.26183,3.9554652399999997,-4.78398784
378,1778413193730,1.5943071222222223,-0.8578312266666667,-0.16612081,2.4850030000000003,3.6966693999999998,-4.8121274
379,1778413193740,1.48354695,-0.88703345,-0.38685185,2.45617865,3.4841964000000005,-4.75338435
380,1778413193750,1.434555277777778,-0.8841843377777777,-0.5102364155555555,2.323552677777778,3.360364188888889,-4.676179977777778
381,1778413193760,1.3737417600000001,-0.8333656770000001,-0.8028242609999999,1.9265969400000003,3.39238616,-4.58265224
382,1778413193770,1.3299218444444445,-0.8266200611111111,-0.8724899244444445,1.4653122777777776,3.4860628555555553,-4.500731222222222
383,1778413193780,1.2664154222222221,-0.820379881111111,-0.8556732222222222,1.1068806533333333,3.4942753,-4.405303333333333
384,1778413193790,0.9574887239999998,-0.811504628,-0.75632462,0.45225603000000003,3.4857235,-4.10038855
385,1778413193800,0.914819571111111,-0.8129572811111111,-0.7487056222222223,0.19047405722222222,3.506085088888889,-3.898978744444445
386,1778413193810,0.91140992,-0.759431499,-0.528244221,-0.227296254,3.40667988,-3.4832496399999995
387,1778413193820,0.9499843333333335,-0.7302560133333333,-0.42344950000000003,-0.3150444666666667,3.3495045666666665,-3.356274866666667
388,1778413193830,0.984966,-0.707364408,-0.34369688800000003,-0.333308815,3.30735605,-3.1847895999999998
389,1778413193840,0.9320767000000001,-0.7048988333333334,-0.30053583333333334,-0.26814496111111114,3.1099166444444446,-3.042842333333333
390,1778413193850,0.9078272999999999,-0.7027849,-0.2789797,-0.24155189400000002,3.0519531800000004,-3.01888355
391,1778413193860,0.8574280944444443,-0.6727797777777778,-0.13610211333333333,0.19020255333333333,2.3682038666666667,-2.809159333333333
392,1778413193870,0.8758640833333333,-0.64094186,-0.06462775466666666,0.43033340000000003,2.0628481333333335,-2.7321246666666665
393,1778413193880,0.9355119199999999,-0.585961006,-0.0988228404,0.80074445,1.66715485,-2.6798250500000003
394,1778413193890,0.94468926,-0.5782146133333332,-0.137030355,1.3396135,1.1458985666666668,-2.6488373
395,1778413193900,0.920385999,-0.58156441,-0.153228456,1.5354104,0.99076374,-2.6466179100000002
396,1778413193910,0.77304309,-0.5710597333333333,-0.2535107333333333,1.9612524333333334,0.6608858666666667,-2.5690199333333332
397,1778413193920,0.7379699399999999,-0.5377843999999999,-0.363539504,2.16507175,0.45523394,-2.4971436
398,1778413193930,0.7510837888888888,-0.48200304444444453,-0.6056823377777777,2.4355329,-0.05705483222222221,-2.3894987666666667
399,1778413193940,0.6753984888888889,-0.4953744222222222,-0.7929764499999999,2.4489375666666664,-0.37172601,-2.2548409
400,1778413193950,0.607413512,-0.514261708,-0.907894396,2.41435851,-0.47876681000000004,-2.17815921
401,1778413193960,0.7366757377777778,-0.3872922455555556,-1.034193148888889,2.0856616333333333,-0.5103883333333333,-1.9099157999999998
402,1778413193970,0.85715976,-0.29168773400000003,-1.11952272,1.7912332,-0.39544724000000003,-1.9513516000000002
403,1778413193980,0.5630884,-0.2683150966666667,-1.017745711111111,1.4318514333333332,-0.3409800333333333,-2.1805211
404,1778413193990,0.4384737449999999,-0.219460961,-0.93329834,1.32906623,-0.48059936,-2.30161139
405,1778413194000,0.12754809333333333,-0.09281028666666666,-0.6746429666666667,1.3367629,-0.9198596,-2.4319865333333333
406,1778413194010,-0.20355861444444445,-0.021623889666666667,-0.4230395888888889,1.5660342333333332,-1.339308,-2.4010369333333332
407,1778413194020,-0.23482467799999998,0.00438440245,-0.447437692,1.64646246,-1.2982184,-2.3957429599999998
408,1778413194030,-0.50902357,-0.1133907625,-0.6805173533333333,1.3935716999999999,-0.7746816,-2.706511533333333
409,1778413194040,-0.9952410199999999,-0.32903751200000003,-0.8899299839999999,0.96952149,-0.571249065,-2.98437068
410,1778413194050,-1.2275717,-0.43115324,-0.95767784,0.8438091,-0.58206105,-3.0402632
411,1778413194060,-2.05869643,-0.735991127,-0.627222566,0.197410558,-1.27891561,-2.2855767
412,1778413194070,-2.458107588888889,-0.8278362444444444,-0.25835856444444444,-0.3142045633333333,-1.3818638,-1.5684521333333334
413,1778413194080,-2.2325387444444447,-0.64566778,0.3947147797777777,-0.8931095866666667,-0.5230804111111111,-1.1029865055555554
414,1778413194090,-2.1860726500000003,-0.572579145,0.745790475,-1.25819265,0.42526422,-0.878092925
415,1778413194100,-2.196927,-0.53756183,0.9495676,-1.1411814911111111,0.6988940877777777,-0.9481028222222222
416,1778413194110,-2.2637205000000002,-0.495827693,1.0157269599999998,-0.10678374000000002,0.11185375899999998,-1.30586932
417,1778413194120,-2.608980088888889,-0.4447041366666667,1.082163488888889,0.64345122,-0.5731019666666667,-1.6160982666666666
418,1778413194130,-3.06792282,-0.536561784,0.7644227,1.20335382,-1.0729379399999999,-1.89900192
419,1778413194140,-3.361374966666667,-0.7071280111111111,0.48570923111111114,1.1465857,-1.2234507,-1.9868825333333335
420,1778413194150,-3.431091122222222,-0.7575137522222222,0.4555313088888889,1.0549586,-1.361637911111111,-1.9973348222222223
421,1778413194160,-3.7798609599999997,-1.00899784,0.66807556,0.91772165,-1.7237346500000001,-1.79039335
422,1778413194170,-3.952463266666667,-1.0979569666666666,0.7898089688888889,0.9073372511111111,-1.8119002666666668,-1.5206024777777776
423,1778413194180,-3.92704608,-0.9427837199999999,0.941045778,1.022787365,-1.66600955,-0.44740742000000006
424,1778413194190,-3.2210348,-0.6453526888888889,0.8641492977777777,1.2276248666666667,-1.4443738000000002,0.6530720533333333
425,1778413194200,-2.9615082100000003,-0.56011498,0.8223893999999999,1.2996844900000002,-1.3669998,0.9100554899999999
426,1778413194210,-1.7851449,-0.3088798,0.4494977666666667,1.3590248666666667,-0.7376235333333334,1.2038526666666667
427,1778413194220,-1.41046038,-0.273345212,0.264119062,1.20481988,-0.181559076,1.097402344
428,1778413194230,-1.1246117333333332,-0.45934249666666666,0.08719343333333333,0.651256488888889,1.04130789,0.7774133977777777
429,1778413194240,-1.2707652666666667,-0.7104885766666666,0.14045536,0.4741786555555556,1.5077916111111112,0.8502399844444444
430,1778413194250,-1.3522741,-0.8086752,0.17397358,0.37101334,1.8015412999999998,0.9273425
431,1778413194260,-2.0143858333333333,-1.2000598333333334,0.3576631333333333,0.05635913866666667,3.0635432333333332,2.4488188444444443
432,1778413194270,-2.1904936800000003,-1.41343002,0.360868596,-0.3902168658,4.39393124,3.8051813799999996
433,1778413194280,-2.230618,-1.4993253,0.34163576,-0.55022067,4.843637,4.2437086
434,1778413194290,-1.3156713,-1.8942111000000001,0.164704735,-1.671919457,6.8463684,6.617468820000001
435,1778413194300,-0.42238577777777775,-1.8944770555555555,0.17813369666666665,-2.0150323333333335,7.073713,7.550912066666667
436,1778413194310,1.377255111111111,-1.5996868333333332,0.4318984977777778,-1.4637767222222222,5.420293444444445,7.477067666666667
437,1778413194320,1.97867642,-1.3661284999999999,0.599784988,-0.35762054,3.3140754,6.6043434
438,1778413194330,1.9918404444444444,-1.2942997777777778,0.7201538111111111,1.1222197444444444,1.087749308888889,5.560848233333334
439,1778413194340,1.71751179,-1.33526083,0.681908712,2.06587015,0.07004127400000001,5.10762989
440,1778413194350,1.6260705,-1.3616953,0.6349761,2.3183944,-0.14713784,5.017652
441,1778413194360,1.3942337999999999,-1.60339844,0.29473060799999995,2.356916,0.5031472465,5.1779995
442,1778413194370,1.2808165999999999,-1.6861146666666667,0.09066585866666667,1.8012104333333332,1.6506619666666666,5.517986866666667
443,1778413194380,1.3069699444444445,-1.667129811111111,-0.2068277815555556,0.9074729666666665,2.4021399333333333,5.8061967333333335
444,1778413194390,1.2921211600000002,-1.6486694100000001,-0.222543465,0.268146668,2.3631544,5.8632632000000005
445,1778413194400,1.2795259,-1.6440594,-0.20159712,0.15782766,2.3244267,5.8649735
446,1778413194410,1.25003032,-1.7145878200000002,0.042045134000000005,-0.27860744,1.3932509999999998,5.77823328
447,1778413194420,1.2602599333333333,-1.7620404333333335,0.16971518555555554,-0.35753230666666663,1.0940444666666667,5.739817755555555
448,1778413194430,1.23652342,-1.7607125,0.339538102,-0.40398384400000004,0.75625942,5.66779224
449,1778413194440,1.0557763333333332,-1.69372,0.25459140999999996,-0.48513150888888895,0.5953894111111111,5.699298244444445
450,1778413194450,1.0319639666666667,-1.6760936222222222,0.20255585422222222,-0.5978667577777778,0.5375625555555555,5.797033777777778
451,1778413194460,1.14738406,-1.56860368,-0.0740226108,-1.18733438,0.5688515,6.0509768
452,1778413194470,1.255032611111111,-1.5066326222222224,-0.12925889711111113,-1.7982496111111113,0.6080136,6.13714
453,1778413194480,1.4278271100000002,-1.44127618,-0.055491042899999996,-2.84132556,0.5896203200000001,6.0922088
454,1778413194490,1.5525804,-1.3618376,0.084195296,-3.268363733333333,0.46195324,5.9963058
455,1778413194500,1.576281,-1.3438894,0.11613483,-3.3998995,0.40147936,5.9566007
456,1778413194510,1.6653038111111111,-1.3186338666666666,0.23363830000000002,-4.1040029,-0.20386178666666666,5.5807939555555555
457,1778413194520,1.6965929444444443,-1.322814311111111,0.28000279111111115,-4.407526277777778,-0.3874044177777778,5.4470862888888885
458,1778413194530,1.75310834,-1.37433018,0.370582608,-5.055417800000001,-0.385490424,5.3706758400000005
459,1778413194540,1.8355339333333331,-1.3862496,0.4643970133333334,-5.54097,-0.30310749,5.3198431
460,1778413194550,1.9053978,-1.35885372,0.544050028,-5.84299832,-0.278653245,5.26028049
461,1778413194560,2.197225111111111,-1.0895689777777777,0.9173367666666667,-6.299464133333333,-0.5792104666666666,4.948422866666667
462,1778413194570,2.3089152000000004,-0.9919786,1.10049108,-6.386652440000001,-0.8570645299999999,4.769037320000001
463,1778413194580,2.5738594666666668,-0.7738662666666667,1.7258730333333334,-6.212452411111111,-1.1860533,4.368118066666666
464,1778413194590,2.71012765,-0.57671045,2.0945124,-6.020999399999999,-0.92328035,4.108222759999999
465,1778413194600,2.7479653,-0.4618867,2.212751,-5.927662,-0.72683185,3.9914286
466,1778413194610,2.8192769666666666,-0.1539927222222222,2.0938416666666666,-5.670562977777777,-0.11571313,3.4289062444444443
467,1778413194620,2.8165789,0.137910484,1.9442475600000002,-5.57740196,0.09500202199999999,2.95689782
468,1778413194630,2.655646133333333,0.39271939777777776,2.0576471555555553,-5.663775888888889,-0.07736550055555555,2.5530531555555553
469,1778413194640,2.74472716,0.780246756,2.4301418200000002,-5.7728122,-0.245178815,2.21439765
470,1778413194650,2.8533743555555557,0.9734206200000001,2.6232831333333335,-5.8107864000000005,-0.20007792555555556,2.0757353111111114
471,1778413194660,2.85402015,1.41636915,3.08510068,-5.77800436,0.371883804,1.41919674
472,1778413194670,2.6534169666666667,1.5229445333333334,3.0287539333333333,-5.664454444444445,0.5143503622222222,1.0370235444444444
473,1778413194680,2.2281178,1.47193952,2.9959430400000002,-5.4280572,-0.21412488999999998,0.70163443
474,1778413194690,2.0193285333333333,1.487288711111111,3.2734564444444443,-4.981586666666667,-1.7385986,0.6974602933333333
475,1778413194700,2.0675190000000003,1.5542134111111112,3.547134311111111,-4.722791177777778,-2.519405622222222,0.7669611355555556
476,1778413194710,2.56827791,1.8166060300000002,4.34105191,-3.51290629,-4.50988523,1.37106195
477,1778413194720,3.704687533333333,2.3323548777777776,5.629843811111112,-2.7938287444444447,-4.609114077777778,1.6900871333333332
478,1778413194730,5.2648436,2.84459278,6.33600986,-1.80490098,-3.4066647000000003,1.5269502
479,1778413194740,6.7311755,2.913649066666667,6.249439944444444,0.010808599111111119,-0.33677197555555555,-0.2046253511111111
480,1778413194750,7.0130130600000005,2.7898335800000003,5.974677959999999,0.43545774680000005,-0.0005726770000000047,-0.943758974
481,1778413194760,6.601438333333333,1.9186282777777777,4.704492200000001,1.8060972333333334,0.3226800533333333,-3.5834845333333334
482,1778413194770,5.71018046,1.4336690600000002,4.18406126,2.27529918,0.4163840280000001,-4.576910580000001
483,1778413194780,4.505245744444444,0.9667501888888889,3.451800233333333,2.423511,0.9691601000000001,-5.177821333333333
484,1778413194790,3.0218428999999998,0.5235671333333333,2.3793561333333333,1.6631588666666668,2.724378766666667,-4.906605133333333
485,1778413194800,2.7464712,0.4557278,2.143448,1.3605859,3.2145073,-4.6938267
486,1778413194810,2.5631812444444444,0.35312019111111115,1.981595911111111,0.6864820155555555,4.300729344444445,-4.042799411111111
487,1778413194820,2.5470021800000002,0.318323446,1.9156849,0.507598794,4.69788868,-3.6827522999999998
488,1778413194830,2.483928711111111,0.20877234222222218,1.7607089777777778,0.72652645,4.434573,-3.6008172999999997
489,1778413194840,2.4589086300000003,0.17829088899999998,1.71656957,0.8484515699999999,4.26186615,-3.5947902999999997
490,1778413194850,2.442750944444444,0.16197421888888888,1.6938759222222222,1.0049370666666666,3.9868218555555552,-3.6524678333333336
491,1778413194860,2.3214768777777777,0.02663773462222222,1.6113033777777779,1.5784547333333334,3.1458888666666667,-3.935154433333333
492,1778413194870,2.22666945,-0.0388437306,1.53466275,1.7512227,3.03705625,-4.04174725
493,1778413194880,2.015148066666667,-0.15985689333333333,1.2101214333333334,1.8724758666666668,3.198218066666667,-4.129200333333333
494,1778413194890,1.8146333000000001,-0.261993949,0.915492461,1.8223863999999999,3.46861978,-4.1576862
495,1778413194900,1.7605295,-0.28739482,0.84681773,1.7912331999999997,3.543754,-4.161168
496,1778413194910,1.5476329999999998,-0.43715355999999994,0.58890026,1.63125235,3.71582977,-4.06642542
497,1778413194920,1.5381047,-0.4730391211111111,0.4941887388888888,1.5698350555555556,3.6540459,-4.022641277777778
498,1778413194930,1.6254607,-0.4991145,0.47158239999999996,1.58690485,3.3947072,-4.060378
499,1778413194940,1.730954622222222,-0.5648466422222223,0.3150116111111111,1.579133511111111,3.2457283333333335,-4.244718011111112
500,1778413194950,1.7104249999999999,-0.6102693333333334,0.19976775666666666,1.5432971333333334,3.25333,-4.301187488888889
501,1778413194960,1.58952875,-0.692397085,0.044139772,1.2970578700000002,3.30753938,-4.469401500000001
502,1778413194970,1.3824214222222222,-0.7315942111111111,0.052868936888888884,1.040501988888889,3.2778317555555554,-4.497201688888889
503,1778413194980,1.33251676,-0.7392261,0.1103357044,0.98222714,3.19239456,-4.45987216
504,1778413194990,1.2469834,-0.7742728333333333,0.13395091,0.9572231,3.047745933333333,-4.391457333333333
505,1778413195000,1.145012,-0.792674316,0.12174491800000001,0.96133614,2.93812944,-4.29921944
506,1778413195010,0.9739525111111111,-0.8135671444444443,0.07988610444444444,0.9353004755555556,2.8375382,-4.093499666666666
507,1778413195020,0.85512615,-0.83443895,0.0232787977,0.8758786050000001,2.8347893500000003,-3.8917842499999997
508,1778413195030,0.7269259,-0.7824474222222223,-0.03379600991111111,0.80430766,2.8006836666666666,-3.6368573333333334
509,1778413195040,0.7555285022222223,-0.7233619833333333,-0.031583821111111104,0.6809164999999999,2.6158006,-3.0402633333333338
510,1778413195050,0.778078944,-0.7072211350000001,-0.027227198299999998,0.6626929,2.55251686,-2.88888777
511,1778413195060,0.8588645333333333,-0.6354334222222222,-0.005477961444444445,0.6184744,2.4570482222222223,-2.485809088888889
512,1778413195070,0.92609672,-0.5453671999999999,0.018946228,0.62634752,2.44537432,-2.28273628
513,1778413195080,0.9983577111111112,-0.5229099222222222,-0.012432975333333334,0.6304198333333333,2.4608491,-2.2218551666666664
514,1778413195090,1.08704818,-0.501358532,-0.050307812800000004,0.64149652,2.47542798,-2.17339464
515,1778413195100,1.1044648666666665,-0.5078650066666666,-0.057544008,0.6888575333333333,2.3820497666666665,-2.2245022
516,1778413195110,1.1155711799999999,-0.551757796,-0.046258798000000004,0.9055047,1.9932251,-2.3599472799999996
517,1778413195120,1.1108337888888888,-0.6376490066666667,-0.013557702444444446,1.2325115777777778,1.5244880777777778,-2.5091568666666664
518,1778413195130,1.019642811111111,-0.6908804244444444,0.020753242555555558,1.5595185444444444,1.0734113333333335,-2.6586703222222225
519,1778413195140,0.8839692400000001,-0.7460526780000001,0.0738305274,1.9021630999999999,0.6475286499999999,-2.72414975
520,1778413195150,0.7920787233333333,-0.79380649,0.09654018800000001,2.120412011111111,0.4111002222222222,-2.7063842444444446
521,1778413195160,0.574310961,-0.894536961,0.0249160893,2.92282016,-0.308218265,-2.33142065
522,1778413195170,0.502509,-0.8941070222222223,-0.05162225311111111,3.2626370111111114,-0.6390056222222222,-2.1046403000000002
523,1778413195180,0.5647524479999999,-0.7680265000000001,-0.21775661600000001,3.74357725,-1.23994358,-1.7403039
524,1778413195190,0.6681080666666667,-0.64850326,-0.4593967133333334,4.325375566666668,-1.9429608888888892,-1.2970323555555554
525,1778413195200,0.711291488,-0.6030961319999999,-0.59441882,4.39437423,-2.02506555,-1.2322010899999998
526,1778413195210,0.8425085266666666,-0.44261728,-0.88249055,4.3668450666666665,-2.059904266666667,-1.1194794000000001
527,1778413195220,0.9441337222222221,-0.23459024444444443,-1.024917561111111,4.184269622222222,-1.849026177777778,-1.2116494999999998
528,1778413195230,0.6276159179999999,0.07666911400000001,-0.8979853419999999,3.5231836999999997,-1.5215441799999998,-2.13790429
529,1778413195240,0.018781584444444444,0.3115527211111111,-0.6719430022222223,3.103205922222222,-1.5345755666666667,-2.760817522222222
530,1778413195250,-0.44940428,0.16886960040000001,-0.817730624,2.97830041,-1.53467737,-2.86427807
531,1778413195260,-1.5067071,-0.388762514,-1.2943539333333334,1.05434784,-0.7850660066666666,-2.4065599333333334
532,1778413195270,-1.96390722,-0.6343296900000001,-1.42527216,0.181956133,-0.41713233,-1.9919729
533,1778413195280,-1.9229441999999999,-0.22418652333333336,-0.5402517,-1.8876282215555555,1.2628334277777777,-1.02988846
534,1778413195290,-2.05747368,-0.135306672,-0.09814596,-2.66905128,2.1977369199999996,-0.881086092
535,1778413195300,-2.1715663666666667,-0.09598459266666666,0.2395363444444444,-2.9964688666666666,2.7609278888888884,-0.9007961111111111
536,1778413195310,-2.4648084333333333,0.024889664000000002,1.4038115666666666,-1.8898935444444445,2.4943947222222222,-1.4642687333333333
537,1778413195320,-2.60299941,0.0139611808,1.5420533500000002,-1.36435789,2.16615599,-1.65912221
538,1778413195330,-2.8524191666666665,-0.07452331744444446,1.4514193444444445,-0.03749076666666662,1.1477056656666667,-2.1294389333333337
539,1778413195340,-3.49671315,-0.41747861999999997,0.8765907500000001,1.97234945,-0.3865899665,-2.9437493
540,1778413195350,-3.8524471333333334,-0.6035480755555556,0.6007158877777778,2.5079013444444445,-0.7550666155555555,-3.1910067666666664
541,1778413195360,-5.134034359999999,-1.0973231399999999,-0.31466167300000003,2.6539482,-1.3496517799999999,-2.2337767200000003
542,1778413195370,-5.199358133333333,-1.10642631,-0.56142505,1.941671411111111,-1.3225437222222223,-0.7938978055555554
543,1778413195380,-4.2941589,-0.78521043,-0.5780337400000001,1.037753135,-0.83159218,0.327146885
544,1778413195390,-3.360043633333333,-0.5515464099999999,-0.36056982000000004,0.41872730333333336,-0.28607164,0.9893095111111112
545,1778413195400,-3.0693865,-0.48679669999999997,-0.28117493,0.23112933000000002,-0.092772424,1.164962
546,1778413195410,-1.6123807199999998,-0.184126595,-0.028971200599999997,-0.0539989,0.8412588504,1.01512121
547,1778413195420,-0.9655678888888889,-0.08035360344444445,0.027847152888888886,-0.14723115666666667,1.4765026777777779,0.6468957333333333
548,1778413195430,-0.66723406,-0.2520756836,-0.0213671004,0.6888983040000001,0.630989963,-0.29317614000000003
549,1778413195440,-0.5681869333333334,-0.5902207466666667,0.008564185555555557,1.5924364333333334,-0.1472735811111111,-1.1511077777777778
550,1778413195450,-0.5850036,-0.76647764,0.05000291799999999,1.99880681,-0.348534183,-1.48264855
551,1778413195460,-1.0231863555555556,-1.1818948488888887,0.11312313311111111,3.464691711111111,-0.5426274866666666,-1.4768929666666666
552,1778413195470,-1.94424148,-1.57851288,-0.03141036600000001,3.7560387399999997,-0.730741302,-1.10636656
553,1778413195480,-2.5772338666666665,-1.9441479333333334,-0.5526236833333333,4.392704433333333,-1.57102279,0.9240591999999999
554,1778413195490,-2.0033928,-1.948480888888889,-1.085646,4.5380860555555556,-2.1973447666666663,2.813409788888889
555,1778413195500,-1.3293337539999999,-1.8433362800000002,-1.3723880300000002,4.379530470000001,-2.43495157,3.7321241
556,1778413195510,1.9057512866666666,-0.8588000666666666,-1.4931054333333333,2.970448333333333,-2.4329536666666667,5.089121166666667
557,1778413195520,3.2947347999999996,-0.46860963,-1.2461398000000001,2.609234,-2.3046503,5.1752505
558,1778413195530,3.9337661000000006,-0.32645196,-1.06555,2.609234,-2.3046503,5.1752505
559,1778413195540,3.2133187299999997,-0.541613922,0.539223538,1.2254130799999998,0.5686606,1.718275134
560,1778413195550,1.9877210666666665,-0.8001822000000001,1.1754174777777777,1.9552457555555556,0.8237105555555555,0.9756673
561,1778413195560,0.4246995566666667,-1.430761022222222,1.2865791111111111,3.944546266666667,0.3511862866666667,1.8414414
562,1778413195570,0.45990484600000003,-1.7319060400000001,0.53120172,4.712014600000001,0.524565052,3.01942556
563,1778413195580,0.9158867333333335,-1.6874155,-0.1320707,4.774076888888889,1.1577082666666667,4.057671655555556
564,1778413195590,1.4725189200000002,-1.47409816,-1.0328406600000002,4.10397746,2.1875968,4.94923716
565,1778413195600,1.576613088888889,-1.4078395777777777,-1.2429077888888889,3.592019422222222,2.6065701333333333,5.239941088888889
566,1778413195610,1.74524824,-1.09153318,-1.44663326,1.61130808,2.55715924,5.6679142
567,1778413195620,1.6077835555555555,-1.0169665444444442,-1.1215559888888889,0.6399218788888889,2.3899907888888894,5.804635344444445
568,1778413195630,1.4091845333333333,-1.0263708777777778,-0.9635792711111111,0.0008059833333333463,2.2307633000000004,5.983817277777778
569,1778413195640,1.06666592,-1.13340758,-0.629231824,-0.96987272,1.79225642,6.462382320000001
570,1778413195650,1.009859111111111,-1.2113308333333332,-0.4966617555555555,-1.2152297111111112,1.5806860666666667,6.702988322222222
571,1778413195660,1.2597869400000001,-1.29835929,-0.433802762,-1.88290624,1.11409374,7.48750613
572,1778413195670,1.4535638,-1.301688411111111,-0.37481522666666667,-2.2538057888888887,1.0242720777777778,7.733080311111111
573,1778413195680,1.61640524,-1.2337793000000001,-0.10707331440000001,-2.78500538,0.8100140360000001,7.9746567200000005
574,1778413195690,1.6591009,-1.2036373666666667,-0.004593762333333334,-2.8700234222222223,0.38987327666666666,8.105298999999999
575,1778413195700,1.69714174,-1.17787978,0.019336494399999998,-2.8690732,0.28358585,8.131905
576,1778413195710,1.9341373333333334,-1.070177588888889,-0.24373712444444445,-2.3629438888888887,-1.2608481111111112,8.201879666666667
577,1778413195720,2.1010576666666667,-1.0141039,-0.4577807733333334,-2.2626292,-1.8377594,8.209888666666666
578,1778413195730,2.164913,-0.9912468999999999,-0.5271649,-2.2422676,-2.0199955,8.2137575
579,1778413195740,2.8797106111111113,-0.4740655688888889,-0.2540527522111111,-2.7895868,-2.2447873222222223,7.881389055555555
580,1778413195750,3.0694596,-0.077864296,0.13702628602,-2.97824698,-2.0116880200000002,7.6837104
581,1778413195760,2.8641103333333335,0.29464119,0.4186728133333333,-3.1362170333333332,-1.4280846,7.225941300000001
582,1778413195770,2.74892264,0.485138084,0.357935508,-3.09753003,-1.36003624,7.05588132
583,1778413195780,2.7144368,0.5726147466666666,0.033152333333333325,-3.0924397333333338,-1.7495938666666666,6.5981938
584,1778413195790,2.72768956,0.65206241,-0.0621957024,-3.44265878,-1.94706038,6.240522459999999
585,1778413195800,2.7051578000000003,0.7210074666666667,0.02518439533333333,-3.740073522222222,-1.9348162555555557,6.066010166666667
586,1778413195810,2.6254140777777777,0.9144435777777777,0.36836837777777776,-4.366666811111111,-1.7685979555555553,5.78576711111111
587,1778413195820,2.70903,1.1226874500000001,0.619716045,-4.450556499999999,-1.75226119,5.7313814
588,1778413195830,3.0528508111111115,1.2440698555555556,0.6033787166666666,-4.630010055555555,-1.9698381666666667,5.371502388888889
589,1778413195840,3.54154804,1.14080438,0.568838076,-4.833435880000001,-2.5533109400000003,4.91649568
590,1778413195850,3.6628965999999994,1.0668001,0.63619566,-4.925796,-2.8123407,4.757431
591,1778413195860,4.03261345,1.20276841,1.8787895760000002,-5.0378254,-2.92052171,4.597939080000001
592,1778413195870,4.664774333333334,1.6656256,2.6588644666666665,-4.598178166666667,-2.9319310555555558,4.3354715666666666
593,1778413195880,5.68105082,2.3074089399999997,3.07521604,-2.93719029,-3.2550218199999996,3.3361117499999997
594,1778413195890,6.774321144444444,3.0342419222222223,3.3533595333333333,-1.6822563444444445,-3.172672788888889,1.9680396
595,1778413195900,6.873080322222222,3.190321522222222,3.428573977777778,-1.373167611111111,-2.8183644111111112,1.3977627844444445
596,1778413195910,6.214347290000001,3.16608102,3.4996525999999997,-0.815817,-0.85010087,-0.15964493800000001
597,1778413195920,5.940326366666667,3.0130822666666663,3.344636333333333,-0.49053578,0.19760909999999998,-0.8053003
598,1778413195930,5.647957719999999,2.72715308,2.80792614,0.16149274400000002,1.3247139,-1.71745816
599,1778413195940,5.446699933333333,2.5495593666666667,2.465174466666667,0.40053763333333336,1.7294612666666667,-2.1432594666666667
600,1778413195950,5.06919512,2.26381809,2.02975862,0.5575661000000001,2.3921084,-2.6188549199999995
601,1778413195960,4.538449011111111,1.9286321,1.5941072222222223,0.5635659722222222,3.1192491444444443,-2.914767888888889
602,1778413195970,4.33274672,1.7749389399999997,1.50563058,0.57906793,3.4396656200000004,-3.0303674000000003
603,1778413195980,4.380424988888889,1.5527633666666665,1.3309347666666667,0.9331964777777778,3.754564177777778,-3.4531279111111113
604,1778413195990,4.325049233333334,1.3361653666666666,1.0959075,1.2357695,3.759993933333333,-3.901761333333333
605,1778413196000,4.1828356399999995,1.18750223,0.9064431799999999,1.41806669,3.6458876599999996,-4.21003556
606,1778413196010,3.7249868888888886,0.9288855111111111,0.38935199777777774,1.5975946,3.2405701666666666,-4.7274234
607,1778413196020,3.5960756799999998,0.86088564,0.22351304599999997,1.45966532,3.05116676,-4.924971480000001
608,1778413196030,3.5507696,0.8233305822222222,0.23740545,1.1543231777777778,3.1718837555555557,-5.059249155555555
609,1778413196040,3.39776235,0.719261486,0.17166550500000002,0.620361216,3.75351898,-5.28060668
610,1778413196050,3.287956133333333,0.6603129333333333,0.10345115903333334,0.3357878266666667,4.156841133333334,-5.4014169333333335
611,1778413196060,2.8632972,0.39836676,0.0274711137,-0.133801,4.5380098,-5.5476638
612,1778413196070,2.61327754,0.20550590300000002,0.11163456060000002,-0.259823878,4.4379123499999995,-5.57706631
613,1778413196080,2.4444312666666668,0.041973996666666666,0.24174174,-0.22531779777777775,4.251454555555555,-5.573862666666667
614,1778413196090,2.27168735,-0.116454965,0.334440245,-0.037796172,4.03059924,-5.55238768
615,1778413196100,2.123785777777778,-0.24284953444444446,0.3682193266666667,0.08398301888888889,3.938904277777778,-5.532731888888889
616,1778413196110,1.9910888699999998,-0.382110721,0.27824794399999997,0.42043089499999997,3.73922509,-5.3948503500000005
617,1778413196120,2.0014989666666665,-0.4521402133333333,0.22725919666666666,0.5990629888888889,3.617598722222222,-5.350317944444445
618,1778413196130,2.1457045,-0.538866828,0.147039072,0.767819712,3.5174877,-5.357833
619,1778413196140,2.2840017111111113,-0.6801074333333333,-0.05494561111111111,1.2490044666666666,3.3146861666666663,-5.587165333333334
620,1778413196150,2.2619002,-0.7687541999999999,-0.1646030933333333,1.3436179444444445,3.277492333333333,-5.718361788888888
621,1778413196160,2.0766822,-0.95067136,-0.36204552,1.43425408,3.1710149999999997,-5.95628018
622,1778413196170,1.7354501666666668,-1.1265901444444444,-0.6262492866666667,1.3506087666666666,2.9703720666666666,-5.929647200000001
623,1778413196180,1.51755804,-1.22390682,-0.80251026,1.1547303999999998,2.80336905,-5.781822
624,1778413196190,1.4096046,-1.2368303666666667,-0.8116530533333334,0.8130631333333334,2.5777245333333334,-5.542777233333333
625,1778413196200,1.36504306,-1.2051740199999998,-0.761892022,0.609976796,2.48349112,-5.3876729800000005
626,1778413196210,1.313216811111111,-1.1606978222222224,-0.6905992177777778,0.2916710733333333,2.4530436888888887,-5.128682022222222
627,1778413196220,1.2841331777777778,-1.1518185444444446,-0.6686297833333333,0.13665161999999997,2.4449669666666667,-5.0018972
628,1778413196230,1.20398795,-1.13241365,-0.582686465,-0.022677702,2.21966626,-4.75301757
629,1778413196240,1.1589802777777778,-1.097181288888889,-0.4575944888888889,-0.06207735,2.1252904,-4.6700034
630,1778413196250,1.18585586,-1.0466830599999999,-0.346922686,-0.024632415,2.01839207,-4.54930016
631,1778413196260,1.199927777777778,-0.8838185,-0.07772133422222222,0.34209991,1.7807724666666667,-4.276211
632,1778413196270,1.20016154,-0.799058784,-0.001683023799999999,0.70759017,1.5862176,-4.2320262
633,1778413196280,1.1895036777777779,-0.7412966,0.015163487755555557,1.4171911222222222,1.1390435666666667,-4.227954044444444
634,1778413196290,1.13180079,-0.6991535900000001,-0.10651536989000002,1.76741022,0.8359139680000001,-4.2488246
635,1778413196300,1.0938274,-0.6855989333333334,-0.1862439366666667,1.9838537333333335,0.6136469833333333,-4.267862666666667
636,1778413196310,0.8597927211111112,-0.7188224111111111,-0.3971098833333333,2.2701375333333336,0.21817427666666667,-4.2715276666666675
637,1778413196320,0.702062296,-0.7422994,-0.519777266,2.4024471,-0.158621772,-4.133191040000001
638,1778413196330,0.6789792944444444,-0.7004812333333333,-0.6149511722222223,2.4939620999999996,-0.67124478,-3.9703798000000003
639,1778413196340,0.63475655,-0.681100702,-0.74023222,2.53727625,-1.2043312,-3.84102286
640,1778413196350,0.5627361111111111,-0.7058440255555556,-0.7640689944444445,2.551271444444444,-1.405279588888889,-3.773619344444444
641,1778413196360,0.3940108,-0.534378744,-0.5840707,2.63800496,-1.76460033,-3.41966051
642,1778413196370,0.3874921288888889,-0.4009481955555556,-0.5483619955555555,2.6582375999999996,-1.7559738444444444,-3.3758220000000003
643,1778413196380,0.24325200600000002,-0.240550612,-0.6600873039999999,2.57038412,-1.5391366,-3.50010892
644,1778413196390,0.086702212,-0.36648478,-0.72445284,2.3413012444444443,-1.4769523444444443,-3.623622244444445
645,1778413196400,0.008120392,-0.42822619333333334,-0.73347775,2.1933744333333336,-1.5524938,-3.7290952
646,1778413196410,-0.17292167,-0.53022912,-0.790503415,2.00148686,-1.8115744799999998,-3.9924517199999996
647,1778413196420,-0.5822290833333333,-0.7370145666666666,-0.873242,1.7352389,-1.9682770666666667,-4.1564846
648,1778413196430,-1.23049862,-0.9726787399999999,-1.00189996,1.08045136,-2.03441148,-3.91756204
649,1778413196440,-1.828467166666667,-1.1549590555555556,-1.1215153222222223,0.3811601977777778,-1.8535735999999998,-3.355053188888889
650,1778413196450,-2.148845,-1.236993,-1.1792761,-0.31626618,-1.6180581,-2.7360613
651,1778413196460,-2.114371422222222,-1.1515712222222223,-0.9783023577777779,-2.55812646,-0.2040993666666667,-2.1092810333333336
652,1778413196470,-2.23670075,-1.2579697,-0.582442535,-4.104695,0.79144424,-1.7961352600000002
653,1778413196480,-2.6245502444444444,-1.5301062444444444,0.2954305555555556,-4.799146966666666,1.2990175666666666,-1.7741040666666668
654,1778413196490,-3.2691777333333336,-1.7812455444444444,1.6748470111111111,-4.066944766666667,0.8258145666666665,-1.6099898000000001
655,1778413196500,-3.3396459399999996,-1.79605602,1.91389208,-3.1465582700000003,0.12889640899999996,-1.51551207
656,1778413196510,-3.207802422222222,-1.8479872222222222,2.2137165333333333,-1.091702838888889,-1.2744224977777778,-1.4407171333333333
657,1778413196520,-3.17219124,-1.9155263999999999,2.28517602,-0.165493806,-1.7165266,-1.44306552
658,1778413196530,-3.4627629444444445,-2.063148866666667,1.947725411111111,1.4506518755555555,-1.7950001444444448,-1.318479888888889
659,1778413196540,-3.7136801,-2.0505038,1.5914465,2.48300248,-1.6941696400000001,-0.90820772
660,1778413196550,-3.8332725000000005,-2.0264902,1.4198389,2.8598851333333335,-1.5791674666666666,-0.3717769233333333
661,1778413196560,-3.3925363699999997,-1.73308589,0.7601754350000001,2.8617583200000003,-1.115941604,0.777440632
662,1778413196570,-2.7160020666666664,-1.4007423333333333,0.043407001333333334,2.4314266,-0.6211553000000001,1.2802086333333333
663,1778413196580,-1.9825445,-1.1467234222222222,-0.31791150366666665,1.5445867000000002,-0.01852054888888889,1.6581873555555555
664,1778413196590,-1.8311556599999999,-1.09314912,-0.40149292000000003,1.071349758,0.138677599,1.8367108399999998
665,1778413196600,-1.6798812777777778,-1.0398844888888887,-0.4592578133333334,0.8645779533333333,0.07235995,1.9658507111111112
666,1778413196610,-1.38274524,-0.9730811380000001,-0.515115452,0.34401390000000004,-0.42886059200000004,2.5227991
667,1778413196620,-1.0260658866666668,-0.9837566099999999,-0.5355393999999999,0.03287546111111111,-0.6614033388888889,2.8508411444444444
668,1778413196630,-0.495419142,-1.17059876,-0.43545226800000003,-0.6051663780000001,-0.5175555999999999,3.1264691200000003
669,1778413196640,-0.34281134888888887,-1.3880958888888888,-0.23084003666666664,-1.5059930166666666,0.13023772000000003,3.339858333333334
670,1778413196650,-0.31390722555555556,-1.4592789222222222,-0.11613821555555555,-1.8932023111111111,0.4825184155555556,3.4422091444444445
671,1778413196660,-0.1237999072,-1.7013676199999999,0.62063378,-2.7302734400000004,1.5327684099999999,4.008166009999999
672,1778413196670,0.11353981833333335,-1.9134890666666666,1.3278281333333333,-2.5057463111111113,1.7457504888888888,4.197623644444445
673,1778413196680,0.74100665,-2.11500152,2.1244745299999996,-0.856453638,2.00483124,4.4546953799999995
674,1778413196690,1.2342759600000002,-2.1111395222222225,2.1400502111111113,0.5298336466666667,2.0658346,4.503522333333333
675,1778413196700,1.3646284100000001,-2.10259834,1.8318628799999999,1.7427396000000002,1.9359889000000003,4.36667189
676,1778413196710,1.3141552444444444,-2.109940188888889,0.43519138777777777,4.936612933333333,0.5156569133333333,3.715325766666667
677,1778413196720,1.2275411,-2.0907775,-0.040291995,5.6901185,-0.168212065,3.5992647499999997
678,1778413196730,0.8894421333333332,-2.0794404333333336,-0.9879234866666669,5.9236320000000005,-1.138271488888889,3.7595103
679,1778413196740,0.7082662444444444,-2.0290209000000003,-1.4433532111111111,5.476627533333333,-1.5197116666666668,4.2229399
680,1778413196750,0.6989432,-2.0132883,-1.4748117,5.2573333,-1.4415232,4.3768735
681,1778413196760,0.6989432,-2.0132883,-1.4748117,5.2573333,-1.4415232,4.3768735
682,1778413196770,1.3791384199999999,-1.9282191400000002,-1.08723418,2.31529431,0.90804735,6.2397819
683,1778413196780,1.900585222222222,-1.8021919111111113,-0.6303044011111111,1.0935777911111113,1.7828764222222222,7.047166555555555
684,1778413196790,2.21167788,-1.74919952,-0.45126416999999996,0.751449044,1.57039662,7.23644776
685,1778413196800,2.3053276444444446,-1.7272280666666666,-0.3867502411111111,0.6268226222222223,1.324265928888889,7.2812568
686,1778413196810,2.46090875,-1.63067135,-0.222823993,0.523969505,0.7456306930000001,7.0885007700000005
687,1778413196820,2.4019795333333334,-1.6158259333333334,-0.20934149333333335,0.42931533666666666,0.5965432388888889,6.996737944444444
688,1778413196830,2.1008237999999997,-1.6241394666666666,-0.11138861333333333,0.24185310222222223,0.5027442522222222,7.0528
689,1778413196840,2.0273317200000003,-1.59920908,-0.11712879400000001,-0.06171083999999999,0.46439663,7.3965507200000005
690,1778413196850,2.0348444,-1.5823178,-0.15110639,-0.13537902,0.4643966299999999,7.491659600000001
691,1778413196860,2.3548020000000003,-1.5202106,-0.26567098,-0.841472628,0.302522116,7.872584020000001
692,1778413196870,2.433482088888889,-1.512662711111111,-0.2078170022222222,-1.1119965666666667,0.23695783666666667,7.948980888888889
693,1778413196880,2.4753974800000003,-1.48687026,-0.056012415100000004,-1.52769841,0.117565192,8.06933065
694,1778413196890,2.545626133333333,-1.3911482000000002,0.06790030566666666,-1.728545,0.027360867999999997,8.1709985
695,1778413196900,2.5746624,-1.347792,0.103207245,-1.7624131222222221,-0.02836197822222222,8.204187777777777
696,1778413196910,3.0619896399999997,-0.94222568,0.0442403844,-1.8072222,-0.505582996,8.1093026
697,1778413196920,3.2078090666666665,-0.8027500799999999,0.004116093333333333,-1.8289276333333335,-0.7606320733333333,7.944755866666666
698,1778413196930,3.2675229999999997,-0.6030839849999999,0.091499241,-1.96372107,-1.2929651500000001,7.58279838
699,1778413196940,3.320996755555556,-0.3835115388888889,0.29827959444444446,-2.1617713333333333,-1.280055922222222,7.423923777777778
700,1778413196950,3.4269744600000003,-0.1983286312,0.47316784,-2.2850268,-1.1635877,7.363382
701,1778413196960,3.8258228333333335,0.20549980933333334,0.6221196166666666,-2.3937576666666667,-0.7972829499999999,7.213113566666667
702,1778413196970,4.229942111111111,0.5805690955555556,0.36644413333333337,-2.685063977777778,-0.007932529999999997,6.7847059000000005
703,1778413196980,4.1971049,0.8318016,0.349075245,-3.2174165099999996,0.0219446869,5.99245744
704,1778413196990,4.069159866666666,1.3635144444444445,0.5945400977777777,-3.5994428666666667,-0.103156831,5.3491642
705,1778413197000,4.0105934,1.5128259800000001,0.672411172,-3.7894977400000003,-0.179268398,5.0532036
706,1778413197010,3.7493144,1.8185851444444445,1.1397311333333333,-4.397005833333333,-0.15589330666666668,4.406194
707,1778413197020,3.6825319,1.8530045000000002,1.3120886999999999,-4.54920875,-0.0671168415,4.2501225
708,1778413197030,3.8236477555555552,1.9645319333333333,1.5213760555555556,-4.539265388888889,-0.4881263486666667,3.9242354444444447
709,1778413197040,3.96451778,1.98278028,1.58362902,-4.48171,-0.7457681600000001,3.8026768599999996
710,1778413197050,4.3208313,1.9409974,1.6755855,-4.274022,-1.5496432,3.4532723
711,1778413197060,4.388287922222222,2.110411,2.098184877777778,-3.3888363888888886,-3.268703077777778,2.987060111111111
712,1778413197070,4.9270924,3.16596514,3.6798062799999998,-2.7708184,-3.72030412,2.93087582
713,1778413197080,7.002542677777778,4.378639777777778,4.639996377777778,-1.7191786666666666,-1.6873128333333334,2.334352866666667
714,1778413197090,7.84546707,4.44707059,4.39216461,-0.986854292,-0.227616964,1.2713716800000001
715,1778413197100,7.988037266666668,4.1992288,3.9997249999999998,-0.12504551999999997,0.5892130733333334,-0.5688515
716,1778413197110,7.1682045500000005,3.12063939,3.01270003,1.4277791,0.278088212,-3.8188338599999994
717,1778413197120,6.534686611111111,2.636928877777778,2.6635158333333333,1.7232255333333333,0.27435525222222223,-4.533173944444444
718,1778413197130,5.573028166666667,2.1468019999999997,2.0807820666666665,1.7729077444444445,0.8049778722222223,-5.113512777777777
719,1778413197140,4.0248079,1.50841115,0.90232398,1.3263784250000001,1.8021521,-5.34227925
720,1778413197150,3.573487677777778,1.3415789,0.42791114666666663,0.8548043777777778,2.3128883333333334,-5.220648488888888
721,1778413197160,3.0408602799999995,1.05182356,0.12354379200000001,-0.277003972,2.86933288,-4.83138944
722,1778413197170,2.7410372,0.8699220000000001,0.28224208,-0.9510043577777777,3.109713166666667,-4.5009345
723,1778413197180,3.0620872,0.896277892,0.442623384,-1.13296896,3.21438514,-4.3276847
724,1778413197190,3.3379013111111115,0.8435858044444444,0.46066033333333334,-1.1174941333333335,3.1886481,-4.4916361
725,1778413197200,3.351811266666667,0.7380715166666667,0.42120342666666666,-1.02240558,3.0652570333333333,-4.732106333333333
726,1778413197210,3.14937286,0.504785534,0.40247470500000004,-0.785396872,2.7478888699999997,-5.220865699999999
727,1778413197220,3.0115138555555556,0.35151102,0.3917233855555555,-0.6726616111111111,2.6308003777777778,-5.424781833333333
728,1778413197230,2.6622467,0.047539359999999996,0.284784894,-0.572638752,2.58806823,-5.721958949999999
729,1778413197240,2.3360814333333333,-0.13040394833333335,0.17283528,-0.6709648333333332,2.753648633333333,-5.79974
730,1778413197250,2.2093363,-0.19028549,0.12930632,-0.7310315,2.8357058,-5.792817
731,1778413197260,1.6888959555555556,-0.3962494211111111,-0.026475121666666667,-0.9185616022222222,3.0083464444444443,-5.657200555555556
732,1778413197270,1.47021994,-0.45978903200000004,-0.004622221199999997,-1.260758238,3.29330664,-5.3058192
733,1778413197280,1.3983743333333334,-0.48382902666666666,0.15810881822222222,-1.7098802888888889,3.5998162444444444,-4.636950000000001
734,1778413197290,1.4605324,-0.4954963666666667,0.3764548933333333,-1.6441123222222223,3.5043882444444443,-4.224628344444445
735,1778413197300,1.56748171,-0.499163259,0.474600861,-1.57754354,3.46422162,-4.1678263300000005
736,1778413197310,1.945536955555556,-0.5633289666666667,0.5409055477777778,-0.9742844011111109,3.216611222222222,-4.161100133333333
737,1778413197320,2.0871950000000004,-0.65346802,0.60947156,-0.639404352,3.1866525799999996,-4.305938800000001
738,1778413197330,2.276887622222222,-0.8303194311111111,0.754437668888889,0.003665093333333332,3.2804789000000003,-4.6219504
739,1778413197340,2.28573088,-0.9267004,0.6968272640000001,0.49281630200000004,3.35707916,-4.86278716
740,1778413197350,2.232393,-1.0416664666666666,0.5440561644444445,0.86885387,3.4014266,-5.04934
741,1778413197360,1.9818503500000002,-1.18735885,0.1910873691,1.51708493,3.14032769,-5.33664405
742,1778413197370,1.5550737666666667,-1.2862640111111112,-0.11434610477777778,1.9060724777777776,2.640234688888889,-5.383413888888889
743,1778413197380,1.4550645333333334,-1.3002790666666666,-0.18144350666666667,2.0192827666666666,2.2700612,-5.2735462
744,1778413197390,1.33118131,-1.27432125,-0.218287122,2.03771,2.02694395,-5.1476862500000005
745,1778413197400,1.236569422222222,-1.2325075333333335,-0.2612923555555555,2.0331965555555556,1.8724674444444445,-5.037801611111111
746,1778413197410,1.05526585,-1.16100983,-0.43670841400000004,1.8275786,1.8158961999999998,-4.61350025
747,1778413197420,1.0098454666666667,-1.1105627666666669,-0.5229370233333334,1.5896536222222222,1.9344345111111112,-4.293178755555555
748,1778413197430,1.0652450500000001,-1.0023298500000002,-0.5144812350000001,1.188327,2.1472808,-3.92904585
749,1778413197440,1.1561142000000002,-0.8791265,-0.39026667,0.7358927733333334,2.3934523,-3.5438049333333335
750,1778413197450,1.1743368,-0.8628552,-0.34023327,0.65688986,2.4404876,-3.4733539
751,1778413197460,1.2964239,-0.8272840422222223,-0.21801069555555555,0.6291981333333333,2.4702832555555556,-3.3741928666666663
752,1778413197470,1.3189489222222222,-0.82931331,-0.23200540888888888,0.75170696,2.310580633333333,-3.4286940222222224
753,1778413197480,1.2576251800000002,-0.892341718,-0.331589468,0.9131402789999999,1.9696464500000002,-3.5619876999999995
754,1778413197490,1.1715623000000002,-0.9133764355555556,-0.3326854,1.0229909499999998,1.6921996222222222,-3.647784611111111
755,1778413197500,1.06940703,-0.917718117,-0.300221792,1.1689019799999998,1.36258644,-3.7164710400000005
756,1778413197510,0.76875085,-0.9334013611111112,-0.21628972444444444,1.6210104333333333,0.5670189733333334,-3.7128060666666665
757,1778413197520,0.6890849466666666,-0.9351866833333333,-0.20389401666666665,1.871661388888889,0.17916490044444444,-3.641608388888889
758,1778413197530,0.646897496,-0.8207307800000001,-0.258319952,2.39736938,-0.5096146022,-3.38062721
759,1778413197540,0.7788259555555554,-0.5623295555555556,-0.4656707977777778,2.6420162333333335,-0.7628039999999999,-3.287249077777778
760,1778413197550,0.8041750000000001,-0.48161346800000004,-0.570758908,2.71039032,-0.78522888,-3.3072034599999993
761,1778413197560,0.5657037111111111,-0.2941025133333333,-1.0452981088888889,2.5785219555555554,-0.6368337333333334,-3.564302188888889
762,1778413197570,0.34001066300000005,-0.335312234,-1.20351535,2.4301794,-0.5808394,-3.7451808
763,1778413197580,-0.1280291511111111,-0.5056595722222222,-1.4258353000000001,1.4234352888888888,-0.6590278255555556,-3.9065801999999996
764,1778413197590,-0.5590325999999999,-0.51060295,-1.34018794,0.60582304,-0.59256767,-3.8280118
765,1778413197600,-0.748973201111111,-0.5026512666666667,-1.2876225333333333,0.2438722866666667,-0.5461568555555556,-3.748642411111111
766,1778413197610,-1.2665406888888888,-0.5703042666666667,-1.0634021666666666,-0.9524296377777779,-0.42290143888888887,-3.268109244444444
767,1778413197620,-1.52394868,-0.8408905000000001,-0.7130477,-1.9565131399999998,-0.10804361,-2.59564272
768,1778413197630,-1.686429711111111,-1.1674326111111109,-0.15443651777777778,-2.8268991666666667,0.7080992099999999,-1.9025856000000003
769,1778413197640,-1.8090751600000001,-1.10041175,0.23762667299999998,-3.4066798499999997,1.60435978,-1.57415343
770,1778413197650,-1.8580150000000002,-1.0799478333333332,0.42114244444444443,-3.5255982444444443,1.8932362444444442,-1.5305796555555555
771,1778413197660,-2.1013177,-1.08674329,1.47650379,-2.82272516,1.761714,-1.73468404
772,1778413197670,-2.187539588888889,-1.1176973222222222,1.6088065777777778,-2.247901011111111,1.4977465266666665,-1.8764548888888888
773,1778413197680,-2.5161468200000003,-1.21555262,1.4856719999999999,-0.20017465999999998,0.37041777600000003,-2.31205688
774,1778413197690,-3.233836966666667,-1.4191952333333333,0.977052288888889,1.3198628000000001,-0.7199089566666667,-2.4763748666666667
775,1778413197700,-3.4959153,-1.4630426333333333,0.87910622,1.6850136999999998,-1.0515990222222222,-2.408299322222222
776,1778413197710,-3.9925743799999998,-1.4722017,0.755233088,2.23257035,-1.5560570500000002,-1.7137319999999998
777,1778413197720,-4.0934095,-1.4534689,0.71257204,2.4014697,-1.6614282,-1.259567
778,1778413197730,-3.66959819,-1.2570519900000001,0.398459225,2.40794468,-1.5539191,-0.9554719740000002
779,1778413197740,-3.3315833777777777,-1.0855240333333331,0.05271649133333333,2.152244044444444,-0.6683262688888889,0.9167544511111111
780,1778413197750,-3.1488118199999997,-0.9864112199999999,-0.10676842720000002,1.9771752399999998,-0.5020400700000001,1.1300216
781,1778413197760,-2.3265078,-0.6166213,-0.7643739,0.8522930888888889,0.07894352555555556,1.4612909333333333
782,1778413197770,-2.3118239,-0.601254599,-0.7541294,0.323733769,0.190836319,1.4198075600000002
783,1778413197780,-2.2880636,-0.5977042611111112,-0.5892146111111111,-0.27482186333333336,0.1932143822222222,1.4107941666666666
784,1778413197790,-2.0807514,-0.6595710333333334,-0.2253586766666667,-0.9222266433333333,0.10249508,1.4363819
785,1778413197800,-1.9654622199999998,-0.723652012,-0.13366023900000001,-1.02069522,0.109066778,1.4166311600000001
786,1778413197810,-1.926362366666667,-0.9201349533333334,-0.20569289166666666,-1.237423811111111,0.41070994,1.3324699666666668
787,1778413197820,-1.9386588100000002,-0.946603988,-0.30890217600000003,-1.29753118,0.465862656,1.37338316
788,1778413197830,-1.5254887666666666,-0.9302914311111111,-0.5738817155555556,-1.4304515,0.49371728,1.513145
789,1778413197840,-1.1673546299999997,-0.9983875440000001,-0.619667286,-2.13897342,0.0627721868,2.0701765500000002
790,1778413197850,-1.0961580633333332,-1.0122270999999998,-0.5969454311111111,-2.316926811111111,-0.12759072022222223,2.191185377777778
791,1778413197860,-0.6964193644444445,-1.1322137222222224,-0.22673070444444443,-2.4570821333333335,-0.7744101188888889,2.462333722222222
792,1778413197870,-0.519633984,-1.2077045800000001,0.020263375999999993,-2.36749125,-0.8972582750000001,2.54975275
793,1778413197880,-0.35252396888888893,-1.2678483333333335,0.29986844999999995,-2.0789677666666666,-0.9194523766666666,2.625497833333333
794,1778413197890,-0.304103105,-1.4910320499999998,0.75310797,-1.110673025,-0.779670165,2.7501489
795,1778413197900,-0.34927851444444447,-1.6126245555555554,0.8157759022222222,-0.54594475,-0.75432,2.8613613
796,1778413197910,-0.22150683399999999,-1.7342047999999999,0.5327200719999999,1.458688048,-1.67144612,3.3716631599999998
797,1778413197920,-0.03984988222222222,-1.7877195666666665,0.1306173684444444,2.2363628,-2.2124379,3.6045588000000004
798,1778413197930,0.46603331333333325,-1.7842200333333333,-0.37122083199999995,3.266641488888889,-2.9772016444444445,4.102942422222222
799,1778413197940,0.8521747099999999,-1.73812877,-0.73250314,3.82091068,-3.2307712000000004,4.6344066
800,1778413197950,0.9745486999999999,-1.7102419555555555,-0.8349844111111111,3.8571949999999995,-3.2252736,4.70612
801,1778413197960,1.5533253500000002,-1.5451329,-0.8528668500000001,3.6777280600000006,-2.790839,5.3900858
802,1778413197970,1.7389937111111111,-1.478792288888889,-0.8163315111111111,3.6081729444444446,-2.5947265,5.491474622222222
803,1778413197980,2.1890912,-1.2009847,-0.8123492500000001,3.2503183,-1.77046445,5.4896081500000005
804,1778413197990,2.170624533333333,-1.0526528666666666,-0.7071144666666667,2.8293428,-1.1865962666666665,5.163059333333333
805,1778413198000,2.0248954699999997,-1.05935447,-0.619319689,2.69340887,-1.17299474,5.03164049
806,1778413198010,1.9646404111111113,-1.0725015666666666,-0.4907772944444444,2.6102520333333334,-1.4610703333333335,4.958603433333334
807,1778413198020,1.9838353,-1.0803068333333332,-0.5330290766666667,2.5459094,-1.4979248,4.942314333333333
808,1778413198030,1.9606387900000002,-1.02942893,-0.565636689,2.32355596,-1.32680608,4.95876636
809,1778413198040,1.9050265222222222,-0.9465626722222223,-0.45516884999999996,1.7636772111111112,-0.7423745666666667,5.081790922222222
810,1778413198050,1.85403813,-0.9264747850000001,-0.41129229599999995,1.4969880999999998,-0.41652149029999996,5.1654771
811,1778413198060,1.7039442777777778,-0.9276320055555556,-0.3947113711111111,0.8417729933333333,0.28661462633333334,5.4406131
812,1778413198070,1.65944438,-0.938182758,-0.3945596,0.38011497800000005,0.5064839919999999,5.6632717
813,1778413198080,1.6632474666666668,-0.9664181466666667,-0.38522572666666666,-0.0003817866666666614,0.5167258666666666,5.836671
814,1778413198090,1.6900173,-0.9935843933333334,-0.36846661666666664,-0.23741596666666664,0.43629765,5.924836666666667
815,1778413198100,1.7329669000000003,-1.0217365,-0.34340417,-0.45981525999999995,0.30313295,5.990808
816,1778413198110,1.7878482333333332,-1.0317235222222223,-0.155859362,-0.5694284066666666,0.16838174266666667,6.047277444444444
817,1778413198120,1.92526485,-0.9623123,0.0212055055,-0.79614776,-0.1467713138,6.1965413400000005
818,1778413198130,2.1050416,-0.7310691333333332,0.013639007000000002,-0.8405088555555555,-0.4607739555555555,6.328606655555555
819,1778413198140,2.3698883299999998,-0.42496383699999996,0.0399992844,-0.8315158500000001,-0.70606307,6.27301965
820,1778413198150,2.3836655111111114,-0.3555966411111111,0.07492307111111111,-0.8729516566666666,-0.8461506933333333,6.146370566666666
821,1778413198160,2.26674194,-0.050771258,0.35144125800000003,-0.9636420680000001,-0.83446316,6.002169879999999
822,1778413198170,2.2776735666666665,0.16328187,0.5239431766666667,-0.9639678666666666,-0.7885274466666667,6.043544466666667
823,1778413198180,2.4662414333333333,0.29042343,0.5096232266666667,-1.0046910333333332,-0.67511347,6.0376396
824,1778413198190,2.8788874,0.491964655,0.2800011,-1.30339535,-0.375900135,5.7935045
825,1778413198200,2.9341956111111114,0.559290731111111,0.17014204444444447,-1.6390219555555554,-0.24690956,5.550438199999999
826,1778413198210,2.68273582,0.59121132,0.52784176,-2.44042644,-0.1159846256,5.292289139999999
827,1778413198220,2.6181643111111113,0.6746701333333333,0.9245085777777778,-2.822614911111111,-0.0010774676666666688,5.3019420888888895
828,1778413198230,2.73711096,0.81309012,1.23568802,-2.97755968,0.109906693,5.3495405599999994
829,1778413198240,3.507511522222222,1.326201966666667,1.6844615111111112,-2.866723222222222,0.14321822777777776,5.122683733333333
830,1778413198250,3.7258577,1.4606949,1.6558284,-2.73461054,0.023288546799999997,4.7665938
831,1778413198260,3.8935908111111113,1.7650622777777778,1.6097279555555555,-2.581763,-0.9727318422222222,3.6712770111111106
832,1778413198270,3.862752333333333,1.8378137888888888,1.8194725666666665,-2.5079182666666666,-1.329330888888889,3.4011466777777777
833,1778413198280,3.71456428,2.08990232,2.59321214,-2.1622464999999997,-1.7377841,3.04064495
834,1778413198290,3.6392062,2.2511678,3.0276155,-1.8769809,-1.9314227,2.830819
835,1778413198300,4.24727828,2.77557656,3.2298712600000004,-1.065393948,-2.0886548,2.70362526
836,1778413198310,5.056880333333333,3.2791852,3.2182873,0.29221405333333333,-2.4688155,1.9183403666666667
837,1778413198320,5.26959418,3.5364320200000003,3.1259200199999997,0.7375217199999999,-2.52585345,1.38761595
838,1778413198330,5.414161133333334,3.911214111111111,2.7279300222222225,1.0979216266666667,-2.348275133333333,0.6312597600000001
839,1778413198340,5.5348355,4.1366745,2.3522103999999997,1.2814812500000001,-1.8318546000000002,-0.51097373
840,1778413198350,5.537406533333333,4.0187916,2.0223843,1.0848902333333335,-1.3319779,-1.2644538266666667
841,1778413198360,5.125776733333333,3.388836066666667,1.2538028333333333,0.34902286666666665,-0.13512451333333333,-2.6336169999999997
842,1778413198370,4.73753265,2.99721765,0.9726177499999998,-0.11842800199999999,0.357086048,-3.04221786
843,1778413198380,3.8158121333333335,2.2314004666666665,0.6253820333333333,-1.5392501844444444,1.5881519777777777,-3.528465877777778
844,1778413198390,3.0043216999999998,1.58833955,0.79519885,-2.39349035,2.38951995,-3.52710845
845,1778413198400,2.4844099666666666,1.1811325333333333,1.1572965333333332,-3.0042060999999998,3.0562300666666666,-3.4217712666666666
846,1778413198410,1.9749505800000002,0.78402135,2.0781273,-3.10779226,4.2794586,-2.93409792
847,1778413198420,1.9524411666666666,0.7355713833333334,2.3466511666666667,-2.3176307666666665,4.262924999999999,-2.7228261333333332
848,1778413198430,2.448865888888889,0.7804757355555556,2.251445811111111,-0.9688546333333332,3.5958797999999996,-2.836443733333333
849,1778413198440,2.69646224,0.78054552,2.09940304,-0.01233149,3.0871076,-3.1147865
850,1778413198450,2.7787868,0.7182803799999999,1.8638012,0.5108973622222223,2.801905488888889,-3.413490822222222
851,1778413198460,2.6893796,0.44034582499999997,1.1186781,1.563998,2.1347584,-4.524622
852,1778413198470,2.418701488888889,0.27230246555555554,0.7436849777777778,1.8567974999999999,1.9420362,-5.069701533333333
853,1778413198480,2.3403439400000003,0.226897378,0.61560298,1.84278876,1.99530208,-5.2167274
854,1778413198490,2.1995797,0.13552621,0.3184637,1.6849458,2.230356,-5.422033
855,1778413198500,1.9765542799999998,-0.0608541586,-0.003698386400000002,1.09169091,2.7654047,-5.55544196
856,1778413198510,1.6424943,-0.33864781000000005,-0.18917769666666667,0.3315118933333333,3.199643466666666,-5.3604901666666676
857,1778413198520,1.563082411111111,-0.45367824000000007,-0.21834946222222223,0.03803372222222222,3.3572420000000003,-5.2121645333333335
858,1778413198530,1.56943606,-0.5437786840000001,-0.242907472,-0.21853825999999996,3.50936322,-4.99576839
859,1778413198540,1.6546052777777778,-0.7733479944444445,-0.3090864644444445,-0.7137919777777778,3.790197044444444,-4.511115433333334
860,1778413198550,1.67029862,-0.828200794,-0.319354004,-0.7714084339999999,3.81075547,-4.44423449
861,1778413198560,1.7886037222222224,-0.9819170411111112,-0.2849184022222222,-0.8701010466666667,3.6252003666666663,-4.220623533333334
862,1778413198570,1.83136304,-1.00251578,-0.258179704,-0.81685553,3.43166365,-4.1907939999999995
863,1778413198580,1.8359099333333333,-1.0378857111111113,-0.23737495666666664,-0.6261693533333333,3.129192466666667,-4.251980666666666
864,1778413198590,1.7619929500000002,-1.0743462000000001,-0.249450525,-0.48510436000000007,2.93519746,-4.29726468
865,1778413198600,1.6684204,-1.1087943777777778,-0.25786395666666667,-0.3595006,2.763421944444444,-4.310214588888889
866,1778413198610,1.3696835777777778,-1.1437286,-0.2204634088888889,-0.060465394888888885,2.5170469,-4.057256022222222
867,1778413198620,1.3231016,-1.12877926,-0.23919078000000002,0.04286620919999999,2.4385327400000003,-3.9055894600000003
868,1778413198630,1.2981448666666666,-1.0803983666666666,-0.24585784666666669,0.21450071333333331,2.258047888888889,-3.6904082777777782
869,1778413198640,1.3079573999999998,-1.0332157499999999,-0.26530512,0.42934925,1.9631104999999998,-3.4816002500000005
870,1778413198650,1.3246809,-1.0061258,-0.28702894,0.5426614,1.7789399999999997,-3.388446
871,1778413198660,1.47436959,-0.907309025,-0.43535466700000003,0.7327570999999999,1.5068685199999998,-3.3117235999999997
872,1778413198670,1.4798356666666668,-0.9005572500000001,-0.5287368055555556,0.7235400777777777,1.485529611111111,-3.3501662999999997
873,1778413198680,1.2630706699999998,-0.8754748290000001,-0.514530012,0.6980609799999999,1.47718138,-3.2783713999999997
874,1778413198690,1.0731113111111112,-0.7945314522222222,-0.5318263733333333,0.7703038333333334,1.3152390333333333,-3.0165757777777777
875,1778413198700,1.0596349,-0.78550315,-0.5352141,0.780281,1.2957598,-2.9901736
876,1778413198710,0.9235294809999999,-0.7420188879999999,-0.5546969880000001,1.05626182,0.7392779079999999,-2.50939098
877,1778413198720,0.91863081,-0.6563255455555556,-0.5848681577777778,1.2469004222222222,0.40874166333333334,-2.186426
878,1778413198730,0.9849781849999999,-0.549931475,-0.67566444,1.24104305,0.521144351,-1.9412727
879,1778413198740,0.9635521666666667,-0.28155097333333334,-0.9821507666666667,0.9089661666666665,1.0082543333333331,-1.9184676
880,1778413198750,0.85311381,-0.176534689,-1.02621533,0.505766264,1.40754486,-2.0597769
881,1778413198760,0.26940596,0.09500554,-0.5225305,-0.1868853211111111,1.9013809555555552,-2.5498123111111113
882,1778413198770,-0.22145262888888886,0.03446339166666666,-0.3716375277777778,-0.41644511666666667,2.1157204666666667,-2.823794266666667
883,1778413198780,-0.624579124,-0.150246563,-0.312121858,-0.559505541,2.17079853,-2.90758718
884,1778413198790,-1.3250739,-0.6432015133333333,-0.054810107,-0.6548791522222223,1.8014055666666668,-2.7903586666666667
885,1778413198800,-1.4317115599999999,-0.7267680550000001,0.06353723990000001,-0.557489745,1.5135878699999998,-2.69023991
886,1778413198810,-1.6843565,-0.6349150833333334,0.6558919133333334,0.10241871333333331,1.2403762666666667,-2.3316038999999997
887,1778413198820,-1.74963254,-0.32913504,0.740067592,0.27963058999999996,1.5782155,-2.31010208
888,1778413198830,-1.9475560111111112,-0.0858213988888889,0.8508457344444444,0.3936147,2.2920516,-2.7959242
889,1778413198840,-2.10332395,-0.128650799,0.90244594,0.6883484999999999,2.2688394,-3.0839387
890,1778413198850,-2.1141782,-0.2622714,0.87681943,0.9830823,2.2456272,-3.3719532
891,1778413198860,-2.9941617999999997,-0.9548728,0.15851194999999998,1.5757399444444444,1.8136903555555557,-4.514373333333333
892,1778413198870,-4.16277332,-1.6966294599999998,-0.5421596799999999,1.81872135,0.9814788249999999,-5.03162505
893,1778413198880,-5.459667922222222,-1.9417325888888888,-0.6263136377777777,1.1290748,-1.1318237,-3.640726
894,1778413198890,-5.342244490000001,-1.8906438,-0.080291272,0.8212078,-1.004462,-2.891789
895,1778413198900,-5.2416472,-1.8637062000000002,0.14982581,0.5133408,-0.8771003,-2.142852
896,1778413198910,-4.212309960000001,-1.6342904400000002,0.553986567,0.36490489,0.586955482,-0.425722325
897,1778413198920,-3.2583338444444445,-1.4218342555555554,0.5286284111111111,0.50153106,1.7453432666666666,0.52703393
898,1778413198930,-2.1792768,-1.3173871444444445,-0.009299319999999993,0.6623875333333333,2.780449422222222,0.8835651244444445
899,1778413198940,-1.78072279,-1.29331935,-0.490238992,0.8862019400000001,2.7063587599999996,0.8486653900000001
900,1778413198950,-1.7051605,-1.2884898,-0.644062,1.0142355,2.506459,0.78684765
901,1778413198960,-1.31278392,-1.22926684,-0.6726033069999999,1.9345379699999998,-0.247370256,0.47940821
902,1778413198970,-1.1722431777777778,-1.3224857,-0.5364270011111111,2.3795045333333333,-1.3582443666666668,0.35864370333333334
903,1778413198980,-1.11642178,-1.62045727,-0.20313381800000002,3.07243946,-1.7916607800000002,0.493702051
904,1778413198990,-1.1637060666666668,-1.8704444333333337,-0.21723828,3.399263077777778,-1.4185824777777778,0.9595137555555557
905,1778413199000,-1.16977861,-1.9505253500000002,-0.308536282,3.5157313,-1.1397647,1.2657518
906,1778413199010,-0.8624080666666667,-2.0336349,-0.8676928666666667,3.449759766666667,-0.6824436666666667,2.615368066666667
907,1778413199020,-0.6328079244444444,-2.028888711111111,-1.0402300222222223,3.3888787333333337,-0.4955243833333333,3.4196758
908,1778413199030,0.34091926499999997,-1.81111185,-1.2967677,3.2409724000000004,-0.85388811,3.95062408
909,1778413199040,1.4144829977777778,-1.5716839111111112,-1.3689993444444444,2.9426208333333337,-1.6517225333333334,4.396555966666667
910,1778413199050,1.6093317800000002,-1.49923996,-1.306369,2.9003027,-1.7010722100000002,4.38426437
911,1778413199060,1.7333700666666667,-1.3454985777777777,-0.9431274833333334,2.455377011111111,-1.2872502666666668,4.184320511111111
912,1778413199070,1.58165324,-1.3246382799999998,-0.774679312,2.32236495,-1.06401953,4.21072265
913,1778413199080,1.3649476111111112,-1.437214588888889,-0.5193900644444445,2.082811,-0.73395842,4.544449033333334
914,1778413199090,1.3268762333333333,-1.5984977666666669,-0.40442402,2.033739666666667,-0.59183462,4.9720421
915,1778413199100,1.3298032,-1.6630849,-0.37807086,2.06819144,-0.567889412,5.203364840000001
916,1778413199110,1.5702880444444445,-1.7697746222222221,-0.6937294900000001,2.050843211111111,-0.5572878311111111,5.893411777777778
917,1778413199120,1.7282227200000002,-1.7748779200000002,-0.8364329380000001,1.9562841,-0.60808316,6.0871996
918,1778413199130,2.0958539333333333,-1.6248712333333333,-0.8579260533333334,1.6446299111111111,-0.6656114044444444,6.337837133333333
919,1778413199140,2.1855116000000003,-1.56024954,-0.769410744,1.05980476,-0.482615154,6.53714992
920,1778413199150,2.167352,-1.5544809,-0.7294938,0.8389224,-0.36582115,6.586995
921,1778413199160,2.00917214,-1.5941662399999998,-0.495931376,0.5600706006,-0.2242267526,6.789307549999999
922,1778413199170,2.040051333333333,-1.5836730444444445,-0.3603292966666667,0.1944106248888889,-0.07288595111111111,7.158883666666666
923,1778413199180,2.2935552555555554,-1.5108977333333333,-0.2887058866666667,-0.16169636133333334,-0.16301986333333332,7.754527833333333
924,1778413199190,2.55768886,-1.44928879,-0.320524818,-0.19592926000000002,-0.393614715,7.8807697
925,1778413199200,2.8563962666666667,-1.3558413,-0.48063780666666667,-0.19837265,-0.53197163,7.897873399999999
926,1778413199210,2.9490926600000003,-1.12310822,-0.36630184,-0.44796484599999997,-0.8964030839999999,7.796106140000001
927,1778413199220,3.0223410333333334,-0.8866066133333335,-0.15167551066666665,-0.46517715666666665,-1.0594042777777777,7.768984544444446
928,1778413199230,3.15058635,-0.654974198,-0.05722284800000001,-0.2988951844,-1.2819698599999998,7.69073498
929,1778413199240,3.571858055555556,-0.043901616222222224,-0.19346996133333336,-0.03411412177777778,-1.2769338111111113,7.3086093666666665
930,1778413199250,3.56114071,0.0967678424,-0.264055044,-0.10191986,-1.1736056000000001,7.12735064
931,1778413199260,3.0851461777777778,0.49892138222222226,0.01635257999999999,-0.7148779222222222,-0.7883238444444445,6.417994055555556
932,1778413199270,2.9607622333333334,0.6258292,0.12264942999999999,-0.9065482,-0.7468541055555555,6.279331555555555
933,1778413199280,3.03043307,0.79392745,0.16294852399999998,-1.0417083599999999,-0.9201650599999999,6.13179147
934,1778413199290,3.5381199555555556,0.9772284777777779,0.12530880277777778,-1.1696198,-0.8433679722222222,5.929927022222222
935,1778413199300,3.6982190700000004,1.05932711,0.1097503055,-1.33296036,-0.6971447040000001,5.698823259999999
936,1778413199310,3.5482186000000002,1.773003288888889,0.5207756622222223,-1.7452414666666667,-0.270936217,5.205232966666667
937,1778413199320,3.4417862,1.9991868,0.6268049,-2.0657327000000003,0.09170344450000001,4.784003
938,1778413199330,3.3788861333333333,2.4059838,0.5740375666666666,-2.3802511777777777,0.05769961288888889,4.239568411111112
939,1778413199340,3.3141669444444446,2.501981977777778,0.47121313333333337,-2.5224428333333333,-0.3444414826666667,3.8049166666666667
940,1778413199350,3.05868458,2.2911031900000003,0.441714799,-2.74075715,-0.9858310750000001,3.42364625
941,1778413199360,2.342972111111111,1.7899689333333333,0.9521083644444445,-3.002645155555556,-1.7367659555555557,3.502072222222222
942,1778413199370,2.38285862,1.80147704,1.6032032,-3.04243158,-2.0257374599999998,4.12508214
943,1778413199380,3.476778111111111,2.2040920666666666,2.1417136666666665,-2.8027876888888894,-1.9610148333333335,4.750440422222223
944,1778413199390,5.481423250000001,3.0547300099999997,2.64406899,-2.1368353000000004,-1.3248513,4.4975159
945,1778413199400,6.173777855555556,3.4254267888888887,2.750597544444444,-1.743544711111111,-1.0542459577777779,3.9355025333333336
946,1778413199410,6.824391799999999,4.0256315,2.86312435,-0.51994552,-1.1993222300000002,1.8271587500000002
947,1778413199420,6.659762022222222,4.155110244444445,2.9536445555555555,0.9344180866666666,-1.7282141666666666,-0.33716223333333334
948,1778413199430,5.690328911111111,3.709040933333333,2.1222579444444443,1.8577476333333331,-1.693260122222222,-1.7443762333333332
949,1778413199440,4.9995359,3.29173484,1.36663458,2.11131716,-1.013930104,-2.67470172
950,1778413199450,4.5714728777777776,3.001669111111111,0.8851024222222221,1.8387435777777779,-0.41908366222222226,-2.8961032444444443
951,1778413199460,3.71291796,2.35333846,0.25022191,0.48963990499999993,1.115132188,-2.95682133
952,1778413199470,3.4895226666666668,2.1407041666666666,0.23782892,0.04427793888888889,1.548922011111111,-2.9309894444444446
953,1778413199480,3.1303229,1.6974344199999998,0.708132746,-0.8463976070000001,2.47738266,-2.85590944
954,1778413199490,2.958922511111111,1.4234808,1.0752355,-1.0953001,2.9406187666666668,-2.9058767333333333
955,1778413199500,2.8648249333333333,1.3018341333333334,1.1644006111111112,-0.9499863333333334,3.0013217444444447,-2.9874587777777775
956,1778413199510,2.73627864,1.19786567,1.1359169,-0.443299505,2.99429691,-3.19792271
957,1778413199520,2.569353911111111,1.1228670666666667,0.9465491111111111,0.06816885222222223,2.9060295555555555,-3.4454585
958,1778413199530,2.4062837,1.00934245,0.7582302000000001,0.48230973199999994,2.78723506,-3.75764224
959,1778413199540,2.2859667666666663,0.8984975666666668,0.5884591333333333,0.7996245,2.4840612333333336,-4.088477133333333
960,1778413199550,2.22754466,0.84036003,0.495754534,0.9676889599999999,2.22656868,-4.3280512799999995
961,1778413199560,1.9913899222222224,0.6606686222222222,0.22155764444444442,1.1189619333333334,1.8077854444444443,-4.738825811111111
962,1778413199570,1.91566662,0.55240416,0.09710322839999999,1.06304228,1.60503172,-4.94451821
963,1778413199580,1.8913602999999999,0.4984132,0.041465834,1.0350044,1.5443746,-5.007191
964,1778413199590,2.0753074333333337,0.34744233999999996,-0.08983586866666667,0.8164567777777778,1.6521552222222222,-5.265817377777777
965,1778413199600,2.17864548,0.2011336752,-0.210146412,0.6471163,1.7703881,-5.471512
966,1778413199610,2.0617563999999997,-0.06734810511111111,-0.39987767444444444,0.26968057222222225,2.193773022222222,-5.8346941999999995
967,1778413199620,1.9944395,-0.187834132,-0.5056392759999999,0.1396244084,2.2964496599999995,-5.91181014
968,1778413199630,1.8610842666666667,-0.38950441999999996,-0.7027950833333334,-0.06270516733333333,2.328023722222222,-5.948651211111111
969,1778413199640,1.6611640099999998,-0.652269768,-0.85438217,-0.543379177,2.0605405699999997,-5.8274522
970,1778413199650,1.5920983222222223,-0.7464697088888889,-0.8603482722222222,-0.6697431111111112,1.9623298777777778,-5.765193311111111
971,1778413199660,1.53903488,-0.872776494,-0.8652212199999999,-1.0708458,1.7491916499999998,-5.42405624
972,1778413199670,1.5162740777777777,-0.8964107222222223,-0.8893710111111113,-1.3174448666666667,1.7563386,-5.225671
973,1778413199680,1.483653622222222,-0.8800242777777778,-0.8247974888888889,-1.6234793222222224,1.7671302333333334,-4.982553888888889
974,1778413199690,1.48752887,-0.815855529,-0.69191234,-1.92609308,1.7607367,-4.67733384
975,1778413199700,1.548118788888889,-0.7858825611111111,-0.6349015555555556,-2.019104788888889,1.7579675222222222,-4.547562688888889
976,1778413199710,1.6258266,-0.7775758500000001,-0.5535384,-2.07978225,1.68792365,-4.342284
977,1778413199720,1.6414373,-0.7803809,-0.5025293,-2.0590134,1.614622,-4.324875
978,1778413199730,1.58940984,-0.781161464,-0.36780194,-1.8841889200000002,1.4429739,-4.266478
979,1778413199740,1.5752782444444444,-0.7555963011111112,-0.3159533944444444,-1.4950656,1.2054900999999998,-4.121734555555556
980,1778413199750,1.5351810399999999,-0.7033032379999999,-0.346087292,-1.11152819,1.074938435,-4.0804749000000005
981,1778413199760,1.4121217222222222,-0.7293718,-0.3894739522222222,-0.5585689333333332,0.6116108166666666,-3.9813750666666667
982,1778413199770,1.3908129,-0.7352258,-0.39685243,-0.3326826888888889,0.4119231611111111,-3.910041744444444
983,1778413199780,1.218501,-0.714127025,-0.6834850250000001,0.3288649,-0.090939885,-3.5552073999999996
984,1778413199790,1.1386166555555557,-0.6884615666666667,-0.7666064233333334,0.38329817777777775,-0.058361365271111104,-3.359193277777778
985,1778413199800,1.02593183,-0.620341059,-0.871938078,0.351954922,0.071079715198,-3.15265901
986,1778413199810,0.7418929000000001,-0.5228252233333334,-0.9262634000000001,0.095114009,0.37833502888888887,-3.051461977777778
987,1778413199820,0.604763962,-0.508331493,-0.9108580639999999,0.033764582700000004,0.429700498,-3.05046427
988,1778413199830,-0.0035063066666666622,-0.38006280666666664,-0.72436136,-0.3526879266666667,0.6191445999999999,-2.8745199666666665
989,1778413199840,-0.8402963444444445,-0.3059832888888889,-0.46456978777777774,-0.7579087577777778,0.8319230444444445,-2.5391053
990,1778413199850,-1.037310524,-0.403517408,-0.40295644199999997,-0.9995599399999999,0.9825173000000001,-2.29996198
991,1778413199860,-1.5601620666666665,-0.8650843355555555,-0.19423557777777778,-1.519431688888889,1.2526610666666667,-1.4777073888888888
992,1778413199870,-1.6788173499999999,-0.9756057199999999,-0.09459392850000001,-1.6799827,1.314696,-1.0008732249999999
993,1778413199880,-1.7103132222222224,-0.8278769,0.34129024366666666,-2.0087203333333337,1.5928351,0.006362996666666658
994,1778413199890,-1.47528124,-0.382821118,0.626835356,-2.33022958,2.1915061600000003,0.461266048
995,1778413199900,-1.299682888888889,0.0773385188888889,0.8406621888888889,-2.6867268555555555,2.9387013333333334,0.4020817377777777
996,1778413199910,-1.51169188,0.28230916,1.27511704,-3.1184211100000003,3.89150941,-0.37694620700000003
997,1778413199920,-1.8080730333333332,0.11624662333333334,1.7271638,-2.513840088888889,3.6281187555555556,-0.8819277155555556
998,1778413199930,-2.0590293555555554,-0.03617081111111111,1.9529595222222222,-1.6257869333333332,2.957374488888889,-1.2476215999999998
999,1778413199940,-2.3788826999999997,-0.197499338,1.8146912200000003,0.19408148000000006,1.307976644,-1.82142444
1000,1778413199950,-2.4814863,-0.24495333,1.6843665,0.8157102,0.69346434,-2.00419
