id,timestamp,acc_x,acc_y,acc_z,gyro_x,gyro_y,gyro_z
0,1778413373660,0.2127868,1.5702746,-0.18842563,0.0381016,-0.79341424,0.89985436
1,1778413373670,0.11810647999999999,1.5774294666666666,-0.21852901666666666,-0.13894229333333336,-0.7087100888888889,0.8300820400000001
2,1778413373680,-0.175897454,1.58893725,-0.0124092614,-0.44411649400000003,-0.560009506,0.70994197
3,1778413373690,-0.24844945333333332,1.5927453666666667,0.104985796,-1.3259967222222224,-0.09317965888888888,0.3270153755555556
4,1778413373700,-0.33873928,1.5985993,0.2906267,-1.484817,0.0086282175,0.21875967
5,1778413373710,-0.4428815266666667,1.6384390333333334,0.8298044666666667,-1.3040741,0.13989250777777779,-0.170019158
6,1778413373720,-0.48469291999999997,1.65922785,0.96798325,-1.0205731,0.19497481,-0.36437039
7,1778413373730,-0.4034754355555556,1.7318320333333335,1.0301448666666666,-0.5187959666666667,0.3811856677777778,-0.6051459811111111
8,1778413373740,-0.1994120422222222,1.7843893,1.1800451111111112,-0.24235364999999998,0.7514948,-0.93765056
9,1778413373750,-0.1339559881,1.80834632,1.23660259,-0.20214462900000002,0.83347052,-0.992382468
10,1778413373760,0.151543391,1.9229272666666668,1.3567051666666667,0.05846318,1.415893011111111,-1.3691122666666666
11,1778413373770,0.35639883400000005,1.9870610800000001,1.37765968,0.204252045,1.82841859,-1.6652307100000001
12,1778413373780,0.7375735111111111,2.040102,1.391839388888889,0.32594638777777774,2.2958525222222224,-2.156155066666667
13,1778413373790,0.990298311111111,2.0009534222222225,1.4039945444444444,0.5637695955555555,3.032797333333333,-3.045064988888889
14,1778413373800,1.1012777,1.9289357800000002,1.41920474,0.6055787,3.1418166,-3.1911423
15,1778413373810,1.284719211111111,1.7968629444444444,1.4320618777777778,1.3045915844444445,3.7214428,-4.268812555555556
16,1778413373820,1.4258026799999999,1.7365282199999998,1.4118872800000002,1.50413506,3.9408047799999997,-4.5491779
17,1778413373830,1.688160877777778,1.6683698444444444,1.3720346666666667,1.7005564,4.425477866666666,-4.963481777777777
18,1778413373840,2.0067229,1.6516681333333334,1.3797790444444447,1.8201466222222225,4.724861144444444,-5.258317355555556
19,1778413373850,2.13021284,1.6629750300000001,1.42410448,1.8966653999999998,4.826411159999999,-5.39167376
20,1778413373860,2.6492366444444446,1.7192296666666667,1.676083588888889,2.3384845999999997,4.9404900666666665,-5.810531911111111
21,1778413373870,2.921569577777778,1.7210522555555554,1.8269765666666666,2.586412166666667,4.969810977777778,-5.989646022222222
22,1778413373880,3.3432898100000004,1.5343029099999999,1.94309202,3.09009286,5.17557168,-6.3704346
23,1778413373890,3.2800965444444445,1.4361237666666666,1.8415268,3.4249186666666667,5.423942,-6.591194533333333
24,1778413373900,3.17043494,1.3909897,1.73651592,3.62824948,5.6408232,-6.653012179999999
25,1778413373910,2.7054322555555554,1.1989757444444444,1.2974876444444443,3.838598211111111,5.686614544444445,-6.542869888888889
26,1778413373920,2.4770822555555556,0.9342211444444444,1.0662106511111111,3.876267155555556,5.407058688888889,-6.3346388
27,1778413373930,2.3147143999999997,0.543970768,0.9599401759999999,3.9005653000000002,5.1670807000000005,-5.9818745
28,1778413373940,2.1740055999999996,0.2669159755555556,0.8562558777777778,3.9450892444444445,4.917888866666667,-5.477586111111112
29,1778413373950,1.973668711111111,0.0481972511111111,0.7454025222222223,4.027417866666667,4.711286466666667,-5.01839
30,1778413373960,1.55624022,-0.36317668799999997,0.51322201,4.2498477999999995,4.2706620399999995,-4.257437319999999
31,1778413373970,1.3475278333333334,-0.5556929933333333,0.3255373,4.403292444444444,3.959740955555555,-3.7891619777777774
32,1778413373980,1.00170478,-0.851391128,-0.057369196,4.532792,3.2908632999999994,-2.9950604
33,1778413373990,0.6361889333333334,-1.0636832444444444,-0.37656330777777774,4.431595333333334,2.744910122222222,-2.534150688888889
34,1778413374000,0.5275579222222222,-1.104983088888889,-0.4715790111111111,4.370646444444445,2.511006533333333,-2.3403594
35,1778413374010,0.17186977900000003,-1.20227745,-0.82145949,3.8495595000000002,1.5199407,-1.5362808
36,1778413374020,0.1437278988888889,-1.197502111111111,-0.8989006711111112,3.058749777777778,0.7161335444444445,-0.8109336388888889
37,1778413374030,0.22181511555555555,-1.189778111111111,-0.9021528933333334,2.259176222222222,0.19653161666666666,-0.2575739311111111
38,1778413374040,0.38914467199999997,-1.25371948,-0.7400187600000001,1.21679248,-0.10865445,0.27335414
39,1778413374050,0.4358282888888889,-1.293730611111111,-0.6469923333333334,0.6750116813333333,-0.12087139666666667,0.50972658
40,1778413374060,0.44219652,-1.49343474,-0.32031746,-0.5785410368,0.158827918,1.03845558
41,1778413374070,0.38091313666666665,-1.5867592999999998,-0.2504143311111111,-1.0362514555555555,0.37141210555555554,1.2747109777777776
42,1778413374080,0.17048758666666666,-1.8123618,-0.07925258933333333,-1.6582976222222223,0.6843016555555556,1.8292245333333337
43,1778413374090,0.012281202300000002,-1.9601448300000002,0.0758702838,-2.10006236,0.865112412,2.70277008
44,1778413374100,0.028456946,-2.000523266666667,0.13915446333333334,-2.1426995,0.87732935,2.8442576
45,1778413374110,0.2404510311111111,-1.977198788888889,0.23360441888888892,-1.9693545666666665,0.5214090333333333,4.089843022222222
46,1778413374120,0.378345252,-1.92265494,0.27623563,-1.6244567,0.286517908,4.6372164
47,1778413374130,0.61856251,-1.7882954333333332,0.18088452666666666,-1.3117436222222223,0.14929277,5.0165661111111115
48,1778413374140,0.91198917,-1.59542233,-0.042593954,-0.9734767599999999,-0.006154284999999999,5.4771237500000005
49,1778413374150,1.1368311888888887,-1.4305170111111112,-0.23567432444444444,-0.9242628222222221,-0.06562365777777777,5.605159855555556
50,1778413374160,1.4481129666666666,-1.1350797333333333,-0.5916741088888888,-1.1425389,-0.19125457777777777,5.519301622222222
51,1778413374170,1.49156266,-1.0054549700000002,-0.870764187,-1.36655694,-0.30180435,5.3899326
52,1778413374180,1.4955141,-0.9115165666666667,-1.1913093566666666,-1.9209619555555557,-0.8611504155555555,5.225951055555556
53,1778413374190,1.5349438888888889,-0.8103961555555554,-1.4790971888888889,-2.377061266666667,-1.7654759333333332,5.2072185
54,1778413374200,1.56687192,-0.7786673399999999,-1.56017642,-2.78863235,-2.4692966499999995,5.30471225
55,1778413374210,1.8700516444444446,-0.5669097866666666,-1.5493891555555555,-3.645663733333333,-3.5410814666666663,5.745247666666667
56,1778413374220,2.3198976399999998,-0.27616856199999995,-1.28386146,-4.554095299999999,-4.422534000000001,6.509112
57,1778413374230,3.9384918444444446,0.7297918977777778,-0.2997464777777778,-5.664912666666667,-4.5098174,6.97040331111111
58,1778413374240,5.173862244444445,1.5282056777777777,0.4681777355555556,-6.1851,-3.975393966666667,6.496250177777778
59,1778413374250,5.2753506,1.6917754999999999,0.6222314320000001,-6.53539378,-3.2661391899999996,5.6661198
60,1778413374260,4.835444844444444,2.2984064777777777,1.2052295,-6.745857933333333,-2.467033888888889,4.233799222222221
61,1778413374270,4.599746733333333,2.4168822444444444,1.4422894333333334,-6.620973444444444,-2.5148157555555555,3.733719088888889
62,1778413374280,4.3818621900000005,2.5651069,2.19241743,-5.6642186,-2.93915264,3.09714836
63,1778413374290,4.118722377777778,2.602103111111111,2.5175758333333333,-4.056763866666667,-3.055458,2.1612793999999997
64,1778413374300,4.058956,2.599664,2.5353615,-3.5342858,-3.0108662,1.8503326999999998
65,1778413374310,2.4676236555555553,1.9592810333333333,1.6405293777777779,-2.4425661111111108,-2.8618194,1.1409354111111112
66,1778413374320,1.9192244555555555,1.7464772555555557,1.3694227555555556,-1.8379546222222223,-2.8937870555555554,0.8467785444444444
67,1778413374330,1.132755096,1.38383074,1.0744102,-1.3859819000000002,-3.4097493400000003,1.4047807200000002
68,1778413374340,1.0627179022222224,1.2806201444444445,1.0919607,-1.2300936666666666,-3.4433460333333334,1.6847931333333335
69,1778413374350,1.0477441333333333,1.2734381666666668,1.0952468333333334,-1.1889632888888888,-3.360949577777778,1.7638639333333332
70,1778413374360,0.7546415900000001,1.22148888,0.9706237400000001,-1.29123946,-2.4869501699999996,1.7417851599999998
71,1778413374370,0.6221433433333333,1.1820235444444445,0.8989481566666667,-1.4051353,-2.1166452444444444,1.7222583666666667
72,1778413374380,0.518572947,1.1324472399999999,0.816251873,-1.7071654000000003,-1.5636926,1.7391584999999998
73,1778413374390,0.5247325111111112,1.1361977444444444,0.8296994999999999,-1.7562367666666667,-1.4924271,1.7216475333333332
74,1778413374400,0.54250115,1.1463778,0.85559875,-1.8543794999999998,-1.3498961,1.6866256
75,1778413374410,0.5610235729999999,1.17002248,0.8983512250000001,-1.8162626899999998,-1.15399738,1.47753263
76,1778413374420,0.6003365022222221,1.2204472,1.0060546222222222,-1.7056043333333333,-0.9278685066666666,1.1718850777777776
77,1778413374430,0.46583,1.1372581333333334,1.1762542666666667,-1.414298111111111,-0.7511300266666666,0.8471857
78,1778413374440,0.21065253,1.04129252,1.34721272,-0.7322532,-0.467954828,0.48912066000000004
79,1778413374450,0.1747053111111111,1.0283392,1.3509934333333333,-0.5692163522222222,-0.4075623911111111,0.4426012477777778
80,1778413374460,0.13912057333333333,0.9602051111111111,1.1305740555555555,0.3615112733333333,0.06170405777777778,0.1548243288888889
81,1778413374470,0.120290553,0.934804554,1.04119802,0.63013474,0.255158536,0.023540527900000004
82,1778413374480,-0.03505624777777778,0.8757556711111111,0.7547019111111112,0.9508431555555555,0.5090563555555555,-0.19872897355555555
83,1778413374490,-0.25012433,0.83125582,0.48490024,1.28276393,0.81184655,-0.49521387400000005
84,1778413374500,-0.3804896666666667,0.8251192866666667,0.34197117333333327,1.3313330555555554,0.9324413666666665,-0.59082505
85,1778413374510,-0.5547275,0.82788366,0.15421632,1.2082813000000001,1.1982956666666666,-0.6999631000000001
86,1778413374520,-0.7862867029999999,0.910132359,-0.17820246499999998,1.01680104,1.27431902,-0.68213314
87,1778413374530,-0.6684773166666668,1.1253807622222223,-0.37206776444444445,0.64121146,1.3594914999999999,-0.6725428333333334
88,1778413374540,-0.5039453744444445,1.249551322222222,-0.34391573444444445,-0.13745760333333334,1.5621569777777777,-0.8120195888888888
89,1778413374550,-0.37810132799999996,1.3230224,-0.2597407812,-0.455172836,1.67631752,-0.96880372
90,1778413374560,-0.20704122333333333,1.387435311111111,0.08605853955555556,-0.9712980866666668,2.0318307333333334,-1.5283398666666668
91,1778413374570,-0.128986185,1.4271411999999999,0.36543294,-1.0486720999999999,2.17263105,-1.77328965
92,1778413374580,0.09495811111111112,1.5441958,0.7341620666666667,-0.7632706222222222,2.464581944444445,-2.3326220555555555
93,1778413374590,0.28135110111111117,1.5721717555555554,0.6919780355555556,-0.4440011155555556,2.6071129444444443,-2.8857103444444445
94,1778413374600,0.330254023,1.62381737,0.713663576,-0.39824187,2.62838402,-3.0537018
95,1778413374610,0.4078727133333333,1.821837266666667,1.0084870466666667,-0.3140264033333333,2.7783539666666663,-3.727262644444444
96,1778413374620,0.48304648,1.9815078666666668,1.3467859,-0.24092834000000002,2.8880858333333332,-3.8099306333333334
97,1778413374630,1.038658135,2.32377885,1.83641815,0.124704478,3.4296478,-3.92550288
98,1778413374640,1.8392028,2.7142843333333335,2.267236,0.2569885377777778,3.717574022222222,-4.027867311111112
99,1778413374650,2.4636223999999998,2.96546568,2.44503902,0.49409906000000003,4.51048081,-4.5029369
100,1778413374660,3.0437242666666666,3.0395372,2.6805831333333336,0.7611411466666667,5.182657333333333,-5.174589
101,1778413374670,2.933345177777778,2.6413533777777776,2.8041202,1.2092316,5.6764,-5.757523766666667
102,1778413374680,2.4506153999999998,1.87553317,2.86828616,2.17868606,5.8798323,-5.63112586
103,1778413374690,2.3252306888888885,1.2890690555555555,2.815506288888889,3.304989111111111,5.723944444444445,-4.972390177777778
104,1778413374700,2.4700629333333333,1.1704645999999999,2.7498046666666665,3.8742988,5.582406,-4.5659562
105,1778413374710,3.0658403400000003,0.967190588,2.32380021,5.23373172,5.3264507,-3.7611850799999997
106,1778413374720,3.3233747777777776,0.891888051111111,1.9381245777777778,5.814900988888889,5.181367666666667,-3.5545286666666667
107,1778413374730,3.38792942,0.63811648,1.30171616,6.318374799999999,4.93013306,-3.4894803600000004
108,1778413374740,2.9823489444444444,0.1587423288888889,0.45525011777777774,6.4857473,4.620678,-3.497177
109,1778413374750,2.6405809444444444,-0.06962465777777777,0.10046655777777776,6.378781077777777,4.467015777777778,-3.4534674
110,1778413374760,1.94231446,-0.422933236,-0.365454268,5.902510099999999,3.71931144,-3.1466728
111,1778413374770,1.357450488888889,-0.6511118555555555,-0.5812805644444444,5.4918985777777785,3.0910483333333336,-2.8075983555555557
112,1778413374780,0.9929508866666666,-0.7850085277777779,-0.6924625088888888,5.017007066666667,2.512652488888889,-2.432682222222222
113,1778413374790,0.77614894,-0.8995158699999999,-0.744555604,4.51318388,2.02217934,-2.0487816299999997
114,1778413374800,0.563999708888889,-1.0223292611111112,-0.7662709711111111,4.102144844444444,1.6197123777777778,-1.7027706333333332
115,1778413374810,0.30307865700000003,-1.12804451,-0.7816949689999999,3.37267108,0.8963878,-1.03037718
116,1778413374820,0.22453546666666668,-1.1252180555555558,-0.8073065488888889,2.796967877777778,0.38763349444444445,-0.5535633666666667
117,1778413374830,0.18206686000000002,-1.1035230111111112,-0.7897310266666666,2.6629887,0.27197975,-0.44591850000000005
118,1778413374840,0.155191978,-1.07016,-0.73723816,1.8603811799999999,-0.11867235200000001,0.078509146
119,1778413374850,0.1872399177777778,-1.0549125444444445,-0.6550958244444445,0.9372687977777778,-0.1989241111111111,0.5988424277777777
120,1778413374860,0.2899458,-1.0862151444444443,-0.36412355,-0.34448391666666667,-0.13532811777777776,1.2483087222222222
121,1778413374870,0.27890348,-1.11976962,-0.23867550799999998,-0.73200883,-0.07053758800000001,1.4461961
122,1778413374880,0.2162626122222222,-1.155758511111111,-0.049321982566666665,-1.169687708888889,0.0077458805555555565,1.7739767666666666
123,1778413374890,0.15675914600000002,-1.1748124800000002,0.05980226334000001,-1.49306347,0.041552883900000004,2.17310445
124,1778413374900,0.13886989133333336,-1.1775822777777778,0.09283738777777778,-1.5392503,0.031772541111111115,2.2961155555555552
125,1778413374910,0.13659333577777777,-1.1475838555555555,0.22343104444444442,-1.4996130555555556,-0.0839490791111111,2.8078613333333333
126,1778413374920,0.165113296,-1.12404726,0.257588192,-1.4093163,-0.1209935784,3.00014582
127,1778413374930,0.2524232866666667,-1.0679383,0.24987229999999996,-1.2121076222222222,-0.1695355722222222,3.2829137555555556
128,1778413374940,0.3355887111111111,-0.9921446466666668,0.19923927,-1.0090348222222223,-0.21921780777777777,3.519651
129,1778413374950,0.36003322,-0.961547002,0.150539274,-0.861264109,-0.27217826700000003,3.66053276
130,1778413374960,0.4212915111111111,-0.9018988444444445,0.00016261222222221773,-0.7155566433333334,-0.42853480666666666,3.8613182333333333
131,1778413374970,0.4998005,-0.8451712849999999,-0.13009905500000002,-0.70012256,-0.56202528,3.96003118
132,1778413374980,0.5939405,-0.7669688877777777,-0.23848275555555556,-0.7767092444444444,-0.7362660555555556,4.035613344444445
133,1778413374990,0.7860452222222223,-0.6234578244444444,-0.481430511111111,-1.0756850166666667,-1.048273238888889,4.130905488888889
134,1778413375000,0.83304864,-0.5892905159999999,-0.52381104,-1.21158495,-1.12919691,4.157640349999999
135,1778413375010,1.0937359777777778,-0.42174548888888885,-0.6535374611111111,-1.6713289777777778,-1.3740584444444446,4.2477131111111115
136,1778413375020,1.2084920222222222,-0.3560167266666666,-0.7023682044444445,-1.8342216000000002,-1.4574052,4.2797484
137,1778413375030,1.34781028,-0.170644100496,-0.94824432,-2.35637384,-1.84248336,4.45933768
138,1778413375040,1.4522628444444445,0.018151466675555557,-1.1655354222222223,-2.8506715,-2.2246294,4.6572523
139,1778413375050,1.5533528,0.16848545,-1.2158636,-3.5019110000000007,-2.682841,4.9919963
140,1778413375060,2.2282736888888888,0.6079047,-0.7758785888888888,-4.1206483333333335,-2.616648944444444,5.013656000000001
141,1778413375070,3.9774071333333336,1.7500952555555556,0.4998767,-5.646061133333333,-1.9999732444444445,4.650329311111111
142,1778413375080,3.8951664,2.18400544,1.1402067599999999,-5.74856134,-0.79121522,3.2127206200000002
143,1778413375090,3.4971756666666667,2.328448933333333,1.5695935333333333,-5.190521700000001,-0.75594894,2.4862501666666668
144,1778413375100,3.408800011111111,2.380653911111111,1.8149669333333334,-4.6541723444444445,-0.9989982799999999,2.2340805222222224
145,1778413375110,3.23548768,2.43271813,2.0728558,-2.13476605,-1.9159072300000002,1.26813426
146,1778413375120,2.8392205666666666,2.3283777666666667,1.6860028666666667,-1.1081278055555555,-2.1974806222222223,0.8538372344444445
147,1778413375130,2.60266103,2.26245833,1.4324433239999999,-0.6694427652,-2.3349636400000002,0.699129964
148,1778413375140,1.8287144999999998,2.077661866666667,0.7168101266666667,0.19488572933333334,-2.6879315333333333,0.4789806
149,1778413375150,1.6641350444444445,1.9989308888888888,0.46961748633333333,0.20791713444444446,-2.7143337777777776,0.5747478722222223
150,1778413375160,1.3102411200000001,1.74989166,-0.1413161743,-0.441298981,-2.23844215,0.6400610369999999
151,1778413375170,1.1233277,1.6110392,-0.22894628000000003,-1.102562291111111,-1.7962218555555556,0.5592051777777778
152,1778413375180,0.9259178866666667,1.4418423111111112,-0.18100311555555554,-1.7906478666666668,-1.402632622222222,0.4710395911111111
153,1778413375190,0.7620231470000001,1.2783794099999999,-0.0790107108,-2.2939452499999997,-1.1163692299999999,0.41594117300000005
154,1778413375200,0.6367851333333333,1.1488068,0.04218742066666667,-2.7081743666666664,-0.8543632311111111,0.36258027444444446
155,1778413375210,0.41680616444444446,0.9066857,0.3370657266666666,-3.0906750888888888,-0.5407949533333334,0.27807973
156,1778413375220,0.320033918,0.7987966280000001,0.47310687399999996,-3.10931936,-0.33350733899999996,0.164027754
157,1778413375230,0.2450143,0.72546917,0.5340250666666666,-3.0329838000000002,-0.26666027999999997,0.10982524333333335
158,1778413375240,0.08247433000000001,0.582259565,0.5859335999999999,-2.73953545,-0.237848645,0.042835664
159,1778413375250,0.008781,0.5189327,0.5996082,-2.5507455,-0.24487339000000002,0.015347538
160,1778413375260,-0.10069693333333334,0.44179069000000004,0.6015527233333333,-2.1236953222222223,-0.2998496466666667,0.009917784388888889
161,1778413375270,-0.1601008,0.39642558,0.5793326,-1.8647640000000003,-0.3084015,0.016569233
162,1778413375280,-0.17355009666666665,0.3883424511111111,0.57258085,-1.8040865111111113,-0.3064332155555556,0.02763235488888889
163,1778413375290,-0.31287056444444444,0.3183925588888889,0.5184313444444445,-1.1484437333333333,-0.28417123333333333,0.16419065
164,1778413375300,-0.36241749,0.333126143,0.5296741930000001,-0.9753703199999999,-0.251409457,0.22743369700000002
165,1778413375310,-0.43094656444444446,0.45406105111111106,0.5533147866666667,-0.638046938888889,-0.004403190888888886,0.40540745333333333
166,1778413375320,-0.42914700000000006,0.5319151599999999,0.5207255,-0.5749599950000001,0.181536173,0.45760097
167,1778413375330,-0.3962053788888889,0.700562511111111,0.4837714366666666,-0.5876180955555556,0.7068351555555554,0.48814332222222223
168,1778413375340,-0.4255431433333333,0.8222024333333333,0.4799162166666667,-0.63696098,1.1906940333333333,0.46941066000000004
169,1778413375350,-0.45115743999999997,0.907083425,0.473728876,-0.6826523819999999,1.61559932,0.42156095800000004
170,1778413375360,-0.35735148222222224,1.138552211111111,0.50864076,-0.7003533722222222,2.0180526888888886,0.3653630166666667
171,1778413375370,-0.2493709266666667,1.2311253444444443,0.5788142333333333,-0.6184998222222222,2.114430811111111,0.24278632666666666
172,1778413375380,0.02653203799999999,1.46388108,0.853119918,-0.236443692,2.04722412,-0.161233132
173,1778413375390,0.24232104666666668,1.6186107333333333,1.0971269799999999,0.5191098977777777,2.117485111111111,-0.9276733511111112
174,1778413375400,0.370198434,1.65868222,1.1721781199999999,0.67191674,2.20262362,-1.1002580800000001
175,1778413375410,0.4967871200000001,1.7032904333333334,1.0293588333333332,1.1335543666666668,2.7571608333333333,-1.8121802666666664
176,1778413375420,0.48524170666666666,1.8264582666666667,0.8488503466666666,1.1490291666666668,3.0825642666666666,-2.220837
177,1778413375430,0.566807442,2.03735064,0.927051061,1.04526656,3.1559882,-2.4937227799999997
178,1778413375440,0.9320157533333333,2.2503378111111108,1.3454715333333334,0.9998466888888888,3.1312286,-2.6760879
179,1778413375450,1.0888033555555556,2.3086372666666666,1.5144617333333334,1.0429453888888889,3.1559340000000002,-2.8185935444444445
180,1778413375460,1.80681264,2.5366602800000004,2.22607488,1.54212966,3.58675772,-3.2086125799999996
181,1778413375470,2.4232104333333333,2.8145849333333337,2.6556936,2.304803,3.903135766666667,-3.5655918
182,1778413375480,3.0678922999999996,2.89154068,2.60902422,3.5627666,4.2089667,-4.454375
183,1778413375490,3.178393477777778,2.4678336888888888,2.3256708222222224,4.28112301111111,4.167157488888889,-5.119519666666666
184,1778413375500,2.907944177777778,1.9763484,2.0202905555555555,4.7763165,4.084082222222222,-5.443438333333334
185,1778413375510,2.35930526,1.29729831,1.3476792,5.574233250000001,3.66531271,-5.39307887
186,1778413375520,2.3279406444444444,1.1204482111111111,0.8914815333333332,5.829765088888888,3.176838422222222,-5.019628966666667
187,1778413375530,2.475202077777778,1.0220379555555554,0.5617841511111111,5.918270133333333,2.668562666666667,-4.760612766666666
188,1778413375540,2.47563236,0.84117102,0.254850245,5.6848044,2.2436726,-4.60073376
189,1778413375550,2.3437242,0.63095144,-0.003933163333333332,5.281538333333334,2.0963769,-4.472903733333333
190,1778413375560,1.79074777,0.10539029599999998,-0.316225773,4.32204984,2.1811217800000002,-4.1311141
191,1778413375570,1.5383654666666666,-0.09686202333333332,-0.2809378055555556,3.6444165333333336,2.2863504999999997,-3.8439345
192,1778413375580,1.2352652,-0.3011557833333333,-0.2600964766666667,3.0589533777777778,2.407026777777778,-3.5346421666666665
193,1778413375590,0.83874713,-0.531287124,-0.271482299,2.4732823,2.54219365,-3.1303631
194,1778413375600,0.6352877444444444,-0.6417651222222222,-0.2716012088888889,2.1512936333333332,2.6177011111111113,-2.8308698
195,1778413375610,0.21114036777777778,-0.8713618577777777,-0.20777973444444442,1.3683233222222222,2.7170654666666665,-1.6025917555555556
196,1778413375620,0.12474508440000001,-0.902009952,-0.193950338,1.2059194,2.6809170399999998,-1.1222486200000001
197,1778413375630,0.08748816677777776,-0.9100429044444444,-0.21543601,1.02339824,2.470622666666667,-0.4483618933333334
198,1778413375640,0.1420204825,-0.87957874,-0.179522667,0.9745304600000001,1.8750872400000003,0.137020676
199,1778413375650,0.2070208911111111,-0.8397305666666666,-0.08763722533333335,0.9968603200000001,1.7514517555555558,0.2066106
200,1778413375660,0.29788323333333333,-0.78834882,0.06856090666666666,1.4862168333333332,0.6940073111111111,0.5585264722222223
201,1778413375670,0.313926864,-0.799747876,0.0618206778,1.7040042200000003,0.35957523,0.649162638
202,1778413375680,0.28103945333333336,-0.8329009244444445,-0.1088274848888889,1.9102127,-0.04802787111111111,0.8104670844444445
203,1778413375690,0.23271005777777778,-0.8455913555555555,-0.2907622255555556,1.8883579,-0.31695338,0.9644006333333333
204,1778413375700,0.224909463,-0.8374878819999999,-0.32001562,1.78072662,-0.53288788,1.09783004
205,1778413375710,0.2689655488888889,-0.7980038655555555,-0.3322924377777778,1.4245212333333332,-1.0196313533333334,1.4233505333333332
206,1778413375720,0.34725195799999997,-0.773697592,-0.29674902400000003,1.2508776799999999,-1.1831348,1.55810338
207,1778413375730,0.46551834999999997,-0.7460530000000001,-0.24446208555555554,0.9133778333333333,-1.1968449555555556,1.704679511111111
208,1778413375740,0.5409292777777778,-0.7238430333333334,-0.2366702988888889,0.4017593466666667,-1.0577075333333332,1.8385230000000001
209,1778413375750,0.5527457,-0.7157125,-0.25065485,0.25739577,-0.9992698000000001,1.8625497
210,1778413375760,0.4862986933333333,-0.8072218866666666,-0.35260187,-0.5521210955555556,-0.7369448055555555,1.9746061555555556
211,1778413375770,0.45117807777777785,-0.84981922,-0.3873667688888889,-0.9186294333333334,-0.6880770233333333,2.0663690444444445
212,1778413375780,0.421823395,-0.9033758649999999,-0.435650435,-1.37211565,-0.80104982,2.2730390999999996
213,1778413375790,0.47626424,-0.9376902155555555,-0.44949779000000006,-1.9936527666666666,-1.1322308666666667,2.6202547999999997
214,1778413375800,0.5271344,-0.9358473000000002,-0.42953727,-2.1414778,-1.2411653,2.7129254
215,1778413375810,0.611352751,-0.93960357,-0.328415522,-2.4732899799999997,-1.44042366,2.9301426800000003
216,1778413375820,0.6310124366666666,-0.9446282666666667,-0.30346284333333334,-2.6741365666666663,-1.5492359,3.0928723666666667
217,1778413375830,0.5577120666666667,-0.8166906322222223,-0.44025942777777777,-2.9354349666666666,-2.304506155555556,4.082105333333334
218,1778413375840,0.933182454,-0.40480105899999996,-0.503770246,-3.13735726,-3.17493976,4.9978606
219,1778413375850,0.97618496,-0.36331388,-0.50765157,-3.177551,-3.3419454,5.166088
220,1778413375860,2.097723048,0.353285856,-0.2746532158,-3.54399838,-4.00935716,5.8000329
221,1778413375870,3.679987688888889,1.3549503333333335,0.0008909726666666662,-3.9731458666666666,-3.8536995999999997,5.298879277777778
222,1778413375880,3.8507396444444444,1.7680199111111112,-0.046018947777777784,-4.857652666666667,-2.866298888888889,3.694353233333333
223,1778413375890,3.28443861,1.85795609,0.116836085,-5.353503590000001,-2.44296905,3.2670248600000003
224,1778413375900,2.9456292333333334,1.9091664000000002,0.34976635333333334,-5.5967861333333335,-2.2541536666666664,3.1757439333333335
225,1778413375910,2.8942034555555556,2.1655905111111107,1.0294740288888888,-5.399015755555556,-2.2256474444444443,3.2208108888888893
226,1778413375920,2.94361682,2.21588548,1.10838784,-5.09463402,-2.2797889,3.0923837
227,1778413375930,2.619373533333333,2.244961622222222,1.2165241777777778,-4.280334,-2.4633179999999997,2.494802
228,1778413375940,2.09733892,2.1520097500000004,1.3057682,-3.29147409,-2.7791718100000002,1.9894837500000002
229,1778413375950,2.0502112,2.1413445,1.3129424,-3.0230067,-2.8783123,1.8894270000000002
230,1778413375960,1.8419605333333335,2.068345611111111,1.2648908444444444,-2.1969036833333333,-3.0421551,1.794813511111111
231,1778413375970,1.5336900999999998,1.9589404600000002,1.137395652,-0.8562551600000001,-3.22747256,1.62493004
232,1778413375980,1.2122522777777778,1.8543256000000001,0.6435301088888888,-0.30936867777777777,-2.9611159333333337,1.4674672333333332
233,1778413375990,1.0324044777777777,1.7922828444444445,0.2579859266666667,-0.2949374155555555,-2.5728208888888893,1.323443
234,1778413376000,1.017407,1.7867507,0.22181173000000004,-0.3309265,-2.500198,1.2987376
235,1778413376010,0.7179653533333333,1.5300181777777777,-0.013852434888888888,-1.4066285133333334,-1.6111351,0.9202159333333333
236,1778413376020,0.572807812,1.41686924,0.0021159767999999997,-2.06646583,-1.07177736,0.703039376
237,1778413376030,0.20375511444444447,1.1747398777777778,0.12976027966666667,-2.8740872,-0.3802099911111111,0.4526463055555555
238,1778413376040,0.003394510000000008,1.041514,0.22011445333333335,-3.1761257666666665,-0.129694745,0.3547071288888889
239,1778413376050,-0.13805683,0.9490309979999999,0.371021628,-3.3944629899999996,0.0424080709,0.26500081600000003
240,1778413376060,-0.31663433,0.8546433566666667,0.8197226533333334,-3.2500383333333334,0.05566345466666667,0.1169518
241,1778413376070,-0.36549219777777775,0.8343610044444445,1.0660243111111112,-2.9706520666666667,-0.004403190000000001,0.058717693333333335
242,1778413376080,-0.375357272,0.860001434,1.39826454,-1.9863225399999997,-0.12343695800000001,-0.0656966216
243,1778413376090,-0.35681959777777783,0.9280013055555555,1.5510186333333331,-0.8672503933333333,-0.09786282066666668,-0.21949777199999998
244,1778413376100,-0.348026394,0.94898828,1.4476576399999999,-0.186491684,0.007650862399999997,-0.34451785199999996
245,1778413376110,-0.3489465011111111,0.9738372944444446,1.0985736333333334,0.5574575222222222,0.21913296444444444,-0.5526131533333333
246,1778413376120,-0.36137271,0.9614585833333334,0.82990614,0.9276309666666668,0.42679559,-0.7361388166666667
247,1778413376130,-0.31170722,0.9430245599999999,0.6146822239999999,1.10793948,0.83652476,-1.0192597
248,1778413376140,-0.2400953222222222,0.94594615,0.39233999444444445,1.0916773444444443,1.0696105066666668,-1.2514902777777779
249,1778413376150,-0.2115706188888889,0.9500385555555556,0.2871814077777778,1.0495288777777778,1.2073226444444447,-1.4291789888888888
250,1778413376160,-0.24864866600000002,0.8628979600000001,0.140148422,0.9360471,1.3012574,-1.6865493
251,1778413376170,-0.26627570333333334,0.8455473333333333,0.12150098999999999,0.7038572655555556,1.4173183777777778,-1.9289878111111112
252,1778413376180,-0.19221243999999998,0.914943604,0.212536782,0.285983418,1.721276,-2.07443732
253,1778413376190,-0.04345782333333333,1.0123862533333332,0.30047484333333335,0.13027165977777777,1.9480767222222224,-2.1592092666666667
254,1778413376200,0.04337312666666667,1.0666983555555556,0.3471137444444444,0.09993291288888889,2.023210911111111,-2.200746855555556
255,1778413376210,0.294261076,1.2423895,0.4598561,0.0489746776,2.3765928599999997,-2.48529308
256,1778413376220,0.4697834999999999,1.4248392333333333,0.5428975266666667,0.05785232444444445,2.6340582666666665,-2.710863844444445
257,1778413376230,0.5684545666666666,1.6234043777777778,0.5681937344444444,0.1535517288888889,2.828485788888889,-2.9782282555555555
258,1778413376240,0.59987647,1.8341040400000002,0.624405339,0.36539354999999996,2.8907583000000003,-3.19639565
259,1778413376250,0.597169,1.876573,0.6486354,0.4247679,2.8669353,-3.212522
260,1778413376260,1.36188439,2.49507544,0.626618856,1.232735598,2.0019068399999997,-3.37910021
261,1778413376270,1.8164983333333333,2.7776721999999996,0.6118852499999999,1.5558534333333334,1.5545554,-3.5883968333333334
262,1778413376280,2.4024334444444446,3.0550664666666667,0.6644763944444444,1.7110085888888888,1.297185111111111,-4.309060722222222
263,1778413376290,2.53136715,2.9768505000000003,0.58725984,1.5869048,1.5236058,-5.3343383
264,1778413376300,2.256361388888889,2.7074682222222224,0.4464589622222222,1.1945033466666668,2.0366496,-5.748904133333333
265,1778413376310,1.6968469666666666,2.2219689333333332,0.32212246,0.7012781100000001,2.3789956,-5.6696297
266,1778413376320,1.6142649300000003,2.10064982,0.32085408800000004,0.568194844,2.3696292800000003,-5.536383600000001
267,1778413376330,1.7460572,1.8749366,0.38287802,0.5413718511111111,2.124136477777778,-5.434046377777778
268,1778413376340,1.7445090333333333,1.6536399222222222,0.4380574022222222,0.5265079222222222,1.8719244222222224,-5.418639555555555
269,1778413376350,1.7002516999999997,1.5473465,0.4646307800000001,0.5108974,1.8400247,-5.446467
270,1778413376360,1.191038322222222,1.0073487644444445,0.6784677622222222,0.44567247333333326,2.1171456777777777,-5.244692244444445
271,1778413376370,1.0027719,0.81276083,0.75528795,0.501734666,2.42484973,-4.94830582
272,1778413376380,0.5373891022222222,0.5029324711111111,0.38940618666666665,0.79785985,2.7209343,-4.391864488888889
273,1778413376390,0.14499490666666667,0.32542212000000004,0.05055850666666666,0.9681504822222222,2.6523157333333334,-3.770361422222222
274,1778413376400,0.0748519214,0.3009383,0.010604278,0.9923671799999999,2.58397546,-3.61305469
275,1778413376410,-0.09519864433333333,0.26770870666666663,-0.010762823333333333,1.2549772444444445,1.9307694222222223,-2.9560341777777777
276,1778413376420,-0.11454936333333333,0.26404995,-0.038345736,1.4786830666666666,1.5502794666666666,-2.7276622
277,1778413376430,-0.07484583200000001,0.22676322999999998,-0.2441728008,1.77076983,0.937375662,-2.4587824400000002
278,1778413376440,-0.057842125555555554,0.1602769666666667,-0.43787783333333336,1.8922266777777779,0.24069078444444447,-2.205633711111111
279,1778413376450,-0.056893559999999996,0.1530882,-0.45615464,1.8962989999999997,0.1790546,-2.1843898
280,1778413376460,-0.06301858166666667,0.11564021555555556,-0.5263857177777778,1.583680888888889,-0.19783814333333333,-1.901431811111111
281,1778413376470,-0.12927583833333334,-0.012449913333333333,-0.6754662333333333,1.3365592333333334,-0.32448715666666667,-1.734399
282,1778413376480,-0.169345244,-0.081821848,-0.6886316600000001,0.869831228,-0.5885360660000001,-1.4042157400000002
283,1778413376490,-0.17075861111111112,-0.14363304,-0.6419819055555556,0.5884750133333333,-0.7608357088888889,-1.1373297222222223
284,1778413376500,-0.14610609,-0.17327230333333332,-0.6155135666666667,0.43902104,-0.8475760333333333,-0.9755230666666667
285,1778413376510,-0.037105825,-0.23603511500000002,-0.5615724,0.1367534245,-1.01637355,-0.631616085
286,1778413376520,0.17017254,-0.2763372666666667,-0.42809406666666666,-0.09360385722222223,-1.1601941333333334,-0.35259461
287,1778413376530,0.398023252,-0.30942048800000005,-0.311188896,-0.273323604,-1.36498402,-0.0691479085
288,1778413376540,0.5149284666666667,-0.3411039111111111,-0.2634605088888889,-0.32237464,-1.5066802333333333,0.06785495166666666
289,1778413376550,0.5774118,-0.3606308,-0.23797122000000004,-0.33581328,-1.5526974,0.11125056
290,1778413376560,0.67757001,-0.42278381,-0.22479970200000002,-0.390423024,-1.57945248,0.168792366
291,1778413376570,0.7516393833333334,-0.5419320333333333,-0.24195518333333332,-0.6624129566666667,-1.5193044,0.34133637
292,1778413376580,0.7928206166666666,-0.6424867,-0.23268634999999996,-0.9603706422222221,-1.3984245,0.5637526333333334
293,1778413376590,0.85142158,-0.66660599,-0.24847792000000002,-1.26149117,-1.34274916,0.94010919
294,1778413376600,0.9048054555555556,-0.6462945055555555,-0.25861942888888895,-1.3316300222222222,-1.3641491666666667,1.0334941777777777
295,1778413376610,1.01733373,-0.54015958,0.021586634,-1.47345524,-1.55746196,1.38169068
296,1778413376620,0.9978393777777779,-0.47115894888888893,0.39753335777777776,-1.1544164555555556,-1.6889841777777777,1.554479011111111
297,1778413376630,0.9557806333333334,-0.3596381866666667,0.2756631111111111,-0.4188885,-2.060922344444444,1.9505795888888886
298,1778413376640,0.97860586,-0.250898776,0.076254452,-0.135890606,-2.33158873,2.27071777
299,1778413376650,1.0506813,-0.04930165500000001,-0.21496173,-0.18331356222222223,-2.4340311999999997,2.3996200666666665
300,1778413376660,1.050281511111111,0.25145437111111113,-0.23898412222222223,-0.9516152222222222,-2.4991797333333334,2.658135666666667
301,1778413376670,1.0154556,0.35785624,-0.16500962,-1.1746287599999998,-2.46231,2.7418794400000004
302,1778413376680,1.0539944666666665,0.5621567666666666,0.2597543116666666,-1.7989960666666667,-2.2232041333333337,3.3691789333333335
303,1778413376690,1.2059605999999998,0.852177775,0.849848371,-1.8990936,-2.1505948,3.67794188
304,1778413376700,1.286941622222222,0.9865548777777777,1.0071048422222222,-1.8415518000000002,-2.1458302,3.814283
305,1778413376710,1.8315059444444444,1.9382058555555557,1.6196473333333334,-0.3405812922222222,-2.499697322222222,4.123507577777778
306,1778413376720,1.9777740099999999,2.23657562,1.67178038,0.864333616,-2.39556728,3.9655288900000003
307,1778413376730,1.4990000333333335,2.3682750222222224,1.0860287899999999,1.3675767222222222,-2.033162677777778,3.711864355555556
308,1778413376740,1.117504211111111,2.394045522222222,0.6705235466666666,1.6051283666666667,-1.5531046333333334,3.5992647333333334
309,1778413376750,0.9094097879999999,2.40339029,0.378287321,1.5420685600000001,-1.47890702,3.6612046
310,1778413376760,0.9022173222222223,2.4671766,0.13486898111111112,0.7523177888888889,-1.5327430444444443,4.0146408
311,1778413376770,0.9394146040000001,2.51484196,0.176894466,0.562819392,-1.51128194,4.0552011
312,1778413376780,1.1344191711111111,2.6761147666666667,0.3259607444444444,0.29194256888888886,-1.3772484999999999,3.997062055555555
313,1778413376790,1.3641954333333333,2.841192166666667,0.1239503182,0.3594751322222222,-1.5736698222222223,3.4083411
314,1778413376800,1.35261242,2.82516794,-0.09876491088999999,0.36557682299999994,-1.83246544,3.0583977399999998
315,1778413376810,0.9744030888888889,2.5076192555555554,-0.3597127344444444,0.03728713999999998,-2.540081,2.2331303666666664
316,1778413376820,0.6595446,2.19870142,-0.393480278,-0.6061590299999999,-2.74087164,1.77690896
317,1778413376830,0.4014800722222222,1.8771488666666667,-0.3494004811111111,-1.5304947822222221,-2.6253536222222227,1.5547505444444445
318,1778413376840,0.34556895,1.803337,-0.33535495,-1.7578657,-2.5881598,1.5113125
319,1778413376850,0.34556895,1.8033369999999997,-0.33535495,-1.7578657,-2.5881598,1.5113125
320,1778413376860,0.1943677233333333,1.4449691777777778,-0.057452541111111116,-2.8368257000000003,-2.0787811333333335,1.3739397000000002
321,1778413376870,-0.022027026222222232,1.1249166222222222,0.511926898888889,-2.809312055555556,-1.9385492888888889,1.2747788111111111
322,1778413376880,-0.390348989,0.8234291800000001,1.18483439,-1.88498299,-2.14045455,1.02733816
323,1778413376890,-0.5797187966666667,0.7572901333333334,1.3014681333333333,-0.6579333888888889,-2.6509921888888885,0.8968001111111111
324,1778413376900,-0.635866376,0.7311036200000001,1.29146552,-0.10463812799999998,-2.8039110999999997,0.861370984
325,1778413376910,-0.6389668111111111,0.7287823444444445,1.2123200777777778,0.5952621688888889,-2.7439259222222225,0.8046300711111111
326,1778413376920,-0.6629383977777779,0.7407207444444445,1.1195775000000001,0.9087625444444445,-2.4478939555555552,0.7494501877777778
327,1778413376930,-0.69141227,0.7485803,1.0447255,0.9910232999999999,-2.2912116,0.72637373
328,1778413376940,-0.7186259522222221,0.9796709722222222,0.6051708066666666,0.4967800244444444,-0.7945001755555556,0.76221011
329,1778413376950,-0.7131209,1.0238707,0.52856743,0.31359372,-0.40430453,0.7697439
330,1778413376960,-0.686619348,1.0508600600000002,0.5197376439999999,0.253356544,-0.32702471499999997,0.75343428
331,1778413376970,-0.567309531111111,1.1747534666666668,0.48783334888888885,-0.5130268588888889,0.6564063266666667,0.4831208
332,1778413376980,-0.5635085,1.1793066,0.48880902,-0.57709795,0.7386671,0.4478274
333,1778413376990,-0.5635085,1.1793066,0.48880902,-0.57709795,0.7386671,0.44782739999999993
334,1778413377000,-0.5648398777777778,1.1770029333333334,0.5004391011111111,-0.5568042477777778,0.8811981111111111,0.2837046111111111
335,1778413377010,-0.6884853,0.9250235,1.3092836,0.039193486,2.3048183700000004,-1.12689111
336,1778413377020,-0.5574545933333334,0.9039314644444444,1.3583651333333335,0.3875062133333333,2.5701908,-1.2078486666666666
337,1778413377030,-0.35784608,0.9562143222222222,1.2774491444444445,0.7580190444444443,2.901236011111111,-1.2816254444444446
338,1778413377040,-0.25333796,0.9893260500000001,1.20616785,1.17537704,3.26386372,-1.3935869799999998
339,1778413377050,-0.17746632122222222,1.0287863888888888,1.109671681111111,1.3392062,3.3928747,-1.4709202
340,1778413377060,0.0003506294999999996,1.3134302999999998,0.7679868900000001,1.48666482,3.68766968,-1.9460371600000002
341,1778413377070,0.11947851666666669,1.5650710333333333,0.87105697,1.5220532,3.629883433333333,-2.0799349
342,1778413377080,0.4800280333333333,1.9376436000000001,1.0086259100000001,1.5377316,3.6103363,-2.0988712
343,1778413377090,1.0165624000000002,2.3987922700000004,1.2573172300000002,1.62068461,3.6419781900000006,-2.44436642
344,1778413377100,1.2532710111111112,2.5959541777777777,1.3863071555555555,1.685963811111111,3.6879817999999998,-2.6984687333333337
345,1778413377110,1.5142686555555553,2.916545466666667,1.4537026888888889,1.8113911333333332,4.039558355555556,-3.4895754444444447
346,1778413377120,1.4280407,2.93230524,1.3063933,1.72110798,4.231812440000001,-3.7909945200000004
347,1778413377130,1.2296551,2.7840852666666667,1.3718280333333333,1.5259897888888887,4.289394955555555,-3.983072022222222
348,1778413377140,1.12344975,2.5619635,1.67131705,1.4936284399999997,4.13102236,-4.01260992
349,1778413377150,1.080368,2.3444762333333333,1.9470547,1.6959410666666668,4.001006866666667,-3.943163333333333
350,1778413377160,1.0491465999999998,2.0895224333333333,1.9752067666666666,2.5948960000000003,3.595743811111111,-3.718439222222222
351,1778413377170,1.0498295500000001,1.96449571,1.86312091,2.9117255799999997,3.41914108,-3.62508834
352,1778413377180,1.123331111111111,1.7636496,1.5729880888888887,3.3340382444444447,3.1792818,-3.408943455555556
353,1778413377190,1.1825486666666667,1.5527836333333334,1.2250816133333333,3.5658208000000005,3.0518184,-3.2131328666666668
354,1778413377200,1.15407346,1.34643218,0.848945882,3.4737050199999997,3.0944148399999998,-3.08546576
355,1778413377210,0.81413287,0.8442565,0.24620338,2.8082345222222225,3.3256135777777778,-2.9016686222222225
356,1778413377220,0.650708734,0.70798034,0.157759204,2.46190535,3.3700290600000002,-2.76330499
357,1778413377230,0.30376436222222225,0.42899181555555554,0.0031201013333333315,2.0145318333333333,3.2907273777777775,-2.4452978222222224
358,1778413377240,0.14202049,0.2774958533333333,-0.054606841999999996,1.8119341777777775,3.1465674444444445,-2.192670088888889
359,1778413377250,0.0676380936,0.18854758,-0.084998859,1.6818915999999997,3.0404158,-2.0170176
360,1778413377260,0.017616204666666666,0.006999051111111114,-0.09997195777777777,1.2423530222222223,2.388090511111111,-1.2344544777777777
361,1778413377270,0.019946963999999998,-0.06911988777777778,-0.06429237,1.1432600444444445,2.2437948,-1.0573087888888888
362,1778413377280,0.0232208678,-0.1050061288,-0.030099318599999998,1.0654856240000001,2.15589384,-0.92280699
363,1778413377290,0.033497889,-0.23818463333333334,0.10441665833333333,0.7939232766666666,1.9220818333333334,-0.40865683333333336
364,1778413377300,0.035124,-0.26836932,0.12930632,0.69170815,1.8821731,-0.1643179
365,1778413377310,0.09322359777777778,-0.35554919555555553,0.17324182,0.62159649,1.8916751666666667,0.021837792777777785
366,1778413377320,0.1321554111111111,-0.39969810222222224,0.20415147777777778,0.5497201422222222,1.8959511333333334,0.289957315
367,1778413377330,0.24207509,-0.46439906000000003,0.302011536,0.534109585,1.83727585,0.6985801850000001
368,1778413377340,0.3381362588888889,-0.5272597755555556,0.3547801777777778,0.7999638666666667,1.6376306,0.9493329833333335
369,1778413377350,0.37406654222222224,-0.5704228444444444,0.35884546,0.8814780333333334,1.6011834,0.9900561066666668
370,1778413377360,0.41743288500000003,-0.65273625,0.32222915999999996,1.0653023400000001,1.5681976800000001,1.0883618
371,1778413377370,0.4306992333333333,-0.7042890722222223,0.2522606433333333,1.1950463000000002,1.6079026666666667,1.2140335333333334
372,1778413377380,0.42609192399999996,-0.733823298,0.22634857,1.20054392,1.65127284,1.3017919
373,1778413377390,0.4144381244444444,-0.7887553533333334,0.22021271444444446,1.2078741,1.7428999,1.5406332
374,1778413377400,0.4092345777777778,-0.8401675888888889,0.16999298555555556,1.1981005666666666,1.7612253333333332,1.6104734
375,1778413377410,0.405359028,-0.8917654,0.054936134000000005,1.11526965,1.84662182,1.84507947
376,1778413377420,0.41191768666666667,-0.8953808000000001,-0.01964884455555556,0.9304137333333333,1.9687097777777778,2.0225916
377,1778413377430,0.38582536666666667,-0.8818298666666666,-0.114650994,0.64508018,2.1385254000000002,2.1932216666666666
378,1778413377440,0.34940452200000005,-0.86686768,-0.25477706,0.15123051229999998,2.33896475,2.40479883
379,1778413377450,0.33407435,-0.8613918,-0.31901252,-0.25268714066666664,2.4610526666666668,2.5218575
380,1778413377460,0.349166712,-0.83807332,-0.8528790199999999,-1.454152416,2.85077824,2.7307316399999997
381,1778413377470,0.35126034666666667,-0.9147687999999999,-1.1253299333333335,-2.442014666666667,3.2395519999999998,2.8497552
382,1778413377480,-0.024154528888888884,-1.2046976666666669,-1.139951388888889,-5.257486,4.515612,3.3249943
383,1778413377490,-0.35061802799999997,-1.3484690000000001,-0.7895766,-5.8647063500000005,4.75811835,3.7144094500000002
384,1778413377500,-0.5371655,-1.422949,-0.5618316,-6.4719267,5.0006247,4.1038246
385,1778413377510,-0.08779304444444445,-1.1135236666666666,0.5752402111111111,-6.173154688888889,4.470273644444444,6.522788222222221
386,1778413377520,0.608578168,-0.747086296,0.8557511480000001,-5.53045856,3.96096268,7.315125
387,1778413377530,2.4214454777777776,0.5651617133333333,0.9131461011111112,-2.7362479000000004,1.4864205222222222,7.292794833333334
388,1778413377540,3.114508,1.47973564,0.7335367309999999,-1.45219772,-0.04607310400000002,6.572700960000001
389,1778413377550,3.2397013,1.7389123,0.6613496,-0.7951704,-0.88687384,6.1160316
390,1778413377560,3.2397013,1.7389123,0.6613496,-0.7951704,-0.88687384,6.1160316
391,1778413377570,2.9382843100000002,1.8548856100000002,0.574811,-0.402242908,-1.463024984,5.75706736
392,1778413377580,2.234978,2.12549,0.3728876,0.11316794111111111,-2.4144417111111114,5.420938655555556
393,1778413377590,3.2893755555555555,2.7106527222222225,1.4095029666666667,-0.2299585288888889,-1.2253002544444445,5.602377433333334
394,1778413377600,3.6338340000000002,2.97467966,1.66232876,-0.5731732366,0.6681752839999999,5.532657800000001
395,1778413377610,2.7281063333333333,2.7043752333333333,1.2434668666666666,0.4269398148888889,0.47987142,4.233256322222222
396,1778413377620,2.20084193,2.44434687,0.99751551,0.98332658,0.0479820504,3.7953465399999997
397,1778413377630,1.7229867333333333,2.065015466666667,0.6204155888888888,1.3056096333333334,-0.21188763866666668,3.638969722222222
398,1778413377640,1.6180245777777778,2.0622273,0.22692719333333333,1.771754,-0.4641675488888889,3.4124132444444446
399,1778413377650,1.61109395,2.06679735,0.17008919,1.8553722000000001,-0.4971533,3.3665317999999997
400,1778413377660,1.5241471666666666,2.0163507333333333,0.008161044333333332,1.2087564444444443,-0.2928588444444445,2.738852488888889
401,1778413377670,1.4196051777777778,1.9503169999999999,0.037115986999999996,0.9469065999999999,-0.18860757777777779,2.5105567555555557
402,1778413377680,1.12022394,1.70616355,0.30956076050000003,0.6428403819999999,-0.054777727,2.05197341
403,1778413377690,0.9322190666666668,1.5482915777777777,0.5480502777777778,0.5991308555555555,-0.043972517777777775,1.8877301888888889
404,1778413377700,0.8627027999999999,1.491459,0.65695906,0.8358681000000001,-0.23021306,1.6982317000000002
405,1778413377710,0.8036309333333334,1.4010031333333333,0.6875096277777778,1.5325054777777778,-0.5950925177777777,1.3724465444444445
406,1778413377720,0.7761259111111111,1.3645003222222223,0.5230962533333332,1.8726117222222223,-0.7073526555555555,1.1459578888888888
407,1778413377730,0.683311242,1.28691961,0.225296679,1.6872670199999997,-0.46917651199999993,0.8331497999999999
408,1778413377740,0.5868262688888889,1.1910010444444443,0.14971740777777776,1.3471473,-0.0962339,0.48529269333333336
409,1778413377750,0.5661611,1.169306,0.14299615,1.2073990511111112,0.05967638666666667,0.34900589444444446
410,1778413377760,0.272948858,0.9652575499999999,0.13837697799999998,0.843625898,0.432999095,-0.0306416248
411,1778413377770,0.11183918333333336,0.8552971944444444,0.17142598888888888,0.785575,0.47213401666666666,-0.12237307133333333
412,1778413377780,-0.042532969,0.718407762,0.393901026,0.9180881000000001,0.46952773800000003,-0.17702353799999998
413,1778413377790,-0.21790903944444445,0.6073999300000001,0.6159166744444444,1.1410880666666667,0.48109312,-0.18997349666666669
414,1778413377800,-0.23016585,0.6023827,0.6269268,1.3935716,0.5144861,-0.17775655
415,1778413377810,-0.188450013,0.6049438220000001,0.6159658100000001,1.72684992,0.61417636,-0.17115940400000001
416,1778413377820,-0.11243542666666666,0.5972604533333333,0.5225609666666666,2.1915418444444446,0.8472621111111112,-0.22553838
417,1778413377830,-0.07313773888888889,0.5918129988888888,0.45870900000000003,2.3439820888888887,0.9898609511111113,-0.30196215333333337
418,1778413377840,0.0013262964999999974,0.60018748,0.49051641999999995,2.40305782,1.131564,-0.39033139
419,1778413377850,0.059901869555555556,0.6086432533333332,0.5793461355555556,2.3997728777777776,1.2406477777777778,-0.4628186077777777
420,1778413377860,0.19765483300000003,0.58730864,1.0112937499999999,2.5828837,1.7849261899999997,-0.8589123329999999
421,1778413377870,0.20424972333333333,0.5534265933333333,1.1338059999999999,2.7253629111111106,2.0421471444444443,-1.040340738888889
422,1778413377880,-0.12197865777777778,0.26357228444444447,1.0948809888888889,3.0883419333333335,2.7587898666666666,-1.3369410333333334
423,1778413377890,-0.5408120439999999,0.035380111199999995,0.95536066,3.3769468599999994,3.4673981400000002,-1.33030316
424,1778413377900,-0.6237864,-0.004299031,0.92758465,3.4143307,3.5718529999999995,-1.3029372
425,1778413377910,-0.6569251888888888,0.03279662922222222,0.8902721722222222,3.5100301,3.643932955555555,-1.0660642088888888
426,1778413377920,-0.6066939550000001,0.30919184,0.889698278,3.9451569999999996,3.8021423999999997,-0.175313165
427,1778413377930,-0.028924461111111126,0.6930587511111111,1.2868027955555557,4.658940444444444,3.1681084444444445,-0.2154254733333333
428,1778413377940,0.648952518,1.14787798,1.8536507999999998,5.8369664,2.40475298,-0.7372926559999999
429,1778413377950,0.8282800455555557,1.3223231222222223,2.027079577777778,6.131456,2.262731,-0.92604446
430,1778413377960,0.7568327555555556,1.6832655555555556,1.788153122222222,6.6415809333333335,2.5963893111111114,-1.5466652955555555
431,1778413377970,0.81340112,2.01359315,1.6934067,6.31886356,3.2987736400000003,-1.67848614
432,1778413377980,1.2300717333333333,2.2410827444444443,1.9526918333333336,5.731961500000001,4.100914488888889,-1.815030877777778
433,1778413377990,1.8657186,2.2829077,2.593688,5.563096388888889,4.697101511111111,-2.195928211111111
434,1778413378000,1.8763350799999998,2.28070941,2.61040544,5.63960164,4.700820909999999,-2.2619065
435,1778413378010,2.0781294666666668,2.3188548,2.7141725333333335,6.8304686,4.1576556,-2.8394726666666665
436,1778413378020,2.20329324,2.41590912,2.5217019400000003,7.256331,3.9105679,-3.06042115
437,1778413378030,2.540395588888889,2.672191777777778,2.065001988888889,7.303603755555555,3.775401,-3.571360922222222
438,1778413378040,2.854438222222222,2.7901898888888885,1.8185512555555556,7.078201211111111,3.8678424555555555,-3.8691828888888886
439,1778413378050,3.07063648,2.79323612,1.56363394,6.73173539,3.94984529,-4.24992395
440,1778413378060,3.0807488666666667,2.633019466666666,1.2432331666666667,5.770648466666667,3.863634333333333,-5.187238366666666
441,1778413378070,2.970935666666667,2.5005118,1.1386233666666667,5.118212833333334,3.8037712666666668,-5.7081131
442,1778413378080,2.67897954,2.12749002,1.07455662,4.35002658,3.83048572,-6.0622008
443,1778413378090,2.2891850666666667,1.5731914333333334,0.9885739333333334,3.433945733333333,3.916642288888889,-6.220206611111111
444,1778413378100,2.1656446799999998,1.40292338,0.91753524,3.14824568,3.9674376600000003,-6.187913200000001
445,1778413378110,1.7509863,0.8621743,0.6359043133333333,2.0314403999999997,4.092973455555556,-5.8187444444444445
446,1778413378120,1.5553109,0.6021252777777778,0.7254420422222222,1.739650588888889,4.011866533333333,-5.645127888888889
447,1778413378130,1.0987348080000001,0.18111424,0.8666359079999999,1.5114652000000002,3.8629217,-5.3050175
448,1778413378140,0.6370324177777777,-0.21319670555555556,0.8875009622222222,1.5667807555555557,3.5773506444444445,-4.651135222222222
449,1778413378150,0.5683732644444444,-0.27526672444444444,0.8749189244444444,1.646733888888889,3.463597311111111,-4.3755752222222215
450,1778413378160,0.279028484,-0.581436392,0.635750512,1.9551234699999998,3.1514067299999997,-3.3549106899999996
451,1778413378170,0.23808299333333333,-0.63802502,0.43469,2.0366580555555553,3.0546009666666665,-2.8801108666666666
452,1778413378180,0.23324531199999998,-0.65045866,0.034087355999999985,1.71041822,2.91598629,-1.9154337099999998
453,1778413378190,0.3084834488888889,-0.6491740777777778,-0.2725701088888889,1.3161977,2.7854379333333332,-1.5175481666666666
454,1778413378200,0.3668608266666667,-0.664053,-0.26945678,0.9596664866666667,2.6428814333333333,-1.2404271333333332
455,1778413378210,0.47562223000000003,-0.7246002149999999,-0.085447054,0.40247198000000006,2.33817055,-0.8658759999999999
456,1778413378220,0.5123063044444444,-0.7920651466666667,0.16205552533333334,0.09246700000000001,2.0774406666666665,-0.6273401333333334
457,1778413378230,0.5116287722222223,-0.8334564222222222,0.29508835333333333,0.037897982000000004,1.9418325666666665,-0.49275011
458,1778413378240,0.39987699,-1.01938876,0.578795948,0.1814063692,1.7317825800000002,-0.12705623
459,1778413378250,0.3445458533333333,-1.0663596666666666,0.5453807311111111,0.23404782777777777,1.7065885333333333,-0.020887585
460,1778413378260,0.110536934,-1.23371228,0.382449128,0.325199806,1.50528032,0.43292271800000004
461,1778413378270,0.03448033088888888,-1.2839570444444444,0.3936205233333333,0.39918020444444446,1.2813030222222224,0.7932954822222222
462,1778413378280,0.08227783444444443,-1.2740207555555554,0.3525917111111111,0.5206709111111111,0.9837525644444445,1.2633763444444446
463,1778413378290,0.1681378572,-1.2341634400000001,0.213262444,0.47045928400000003,0.859736972,1.50508188
464,1778413378300,0.18484479333333334,-1.2222698222222224,0.13861242444444444,0.269748455,0.8618545777777779,1.669182611111111
465,1778413378310,0.15712299666666668,-1.1992909222222223,-0.10642559333333335,-0.30253908333333335,0.9610833011111111,1.9617784444444442
466,1778413378320,0.152996741,-1.17225135,-0.127464754,-0.69205942,1.026864728,2.13804172
467,1778413378330,0.1639052311111111,-1.1747636888888888,-0.05219477777777778,-1.3246392777777778,1.1330707,2.473032022222222
468,1778413378340,0.182541142,-1.1888621,0.056942346,-1.7589652199999999,1.20816422,2.7427346800000003
469,1778413378350,0.22304147333333335,-1.1553113333333331,0.11825893333333333,-1.9327715666666667,1.2306027000000002,2.987602933333333
470,1778413378360,0.3370996044444444,-1.0055938666666666,0.11069412555555555,-2.0649182222222224,1.0738864444444445,3.5196509111111114
471,1778413378370,0.40005686100000004,-0.8414362799999999,0.0096225118,-1.9814357999999999,0.70897988,3.87695596
472,1778413378380,0.4381251511111111,-0.5781637977777777,-0.16070720466666666,-1.8869580666666665,0.28312770666666665,4.196062566666667
473,1778413378390,0.6531072222222222,-0.21303749333333333,-0.37845027444444446,-1.8928629333333333,-0.33914748666666666,4.6379087666666665
474,1778413378400,0.88887504,0.029212072999999995,-0.382833321,-1.9142426000000001,-0.56373566,4.7971363
475,1778413378410,1.7205576444444446,0.8396966466666667,-0.09271543555555556,-2.3544598,-0.9495875333333333,5.392754888888889
476,1778413378420,2.1978551333333334,1.3737725222222223,0.0940637528888889,-2.638707388888889,-0.7120357888888889,5.428014277777778
477,1778413378430,2.9968150000000002,2.60899378,0.1651864664,-3.0299626500000003,-0.11134218300000001,4.3398637
478,1778413378440,3.072025366666667,3.1139146777777778,0.001016319777777776,-3.1645196,-0.07892655666666666,3.8173372333333333
479,1778413378450,2.95842565,3.16874274,-0.0209067079,-3.2240975899999995,-0.177863452,3.4499049399999997
480,1778413378460,2.6888560666666663,3.335272588888889,0.1804678418888889,-3.165945,-0.7011763,2.616946
481,1778413378470,2.6073201333333333,3.331702,0.36279894444444444,-2.9150903333333336,-0.7983688955555556,2.3812948
482,1778413378480,2.22640427,3.18886611,0.814968296,-2.43558546,-0.713271082,2.1421956
483,1778413378490,1.9302141666666668,3.0802406999999996,0.6062616333333334,-1.0012974333333333,-0.47333027777777775,1.4628518888888888
484,1778413378500,1.8391316000000002,3.0385411333333336,0.42379503,-0.5314625533333334,-0.4482855333333333,1.1759572999999999
485,1778413378510,1.4606065400000001,2.8565356,-0.21478692300000005,0.19936526799999998,-0.378404596,0.397615764
486,1778413378520,1.3485848,2.804188,-0.3582831,0.29648998,-0.34688488,0.22059222
487,1778413378530,0.753208575,2.43893799,-0.612929045,-0.029885707,-0.526107494,-0.32539069649999997
488,1778413378540,0.38947394,2.107928,-0.4051456,-0.22741334444444444,-0.6380554311111111,-0.49980878888888886
489,1778413378550,0.3092118111111111,2.0208225777777775,-0.26772565333333337,-0.27221729555555557,-0.6345260866666665,-0.5371383444444444
490,1778413378560,0.11083573799999999,1.8531843399999999,-0.014805741400000003,-0.622056332,-0.315853844,-0.8163362599999999
491,1778413378570,0.050368790000000004,1.8144351111111112,0.04397275688888888,-0.7006927222222222,-0.12752284944444445,-0.8480595888888889
492,1778413378580,0.11647020999999998,1.7734977333333333,0.21367100666666664,-0.75159666,0.06055023555555556,-0.9623559266666667
493,1778413378590,0.27678444,1.6432544400000002,0.52983578,-0.58955926,0.083762429,-1.35443162
494,1778413378600,0.3122844866666667,1.5610057666666668,0.6342443133333333,-0.4582542444444445,0.08104755222222222,-1.5951257888888888
495,1778413378610,0.1649822,1.22832774,0.682841644,-0.113648134,0.28967905000000005,-2.38242648
496,1778413378620,-0.013517046666666662,1.0753472999999998,0.6061837466666666,-0.039476004,0.4230626333333334,-2.6961271
497,1778413378630,-0.4718771666666666,0.7565076111111111,0.3045469077777778,-0.08135297377777778,0.5539875722222223,-2.9632963999999995
498,1778413378640,-0.624899275,0.6125205300000001,0.139566072,-0.26197712,0.60391417,-3.0854658
499,1778413378650,-0.73068285,0.50039506,0.0077748439999999995,-0.45920444,0.5786251,-3.0744705
500,1778413378660,-0.5584505944444444,0.3527170644444444,-0.11900761511111109,-0.9877230755555555,0.5246669022222222,-2.8661630999999996
501,1778413378670,-0.431299546,0.314719592,-0.151819828,-1.7176719200000001,0.71655438,-2.6681807799999997
502,1778413378680,-0.31582126000000005,0.23794072,-0.13799585933333333,-2.4236212666666663,1.3498536888888888,-2.6634298
503,1778413378690,-0.345425656,0.220589105,-0.11695194090000001,-2.64060102,1.6510284899999998,-2.67709912
504,1778413378700,-0.38814257333333335,0.21720780666666667,-0.09024916466666667,-2.7104480333333334,1.7534200444444443,-2.6868539888888887
505,1778413378710,-0.46444781333333335,0.18320174666666666,0.044636752,-2.49638,1.4594668,-2.663905
506,1778413378720,-0.46517956,0.17068069,0.08588916,-2.49638,1.4594668,-2.663905
507,1778413378730,-0.3053396411111111,0.2904166722222222,0.22579569555555556,-1.6882290555555555,0.9323735555555555,-2.4588637777777778
508,1778413378740,-0.10335969444444444,0.4886735111111111,0.21099807666666667,-1.0893951666666668,0.7814263666666666,-2.2776458
509,1778413378750,-0.048097324000000004,0.5428518099999999,0.20122514700000002,-0.9384751999999998,0.81111354,-2.18426762
510,1778413378760,0.5978465511111112,1.1021307111111112,0.2996685777777778,-0.4384356,0.8724426,-2.0762699
511,1778413378770,0.873337596,1.3193513600000002,0.35848433799999996,-0.243231733,0.7881457000000001,-2.2066858
512,1778413378780,1.0569486111111113,1.6605948888888888,0.38619461666666666,0.49935913177777774,0.38820193888888893,-2.694150366666667
513,1778413378790,0.9982086933333333,1.8764713666666664,0.30308678,1.3392062433333334,-0.24914931666666668,-3.1198769
514,1778413378800,0.969651117,2.06257164,0.1915843401,1.55679004,-0.48292056,-3.18375113
515,1778413378810,1.2946079955555556,2.752277922222222,-0.29183274066666665,1.3581424666666666,-0.8257891333333334,-3.1107142
516,1778413378820,1.4803810444444445,2.9564834999999996,-0.5796205555555556,0.81211292,-0.6561093422222223,-3.157613733333333
517,1778413378830,1.52060096,2.9668071400000002,-0.81519395,-0.03203892399999999,-0.32634514800000003,-3.26542144
518,1778413378840,1.5467569333333333,2.7589414333333333,-0.64503765,-3.0071076999999997,0.41573245444444445,-3.3485373555555555
519,1778413378850,1.69483672,2.51507966,-0.27799183,-3.7411187499999996,0.49799321899999993,-3.3258341899999997
520,1778413378860,1.9842518666666666,1.9654331,0.6492688888888889,-4.915547333333333,0.6648223844444445,-3.5393253666666666
521,1778413378870,1.9392322555555555,1.6861349444444445,1.0857883222222222,-4.930750611111112,0.7508161222222223,-3.7442986111111107
522,1778413378880,1.4250679099999999,1.08669753,1.75337368,-4.5457267,1.0351723400000001,-3.95323542
523,1778413378890,0.6920356133333333,0.5114187155555556,2.2916818111111112,-3.9523090000000005,1.3552155333333333,-3.7468098000000003
524,1778413378900,0.5094605933333333,0.3810486433333333,2.422702366666667,-3.3740233444444447,1.5764100777777776,-3.447630444444444
525,1778413378910,0.286400856,0.192791738,2.50857326,-1.3606928200000001,1.94191392,-2.4094564400000005
526,1778413378920,0.29138896,0.17726645,2.4492283,-0.7786775,1.9768543999999997,-2.155069
527,1778413378930,0.34772454599999997,0.175900506,1.92569773,0.903236976,1.7579878699999998,-1.6355434800000002
528,1778413378940,0.37833507666666666,0.18214476999999998,1.3809546,1.9590126666666667,1.5464107333333332,-1.3477325999999998
529,1778413378950,0.3034459077777778,0.16115438644444444,0.9533889866666667,2.494810488888889,1.3715726888888886,-1.2190474666666666
530,1778413378960,-0.22037871,-0.06286953,0.3094083,2.73470217,1.0663866800000001,-0.87998654
531,1778413378970,-0.4392803633333333,-0.14509653444444445,0.19465905555555554,2.5896869999999996,0.9966482333333333,-0.5430431933333334
532,1778413378980,-0.48317520888888893,-0.17449865444444446,0.14520156666666667,2.3522964444444443,0.9551784444444444,-0.06572545666666667
533,1778413378990,-0.39391322,-0.154091315,0.094060368,1.9601935799999999,0.9991323600000002,0.567431282
534,1778413379000,-0.32341655555555554,-0.13629522222222223,0.07723011777777779,1.66153,1.0870536666666668,0.9403739133333333
535,1778413379010,-0.22450700499999998,-0.1129547665,0.1021553524,1.11600271,1.29154489,1.48046468
536,1778413379020,-0.1932226611111111,-0.10067999888888889,0.12431958377777777,0.9681504911111111,1.3530436777777777,1.6412872222222221
537,1778413379030,-0.09120451,-0.060603132000000004,0.20138370333333333,0.7872039666666667,1.5160720333333333,1.8910557999999997
538,1778413379040,0.0139002016,-0.0270137715,0.25364591,0.689386949,1.64363728,2.12038816
539,1778413379050,0.0601254588888889,-0.009871849555555555,0.2642295111111111,0.7165492900000001,1.6408884666666665,2.2031987666666666
540,1778413379060,0.21058478666666666,0.07115252288888889,0.2777804222222222,0.9177216499999999,1.4991718666666667,2.2870885000000003
541,1778413379070,0.281278622,0.11093330400000001,0.22781817399999998,1.070922088,1.42281604,2.2597226
542,1778413379080,0.34805893666666665,0.1603785988888889,0.15015442444444446,1.0880801666666668,1.438290788888889,2.183719622222222
543,1778413379090,0.41283811200000003,0.22346120799999997,0.120827175,1.02938456,1.49630091,2.10475064
544,1778413379100,0.4743603344444445,0.2803788133333333,0.10762484733333334,0.9682183833333333,1.5572024,2.0248314333333335
545,1778413379110,0.5342622133333333,0.3411174488888889,0.08349064466666667,0.7337208555555557,1.799912388888889,1.7301994111111112
546,1778413379120,0.55201393,0.36688116,0.05975958299999999,0.6874322,1.8479657,1.6744087
547,1778413379130,0.5404143033333333,0.37121746666666666,0.07050547011111112,0.3868953688888889,2.1330277,1.4284408777777777
548,1778413379140,0.45735052777777774,0.29876743666666666,0.15926064666666667,0.016654068888888898,2.5400556666666665,1.08704515
549,1778413379150,0.371607048,0.22465944200000001,0.22015918,-0.075149486,2.68861378,0.94200284
550,1778413379160,0.21967744,0.16135765444444447,0.4616529555555555,0.33083317444444443,2.6937176111111114,0.7668932444444444
551,1778413379170,0.228324288,0.15582616200000002,0.57122848,0.82230732,2.5225853999999996,0.733337384
552,1778413379180,0.30578002,0.092078544,0.48194888,2.0177897333333332,1.9070820444444445,0.6818497477777777
553,1778413379190,0.29754106888888887,0.046953959999999996,0.2606893244444444,2.8823336999999998,1.3310531,0.6520539833333334
554,1778413379200,0.29104137199999996,0.0391181364,0.15782017399999998,3.21030776,1.07890894,0.65869186
555,1778413379210,0.18032895666666665,0.06375033199999999,-0.3674096666666667,3.8554981666666666,0.17506712577777778,0.9338581800000001
556,1778413379220,0.1329413611111111,0.32556777444444446,-0.6418159,3.789934,-0.31736060977777775,1.3010452466666667
557,1778413379230,0.230909802,0.69987619,-0.86019657,3.3552008200000003,-0.703986208,1.6763633800000002
558,1778413379240,0.5795968366666666,1.2651449833333333,-1.06674925,2.6026674333333335,-1.0214639333333333,1.9794250999999998
559,1778413379250,0.71918833,1.4470357,-1.1172603,2.3605428,-1.0853993,2.0348086
560,1778413379260,0.9740541311111112,1.5149631222222224,-0.958904188888889,1.4628689011111111,-1.0266900277777777,2.0397631666666665
561,1778413379270,1.3657605666666666,1.6578102,-0.7578694666666667,-0.04520269666666667,-0.4191684933333334,1.9110101333333331
562,1778413379280,1.4643842,1.79784875,-0.06213777499999999,-0.118618902,-0.313593715,1.6973154999999998
563,1778413379290,1.1790084333333333,1.6689152333333332,0.1791229166666667,0.5528422117777778,-0.8783219833333333,1.4906794666666667
564,1778413379300,1.0486519444444444,1.5306991222222222,-0.10744191111111112,0.8358681,-1.1283621333333334,1.4938015666666666
565,1778413379310,0.79583915,1.27062288,-0.7264204400000001,1.0547958,-1.7022328000000002,1.67648558
566,1778413379320,0.6897590977777779,1.1165217555555556,-0.9013297133333332,0.5341095766666667,-1.7618107777777778,2.015057822222222
567,1778413379330,0.685363164,1.0649158,-0.8915825399999999,0.188370018,-1.6923370800000002,2.23528864
568,1778413379340,0.6590052666666666,0.9892718222222222,-0.9258602611111111,-0.33978376,-1.532607322222222,2.560858411111111
569,1778413379350,0.6234273244444445,0.9524742555555556,-0.9657812711111112,-0.6594944222222222,-1.5316570999999999,2.736816344444444
570,1778413379360,0.5865708159999999,0.84121372,-0.657495678,-1.4523199599999999,-1.8909846399999999,3.1621423999999996
571,1778413379370,0.60367346,0.8167989977777778,-0.2940449288888889,-1.6733652,-2.0953334,3.3121664666666666
572,1778413379380,0.5780655800000001,0.8542774444444444,0.35147713555555554,-1.4414468555555553,-2.062551288888889,3.5439491444444444
573,1778413379390,0.54296462,0.922965398,0.70597715,-1.087155425,-1.94486135,3.6236987
574,1778413379400,0.5228184600000001,0.95012316,0.77957122,-0.76462805,-1.8349088,3.6774532999999994
575,1778413379410,0.369948418,0.9174986219999999,0.535217205,0.752059854,-1.8766908,3.6662136000000003
576,1778413379420,0.2906368666666667,0.8729574333333333,0.33464351000000003,1.3956077999999998,-2.045854777777778,3.614875277777778
577,1778413379430,0.09828147111111113,0.8130013777777777,-0.026553032222222224,2.1364977555555553,-2.6898914,3.4731587000000004
578,1778413379440,-0.21700349700000002,0.71211779,-0.514072651,2.1263441100000002,-3.05069339,3.47141448
579,1778413379450,-0.29337075,0.6856193,-0.6186946,2.0911593,-3.1745732,3.4770954
580,1778413379460,-0.3612439611111111,0.6585581,-0.6893864166666667,1.2228059666666669,-3.2997968333333336,3.7375199666666665
581,1778413379470,-0.392553388,0.673173464,-0.714157552,0.653835675,-3.2106131500000004,3.8429928
582,1778413379480,-0.2803449333333333,0.8901468044444444,-0.4983082188888889,-1.6969760833333334,-2.2057694,4.028418811111112
583,1778413379490,-0.1440724262,1.1182756600000001,-0.352755325,-2.7820045799999997,-1.5608827600000001,4.0559954
584,1778413379500,0.028213029333333337,1.2578173666666668,-0.23025732766666668,-3.547520933333333,-1.099856,3.9739178999999996
585,1778413379510,0.37129877333333333,1.6107173222222224,0.2683591526666667,-4.963939866666667,-0.15555396,3.057171688888889
586,1778413379520,0.35719157300000004,1.74277855,0.5330707560000001,-5.27862152,0.10282086399999998,2.2742759599999998
587,1778413379530,0.15357264444444443,1.7704352444444444,0.829496211111111,-5.259522333333333,0.13670252333333333,1.7328464000000001
588,1778413379540,-0.07789072444444445,1.7442955555555555,1.0799444333333335,-5.157307,0.14484715,0.9371160000000001
589,1778413379550,-0.387351876,1.68330563,1.33730669,-4.8309925,0.22104272100000003,0.429906692
590,1778413379560,-0.9918465388888887,1.6834282,1.8808313666666667,-3.6776314333333335,0.8330769044444445,-0.43811321444444445
591,1778413379570,-0.9431343200000001,1.7442786000000001,1.9380704999999998,-3.31651875,1.16564927,-0.543959485
592,1778413379580,-0.71378148,1.9272466000000001,2.0905690666666668,-2.660918422222222,1.8221064888888892,-0.7577220744444444
593,1778413379590,-0.6313783,1.99347,2.1480825,-1.8016430666666667,2.2264874000000003,-1.0461777233333334
594,1778413379600,-0.397446965,2.19273475,2.3523475,-1.4371709,2.3647425,-1.1673291
595,1778413379610,1.133308,3.2254220222222223,3.011632422222222,1.1325192866666667,2.603651588888889,-2.122897733333333
596,1778413379620,1.6200436777777776,3.486416288888889,2.9799741,1.9502570333333331,2.7039662333333334,-2.5757899999999996
597,1778413379630,2.14634169,3.6730803800000005,2.31978776,3.00736135,3.0212124,-3.7340022999999993
598,1778413379640,2.4235355999999997,3.726355533333334,1.5738215000000002,3.335056388888889,3.350183322222222,-4.6514066666666665
599,1778413379650,2.465601,3.7210705000000006,1.337822,3.13334111,3.63489238,-5.22724132
600,1778413379660,2.426543966666667,3.3850247666666666,1.0279867999999999,2.1726225555555554,4.226206288888888,-6.000573211111111
601,1778413379670,2.437845466666667,3.1279568666666666,1.2477761333333333,1.9516145888888887,4.372809444444445,-6.156950200000001
602,1778413379680,2.29158484,2.38770026,1.59027576,2.22658415,4.66417002,-6.2772801000000005
603,1778413379690,2.0167809444444442,1.7998136222222223,1.5974509666666667,2.7873808666666666,4.630247655555555,-6.101770111111112
604,1778413379700,1.9069880111111113,1.6101650333333335,1.4816413555555554,3.2190632333333333,4.478553933333334,-5.911728766666666
605,1778413379710,1.7576574399999998,1.24404812,1.019980232,4.46877527,3.6466818400000003,-5.24878897
606,1778413379720,1.7555800666666665,1.1484917666666667,0.8158097933333334,4.679191800000001,3.3733276666666665,-5.0839545
607,1778413379730,1.7728351199999999,0.887576198,0.176278592,4.9475574,2.951843,-4.8404303
608,1778413379740,1.5781205444444444,0.55723104,-0.27813613444444446,4.395487311111111,2.5037611,-4.630434344444445
609,1778413379750,1.5230767,0.4947545,-0.33291575,4.237753,2.3757377,-4.5704355
610,1778413379760,1.30592074,0.3377849684,-0.368936156,4.0563313,2.34513425,-4.54221435
611,1778413379770,0.7192391666666667,-0.08269791533333332,-0.4578620922222222,3.152820277777778,2.206532977777778,-4.241528333333333
612,1778413379780,0.3020874333333333,-0.41763614555555556,-0.5003848833333334,2.2589047444444446,2.099499011111111,-3.6501602777777773
613,1778413379790,0.22513814299999999,-0.47646986599999996,-0.51272501,1.49576636,2.00428149,-2.98528691
614,1778413379800,0.21107939,-0.48606494000000006,-0.5159447,1.3434821,1.9817412000000003,-2.8386836
615,1778413379810,-0.0007104079999999985,-0.603071798,-0.347654415,0.745035115,1.6758899799999998,-2.1310781800000003
616,1778413379820,-0.058844898,-0.6434928444444444,-0.2277842833333333,0.3824158511111111,1.4266846888888889,-1.6212565222222224
617,1778413379830,-0.04645935044444444,-0.6703405555555555,0.03508334933333333,0.11751174000000002,1.2255123,-0.83075225
618,1778413379840,-0.0157143317,-0.676899224,0.1538199518,0.051540237,1.22606211,-0.448117538
619,1778413379850,-0.005366167000000001,-0.6795823088888889,0.17310969333333334,0.039798395411111104,1.2337248444444444,-0.3604592618733333
620,1778413379860,0.09817646566666667,-0.70610826,0.30787365333333333,0.040341371566666666,1.3295599333333332,0.30977591438
621,1778413379870,0.174824233,-0.705809464,0.357100117,0.09381086720000001,1.33790818,0.5533817859999999
622,1778413379880,0.3223765244444444,-0.6919746911111111,0.4200075711111111,0.33090104666666664,1.2088157666666666,0.8306250166666667
623,1778413379890,0.428866472,-0.67885058,0.42840916,0.64088566,1.03786004,1.036806292
624,1778413379900,0.44658092,-0.6764114,0.4265493,0.69170815,1.0104941,1.061118
625,1778413379910,0.4780360122222222,-0.6749207888888888,0.40611111111111114,0.9732408611111111,0.8910395133333334,1.106456488888889
626,1778413379920,0.54152548,-0.6828996399999999,0.29702953600000004,1.12883046,0.8547280199999999,1.11145188
627,1778413379930,0.45637148,-0.7554133022222222,0.07329696088888887,1.0899806111111112,0.9701102977777778,1.1207096222222221
628,1778413379940,0.34888554666666666,-0.8055551555555556,-0.0983153608888889,0.9119525344444445,1.0383894133333333,1.1977441555555555
629,1778413379950,0.309359528,-0.8217552939999999,-0.157426874,0.828904447,1.05404745,1.23899669
630,1778413379960,0.14886031,-0.8819823866666666,-0.4192114333333333,0.15585937644444445,1.0034353999999999,1.6426446777777777
631,1778413379970,0.1246292245,-0.899546441,-0.5513004300000001,-0.2579073528,0.92521982,1.88484555
632,1778413379980,0.24082706555555555,-0.8336767022222222,-0.64188705,-1.3133046155555557,0.7243460755555555,2.3415217777777775
633,1778413379990,0.36664743,-0.8103555333333333,-0.68902395,-1.9935170555555557,0.8081000111111112,2.513577111111111
634,1778413380000,0.3782538,-0.8098948,-0.6928758,-2.1549165,0.8382351399999999,2.549142
635,1778413380010,0.22477599288888886,-0.8190078133333334,-0.8594302177777778,-2.470147611111111,0.8485516688888889,2.642296222222222
636,1778413380020,0.07335793833333333,-0.75621282,-0.9514884266666667,-3.4332924444444446,0.3978397222222222,3.1965128888888885
637,1778413380030,0.3432334317,-0.202234364,-0.850174637,-4.27286118,-1.2001163864,4.472531760000001
638,1778413380040,0.918461422222222,0.19694916444444444,-0.6840372066666667,-4.439765122222222,-1.9072603333333333,4.944282288888889
639,1778413380050,1.1973259333333333,0.35712788666666667,-0.5697656266666667,-4.533292655555556,-2.5410652444444444,5.324517755555556
640,1778413380060,2.8892051000000003,1.34932258,0.3222688020000001,-4.228086020000001,-3.38030658,5.438067500000001
641,1778413380070,3.3906855333333334,1.7539606777777776,0.5610693155555556,-3.9836657,-3.5372129333333335,5.241289855555555
642,1778413380080,3.3104777333333337,2.6173986333333334,0.4818777066666667,-3.2363961000000003,-3.6870741333333337,3.9289187
643,1778413380090,2.6207505,2.77708274,0.49099207199999995,-3.2140797999999995,-3.5236723,3.5681117
644,1778413380100,2.451924866666667,2.794932777777778,0.6589035999999999,-3.2752866111111114,-3.300272,3.629196277777778
645,1778413380110,2.41015284,2.81174948,0.9584035199999998,-3.19862517,-2.82449662,3.6418407999999998
646,1778413380120,2.334350222222222,2.753971788888889,1.0813367555555555,-2.744129444444445,-2.6749679444444445,3.397413577777778
647,1778413380130,2.0642396555555553,2.5571310555555558,1.0513790555555556,-2.4110650333333337,-2.7078858333333335,3.2189104
648,1778413380140,1.4918859,2.1477899799999998,0.9263711000000001,-1.4699123,-3.06608676,2.8580627
649,1778413380150,1.2431519,1.9709990999999998,0.8707215,-0.8595808555555556,-3.415111288888889,2.8091678333333334
650,1778413380160,1.0253613666666666,1.7194668333333332,0.7631271444444444,-0.29512407799999996,-3.757932288888889,2.949934177777778
651,1778413380170,0.76678258,1.34595358,0.6481201000000001,0.28769378479999996,-4.00605838,3.17387084
652,1778413380180,0.7895921555555555,1.2880866777777777,0.6389735888888889,0.9044865999999998,-4.122608166666667,3.240901066666667
653,1778413380190,0.67702732,1.2503473,0.38327846,1.5543466599999998,-4.1276171999999995,3.15053642
654,1778413380200,0.63410544,1.2520005222222221,0.2927271037777778,1.6763939666666667,-4.093626911111111,3.1114693555555553
655,1778413380210,0.4972749266666667,1.2837639333333335,-0.01344590733333334,1.5758078333333332,-3.8355099666666663,3.0040959333333337
656,1778413380220,0.311396222,1.2387186199999998,-0.180236134,0.944904365,-3.2176990699999997,2.87125696
657,1778413380230,0.16089014644444444,1.2039185,-0.15085230555555557,0.013540444444444447,-2.4647093555555557,2.9000483
658,1778413380240,0.10577175044444445,1.2230252555555556,0.10987768777777779,-0.9058695333333334,-1.718576388888889,2.9197990444444444
659,1778413380250,0.1893708,1.2749829,0.283553135,-1.15086679,-1.5156800700000002,2.89580548
660,1778413380260,0.2685115933333333,1.3499975,0.5628173933333334,-1.6629806999999999,-0.9972336,2.2188772666666665
661,1778413380270,0.19892623199999998,1.37826946,0.762910392,-1.6552433199999999,-0.9100860599999999,1.8223558999999998
662,1778413380280,-0.19720663,1.4241076,0.9576168,-1.1115893,-0.8899281,1.0843302
663,1778413380290,-0.44758035111111105,1.4398536333333332,0.9078883333333333,-0.8815034888888889,-0.8627793444444445,0.949943811111111
664,1778413380300,-0.5002914199999999,1.50951484,0.88364607,-0.636350118,-0.793658592,0.8276522
665,1778413380310,-0.20981238888888887,1.7699338333333334,0.7924818888888889,-0.35617484777777775,-0.13329196088888887,0.5149527333333334
666,1778413380320,-0.025468968777777778,1.8362080333333333,0.678007,-0.43191991333333335,0.39677076466666666,0.0018579966666666763
667,1778413380330,-0.021537842199999997,1.8400524999999999,0.6304392,-0.497199132,0.74282083,-0.44042088799999995
668,1778413380340,-0.21847479333333333,1.6807857555555556,0.5586301444444444,-0.5398362733333334,1.0534570666666667,-1.2302464333333334
669,1778413380350,-0.23772727,1.6620482000000003,0.5534774,-0.5505261020000001,1.16827598,-1.59840406
670,1778413380360,-0.39748591,1.4590959555555556,0.5010285511111111,-0.6254227611111112,1.371572677777778,-2.040772811111111
671,1778413380370,-0.3638016966666667,1.4050515,0.55558117,-0.6960774077777778,1.5369765666666666,-2.210927688888889
672,1778413380380,-0.22228735,1.40241714,0.6134991719999999,-0.8053105,2.01985804,-2.4366697200000003
673,1778413380390,-0.013164723333333338,1.425049277777778,0.6519655355555556,-0.9568413244444444,2.6943963222222225,-2.7262027555555557
674,1778413380400,0.06422461666666666,1.4388780111111112,0.6700289266666667,-0.9955283022222221,2.8889342333333334,-2.8255841999999998
675,1778413380410,0.32511044,1.51933256,0.862196612,-0.99186324,3.35243676,-3.1927307
676,1778413380420,0.39126266444444446,1.569515688888889,0.9861177555555556,-0.9187651833333335,3.463936733333333,-3.3019094666666664
677,1778413380430,0.53163162,1.6852203,1.19080115,-0.55229754,3.4694750599999997,-3.37415236
678,1778413380440,1.1681169,2.1694795444444446,1.7234034111111112,0.36000112222222225,3.161092077777778,-3.461136988888889
679,1778413380450,1.3824688333333333,2.3149317666666667,1.8561110222222221,0.6474556555555555,3.0530993555555557,-3.5068826444444445
680,1778413380460,2.12359646,2.6709728299999997,2.14819244,1.87540792,2.9829121400000003,-4.07210626
681,1778413380470,2.6413567000000002,2.8288134333333335,2.2067988222222223,2.1819718000000003,3.124509,-4.326300233333333
682,1778413380480,2.473013677777778,2.5501656555555554,1.545608511111111,2.6434330222222227,4.2046229111111115,-5.346483188888889
683,1778413380490,2.08950012,2.2024637599999997,1.1879046,2.5858997199999996,4.38916672,-5.38635948
684,1778413380500,1.9840183,2.095582888888889,1.0967543,2.5375443888888887,4.4108179000000005,-5.272494111111111
685,1778413380510,2.10776318,1.9227828800000002,0.84237232,2.3640858,4.37768272,-4.58937188
686,1778413380520,2.2363397000000003,1.8667145666666667,0.7681443833333333,2.330611433333333,4.260074266666667,-4.408153666666667
687,1778413380530,2.2832835333333334,1.7673084,0.7179483666666667,2.3458147555555557,4.1174074888888885,-4.346933177777777
688,1778413380540,2.22334932,1.48417808,0.590558844,2.4204059,3.8033640000000006,-4.3022738
689,1778413380550,1.9446798444444444,1.1124666333333333,0.4088856466666667,2.406288522222222,3.6244536444444444,-4.161643044444444
690,1778413380560,1.4657969666666668,0.6338649166666666,0.14411410111111111,2.317851344444444,3.296768166666667,-3.747827922222222
691,1778413380570,1.31300956,0.512877488,0.058338770000000005,2.25291158,3.1937386,-3.5288187800000004
692,1778413380580,1.1152784833333333,0.37071267333333335,-0.04990129,2.2231023,3.1448708,-3.4281511
693,1778413380590,0.8128340350000001,0.15643289779999997,-0.188654308,1.9013079000000002,2.7013192,-2.6937599800000003
694,1778413380600,0.58936363,-0.013567865,-0.21284777,1.6537926,2.4582021,-2.2137105
695,1778413380610,0.4637025388888889,-0.10069354777777778,-0.21740090444444443,1.4442720222222223,2.3741088444444447,-1.872111122222222
696,1778413380620,0.336327563,-0.182928361,-0.230239048,1.22717693,2.32919122,-1.54251155
697,1778413380630,0.16324124,-0.29471233,-0.22723888,0.92383015,2.2645636,-1.0567658
698,1778413380640,0.10489094666666667,-0.3400537255555556,-0.17734436444444446,0.7419333944444444,2.1559684,-0.6365028222222222
699,1778413380650,0.083815865,-0.35683485,-0.145359095,0.684988844,2.08692908,-0.44811752999999993
700,1778413380660,0.07686424,-0.3908764533333333,-0.11115486000000001,0.6104654666666667,1.8937791666666668,-0.03537823999999999
701,1778413380670,0.09658490500000001,-0.406243218,-0.10019487,0.600569755,1.7495581699999998,0.178810264
702,1778413380680,0.21303074,-0.42237222,-0.06225972999999999,0.63612103,1.4063231,0.52845925
703,1778413380690,0.23093828000000002,-0.44399950666666665,-0.023537958666666668,0.7045359433333334,1.2059651666666666,0.6192718566666667
704,1778413380700,0.23989205,-0.45481315,-0.004177073,0.7565801400000001,1.07426649,0.676162094
705,1778413380710,0.30998083555555556,-0.45643923333333336,0.093816446,1.0419951333333333,0.6748674888888888,0.8372086111111111
706,1778413380720,0.3352668777777778,-0.4769790366666667,0.06106724833333334,1.1985756555555556,0.5232416,0.9254420888888889
707,1778413380730,0.35527074000000003,-0.518798494,0.0023659914000000006,1.24098202,0.355787984,1.0715024320000002
708,1778413380740,0.4160303955555556,-0.56492792,-0.030516685999999998,1.1917884666666665,0.2834501,1.1808441
709,1778413380750,0.46232882000000003,-0.59794647,-0.030535318,1.11832392,0.27381228,1.25976554
710,1778413380760,0.5593314,-0.608816,0.052442085,0.8812065666666666,0.34752118111111113,1.4388931333333332
711,1778413380770,0.5608490888888888,-0.6143447822222223,0.05894652944444444,0.8459131555555556,0.37120848666666667,1.4603406888888888
712,1778413380780,0.48382092,-0.695058846,-0.0130434457,0.761161475,0.47539187099999997,1.50813607
713,1778413380790,0.40173755555555557,-0.7685780511111111,-0.18702310155555557,0.6469805555555556,0.48435096666666666,1.5778269555555555
714,1778413380800,0.36313096,-0.8020894999999999,-0.29873693,0.5383855,0.4497363,1.6456989
715,1778413380810,0.31404949000000004,-0.8745158222222222,-0.48334123111111116,0.3792258622222222,0.32430899333333335,1.7383440555555554
716,1778413380820,0.2973784611111111,-0.9457530111111111,-0.6546215555555556,0.004403200000000002,0.05740267333333334,1.9529550777777775
717,1778413380830,0.299047926,-1.1131990999999999,-0.7946378000000001,-0.94531668,-0.335156622,2.4821167199999996
718,1778413380840,0.24968259555555555,-1.2419118888888887,-0.945949491111111,-1.6949483111111112,-0.49389545777777777,2.9438255555555553
719,1778413380850,0.22923085999999998,-1.2879816666666666,-1.0302329066666667,-2.2675157333333336,-0.6696158666666666,3.3644957333333334
720,1778413380860,0.332949304,-1.25909482,-0.98834727,-3.2453168500000005,-1.1669474,4.2611177
721,1778413380870,0.40055184,-1.2142883333333332,-0.9203280533333333,-3.817719,-1.5594167666666665,4.950280666666667
722,1778413380880,1.3848643600000001,-0.5806650099999999,-0.5566941059999999,-4.0795282,-2.16397226,5.9945954
723,1778413380890,2.07755,-0.16106632066666665,-0.5438529,-3.8836905999999995,-3.2936885,6.7103863
724,1778413380900,2.9771383444444446,0.44826801955555556,-0.4821284055555556,-3.8017013111111115,-3.719652544444445,6.745408166666667
725,1778413380910,4.2887627,1.564316892,-0.32406769,-3.6983595100000004,-4.574085269999999,6.45309737
726,1778413380920,4.876375477777779,2.3158024666666663,-0.32887420333333334,-4.247212533333333,-4.478800155555556,5.245243466666667
727,1778413380930,4.485681888888888,2.4010920000000002,-0.2732849111111111,-5.080544133333333,-3.868088666666667,4.269364133333333
728,1778413380940,3.4208643199999997,2.14712835,0.019196248,-6.028978499999999,-3.12912615,3.7653541700000006
729,1778413380950,2.9542577666666667,1.9970271333333334,0.32690932,-6.346567222222222,-2.934985277777778,3.746003877777778
730,1778413380960,2.8249820199999998,2.05202232,1.4223269200000002,-6.03181111,-3.3163508,4.01842819
731,1778413380970,2.9122263111111106,2.1659191333333334,1.6935203111111112,-5.419122688888889,-3.5040912222222222,3.920434711111111
732,1778413380980,2.780226666666666,2.2556261555555555,1.7672779555555556,-4.5891510888888885,-3.3775780666666666,3.4963708888888885
733,1778413380990,2.2952559,2.2286056,1.7536999000000002,-3.5774117199999997,-3.00072618,2.8715012
734,1778413381000,1.9551581555555555,2.1542110666666665,1.751071088888889,-3.2255195333333333,-2.8367747666666667,2.6807370222222224
735,1778413381010,1.3206224222222223,1.9842419555555553,1.8027948666666669,-2.4507022666666667,-2.574823088888889,2.462198111111111
736,1778413381020,1.07709025,1.93134755,1.80103495,-1.7612254,-2.36359715,2.2950294999999996
737,1778413381030,0.8653757,1.8774469333333335,1.6266193333333332,-0.7961885,-2.047687266666667,1.9232271666666665
738,1778413381040,0.579844808,1.76580424,1.31338156,0.128598618,-1.81829378,1.49787384
739,1778413381050,0.52932966,1.7428151,1.2541281,0.48585263,-1.7506119,1.3195064
740,1778413381060,0.12573904466666666,1.5036548333333333,0.7004575333333334,1.2299325333333333,-1.6380802666666667,0.8875695577777778
741,1778413381070,-0.12931242189999997,1.38040375,0.353435254,1.3524006400000002,-1.5887373999999999,0.784159924
742,1778413381080,-0.3600345566666666,1.3203548333333335,-0.03215973555555555,1.001747111111111,-1.3214577555555556,0.7383870777777778
743,1778413381090,-0.35934006999999996,1.3163167,-0.11195774666666668,0.5434759133333333,-1.0581147,0.7451063666666666
744,1778413381100,-0.34925818,1.3159915,-0.13424563,0.33741677,-0.9418501000000001,0.7495859
745,1778413381110,-0.2365720766666667,1.3611160444444446,0.05369893214444445,-0.6729331088888889,-0.23795045888888888,0.5320564533333334
746,1778413381120,-0.20667059599999998,1.3559511,0.15801531519999998,-1.107313348,0.12920947,0.30769904800000003
747,1778413381130,-0.19785707111111112,1.3248537555555555,0.3856221022222222,-1.4223069444444443,0.48643804000000007,-0.10369131444444445
748,1778413381140,-0.1864743,1.3185119333333333,0.6276687400000001,-1.4185061,0.7755894,-0.6179058944444444
749,1778413381150,-0.184913236,1.3144243,0.761696876,-1.30296772,0.853200929,-0.76050481
750,1778413381160,-0.30655581777777774,1.2301598444444446,0.9329236455555555,-0.4939548555555555,1.2063724588888889,-1.4227990000000001
751,1778413381170,-0.36420823333333335,1.1946937,0.9074919533333333,-0.34209992333333333,1.260127,-1.5324121666666666
752,1778413381180,-0.462533086,1.09755798,0.72307878,0.128384824,1.4226938,-1.7978456999999999
753,1778413381190,-0.43263701666666665,1.0331395666666667,0.5611912733333333,0.43413423333333334,1.6315221333333332,-1.9840319000000004
754,1778413381200,-0.38142468,1.02645626,0.515097116,0.48463094,1.6983080999999998,-2.0243478
755,1778413381210,-0.18273424666666668,1.0968221666666667,0.5031899133333333,0.4459439444444444,2.319471833333333,-2.249546844444444
756,1778413381220,-0.07862586111111111,1.1482885666666667,0.5487210388888888,0.4108541611111111,2.6561166333333333,-2.3735488
757,1778413381230,0.1587684058,1.26476585,0.640159345,0.45323338399999996,3.0065444799999996,-2.58551794
758,1778413381240,0.37345673333333335,1.3777226666666667,0.7354392666666666,0.6756903622222222,3.2336472222222223,-2.9651969222222223
759,1778413381250,0.45327337700000003,1.4184943799999998,0.773731115,0.75438106,3.22269268,-3.06652968
760,1778413381260,0.6750664666666667,1.5570115666666666,0.9325781444444444,1.0681936555555556,3.1215906444444443,-3.422042733333333
761,1778413381270,0.7638453799999999,1.6556148333333334,1.0549904333333333,1.4341590999999998,3.0561621666666667,-3.747692288888889
762,1778413381280,0.77434397,1.6671704000000003,1.0698795,1.77510684,3.00614746,-3.8358917900000002
763,1778413381290,1.5582615555555557,2.2912110444444442,1.4663389444444443,1.9704150333333332,3.0302351666666665,-3.874476933333333
764,1778413381300,1.6072887999999999,2.3233979,1.4852391,2.0978785,3.1161609,-3.8911734000000004
765,1778413381310,2.5733751555555555,2.7233872,1.653009711111111,2.287852011111111,4.005486655555556,-4.606747
766,1778413381320,2.5378208666666664,2.6876059666666667,1.6046667666666667,2.3473758111111116,4.165664366666666,-4.883596455555556
767,1778413381330,2.1533512999999997,2.3517104,1.50672812,2.50951332,4.03658564,-5.0694978200000005
768,1778413381340,1.8963809666666667,1.9954009333333333,1.5647965333333334,2.775384466666667,3.796237666666667,-4.915157166666667
769,1778413381350,1.9151726777777778,1.9040202222222224,1.6031592222222222,2.8948390111111113,3.7190672888888887,-4.754164944444444
770,1778413381360,2.1832798799999997,1.7702251,1.47932412,3.50498038,3.4478509599999994,-4.1275713000000005
771,1778413381370,2.3551950666666666,1.6408917444444446,1.3621188222222222,3.7494144666666664,3.3466538999999997,-3.9445885555555558
772,1778413381380,2.3370267,1.4251623800000002,1.02163889,3.9225557199999996,3.35207008,-3.76411726
773,1778413381390,2.1401655555555554,1.1019511555555555,0.51183204,3.8648646111111113,3.330636177777778,-3.6739833111111113
774,1778413381400,1.949097488888889,0.9301525288888889,0.3008237977777778,3.7816536000000003,3.2819041666666666,-3.618328333333333
775,1778413381410,1.46677774,0.5835462419999999,-0.05933882600000001,3.4123760400000003,2.96247178,-3.3570486
776,1778413381420,1.2143052555555556,0.4130186688888889,-0.22029402222222222,3.1909642999999996,2.764669366666667,-3.1620253333333332
777,1778413381430,0.8329889666666666,0.15719751777777777,-0.38174651111111113,2.6785313444444445,2.411777666666667,-2.6654744
778,1778413381440,0.6598739,0.0540092472,-0.39402297799999997,2.34437839,2.22027699,-2.3115682200000003
779,1778413381450,0.59650842,0.022043967866666667,-0.3818820333333333,2.0993039000000002,2.0933226,-2.0457275
780,1778413381460,0.48744919600000003,-0.029007788880000003,-0.320597968,1.5154967400000001,1.83587092,-1.41777646
781,1778413381470,0.46000652999999997,-0.049698022,-0.27489408333333337,1.3526448333333334,1.7743925222222223,-1.2433456555555555
782,1778413381480,0.3820853166666667,-0.07427262766666667,-0.18559009333333332,1.06391774,1.6801863,-0.9058864999999999
783,1778413381490,0.29254145200000004,-0.10456098,-0.075687342,0.9513182600000001,1.6439426999999998,-0.7715001
784,1778413381500,0.27585619111111115,-0.11325864111111111,-0.04710301922222222,0.8588088511111112,1.5060948333333333,-0.5101932333333333
785,1778413381510,0.2501365366666667,-0.14155297444444445,0.0731648408888889,0.8610485944444446,1.3151711,-0.23524407500000002
786,1778413381520,0.236849182,-0.15327724,0.11467132799999999,1.02156564,1.0758547,0.027289600000000004
787,1778413381530,0.21156723111111111,-0.19949333777777778,0.08096000777777777,1.2497511111111113,0.8269005222222223,0.26749171555555556
788,1778413381540,0.20239595600000002,-0.231263496,0.0199279916,1.37610148,0.67074086,0.447460884
789,1778413381550,0.19991342666666667,-0.2483241011111111,-0.024245994333333337,1.4064673555555556,0.6021087888888889,0.5473954888888889
790,1778413381560,0.20194606666666667,-0.27766525111111107,-0.11179852244444444,1.3830515111111112,0.44437442222222223,0.7711692333333333
791,1778413381570,0.217226086,-0.283687286,-0.14231317599999999,1.34384872,0.37142568000000004,0.8649139
792,1778413381580,0.29872677000000003,-0.2918937388888889,-0.22078522888888888,1.1937567111111111,0.3111418555555556,0.9996260333333333
793,1778413381590,0.36222641333333333,-0.29389926666666666,-0.27360336333333335,1.0124029600000002,0.2746267533333333,1.0704843
794,1778413381600,0.40529194,-0.29115113400000003,-0.299907752,0.917660566,0.25762483199999997,1.08793418
795,1778413381610,0.5000562555555556,-0.2795894711111111,-0.2927745577777778,0.5370959355555556,0.08941276822222223,1.0091960222222223
796,1778413381620,0.48651620900000003,-0.323637775,-0.231053117,0.420003316,-0.11818366760000001,0.91219352
797,1778413381630,0.42641378,-0.38570340555555555,-0.1931006988888889,0.3930038688888889,-0.3179035822222222,0.8591991
798,1778413381640,0.38193962000000004,-0.42443195888888885,-0.18327628333333335,0.38506285222222225,-0.4476068255555556,0.8317788166666666
799,1778413381650,0.31943937,-0.48275679999999993,-0.27920837,0.280241454,-0.548220142,0.86161533
800,1778413381660,0.2264495311111111,-0.5524373888888889,-0.47490236444444445,-0.14432963555555556,-0.6617427111111112,0.9913456666666666
801,1778413381670,0.20110590666666667,-0.5721166888888889,-0.5505707311111112,-0.22280654,-0.6675797,1.0146936
802,1778413381680,0.193322254,-0.5778080720000001,-0.5738322520000001,-0.42841773199999994,-0.72377764,1.07663354
803,1778413381690,0.20923646111111113,-0.5624142622222222,-0.5401771622222222,-1.5375534333333334,-1.033273577777778,1.4150701
804,1778413381700,0.15177715,-0.60308395,-0.48702535,-1.7706934999999997,-0.9684219800000001,1.47160735
805,1778413381710,-0.12253764333333332,-0.7475131266666666,-0.5170931666666667,-2.040620088888889,-0.9265789377777778,1.6590017222222222
806,1778413381720,-0.3566637611111111,-0.8220499955555556,-0.6253041111111111,-2.1057092,-0.9861704666666667,1.8176863111111112
807,1778413381730,-0.66960308,-0.797220322,-0.8775786419999999,-2.2817894799999996,-1.9675236600000001,3.16835021
808,1778413381740,-0.16375956,-0.45164222,-1.1050645,-2.5852243555555554,-3.0073960444444445,4.587886966666667
809,1778413381750,0.06748699777777778,-0.33905434733333334,-1.1109252777777776,-2.8591893,-3.410495911111111,5.069811722222222
810,1778413381760,1.7037274400000002,0.4485932428,-0.95177502,-3.57533474,-4.052971439999999,5.6549644
811,1778413381770,2.8216583666666666,1.0936512,-0.62828868,-4.1927791,-4.162109733333334,5.5055917333333335
812,1778413381780,3.34996965,1.7763139899999998,-0.35799648900000003,-5.05040886,-3.6261116,4.40645352
813,1778413381790,3.0228389,2.0757104666666666,-0.15793603733333333,-5.957160866666666,-3.10005,3.693946133333333
814,1778413381800,2.746735466666667,2.099868433333333,0.13744704266666666,-6.471587511111112,-2.7747229333333334,3.4456028111111108
815,1778413381810,2.6151342399999997,2.06950482,1.09505166,-6.944600200000001,-2.01119926,3.2579233000000003
816,1778413381820,2.5774369333333333,2.112064166666667,1.46848,-6.600001133333333,-1.9306082333333332,3.103053233333333
817,1778413381830,2.4886715,2.2507173333333332,1.8678223222222223,-5.254253566666667,-2.2627055,2.8033308
818,1778413381840,2.35775039,2.3086895400000005,1.93821663,-3.88136928,-2.63357636,2.45082618
819,1778413381850,2.1533777333333335,2.2815050666666665,1.8495184,-2.7338300222222225,-2.8672491777777775,2.101526777777778
820,1778413381860,1.57662549,2.13562167,1.4950261900000001,-1.6791274999999999,-2.99577823,1.91160071
821,1778413381870,1.3784442333333333,2.0586973,1.3074949666666666,-1.1236026222222224,-2.9434692666666664,1.9276388444444446
822,1778413381880,1.2063204,1.9797802,0.9405122,-0.7139277333333334,-2.5760956,1.9120283333333334
823,1778413381890,1.0593971899999999,1.90239149,0.7268076600000001,-0.52242708,-2.1173646,1.78094048
824,1778413381900,0.969612811111111,1.8485902333333333,0.6089176511111112,-0.5589082444444444,-1.8442751111111113,1.6322602444444445
825,1778413381910,0.6277364733333334,1.585675211111111,0.33960653111111117,-0.7112807444444444,-1.5568374999999999,1.4079435777777778
826,1778413381920,0.318610068,1.33233996,0.241386038,-0.865051338,-1.44934198,1.2661184
827,1778413381930,0.13567526444444444,1.1511579777777776,0.23568786666666666,-0.96485015,-1.4446452777777778,1.2005269333333333
828,1778413381940,-0.054811122000000004,0.956375937,0.290379749,-1.0271702,-1.47854054,1.13955078
829,1778413381950,-0.09066924666666668,0.9242036655555554,0.29789001,-1.0290570222222222,-1.4756627555555555,1.1148726111111111
830,1778413381960,-0.20847762555555557,0.8060971733333333,0.3348840633333333,-1.0453462666666666,-1.4010036444444445,1.1050991
831,1778413381970,-0.222134908,0.7859056280000001,0.390004476,-1.04305227,-1.25851337,1.08255878
832,1778413381980,-0.22864476555555557,0.7922684333333333,0.4948730411111111,-0.9532441444444445,-1.1443120666666666,1.0296932666666665
833,1778413381990,-0.212927052,0.8254139800000001,0.576801958,-0.80983075,-1.10097585,0.9667420999999999
834,1778413382000,-0.20208496,0.8466957,0.62375593,-0.5333205400000001,-1.0733859,0.8436564333333334
835,1778413382010,-0.19918168666666666,0.9084540999999999,0.6930959822222222,0.05558710666666668,-0.9890889666666668,0.5577799
836,1778413382020,-0.2179548,0.9657728000000001,0.687082735,0.30479751,-0.895059204,0.42046143999999996
837,1778413382030,-0.22372240333333332,1.0315032333333334,0.52954309,0.4082071711111111,-0.47984596777777777,0.2236464511111111
838,1778413382040,-0.21070334333333332,1.0701539000000002,0.4248520333333333,0.37508566666666665,-0.044108260666666656,0.013464093333333335
839,1778413382050,-0.2247814,1.07018436,0.39586457199999997,0.338638445,0.2485308388,-0.178672824
840,1778413382060,-0.3421541,0.9943263000000001,0.41728044,0.41621605,0.7521057,-0.75561804
841,1778413382070,-0.39943387333333336,0.9513766599999999,0.40280805333333336,0.5150375466666666,0.8566284555555556,-0.9062258555555555
842,1778413382080,-0.48054632999999997,0.91965732,0.323326795,0.674726612,0.9715220200000001,-1.106610932
843,1778413382090,-0.5073127888888889,0.9239461777777778,0.23356715888888888,0.70005642,1.0273941666666666,-1.1960389666666666
844,1778413382100,-0.3785383333333333,0.9847322666666667,0.1895131,0.68498886,1.0966235,-1.2962179
845,1778413382110,-0.24675219999999998,1.04253035,0.27538191999999995,0.477606205,1.5822471500000002,-1.6080554
846,1778413382120,-0.16149316,1.1115485666666667,0.34057882,0.24789368888888885,2.276373288888889,-1.970457477777778
847,1778413382130,-0.21345758799999998,1.1554881399999999,0.30020043999999996,0.096437506,2.60083495,-2.1284972499999997
848,1778413382140,-0.3306866377777778,1.2429959444444445,0.3376484222222222,-0.27838514755555555,3.1553145000000002,-2.334997488888889
849,1778413382150,-0.33833274,1.2988257333333335,0.45308538,-0.34477236666666666,3.2352761,-2.3130748666666663
850,1778413382160,-0.074888508,1.64429102,0.983612222,-0.24096396599999997,3.1467033,-2.11402018
851,1778413382170,0.3453047,2.0276283999999998,1.3361247333333333,0.14764687666666668,2.8514095,-2.0048007
852,1778413382180,1.4668335711111111,2.718021088888889,1.962499311111111,1.0201403044444446,2.4011218444444444,-2.3242737
853,1778413382190,2.0944955,2.9044614444444448,2.442046266666667,1.573296511111111,2.706477555555556,-2.9516732666666665
854,1778413382200,2.0552662699999997,2.84745878,2.51907681,1.8255629,3.0647887000000003,-3.2874119199999994
855,1778413382210,1.4406769333333331,2.482987011111111,2.432252488888889,2.7250151222222225,4.644636833333333,-3.8945670666666663
856,1778413382220,1.2996184666666666,2.3697013000000005,2.33598,3.0188411000000004,4.753638666666666,-3.691358433333333
857,1778413382230,1.57656764,2.28163308,2.31142158,3.9123547299999997,4.3512331,-3.18466748
858,1778413382240,1.931454266666667,2.211307866666667,2.2895339000000003,4.790747777777778,3.8874575000000005,-2.9060124666666667
859,1778413382250,2.0670414222222226,2.189152155555556,2.236282077777778,5.19747,3.6561499000000004,-2.848457
860,1778413382260,2.8073528,2.01831292,1.41149702,6.26828569,3.16215772,-3.04124051
861,1778413382270,2.8809877999999998,1.8934370444444444,1.0605022888888889,6.235842822222222,3.2126748000000003,-3.2648514
862,1778413382280,2.5124432999999997,1.4582761666666668,0.27622547399999997,5.689609533333334,3.3877843999999997,-3.7510858000000002
863,1778413382290,1.87552408,1.02885278,-0.1991640738,4.827487710000001,3.53208695,-3.94431718
864,1778413382300,1.7624809,0.9609098,-0.25553322,4.5639453,3.5663554999999993,-3.957145
865,1778413382310,1.1335789777777778,0.5106869777777778,-0.1891810977777778,3.2374566111111114,3.612915588888889,-3.489778888888889
866,1778413382320,0.9385364900000001,0.32979971999999996,-0.077541106,2.7354963,3.5612853,-3.16988503
867,1778413382330,0.7250524766666666,0.13521112666666665,-0.015813929666666664,2.5254970333333335,3.405498866666667,-2.7977059
868,1778413382340,0.4654235,-0.0740134646,-0.08540742194999999,2.3825333800000004,3.0907497,-2.30643724
869,1778413382350,0.44511744,-0.089730844,-0.09448722,2.3338692,2.9607766666666664,-2.1357257666666665
870,1778413382360,0.27220421777777776,-0.21884746,-0.1956313311111111,2.112674533333333,2.5710052,-1.657500088888889
871,1778413382370,0.26252750799999997,-0.23453197399999998,-0.204444856,1.9708222800000001,2.38563346,-1.44685286
872,1778413382380,0.3316250377777778,-0.23657544444444445,-0.14241684722222223,1.7878396222222221,2.1911939444444446,-1.265336188888889
873,1778413382390,0.3825358711111111,-0.23679227333333333,-0.051940700111111106,1.487574288888889,1.9309051333333334,-1.0818104666666666
874,1778413382400,0.388351932,-0.24153544,-0.0218610317,1.4563057000000001,1.90434687,-1.07295318
875,1778413382410,0.30432330444444444,-0.32628259444444446,0.12138580444444447,1.316672711111111,1.7563385777777778,-1.0392548222222222
876,1778413382420,0.23789666111111116,-0.3734974133333333,0.15803090333333333,1.3081887333333333,1.7437143666666666,-0.9931697444444444
877,1778413382430,0.17981740111111114,-0.4104304688888889,0.17435299444444444,1.3229169666666667,1.7418818666666667,-0.9293022666666667
878,1778413382440,0.075601976,-0.48259522600000004,0.166168236,1.3837981000000001,1.7398458,-0.7187228959999999
879,1778413382450,0.043925329,-0.51119852,0.12590165933333333,1.4045669,1.7369951333333333,-0.5572963266666666
880,1778413382460,-0.013307009888888888,-0.5644468733333333,-0.003767156666666666,1.339817,1.6720417,-0.1331647
881,1778413382470,-0.017397357,-0.562831632,-0.0196413896,1.2953474,1.60875792,-0.005260920499999997
882,1778413382480,0.05326530433333334,-0.53493978,0.006717871666666665,1.2249778,1.4411414333333334,0.214076515
883,1778413382490,0.13957114666666667,-0.50468394,0.07107122133333334,1.193349488888889,1.2503534666666667,0.39081498666666664
884,1778413382500,0.16494864,-0.49630946,0.09613366,1.1926029,1.2352859,0.40262469999999995
885,1778413382510,0.2335468222222222,-0.47498028888888894,0.11415639333333333,1.1995937111111112,1.1949020666666668,0.4746368088888889
886,1778413382520,0.225336306,-0.47538140799999995,0.094554298,1.16725275,1.23895095,0.51166093
887,1778413382530,0.12918436666666666,-0.4851705788888889,0.017565387666666668,1.0005932666666668,1.3704867666666667,0.6058332133333333
888,1778413382540,0.05163919333333333,-0.4939515633333333,-0.061294227666666666,0.8032895999999999,1.4749416,0.7459208666666667
889,1778413382550,0.02561125,-0.4970411699999999,-0.091316305,0.7099657177777777,1.5018867333333334,0.8201727444444445
890,1778413382560,-0.0011982407,-0.529558341,-0.1543474225,0.255807567,1.55292646,1.1543333500000001
891,1778413382570,-0.010627314555555555,-0.5442831022222222,-0.18076258444444443,0.16821207,1.5675868,1.2126082
892,1778413382580,-0.08564523733333333,-0.6639140777777777,-0.2824216422222222,-0.3829673026666667,1.6797790666666668,1.5677140666666667
893,1778413382590,-0.154978555,-0.72583502,-0.324607355,-0.6644490949999999,1.8110094,1.80635175
894,1778413382600,-0.2172078,-0.77989304,-0.36511275,-0.83487546,1.9121046000000002,1.9737239
895,1778413382610,-0.38698736333333333,-0.8930806055555556,-0.7298393422222222,-1.6155383111111112,2.0135053777777774,2.9821308444444443
896,1778413382620,-0.19269417500000002,-0.77562455,-0.893482,-2.1661560399999997,1.99994456,3.6871045199999997
897,1778413382630,0.5634068600000001,-0.48769104,-1.0356802433333334,-3.1213276666666667,1.6858875333333332,4.323322066666666
898,1778413382640,1.074768,-0.30709107333333335,-0.9938688766666667,-3.942806822222222,1.1904225055555555,4.554833444444444
899,1778413382650,1.4632866,-0.1829375,-0.81928563,-4.300899,0.9097042700000001,4.5760098
900,1778413382660,1.82750589,0.17173866919999997,-0.399285482,-4.8799823,0.4051139,4.75388824
901,1778413382670,2.0717805888888887,0.37046537777777777,0.004061888888888883,-5.264544777777778,0.02803958333333334,5.112808666666667
902,1778413382680,2.95703826,0.882899056,1.359170776,-4.60803308,-0.0292443132,5.615122
903,1778413382690,3.187089688888889,1.04075175,1.6910878222222223,-4.250131,0.028854049333333336,5.706017666666667
904,1778413382700,3.2409208,1.1048815,1.7558951,-4.110315,0.06604786,5.707375
905,1778413382710,3.0657459200000003,1.51722567,1.14378015,-1.162808886,-0.151169427,5.4828885
906,1778413382720,2.8667221333333335,1.7401421666666665,0.47879827,0.20710268,-0.3196003766666667,5.3836259
907,1778413382730,2.7835872,1.8582589,-0.18811055666666668,0.6440621,-1.0377531,5.213734
908,1778413382740,2.80413312,1.97163932,-0.508328456,0.480232844,-1.0982269800000002,5.0095889200000006
909,1778413382750,2.8073081555555555,2.0029215555555555,-0.5920298222222222,0.2504728177777778,-1.0979555,4.7718200444444445
910,1778413382760,2.4857683666666666,1.8184259,-0.5749556244444444,-0.6717623033333333,-0.6760637111111111,4.102399233333333
911,1778413382770,2.1229408899999997,1.6221190499999998,-0.394492539,-1.1927098090000001,-0.417804269,3.8520332799999997
912,1778413382780,1.6972534333333333,1.3764827777777777,0.08281987333333334,-1.4445011,-0.39412373777777776,3.711389033333333
913,1778413382790,1.5295641111111111,1.2990629222222223,0.4690890488888889,-1.2275145888888888,-0.5507042444444444,3.7092172555555556
914,1778413382800,1.4641646400000001,1.2922582999999999,0.744555672,-0.72186878,-0.742347384,3.71410414
915,1778413382810,1.4436106666666666,1.4158753000000002,0.9219034266666666,0.27732464,-0.88239432,3.6025226666666663
916,1778413382820,1.4015554000000001,1.4515074333333333,0.8611376933333333,0.7029070066666666,-0.8805618000000001,3.487479733333333
917,1778413382830,1.10817443,1.44288906,0.571057729,1.5680296200000001,-0.6521863600000001,2.9985574799999997
918,1778413382840,0.8899875555555555,1.4344604333333333,0.32036422555555555,1.7696499555555556,-0.48758338333333334,2.7949147111111112
919,1778413382850,0.7347562799999999,1.43835226,0.1161287234,1.7650890000000001,-0.290320438,2.63079708
920,1778413382860,0.596061211111111,1.5316746222222222,-0.11727309294444445,1.4282542444444444,0.08254074333333333,2.3835345
921,1778413382870,0.6067630333333333,1.6250338666666666,-0.19859897666666668,1.1315181333333333,0.3016821833333333,2.2217277666666666
922,1778413382880,0.5737072249999999,1.6790735900000002,-0.16760734400000002,0.49147240600000003,0.707819252,1.7706781800000002
923,1778413382890,0.4209595133333333,1.6649479999999999,0.09493778777777777,0.13176484333333333,0.9864673666666666,1.3465873333333334
924,1778413382900,0.3250494533333333,1.6542428,0.22864139,0.14805410666666668,1.0762618999999998,1.1205738333333333
925,1778413382910,0.206249832,1.6533647200000001,0.419493982,0.7476617539999999,0.96150414,0.70853702
926,1778413382920,0.21097775111111114,1.6573866555555556,0.4422988377777778,1.0675149166666666,0.8573750511111111,0.5348392044444444
927,1778413382930,0.20125157999999999,1.6624548333333333,0.3954803966666667,1.8470238666666665,0.7462008466666666,-0.046195320000000005
928,1778413382940,0.051371558888888884,1.6965184333333334,0.018862889555555557,2.1500041333333337,0.7307260499999999,-0.37953974
929,1778413382950,0.049624846,1.7341439399999998,-0.09370059319999999,2.1366674,0.730420625,-0.7629482000000001
930,1778413382960,0.22553485777777776,1.854064911111111,-0.02108185511111111,1.7436550666666666,0.8387102422222221,-1.2411058777777777
931,1778413382970,0.31350304100000004,1.89859857,0.2155522276,1.53406655,0.9952228699999999,-1.62668625
932,1778413382980,0.26120086555555555,1.8224302000000003,0.7625139488888889,1.4249285,1.3568444666666668,-2.3578704666666663
933,1778413382990,0.23060288333333334,1.7660787333333332,1.1931285666666667,1.6326165333333333,1.6266353333333334,-2.8388618333333335
934,1778413383000,0.283998282,1.7436201199999999,1.42936693,1.9318502800000001,1.79836488,-3.0771584400000003
935,1778413383010,0.7727754022222223,1.8713186000000002,1.7344744888888888,2.510310755555556,2.0611514222222223,-3.4620871555555555
936,1778413383020,1.4962457666666669,2.129301,2.0999904,3.024813866666667,2.531911066666667,-4.340757
937,1778413383030,1.6808602000000001,2.24555775,2.4759371999999997,3.40455725,2.9860124000000003,-5.0725901
938,1778413383040,1.7063596666666667,2.3605950333333334,3.101644466666667,4.152845233333333,3.4209738,-5.681642833333333
939,1778413383050,1.7371135,2.395902,3.29754,4.517467659999999,3.54925171,-5.8065000300000005
940,1778413383060,2.6452084666666664,2.5083474444444445,3.9499628333333336,6.4174679333333335,4.2925848,-6.074960755555555
941,1778413383070,3.0439445666666667,2.4949761111111113,3.8468234666666663,7.398785466666666,4.591153233333333,-6.295137166666667
942,1778413383080,3.73474237,2.2980853,2.81864926,8.87918428,4.3757281,-7.36446605
943,1778413383090,3.7945101333333335,2.0063976,1.6750265999999998,9.211763444444445,4.023812199999999,-8.213375555555556
944,1778413383100,3.7217111999999997,1.8987694,1.3014784,9.131403,3.8302414000000002,-8.585076
945,1778413383110,3.7379559,1.8773412600000001,0.9755264,7.3222185600000005,4.077818,-8.90363275
946,1778413383120,4.093338388888889,1.9241807111111113,1.3206190666666666,5.595742677777778,4.438170388888889,-9.21479188888889
947,1778413383130,3.7817358,1.50782587,1.7784056,4.82986995,4.759340180000001,-9.4789904
948,1778413383140,3.1332927,0.9623732,2.1285388,4.231644,5.0055113,-9.295492
949,1778413383150,3.0440598333333337,0.85328148,2.178003133333333,4.2040880000000005,5.048542122222222,-9.17658022222222
950,1778413383160,2.61704298,0.38225400800000003,2.0895061200000002,4.079298799999999,5.34331,-8.170066600000002
951,1778413383170,2.3669876666666667,0.16578203333333333,1.8757091000000001,4.0386165,5.4448463333333335,-7.765209166666667
952,1778413383180,2.028451677777778,-0.11773722777777776,1.5624319666666666,3.964500433333334,5.526156933333334,-7.1480839
953,1778413383190,1.49790446,-0.472442224,1.0986189400000002,3.8430232799999997,5.5142250399999995,-6.4329852
954,1778413383200,1.2331308555555553,-0.6187183733333333,0.8781609555555555,3.760341733333333,5.479936144444444,-6.010949044444444
955,1778413383210,0.6130632200000001,-0.905955284,0.33923321000000006,3.4893428799999997,5.17239482,-4.74183924
956,1778413383220,0.4578248222222222,-0.9481650333333332,0.17749003333333335,3.419828433333333,5.0877720222222225,-4.4604151000000005
957,1778413383230,0.09747181222222222,-0.9544120111111112,-0.14080766666666666,2.908752711111111,4.490974188888889,-2.9470072666666667
958,1778413383240,-0.0120738756,-0.910699428,-0.2002312,2.7410549200000003,4.21556376,-2.45392622
959,1778413383250,-0.020763407,-0.9009366599999998,-0.19988972,2.6611562,4.0696936,-2.2137105
960,1778413383260,0.025909371,-0.8137297155555555,-0.10949148688888889,2.5685448666666666,3.7843600444444445,-1.8157095222222221
961,1778413383270,0.2090670802,-0.625777347,-0.0008354148000000005,2.28015542,2.77440718,-0.50040608
962,1778413383280,0.5442086,-0.47310685999999996,0.11150040499999998,2.0108667444444444,2.1386610555555556,0.03508978222222223
963,1778413383290,0.64825429,-0.430400133,0.16103683249999998,1.8001516000000002,1.9303078599999999,0.159018806
964,1778413383300,0.6950676555555556,-0.40889922777777776,0.18373022777777778,1.6850815555555556,1.895272377777778,0.17769715777777778
965,1778413383310,0.6358094333333333,-0.40502363666666663,0.11270982333333333,1.1535087333333331,1.9921255000000002,0.18821730666666667
966,1778413383320,0.561288816,-0.41542668000000005,0.031099376,0.9673224999999999,2.0491786000000003,0.197685438
967,1778413383330,0.38522910666666665,-0.4731238355555555,-0.14673280444444445,0.0012725777777777712,2.2643599444444447,0.33963956
968,1778413383340,0.24137925555555556,-0.5414238777777778,-0.2492184666666667,-0.9006433888888888,2.4166645666666664,0.5332102555555556
969,1778413383350,0.186120611,-0.5758384679999999,-0.251944585,-1.2459757,2.4655323,0.6200863
970,1778413383360,-0.005945466000000001,-0.6974899133333333,-0.07949650866666666,-2.1849158777777777,2.3994251,0.9940605888888887
971,1778413383370,-0.06235119680000001,-0.710736612,0.10529272440000001,-2.65959845,2.1954766599999997,1.3694126199999999
972,1778413383380,-0.027921683444444442,-0.6923235933333333,0.30926262666666665,-2.8123917222222223,1.9543209777777777,1.6852002888888888
973,1778413383390,0.011403104777777777,-0.6545707088888889,0.3845617411111111,-2.8136812,1.8304546888888886,1.865536022222222
974,1778413383400,0.0309774165,-0.595263395,0.43046718500000003,-2.7651528,1.7856592,1.99937945
975,1778413383410,0.04918986266666667,-0.45741490333333323,0.45137794666666664,-2.6582546000000002,1.7901387333333334,2.1968867
976,1778413383420,0.06383841166666666,-0.36785343555555555,0.41350311111111115,-2.6332777333333333,1.9707459111111112,2.39867
977,1778413383430,0.279668762,-0.16225337,0.25002678,-2.71970576,2.19321658,2.5521962
978,1778413383440,0.5341741444444446,0.023897056666666656,0.11199162977777778,-2.802210888888889,2.3586340333333333,2.592919355555556
979,1778413383450,0.6833021,0.13235529,0.041221917,-2.8347895,2.4197187,2.5521963
980,1778413383460,0.6833021,0.13235529,0.041221917,-2.8347895,2.4197187,2.5521963
981,1778413383470,0.8735130288888889,0.3578291588888889,-0.13961857955555557,-2.7506961666666667,1.9819448333333334,2.2343520333333333
982,1778413383480,0.996747161,0.590760095,-0.340699776,-2.61610615,0.93444363,1.7373260000000001
983,1778413383490,1.0866996444444446,0.6828752133333333,-0.4676356888888889,-2.8512738888888887,0.4723376411111111,1.6957883777777778
984,1778413383500,1.1313059,0.6882922066666668,-0.53669798,-3.137438866666667,0.4994185333333333,1.7383440666666667
985,1778413383510,1.17397095,0.65339178,-0.580613135,-3.9594355,0.7371399500000001,1.8830131
986,1778413383520,1.2033019333333332,0.6866660866666667,-0.41091827666666664,-4.6160285,0.8983018,2.1238565555555557
987,1778413383530,1.2180284,0.7090353,-0.34730685,-4.8329473,0.9194777999999999,2.2473834
988,1778413383540,1.9061580555555555,0.9507803844444445,0.08677673744444443,-4.537296944444445,-0.12110895444444442,2.614137866666667
989,1778413383550,2.484680988888889,1.1523639333333333,0.49704796777777777,-4.060292977777777,-0.9974372222222221,2.8205024222222224
990,1778413383560,3.1341218,1.45280424,0.973855582,-2.16196402,-1.79104998,2.67915318
991,1778413383570,3.1898845,1.5502428666666666,0.8762299611111111,-1.5194315777777778,-1.7968326444444445,2.6094801666666667
992,1778413383580,3.1239931666666667,1.8085235888888889,0.5401331277777778,-0.9903021311111111,-1.4904588222222221,2.518735411111111
993,1778413383590,2.98064645,1.97403291,0.311774286,-0.49603850400000005,-1.137076905,2.38665664
994,1778413383600,2.7696738,2.0266426,0.14641099,-0.19715095,-0.96261895,2.2669306
995,1778413383610,1.7776067400000002,1.8442813399999998,-0.535299501,0.5506024789999999,-1.09095797,2.12594704
996,1778413383620,1.4417541555555555,1.7135620333333332,-0.8005006055555556,0.6937443333333334,-1.4065012666666667,2.287903
997,1778413383630,1.2242888666666667,1.6026544999999999,-1.0232303833333334,0.55182414,-1.9703132,2.6510007333333334
998,1778413383640,1.1517745,1.5464926499999998,-1.0610222500000002,0.36551573,-2.3581376,2.86502635
999,1778413383650,1.1269492222222222,1.528286933333333,-0.9462849022222222,0.16827993777777778,-2.596168711111111,2.9747752888888885
1000,1778413383660,1.0498784,1.566128,-0.37243026,-0.36861768625,-2.846853675,3.2014506000000003
