id,timestamp,acc_x,acc_y,acc_z,gyro_x,gyro_y,gyro_z
0,1778413160890,-0.18573492049999998,-0.5800109849999999,-0.12259861475,0.8491540475,-0.506468725,-4.80118315
1,1778413160900,-0.39878849499999997,-0.6197922499999999,0.08611782850000001,0.8160766580000001,-0.308279332,-4.85875552
2,1778413160910,-0.9490390799999999,-0.9964300666666666,-0.02825368333333332,0.9448704311111111,-0.22071098777777776,-5.1869164
3,1778413160920,-1.4878070444444444,-1.4429229000000001,-0.16372229555555556,0.9879012399999999,-0.3937165211111111,-5.278679111111111
4,1778413160930,-2.5320312333333335,-2.061105977777778,0.030404880000000006,1.1832365999999999,-1.2714361444444444,-5.001286644444445
5,1778413160940,-3.453128366666667,-2.431513933333333,0.52597582,1.5508308666666666,-2.0734106999999997,-4.217773266666667
6,1778413160950,-3.5843434000000003,-2.44320676,0.6622886579999999,1.91303612,-2.26531176,-3.25697654
7,1778413160960,-3.2452842,-2.1052752777777775,-0.045144916666666667,2.0198937333333333,-1.6917669333333332,-1.3774605666666666
8,1778413160970,-3.2840738,-1.9991512333333334,-0.3181080033333334,1.5780475666666667,-1.3655745333333333,-0.5357130333333333
9,1778413160980,-3.259326388888889,-1.9095084333333334,-0.4957979177777778,0.7933124333333333,-1.006667822222222,0.3231806111111111
10,1778413160990,-2.95049542,-1.81338622,-0.43438509999999997,-0.305614516,-0.498191755,1.207415948
11,1778413161000,-2.866397022222222,-1.806219811111111,-0.35153812,-0.6318705777777778,-0.34369490666666663,1.3821522
12,1778413161010,-2.8763416,-1.91579775,-0.17122950499999998,-1.3076712499999998,-0.097048355,1.4401487000000002
13,1778413161020,-3.0366541,-2.0431477,-0.13917479333333332,-1.4498629,-0.15704713,1.4000024666666666
14,1778413161030,-3.8437403333333333,-2.5055492666666668,0.12770393222222223,-1.5054500555555554,-0.85307358,1.887458511111111
15,1778413161040,-4.03807414,-2.65709709,0.447309626,-1.49801122,-1.0737930599999999,2.73600016
16,1778413161050,-3.9342846333333332,-2.6450526666666665,0.6112348466666666,-1.467306,-0.9459223866666666,3.2323492666666667
17,1778413161060,-3.287071966666667,-2.558177666666667,0.59056292,-1.3618330666666667,-0.13838235066666668,4.525309133333334
18,1778413161070,-2.9428668,-2.54420934,0.432574012,-1.3747423399999998,0.3735941796,5.15098476
19,1778413161080,-2.0490693333333336,-2.5821085444444445,0.19219955777777778,-1.5286622444444444,0.8623975288888889,5.921918033333333
20,1778413161090,-1.36138735,-2.53330947,0.281897554,-1.4892151200000001,0.92644146,6.29757578
21,1778413161100,-1.109455,-2.5101771,0.3299278,-1.4701567,0.9194778,6.3505974
22,1778413161110,0.30136921888888885,-2.042300822222222,1.0946606444444444,0.28615649888888894,0.2712416388888889,5.508519066666667
23,1778413161120,0.483436758,-1.9621999200000002,1.32436376,1.274822922,-0.04451549000000001,5.118075599999999
24,1778413161130,0.16446081,-2.173145,0.9571289999999999,4.289903866666666,-0.9842021999999999,4.536711700000001
25,1778413161140,-0.030774156666666663,-2.512047,0.20627219333333333,6.485339766666666,-1.6699800333333334,4.7224094333333335
26,1778413161150,-0.0926639449,-2.7724270399999997,-0.503447077,7.164276079999999,-1.6985065900000003,5.172097429999999
27,1778413161160,0.18508532822222223,-3.1149987333333335,-1.7564846444444444,6.567396866666667,-0.44014089466666667,6.887124733333334
28,1778413161170,0.47344227000000005,-3.1346950500000004,-1.9477661000000002,5.85694098,0.2864720988,7.68984938
29,1778413161180,1.8260551044444446,-2.8856560333333334,-1.798682111111111,3.5413362,1.7895958133333336,9.341382000000001
30,1778413161190,2.470530288888889,-2.642769344444444,-1.579014811111111,2.2757369555555558,2.260830477777778,9.903293333333332
31,1778413161200,2.874131,-2.4716077,-1.4238025,1.6898325999999997,2.3849003,10.071344
32,1778413161210,2.874131,-2.4716077,-1.4238025,1.0174933766666667,1.7109322,9.498573333333333
33,1778413161220,3.8800738,-1.5415534,-0.5903698,0.82059693,1.9322624999999998,9.689565
34,1778413161230,3.57860813,-1.45932292,0.07554709600000001,0.6776586659999999,0.10918892559999997,7.931240839999999
35,1778413161240,3.3151392222222222,-1.4857607888888889,0.3707533466666667,0.6622517555555556,-0.5614280311111112,6.813415888888889
36,1778413161250,3.1220725,-1.5313089,0.45658153000000007,0.6055787,-0.34321982,6.613872500000001
37,1778413161260,2.782167822222222,-1.516805988888889,0.4119718755555556,0.008933647777777795,0.748830848888889,6.563443466666667
38,1778413161270,2.403026366666667,-1.5057789000000001,0.3452132333333333,-0.3311301,1.2764162333333333,6.5847552333333335
39,1778413161280,2.3262331,-1.5054537,0.31626844,-0.5123481,1.4710729,6.634030300000001
40,1778413161290,2.231461433333333,-1.4109969,0.44144852,-1.4139586555555557,1.8713814888888889,6.835270622222222
41,1778413161300,2.2502532,-1.4287316666666667,0.46521006000000004,-1.7157172,1.9878496999999997,6.895473
42,1778413161310,2.32091592,-1.4607864,0.598138564,-2.1023834999999997,1.46038315,6.7357364
43,1778413161320,2.314189933333333,-1.4826677666666666,0.7117793466666666,-2.1365909999999997,1.0856283333333332,6.6106146
44,1778413161330,2.2871455999999997,-1.51457616,0.8288532759999999,-1.9402647000000002,0.47465886599999996,6.518824619999999
45,1778413161340,2.380240511111111,-1.392232311111111,0.7825931111111112,-1.8332034777777777,0.21103075999999998,6.5051417
46,1778413161350,2.4222145444444445,-1.336182288888889,0.7511380111111111,-1.8942881999999999,0.2548760133333333,6.479893333333333
47,1778413161360,2.5875046999999998,-1.08451448,0.644263196,-2.1993861000000003,0.4891970280000001,6.3190776
48,1778413161370,2.6298182,-0.9263684333333333,0.6170549644444444,-2.4084180666666666,0.6236241666666666,6.190555266666666
49,1778413161380,2.6220128666666667,-0.5473050088888889,0.5118760666666667,-2.977295088888889,0.9253147888888889,5.870539155555556
50,1778413161390,2.5418252000000003,-0.43709867999999996,0.517054576,-3.7193115,1.23907309,5.50707843
51,1778413161400,2.4618476000000005,-0.3474118511111111,0.6019457111111112,-4.0136652,1.3239944666666665,5.386256255555555
52,1778413161410,2.4829072,0.026775954,1.081587568,-4.58127792,1.39141842,5.09816192
53,1778413161420,2.584629111111111,0.20028270444444446,1.225769388888889,-4.654919066666666,1.3567765666666665,4.867180111111111
54,1778413161430,2.6803053333333335,0.37931076666666663,1.3555465666666668,-4.684782844444444,1.3482247,4.570172555555556
55,1778413161440,2.7617465500000002,0.7949548999999999,1.57602185,-4.75634692,1.51468738,3.8393278000000004
56,1778413161450,2.6720563333333334,0.9757073333333334,1.6245968333333334,-4.845639166666667,1.6888738555555554,3.440716
57,1778413161460,2.456024077777778,1.2602463444444443,1.8405207444444445,-5.082240688888889,1.8192558,2.7359593888888885
58,1778413161470,2.45407608,1.40114276,1.9107151999999998,-5.1460063499999995,1.6833423,2.4193369
59,1778413161480,2.5075141111111114,1.4785957777777776,1.9939137999999998,-5.376915022222223,1.6243955888888888,1.9544482666666667
60,1778413161490,2.13851492,1.5706343,2.2576378200000002,-5.84904568,1.9857727500000002,1.32347695
61,1778413161500,1.7453253666666668,1.5922575333333333,2.4295319666666666,-6.017727866666666,2.094069177777778,1.1243068000000003
62,1778413161510,0.8385414866666667,1.6143455444444446,3.2597598666666667,-5.890196666666666,1.2301954866666667,1.12688595
63,1778413161520,0.8585988760000001,1.7179294600000001,3.8813849599999997,-5.5285115000000005,0.505911327,1.2947060499999998
64,1778413161530,1.5100610111111112,2.0579723666666667,4.824495555555555,-3.5387910000000002,-1.6166750799999998,1.715742711111111
65,1778413161540,3.4551203000000004,2.6669544,5.939259166666666,-1.54739484,-2.8348742,1.8376406666666665
66,1778413161550,4.34139352,2.85123952,6.0985144,-0.25968646,-2.8315061,1.59096694
67,1778413161560,5.951092577777778,2.975952811111111,5.921151466666666,1.2997048377777778,-1.0387711833333333,0.13761031111111113
68,1778413161570,6.148499,2.81258795,5.7038388,2.1272374,0.09846096500000001,-1.0570712
69,1778413161580,5.678407222222223,2.0272151666666667,4.2413754444444445,3.772966222222222,0.8610400888888888,-3.5628599888888886
70,1778413161590,4.877987666666666,1.3570608333333334,2.965223866666667,4.294561777777778,0.7225813888888888,-4.740726111111111
71,1778413161600,4.3655898,1.00018026,2.31592792,4.32363792,0.496405034,-5.336086679999999
72,1778413161610,2.8592961111111115,0.1260642688888889,0.8242283022222222,2.686132888888889,0.7205452411111112,-5.522822555555556
73,1778413161620,2.433343166666667,-0.052984126666666666,0.6233426288888889,1.7331687444444444,1.171893488888889,-5.230523866666667
74,1778413161630,1.95274198,-0.15513100200000002,1.1060340800000001,0.58943702,1.81792722,-4.7105640399999995
75,1778413161640,1.9447577222222223,-0.06612851622222223,1.8612637555555556,-1.6728221444444444,3.460814411111111,-3.124933311111111
76,1778413161650,2.16317797,0.052908575400000005,2.37774849,-1.95846792,3.9156377399999998,-2.61057789
77,1778413161660,3.0266502,0.16514174999999998,3.023062466666667,-1.0590564666666666,3.9734511888888893,-2.2597954444444444
78,1778413161670,3.307469466666667,0.1639221683333333,3.1424901333333337,-0.514011015111111,3.8211466111111116,-2.4342263777777777
79,1778413161680,3.17737739,-0.0682997195,2.98169528,0.8692203648,3.5104628599999996,-3.08727549
80,1778413161690,2.779196633333333,-0.23371282999999998,2.6203765333333333,1.9604378333333332,3.2293712666666665,-3.5444157
81,1778413161700,2.5128600666666667,-0.30439784333333336,2.3671301,2.4171649444444445,3.1033331333333334,-3.7028966444444444
82,1778413161710,2.05944342,-0.374960898,1.8592548999999998,2.94245133,3.13411988,-3.7939264800000005
83,1778413161720,1.7466228555555556,-0.42244671777777776,1.385507711111111,2.948865155555555,3.3307718777777775,-3.7249549999999996
84,1778413161730,1.53685186,-0.457642552,1.011388272,2.7607242,3.46037335,-3.61476505
85,1778413161740,1.4403482666666667,-0.47833074666666664,0.8964242533333334,2.4931222666666666,3.5068995333333337,-3.4994167666666667
86,1778413161750,1.3887700666666667,-0.48769104999999996,0.8656805733333334,2.4552921333333333,3.4355660777777777,-3.473829
87,1778413161760,1.41410076,-0.51279819,0.7840335119999999,2.52797606,3.25286852,-3.4505082000000002
88,1778413161770,1.5208983111111112,-0.5370130755555556,0.7498676033333334,2.5884652333333333,3.186001133333333,-3.5079685333333335
89,1778413161780,1.5874469777777778,-0.58951272,0.6910328800000001,2.7402947666666666,3.1522688,-3.7726688444444445
90,1778413161790,1.4755282299999999,-0.6723044899999999,0.578866078,2.91875038,3.0889171,-4.048955149999999
91,1778413161800,1.3650085333333333,-0.7362726533333332,0.49269133333333337,3.019316166666667,3.0253483333333335,-4.176642566666667
92,1778413161810,1.13558452,-0.8688250719999999,0.258124824,3.0927807,2.95025492,-4.2381344599999995
93,1778413161820,1.0679315666666667,-0.9008825111111111,0.13459796555555556,3.0447681444444448,2.979399,-4.199719
94,1778413161830,1.016187377777778,-0.9065671222222222,-0.032932135555555554,2.943028177777778,2.9959511555555554,-4.135647933333334
95,1778413161840,1.0211815400000002,-0.8284446400000001,-0.255892966,2.4690599,2.71011544,-3.95592312
96,1778413161850,1.0313407,-0.8098948,-0.26800343,2.3861985,2.6231308,-3.9461496
97,1778413161860,1.0727691888888888,-0.7969672777777776,-0.04473160722222222,1.9934236333333333,2.061354933333333,-3.935765266666667
98,1778413161870,1.10493642,-0.8064312599999999,0.07890704740000001,1.93710356,1.9395927,-3.94419496
99,1778413161880,1.0794836666666665,-0.8157488,0.26517807666666665,2.0046226,1.7355697666666667,-3.9992932666666667
100,1778413161890,0.9938181333333334,-0.80851259,0.33204172000000004,2.100932766666667,1.6105497333333334,-4.000922200000001
101,1778413161900,0.928645665,-0.8114650320000001,0.30576173300000004,2.1371559600000003,1.56349413,-3.94059089
102,1778413161910,0.8386600777777777,-0.7716371755555556,0.17593167444444446,2.0932632888888887,1.4429739555555556,-3.642965733333333
103,1778413161920,0.9122077333333333,-0.6726510322222222,0.1555714111111111,1.9933557777777777,1.3576589666666667,-3.446205
104,1778413161930,1.10469864,-0.564307318,0.17841284799999999,1.8217756,1.3587380599999999,-3.2582746199999995
105,1778413161940,1.2147796,-0.50697404,0.19789433555555555,1.6776835333333333,1.451933,-3.1841517111111113
106,1778413161950,1.2821276666666668,-0.46971238666666665,0.21904732999999998,1.5361026999999998,1.6044412333333333,-3.1923641333333332
107,1778413161960,1.28540425,-0.450032356,0.276592335,1.3500181999999998,1.77887883,-3.2638944000000003
108,1778413161970,1.2369827666666666,-0.454244,0.3216244466666667,1.3643867111111112,1.7326512666666667,-3.270824111111111
109,1778413161980,1.1934774666666668,-0.46573518333333336,0.33664904333333334,1.5233427666666666,1.5136285999999999,-3.1815724666666667
110,1778413161990,1.19487458,-0.480979288,0.332513302,1.6860453400000002,1.320438,-3.12016196
111,1778413162000,1.1886466,-0.48956108666666664,0.33480612333333337,1.9148280333333334,1.0481630333333334,-3.0854658333333336
112,1778413162010,1.1250385333333335,-0.48863962888888884,0.3368116522222222,2.4904412333333337,0.40813082222222224,-3.0606925
113,1778413162020,1.03034975,-0.49155308,0.264527615,2.7552266,0.1735951575,-3.04240105
114,1778413162030,0.8016829666666667,-0.51257054,-0.008648879999999998,3.2811661444444447,-0.20448959777777775,-2.767621611111111
115,1778413162040,0.70967555,-0.520945,-0.11424446999999999,3.3789017,-0.26869643,-2.6939127
116,1778413162050,0.75087311,-0.37744884,-0.38465047,3.4145750599999998,-0.279447342,-2.52916718
117,1778413162060,0.8466855566666668,-0.23047753555555556,-0.7728228666666666,3.1087033888888893,0.0907956588888889,-2.9942120333333335
118,1778413162070,0.5957020866666667,-0.2835700755555555,-1.0464499444444444,2.9032551333333334,0.2308493666666667,-3.4635802666666664
119,1778413162080,-0.130617377,-0.37018318,-1.15814685,2.64512128,-0.17201458,-4.11205568
120,1778413162090,-0.6623354311111112,-0.5379480488888889,-1.1137981,2.3948181111111113,-1.142886738888889,-4.749685166666667
121,1778413162100,-0.755349,-0.5821986,-1.0987227,2.323892,-1.6614282,-4.988255
122,1778413162110,-1.09278633,-0.7801217100000001,-1.067635526,2.2676939999999997,-2.1040252500000003,-5.03529025
123,1778413162120,-1.3454443,-0.9309384,-1.0865269,2.211496,-2.5466223,-5.0823255
124,1778413162130,-2.1233149444444446,-1.3709301666666667,-0.8130081533333333,1.4947686666666666,-3.007201033333333,-4.1379557
125,1778413162140,-2.3455637,-1.4966421,-0.73485994,1.136405,-3.2374904,-3.6657708
126,1778413162150,-2.69035521,-1.09135333,-0.157097585,-1.6388726599999999,-0.19952563000000004,-1.93021621
127,1778413162160,-2.6741939555555554,-1.1352423777777778,1.0649808611111111,-1.8513253333333333,0.7170837666666666,-1.7205530666666666
128,1778413162170,-2.86296594,-1.4094299000000001,1.2297240999999999,-0.44877420400000007,0.376510966,-2.08787596
129,1778413162180,-3.4674583333333335,-1.8395348333333332,0.7964658111111111,1.5371207466666668,-0.24623082888888886,-2.668240311111111
130,1778413162190,-4.410630066666666,-2.297881444444444,0.052743582222222224,2.6992152222222225,-0.8307438088888889,-2.7624633666666667
131,1778413162200,-4.96264637,-2.4506034100000003,-0.376860406,2.95326317,-1.2727461,-2.42969834
132,1778413162210,-5.800677044444445,-2.5676632666666666,-1.0832068222222224,2.4536206333333332,-2.143997533333333,-0.5397344266666667
133,1778413162220,-5.474302933333333,-2.451118666666667,-1.0772376,1.7629306333333334,-2.039338966666667,0.6449274700000001
134,1778413162230,-4.6417799,-2.1903565499999997,-0.97083405,0.62417137,-1.28025945,2.0449257000000003
135,1778413162240,-3.3454865666666667,-1.7893524333333335,-0.7420351833333334,-0.8584948866666667,-0.20598278513333335,3.633675733333334
136,1778413162250,-2.8355923,-1.6308879,-0.62869525,-1.1329689,-0.0035887277,3.8839194999999997
137,1778413162260,-1.32963858,-1.1420177800000002,-0.155533464,-1.78559819,0.8086701599999999,3.89161627
138,1778413162270,-0.9958101666666668,-1.0448475333333334,-0.057940372000000004,-1.8081587666666665,0.9553141999999999,3.6627928666666665
139,1778413162280,-0.7387423,-1.0856833333333333,0.15932840233333334,-1.6232757,0.8944331,3.2439552666666667
140,1778413162290,-0.6370889799999999,-1.14685344,0.413200958,-1.16546603,0.63610578,2.8457846399999998
141,1778413162300,-0.5782891444444443,-1.1522114444444445,0.5271276711111111,-0.75843473,0.3405133933333333,2.727585677777778
142,1778413162310,0.08857224,-1.0503052,0.6315613,0.8879258705555555,-0.7364696822222222,2.8496874111111112
143,1778413162320,0.232751384,-1.0303894,0.60559634,1.077824708,-0.768858169,2.91218383
144,1778413162330,0.9093721333333333,-0.9443843766666666,0.41631493199999997,1.4446792,-0.46437118666666666,3.0045030999999995
145,1778413162340,2.213320211111111,-0.95073974,-0.24063394533333338,1.7279766222222221,0.3609852888888889,2.7984101
146,1778413162350,2.3228185,-0.9846306,-0.3424285,1.7069364,0.7105681,2.5387576
147,1778413162360,1.8117283555555557,-1.1982813444444445,-0.5118692777777778,1.2517872444444444,0.8145478111111112,1.7840218444444444
148,1778413162370,0.9190678666666666,-1.3327301999999999,-0.14425637666666666,1.1423098,0.6608858333333333,1.7008787333333335
149,1778413162380,0.21816313866666665,-1.3844811333333333,0.15291542500000002,1.3939789333333334,0.46887618666666664,2.4988998333333337
150,1778413162390,0.1717295349,-1.45724047,0.12671470899999998,1.59319656,0.383031773,3.62308782
151,1778413162400,0.30803966,-1.4824678888888887,0.06901825444444444,1.6141553888888889,0.3963889644444445,4.125815133333333
152,1778413162410,1.2742444066666667,-1.4126467222222223,-0.2614210577777778,1.3764679666666668,0.6331940766666667,5.054913866666666
153,1778413162420,1.591419,-1.35486565,-0.39037337,1.18405105,0.78906193,5.2262564
154,1778413162430,1.277513511111111,-1.5070052888888887,-0.5026241866666666,0.634763611111111,1.123093591111111,5.3863747222222225
155,1778413162440,0.9477280611111111,-1.6481144777777776,-0.4577773888888889,-0.0849926111111111,1.5166828222222222,5.745654688888889
156,1778413162450,0.76507515,-1.7236067,-0.40246250000000006,-0.37063158,1.6641006,5.946827
157,1778413162460,0.5840686466666667,-1.9093289333333334,-0.44061514999999996,-0.7568906533333333,1.7400493,6.568873133333334
158,1778413162470,0.2699751033333333,-2.2951746,-0.5384765666666667,-1.6401757777777777,1.7893243444444442,8.031547
159,1778413162480,1.1038021690000002,-2.3048327,-0.5269301399999999,-2.3899704999999996,0.98618232,9.114024400000002
160,1778413162490,2.0347055111111114,-2.2005856666666666,-0.4355402888888889,-2.860495966666667,0.5226307266666667,9.370498333333334
161,1778413162500,2.4305008888888886,-2.1064473555555554,-0.2936620933333333,-3.2053107222222224,0.20142688977777778,9.26047811111111
162,1778413162510,2.78275378,-1.9829388399999999,0.062948794,-3.59537064,-0.1407850172,8.8398764
163,1778413162520,2.7875711,-1.9163211999999998,0.32195985,-3.745503422222222,-0.4358649711111111,8.459250444444445
164,1778413162530,2.63536423,-1.8854148899999998,0.646309026,-3.5556656,-1.063408764,8.3498538
165,1778413162540,2.6940901333333334,-1.8500267,0.7919872333333333,-3.3035892666666666,-1.4669751333333334,8.394365
166,1778413162550,2.7306166,-1.8329423999999999,0.8502325,-3.201985,-1.5936241,8.426944
167,1778413162560,3.07154514,-1.67691488,0.70067506,-3.1342954599999997,-1.6354060700000002,8.4128944
168,1778413162570,3.5050251777777777,-1.3855923888888888,0.5091320488888889,-2.9212581333333336,-1.7290286222222224,8.43229711111111
169,1778413162580,3.5868184222222226,-1.1069310866666666,0.35814759555555553,-2.771872,-2.0743608,7.971785999999999
170,1778413162590,3.5153331199999998,-0.8749596220000001,0.25899681599999996,-3.1458404700000004,-2.31558446,7.10658184
171,1778413162600,3.521854977777778,-0.7593295777777778,0.3296838822222223,-3.3730223,-2.3529072,6.8685956
172,1778413162610,3.6569145,-0.367112866,0.8849296599999998,-4.186304160000001,-1.575909568,6.32799568
173,1778413162620,3.603716277777778,-0.0015143166666666665,1.258244122222222,-4.690212433333333,-0.6932352666666667,5.7898396000000005
174,1778413162630,3.5559999999999996,0.1267452,1.3305044,-4.8897557,-0.30595812,5.500298
175,1778413162640,3.45432944,0.20167029999999997,1.34368202,-4.8897557,-0.30595812,5.500298
176,1778413162650,3.0476472,0.5013707,1.3963925,-4.8897557,-0.30595812,5.500298
177,1778413162660,3.0591926333333337,0.4957504566666666,1.3703645666666666,-5.1852277,-0.30188580333333337,4.8177525
178,1778413162670,3.00767846,0.527735041,1.50785632,-5.84012739,-0.273216703,3.3509478
179,1778413162680,2.967673233333333,0.5757043266666666,1.9874127666666663,-7.2262551777777775,0.5097181333333334,1.9290641555555557
180,1778413162690,2.8473308000000004,0.6054256,2.5621251199999997,-7.789158039999999,0.5496709200000001,1.1881743200000001
181,1778413162700,2.6331990666666667,0.64822892,2.953485311111111,-7.758914333333333,0.22764241111111114,0.9085420222222224
182,1778413162710,1.6218629444444443,1.4192460666666666,5.602708111111111,-5.906350333333332,-2.2584974222222223,0.7305817800000001
183,1778413162720,2.4583818777777777,2.1101196666666664,6.900195888888889,-3.533649666666667,-3.246627666666667,1.3026063133333334
184,1778413162730,4.91414343,2.97995118,7.171756499999999,-1.06572992,-3.53057498,1.2885975200000002
185,1778413162740,5.816060888888889,3.2635067777777778,6.804339888888888,0.7611411333333334,-2.8744436333333336,0.29017787600000006
186,1778413162750,6.0825072,3.3278587600000002,6.515965400000001,1.28960546,-2.4415489100000003,-0.24507191739999995
187,1778413162760,5.699275611111111,3.0638271777777777,5.610398611111112,2.0699831777777775,-0.23451446111111116,-2.046338266666667
188,1778413162770,4.981029255555556,2.6102506222222224,4.631520555555555,2.1283530555555554,1.0615337555555555,-2.8524276222222222
189,1778413162780,4.44518315,2.05165935,3.5542624,1.7896450600000002,1.9961572,-3.3240627599999995
190,1778413162790,3.936167888888889,1.3499635444444444,2.416086155555556,0.7981992,2.9245330666666667,-3.8950419999999997
191,1778413162800,3.5553394,0.9094940666666668,1.9112600000000002,0.3098437955555555,3.062610022222222,-4.0491792222222225
192,1778413162810,2.70476156,0.1953833472,1.6539684000000001,-1.3355258939999999,3.4350232800000002,-4.12622738
193,1778413162820,2.4103541333333336,-0.026908751555555555,1.8653730666666668,-1.8679539444444444,3.6796336666666667,-3.9890445999999997
194,1778413162830,2.24608232,-0.08888323420000001,2.52043376,-2.5842198000000005,4.3611897,-3.4788514800000003
195,1778413162840,2.3502286333333333,0.0005996279999999983,2.982823166666667,-2.619906888888889,4.713594333333333,-3.056009433333333
196,1778413162850,2.3977923555555556,0.015187199555555555,3.0439141000000003,-2.56846,4.727576,-3.0036123
197,1778413162860,2.4884225,-0.0328067926,3.2965001700000003,-2.0626784799999998,4.7118158999999995,-2.92896681
198,1778413162870,2.42816,-0.10494514999999999,3.487083333333333,-1.4786406,4.886192488888889,-2.8731625333333333
199,1778413162880,2.3789770000000003,-0.21432823444444443,3.5455895777777777,-0.4821790666666666,5.208448433333333,-2.8251092222222223
200,1778413162890,2.4610401,-0.282370138,3.4095952400000002,0.8639670500000001,5.2098398,-2.8762507
201,1778413162900,2.5156043,-0.29056573,3.3131506,1.4699275,5.050714,-2.9351974
202,1778413162910,2.58230938,-0.287376524,3.0293749500000002,3.06462055,4.2773817,-3.3823374999999998
203,1778413162920,2.3248512,-0.40242185999999996,1.9648808999999998,3.559712366666667,3.943655333333333,-3.5201855333333336
204,1778413162930,2.0527993777777778,-0.5055444066666666,1.2355429333333334,3.301934977777778,4.034807511111111,-3.3883103333333335
205,1778413162940,2.13384105,-0.440385458,1.17557166,2.95387412,4.4753571899999995,-3.27824928
206,1778413162950,2.1812859,-0.40795064,1.1779956,2.841356,4.6445007,-3.2467296
207,1778413162960,2.172708211111111,-0.3899549955555556,1.0639916622222223,2.6415411555555557,5.297700033333333,-3.2706205333333336
208,1778413162970,2.13864314,-0.411642916,0.955583217,2.6180303,5.4714656900000005,-3.27947106
209,1778413162980,2.090223533333333,-0.6153780466666666,0.8466381733333334,2.7662217333333334,5.3253919,-3.2646478
210,1778413162990,2.2495641199999996,-0.721670166,0.74513494,2.99284615,5.059876999999999,-3.2671929499999997
211,1778413163000,2.4147241999999998,-0.7881726877777778,0.6886953222222222,3.200059188888889,4.806443222222223,-3.312836811111111
212,1778413163010,2.6185166666666664,-1.0206794666666665,0.5837230733333334,3.8140285,4.183514733333333,-3.8640927000000005
213,1778413163020,2.58082136,-1.169489,0.44730658200000006,4.0829030500000005,3.97592845,-4.1532268000000006
214,1778413163030,2.382561077777778,-1.3554415888888889,0.1866233572222222,4.317909388888889,3.791757922222222,-4.483830688888889
215,1778413163040,2.0942516666666666,-1.5342290444444444,-0.131782758,4.432680777777778,3.601309266666666,-4.7963130666666665
216,1778413163050,2.01341027,-1.5540174500000001,-0.199365292,4.41031705,3.54479232,-4.818683699999999
217,1778413163060,1.5785575666666665,-1.4986849666666666,-0.4971631466666666,4.171170666666667,3.1016788,-4.7610201
218,1778413163070,1.5111247,-1.44528245,-0.586238485,3.91400375,2.6258796999999996,-4.6070864
219,1778413163080,1.4916012,-1.3900912333333335,-0.6132370166666666,3.710591633333333,2.1656063333333333,-4.511794233333333
220,1778413163090,1.3233598,-1.3438893666666667,-0.5535180833333333,3.414941633333333,1.0607872,-4.289038566666666
221,1778413163100,1.1725014200000001,-1.32634263,-0.5192772700000001,3.3311943999999998,0.5595437234999999,-4.1082684899999995
222,1778413163110,0.8951267722222221,-1.250882622222222,-0.4054674277777778,3.1621187222222225,-0.051506302222222224,-3.639639966666667
223,1778413163120,0.7882675333333333,-1.2219412333333333,-0.33103558,3.0476189,-0.20537193333333334,-3.3243071000000004
224,1778413163130,0.9283285400000001,-1.0709771399999999,-0.20780479999999998,2.96120435,-0.580289605,-2.53552767
225,1778413163140,1.1211223333333333,-0.9901695333333334,-0.1097625,3.2060318666666667,-0.9141583833333333,-2.2035296666666664
226,1778413163150,1.22977296,-0.937170487,-0.085636096,3.39576098,-1.04630502,-2.16838564
227,1778413163160,1.3653438333333332,-0.8505238488888889,-0.13696937444444446,3.8639823333333334,-1.2422512444444445,-2.4572350222222226
228,1778413163170,1.339072,-0.8832019533333333,-0.22600912333333334,4.375600733333333,-1.5779457333333333,-3.0555088
229,1778413163180,1.13554184,-0.9489578359999999,-0.33500735800000003,4.81414817,-2.07039045,-3.5804964500000005
230,1778413163190,0.8059074555555555,-1.15983736,-0.46941087777777785,5.112944233333334,-2.4893808333333336,-3.8693865666666665
231,1778413163200,0.6249755,-1.3080032,-0.5354581,5.206633,-2.6223674,-3.9485930999999996
232,1778413163210,0.010000583999999996,-1.68247018,-0.8304753080000001,5.321472,-2.9692064599999997,-3.8661285999999997
233,1778413163220,-0.22845845222222222,-1.6413558888888888,-0.9208363,5.1849986,-2.9723829,-3.7500676666666664
234,1778413163230,-0.615542048,-1.46503064,-0.86321504,4.932286159999999,-2.89834822,-3.6074959800000004
235,1778413163240,-0.9499301444444443,-1.3880790666666667,-0.9036265555555555,4.778895777777778,-2.8758690111111114,-3.360415077777778
236,1778413163250,-1.0870147,-1.4231929,-1.01698,4.745978,-2.8941944,-3.1459398
237,1778413163260,-1.2753487399999999,-1.45307258,-1.51976546,4.472746020000001,-2.86255244,-2.94026755
238,1778413163270,-1.3683724,-1.4622499,-1.6947025,4.3556466,-2.8489916,-2.8521223
239,1778413163280,-1.3683724,-1.4622499,-1.6947025,4.3556466,-2.8489916,-2.8521223
240,1778413163290,-1.3683724,-1.4622499,-1.6947025,4.3556466,-2.8489916,-2.8521223
241,1778413163300,-1.3683724,-1.4622499,-1.6947025,4.3556466,-2.8489916,-2.8521223
242,1778413163310,-1.3683724,-1.4622499,-1.6947025,4.22211536,-2.85882624,-2.7983601
243,1778413163320,-1.5624624666666667,-1.0123456577777779,-0.8908853333333333,-3.8527916444444443,-0.05185413333333328,0.6506965655555556
244,1778413163330,-1.5667988,-1.0441768,-0.8500496,-4.624648,0.554802,0.73920155
245,1778413163340,-1.5667988,-1.0441768,-0.8500496,-4.624648,0.554802,0.73920155
246,1778413163350,-1.5667988,-1.0441768,-0.8500496,-4.624648,0.554802,0.73920155
247,1778413163360,-1.5667988,-1.0441768,-0.8500496,-4.624648,0.554802,0.73920155
248,1778413163370,-2.35794872,-1.01402866,1.30303336,-4.701981399999999,0.7798381560000001,0.8674794799999999
249,1778413163380,-2.9734866666666666,-1.0122338333333334,2.7716963333333333,-3.8964928333333333,0.5136462066666667,0.8298105666666666
250,1778413163390,-3.21587056,-1.05079302,2.75497176,-1.50045464,-0.7559081799999999,0.488632004
251,1778413163400,-3.3494636,-1.0783657333333334,2.5666943666666664,-0.15118470555555552,-1.6409986888888888,0.3390965911111111
252,1778413163410,-3.4121602444444443,-1.1339482333333333,2.3997977444444443,0.9910232999999999,-2.4439235,0.313441
253,1778413163420,-3.3692729299999997,-1.16977867,2.00361075,2.33357408,-3.1238728399999998,0.539698822
254,1778413163430,-3.2894465888888886,-0.9474299555555555,1.4186431111111113,3.0568494444444445,-3.122243911111111,1.1490801
255,1778413163440,-3.1163097777777775,-0.8535016777777777,1.0693645833333334,3.080197333333333,-2.8306407333333334,1.5373752666666667
256,1778413163450,-2.986912,-0.7972111,0.83096313,2.9140468,-2.3174782,2.040306
257,1778413163460,-2.986912,-0.7972111,0.83096313,2.9140468,-2.3174782,2.040306
258,1778413163470,-2.986912,-0.7972111,0.83096313,2.9140468,-2.3174782,2.040306
259,1778413163480,-2.986912,-0.7972111,0.83096313,2.9140468,-2.3174782,2.040306
260,1778413163490,-2.986912,-0.7972111,0.83096313,0.2207873222222222,1.5024551888888888,3.208432722222222
261,1778413163500,-2.0286853999999996,-0.6864119799999999,0.472210486,-1.0954323799999999,3.18637798,3.7188685999999995
262,1778413163510,-0.1264098161111111,-0.8558663444444444,0.14377533333333334,-3.0602429333333334,5.257995,3.766026133333333
263,1778413163520,-0.02223029833333333,-0.9217035155555556,0.17452238444444446,-3.2007632666666668,5.3750741,3.731207833333333
264,1778413163530,0.432016049,-1.107332881,0.436418762,-2.94587198,5.180091679999999,3.35846882
265,1778413163540,0.5217546888888889,-1.2126994666666666,0.5305526388888889,-2.7498817,5.0452166,3.1295233
266,1778413163550,0.40777076,-1.3906299,0.56540188,-0.859614801,3.43740544,2.90161612
267,1778413163560,0.38050324444444444,-1.5474005888888889,0.2605572222222222,0.03682899333333334,2.5472331666666665,3.1173063
268,1778413163570,0.3799612,-1.6243021,0.06780884,0.7246939,1.7905460999999998,3.3628669
269,1778413163580,0.592973604,-1.7942998799999998,-0.36892398000000004,1.52472052,0.46335817700000004,4.240715499999999
270,1778413163590,0.8804374933333333,-1.9188518666666665,-0.6189385666666667,1.5385461,-0.07767940999999999,4.780236266666666
271,1778413163600,1.06078338,-1.9394322666666666,-0.6629553666666667,1.450176911111111,-0.23774684777777777,4.987245622222222
272,1778413163610,1.26300353,-1.88776555,-0.49695278100000007,0.8374563199999999,-0.6380146879999999,5.5195699
273,1778413163620,1.3249147,-1.9500122333333334,-0.2672513633333333,0.5738146466666667,-1.0275723666666667,5.885538833333333
274,1778413163630,1.5785982,-2.09359785,0.00559483999999999,0.5413175880000001,-1.3563711,6.4322064
275,1778413163640,2.2337380000000002,-2.1224816,0.36629172,0.6025244722222223,-1.3760267555555556,6.886446055555556
276,1778413163650,2.4463012,-2.0831094,0.44999580000000006,0.64894885,-1.2772052,7.0170317
277,1778413163660,2.5728208,-1.96576108,0.534147032,0.89084436,-0.9306105800000001,6.86810704
278,1778413163670,2.409378366666667,-1.7815367999999998,0.33765182,0.9393727777777777,-0.8599287666666666,6.764140666666667
279,1778413163680,2.196320555555556,-1.7089715555555556,0.1441784677777778,0.7834031244444445,-0.8921000333333333,6.830247911111112
280,1778413163690,2.0642302,-1.6802199999999998,-0.022476922000000003,0.54388313,-0.931771125,6.98251865
281,1778413163700,2.100908511111111,-1.6644196666666666,-0.09070312444444445,0.3974749111111111,-0.9141583555555555,7.057279666666667
282,1778413163710,2.21826364,-1.76481642,-0.21668948000000002,-0.7835643360000001,-0.71131634,7.284705
283,1778413163720,2.183216933333333,-1.8415811,-0.2423617133333333,-1.3152729111111112,-0.5932599388888888,7.3631782222222215
284,1778413163730,2.1194429333333336,-1.8903136333333335,-0.15134013666666668,-1.9954852666666665,-0.6433494433333333,7.566386866666666
285,1778413163740,2.29137764,-1.8930312400000002,0.041008486,-2.4537429200000003,-0.8735574039999999,7.8444851
286,1778413163750,2.4108317333333336,-1.8752720444444444,0.09093348444444443,-2.527736888888889,-0.9374384488888889,7.896312044444445
287,1778413163760,2.8529103555555557,-1.7346235333333333,0.03247818031111111,-2.8026690666666667,-1.1627732,7.748622666666667
288,1778413163770,2.8698655299999998,-1.64784917,-0.09707883188000001,-2.95398098,-1.24421946,7.5548214
289,1778413163780,2.7633759,-1.5900724111111113,-0.14134632,-3.2246541222222223,-1.5281955666666667,7.3235412222222225
290,1778413163790,2.6896326,-1.4738176600000001,0.022226906,-3.7125922599999996,-2.12316757,7.1575266
291,1778413163800,2.783180777777778,-1.4050108333333333,0.1373657411111111,-3.9121967777777775,-2.277840955555556,7.230828155555555
292,1778413163810,3.4838314666666665,-0.933398,0.5938151199999999,-4.312708822222222,-1.9249748333333332,7.1347214222222215
293,1778413163820,3.7845624,-0.71170618,0.71248668,-4.43241456,-1.7069973900000002,6.99094827
294,1778413163830,4.0508360888888895,-0.2004486988888889,0.6552617944444444,-5.0650692,-0.7329403733333334,5.9706501
295,1778413163840,3.9664983111111116,0.12189058111111112,0.619392511111111,-5.612642766666667,-0.40511898,4.949873666666667
296,1778413163850,3.8989407700000003,0.184538209,0.63107951,-5.85277186,-0.473818932,4.4506638800000005
297,1778413163860,3.4006115111111113,0.3183010911111111,1.1670701555555556,-6.390887766666666,-1.1098331,3.2447698
298,1778413163870,3.26390984,0.333306036,1.41791812,-6.564775620000001,-1.2581468,2.8841229999999998
299,1778413163880,2.6031668222222226,0.36177922888888886,2.196083411111111,-6.863615622222222,-0.9983195777777778,2.3963623333333333
300,1778413163890,2.3771306222222224,0.48015334666666665,2.557557866666667,-6.772463677777777,-1.1239505,2.4087150555555557
301,1778413163900,2.4301540200000002,0.6472572779999999,2.88930284,-6.33147011,-1.8095815899999999,2.48488095
302,1778413163910,3.4756837,1.66097767,4.375451444444444,-4.357504666666667,-4.3597525,2.524504488888889
303,1778413163920,3.705128033333333,1.9636241,4.716064377777777,-3.583018111111111,-5.041500388888888,2.4963375888888892
304,1778413163930,5.331500220000001,2.7831623999999997,5.68759712,-2.7244017,-5.00747373,2.4401057
305,1778413163940,6.467389566666666,3.2503725,6.258637466666666,-1.2338944888888888,-2.8679533777777775,1.8922775555555558
306,1778413163950,6.7537141300000005,3.3492532500000003,6.400525830000001,-0.9808679999999999,-1.7054092,1.541244
307,1778413163960,7.113897577777777,2.9598645111111113,6.244616,1.2304754355555556,1.0138876555555556,-0.9306257928888889
308,1778413163970,6.974187444444444,2.445633977777778,5.6695282222222225,2.1880294222222223,1.396821011111111,-1.8610479666666666
309,1778413163980,5.91468955,1.6193476,4.32642625,3.7121188500000004,1.3345485499999998,-3.4125364000000005
310,1778413163990,4.9310195000000006,0.9577388666666666,3.230656,4.5948949,1.2018928666666666,-4.324875066666667
311,1778413164000,4.624687377777778,0.7675989333333333,2.803476711111111,4.4807341888888885,1.4021150666666666,-4.341164444444445
312,1778413164010,3.6308979200000002,0.13663297000000002,0.662913639,2.76983342,2.71939266,-3.9521970000000004
313,1778413164020,3.560685377777778,0.09377240833333333,0.3276715588888889,1.9442165555555553,3.1243733888888894,-3.8299528222222228
314,1778413164030,3.2889539999999995,-0.011878740999999998,0.31728069400000003,0.23797083200000002,3.48572346,-3.5796414
315,1778413164040,3.2049634,-0.0078053333333333325,0.6180543333333334,-0.8865091133333334,3.8800592444444444,-3.3015701777777777
316,1778413164050,3.2109800444444447,0.010041235888888889,0.8410856333333334,-1.1067026,3.9744012000000004,-3.2381778
317,1778413164060,3.43569454,0.0785655599,1.76492607,-1.8956728200000001,5.1130204400000006,-2.8997682399999998
318,1778413164070,3.481802111111111,0.0930677611111111,1.995007888888889,-1.856822966666667,5.530891133333333,-2.8822574
319,1778413164080,3.4918093333333333,0.08884664666666667,2.2298353333333334,-1.4966267,5.639647533333333,-2.9867122999999998
320,1778413164090,3.5146259,0.06244266699999999,2.2320205,-0.41885032550000006,5.5421791,-3.3560712500000003
321,1778413164100,3.503070355555556,0.04336974022222222,2.0166792444444446,0.09715016577777777,5.344735311111111,-3.5920619333333335
322,1778413164110,2.86475259,-0.1449535844,1.40824374,1.05094742,4.8228681899999994,-4.3540123
323,1778413164120,2.243189744444445,-0.33296658,1.0374928222222222,1.1579204,4.745765822222221,-4.502563755555555
324,1778413164130,1.8459613222222222,-0.4667853433333333,0.9051951222222221,1.0437598333333333,4.784995666666667,-4.371706733333333
325,1778413164140,1.44463614,-0.577048895,1.00622946,0.94215556,4.78866078,-4.05109328
326,1778413164150,1.3699444444444444,-0.5896515999999999,1.0861202888888888,0.9287847888888889,4.792122333333333,-3.821401077777778
327,1778413164160,1.4694827666666666,-0.5979143,1.093092188888889,1.1960643666666668,4.974154866666667,-3.0828188333333335
328,1778413164170,1.5878975199999998,-0.5913332600000001,1.02937102,1.34226046,4.9880414,-2.8457694
329,1778413164180,1.8205669777777775,-0.5956648166666666,0.986703911111111,1.6505347444444445,4.834135011111111,-2.7861507999999997
330,1778413164190,1.94400372,-0.6214021200000001,1.01734592,2.0364883899999997,4.5245305899999995,-2.88040443
331,1778413164200,2.0892581000000003,-0.62174361,1.0694627666666667,2.300289533333333,4.322245111111111,-2.9725948333333334
332,1778413164210,2.2881924777777782,-0.6583582166666667,0.9823167888888888,3.0312616222222224,3.989740444444445,-3.3469085555555558
333,1778413164220,2.2540948800000002,-0.79429029,0.6177555779999999,3.45556295,3.9362234000000003,-3.6450020000000003
334,1778413164230,2.111149444444445,-0.9226114333333333,0.2270152877777778,3.578512833333333,3.7944728000000003,-3.8664001666666667
335,1778413164240,1.9037187333333334,-1.0612712333333334,-0.15938938866666666,3.458311688888889,3.4883026666666668,-4.0425278888888885
336,1778413164250,1.8452296000000001,-1.0937223,-0.24553262999999997,3.413109,3.4295255999999994,-4.057324
337,1778413164260,1.6118047444444443,-1.1137743000000002,-0.2647173377777778,3.2444473333333335,3.2964966555555555,-4.052233444444444
338,1778413164270,1.5057586,-1.0986159,-0.25481669500000004,2.9841721800000003,3.07569997,-3.9966666
339,1778413164280,1.4762277,-1.049719111111111,-0.21898297666666666,2.5935556,2.5372049333333333,-3.7580086666666666
340,1778413164290,1.4126907777777777,-1.0588897000000002,-0.27395232,2.4879808111111115,2.3522540000000003,-3.6346854777777775
341,1778413164300,1.39805716,-1.06559571,-0.29607827,2.39566663,2.2717104600000004,-3.5393865900000003
342,1778413164310,1.4279085333333332,-1.0263708666666667,-0.19761314666666666,2.1610672777777777,1.9680310222222224,-3.349284011111111
343,1778413164320,1.4453180222222222,-1.0205168666666669,-0.09899629,2.1671757,1.900294888888889,-3.3305513666666666
344,1778413164330,1.40428924,-1.0394630800000002,0.0628451376,2.45539208,1.58921074,-3.3188094400000003
345,1778413164340,1.3418465999999998,-1.0361376666666666,0.16950176666666666,2.9974614444444443,1.1760336111111112,-3.267837711111111
346,1778413164350,1.3309038899999999,-1.025078084,0.173677821,3.19454796,1.04848872,-3.25100548
347,1778413164360,1.398997611111111,-0.9875746000000001,0.027037485555555556,3.769776022222222,0.5852765333333333,-3.2770682
348,1778413164370,1.4238330666666665,-0.9823540799999999,-0.08861289866666668,4.2487481,-0.012929606666666668,-3.4143052666666667
349,1778413164380,1.45535929,-1.003750672,-0.0719279778,4.91236495,-1.035492973,-3.7555042199999997
350,1778413164390,1.4192833444444444,-1.0104891777777778,0.016125603333333335,5.5171470000000005,-1.8753603777777776,-4.059359955555555
351,1778413164400,1.3825197,-1.008321,0.07415067,5.8119826,-2.2527282,-4.200262
352,1778413164410,1.21907722,-1.0296637499999999,-0.27667769993999997,6.50798208,-2.7781181,-4.506296600000001
353,1778413164420,1.1386266777777778,-1.0693171333333333,-0.5155009444444444,6.769044555555556,-3.017992788888889,-4.666406444444444
354,1778413164430,0.976306922,-1.1747941499999999,-0.8606569479999999,6.6145135999999995,-3.3531849199999995,-4.8404302
355,1778413164440,0.7985729866666667,-1.2195020333333333,-1.1173619666666665,6.207404499999999,-3.6789294333333333,-4.988255333333333
356,1778413164450,0.7401651,-1.2240653,-1.1887889,6.023336,-3.807411,-5.045675
357,1778413164460,0.167851256,-0.97843206,-0.9884022,5.18782658,-3.64657487,-5.301123550000001
358,1778413164470,-0.20499840777777775,-0.9463356666666667,-1.0467412666666667,4.582270666666667,-3.3088917777777778,-5.369296500000001
359,1778413164480,-1.1609857377777777,-1.1185273666666664,-1.5542979666666665,2.8455725555555555,-2.1228385,-4.826261955555555
360,1778413164490,-1.71308173,-1.26832406,-1.89454344,1.40224568,-1.37946114,-4.1920769
361,1778413164500,-1.8581878,-1.3123937,-1.9865793,0.7210288,-1.0701281,-3.8710155000000004
362,1778413164510,-2.10321715,-1.35681695,-1.8346498,-1.41314174,-0.48799061899999996,-2.8429214
363,1778413164520,-2.062816688888889,-1.4377633666666665,-1.4338336777777778,-3.377875111111111,-0.008068273888888887,-1.9096443333333335
364,1778413164530,-1.8377156444444447,-1.5193704444444445,-0.8827175222222222,-4.391643999999999,0.25965250833333336,-1.5713706444444446
365,1778413164540,-1.7075021400000001,-1.6111062,-0.273796476,-5.2828972,0.40074635000000003,-1.5701218000000001
366,1778413164550,-1.8207566666666668,-1.6539786333333335,0.13729459333333333,-5.395876711111111,0.33583873444444445,-1.720621
367,1778413164560,-2.338259722222222,-1.7025248555555554,0.8578481222222223,-4.838784266666667,-0.08232015444444445,-2.366218688888889
368,1778413164570,-2.76811885,-1.79123265,1.23484335,-4.55232396,-0.20675652800000002,-2.4290952399999997
369,1778413164580,-3.4279846000000003,-2.0498350666666667,1.4584692000000001,-3.5273628444444447,-0.6083953977777777,-2.367372533333333
370,1778413164590,-3.9174117600000002,-2.2652054,1.56532916,-2.472702,-1.066890578,-1.9343700000000001
371,1778413164600,-4.087556,-2.342027,1.6045754,-2.2538736,-1.1751938,-1.7842848000000002
372,1778413164610,-4.152142888888889,-2.3990052222222222,1.616696688888889,-2.0449638666666665,-1.231052388888889,-1.5238602666666667
373,1778413164620,-4.15646192,-2.43663606,1.6104781400000001,-0.9410407999999999,-1.4430503,0.005398362000000001
374,1778413164630,-3.7423828333333327,-2.1740596666666665,1.6900681666666668,-0.28526566666666664,-1.02390726,1.2248251466666666
375,1778413164640,-3.1639515222222223,-1.838427088888889,1.6669196888888889,0.2945216988888889,-0.33745068333333333,2.096436311111111
376,1778413164650,-2.8719176099999997,-1.6796376900000003,1.5620941099999999,0.537530309,-0.01016296599999999,2.35257133
377,1778413164660,-1.987267122222222,-1.262309411111111,0.9039585666666667,1.1836438333333332,0.7272645566666668,2.7467001
378,1778413164670,-1.7441689,-1.1512745,0.6711550199999999,1.393816,0.9177674440000001,2.80772886
379,1778413164680,-1.051362177777778,-0.8857021011111111,-0.10077146666666666,1.5311480444444445,0.9050890044444445,2.650848011111111
380,1778413164690,-0.6636870977777778,-0.7730735488888889,-0.5221748022222222,1.5839524,0.41654693333333337,2.2828125666666668
381,1778413164700,-0.593927942,-0.769432076,-0.595982974,1.58800434,0.11846618000000002,2.1342545399999997
382,1778413164710,-0.6147716666666666,-0.9901695333333334,-0.52944148,1.5994272,-0.9265789333333332,1.9560092
383,1778413164720,-0.6365276766666667,-1.0625924666666666,-0.3964899533333333,1.5728892777777777,-1.0608974666666666,2.0453965000000003
384,1778413164730,-0.5401473720000001,-1.17422092,-0.077443546,1.7140221399999997,-0.9088643399999998,2.44143432
385,1778413164740,-0.33988772666666667,-1.4011487999999999,0.14281320333333333,2.1528548333333335,-0.64416386,2.969074
386,1778413164750,-0.2713878,-1.4863977,0.18080322,2.3190053,-0.55457294,3.1246364
387,1778413164760,-0.042146768888888894,-1.5909329666666665,-0.11844187822222223,2.853208144444445,-0.5469713066666667,3.685665666666667
388,1778413164770,0.12201932,-1.651133,-0.3141037,3.2665057,-0.60344076,4.141697
389,1778413164780,0.6681548700000001,-1.53004355,-0.65321189,3.68450845,-1.168779896,4.5237819
390,1778413164790,1.3153207,-1.3835055,-0.8896555733333334,3.982758155555556,-1.8881882444444444,4.8612748888888895
391,1778413164800,1.4933189,-1.3460846,-0.92715776,3.9976900000000004,-1.9515806000000002,4.896704
392,1778413164810,1.84672053,-1.18641984,-0.978614998,3.68847896,-1.72923222,5.024738040000001
393,1778413164820,1.9317014222222224,-1.101517511111111,-0.8982027666666667,3.359829577777778,-1.3947594222222222,5.133848855555556
394,1778413164830,1.9467904400000002,-0.9895333000000001,-0.79704037,2.78894532,-0.66770186,5.3005203199999995
395,1778413164840,1.9134755333333335,-0.9757072733333333,-0.7530825833333333,2.0880540888888888,-0.011936971666666666,5.521541444444445
396,1778413164850,1.9057515,-0.9907589600000001,-0.7421775,1.9665463999999997,0.076432265,5.561993
397,1778413164860,2.0093184600000003,-1.06079358,-0.567337976,1.28948333,0.22604403099999998,5.84481557
398,1778413164870,2.091304311111111,-1.1401004555555554,-0.4678321822222223,1.035750961111111,0.20162201777777777,5.933659899999999
399,1778413164880,2.1744460666666665,-1.2697692333333335,-0.40986132,0.6401933833333334,0.28742909333333333,6.0661458999999995
400,1778413164890,2.2044579,-1.2769038,-0.278186968,0.221722282,0.461342392,6.14571902
401,1778413164900,2.1577682,-1.2632546333333332,-0.16987780066666666,0.15110834,0.49249560000000003,6.1539044
402,1778413164910,2.04471999,-1.2465026099999998,-0.006076572800000001,-0.013759334000000002,0.62847019,6.22897761
403,1778413164920,1.8885620777777778,-1.1982812666666667,0.07203672466666666,-0.014499137444444445,0.6134433333333333,6.427088977777777
404,1778413164930,1.9345438333333331,-1.142536166666667,-0.010447764666666668,0.021608722,0.3711406166666667,6.790814433333334
405,1778413164940,2.09900342,-1.14812182,-0.113747499,-0.08999307299999999,0.29232096500000004,6.957901250000001
406,1778413164950,2.1690152333333335,-1.1434542111111112,-0.13928659266666668,-0.15106592222222223,0.2602972955555556,7.0012170000000005
407,1778413164960,2.3586097666666666,-1.0480388333333335,-0.09566275955555555,-0.3661520377777778,0.18913358888888887,7.0004027777777775
408,1778413164970,2.36551616,-0.9877162399999999,-0.11486645799999999,-0.554374432,0.165631244,6.93224596
409,1778413164980,2.2414859333333337,-0.8328060666666667,-0.02803347888888889,-0.6620057,0.03306211133333333,6.961444366666667
410,1778413164990,2.28035268,-0.750116942,-0.08655992600000001,-0.73921682,-0.1012021152,7.042076280000001
411,1778413165000,2.343050088888889,-0.6899013622222223,-0.15588646333333334,-0.7995142555555556,-0.1927477588888889,7.084292666666666
412,1778413165010,2.6106807555555553,-0.5235027777777778,-0.3456062122222222,-1.0021119222222223,-0.36792519,7.043094311111111
413,1778413165020,2.74465705,-0.349867975,-0.388422055,-1.3565390499999999,-0.48860145,6.827668900000001
414,1778413165030,2.638694033333333,-0.08704437477777777,-0.07934406022222222,-1.9988788222222225,-0.44726745444444443,6.526724877777777
415,1778413165040,2.6836017,0.24566475366666665,0.293076018,-2.4864707333333333,-0.2447376522222222,6.418537122222222
416,1778413165050,2.720616,0.3832236,0.43828773,-2.5281441,-0.2216612,6.413514600000001
417,1778413165060,3.2256319555555555,0.7957815111111111,0.4326505677777778,-2.9445891666666664,0.39575267999999997,6.0622774
418,1778413165070,3.3770598400000003,0.8795268999999999,0.219476222,-3.34712234,0.6603564399999999,5.7596636000000005
419,1778413165080,3.162267733333333,1.0148356,0.3757333133333333,-4.135020177777778,0.7732138722222222,5.3219558777777785
420,1778413165090,3.0499238,1.4161191999999998,0.9533076166666665,-5.160564866666666,1.04999555,4.8329724333333335
421,1778413165100,3.0508182,1.5827143,1.1867765,-5.4364643,1.174812,4.712839
422,1778413165110,3.2218953555555556,1.8837413555555556,1.6447470333333334,-5.762860477777777,1.0754474666666667,3.7588316222222224
423,1778413165120,3.127855266666667,1.8542647,1.6950481,-5.797687222222222,0.9276903044444444,3.528542233333333
424,1778413165130,2.50496932,1.37869626,2.2964085,-5.67416033,-0.405075744,2.83033022
425,1778413165140,2.1353177666666667,1.3595813666666665,3.365297866666667,-5.134120333333333,-1.4439665666666666,2.8927180666666668
426,1778413165150,2.18899366,1.5033621199999998,4.04324176,-4.62892412,-1.95941476,3.1133968
427,1778413165160,4.623044011111111,2.5793070444444446,5.617607355555556,-2.1879106444444445,-2.830734111111111,3.7390130666666668
428,1778413165170,5.852932988888889,3.0859491333333335,5.959266955555556,-1.4161305777777777,-2.4304509444444444,3.3535005333333334
429,1778413165180,7.25266716,3.5921121,6.26547544,-0.19492134400000002,-1.2137992920000003,1.8357181480000002
430,1778413165190,7.654684366666667,3.4800201333333334,6.146293533333333,1.69919888,0.6262457066666667,-1.3629783433333336
431,1778413165200,7.319905377777778,3.2192427555555554,5.822741300000001,2.0874941,0.8852704,-2.0652745
432,1778413165210,5.054039,1.65648694,3.7670307000000003,4.02517795,1.017885368,-3.8877527800000005
433,1778413165220,4.1717408222222225,1.1346936111111112,2.818094611111111,4.621772111111111,0.9245003688888889,-4.420981666666666
434,1778413165230,3.0740725899999997,0.58654337,1.0859353600000001,3.9145536,1.188006299,-4.1416818
435,1778413165240,2.8620775666666667,0.64851344,0.8147629733333334,2.9095673333333334,1.7076743666666667,-3.7140276666666665
436,1778413165250,2.7940655,0.69732726,0.74260426,2.569529,1.9127154000000002,-3.5668135
437,1778413165260,3.2219928,1.138017568,0.7092608599999999,-0.04520270900000001,3.6891890599999995,-2.5812649299999997
438,1778413165270,3.491541711111111,1.1773281333333334,0.8882090222222222,-0.7961206222222222,4.063720711111111,-2.475560411111111
439,1778413165280,3.6596342,1.1087028833333334,1.1053287733333335,-1.0890558,4.133493111111111,-2.745724588888889
440,1778413165290,3.6241201199999997,0.744628826,1.61722848,-1.0430522420000001,4.079345030000001,-3.4190496
441,1778413165300,3.5144938,0.6203715733333334,1.8159291333333332,-0.7646280666666666,4.023880066666667,-3.7128059999999996
442,1778413165310,3.0584072200000003,0.351462575,2.04801581,0.269475264,4.06737228,-4.09886152
443,1778413165320,2.8063526666666667,0.18108778999999997,1.8193439666666664,0.6853960666666666,4.222812666666666,-4.138770066666667
444,1778413165330,2.4329568000000004,-0.15642173000000004,1.2093896933333332,0.9234228733333334,4.331543333333333,-4.077278199999999
445,1778413165340,2.1208370199999997,-0.383952278,0.9192030210000001,0.9867473739999999,4.35825776,-3.9615430199999997
446,1778413165350,2.015988111111111,-0.4463166822222222,0.922387838888889,0.99285585,4.3616786,-3.9058337
447,1778413165360,1.8715657777777777,-0.5501709577777778,1.01533029,1.14638215,4.252676266666667,-3.8450205
448,1778413165370,1.8290153,-0.619938616,1.09861288,1.8054049200000002,3.78882586,-3.62435538
449,1778413165380,1.8529639,-0.66469328,1.0537606666666666,2.3245283,3.4474436666666666,-3.648667
450,1778413165390,1.9154105000000001,-0.730737752,0.749302858,2.9977329,3.011706,-3.7207470000000002
451,1778413165400,1.931423588888889,-0.74767234,0.5678481799999999,3.3938334111111113,2.7844878,-3.87597
452,1778413165410,1.8892836666666666,-0.8281580288888889,-0.02438827833333333,3.8581451555555555,2.4856223333333336,-4.474939866666666
453,1778413165420,1.8407293599999999,-0.855641346,-0.147587878,3.8271412400000004,2.46101198,-4.59401446
454,1778413165430,1.534913388888889,-0.9112625466666666,-0.4878977111111111,3.4012992888888887,2.253161088888889,-4.946038755555556
455,1778413165440,1.1939517444444445,-0.914569,-0.6636871222222223,2.9340011111111113,2.0888430444444444,-5.083614944444444
456,1778413165450,0.9888198860000001,-0.9084006199999999,-0.726200932,2.6100739600000002,2.0262107400000002,-5.03357976
457,1778413165460,0.6497398233333334,-0.8348657555555555,-0.7624496522222222,1.604314,1.8172196999999999,-4.599552533333334
458,1778413165470,0.6071695669999999,-0.7977568899999999,-0.707837007,0.9872971700000001,1.7093644300000002,-4.2333088
459,1778413165480,0.6413382266666666,-0.76369294,-0.56979948,0.5152411888888888,1.7385561555555555,-3.945742388888889
460,1778413165490,0.6832444688888889,-0.709428291111111,-0.3933461077777778,-0.13177332777777778,1.962533377777778,-3.543329733333333
461,1778413165500,0.6856192799999999,-0.69055862,-0.34169065600000004,-0.27094130299999997,2.0208353299999997,-3.45179083
462,1778413165510,0.5437106244444444,-0.6492011666666666,-0.14629918666666664,-0.5323703444444444,1.9131227111111113,-3.0277746666666667
463,1778413165520,0.50807846,-0.6451901,-0.11082964,-0.5508315,1.8650694000000003,-2.9510794
464,1778413165530,0.6148529660000001,-0.5581331900000001,-0.0314317126,-0.446376628,1.452503088,-2.67477798
465,1778413165540,0.9437847666666666,-0.44131640666666666,0.09417215733333334,-0.19040618843333335,0.7264500866666667,-2.455198766666667
466,1778413165550,1.25503669,-0.34174556,0.187949982,0.02686200823,0.378816915,-2.53740599
467,1778413165560,1.2585591555555555,-0.38322697,0.08343305166666666,0.41356903,-0.0015271166666666613,-2.8496788666666664
468,1778413165570,1.2063305444444445,-0.3914184866666666,0.04853941777777778,0.5770724988888889,-0.22892349,-2.951147333333333
469,1778413165580,1.0726236199999999,-0.394584004,0.13932520880000002,0.756457975,-0.463862135,-2.9009899999999997
470,1778413165590,1.1294222111111112,-0.3306290422222222,0.21443663555555556,0.9525399666666667,-0.5616994866666666,-2.7969423333333334
471,1778413165600,1.139914,-0.3225493,0.22083606,0.9836931999999999,-0.53563666,-2.7788205
472,1778413165610,1.39935598,-0.34481280000000003,0.393022916,1.42448054,0.1675096,-2.9229806
473,1778413165620,1.4423097,-0.4019543666666667,0.4194757,1.488253,0.25548688,-2.953523
474,1778413165630,1.46011565,-0.477527875,0.235714985,2.24916254,0.43067786,-3.1881492000000002
475,1778413165640,1.4671621222222224,-0.6138332666666666,-0.11797775777777779,2.970176977777778,0.37609527111111113,-3.4901182444444445
476,1778413165650,1.4581643,-0.6754358,-0.2552893,3.201756,0.31229568,-3.6315633999999997
477,1778413165660,1.4581643,-0.6754358,-0.2552893,3.2017560000000005,0.31229568,-3.6315634
478,1778413165670,1.2469799666666668,-0.7655222933333333,-0.5489785111111112,3.528762888888889,-0.15429831466666666,-4.068183422222223
479,1778413165680,0.6426086011111111,-0.7094113222222221,-0.7942943277777778,3.972102333333334,-1.5055264,-5.198089555555556
480,1778413165690,-0.026032008000000016,-0.77974064,-0.8843138039999999,3.82066644,-1.982123,-5.6056536
481,1778413165700,-0.26480204,-0.848952,-0.9183767399999999,3.6146886,-2.1488843,-5.748225
482,1778413165710,-0.26480204,-0.848952,-0.91837674,3.6146886,-2.1488843,-5.748225
483,1778413165720,-0.26480204,-0.848952,-0.9183767399999999,3.6146886,-2.1488843,-5.748225
484,1778413165730,-1.5325995822222223,-0.7725383111111112,-0.49074341111111114,1.00155195,-1.4410481333333334,-3.8579246
485,1778413165740,-1.79624506,-1.01045528,-0.48758332800000004,-0.16279079999999999,-0.6075945199999999,-2.6396238
486,1778413165750,-1.8728498333333334,-1.1195402222222222,-0.586968531111111,-0.624608311111111,-0.18893844111111113,-2.1647749
487,1778413165760,-1.8819559888888888,-0.78015052,-0.42042085666666673,-2.3001623888888885,0.9216497733333333,-1.2400199555555556
488,1778413165770,-1.8753349799999999,-0.738225978,-0.17349182600000002,-3.2928637000000003,1.50344786,-0.826842864
489,1778413165780,-1.6326867333333333,-0.6524160933333333,0.5890181333333333,-3.5214580666666664,1.8878743333333334,-0.7224286766666667
490,1778413165790,-1.38662057,-0.6025717700000001,1.25979612,-2.60366,1.86115992,-1.25712366
491,1778413165800,-1.3325168,-0.59832764,1.4037405,-2.368102,1.8192558,-1.3945643
492,1778413165810,-1.7156894888888887,-0.7289755011111112,1.3103474777777777,-0.9536173577777777,1.0695426244444444,-2.162908333333333
493,1778413165820,-2.1642115,-0.8767890000000002,1.1862887,0.45836452000000005,0.28480753,-2.9150395
494,1778413165830,-2.3550831111111115,-0.9309588333333334,1.0836269222222221,0.7282232488888889,0.06895786555555554,-2.944428033333333
495,1778413165840,-3.0654838,-1.1471707,0.6103405,2.0429022,-0.9736141599999999,-2.9871194
496,1778413165850,-3.0654838,-1.1471707,0.6103405,2.0429022,-0.97361416,-2.9871194
497,1778413165860,-3.3810543666666666,-1.0210894000000001,0.20287091333333335,0.7831995222222222,0.3141791033333333,-0.9204789444444444
498,1778413165870,-3.2548667399999998,-0.9361217,0.18612061400000002,0.39801281200000005,0.67318422,-0.422095464
499,1778413165880,-3.0449236777777777,-0.8551887666666667,0.3203777566666667,0.19984038444444444,0.4242164488888889,0.21860696999999998
500,1778413165890,-2.750794,-0.7645635555555556,0.4877317377777778,0.4698348733333333,-0.18737738666666667,0.6330498477777778
501,1778413165900,-2.63630017,-0.736637467,0.53935468,0.552312826,-0.290870185,0.674696057
502,1778413165910,-2.0911687,-0.76905909,0.44283073333333334,1.1841868244444445,-0.6303179999999999,0.6628456511111112
503,1778413165920,-1.9630379555555555,-0.8912816711111111,0.24721293555555557,1.1901595666666667,-0.45955225333333327,0.5414906488888889
504,1778413165930,-1.95487018,-1.027944108,0.0837731712,0.8452751599999999,0.0801584336,0.40824450199999995
505,1778413165940,-2.0297592333333334,-1.1573405444444445,-0.04144550755555556,0.7871360777777778,0.14472838311111114,0.4139593133333333
506,1778413165950,-2.123575,-1.2611893799999998,-0.10232913800000001,0.579732247,0.314067126,0.5243054629999999
507,1778413165960,-2.3190174000000003,-1.5506696333333334,-0.09570680333333333,-0.7961884833333334,0.92375378,1.9633395333333334
508,1778413165970,-2.1962461,-1.5999239,0.017182574444444446,-1.0194192155555557,0.7813585111111112,2.529637277777778
509,1778413165980,-1.81217286,-1.6424495000000001,0.15206375119999999,-0.866395202,0.173343194,3.36482148
510,1778413165990,-1.2460381666666667,-1.7206085666666668,0.27004624666666666,-0.4866925533333333,-0.37254045999999996,4.238278666666667
511,1778413166000,-0.8404250766666667,-1.7311884333333334,0.35261203333333335,-0.07597413333333335,-0.550297,4.6800570666666665
512,1778413166010,0.17740669000000003,-1.5913062999999998,0.6083708800000001,1.1061070000000002,-0.7406370160000001,4.9042791999999995
513,1778413166020,0.5164833488888889,-1.5415873444444443,0.6213167666666667,1.9997358555555556,-0.9144977155555556,4.874781766666667
514,1778413166030,0.9872222333333333,-1.4807978333333334,0.221557652,2.6519425333333335,-1.0900823666666666,4.7814578
515,1778413166040,1.3474871499999999,-1.42430565,-0.291434686,3.9659260000000005,-1.74053295,4.415662
516,1778413166050,1.5030754666666666,-1.3861648555555555,-0.6369206288888889,4.424061611111111,-2.157037511111111,4.187171088888889
517,1778413166060,1.4515725,-1.32454074,-1.049420984,4.81512578,-2.5159577,3.89454844
518,1778413166070,1.3296033666666667,-1.3665973888888887,-1.2804032888888888,4.656183244444445,-2.3978045333333333,3.8825622
519,1778413166080,1.0454879,-1.5142347,-1.5646034,3.6199147555555555,-1.6704551555555556,4.407890911111111
520,1778413166090,1.07985574,-1.5458463,-1.477135,2.90195204,-1.26413314,4.921138279999999
521,1778413166100,1.1391010333333333,-1.5431252888888887,-1.3818489666666667,2.4027252666666663,-1.0319161555555556,5.319588888888889
522,1778413166110,1.3675391444444445,-1.4945350666666666,-1.1102985,1.8679963333333331,-0.90621736,5.8378928000000005
523,1778413166120,1.7318755,-1.52471096,-0.952043364,1.6248384000000002,-0.9722702959999999,6.2240297
524,1778413166130,2.1618741444444445,-1.496384777777778,-0.853410228888889,1.4957188888888888,-0.9392030888888888,6.413853855555555
525,1778413166140,2.4047195599999998,-1.40439901,-0.810147851,1.3235686000000002,-0.67295516,6.3852933
526,1778413166150,2.4338615,-1.3838917,-0.80099183,1.252466,-0.5612923,6.3420453
527,1778413166160,2.016391388888889,-1.3918799666666668,-0.6228378255555556,0.7908011777777778,-0.026868794444444444,6.488716588888888
528,1778413166170,1.8411928899999999,-1.40870414,-0.50032189,0.34871744,0.397119439,6.858455569999999
529,1778413166180,1.8728024666666667,-1.3965042333333333,-0.44875586000000006,0.09911845833333333,0.5118391133333333,7.128748788888889
530,1778413166190,2.186885833333333,-1.3492352666666667,-0.39637476,-0.079791925,0.3008422866666667,7.344853099999999
531,1778413166200,2.39910348,-1.3145828600000002,-0.349953356,-0.088832465,0.076554434,7.36130526
532,1778413166210,2.7799182,-1.2085156333333333,-0.19420848000000002,0.08025005166666667,-0.5464283166666667,7.104179033333334
533,1778413166220,2.83278104,-1.16186656,-0.25607592,0.0922226588,-0.58010636,6.89913796
534,1778413166230,2.594372288888889,-1.1527806666666667,-0.36258213888888885,-0.16882290433333336,-0.24853847999999998,6.6484871000000005
535,1778413166240,2.4548587333333334,-1.1567748,-0.37994087,-0.34232897222222225,-0.06087262777777777,6.641564166666666
536,1778413166250,2.3118422,-1.1608604,-0.38709575,-0.65027743,0.219133813,6.76261375
537,1778413166260,2.0628642,-1.1636790444444445,-0.27244137,-1.7507391666666665,0.9433008333333333,7.509781666666667
538,1778413166270,1.9286694111111113,-1.1405984,-0.037349741666666665,-2.1654365666666666,1.2588374222222223,7.87147111111111
539,1778413166280,2.50732934,-0.906888296,0.3512094914,-2.9660603799999996,1.9295748799999999,8.351794000000002
540,1778413166290,2.9349681666666667,-0.7435190233333333,0.67883024,-3.3403079333333334,2.2580478888888886,8.317126888888888
541,1778413166300,3.21655976,-0.617737288,0.84021974,-3.5304987199999998,2.41678674,8.098659119999999
542,1778413166310,4.092627155555556,0.09601170222222222,1.1381693222222224,-3.393519688888889,2.0050212444444444,6.672853111111111
543,1778413166320,4.063692444444445,0.2642193522222222,1.2310711222222224,-3.1742933333333334,1.6164545666666668,6.068589366666667
544,1778413166330,3.5814588799999996,0.566722092,1.4549264000000002,-2.17436427,0.31089836849999997,4.4158683000000005
545,1778413166340,2.9945142666666666,0.6481984,1.4386205333333333,-1.7802634999999998,0.07867203166666666,3.7200089666666667
546,1778413166350,2.7859926888888884,0.6457016444444444,1.3358739777777777,-1.7322102,0.12896512,3.5833828000000003
547,1778413166360,2.59986503,0.769935175,0.9931859600000001,-2.2177114799999997,0.90542828,3.4502180599999996
548,1778413166370,2.5816410555555556,0.8562220444444444,0.9238716555555556,-2.5442297333333332,1.0206748,3.363070433333333
549,1778413166380,2.68957152,1.2238275,1.2370356,-2.77593432,0.78203718,3.19696066
550,1778413166390,2.9692926666666666,1.7351317666666666,1.7538996777777778,-2.9469901555555555,-0.13334286,2.5982981444444446
551,1778413166400,3.048958588888889,1.8442234999999998,1.8659996888888888,-2.8777438222222225,-0.41068449333333334,2.385027611111111
552,1778413166410,3.2589889400000005,2.08332874,2.11927612,-2.56723835,-1.065241225,1.7474049
553,1778413166420,3.2638591,2.1089035,2.204529066666667,-2.3585322,-1.4690112333333334,1.2759326666666668
554,1778413166430,2.988250133333333,2.126059055555556,2.5050073,-2.1010261333333333,-1.859953477777778,1.1205738333333335
555,1778413166440,2.86675256,2.3987741,3.16941062,-1.44340154,-2.6120591400000004,1.1820658
556,1778413166450,3.003224,2.789309,3.8319920000000005,-0.8672504,-3.1538043,1.3873105
557,1778413166460,3.2845117599999996,2.8847536,3.89561463,-0.25002741,-3.23669632,1.45346525
558,1778413166470,5.2200505,3.5032024666666666,4.1914641,0.9904973222222223,-3.397396722222222,1.39769487
559,1778413166480,6.897953366666666,3.3610192666666667,2.4045712333333333,2.880043066666667,-2.1670316,-1.7038310950000002
560,1778413166490,6.21875004,2.8942481,1.142761848,2.54393448,-1.56112708,-3.5913542
561,1778413166500,5.746710611111111,2.6771006,0.7075074222222222,1.9995321333333331,-1.2132699222222223,-3.9627782000000003
562,1778413166510,4.016931511111111,1.7990141444444443,-0.28369542444444446,-0.83485,0.5219944466666666,-4.363154566666667
563,1778413166520,3.6801536399999994,1.5852693,-0.383284572,-1.80357234,1.1369394759999998,-4.29469896
564,1778413166530,3.0297431111111113,0.9741456222222222,0.1319995644444444,-3.6812966,2.4592456,-3.878549333333334
565,1778413166540,2.72251244,0.62860378,0.944390516,-5.20037185,3.7960341,-3.2720797000000004
566,1778413166550,2.6475629,0.5212093066666666,1.3714418333333331,-5.227554466666667,4.110416866666666,-3.035172766666667
567,1778413166560,2.5847748333333334,0.3526594755555556,1.7725187333333334,-4.369857111111111,3.9586551111111112,-2.8418735555555554
568,1778413166570,2.65146572,0.29573677600000003,1.8537057000000001,-3.74570006,3.70495667,-2.8295209
569,1778413166580,2.626924888888889,0.16057847555555557,1.9095152777777775,-2.687795877777778,3.4399778111111114,-2.9899700555555553
570,1778413166590,2.3861046666666668,0.09981273666666667,1.8290905,-1.9683365666666666,3.3703411777777776,-3.0809184444444444
571,1778413166600,2.23510606,0.07793138000000001,1.7945376200000003,-1.5898827,3.3562238,-3.1178408
572,1778413166610,2.1274546555555554,0.18053898,1.7306123666666666,-0.6006495122222222,3.572599566666667,-2.9972322555555553
573,1778413166620,2.19299992,0.21226238400000003,1.5786103,-0.257823356,3.64222264,-3.01240848
574,1778413166630,2.2574454,0.1986362588888889,1.252884711111111,0.1329186711111111,3.5533919,-3.2127935555555553
575,1778413166640,2.234225933333333,0.12634883666666666,0.9056219333333334,0.42748279333333333,3.3681014222222223,-3.6115410555555556
576,1778413166650,2.18363665,0.0848067745,0.79799167,0.505399752,3.2920237200000004,-3.8429164300000003
577,1778413166660,1.7074877666666666,-0.14324006833333336,0.3559658866666667,0.33850271,3.391788866666667,-4.108295655555556
578,1778413166670,1.5271114555555556,-0.2342480955555556,0.17289965222222223,-0.11410965777777779,3.555631577777778,-4.019179777777778
579,1778413166680,1.41955538,-0.332150486,0.125232914,-0.6568135300000001,3.8003098,-3.8184825000000004
580,1778413166690,1.3800906777777777,-0.4237713355555555,0.25266040666666667,-1.1493939777777777,4.109805844444445,-3.5353209444444444
581,1778413166700,1.41916207,-0.5107919940000001,0.476863208,-1.360815,4.3665652999999995,-3.25803025
582,1778413166710,1.7153135333333334,-0.6184914,0.9729124333333333,-1.2290756666666667,4.643279133333333,-2.974088
583,1778413166720,1.9260846555555555,-0.6396985866666667,1.0966696333333334,-0.942588261111111,4.7789552,-2.8476426111111106
584,1778413166730,2.48774883,-0.6501659909999999,0.9924298200000001,-0.407244225,4.8518835000000005,-2.8982411499999996
585,1778413166740,2.6358753333333333,-0.7222203388888889,0.8546196388888889,0.22909316666666665,4.8493381555555555,-3.1369806666666666
586,1778413166750,2.5563720444444447,-0.8207558899999999,0.7523982566666666,0.6351708444444445,4.810108144444445,-3.3334020444444445
587,1778413166760,2.27299232,-1.01485187,0.554495786,1.50718928,4.678708179999999,-3.45942656
588,1778413166770,2.1198491333333336,-1.1043936666666667,0.4547115133333333,2.0931274444444443,4.479232711111111,-3.3904143777777778
589,1778413166780,2.0392195,-1.14436545,0.307780156,2.69815051,4.3334576,-3.27794384
590,1778413166790,1.9137295444444444,-1.1976409666666668,0.01585457444444445,3.0881383555555555,4.275956444444445,-3.155102488888889
591,1778413166800,1.7982079444444443,-1.2410310999999998,-0.2983642833333333,3.2210994,4.2226089,-3.016236533333333
592,1778413166810,1.7925070399999998,-1.1803798,-0.5127189299999999,3.19576956,3.9246783800000005,-2.70863424
593,1778413166820,1.844569,-1.1048002333333333,-0.5235874666666667,3.178815222222222,3.794405077777778,-2.6351272666666667
594,1778413166830,2.0651543777777777,-0.9547847444444445,-0.5770390777777777,3.1546527777777778,3.6095219666666662,-2.5930465555555555
595,1778413166840,2.39144444,-0.8225358199999999,-0.713383108,3.0192958,3.5063090299999997,-2.70262486
596,1778413166850,2.4314223333333334,-0.7949244566666667,-0.7296462333333333,2.9714665,3.5266502,-2.7574408
597,1778413166860,2.3029513799999997,-0.761440788,-0.687704736,2.85039646,3.4179195200000003,-3.3125788
598,1778413166870,2.1167563,-0.7734970400000001,-0.6807883777777778,2.953208833333333,3.1977429555555554,-3.503760444444444
599,1778413166880,1.892339488888889,-0.7972653666666667,-0.7813497755555555,3.0987942888888886,2.797171533333333,-3.573668588888889
600,1778413166890,1.78460408,-0.71827966,-1.013351834,3.1467796399999997,2.39675088,-3.6237445299999997
601,1778413166900,1.7666985444444443,-0.6858699088888889,-1.0703572111111113,3.145693644444444,2.2273696666666667,-3.658169155555555
602,1778413166910,1.6131598666666667,-0.6629689,-1.2429214222222222,3.0455827,1.8430788999999999,-3.8364007000000004
603,1778413166920,1.38482165,-0.7335184299999999,-1.46321035,2.79920758,1.6820595400000002,-3.8930059800000003
604,1778413166930,1.1430036533333334,-0.8011138400000001,-1.5843912333333334,2.438383488888889,1.5654149333333334,-3.8632101999999997
605,1778413166940,0.7795211240000001,-0.637646984,-1.53254672,1.61121655,1.56379959,-3.6054190999999998
606,1778413166950,0.6889427,-0.51923764,-1.4931054,1.4570998,1.6121787,-3.536882
607,1778413166960,0.6420801466666667,-0.52818802,-1.6945330888888888,1.0284207444444444,1.9725106222222222,-3.4024277555555553
608,1778413166970,0.34253827000000003,-0.67625898,-2.0467108400000003,0.43136503479999994,2.45606402,-3.44714849
609,1778413166980,-0.7786802433333333,-0.8624690111111111,-2.100363022222222,-0.155995128,1.9790941666666666,-3.819297033333333
610,1778413166990,-1.4076837333333334,-0.9983204833333333,-2.026764533333333,-0.24384683333333335,1.1625271444444443,-3.8159033666666664
611,1778413167000,-1.76814588,-1.10647924,-2.03201484,-0.291099244,0.726572262,-3.6352282799999998
612,1778413167010,-2.331884177777778,-1.3621763,-2.2308821777777776,-0.7534291666666666,0.4703015,-3.0225230666666665
613,1778413167020,-2.38863946,-1.3633295799999998,-2.07093794,-1.52464424,0.45071365199999996,-2.39256652
614,1778413167030,-2.390498611111111,-1.2793937666666666,-1.5542302222222222,-2.2301185555555554,0.6338727866666667,-1.8632198777777778
615,1778413167040,-2.3959732333333332,-1.2046129666666667,-1.1865936,-2.6321917333333333,1.07056072,-1.6423647
616,1778413167050,-2.52072034,-1.21251587,-0.9883533999999999,-2.77565942,1.31921632,-1.5883251
617,1778413167060,-2.9695838222222224,-1.2841670666666665,-0.7054578444444445,-2.6285946444444446,1.1237044933333333,-1.5010553444444446
618,1778413167070,-3.23090804,-1.23991992,-0.49408372400000006,-2.2730542799999998,0.519495064,-1.28815468
619,1778413167080,-3.2349753333333333,-1.0656245055555555,-0.15544268444444442,-1.7619379444444443,-0.10868838888888889,-0.8896650888888887
620,1778413167090,-3.03641814,-0.836338449,0.166342017,-1.19057186,-0.406931173,-0.36308761599999995
621,1778413167100,-2.9622462,-0.7901376,0.20742063,-1.0877663,-0.37742725,-0.25166908
622,1778413167110,-2.6856648222222224,-0.6651234977777778,0.2992349322222222,-0.5834779166666667,0.11733358422222222,-0.08999816733333334
623,1778413167120,-2.60521305,-0.647979855,0.30930157999999996,-0.294886525,0.402701065,-0.1331647
624,1778413167130,-2.6631365000000002,-0.7738933666666666,0.12806641688888887,-0.013930713333333325,0.7905890444444444,-0.2437959111111111
625,1778413167140,-2.85357209,-0.9576565,-0.14646586888,0.290198265,1.4385147200000001,-0.230289412
626,1778413167150,-2.936699266666667,-0.988123388888889,-0.23163954,0.32336727,1.5578132,-0.18814096
627,1778413167160,-3.30899184,-0.942073236,-0.509639488,0.76378815,0.5129208000000001,0.370249815
628,1778413167170,-3.5774477222222223,-0.9748265311111111,-0.6538795944444444,1.108645388888889,-0.553487,0.7012611666666666
629,1778413167180,-3.216711966666667,-1.0867402333333331,-0.6343154666666666,1.6782943777777777,-2.6079445000000003,1.4872179111111112
630,1778413167190,-2.56528388,-1.1782150599999999,-0.50712106,1.9318503,-3.7094310800000003,2.19985944
631,1778413167200,-2.158229,-1.2249359666666666,-0.4226974333333333,1.9046472555555556,-3.6777756,2.432470088888889
632,1778413167210,-1.53467486,-1.2720681,-0.312743856,1.75629282,-3.03994252,2.74149784
633,1778413167220,-1.2776761666666667,-1.2896992333333333,-0.19086478999999998,1.9044436333333334,-3.0638062666666666,2.9006591000000004
634,1778413167230,-0.9985643833333333,-1.3332248333333334,-0.10159806666666665,2.057910533333333,-3.1482389000000004,2.9754539111111113
635,1778413167240,-0.81078513,-1.37595226,-0.07811431599999999,2.68662854,-3.47217796,3.0652620500000003
636,1778413167250,-0.74681187,-1.3980694,-0.08323657,2.801651,-3.5337515,3.0721035
637,1778413167260,-0.36467575,-1.5108672666666667,-0.23857083222222222,4.270942288888889,-4.261881144444445,3.204046566666667
638,1778413167270,-0.196566346,-1.6557734400000002,-0.464783202,5.2524158,-4.3967562000000004,3.54270036
639,1778413167280,-0.13702357377777777,-1.7287695555555556,-0.6271165166666667,5.6436602222222225,-4.009737188888889,4.118009955555555
640,1778413167290,0.0670923315,-1.8971381,-1.13960915,5.6063716,-3.6157271399999997,4.8908401999999995
641,1778413167300,0.2604826788888889,-1.9460620333333334,-1.3813339333333334,5.547486,-3.4134145,5.325519
642,1778413167310,0.9968263866666667,-1.7494923333333334,-1.7534254999999999,4.903932566666666,-3.0248476666666666,6.119493311111111
643,1778413167320,1.3846996500000002,-1.60038305,-1.8806585500000002,4.588134719999999,-2.89114006,6.3096705
644,1778413167330,1.9869351333333336,-1.3435540000000001,-2.0103306666666665,3.864593,-2.6429325,6.383175666666666
645,1778413167340,2.3056629333333336,-1.1572727666666667,-2.008298133333333,2.8705664444444445,-2.242377888888889,6.292430944444444
646,1778413167350,2.3389351,-1.09149656,-1.93649724,2.18138144,-1.94516674,6.15127779
647,1778413167360,2.178999033333333,-0.9957796266666666,-1.3946647333333333,0.9399158000000001,-1.5319285999999999,6.018296
648,1778413167370,2.1311426399999998,-1.0049366640000001,-1.12746824,0.512119092,-1.42784026,6.0248932
649,1778413167380,2.115878888888889,-1.128456711111111,-0.6580905755555555,0.09009148766666666,-1.3404618666666668,6.1288597777777785
650,1778413167390,2.1438548,-1.1704443333333332,-0.3997692666666667,-0.001807090333333334,-1.2442194666666666,6.185872
651,1778413167400,2.1765843400000002,-1.1879352,-0.259149266,0.010613470500000001,-1.160228,6.189028
652,1778413167410,2.276027088888889,-1.1906453222222224,-0.08951064333333333,0.1833475022222222,-1.1708499555555556,6.042254988888889
653,1778413167420,2.2927353222222226,-1.1762000222222222,-0.001707416666666668,0.2878023822222222,-1.206211222222222,5.944519422222222
654,1778413167430,2.26377232,-1.16529966,0.092170012,0.595316462,-1.23395726,5.71898106
655,1778413167440,2.1493835333333333,-1.1850081666666668,0.08969019333333333,0.9891907822222221,-1.1914151444444445,5.4755246
656,1778413167450,2.09163115,-1.19266716,0.067757004,1.07721388,-1.17562136,5.4316997
657,1778413167460,1.9264707555555556,-1.162838788888889,-0.0917092768888889,1.4898818999999999,-1.2191748333333334,5.307219
658,1778413167470,1.8886636666666665,-1.162459388888889,-0.14447658666666668,1.6318699222222222,-1.288268377777778,5.278823200000001
659,1778413167480,1.8325764,-1.16001274,-0.26526548,1.8123685200000001,-1.45459526,5.32751978
660,1778413167490,1.842133311111111,-1.1248387000000002,-0.4266813888888889,1.8474311444444445,-1.5080376444444445,5.444914166666667
661,1778413167500,1.8876915666666667,-1.0937427333333334,-0.49040462,1.7925906333333335,-1.4556405333333333,5.497854211111111
662,1778413167510,2.1186479799999995,-0.96966632,-0.650373292,1.40865958,-1.1527146,5.66803636
663,1778413167520,2.2696244444444442,-0.9107814333333333,-0.7499218111111111,1.1229663666666667,-0.9721888799999999,5.7197955
664,1778413167530,2.3690203333333333,-0.8165821666666666,-0.8596436999999999,0.5984521666666667,-0.6767423966666667,5.690067533333334
665,1778413167540,2.3932922,-0.67301791,-0.910498292,0.033779849999999986,-0.501307072,5.64457992
666,1778413167550,2.3889505,-0.5372976,-0.8283207066666667,-0.3016737144444444,-0.45914505111111104,5.621585
667,1778413167560,2.4319948333333334,-0.13133557222222222,-0.5561469444444445,-0.8505539177777777,-0.4231050444444444,5.5738030555555556
668,1778413167570,2.55731382,0.21909815,-0.472838576,-1.0593007799999998,-0.373151308,5.5285189
669,1778413167580,2.798259333333333,0.6383976655555555,-0.6517419466666667,-1.6084796333333333,-0.02750509111111111,5.230124999999999
670,1778413167590,2.9138283666666664,0.7684187866666667,-0.8563914399999999,-2.168151477777778,0.26356362666666666,4.920052111111111
671,1778413167600,2.91184067,0.734634302,-0.9563272100000001,-3.00596414,0.440573584,4.48303846
672,1778413167610,2.748842611111111,0.8164670055555555,-0.6653267555555556,-4.044750477777778,0.16619287555555556,4.095001022222222
673,1778413167620,2.7393975,0.95258605,-0.4673748,-4.3338847,-0.02985516,4.048848
674,1778413167630,3.0033032,1.09666768,0.203563726,-5.08260035,0.208726513,3.88355301
675,1778413167640,3.1486220666666664,1.255296888888889,0.6172718088888889,-5.841786766666666,0.7580784266666667,3.575306
676,1778413167650,3.2251374333333334,1.4335288333333334,0.86153404,-5.948769877777777,0.8035526111111111,3.4149925333333337
677,1778413167660,3.3124676600000003,1.86349282,1.724747,-5.6078299000000005,-0.5985310399999999,2.70328172
678,1778413167670,3.3172972,1.9319724000000003,1.8915738000000002,-5.0496622222222225,-1.549371722222222,2.494233622222222
679,1778413167680,3.8142098666666664,2.5121214,2.9492405777777773,-3.9212914444444444,-2.1144054444444444,2.434166955555556
680,1778413167690,5.15747759,3.5208425599999997,3.9974679899999996,-2.56976578,-1.9686843500000002,2.21794068
681,1778413167700,6.0679181444444446,3.893086333333333,4.0415704111111115,-1.8393121333333333,-1.7339153999999999,1.7662394666666665
682,1778413167710,6.893474811111111,3.861495722222222,3.6626357444444446,-0.2952258755555556,-0.6772853866666666,-0.7074884
683,1778413167720,6.9545828499999995,3.5402216500000003,3.3071746500000003,-0.070972815,-0.42568418,-1.3172921
684,1778413167730,6.040383,2.584324111111111,2.835012877777778,0.3934789688888889,0.25891438888888885,-2.7828588666666665
685,1778413167740,5.219312111111112,1.9721474444444445,2.353399533333333,0.82568732,0.9507667111111111,-4.115082733333334
686,1778413167750,4.29028096,1.3549326000000002,1.7543768,0.753831319,1.1668098299999998,-4.2284832
687,1778413167760,3.417045566666667,0.7923870000000001,1.2231845222222222,-0.06050781111111111,1.9634157333333333,-3.7835964888888887
688,1778413167770,3.1699172777777775,0.6877196377777778,1.1677545,-0.3572608044444444,2.2643598444444444,-3.5169955555555554
689,1778413167780,3.00487666,0.666941341,1.39796875,-0.9475768,3.035491,-2.7057861
690,1778413167790,3.372385177777778,0.7525303555555556,1.6542867777777779,-0.8081339444444445,3.3296182,-2.264207211111111
691,1778413167800,3.646364644444444,0.7955341955555556,1.7301042222222223,-0.5449012000000001,3.3676264333333332,-2.2550445
692,1778413167810,3.9763144400000003,0.7818352120000001,1.57724145,0.36197282399999997,3.3141977,-2.66763114
693,1778413167820,4.029198466666667,0.7419132333333334,1.301387,0.8790347266666667,3.1302103333333333,-3.190735233333333
694,1778413167830,4.036272,0.7322379,1.203363,1.0901164,3.0320674666666667,-3.4708426
695,1778413167840,3.7245589699999995,0.5463733550000001,0.739186404,1.2231452,2.9115272,-3.9540906
696,1778413167850,3.385644533333333,0.40171042,0.6304229733333333,1.1123104555555556,2.9551686888888886,-4.147118322222223
697,1778413167860,2.5448467200000002,0.064912322,0.655388854,0.543944208,3.3430908,-4.39726025
698,1778413167870,2.3707853777777776,0.04479936088888889,0.7989863222222222,0.43433784999999997,3.4679411888888887,-4.340281777777777
699,1778413167880,2.153885888888889,0.13606146744444444,1.2031596000000002,0.41194010999999997,3.9906904333333335,-3.8315140000000003
700,1778413167890,2.2789642666666667,0.16896311,1.1725379,0.7004636266666666,4.214056966666667,-3.579030533333333
701,1778413167900,2.3901638,0.173064974,1.1092598280000001,0.9026947919999999,4.25844524,-3.5179458400000003
702,1778413167910,2.7820831,0.1636545388888889,0.8267792755555556,1.6737468666666666,3.9733832,-3.762284666666667
703,1778413167920,2.93020762,0.144124264,0.69208916,2.02921932,3.80067644,-3.9799906
704,1778413167930,3.020802955555556,-0.013059705555555544,0.3365948388888889,2.260593,3.742279466666667,-4.258089
705,1778413167940,3.0027870222222224,-0.2205751911111111,-0.07105089888888888,2.559687577777778,3.7105153777777775,-4.857398155555555
706,1778413167950,2.9680696,-0.2961758,-0.20870121,2.5909088,3.7135696000000005,-5.1030946
707,1778413167960,2.8353382666666667,-0.39081207777777777,-0.33179442666666664,2.5567013333333337,3.7054248,-5.4267754888888895
708,1778413167970,2.4698562444444443,-0.5972130611111112,-0.6195788555555556,2.4097585111111113,3.6575074,-5.689652033333333
709,1778413167980,1.9539615400000003,-0.8040590739999999,-0.78010044,2.1635446099999998,3.54112748,-5.745415530000001
710,1778413167990,1.8182971666666665,-0.8561068333333333,-0.8897368666666667,1.7629984555555556,3.393349911111111,-5.523433600000001
711,1778413168000,1.7878787444444444,-0.8834593933333333,-0.9497403333333333,1.5896536,3.344821533333333,-5.395893888888889
712,1778413168010,1.7534132599999999,-0.956866834,-0.9961678599999999,1.00788271,3.34412916,-5.12850544
713,1778413168020,1.6904238,-0.9928628,-0.9969484333333334,0.6756904111111112,3.4491405888888886,-5.0063089
714,1778413168030,1.6636641,-1.0068575,-0.9976802,0.5377747,3.5083249,-4.9552693
715,1778413168040,1.6477722555555556,-1.0148559333333333,-0.9888958055555555,0.4568628844444445,3.535337933333333,-4.9167180777777775
716,1778413168050,1.5206375,-1.0788434,-0.91862065,-0.19043164,3.7514422000000005,-4.6083083
717,1778413168060,1.5206375,-1.0788434,-0.9186206499999999,-0.19043164,3.7514422000000005,-4.6083083
718,1778413168070,1.3195993666666668,-1.0699269555555555,-0.5335914566666666,-0.05612159397777778,3.5715814888888886,-4.517699177777778
719,1778413168080,1.2236506600000001,-1.04616776,-0.32841856599999997,0.41920920357,3.03288722,-4.45840616
720,1778413168090,1.2106227999999999,-0.9923071977777779,-0.32767835,1.2585744666666665,2.0951551999999998,-4.442972166666667
721,1778413168100,1.21805278,-0.969776088,-0.359609411,1.5495210099999999,1.74375512,-4.4559628799999995
722,1778413168110,1.1843475333333333,-0.9247694000000001,-0.4167722933333333,2.0412055444444444,1.1119625444444443,-4.539485822222222
723,1778413168120,1.1276471333333333,-0.8862813833333333,-0.42197582666666666,2.273395311111111,0.837556388888889,-4.571114166666667
724,1778413168130,0.9505982,-0.85451326,-0.45265749299999997,2.62307738,0.53659877,-4.52730995
725,1778413168140,0.7883623888888889,-0.8383009666666666,-0.5753214966666667,2.846921422222222,0.39808577333333334,-4.398923444444445
726,1778413168150,0.7806044755555556,-0.8244993422222222,-0.6312665000000001,2.9081418666666665,0.32639606,-4.344082888888889
727,1778413168160,0.799613702,-0.749650422,-0.92984387,3.01789084,-0.09240592599999999,-4.2731974
728,1778413168170,0.7369230666666667,-0.7624022066666667,-1.0476424333333334,3.030650777777778,-0.2933339588888889,-4.2905996
729,1778413168180,0.5460196589999999,-0.8082331679999999,-1.1793798599999998,2.9332886,-0.7815027139999999,-4.20673688
730,1778413168190,0.4431423855555556,-0.7891653222222222,-1.2692000888888888,2.730657,-1.2143558844444444,-4.033840111111111
731,1778413168200,0.36991996,-0.7499726444444446,-1.3350168555555555,2.5539100222222224,-1.4273379666666666,-3.9008791444444437
732,1778413168210,-0.06057671200000001,-0.77350244,-1.40319162,1.77559564,-1.6598399799999999,-3.35423873
733,1778413168220,-0.22379355,-0.6566542,-1.2158636,1.4015127333333333,-1.7133502333333335,-3.0072774666666664
734,1778413168230,-0.22379355,-0.6566542,-1.2158636,1.2371948,-1.7347299,-2.8527331
735,1778413168240,-0.29451718800000004,-0.598223944,-1.20781436,0.998964344,-1.5690681000000002,-2.74859884
736,1778413168250,-0.34166628,-0.55927044,-1.2024482,0.84014404,-1.4586269,-2.679176
737,1778413168260,-1.572445416,-1.083666888,-1.53746772,-1.105404542,-0.771179407,-2.14981585
738,1778413168270,-2.1892707555555555,-1.3335398888888887,-1.4202962666666668,-2.5395974666666667,-0.35686207,-1.2756526933333334
739,1778413168280,-2.4365752,-1.428559,-1.2595552,-2.9472616,-0.24792764,-0.93642884
740,1778413168290,-2.4365752,-1.428559,-1.2595552,-2.9472616,-0.24792763999999998,-0.9364288399999999
741,1778413168300,-2.4365752,-1.428559,-1.2595552,-2.9472616,-0.24792764,-0.93642884
742,1778413168310,-2.1198392,-1.2699894444444444,-0.2612618333333334,-4.620007544444444,0.85808766,0.41562218222222225
743,1778413168320,-1.85996826,-1.05000034,0.99546052,-5.82479501,1.88400569,1.117132732
744,1778413168330,-2.0312194,-0.8694884222222222,1.6959018,-4.691231,1.4643536,0.40445724
745,1778413168340,-2.2812813333333337,-0.6607905999999999,2.0856806,-3.5556911111111114,0.9074645166666665,0.05860740111111112
746,1778413168350,-2.3836145,-0.5775642,2.2112875,-2.00684696,0.17775655799999998,-0.396684202
747,1778413168360,-2.7801215,-0.67608621,1.9409464666666665,-0.6086329100000001,-0.43362518666666666,-0.7922688666666667
748,1778413168370,-2.930618133333333,-0.7752485,1.7858968000000002,0.5198564466666666,-0.8825978999999999,-1.1092985666666668
749,1778413168380,-3.45118912,-0.9889356999999999,1.30473464,1.6456071600000002,-1.25142752,-1.2151584100000001
750,1778413168390,-3.644396188888889,-1.0512096666666666,1.1485629,2.048060488888889,-1.4138993222222223,-1.0531685555555557
751,1778413168400,-3.760036422222223,-1.0599940888888888,0.9738372244444444,2.2400701888888888,-1.5036938666666666,-0.6096086399999999
752,1778413168410,-3.7429621000000006,-0.9692639,0.67354536,2.28956244,-1.42405298,0.418018056
753,1778413168420,-3.141626333333333,-0.7073177,0.69403441,2.170162,-0.8748605233333333,1.1989659
754,1778413168430,-2.1729317333333333,-0.5234858466666666,0.47048474333333334,2.031296133333333,0.31267743000000003,1.7340681
755,1778413168440,-1.4436818900000001,-0.387970835,0.1305899321,1.87620206,1.225084679,1.7203443399999998
756,1778413168450,-1.2041184444444444,-0.35870997666666665,-0.03120100433333333,1.7832921777777777,1.5986720777777779,1.6021929
757,1778413168460,-0.909768511111111,-0.4893883,-0.39063931333333335,1.5207635777777777,2.3365756444444443,1.1814549333333333
758,1778413168470,-0.8728313759999999,-0.61778604,-0.607267124,1.31519996,2.69698235,0.9507990100000001
759,1778413168480,-0.9734307666666666,-0.7615790166666667,-0.9356237,0.9143959277777779,2.6041268111111107,0.8642894666666666
760,1778413168490,-1.2858711222222223,-0.9113776555555556,-1.0021384444444446,0.6304198311111111,1.7718134444444444,1.040145622222222
761,1778413168500,-1.5468890800000001,-1.03101738,-0.9552264879999999,0.5856650919999999,0.9055352720000001,1.34284082
762,1778413168510,-1.5111585888888888,-1.2342962222222222,-0.5633899211111112,0.9481961777777776,-1.5471997977777778,2.617141166666667
763,1778413168520,-1.1480344222222223,-1.3256769333333334,-0.32419236333333334,1.1763815777777777,-2.2118355000000003,3.0826237444444446
764,1778413168530,-0.12051922400000001,-1.54190104,0.019342593999999998,1.79172194,-2.61387649,3.86834289
765,1778413168540,0.46139887333333335,-1.6531757333333335,0.026078757999999997,2.1999578888888887,-2.0677434777777774,4.124797111111111
766,1778413168550,0.6798194855555555,-1.6942011,-0.0866954378888889,2.403853577777778,-1.5616565444444444,4.179705633333334
767,1778413168560,0.715246008,-1.6274363600000001,-0.585970147,2.61766377,-0.9938332000000001,4.34455939
768,1778413168570,0.7296123555555556,-1.5409266333333334,-0.7259298555555556,2.669232911111111,-1.1689495555555558,4.491712622222222
769,1778413168580,0.9298814666666667,-1.4249714333333334,-0.8759860600000001,2.710227466666667,-1.7045947333333333,4.677410266666667
770,1778413168590,1.1327703999999998,-1.3930842700000001,-1.006766058,2.60074321,-2.1461966099999996,4.77850536
771,1778413168600,1.2036441444444443,-1.3890951666666667,-1.0357853555555556,2.489295822222222,-2.246823522222222,4.809353111111111
772,1778413168610,1.4809400444444443,-1.287578488888889,-0.8213147888888889,1.5610116444444444,-1.9226672333333334,4.983919611111111
773,1778413168620,1.56010013,-1.31011603,-0.654178401,1.0385472290000002,-1.4321772300000002,5.08380697
774,1778413168630,1.5806985666666666,-1.324047411111111,-0.5736886322222222,0.86885387,-1.258269,5.1166096
775,1778413168640,1.5867695,-1.3119059,-0.33267185,0.36768763000000004,-0.7657903777777778,5.281673955555555
776,1778413168650,1.6298146299999998,-1.29321572,-0.21855849200000002,0.205534826,-0.59617164,5.36748435
777,1778413168660,1.803347122222222,-1.2507064888888888,0.004631028855555556,0.14907217666666667,-0.4865652866666667,5.4355481333333335
778,1778413168670,1.832051433333333,-1.2281034555555557,0.006880482966666667,0.22373129000000003,-0.5399804733333333,5.345346044444444
779,1778413168680,1.7086728999999998,-1.230651,-0.04668870175,0.24884390500000003,-0.54864775,5.246605300000001
780,1778413168690,1.604009611111111,-1.2260301666666666,-0.08281648666666667,0.22345980444444447,-0.5669256555555555,5.261516
781,1778413168700,1.5323184555555556,-1.198281288888889,-0.11370920777777778,0.14024882955555557,-0.5609529222222222,5.338228333333333
782,1778413168710,1.5778542100000001,-1.09326809,-0.276836283,-0.2937640681,-0.283112437,5.65594186
783,1778413168720,1.6612148,-1.0480897,-0.36635269,-0.6067579666666667,-0.09087201277777777,5.780880411111111
784,1778413168730,1.7992615333333335,-1.0079958,-0.44720089333333335,-1.2146188466666665,0.08152266166666666,5.855403566666667
785,1778413168740,1.8649381200000001,-0.96210488,-0.363996836,-1.6631843499999999,0.083762433,5.85489465
786,1778413168750,1.8710848,-0.9407255999999999,-0.28873634,-1.888587,0.046500746,5.8411508
787,1778413168760,1.9797699333333334,-0.8882530166666666,-0.029483427999999996,-2.0938316666666665,-0.3231297126666667,5.833005755555556
788,1778413168770,2.12538325,-0.8873992749999999,0.035718547,-2.09181591,-0.72383872,5.80816485
789,1778413168780,2.3878087555555556,-0.6436520422222223,0.18951308777777778,-1.8110772777777777,-1.2104871666666668,5.714094222222222
790,1778413168790,2.4538626666666667,-0.38712624666666673,0.16656459666666668,-1.7190429666666667,-1.3068653,5.649072955555556
791,1778413168800,2.44402977,-0.25639910600000004,0.1348188426,-1.6440647800000001,-1.3224079899999999,5.4880198700000005
792,1778413168810,2.2876370555555554,0.2249081011111111,0.094924236,-1.8157604777777776,-1.274626188888889,5.323245333333333
793,1778413168820,2.2340430555555555,0.3858660033333334,0.06206324311111111,-2.0102135555555556,-1.1560539333333333,5.303867888888889
794,1778413168830,2.43175176,0.6137187479999999,0.0488809018,-2.47170184,-1.0476489199999999,5.28556968
795,1778413168840,2.7054831333333333,0.7423739666666668,0.07416422166666667,-2.8984872444444445,-1.0019846888888888,5.211833644444444
796,1778413168850,2.8763263,0.7544343,0.09857283,-3.157053822222222,-0.9900392177777777,5.103781544444444
797,1778413168860,2.91490786,0.9905425290000001,0.464566731,-3.7706837999999996,-0.868548455,4.61082765
798,1778413168870,2.8515078000000003,1.2735092666666665,0.9515087666666666,-4.1141834,-0.7716273499999999,4.325155
799,1778413168880,3.2094451999999998,1.7137789,1.6936557666666667,-4.053913233333334,-0.72744275,4.097716066666667
800,1778413168890,3.6401819000000004,2.0246912999999997,2.0272677000000003,-3.7125311400000003,-0.86353952,3.7644376999999998
801,1778413168900,3.8859282,2.1562233,2.062163,-3.5214581,-0.9607864000000002,3.6053730999999996
802,1778413168910,4.327285155555555,2.522389755555556,2.3057308,-2.726890066666667,-1.6176508222222223,2.344864455555556
803,1778413168920,4.0809242,2.62981805,2.45630195,-2.1463645,-1.9918965500000003,1.3723447500000001
804,1778413168930,3.596585333333333,2.5899750444444445,2.7984694444444447,-1.9279526777777778,-1.8792291333333335,1.0031554444444444
805,1778413168940,3.2857474,2.678337244444444,3.318489677777778,-1.7711007333333333,-0.9829804799999999,1.0067526333333334
806,1778413168950,3.3166691399999997,2.78055254,3.56598862,-1.68444188,-0.585115326,1.06453878
807,1778413168960,3.7752915999999996,2.6721851555555554,3.776260222222222,-0.9001682888888889,-0.0016883144444444437,0.6460134200000001
808,1778413168970,3.9204354888888893,2.6980267777777778,3.779952888888889,-0.6493815444444445,0.06217916,0.42902688222222224
809,1778413168980,3.8352299199999997,2.73730604,3.7769825600000004,0.22266908000000002,0.0851062964,-0.24088761199999995
810,1778413168990,3.834990088888889,2.7324391555555554,3.660254233333333,1.0217692666666667,0.26849282333333335,-0.7611156666666666
811,1778413169000,3.8637315999999995,2.7334216,3.6247847,1.1773317,0.3593309,-0.84235835
812,1778413169010,3.84623365,2.54949634,2.5577834600000005,1.57004547,1.4344832,-1.5436721150000001
813,1778413169020,3.7593962666666667,2.4256835777777774,2.0248607222222224,1.5701065444444444,1.8263145666666665,-1.8532427333333332
814,1778413169030,3.478519244444444,2.138935655555555,1.228306788888889,1.0349364444444444,2.2317136333333334,-2.3470787222222222
815,1778413169040,3.31248,1.96842574,0.910595868,0.49751982000000006,2.40353125,-2.66572984
816,1778413169050,3.2890031,1.9434364999999998,0.87755126,0.3276432,2.4374332,-2.7513325
817,1778413169060,2.953380288888889,1.5706099,0.8379113755555556,-0.41864247222222223,2.6262529555555556,-3.035172777777778
818,1778413169070,2.74512965,1.3804159,0.765791655,-0.8431219000000001,2.9136268999999997,-3.05767235
819,1778413169080,2.6312408555555553,1.2801288444444445,0.6835696777777778,-1.5562861333333333,3.4893885333333334,-2.932482588888889
820,1778413169090,2.4850772444444442,1.1183917666666667,0.6127525666666667,-1.9838792,3.761012,-2.8993611666666665
821,1778413169100,2.4565458,1.0843925,0.6027791,-2.1133788,3.827798,-2.8979359
822,1778413169110,2.0257382666666666,0.7845275233333333,0.7474724633333333,-2.422399644444445,3.767934888888889,-3.0109423777777775
823,1778413169120,1.5796993,0.4640142088888889,0.9319277422222222,-2.395318777777778,3.589567555555556,-2.884225722222222
824,1778413169130,1.3836905800000001,0.21645776,1.3102532400000002,-1.87013946,3.19386074,-2.33688025
825,1778413169140,1.5038073,0.16889198000000002,1.4290162666666666,-1.1743029999999999,3.1039440000000003,-1.9186712666666668
826,1778413169150,1.5687196,0.16141187,1.451792,-0.9185615999999999,3.1143284,-1.7940584
827,1778413169160,1.64994074,0.165314533,1.40051772,-0.9185616,3.1143284,-1.7940584000000002
828,1778413169170,1.6980597444444443,0.16349870444444445,1.286328477777778,0.22441002666666668,3.7642698,-1.6625226
829,1778413169180,1.5875520222222221,0.14654310444444443,1.1023576444444445,0.9739874555555557,4.061888111111111,-1.6295368444444445
830,1778413169190,1.5573408599999998,0.117525148,0.8786915000000001,1.6403539000000003,4.082521000000001,-1.62943505
831,1778413169200,1.5753053,0.10454878,0.7938573,1.9298954999999998,4.001889,-1.6456225
832,1778413169210,1.83460096,0.021220750099999998,0.5740578949999999,2.75295119,3.2551514900000003,-2.05519556
833,1778413169220,2.0555873666666664,-0.07232129333333333,0.4617850966666667,3.369128055555555,2.6090135111111112,-2.490695777777778
834,1778413169230,2.066645,-0.20695312533333332,0.31462202,4.1537954444444445,1.7944147777777775,-3.391008333333333
835,1778413169240,1.9656208800000001,-0.33229988400000005,0.06770516800000001,4.55429396,1.28024428,-4.0247047600000005
836,1778413169250,1.9143157,-0.3759297977777778,-0.07558706777777778,4.616070988888889,1.1155598333333332,-4.309536055555556
837,1778413169260,1.7432352,-0.4666464455555555,-0.39961341666666667,4.394469099999999,1.2506249444444444,-4.6902973333333335
838,1778413169270,1.6415592499999998,-0.5177893499999999,-0.579027685,4.0477793,1.62164675,-4.8221045
839,1778413169280,1.3444958333333332,-0.6306499555555556,-1.1801027666666666,2.711932877777778,2.568901044444444,-4.651474666666666
840,1778413169290,1.1991431599999998,-0.63522002,-1.33168746,1.53113454,3.0052005399999997,-4.429452159999999
841,1778413169300,1.1354388888888889,-0.6180543888888889,-1.3099273555555557,0.6796948511111112,3.176974188888889,-4.237184444444445
842,1778413169310,0.9850371333333333,-0.5646365933333333,-0.8552531333333333,0.026385206666666668,3.1973355777777774,-3.9935241111111117
843,1778413169320,0.9251271400000001,-0.572002868,-0.553483504,-0.37252521,3.04035465,-3.6682752499999998
844,1778413169330,0.9281571411111111,-0.6211981811111111,-0.39051737666666664,-0.4378247733333333,2.807224833333333,-3.4405717666666664
845,1778413169340,0.9282113288888889,-0.6291695155555556,-0.3009965588888889,-0.3791834333333333,2.6183797777777778,-3.3026560000000003
846,1778413169350,0.922611729,-0.632207626,-0.23682173300000003,-0.29579514900000003,2.47329006,-3.20891808
847,1778413169360,0.89010271,-0.6011529666666667,-0.17509151333333334,0.020590639999999997,2.0971233999999996,-3.055805888888889
848,1778413169370,0.9338471399999999,-0.540568118,-0.153496762,0.22269963600000003,1.8519972,-3.0121643
849,1778413169380,1.0493092333333331,-0.48189803,-0.15525295666666666,0.74872056,1.294266622222222,-3.1113250555555556
850,1778413169390,1.0199681,-0.5052733855555556,-0.20091618111111112,1.1241880133333333,0.9642733333333333,-3.2652585666666667
851,1778413169400,0.962604988,-0.521878012,-0.230562222,1.36168542,0.76071865,-3.3668221899999997
852,1778413169410,0.6448140755555556,-0.5380496744444444,-0.3278138566666666,1.7674101777777778,0.3333699133333333,-3.4788516888888887
853,1778413169420,0.46164619444444444,-0.5460718533333334,-0.37236591111111106,2.174641788888889,-0.17706935333333332,-3.4164094666666665
854,1778413169430,0.29086454700000003,-0.553148119,-0.514898953,2.4401058200000003,-0.536003212,-3.2701861200000004
855,1778413169440,0.24856463777777776,-0.5808401211111112,-0.6950270044444444,2.616089111111111,-1.0251968466666666,-3.0098566222222223
856,1778413169450,0.229245078,-0.592863866,-0.7342257699999999,2.61448736,-1.1971843,-2.9083202
857,1778413169460,0.007561416999999999,-0.48899198,-0.75925165,2.4723448444444447,-1.2737438,-2.7264233333333334
858,1778413169470,-0.11659216766666665,-0.4073205266666667,-0.8147426833333333,2.2212696222222217,-1.0593363777777778,-2.659187777777778
859,1778413169480,-0.39134903,-0.38868122499999996,-0.914352135,1.66845285,-0.7494332,-2.5585338
860,1778413169490,-0.6934347333333333,-0.44374541666666667,-0.90763426,0.9004821677777777,-0.7378271277777777,-2.2601348333333333
861,1778413169500,-0.8680147222222222,-0.4921527,-0.6993294411111111,0.7804167655555556,-0.8112645444444444,-2.155204822222222
862,1778413169510,-0.7750025199999999,-0.25528927,-0.11287853356,0.8291488000000001,-1.1831348,-1.7204513
863,1778413169520,-0.6896845333333332,-0.07623411933333334,0.038366060466666664,1.0755238500000002,-1.2562328333333335,-1.5468688666666666
864,1778413169530,-0.74068954,-0.0824011476,-0.2594968432,0.9619469759999999,-0.80648634,-1.5139238799999999
865,1778413169540,-0.8939545666666666,-0.34124957,-0.65098308,0.38798132444444444,-0.11098754444444446,-1.4436356888888888
866,1778413169550,-0.9594970111111112,-0.4534613966666666,-0.7437764222222223,-0.10660981911111111,0.3039474222222222,-1.3854694
867,1778413169560,-1.19317638,-0.401797835,-0.46640219099999997,-1.7710599799999998,1.34377236,-1.4273056400000002
868,1778413169570,-1.2868637666666667,-0.3663492977777778,-0.2228754677777778,-2.268941188888889,1.5669080444444445,-1.5432037333333335
869,1778413169580,-1.5912751444444444,-0.35731083555555554,0.5540093166666666,-2.375839533333333,1.4352365,-1.8681745666666667
870,1778413169590,-1.89166529,-0.36715860899999997,1.14440522,-1.8191948199999999,0.98899224,-2.22727134
871,1778413169600,-1.9323688999999997,-0.3755097,1.203119,-1.6723471,0.8980982,-2.2937315
872,1778413169610,-3.17419133,-1.168504152,1.08451757,-0.495855256,0.975064913,-2.78693708
873,1778413169620,-3.5900875333333335,-1.3834106444444443,1.027028111111111,-0.3155110848888889,0.9382783288888888,-2.7623869666666665
874,1778413169630,-4.505608555555556,-1.4165494777777778,1.1185748444444443,0.4194738915555556,0.14454171666666668,-1.5846057111111111
875,1778413169640,-4.4621141,-1.29331328,1.26052482,1.1014645,-0.59281202,-0.40616762
876,1778413169650,-4.3452535,-1.2413834,1.3192843,1.4411498888888887,-0.8607432111111112,0.2000270222222222
877,1778413169660,-3.184169433333333,-0.86123924,0.9519152866666667,2.2615856666666665,-0.7759032733333333,1.528008933333333
878,1778413169670,-2.57715348,-0.626676818,0.578042873,2.48893538,-0.6430847399999999,1.8578461000000002
879,1778413169680,-2.0107541777777778,-0.42864966666666665,0.14634322977777778,2.4739738444444446,-0.6155219577777777,1.8255594777777777
880,1778413169690,-1.74933982,-0.405218768,-0.0492284784,2.31937176,-0.5980652980000001,1.6563276200000001
881,1778413169700,-1.5662803333333335,-0.42826685777777773,-0.12915048888888891,2.0538296555555555,-0.4947099411111111,1.3825594222222222
882,1778413169710,-1.4564095333333333,-0.5216734177777778,-0.026759692444444445,1.759672788888889,-0.23917216166666666,1.09736165
883,1778413169720,-1.4390322,-0.5837993,0.0208396305,1.5868437400000002,0.031993126999999996,0.9494551980000001
884,1778413169730,-1.365882611111111,-0.6879263111111111,0.031641413,1.4799047444444444,0.3737197477777778,0.9257814777777779
885,1778413169740,-1.0461687733333334,-0.7866313,-0.009787156499999998,1.4986374333333332,0.59715409,1.0462541333333335
886,1778413169750,-0.81406578,-0.8487995400000001,-0.054106812399999996,1.58116291,0.60843441,1.0996625400000002
887,1778413169760,-0.52936694,-1.0389664888888888,-0.2462304828888889,1.8869326,0.46242833333333333,1.1496230444444444
888,1778413169770,-0.47920479,-1.08227355,-0.313996975,1.98047368,0.36238513,1.1870747600000002
889,1778413169780,-0.50677076,-1.3035617555555556,-0.5823984777777778,2.3080100666666663,-0.17942788666666665,1.4680781222222221
890,1778413169790,-0.60139352,-1.5436435666666668,-0.7804554455555555,2.434726811111111,-0.6777604777777778,2.0650794222222224
891,1778413169800,-0.61175524,-1.6115239000000003,-0.8272434069999999,2.43347793,-0.7938418190000001,2.29717507
892,1778413169810,-0.17174782633333333,-1.8710237666666667,-1.0008612000000001,1.9490354,-0.6873304166666667,3.5980431666666672
893,1778413169820,0.060989327,-1.9757147999999998,-1.0630091333333334,1.6891538444444445,-0.5633284444444445,4.027875855555555
894,1778413169830,0.795375744,-2.06258978,-0.8207064199999999,1.26272812,-0.401983324,4.70905192
895,1778413169840,1.6537957333333333,-1.8478415666666668,-0.42075626666666666,1.1115637999999999,-0.24976017333333334,5.072628333333333
896,1778413169850,2.01399557,-1.6915834799999998,-0.256707056,1.2415928399999998,-0.155689696,4.987598459999999
897,1778413169860,2.060791,-1.5986603333333333,-0.2847422233333334,1.9936951888888892,0.16900107444444445,4.344294855555556
898,1778413169870,1.7061869555555556,-1.6266701,-0.43632291111111116,2.1517010333333335,0.21150586333333332,4.262712722222222
899,1778413169880,1.1523598800000001,-1.7329425600000001,-0.66353874,2.10337628,0.200464802,4.61779142
900,1778413169890,0.9943059666666666,-1.9970271333333334,-0.8912105000000001,1.3271929800000002,0.59590695,5.646671899999999
901,1778413169900,1.3149852666666666,-2.125632233333333,-0.86558909,0.7197901766666667,1.0056751722222221,6.186143333333333
902,1778413169910,1.98612489,-2.22749591,-0.531753583,-0.8296222200000001,2.0324415,6.9050022
903,1778413169920,2.1427842,-2.2603792666666664,-0.16526709666666667,-1.6760121333333333,2.276373166666667,7.155286533333334
904,1778413169930,2.09921404,-2.36052196,0.17832748439999999,-1.9148534000000001,2.15326712,7.33894798
905,1778413169940,2.0343464,-2.4536391333333336,0.54761328,-1.8951026666666668,1.7353661333333334,7.783848666666667
906,1778413169950,2.081774622222222,-2.4426052666666664,0.6481848688888889,-1.834085811111111,1.5872017222222223,7.950550555555555
907,1778413169960,2.76313986,-2.1660837,0.78251516,-1.39380075,0.98819815,8.34509
908,1778413169970,3.085474733333333,-1.9659582000000002,0.7145437466666666,-1.0787392777777778,0.5197801166666667,8.346786777777778
909,1778413169980,3.3145769,-1.6965014444444444,0.48376467111111116,-0.9157109444444443,0.02162569222222223,7.961706611111111
910,1778413169990,3.21217526,-1.58933664,0.46538081600000003,-0.94250679,-0.38610129,7.59770308
911,1778413170000,3.0780861444444443,-1.5049184444444446,0.5731364355555555,-0.9922704833333333,-0.5379443455555556,7.5524734222222225
912,1778413170010,3.10376648,-1.1357675200000001,1.0629400199999999,-0.902801704,-0.7351394,7.81076636
913,1778413170020,3.4168863,-0.8348048000000001,1.2832455666666667,-0.76503526,-0.6944569666666668,7.9196599999999995
914,1778413170030,3.7854037000000003,-0.5028952,1.4552069,-0.6106945,-0.6003865,7.922918
915,1778413170040,4.02200285,0.2171621,1.1402647350000001,-0.10976160000000001,-0.23509983500000003,6.9333455
916,1778413170050,4.167004533333333,0.9599171888888889,0.7678903555555556,0.37997243555555554,0.12509643555555558,5.849354666666667
917,1778413170060,3.4342248,1.1414995,0.30843264,0.29038152,0.08437328,5.094008
918,1778413170070,2.96825552,1.24465183,0.193407626,-0.015423895999999998,-0.080188972,4.958888480000001
919,1778413170080,3.136463411111111,1.6294920888888889,0.3029411166666667,-0.5465556022222222,-0.26136626055555556,4.9430608000000005
920,1778413170090,3.5148908499999996,1.84714438,0.280248059,-1.52586589,0.5398133945,4.67405065
921,1778413170100,3.5859034666666667,1.9119137444444445,0.20170214777777778,-1.8400585777777776,0.8007020333333333,4.4049045
922,1778413170110,2.712973266666667,1.7919541666666667,-0.07357136766666666,-2.9889774333333334,0.7999554133333333,3.6741954666666663
923,1778413170120,2.3770470799999996,1.75307182,0.10530491480000001,-3.2824945800000003,0.587528172,3.5860705600000005
924,1778413170130,2.2090921999999997,1.884296933333333,0.9119739,-3.4165959333333333,-0.055510746666666694,3.8409566666666666
925,1778413170140,2.5101769666666667,2.0693585666666667,1.7816689666666667,-2.8777946666666665,-0.7256780666666667,4.217102888888889
926,1778413170150,3.14568649,2.20833923,2.14539655,-2.24031282,-1.0723271,4.2791376
927,1778413170160,4.055656522222222,2.1835792888888887,2.2668768444444445,-0.5982740133333334,-1.6093026333333333,3.822631333333333
928,1778413170170,4.12876215,2.1757672,2.23764575,0.22589894500000002,-1.7487794,3.3854681999999996
929,1778413170180,3.698274777777778,2.081131011111111,2.2468078888888887,1.3090032555555555,-1.8451575111111111,2.884268022222222
930,1778413170190,3.086531666666667,1.8061217,2.142614866666667,2.973265111111111,-1.8682339555555556,2.769564466666667
931,1778413170200,2.9231765800000002,1.5918185,1.89854982,3.8364262600000005,-1.8010678800000002,3.01040796
932,1778413170210,3.240134844444445,0.9186037311111109,0.7163798566666667,5.1196637,-1.9495445333333334,3.615961266666667
933,1778413170220,3.6427124666666666,0.7926682,0.3684869433333333,5.547078766666666,-2.211190633333333,3.654852
934,1778413170230,4.0001571,0.703303245,0.10808557700000002,5.79029765,-2.46686835,3.250471
935,1778413170240,4.130474666666667,0.5672485533333333,-0.16996925866666668,5.9581106888888895,-2.663497588888889,2.4156038888888887
936,1778413170250,3.8666584999999998,0.48476913,-0.302517645,5.816747,-2.5800661000000003,1.63531448
937,1778413170260,3.0441307777777777,0.28325160666666666,-0.36532958444444447,5.416289222222222,-2.3358714444444444,0.7258308111111111
938,1778413170270,2.480517266666667,0.1988733911111111,-0.24576297111111112,4.905027133333333,-1.9794759666666666,0.18068352999999998
939,1778413170280,2.1275266200000003,0.18263261,-0.25491729999999996,4.5068921,-1.50077536,0.15010043899999997
940,1778413170290,1.8746487333333333,0.09374530555555556,-0.45464035555555554,3.6150959,-0.42120464333333335,0.28982156333333337
941,1778413170300,1.7957653666666669,0.041089794,-0.4987079766666666,3.2030455222222223,-0.027326931111111105,0.3123550444444445
942,1778413170310,1.5729362,-0.0317366086,-0.348508157,2.3297867400000003,0.640687156,0.246492144
943,1778413170320,1.4709394333333334,-0.040917022,-0.22056165333333333,2.0439204444444443,0.8193667822222221,0.17891885999999999
944,1778413170330,1.3508989200000001,-0.0031373785499999992,0.007351043000000006,2.0410697499999997,0.5889484030000001,-0.065154497
945,1778413170340,1.2331816444444443,0.030608155611111115,0.21437904666666666,2.3418102111111114,0.1025799228888889,-0.3863948322222222
946,1778413170350,1.1945716888888889,0.023615877555555553,0.23034881111111108,2.5977212777777776,-0.20191046555555556,-0.5879744277777778
947,1778413170360,0.921023208,-0.091230931,0.125269508,3.04073658,-0.677353268,-0.91920296
948,1778413170370,0.8154235866666667,-0.1589422,0.04454528333333333,3.2742431666666665,-0.9449043666666667,-1.0767200666666668
949,1778413170380,0.7758074566666666,-0.18179922333333332,-0.014848428666666667,3.314762722222222,-0.9553566222222223,-1.1033258666666665
950,1778413170390,0.7781002640000001,-0.161570398,-0.09603609919999999,3.23290918,-0.703497518,-1.12041606
951,1778413170400,0.76116229,-0.14211194666666666,-0.18663691,3.147390533333333,-0.5158859755555556,-1.1375333666666667
952,1778413170410,0.638409203,-0.153316866,-0.383150391,2.68168054,0.22901426800000002,-1.17227697
953,1778413170420,0.56999262,-0.16765206,-0.4921018800000001,2.4420146000000003,0.46826531999999993,-1.080996
954,1778413170430,0.5758466099999999,-0.1269789583333333,-0.56482971,2.2452963,0.5680370533333332,-0.9761339000000001
955,1778413170440,0.62156063,-0.041404855,-0.64503765,2.0050297,0.6458183,-0.8490777000000002
956,1778413170450,0.67642494,0.011467470777777778,-0.7102108233333334,1.6708284555555555,0.39127312555555555,-0.9015427
957,1778413170460,0.6991058244444444,0.005701552055555555,-0.7098754244444445,1.1733273777777777,0.017451567777777777,-1.1041403777777778
958,1778413170470,0.6476292480000001,-0.06300367935,-0.714434966,1.00495067,-0.051112645,-1.19726066
959,1778413170480,0.48678314888888885,-0.16157786555555556,-0.6540964266666667,0.43895314333333335,-0.2391721394444445,-1.3473933666666666
960,1778413170490,0.399779424,-0.186376728,-0.500370676,0.11360231999999999,-0.337844352,-1.2789920399999999
961,1778413170500,0.3947113755555556,-0.1794921788888889,-0.4098918222222222,-0.00547217333333333,-0.38373934,-1.1807678000000001
962,1778413170510,0.5487616833333333,-0.08459843333333333,-0.11294358666666666,-0.09506310333333333,-0.48269660666666664,-0.9095515999999999
963,1778413170520,0.64708043,-0.047624729500000004,-0.0453075225,-0.063299045,-0.5328879,-0.8383878499999999
964,1778413170530,0.7149739666666667,-0.04668971555555556,-0.02669532466666667,-0.03275668322222222,-0.5686224577777778,-0.8306843622222222
965,1778413170540,0.81738511,-0.07450638066666666,-0.006697544966666667,-0.007644074722222223,-0.5958390866666667,-0.8530821233333333
966,1778413170550,0.84681773,-0.07777893,-0.0005183229,-0.0173633332,-0.553595614,-0.8861561
967,1778413170560,0.7287925300000001,-0.18791747333333333,0.0138016185,-0.10320773666666666,-0.09928812800000002,-1.1082805666666666
968,1778413170570,0.626698135,-0.19687125,-0.006372323125,-0.11051754,-0.0010842539000000008,-1.08889635
969,1778413170580,0.5573292622222222,-0.18113862666666666,-0.021156384,-0.08128510500000001,-0.03311301111111112,-0.937582668888889
970,1778413170590,0.5588198733333333,-0.16770626555555557,-0.04895271733333333,-0.01612806461111111,-0.14917399222222222,-0.6386068355555555
971,1778413170600,0.641833185,-0.155740796,-0.07122061399999999,0.007925743019999999,-0.22337157400000002,-0.46290002
972,1778413170610,0.81127697,-0.11697837,-0.11546405333333332,-0.026444596666666667,-0.2674747333333334,-0.32069480333333333
973,1778413170620,0.8751289688888888,-0.08792518222222222,-0.13107471999999998,-0.05766567944444444,-0.29611668444444444,-0.29795772111111113
974,1778413170630,1.073684624,0.070821208,-0.030184688399999993,-0.10880717,-0.38994962,-0.33902023
975,1778413170640,1.268962977777778,0.2098293111111111,0.08045185444444444,-0.13680433777777778,-0.4580590911111111,-0.45304504888888886
976,1778413170650,1.3695617,0.264863,0.13223334,-0.12865971,-0.46111333,-0.53449136
977,1778413170660,1.5067783222222222,0.38038465777777775,0.17443091777777778,-0.074837275,-0.2099872322222222,-0.7670884077777778
978,1778413170670,1.5576484666666668,0.47646073333333333,0.1289302888888889,-0.05814078166666667,0.19739698333333333,-1.0163140788888887
979,1778413170680,1.44449888,0.49866931999999997,-0.05705211200000001,-0.23827624800000002,0.5521143000000001,-1.1744149
980,1778413170690,1.2516448333333332,0.5220222944444444,-0.32000173555555556,-0.6966204,0.7329658166666666,-1.3725737666666666
981,1778413170700,1.178043011111111,0.5173540077777777,-0.35665698888888886,-0.8863902666666666,0.6331941,-1.4232741
982,1778413170710,1.07447734,0.467289468,-0.230025616,-1.19784092,0.34186067600000003,-1.44844098
983,1778413170720,1.0356058,0.4361433455555555,-0.11510834333333334,-1.2777397,0.26790744,-1.445061
984,1778413170730,1.01784596,0.379961202,0.013842265999999992,-1.3337544399999999,0.182498266,-1.43274226
985,1778413170740,0.9825878,0.26755626,0.24011563333333333,-1.3011556000000002,0.16093280666666668,-1.4098355
986,1778413170750,0.9732274999999999,0.24510576,0.28940713,-1.2765181,0.16500512,-1.4006728
987,1778413170760,1.008223438,0.20290208199999998,0.581116218,-0.9497148000000001,0.24846211499999998,-1.2913311
988,1778413170770,1.0410973666666665,0.23493239333333335,0.69258108,-0.6833853666666667,0.3774527033333333,-1.2143643000000002
989,1778413170780,1.0040491444444444,0.35817471444444443,0.6825194888888889,-0.20462534666666668,0.6982832422222223,-1.1263344666666668
990,1778413170790,1.0451403400000001,0.46688702399999993,0.5200242399999999,0.154162576,0.7583363160000001,-1.04271628
991,1778413170800,1.1525368333333335,0.5480401133333334,0.4387552733333333,0.27409225666666664,0.67717508,-1.0392548
992,1778413170810,1.5712563,0.83062162,0.325244584,0.5733259700000001,0.2785769,-1.38393556
993,1778413170820,1.6599207333333332,0.8970781000000001,0.28735076777777774,0.7232685777777778,0.12239852333333334,-1.7758687444444443
994,1778413170830,1.6693555333333334,0.9252775666666666,0.26370440666666667,0.7626342955555556,0.15730165000000002,-1.9547791444444447
995,1778413170840,1.68188465,0.97945043,0.22193368800000002,0.769591186,0.254204078,-2.07626991
996,1778413170850,1.707006788888889,1.0449153999999998,0.12403501777777778,0.6775908066666667,0.56043539,-2.2329861666666666
997,1778413170860,1.7992513333333333,1.1920106333333333,-0.3164818766666666,0.37121697666666664,0.9923722666666666,-2.7156741666666666
998,1778413170870,1.8636636199999999,1.22109572,-0.525567248,0.163936136,0.803050338,-3.07996816
999,1778413170880,1.7706317999999999,1.1104916666666667,-0.6301688533333334,-0.2198541122222222,0.6101855077777778,-3.5285336666666667
1000,1778413170890,1.7195516,1.0541164,-0.66653275,-0.45065257,0.54991525,-3.752511
