id,timestamp,acc_x,acc_y,acc_z,gyro_x,gyro_y,gyro_z
0,1778413105650,1.0908716,0.32149741,-0.06530869,-1.9026365,1.50100445,-0.76416993
1,1778413105660,1.0985295666666668,0.33720464666666666,-0.10513825,-2.1536947666666664,1.7211130666666667,-1.03273912
2,1778413105670,1.0846195666666665,0.33204852,-0.10608681388888888,-2.2641902444444444,1.8145048222222222,-1.1345470000000002
3,1778413105680,1.0860864444444445,0.30448930444444444,-0.14196966444444445,-2.511243888888889,1.8662911333333332,-1.360221088888889
4,1778413105690,1.17565095,0.271524978,-0.12156196699999999,-2.66020928,1.8096044800000002,-1.45833672
5,1778413105700,1.2409565666666666,0.2528297833333333,-0.09618447133333334,-2.730283655555555,1.8147084333333332,-1.4994942444444443
6,1778413105710,1.4550679444444445,0.13629182111111113,0.008476104222222221,-3.0265360444444442,1.999659522222222,-1.6980875777777777
7,1778413105720,1.49201696,0.010723183100000006,0.0879197652,-3.13644106,2.09975693,-1.7594234100000001
8,1778413105730,1.5897980222222223,-0.06762928644444445,0.20017429333333334,-3.2478664555555556,2.2882507,-1.7077253
9,1778413105740,1.7648489333333335,-0.024076608666666666,0.36091538666666667,-3.3127519,2.4270489,-1.6645588
10,1778413105750,1.86996282,0.013409318600000001,0.44891644399999997,-3.3819405,2.5711019999999998,-1.6191117800000001
11,1778413105760,2.3467425555555557,-0.03624872888888889,0.7553794533333335,-3.628560033333333,3.210435,-1.4267355666666666
12,1778413105770,2.6788148,-0.07833790333333333,0.9341906799999999,-3.688626588888889,3.730944722222222,-1.3763746
13,1778413105780,2.96587122,-0.086535536,1.0687300199999998,-3.65370646,4.250992999999999,-1.45931408
14,1778413105790,3.461705933333333,0.003668911333333335,1.4227659666666665,-3.3434979000000005,4.9491099,-1.9813849333333333
15,1778413105800,3.5297789799999997,0.021129279600000002,1.58920864,-3.08223596,5.01736178,-2.30248956
16,1778413105810,3.5521789,-0.29447856333333333,2.0275066666666666,-2.2069741888888887,4.6788438,-2.8882301333333333
17,1778413105820,3.5518537,-0.40502363,2.113904,-1.8146745,4.442921,-3.04515
18,1778413105830,4.05184024,-0.88507606,2.4339530399999996,-0.665281384,4.15252422,-3.26890331
19,1778413105840,4.095086333333334,-1.0009120666666667,2.341285,0.5170737200000001,4.362424833333333,-3.564302311111111
20,1778413105850,4.070545466666667,-1.0597535666666666,2.291448077777778,0.66422004,4.4807935,-3.617514
21,1778413105860,3.7621005700000003,-1.41159757,2.07051415,1.8295945,5.32584,-3.95140294
22,1778413105870,3.6146147444444443,-1.4500372222222222,1.9354483333333334,2.3719963,5.542700933333333,-3.9984791000000004
23,1778413105880,3.08977176,-1.51139926,1.24249924,2.69597442,5.59456676,-3.92428142
24,1778413105890,2.748060111111111,-1.3494893666666665,0.8785031111111111,2.7326251666666668,5.512081888888889,-3.8570338333333334
25,1778413105900,2.555637,-1.2128147,0.69476616,2.628781,5.406838,-3.841084
26,1778413105910,1.9969671500000001,-0.988383865,0.606038426,2.07363553,5.2942591,-3.67114616
27,1778413105920,1.6985443,-0.8414617166666667,0.5799119066666667,1.5578895666666668,5.460389133333333,-3.4167486666666664
28,1778413105930,1.5817285333333333,-0.8044473666666667,0.5580203866666666,1.1685762666666666,5.7133053333333335,-3.2190378
29,1778413105940,1.2194432,-0.8680445879999998,0.706821724,0.434174964,6.27236274,-2.76325161
30,1778413105950,1.108750411111111,-0.8905838355555554,0.7781754655555555,0.36890931111111114,6.395740333333333,-2.5509660555555556
31,1778413105960,0.77342315,-0.8873017300000001,0.8681847819999999,0.604357,6.2590464,-2.2162759999999997
32,1778413105970,0.6547536333333333,-0.8374777,0.8009207333333334,1.091066577777778,5.6687897777777785,-1.9488063888888891
33,1778413105980,0.6170346444444444,-0.7874544888888889,0.7349446666666667,1.5915540666666668,4.958136888888889,-1.7882214555555553
34,1778413105990,0.641290492,-0.731137197,0.67725295,2.0520650199999997,4.24109722,-1.74555714
35,1778413106000,0.6885259333333332,-0.7381528233333333,0.73088614,2.5431777111111113,3.5079856,-1.8192388555555554
36,1778413106010,0.6949456777777778,-0.7391555844444445,0.8940223555555554,2.9141825333333333,3.1766348222222223,-1.8998707222222224
37,1778413106020,0.6761796999999999,-0.725078898,1.05425967,3.39276774,2.89061314,-1.95953696
38,1778413106030,0.7114676777777778,-0.742885488888889,0.7616839666666666,3.771472777777778,3.0523274,-1.819917588888889
39,1778413106040,0.76739235,-0.7227860500000001,0.38397056999999996,3.71560068,3.3619659200000003,-1.72136754
40,1778413106050,0.7836128,-0.6854363,0.2362028,3.4879039444444446,3.577554366666667,-1.7060284777777779
41,1778413106060,0.8186758333333333,-0.6670612466666667,0.37547922666666667,2.9805613777777777,3.8275943666666663,-1.6773187222222221
42,1778413106070,0.8944546599999998,-0.653080744,0.485241728,2.88179416,3.9246783,-1.66846822
43,1778413106080,0.9877540777777778,-0.7100685066666667,0.39552780444444446,2.6959744333333333,4.352515866666667,-1.7592401333333334
44,1778413106090,0.9322190055555555,-0.7329763477777778,0.38763101555555557,2.5725833,4.552738000000001,-1.844623011111111
45,1778413106100,0.8660566359999999,-0.7492327120000001,0.401474652,2.55083716,4.5515298,-1.8897170799999998
46,1778413106110,0.7209059,-0.80950862,0.4190691733333333,2.7843436666666666,4.168243666666666,-1.9799595333333333
47,1778413106120,0.681667812,-0.8264140799999999,0.41332900199999995,2.912703,3.95680906,-2.005045
48,1778413106130,0.65451986,-0.8211454,0.39654753,3.117459,3.6225533,-2.0402298
49,1778413106140,0.81146674,-0.7420622711111111,0.4771348811111111,3.348562888888889,3.1989901333333335,-2.115567688888889
50,1778413106150,0.8978268,-0.7130294,0.5527457,3.533446,2.8601396,-2.175838
51,1778413106160,0.73750236,-0.7795577,0.28249614666666667,4.332841311111111,1.7680803999999999,-2.8850316666666664
52,1778413106170,0.6820214933333334,-0.7975363833333333,0.1472138766666667,4.3878176,1.6618608333333333,-3.0046304999999998
53,1778413106180,0.6820337200000001,-0.69852247,0.11232972199999999,4.2114866,1.73324852,-2.99958082
54,1778413106190,0.6701034444444445,-0.6761133222222222,0.101933455,3.7215870555555557,1.8793225444444444,-2.9829113777777776
55,1778413106200,0.66091048,-0.6695329919999999,0.098963096,3.6189647000000003,1.8785081,-2.968794
56,1778413106210,0.7053257222222222,-0.6031754211111111,0.1126386888888889,3.296030033333333,1.9619905,-2.891420066666667
57,1778413106220,0.7321159,-0.56975883,0.09735324,3.1345627,2.0037317,-2.8527331
58,1778413106230,0.81003813,-0.5357264030000001,-0.0738335784,2.8141121399999998,1.9154031799999998,-2.8625066400000003
59,1778413106240,0.9852708666666667,-0.47514967999999996,0.03250189766666666,2.6809067333333334,1.5101671333333335,-3.0363944000000003
60,1778413106250,0.9927577444444444,-0.5032915666666666,0.11211359222222222,2.6825356,1.3934953,-3.1037912
61,1778413106260,0.862413189,-0.614572459,0.395834079,3.20945256,0.18067334399999999,-3.4845935599999995
62,1778413106270,0.8348387277777778,-0.6368257777777777,0.4829109666666666,3.7010216888888894,-0.1717753377777778,-3.511565777777778
63,1778413106280,0.75097066,-0.654215,0.44662362,4.2083098,-0.31487648,-3.5145250000000003
64,1778413106290,0.6420632211111111,-0.5866568555555555,0.1940594333333333,4.644780600000001,-0.4556157066666667,-3.5602977333333334
65,1778413106300,0.5446049477777778,-0.5281439533333333,-0.038318633333333345,5.068335444444445,-0.7690482666666667,-3.682195722222222
66,1778413106310,0.352288855,-0.370433191,-0.607160395,5.6030727,-1.59533448,-3.99758296
67,1778413106320,0.24809374333333334,-0.25087845,-0.9873543,5.535675888888889,-1.8691841111111112,-4.220827144444445
68,1778413106330,0.13908331000000002,-0.20977171777777778,-1.1820540111111113,5.1628300000000005,-1.9155406666666666,-4.493265
69,1778413106340,-0.367259246,-0.24114212200000001,-1.6195762000000002,4.48343545,-1.7515281699999998,-4.777390540000001
70,1778413106350,-1.3077897,-0.4952626533333333,-1.8623545333333336,3.162661733333333,-1.5879229,-4.905994333333333
71,1778413106360,-2.1983539199999997,-0.802973712,-1.4056551599999998,1.4202198799999999,-1.8829213800000002,-3.9329554
72,1778413106370,-2.315379066666667,-0.85716386,-1.17455025,1.0428095777777777,-1.9244997333333334,-3.574211533333333
73,1778413106380,-1.8015753666666667,-0.7807027333333333,-0.5658934777777778,0.23907033960000001,-1.23770384,-2.2017225666666667
74,1778413106390,-1.16080856,-0.6312502600000001,-0.213835645,-0.0972392453,-0.35264977500000005,-1.6349326999999998
75,1778413106400,-1.1004300333333334,-0.5836824333333334,-0.2256025966666667,-0.19572563999999998,0.3263451411111111,-1.5448327555555554
76,1778413106410,-1.5187268999999999,-0.5835197866666667,-0.33965395,-0.09407896555555556,0.68403015,-1.7278154
77,1778413106420,-1.80621825,-0.624929765,-0.36511275000000004,0.0831821276,0.547471858,-1.77622164
78,1778413106430,-2.1400740999999996,-0.7925767,-0.34706292000000005,0.43006191666666665,0.1583367,-1.7069109
79,1778413106440,-2.2783464199999997,-0.88921644,-0.35141073,0.899884896,-0.299971816,-1.5629138599999999
80,1778413106450,-2.4630943333333333,-1.0113868444444445,-0.3935392122222222,1.2236204222222222,-0.6504759866666667,-1.4503550666666667
81,1778413106460,-2.829667133333333,-1.1222809333333332,-0.24277839666666667,1.736189088888889,-1.075625622222222,-1.0911768266666668
82,1778413106470,-2.98593645,-1.15828405,-0.23589791999999998,2.0282419,-1.1254097,-0.76325366
83,1778413106480,-3.061797955555556,-1.0838403777777779,-0.21621858,2.1990756111111107,-1.0546532222222222,-0.24925962666666665
84,1778413106490,-3.0003512555555556,-0.9786275555555556,-0.19669169555555555,2.379547122222222,-0.8736388333333333,0.5218756666666667
85,1778413106500,-2.9420009,-0.9499943999999999,-0.19842622,2.4307904,-0.7402705,0.8625927000000001
86,1778413106510,-2.7981781333333333,-0.9507261699999999,-0.23984123666666665,2.533209088888889,-0.29095843555555556,1.4464268777777778
87,1778413106520,-2.5978954,-0.9785327299999999,-0.20748161,2.6550477,0.07032379,1.8497219
88,1778413106530,-2.4916495111111114,-0.8227241611111111,-0.643936621111111,2.6957708555555557,-0.17564403888888888,2.1072279333333332
89,1778413106540,-2.4030570333333334,-0.6649371766666667,-0.9999770333333333,2.5556831333333334,-0.6032371,2.4108869
90,1778413106550,-2.32792556,-0.635207807,-1.016312342,2.40544012,-0.75212094,2.55037892
91,1778413106560,-2.121759833333334,-0.6746938266666667,-0.99678578,1.7311666,-0.5641429133333333,3.0163128666666665
92,1778413106570,-2.059927,-0.7132631566666666,-0.9829638999999999,1.237873488888889,-0.210326595,3.3180715000000003
93,1778413106580,-1.9159654199999998,-0.713078204,-0.79094252,0.4259896100000001,0.43412150250000003,3.89644185
94,1778413106590,-1.6521255333333333,-0.7150078344444445,-0.5653209388888888,-0.5423051222222222,1.2992890555555556,4.668925933333334
95,1778413106600,-1.4262996700000001,-0.7064344810000001,-0.429540332,-1.25196204,2.02022454,5.25774544
96,1778413106610,-1.176105161111111,-0.6699611477777778,-0.2622104306666666,-1.9607348666666669,2.782332911111111,5.772939366666666
97,1778413106620,-0.77217925,-0.65153193,0.078785084,-2.276475,3.1369298,5.9944735
98,1778413106630,-0.489787746,-0.6270243790000001,0.3365958632,-2.40731856,3.32348252,6.09929476
99,1778413106640,0.2669532555555556,-0.51218772,0.9553471022222221,-2.9712798,4.971176722222221,6.434962177777778
100,1778413106650,0.55600806,-0.47742623333333334,1.0122847166666666,-3.3331814555555557,6.658201,6.339466
101,1778413106660,0.66208742,-0.5006023799999999,0.74450075,-3.8510713,8.471473999999999,5.753310519999999
102,1778413106670,0.6602926,-0.44382672,0.7136493533333333,-3.7503222666666667,8.191792666666666,5.3076262666666665
103,1778413106680,0.85355592,-0.285114212,0.555081186,-2.96161664,6.4261740000000005,4.39690914
104,1778413106690,0.9699719066666668,-0.17917711444444442,0.3517549288888889,-2.169644566666667,4.598229233333333,3.522162277777778
105,1778413106700,0.7925970722222222,-0.26654670555555554,0.10155401222222223,-1.8568229,3.6962369666666666,3.0692275333333336
106,1778413106710,0.056198404381,-0.71996273,-0.487973576,-1.6869463199999999,1.97080707,2.37914321
107,1778413106720,-0.20306402731333337,-0.9067127777777778,-0.60109195,-1.9238125,1.632133,2.5106585666666668
108,1778413106730,-0.27062893777777774,-1.0876887777777777,-0.5985613555555555,-2.671625288888889,1.053185511111111,3.2435310888888886
109,1778413106740,-0.0519512008,-1.1392920700000002,-0.42529922100000006,-3.1024549400000003,0.545517145,3.7831908400000005
110,1778413106750,0.09320327311111111,-1.1318783666666667,-0.3230337655555556,-3.209315,0.38315395,3.934009
111,1778413106760,0.7552635139999999,-0.9435367400000001,0.019501138799999998,-3.1790782500000003,-0.684377975,4.1053519000000005
112,1778413106770,0.8704165666666667,-0.9104494333333333,0.040571473999999996,-3.0732998,-1.0943582666666667,4.001202466666666
113,1778413106780,1.0578361,-0.8353739166666667,0.03431094466666666,-3.0064459333333335,-1.4001212222222224,3.877268244444444
114,1778413106790,1.27195834,-0.727371702,-0.1113235732,-2.99729008,-2.2441153799999998,3.1551176599999997
115,1778413106800,1.2425115,-0.7754110933333334,-0.16900377333333333,-3.232323666666667,-2.28999,2.906742066666667
116,1778413106810,1.083498211111111,-0.9685422999999999,-0.14721388,-4.012307822222223,-2.134224111111111,2.5297984000000002
117,1778413106820,0.94393008,-1.13475822,0.030312745000000002,-4.3849518199999995,-1.9562231799999998,2.50198456
118,1778413106830,0.8721342333333334,-1.2463328333333332,0.18162645666666666,-4.706705199999999,-1.7586886888888889,2.5724220666666664
119,1778413106840,0.8620442200000001,-1.27319317,0.224543596,-4.833435499999999,-1.67364516,2.62720827
120,1778413106850,0.8692885,-1.2806845,0.23595888999999998,-4.9565419,-1.6868801333333334,2.6829430333333333
121,1778413106860,1.0551022222222222,-1.3059739222222222,0.27251250555555556,-5.131108311111111,-1.9709241222222222,2.6811868
122,1778413106870,1.1905573,-1.3282634999999998,0.26268301000000005,-5.1735556,-2.39143652,2.50271752
123,1778413106880,1.3056690333333334,-1.3702324,0.29281519333333333,-5.246898111111111,-2.6958047222222223,2.299577
124,1778413106890,1.2365762333333334,-1.468012511111111,0.4563850444444444,-5.319928155555555,-2.686031222222222,2.2004839111111116
125,1778413106900,1.1244527899999999,-1.55070943,0.64417784,-5.3470361,-2.60514145,2.18666514
126,1778413106910,1.0424693333333335,-1.5094275,0.8752035133333333,-5.129343877777778,-2.384824033333333,2.422221455555556
127,1778413106920,1.12527905,-1.416729,0.90429056,-4.96824985,-2.39444495,2.4807271
128,1778413106930,1.3146498333333332,-1.2367489666666667,0.8701625900000001,-4.722587333333333,-2.542728133333333,2.4355245
129,1778413106940,1.3899557333333332,-1.1592207222222222,0.8161452322222222,-4.638901222222223,-2.6831127,2.2862740777777777
130,1778413106950,1.4493834,-1.08757263,0.677667597,-4.63894195,-2.7681765700000005,2.16913386
131,1778413106960,1.4366861555555555,-1.0399624555555556,0.7467339688888889,-4.914054144444445,-2.9087868222222224,1.862549677777778
132,1778413106970,1.4495358,-1.0932447333333333,0.93564402,-5.058960666666667,-2.6762575666666666,1.8408985111111111
133,1778413106980,1.4955446000000001,-1.20574716,1.24415792,-5.23396848,-2.32751895,1.8210120200000002
134,1778413106990,1.4649940666666668,-1.3030333333333333,1.4228472,-5.271739,-2.1613048,1.8627532666666664
135,1778413107000,1.45353,-1.3304435,1.4684088,-5.2745895,-2.1128442,1.8863726999999997
136,1778413107010,1.6309284555555557,-1.3391601777777777,2.2188929333333336,-5.074707055555556,-1.7453178666666667,2.0278855333333334
137,1778413107020,1.6867650666666667,-0.9752805,2.8209064,-4.6979500666666665,-1.1984059666666667,2.196683033333333
138,1778413107030,1.85553512,-0.5615144679999999,3.02731686,-4.35086656,-0.9290223400000001,2.2606998
139,1778413107040,2.3049312666666664,0.15007989333333333,3.010612666666667,-3.765457666666667,-0.5058409222222222,2.0141754
140,1778413107050,2.426544,0.31977475,2.9644108,-3.697993,-0.45561569999999996,1.9382946
141,1778413107060,2.01279437,0.462600153,2.61590565,-3.82492704,-0.43234242,1.102655624
142,1778413107070,1.7739653,0.6007667466666667,2.816343233333333,-4.270967733333333,-0.5201619000000001,0.47450104666666665
143,1778413107080,1.7443822399999998,0.65753836,3.28659428,-4.5595930000000005,-0.44492588,0.2993915
144,1778413107090,1.7048149333333333,0.6531478666666666,3.566956166666667,-4.687090511111111,-0.2585156511111111,-0.00697383777777778
145,1778413107100,1.6241192,0.6199752,3.7338765,-4.670190422222222,-0.26985026,-0.0934596288888889
146,1778413107110,0.7818566,0.597336696,4.48990209,-4.23004085,-0.8935931499999998,-0.22479179999999999
147,1778413107120,0.3624398466666667,0.6874825333333333,5.049169888888889,-3.6359580777777776,-1.6405914888888888,0.00987536222222224
148,1778413107130,1.3568778933333334,1.2632749666666667,6.2295913333333335,-1.7242946,-3.190022533333333,0.9255099466666665
149,1778413107140,2.75331904,1.65219402,7.002158560000001,-0.3614307,-3.7283061500000003,1.2367366
150,1778413107150,3.8319308,1.7556004333333333,7.1011559,0.5723214666666667,-3.4614677,0.9416464597777777
151,1778413107160,4.88587362,1.4538074,6.22746681,1.85463916,-1.21185988,-0.9818759162000001
152,1778413107170,4.677678222222222,1.2577901666666667,5.921818844444444,1.7500349777777775,-0.15238942222222224,-1.6280436555555555
153,1778413107180,3.5469648888888887,0.6628028688888888,5.023961644444444,0.9627207277777777,2.435931511111111,-2.563174488888889
154,1778413107190,2.77208548,0.26947303499999997,4.64627697,0.507537715,3.6436886299999998,-2.7862118600000003
155,1778413107200,2.3585861777777777,0.05302478111111111,4.561366944444444,0.3901532366666667,3.997613577777778,-2.7652377555555554
156,1778413107210,1.5184659333333335,-0.5154738488888889,4.668602355555556,0.7595122166666667,4.642261,-2.082378333333333
157,1778413107220,1.5529076400000001,-0.6658681200000001,4.72412908,1.8267845839999999,4.34823978,-1.60494006
158,1778413107230,1.7638020666666667,-0.7199674844444445,4.540488333333333,3.0519286222222224,3.9317098555555554,-1.2863764333333334
159,1778413107240,1.9643219,-0.71034634,4.2986045,3.5713184000000004,3.7538855000000004,-1.1929847
160,1778413107250,2.02043501,-0.69538813,4.0470834600000005,3.87130572,3.6933506100000004,-1.1436282
161,1778413107260,2.3532472,-0.6062142333333334,2.8033343333333334,4.5574296,3.680176566666667,-0.9557723533333333
162,1778413107270,2.5178602999999997,-0.622158258,2.57589107,4.4278484,3.9241896999999994,-0.948523636
163,1778413107280,2.4397493666666668,-0.7969842,2.480022655555556,4.337321,4.0293775,-0.9895726000000001
164,1778413107290,2.3538161666666664,-0.86759128,2.436361633333333,4.345465666666667,4.113674499999999,-1.129253
165,1778413107300,2.2112875,-0.9673125,2.3662357,4.361755,4.2822685,-1.4086138
166,1778413107310,2.2112875,-0.9673125,2.3662357,4.361755,4.2822685,-1.4086138
167,1778413107320,2.03347835,-1.18004742,2.00394006,4.680434,4.98132198,-1.3894942399999999
168,1778413107330,2.0409422,-1.1947647,1.930143,4.888644444444444,5.313242822222222,-1.3949715
169,1778413107340,2.095603288888889,-1.3037989444444444,1.636467388888889,5.095026333333333,5.347382433333333,-1.4876167333333334
170,1778413107350,2.1121964,-1.3658419,1.4962153,5.3219001,5.295603,-1.6023745900000002
171,1778413107360,1.9121847555555556,-1.5159591444444445,1.0664884555555554,5.844018111111111,5.023158222222222,-1.8909116333333331
172,1778413107370,1.800741877777778,-1.567151088888889,0.8887951333333333,6.229734444444444,4.7397250444444445,-2.113395811111111
173,1778413107380,1.3993773600000001,-1.6191463,0.44136416799999995,6.6093215999999995,4.20835593,-2.2758947600000003
174,1778413107390,1.2304986555555555,-1.6225404222222222,0.25331086888888893,6.719701666666667,3.8742224999999997,-2.260745833333333
175,1778413107400,1.1782970888888888,-1.6186581,0.13977443555555558,6.689905955555556,3.7297910444444446,-2.2200226888888888
176,1778413107410,1.00411345,-1.58439125,-0.272988475,6.38959986,3.09294884,-2.12929146
177,1778413107420,1.0783556111111112,-1.4862994444444444,-0.26904347222222225,6.251996,2.709896666666667,-2.1269702
178,1778413107430,1.1295510333333334,-1.413239622222222,-0.2511562566666667,6.078922666666667,2.4814143333333334,-2.2110634333333334
179,1778413107440,0.9038759239999999,-1.3383098,-0.25975296600000003,5.69335616,2.25369052,-2.3992858200000002
180,1778413107450,0.79190594,-1.3155646,-0.21992137,5.4925094,2.1796558,-2.4385023
181,1778413107460,0.6806257622222223,-1.2876903777777777,-0.1494159011111111,5.104248244444445,2.0990239777777777,-2.2731663444444448
182,1778413107470,0.54152554,-1.2528476,-0.061284065,4.6189218,1.9982342,-2.0664964
183,1778413107480,0.5687493333333333,-1.242982488888889,0.005989508888888887,4.62408,1.8166089333333335,-2.003782711111111
184,1778413107490,0.664601811111111,-1.2314099222222223,0.2108016011111111,4.804619255555555,0.8716281444444445,-1.7576790444444443
185,1778413107500,0.6640570699999999,-1.22925769,0.20990554700000003,4.87388933,0.744286846,-1.74610689
186,1778413107510,0.5982326777777778,-1.152380922222222,0.013188438222222225,5.190733888888889,0.15640235133333333,-1.6870922444444443
187,1778413107520,0.48790342400000003,-1.08675553,-0.1400295064,5.243588999999999,-0.112014117,-1.6196615
188,1778413107530,0.43511683999999995,-1.0036764666666667,-0.24098968,5.259912333333333,-0.4993930755555556,-1.4705129555555556
189,1778413107540,0.44716700555555555,-0.9344210666666667,-0.35099611555555554,5.215456277777778,-0.7234382666666668,-1.3770533777777778
190,1778413107550,0.47979323100000004,-0.889975712,-0.43987324699999997,5.16038414,-0.900862244,-1.3142990300000001
191,1778413107560,0.5671062555555555,-0.7837482666666667,-0.4594136622222222,4.8629210222222214,-1.4406408333333334,-1.2553589333333335
192,1778413107570,0.5798509,-0.7618432,-0.45078850000000004,4.8308854,-1.4897801,-1.259567
193,1778413107580,0.368100748,-0.634390676,-0.615804256,4.55521008,-1.6924592100000002,-1.32547744
194,1778413107590,0.28586355555555554,-0.6008209677777778,-0.6788844777777778,4.254788622222222,-1.745182088888889,-1.288276788888889
195,1778413107600,0.249859086,-0.590439959,-0.74668687,4.05828588,-1.8061989600000001,-1.2374543199999999
196,1778413107610,0.2251418588888889,-0.6012749222222222,-0.9901289111111112,3.5294416,-2.1673455666666666,-1.1295923777777777
197,1778413107620,0.21824782,-0.6667394444444444,-1.0094559,3.2587683444444444,-2.5409719,-1.0918555666666667
198,1778413107630,0.17490348900000002,-0.78584157,-0.8625685900000001,3.08319051,-3.1060361800000003,-1.0226805
199,1778413107640,0.22128663333333332,-0.7313570388888889,-0.8215959888888889,3.0367593222222222,-3.5383667333333335,-0.8863394
200,1778413107650,0.32213263,-0.6496517333333334,-0.9281333666666668,2.9048841666666667,-3.6962368333333333,-0.7600976333333334
201,1778413107660,0.595333497,-0.418030496,-1.2415237300000002,2.10426192,-3.3096926000000004,-0.774432178
202,1778413107670,0.5187497999999999,-0.35800869333333335,-1.2010762666666668,1.4911035999999998,-2.8530384333333334,-0.9048684533333334
203,1778413107680,0.080907168,-0.25547222199999997,-1.10093018,0.015072648000000011,-1.54634458,-1.2253596199999999
204,1778413107690,-0.2115265633333333,-0.16595480333333332,-1.0318692,-0.5413973122222222,-1.0997880666666666,-1.3014439666666666
205,1778413107700,-0.33080858888888887,-0.13095614777777775,-1.0008782077777778,-0.79578125,-0.9119186000000001,-1.3261493
206,1778413107710,-0.66077025,-0.1478135,-0.761584085,-1.8922521500000002,-0.399723165,-1.6783028500000001
207,1778413107720,-0.9980155333333334,-0.11299439666666666,-0.3005358333333333,-2.3709527,0.11354124333333335,-1.8995313999999999
208,1778413107730,-1.2898314,-0.09520542,-0.033548703022222216,-2.568052711111111,0.9744540733333333,-2.0028324444444445
209,1778413107740,-1.5405410400000001,-0.168991566,0.023403806160000002,-2.6178164199999996,1.56550986,-2.03412142
210,1778413107750,-1.8468047666666665,-0.2658488433333333,0.03967711333333333,-2.554817733333333,2.0332559333333333,-1.9982850666666667
211,1778413107760,-2.59170606,-0.41973181400000004,0.096029992,-1.83409947,2.33328382,-1.6914360600000002
212,1778413107770,-2.797883422222222,-0.42790098000000004,0.08446292111111112,-1.041545511111111,2.0067180999999996,-1.392324511111111
213,1778413107780,-2.970224,-0.4404220466666666,-0.02833498466666666,0.10689826666666664,1.4816608999999998,-0.9594374
214,1778413107790,-3.2771270200000004,-0.5540292800000001,-0.505520353,1.16328225,1.25269501,-0.540477632
215,1778413107800,-3.461085966666667,-0.6138569600000001,-0.8507712000000001,1.5920969999999999,1.2037254333333334,-0.20725537333333333
216,1778413107810,-3.5789860777777776,-0.5811992222222222,-1.5201598222222221,1.8817744,1.1388399,0.9231345111111112
217,1778413107820,-3.34565264,-0.45824016,-1.7196368399999997,1.6934976899999998,1.22215262,1.5670828499999998
218,1778413107830,-2.7633116666666666,-0.20295561333333334,-1.7881259444444444,1.295428911111111,1.4053049777777777,2.1733351666666665
219,1778413107840,-2.1094646399999997,0.059442492,-1.5940442799999999,0.5473649789999999,1.84717156,2.69158381
220,1778413107850,-1.6762157666666666,0.22640548666666666,-1.3967075666666666,0.15007329666666666,2.193925822222222,2.762743244444444
221,1778413107860,-0.89826715,0.47686724666666663,-1.0305105777777779,-0.9617280466666666,3.7380713777777776,2.304684322222222
222,1778413107870,-0.8313350700000001,0.45614855600000004,-0.96381836,-1.29569862,4.361922959999999,1.9606517
223,1778413107880,-1.251445022222222,0.151038625,-1.265144911111111,-1.5055857222222224,4.915377555555556,1.5984600111111111
224,1778413107890,-1.5890866333333333,-0.156350595,-1.6684205333333333,-1.772526,5.032592333333334,1.4995028
225,1778413107900,-1.6155088799999997,-0.28467515200000004,-1.7922083,-1.95810146,4.6718668,1.6839379399999999
226,1778413107910,-1.1846557666666666,-0.3165868944444445,-1.4465782555555555,-2.4931900666666666,3.2288961222222223,2.2469082555555557
227,1778413107920,-0.8421070499999999,-0.288019865,-1.02661472,-2.5883125,2.4267816,2.40314945
228,1778413107930,-0.061893883333333316,-0.30882224333333336,-0.12091151777777781,-2.361043488888889,1.0679816333333332,2.3883534777777777
229,1778413107940,0.5389169444444444,-0.6007769244444444,0.4750988311111111,-2.1423602,1.274380088888889,2.185009144444445
230,1778413107950,0.604968224,-0.92860908,0.527988108,-2.02865434,1.9676917600000003,2.00689283
231,1778413107960,-0.064942814,-1.3941667,-0.14473405,-2.107949111111111,3.477706266666667,2.1588784666666667
232,1778413107970,-0.12936391444444445,-1.4058747,-0.3150285611111111,-2.2193269,3.2641896555555556,2.5905778111111113
233,1778413107980,0.013476394499999999,-1.4615882199999999,-0.64583648,-2.36174936,2.60422516,3.2349554999999994
234,1778413107990,0.31467961277777773,-1.3030265444444444,-0.8058058777777778,-2.4145265333333334,1.4472498666666667,3.5296281
235,1778413108000,0.409139725,-1.16304045,-0.8395459800000001,-2.50053381,0.631806936,3.62565325
236,1778413108010,0.48745393333333337,-0.9242578655555556,-0.7934372688888889,-3.0225909555555557,-0.8145223866666667,3.5395375777777778
237,1778413108020,0.49444622,-0.8485488277777777,-0.7665318777777776,-3.214812733333334,-0.9907178666666666,3.4982714
238,1778413108030,0.5229299110000001,-0.85133014,-0.7015683779999999,-4.05142932,-1.44323348,3.3248720599999997
239,1778413108040,0.6323370100000001,-0.9889026,-0.47447887555555557,-4.889620222222222,-1.9750644,3.1788660444444443
240,1778413108050,0.6763470288888889,-1.0411244888888889,-0.3888708922222222,-5.0759286,-2.1300923777777774,3.1513779333333334
241,1778413108060,0.9530250599999999,-1.4698692599999998,0.10938747800000001,-5.9533098099999995,-2.88069476,3.04046164
242,1778413108070,0.9905896444444444,-1.5731473888888887,0.21171966222222222,-6.18469291111111,-2.8724074444444443,3.0223535
243,1778413108080,1.0078400222222224,-1.705431611111111,0.3430823466666666,-6.449664888888888,-2.7229363777777777,3.029412211111111
244,1778413108090,1.01011384,-1.9672612900000002,0.6078281839999999,-6.89530488,-2.29903044,3.0917117299999997
245,1778413108100,1.0173798333333333,-2.0145450444444446,0.6769196033333333,-7.0662813,-2.0890212,3.130745
246,1778413108110,0.9479719755555556,-2.1603257555555557,1.1606876922222222,-7.281028,-1.6735772777777778,3.1261974888888893
247,1778413108120,0.96702288,-2.1383717,1.20214335,-7.1745234,-1.7514671,3.1213379199999998
248,1778413108130,1.0153743000000002,-2.056176966666667,1.0786604333333334,-6.685926666666666,-2.407730866666667,2.9588932999999997
249,1778413108140,1.01069925,-2.01940135,0.9473570499999999,-6.3393725,-3.03407835,2.87021865
250,1778413108150,1.0181488777777778,-2.0098732888888886,0.86616165,-6.185439,-3.3737094,2.858918
251,1778413108160,1.2419322333333334,-2.024203433333333,0.7469236833333334,-6.107861666666667,-3.9986061333333334,2.9385315999999997
252,1778413108170,1.3503745299999999,-2.09364651,0.7987691650000001,-6.22685493,-4.1562048,3.03594136
253,1778413108180,1.5108334666666667,-2.1547565555555557,1.0736161555555557,-6.356951666666666,-3.964330777777778,3.2630951111111113
254,1778413108190,1.6872529333333335,-2.161437133333333,1.5177816666666668,-6.3826073333333335,-3.5401313222222224,3.465149888888889
255,1778413108200,1.73233272,-2.0887621199999997,1.73612572,-6.26179536,-3.0734169400000004,3.55259608
256,1778413108210,1.8042311999999998,-1.7914663666666668,1.8086827333333335,-5.932209222222223,-2.454274022222222,3.6259383666666665
257,1778413108220,1.8581673333333333,-1.6457667999999999,1.7459656333333333,-5.7554028666666674,-2.2217786999999998,3.6261419333333333
258,1778413108230,2.08917076,-1.3182598,1.59292222,-5.6998158000000005,-2.11131715,3.3741673999999997
259,1778413108240,2.239951111111111,-1.0306325722222223,1.5811186888888888,-5.860061444444444,-1.8436642555555554,2.7520450555555556
260,1778413108250,2.2613208,-0.9270357500000002,1.6218934,-5.9887466,-1.6791427,2.4275835
261,1778413108260,1.8666669599999999,-0.77114259,1.9417290600000001,-6.22661023,-1.28074814,1.84862231
262,1778413108270,1.488437088888889,-0.6066715777777778,2.523663511111111,-6.289147288888889,-0.9340448333333333,1.5544790444444443
263,1778413108280,1.5446754600000001,-0.27790950700000006,3.19984222,-5.88917831,-0.496420296,1.47942631
264,1778413108290,1.7012069777777779,-0.08378537488888889,3.5731996666666666,-5.5668207222222215,-0.16342709555555557,1.3822201222222223
265,1778413108300,1.8432782666666665,0.059800236,3.769284866666667,-5.143664666666666,0.29473380666666665,1.1175196
266,1778413108310,1.7170514399999999,0.352105894,3.767232,-4.1656578,1.14915638,0.355589456
267,1778413108320,1.568739911111111,0.5057544388888888,3.4340926888888887,-3.8202303777777775,1.3042437333333332,0.04015471666666667
268,1778413108330,1.2419424333333333,0.6691853733333333,2.7896750999999997,-3.5473851444444446,1.2572763555555555,-0.4435429688888889
269,1778413108340,0.77479524,0.683667924,2.6733146,-3.67978969,1.0187405200000001,-0.6402289929999999
270,1778413108350,0.45855655177777777,0.6980657966666667,2.731646511111111,-3.7414988222222223,0.8614473622222223,-0.671049631111111
271,1778413108360,-0.3021029908,0.9378169140000001,3.90505092,-3.45463131,-0.49291555000000004,0.01978382099999999
272,1778413108370,-0.11685302400000001,1.0757877333333334,4.752658888888889,-2.8511040333333337,-1.4958886133333333,0.71965445
273,1778413108380,1.7504239093333331,1.418643088888889,6.214318944444445,-0.5751975133333334,-2.8745029666666664,1.6653138222222224
274,1778413108390,2.62992468,1.5075087200000001,6.67189507,0.12649120799999997,-2.9656634,1.5858358080000001
275,1778413108400,3.607232633333333,1.4745271666666668,6.774145133333333,2.2396206000000003,-2.6339478333333335,0.6703794200000001
276,1778413108410,3.6989388666666674,1.2362713333333335,5.936898244444445,3.3819559333333333,-1.5274490333333335,-0.36403954
277,1778413108420,3.53464836,1.08482854,5.2476383,3.6560430000000004,0.23836025,-1.0163888
278,1778413108430,3.3893846666666665,0.9341297000000002,4.445696,3.3750328666666665,1.7891207,-1.4039306666666667
279,1778413108440,3.1533953333333336,0.7698009833333334,3.7682279999999997,2.7935063666666666,2.9237185666666665,-1.9186713666666668
280,1778413108450,2.88999178,0.6313356,3.5049241600000003,2.55302856,3.26160365,-2.15445843
281,1778413108460,2.3139764888888887,0.25446607777777774,3.4652426666666667,2.2571061111111113,3.304980666666667,-2.664303688888889
282,1778413108470,2.0868494666666666,0.05483382888888888,3.508253377777778,2.2241203333333335,3.321948611111111,-2.7308351333333336
283,1778413108480,1.62972925,-0.38148568,3.7284037,2.31362986,3.4356339999999994,-2.36364296
284,1778413108490,1.3629622444444445,-0.6752257111111111,4.0306554000000006,2.458974188888889,3.525496422222222,-1.9407975333333336
285,1778413108500,1.4388949,-0.7342501,4.425258,2.9130287111111115,3.6590005555555556,-1.2098848777777778
286,1778413108510,2.3840356,-0.697680938,4.73609346,4.41856338,3.58724641,-0.706444863
287,1778413108520,2.6395952000000005,-0.6938921133333333,4.611082133333333,5.095560333333333,3.3404777222222224,-0.8274265644444445
288,1778413108530,2.7977139777777777,-0.6605839311111111,4.140651322222222,6.197427255555556,2.8508580666666665,-1.2685940777777778
289,1778413108540,2.87012484,-0.618042188,3.8093990599999996,6.7163420700000005,2.7467662600000002,-1.6128200499999998
290,1778413108550,2.8826683,-0.6095478,3.7558594000000003,6.8601966,2.7398026,-1.7189242
291,1778413108560,2.7104425666666665,-0.5880627500000001,3.0914710000000003,6.564342666666667,4.082317733333333,-2.1829644333333333
292,1778413108570,2.627638,-0.542059085,2.8930194,6.299744,4.8353905500000005,-2.2613565
293,1778413108580,2.5087134222222223,-0.5037624900000001,2.658501888888889,6.076275866666666,5.5499461000000005,-2.3455855555555556
294,1778413108590,2.253674888888889,-0.563982788888889,2.314044077777778,5.992861188888889,5.971608888888889,-2.4885238
295,1778413108600,2.0082880399999996,-0.65119349,2.0713707500000003,6.0043993,6.072738,-2.5899923
296,1778413108610,1.6722654555555556,-0.7994131888888889,1.7013085444444445,6.3381256666666665,5.508264333333333,-2.591214
297,1778413108620,1.3706864,-0.9716522,1.1428342777777778,6.449910833333333,5.182793055555555,-2.5287718888888886
298,1778413108630,1.27926984,-1.12351374,0.801534559,6.6102378999999996,4.8249452,-2.4312942800000004
299,1778413108640,1.1756716,-1.2474202555555556,0.4416009777777778,6.7861483555555555,4.458192355555556,-2.3533230444444446
300,1778413108650,1.0999151244444443,-1.3027351444444446,0.27012078222222224,6.818048133333333,4.310095844444444,-2.3102922666666665
301,1778413108660,1.021663288,-1.36224104,-0.190428796,6.7859786600000005,3.7323226500000004,-2.1005816
302,1778413108670,1.0908767,-1.3078506666666665,-0.35714479666666665,6.667983433333333,3.4275573999999995,-2.1417661777777774
303,1778413108680,0.8980842111111111,-1.2943979888888888,-0.5742611155555556,6.249281266666667,2.9572133555555555,-2.3501329111111113
304,1778413108690,0.85654384,-1.2842395199999999,-0.600425244,6.072936400000001,2.80662932,-2.4171225
305,1778413108700,0.7355307,-1.2338117333333334,-0.6568472466666666,5.601036666666666,2.6198730666666665,-2.4867592
306,1778413108710,0.5285918000000001,-1.2072533399999998,-0.741201776,4.80220616,2.47762708,-2.47515314
307,1778413108720,0.3600413333333334,-1.1867969,-0.7581133333333333,4.263001044444445,2.4793102444444446,-2.3901095555555556
308,1778413108730,0.10852259444444444,-1.1272033000000001,-0.5667335977777778,3.5122019333333334,2.436143655555556,-2.110137866666667
309,1778413108740,0.09697720000000001,-1.0226681111111111,-0.24144023277777776,2.9713308,2.2667354222222222,-1.7426114666666668
310,1778413108750,0.15691159400000002,-0.9349082799999999,0.0208731704,2.8847262799999998,2.10342201,-1.54898649
311,1778413108760,0.1360919611111111,-0.954405311111111,0.21907444,3.0174836000000003,1.8495945666666667,-1.3289999666666668
312,1778413108770,0.07230774555555557,-0.9727329222222222,0.18951647666666668,3.1139974444444443,1.7399135666666667,-1.177170511111111
313,1778413108780,-0.07483972800000001,-0.967019796,-0.006128408999999996,3.2035884499999994,1.46832405,-0.72415944
314,1778413108790,-0.048932389444444446,-0.8909598,-0.18899815222222222,3.1856023444444443,0.9632552,-0.1119462438888889
315,1778413108800,0.07900190455555556,-0.816551688888889,-0.26080451222222223,3.139585088888889,0.6784646722222223,0.13011895
316,1778413108810,0.31493301,-0.731533528,-0.30417324,3.06003935,0.155895853,0.304766972
317,1778413108820,0.5863553533333333,-0.61368418,-0.2526163666666667,2.9917603555555554,-0.4336252066666667,0.38463863555555555
318,1778413108830,0.6295489433333333,-0.5721167166666667,-0.2802704333333333,2.9545665333333333,-0.5954318555555556,0.35898305333333336
319,1778413108840,0.623527215,-0.542546885,-0.45761816499999997,2.77245248,-0.840938152,0.342517332
320,1778413108850,0.7113016466666666,-0.5182619,-0.6103912966666667,2.4863011111111115,-1.001102301111111,0.3410648711111111
321,1778413108860,0.86765228,-0.5334050733333333,-0.6414703433333333,1.5927078666666667,-1.1749901333333332,0.11573010666666667
322,1778413108870,0.81554152,-0.611602744,-0.52619532,1.125043196,-1.10103686,-0.047126868
323,1778413108880,0.64166348,-0.7788767088888888,-0.2304673777777778,0.5807375911111111,-0.9942472166666667,-0.19492815333333333
324,1778413108890,0.6001468266666666,-0.8195769177777777,-0.1515603388888889,0.47438229666666665,-0.9825053888888888,-0.21623993555555557
325,1778413108900,0.54786736,-0.8775207399999999,-0.07128465,0.47058147000000006,-1.0243145,-0.18691926
326,1778413108910,0.6208153666666667,-0.846983708888889,-0.1495446311111111,0.5427971822222222,-1.265802811111111,-0.22289137888888888
327,1778413108920,0.8770701333333334,-0.7551321111111111,-0.28203881666666664,0.5791765111111111,-2.032483922222222,-0.5478621344444444
328,1778413108930,0.912861178,-0.670472051,-0.196215722,0.352382509,-2.02787544,-1.115101622
329,1778413108940,0.83845338,-0.6145886766666666,-0.23684309666666664,0.09816824466666667,-1.6365870666666666,-1.4566670666666666
330,1778413108950,0.7376920755555556,-0.5855287055555556,-0.31238951,-0.06208583488888889,-1.3634025977777777,-1.5898317888888889
331,1778413108960,0.20944818999999998,-0.50348974,-0.281184084,-0.9389638680000001,0.0009773680000000006,-2.03913026
332,1778413108970,-0.03507318666666667,-0.4340700533333333,-0.056487032,-1.2428535555555555,0.5935568999999999,-2.169390066666667
333,1778413108980,-0.45930423000000004,-0.31160966300000004,0.30530439859999997,-1.119774638,1.24689194,-2.28957772
334,1778413108990,-0.8141769,-0.2931810688888889,0.3096217255555555,-0.5678334455555556,1.621816411111111,-2.290880866666667
335,1778413109000,-1.083742088888889,-0.32244089,0.11787612222222221,0.026834857777777776,1.7291219444444443,-2.2170362000000003
336,1778413109010,-1.45496288,-0.284138518,-0.624408384,1.109283336,1.27120368,-1.88580766
337,1778413109020,-1.6084135999999998,-0.11556906555555553,-1.0173255777777779,1.6005131333333333,0.9813091333333332,-1.6198311666666667
338,1778413109030,-1.6507264333333334,0.24766349555555556,-1.5123239666666666,2.0034009000000004,0.7299116,-1.2732092666666666
339,1778413109040,-1.70942294,0.352191264,-2.01336752,1.9880482000000002,0.721807676,-1.12676888
340,1778413109050,-1.8492441,0.22487082666666666,-2.2351474000000002,1.8537431999999998,0.833687731111111,-1.0776024933333332
341,1778413109060,-2.5999282666666668,-0.19221650666666668,-2.7200163333333336,1.1081024,1.9342988333333335,-0.5845808133333333
342,1778413109070,-2.9073953555555554,-0.1941746188888889,-2.833983088888889,0.8191716333333334,2.255197266666667,-0.16612499999999997
343,1778413109080,-2.92715866,0.167784172,-2.82071332,0.65029273,2.23292156,0.81958904
344,1778413109090,-2.563381288888889,0.44395544,-2.762247844444444,0.7122733499999999,1.9218781111111112,1.3078324444444445
345,1778413109100,-2.3467832,0.5011268,-2.7182074,0.7417976,1.6805935,1.500928
346,1778413109110,-1.8126971600000001,0.39616335999999996,-2.71314002,0.5406456239999999,1.97709877,1.69071826
347,1778413109120,-1.4345281666666665,0.2813510955555556,-2.760574266666667,-0.061161077777777795,2.263477544444444,2.0198087777777776
348,1778413109130,-1.2118627555555554,-0.1371590877777778,-2.3875883555555557,-0.9476107333333332,2.0752008111111113,2.4045068444444446
349,1778413109140,-1.17668449,-0.35420968799999997,-1.7838326800000002,-1.29808096,2.03867221,2.7030678299999997
350,1778413109150,-1.1690011,-0.41871345,-1.5619204,-1.3895248,2.0324416,2.7996657
351,1778413109160,-1.0391765,-0.75156826,-0.7014129,-1.3335983555555557,2.1349281555555555,3.0045030999999995
352,1778413109170,-0.8643034799999999,-1.29932885,-0.35645373,-0.9359707500000001,2.4682810500000003,3.882087
353,1778413109180,-0.4617037622222222,-1.567452577777778,-0.8187706955555556,-0.34307557777777775,1.8195952333333334,4.437075666666667
354,1778413109190,-0.07673211600000002,-1.575407,-1.0614644133333333,-0.3331662888888889,0.9369888,4.661392444444445
355,1778413109200,0.093450576,-1.5679269,-1.1531466,-0.4146126,0.3733804,4.750712
356,1778413109210,0.26531697244444447,-1.5850620333333334,-0.966258991111111,-0.686779,0.12278031111111111,4.769716066666667
357,1778413109220,1.0037272444444445,-1.6468779333333332,-0.16127634755555556,-1.8028648000000003,-0.6706339333333333,4.8350086333333335
358,1778413109230,1.28420292,-1.5685061399999998,0.3236774372,-2.2932733,-0.20913884,4.784308449999999
359,1778413109240,1.2281102666666666,-1.2819041,0.6390413166666666,-2.5283478,0.44462043999999995,4.659084533333333
360,1778413109250,1.1636045,-1.1654949,0.697937,-2.5641842,0.6244386,4.620601
361,1778413109260,1.1215014499999998,-1.06306818,0.645150398,-2.58250956,0.67672713,4.5686791
362,1778413109270,1.0128267222222223,-0.5541583488888889,0.26496802666666663,-2.7546326444444444,0.70344151,4.173325466666666
363,1778413109280,0.9697855555555555,-0.4170975166666666,-0.12429587111111112,-3.3998655555555555,0.4268379988888889,3.7407776777777775
364,1778413109290,0.9720892666666666,-0.6080470355555555,0.021125892666666663,-5.285440755555556,0.2848584311111111,2.7275263333333335
365,1778413109300,0.96000116,-0.6764541319999999,0.1006217264,-5.722172800000001,0.374113396,2.48659122
366,1778413109310,0.7409172222222222,-1.1238257,0.5279204111111111,-6.710428733333334,0.7749785166666666,1.8573235111111113
367,1778413109320,0.56856976,-1.31894278,0.719706642,-7.1631616,1.042991168,1.52804968
368,1778413109330,0.3421981333333333,-1.4542209555555554,0.9366196955555556,-7.3277237555555566,1.0637735666666666,1.3170630555555556
369,1778413109340,0.1850819277777778,-1.4814380333333335,1.0044929377777778,-7.249399444444445,0.8708815533333333,1.279461966666667
370,1778413109350,0.08784049120000001,-1.4748025200000001,1.01205607,-7.07544369,0.5026738319999999,1.29458378
371,1778413109360,0.18649122599999998,-1.368013388888889,0.8021877222222221,-6.843185944444445,-0.2752800166666667,1.3883965111111112
372,1778413109370,0.28855681777777775,-1.3402848555555555,0.7103090333333334,-6.8469868,-0.4733303066666667,1.3822201
373,1778413109380,0.561965724,-1.4736775400000002,0.557953268,-7.109406760000001,-0.9324431200000001,1.125990016
374,1778413109390,0.5803421522222223,-1.6399229333333334,0.5742577577777778,-7.46095591111111,-1.3828818555555555,0.8427062044444444
375,1778413109400,0.56786853,-1.6775064,0.5883575,-7.51281,-1.4378581,0.80944896
376,1778413109410,0.428262816,-1.9302863000000001,0.813138893,-7.8645973,-1.6599011099999998,0.8887980299999999
377,1778413109420,0.44999580000000006,-2.116526,1.0152116,-8.028976,-1.6846404,1.0641723
378,1778413109430,0.49605877777777774,-2.3517836333333335,1.3283058555555556,-8.144630222222222,-1.6729663555555556,1.5085975888888887
379,1778413109440,0.5709601400000001,-2.33519728,1.43643134,-7.98792732,-1.7752900600000001,1.8636491400000001
380,1778413109450,0.8486064333333334,-2.153621666666667,1.4839381,-7.697082733333334,-1.9444541,2.2044205666666667
381,1778413109460,1.3277333111111114,-1.8269020333333335,1.4358526888888887,-7.474055644444444,-2.1763045555555554,2.239510344444444
382,1778413109470,1.6861105600000001,-1.58886098,1.38395268,-7.326257720000001,-2.426606,2.0729254399999997
383,1778413109480,1.7773123333333334,-1.4454570222222223,1.6658695444444445,-7.4983536666666675,-2.3709017777777777,1.394233411111111
384,1778413109490,1.5649218555555555,-1.4025684,2.092530511111111,-7.528896,-2.1114189333333337,1.1688307666666666
385,1778413109500,1.5057585,-1.396606,2.190524,-7.425092739999999,-1.8826770200000003,1.11597212
386,1778413109510,1.382526411111111,-1.1835581777777777,2.9983760888888886,-6.861104411111111,-1.3931305666666667,1.2447115777777777
387,1778413109520,1.4718033444444445,-1.0069862333333335,3.2505350999999996,-6.4389409111111116,-1.1959626222222224,1.3112260777777778
388,1778413109530,1.76515484,-0.527088686,3.4584271799999997,-5.610028720000001,-0.8271941080000002,1.19886412
389,1778413109540,1.947403722222222,-0.05196780266666667,3.463820122222222,-5.045657711111111,-0.5721517822222223,0.9851014866666667
390,1778413109550,1.9734079444444446,0.037515740666666665,3.452484777777778,-4.964415044444444,-0.5315643733333333,0.9285641811111112
391,1778413109560,2.24442366,0.7306646019999999,3.3062050800000002,-4.4896508,-0.285311482,0.361942273
392,1778413109570,2.3723537777777777,0.9555639177777778,3.2782400555555555,-4.440308022222222,-0.23007731333333334,0.05732631111111111
393,1778413109580,2.5111424666666666,1.2847497666666667,3.2891553,-4.5970921888888885,0.0027233644444444407,-0.7178133777777779
394,1778413109590,2.360656,1.37992805,3.4076073,-4.916022249999999,0.40663338,-1.58728655
395,1778413109600,2.1764073,1.3706592,3.5181625,-5.113326,0.65498096,-2.0261803
396,1778413109610,0.6810085444444444,0.9858637277777778,4.334050422222223,-4.919415944444444,0.7047311011111111,-2.2501576777777776
397,1778413109620,-0.028318730999999993,0.888064025,5.214661099999999,-4.6961174,0.5517478,-2.1178074
398,1778413109630,0.11933622777777779,0.9353730222222221,5.8952424,-3.1553909555555553,-0.4848600084444443,-0.8469397055555556
399,1778413109640,1.40912504,1.05303697,6.58333528,-0.331300674,-1.8648403300000003,0.45796747574999996
400,1778413109650,1.773403088888889,1.0715461777777777,6.5809191333333334,0.36490488,-2.1397216,0.65001786
401,1778413109660,2.98678,1.0428251333333334,5.543494066666666,2.1707476444444445,-1.9371918,-0.1268186911111111
402,1778413109670,3.1335364500000003,1.0136109999999998,4.9323913,2.6403873,-1.40731575,-0.73362757
403,1778413109680,2.8948639333333333,0.9534906066666665,4.3524592,2.2474427777777777,-0.2554274777777777,-1.3642934000000002
404,1778413109690,2.7058082333333333,0.8429455533333333,4.160649333333334,1.2724881333333333,1.719755688888889,-2.2473749555555553
405,1778413109700,2.6434469,0.740281026,4.2070016,1.103052663,2.04081022,-2.4049744
406,1778413109710,2.4358196555555556,0.3679042722222222,4.481995777777778,0.9568837344444445,2.847057222222222,-2.992209822222222
407,1778413109720,1.8879963666666666,-0.20555061444444445,4.706907422222222,1.6428652444444447,3.197267777777778,-3.1897172222222223
408,1778413109730,1.40361855,-0.44921828999999996,4.45163185,2.65734604,3.2656352400000004,-2.9280505700000004
409,1778413109740,1.0001905111111111,-0.5425214933333333,4.029459666666667,3.2023668333333335,3.1639426999999998,-2.5643028222222224
410,1778413109750,0.9226026199999999,-0.528186296,3.86921076,3.5058357,3.0862293000000003,-2.24523012
411,1778413109760,1.2141256666666669,-0.44376572666666664,4.020803666666667,4.014861388888889,3.1556623555555556,-1.4234098555555557
412,1778413109770,1.3972664777777777,-0.4259225577777778,4.159090888888889,4.156102799999999,3.2092133333333335,-1.2609923333333333
413,1778413109780,1.5412180333333334,-0.45831943333333336,4.169745333333333,4.548470433333333,3.3533733666666667,-1.0842538666666668
414,1778413109790,1.79101007,-0.515773996,4.02693912,5.2281425,3.60911477,-0.92506709
415,1778413109800,1.9937275333333335,-0.49782713999999995,3.7654263555555554,5.6439994888888885,3.786531866666667,-0.9469489888888888
416,1778413109810,1.9508929999999998,-0.5320974511111111,3.059314666666667,6.05828988888889,4.016481866666667,-1.2273957444444443
417,1778413109820,1.825076,-0.553660336,2.56386292,6.142451,4.06651741,-1.54599334
418,1778413109830,1.678333,-0.6178104222222223,2.3156126666666665,6.124872211111111,3.998428,-1.8250079888888888
419,1778413109840,1.5361567111111112,-0.6979099888888889,2.168456488888889,6.122157322222222,3.9748763333333335,-1.8865678222222222
420,1778413109850,1.4879222,-0.72961575,2.1407347,6.1406183,3.939583,-1.9327208
421,1778413109860,1.03344749,-1.26679036,1.74567202,6.81517721,3.5563986400000003,-2.0247143000000003
422,1778413109870,0.9225538099999999,-1.3997666333333332,1.4560301,7.042432633333333,3.6268293333333332,-1.9003457999999998
423,1778413109880,0.851354566,-1.48732458,0.7590137799999999,6.87827769,4.10249598,-1.45375539
424,1778413109890,0.8620421733333333,-1.4631443333333334,0.4709116266666666,6.61056358888889,4.228242244444445,-1.2428026777777776
425,1778413109900,0.8923386666666667,-1.4257302111111112,0.30268027555555554,6.422219,4.2393054,-1.1463567000000001
426,1778413109910,0.88651514,-1.3625794,0.17193076999999998,5.94655229,4.08313207,-1.0541391800000002
427,1778413109920,0.7510431655555555,-1.316435288888889,0.17402776777777776,5.623841588888889,3.8043142444444444,-1.0877832333333333
428,1778413109930,0.6079013433333333,-1.3139385333333333,0.24450612666666668,5.307422833333334,3.3444142,-1.1200903
429,1778413109940,0.5343055600000001,-1.30175895,0.356136638,5.1430514700000005,2.9630903,-1.06611173
430,1778413109950,0.5323921633333334,-1.2903294222222224,0.39354262222222225,5.072781066666667,2.801701866666667,-1.0319246333333334
431,1778413109960,0.43991387000000004,-1.2185162,0.33919662666666667,4.9155898,2.6066380000000002,-0.9928304066666667
432,1778413109970,0.347849562,-1.20237498,0.262954372,4.8181799,2.5200199000000003,-0.948645784
433,1778413109980,0.23101280888888887,-1.1640889222222224,0.10379332222222222,4.5800309,2.2191571666666667,-0.76335544
434,1778413109990,0.14362626555555555,-1.1793642333333334,0.019001786555555556,4.325171999999999,1.8520379333333332,-0.5592645577777778
435,1778413110000,0.11125344138,-1.1822488899999999,-0.0004969804000000001,4.2647524400000005,1.7499246400000001,-0.5010168800000001
436,1778413110010,-0.06347592846666666,-1.0552953333333333,-0.07711154633333334,3.9991152666666667,1.0854246666666667,-0.06021936533333334
437,1778413110020,-0.05386493266666667,-0.9979749066666668,-0.14750860833333335,3.8660184222222225,0.6502978111111112,0.20728932311111115
438,1778413110030,0.0520396208,-0.9227763899999999,-0.193181998,3.6849361600000003,0.06258894000000001,0.475620943
439,1778413110040,0.10221124555555555,-0.8960041688888888,-0.19666458666666667,3.6191682666666662,-0.14143658999999997,0.5510605766666666
440,1778413110050,0.18462459,-0.8551752611111111,-0.15781409200000002,3.5336496222222222,-0.40572984333333334,0.5855395211111111
441,1778413110060,0.42672002400000003,-0.73606119,0.0336483072,3.30217923,-1.3125122,0.64250444
442,1778413110070,0.5299461744444445,-0.7568259933333334,0.12263589222222221,3.2352167777777776,-1.6891877777777777,0.722437191111111
443,1778413110080,0.6205951133333333,-0.7593837366666666,0.16022276333333332,3.1997875333333337,-1.7273997,0.7774134399999999
444,1778413110090,0.8882164859999999,-0.622829028,0.138776382,3.1309586499999997,-1.7083412499999997,0.7933836679999999
445,1778413110100,1.0193684266666667,-0.5787228,0.08855190909999999,3.0805366555555556,-1.7050019333333333,0.7364866444444444
446,1778413110110,1.1365094,-0.5702467,-0.07625444423333333,2.789433933333333,-1.6824006,0.30611084666666666
447,1778413110120,1.0789105600000002,-0.56975886,-0.11692754999999999,2.56241248,-1.6308858400000001,0.1073411334
448,1778413110130,0.8414583666666666,-0.5663440222222222,-0.029554570000000002,2.1760669999999998,-1.5716336,-0.040697699833333344
449,1778413110140,0.7602679533333334,-0.55935174,0.031790474,2.070594,-1.5700047,-0.04255569266666667
450,1778413110150,0.80796788,-0.553806697,0.018019345200000002,2.06843562,-1.56882376,-0.0461800516
451,1778413110160,1.0898772444444444,-0.44364037999999995,-0.06735487933333334,2.1170863222222223,-1.491069688888889,-0.26918002555555554
452,1778413110170,1.22084556,-0.23975788800000003,-0.1139456676,2.1733182699999998,-1.35038478,-0.628683994
453,1778413110180,0.7372178,-0.09830180277777778,-0.463760088888889,2.1911344444444443,-0.5077413466666667,-1.6789475999999999
454,1778413110190,0.3305782305555556,-0.06578297055555554,-0.8374607555555555,2.04935,0.07851083999999998,-2.049188877777778
455,1778413110200,-0.035020335500000006,-0.052746981799999995,-1.2265440900000002,1.75372716,0.4730706720000001,-2.2134660999999998
456,1778413110210,-0.7375464422222221,-0.1107280062222222,-1.6069399333333334,0.9200293055555555,0.38552946888888884,-2.0177642555555555
457,1778413110220,-0.902440911111111,-0.12146711888888888,-1.2169578666666667,0.6196960666666667,0.4537407322222222,-1.7155984666666666
458,1778413110230,-0.9207211111111112,-0.08730523555555554,-0.8442735333333334,0.54815906,0.7909962666666667,-1.4562598666666666
459,1778413110240,-0.806769626,0.0249740175,-0.6493793370000001,0.63367766,1.2597197,-1.3133216
460,1778413110250,-0.75998336,0.07549221,-0.63796407,0.7721363888888889,1.5284925888888887,-1.3225521777777778
461,1778413110260,-1.1683913499999998,0.17458336000000002,-1.047363,1.9584832200000002,2.2351206,-1.61129286
462,1778413110270,-1.4287249444444443,0.25177282888888886,-1.4548952666666668,2.4263616333333338,2.229745133333333,-1.6576358333333332
463,1778413110280,-1.4585505444444447,0.28529781111111113,-1.6876728666666667,2.7615386666666666,2.219971666666667,-1.5975691666666667
464,1778413110290,-1.45134081,0.328016102,-1.8821402800000002,3.10304304,2.51855385,-1.52888961
465,1778413110300,-1.4705872111111111,0.2833193888888889,-2.098554066666667,3.2749897333333333,2.608741988888889,-1.4906709555555555
466,1778413110310,-1.6319990111111111,0.006809336666666663,-2.8054246000000003,3.563648933333333,2.0792730666666666,-1.3285928
467,1778413110320,-1.76300524,-0.0284284884,-3.08902168,3.5013765,1.298936185,-1.124997418
468,1778413110330,-1.7437805777777777,0.087125676,-3.1189996666666664,2.699597155555556,0.08148872777777776,-0.49553288777777776
469,1778413110340,-1.4209365333333333,0.08746444933333333,-2.6897604666666663,1.6220286,-0.29129778333333334,0.19531841
470,1778413110350,-1.1898925599999999,-0.0449050656,-2.48028488,1.1679247199999998,-0.087748206,0.44929343599999993
471,1778413110360,-0.9067297000000001,-0.16757076,-2.4195923666666665,0.16441123555555553,0.5150969622222221,0.9562559444444445
472,1778413110370,-0.8105418444444444,-0.17707334555555557,-2.2716738666666663,-0.11567071222222222,0.34181995,1.0954612333333333
473,1778413110380,-0.7150173360000001,-0.1970176,-1.9626573,-0.426463008,-0.262679592,1.4009934
474,1778413110390,-0.5455602822222222,-0.17392614444444443,-1.6915791666666666,-0.6958059,-0.9742250333333333,1.7297921333333335
475,1778413110400,-0.45075797999999995,-0.15147226,-1.5856109,-0.8115953866666666,-1.2308487555555554,1.844292066666667
476,1778413110410,-0.051512156499999996,-0.36549387499999997,-0.9858502,-1.032423524,-1.3403668400000002,2.0080534400000003
477,1778413110420,0.035706691666666665,-0.5239634833333333,-0.747858688888889,-1.1353445444444445,-1.1478413333333333,2.1017982222222225
478,1778413110430,0.06540016,-0.600035,-0.6518673,-1.1787825,-0.7335512,2.1979048
479,1778413110440,0.09815274222222221,-0.5997097777777777,-0.7405987666666667,-1.176610588888889,-0.3529254871111111,2.2435146666666665
480,1778413110450,0.13909347,-0.59930325,-0.8515131,-1.1751174000000002,0.09618299022222222,2.2995089333333336
481,1778413110460,0.2224825,-0.5013005749999999,-0.86612368,-1.22245805,-0.20272494000000002,2.24921595
482,1778413110470,0.2776788166666667,-0.4746855377777778,-0.8846654244444444,-1.3143905666666666,-0.29170502,2.1673624666666664
483,1778413110480,0.28422050888888895,-0.54498437,-0.8858680777777779,-1.5966020777777779,-0.18514609999999998,1.9698551999999998
484,1778413110490,0.144319394,-0.675734548,-0.89426559,-2.1127680399999997,0.124376143,1.6747140900000002
485,1778413110500,0.03705839888888888,-0.7317906533333333,-0.8959838611111111,-2.2737602555555556,0.19127155555555556,1.6034146444444444
486,1778413110510,-0.14573005777777778,-0.8316270644444445,-0.8282089355555555,-2.7212397555555556,-0.13112005777777777,1.561605588888889
487,1778413110520,-0.1582036811111111,-0.9032437222222222,-0.7146216377777779,-2.9138348222222223,-0.4847327455555555,1.6346358
488,1778413110530,-0.15083197,-0.9480430999999999,-0.6318661,-3.0254502,-0.70300883,1.6878474
489,1778413110540,-0.081989878,-1.147346777777778,-0.28889556777777775,-3.226690311111111,-0.4691900744444444,1.8795856222222223
490,1778413110550,0.0592656548,-1.45812472,0.272473209,-3.38786573,-0.11864944,2.04672019
491,1778413110560,0.11865868444444445,-1.5847300444444443,0.5954818944444444,-3.2836349,0.6211807766666666,2.0148542333333332
492,1778413110570,0.06530868866666667,-1.5669309333333332,0.5601343000000001,-3.1461263777777777,0.9204959,1.9319826000000002
493,1778413110580,-0.0499907208,-1.5566274,0.465502764,-2.98055285,0.9402466,1.84575135
494,1778413110590,-0.1365357411111111,-1.6291160333333332,0.3430958955555556,-2.9311759666666664,0.6472435666666666,1.8507398999999998
495,1778413110600,-0.15600842,-1.6940961555555556,0.29388570555555554,-2.9855413666666664,0.5210696855555556,1.8846758222222222
496,1778413110610,-0.14629512400000003,-1.7989341200000002,0.45306299799999994,-3.56989833,0.4817447120000001,2.02472952
497,1778413110620,-0.13205039,-1.8503620333333335,0.5174183833333333,-3.9240065333333334,0.6393025433333334,2.102612666666667
498,1778413110630,-0.16179806333333333,-1.9672862999999998,0.5480705711111111,-4.316984711111111,0.7814263333333334,2.1868417444444446
499,1778413110640,-0.20959760100000002,-2.06868487,0.67347527,-4.70760108,0.8073262640000001,2.33412378
500,1778413110650,-0.2172078,-2.078719,0.7247984,-4.9465647,0.7435538,2.4825597
501,1778413110660,0.23625768683999998,-1.9934943400000003,1.0522992199999999,-5.36001666,0.64948334,2.7921981
502,1778413110670,0.5759279377777777,-1.9484165666666666,1.1973496666666668,-5.808953811111111,0.7932360611111111,2.8849127777777777
503,1778413110680,0.9449332666666668,-1.7982858333333336,1.2904106,-6.435683233333333,1.53806249,2.4416582666666664
504,1778413110690,1.05709834,-1.56879268,1.25081692,-7.106108379999999,2.1679273599999997,1.7573618199999999
505,1778413110700,1.0123761666666666,-1.5201597666666666,1.2138615333333334,-7.385754266666666,2.2228222,1.4365855666666667
506,1778413110710,0.93395688,-1.4534485666666666,1.2784384666666666,-7.977054155555556,1.9545246111111112,0.7425951444444444
507,1778413110720,0.869883035,-1.5100728499999998,1.4677837999999999,-8.394912,1.6353908499999998,0.297558965
508,1778413110730,0.8290795444444444,-1.651678288888889,1.7290134444444445,-8.617299,1.4924526,0.08681667
509,1778413110740,0.8186724333333333,-1.7190399333333335,1.9271821999999998,-9.537913222222222,1.5636502,-0.4063491833333333
510,1778413110750,0.77051139,-1.73795203,2.0631934999999997,-9.851821,1.5938532,-0.6187883
511,1778413110760,0.712168888888889,-1.6971552333333333,2.383617977777778,-10.429206944444445,0.7210203722222223,-1.1597274822222223
512,1778413110770,0.6913919555555555,-1.7567319222222222,2.783261977777778,-10.589317222222222,-0.0690511911111111,-1.3669403999999998
513,1778413110780,0.6247407380000001,-1.78282053,3.7565942100000003,-10.3970024,-0.9062377319999999,-1.1581052699999999
514,1778413110790,0.8688988777777777,-1.1871457777777779,4.8887541,-9.884196333333334,-1.1218464,-0.7767940733333334
515,1778413110800,0.9979172222222221,-0.9251487611111112,5.1595388444444445,-9.459589666666666,-1.1115977333333333,-0.612951268888889
516,1778413110810,1.7406137999999998,0.47778399,5.461922400000001,-8.061496420000001,-1.13658827,-0.81059427
517,1778413110820,1.7532087,0.8213623,5.354428388888889,-7.566293444444444,-1.1514386444444444,-1.1741162555555555
518,1778413110830,1.24207862,1.37393382,4.9259642999999995,-7.07128996,-0.737949312,-2.2873787
519,1778413110840,0.5779707333333333,1.6803521666666665,4.525487666666667,-7.024743466666667,-0.6573989266666667,-2.6250397999999997
520,1778413110850,0.1836760333333333,1.8039162999999998,4.395812077777778,-7.061394433333334,-1.1310092,-2.923795
521,1778413110860,-0.9342211666666667,1.9758774333333333,5.145544233333333,-6.802123611111111,-3.296734155555556,-2.4482163333333333
522,1778413110870,-0.9915670000000001,1.992601,5.9940085000000005,-6.55671224,-3.7683168,-2.12990214
523,1778413110880,-0.7689506822222223,1.9619504444444447,7.200847444444444,-5.447501788888889,-4.7274488,-1.1287099777777778
524,1778413110890,-0.058556938888888896,1.9334563,7.982752999999999,-3.849415177777778,-5.539918022222222,0.06927177222222222
525,1778413110900,0.9033270769999999,2.10121103,7.982753,-2.02239312,-5.4651206199999995,0.801446895
526,1778413110910,3.602435855555556,2.646299355555555,7.959959577777777,2.3135077111111113,-3.6650155555555557,1.0046485933333333
527,1778413110920,3.88734872,2.77636324,7.30151168,2.49547898,-1.86436688,-0.21207089799999998
528,1778413110930,3.8700021666666666,2.5982817,6.266686933333333,2.140256066666667,0.057546899999999956,-1.5364843933333332
529,1778413110940,3.571993644444445,2.2303943999999998,5.467110888888889,1.9586054000000002,0.8131904,-2.0579443
530,1778413110950,2.93368948,1.62889999,4.88588848,1.09162982,3.1563471499999998,-3.8462073699999997
531,1778413110960,1.0988649244444444,0.01153184666666666,4.381065400000001,0.9358434,4.262924966666667,-4.750635333333333
532,1778413110970,0.16454212000000001,-0.6701508866666667,4.300891133333334,1.3813546666666667,4.4594141333333335,-4.376593466666666
533,1778413110980,-0.5260368160000001,-1.0498600200000001,4.269139300000001,2.1391489,4.2492826,-3.35786565
534,1778413110990,-0.5302172666666667,-1.0791009,4.193235977777778,3.2032490666666664,3.5340483333333332,-2.071654488888889
535,1778413111000,-0.37706468,-1.0488417,4.135089,3.8174898999999995,2.956119,-1.4672551
536,1778413111010,0.3436548622222222,-0.9928255333333333,4.0674051888888885,4.615188588888889,2.255282111111111,-1.1133030555555556
537,1778413111020,0.9112422,-0.9124007999999999,3.8232107,5.5582687222222225,1.7802974,-0.9649350555555556
538,1778413111030,0.9127734622222222,-0.86761496,3.2277288333333334,5.911822144444445,2.1860357111111113,-0.8884434000000001
539,1778413111040,0.9742702399999998,-0.8324632020000001,2.70811524,5.89414161,2.70060921,-0.74999825
540,1778413111050,1.0105772,-0.83480483,2.603475,5.802209,2.959784,-0.6927008
541,1778413111060,0.9568698,-1.0426614459999999,2.32968467,5.835439060000001,3.07315741,-0.74724941
542,1778413111070,0.902366338888889,-1.1788322777777778,2.2131406000000005,5.980236944444445,2.8866521,-0.8072685777777777
543,1778413111080,0.9061606188888889,-1.2867518777777778,2.085910911111111,6.2566793333333335,2.6113210666666666,-0.8959093333333333
544,1778413111090,0.9856642189999999,-1.39825537,1.8196092799999999,6.7794424499999995,2.39442966,-1.08669721
545,1778413111100,1.0120983555555556,-1.4196729222222222,1.7080063,6.818455222222222,2.4195151333333333,-1.1173753222222222
546,1778413111110,1.028017288888889,-1.4318247,1.1231821,6.9005125000000005,2.687609222222222,-1.363954111111111
547,1778413111120,0.949445635,-1.40867975,0.85023255,6.82623358,2.7829286,-1.488757
548,1778413111130,0.8129573277777777,-1.3725258666666666,0.6037479777777778,6.599025444444445,2.783240777777778,-1.6289939777777775
549,1778413111140,0.6439501866666667,-1.3412063,0.39573448,6.315524333333333,2.7206627666666665,-1.6818662
550,1778413111150,0.52908576,-1.3436455,0.28965104,5.97336844,2.64652625,-1.6728052599999998
551,1778413111160,0.3154554,-1.3849690333333333,0.3212179133333333,5.578028066666667,2.564489533333333,-1.4157402666666665
552,1778413111170,0.214616176,-1.37385157,0.333928021,5.39868326,2.5308928600000002,-1.19164082
553,1778413111180,0.2846473622222222,-1.3084944333333333,0.2940991466666667,5.234019211111111,2.4559622777777776,-0.9822424155555556
554,1778413111190,0.3890945244444445,-1.221792122222222,0.19945608444444446,4.979050244444444,2.211487777777778,-0.7876536244444444
555,1778413111200,0.3936747366666667,-1.2088272666666666,0.1757046966666667,4.917151111111111,2.124475988888889,-0.771160748888889
556,1778413111210,0.291614574,-1.17948956,0.0343739564,4.56290689,1.60289376,-0.738208914
557,1778413111220,0.20769505111111114,-1.2026379111111112,-0.004651355333333334,4.36216208888889,1.300239311111111,-0.6620226933333333
558,1778413111230,0.025178300400000003,-1.20370436,-0.0358679476,4.121997299999999,0.8980982,-0.47798799000000003
559,1778413111240,-0.039707602,-1.1048816,0.005488124666666668,3.8508150444444444,0.34768239444444443,-0.12552063
560,1778413111250,-0.03661799,-1.0622572,0.026312511,3.7386906,0.09353599,0.05505261
561,1778413111260,0.148465978,-1.0173520799999998,0.21064031819999998,3.6454752999999998,-0.550297016,0.426325556
562,1778413111270,0.2382049711111111,-1.0150423222222222,0.3041742433333333,3.6476743000000003,-1.0129120133333334,0.6734336533333333
563,1778413111280,0.42388653333333337,-0.9749654066666665,0.39419983666666664,3.8130103,-1.4405051,0.9112568099999999
564,1778413111290,0.62606092,-0.9023940679999999,0.406365172,3.93538342,-1.68317436,1.02739922
565,1778413111300,0.7689811777777777,-0.8389919977777778,0.36837514,4.0185265333333335,-1.7949322666666667,1.0269784466666667
566,1778413111310,1.1894088777777776,-0.6368528577777778,0.19241637333333333,4.001558433333333,-1.7263815666666666,0.6980711533333334
567,1778413111320,1.19415512,-0.63981172,0.035209371999999996,3.8956783799999997,-1.56039406,0.370249786
568,1778413111330,0.9760122666666666,-0.72001152,-0.29174466,3.6268376888888887,-1.4527899222222223,0.013947676666666665
569,1778413111340,0.83760986,-0.74420196,-0.44931279,3.2490965000000003,-1.4827553500000001,-0.195776545
570,1778413111350,0.8179576366666667,-0.7268716888888889,-0.4763218166666667,2.989384666666667,-1.5155035777777779,-0.2534337366666667
571,1778413111360,0.8128963622222223,-0.6780307833333334,-0.6533680722222223,2.041706066666667,-1.0701280666666666,-0.6536065833333333
572,1778413111370,0.7848323833333333,-0.7004067466666667,-0.6850603000000001,1.6340419000000002,-0.8832087866666667,-0.8209787333333334
573,1778413111380,0.7486138139999999,-0.651910004,-0.503404378,0.90324461,-0.426600453,-1.14704902
574,1778413111390,0.7042009933333334,-0.5389813033333334,-0.4062635411111111,0.49630491,0.06380808444444444,-1.4893813777777778
575,1778413111400,0.6745820610000001,-0.458523689,-0.391364297,0.41621603900000004,0.29617692399999995,-1.73615012
576,1778413111410,0.4394362233333334,-0.19498088000000002,-0.5310878866666667,0.38485922,0.8679630533333333,-2.4881844666666666
577,1778413111420,0.23752401333333337,-0.03781047055555556,-0.8135704888888888,0.2523053622222222,1.3768667333333333,-3.100244922222222
578,1778413111430,0.05138714,0.03650213,-1.1100465199999998,-0.050654515,1.7290337699999998,-3.62960863
579,1778413111440,-0.58688043,-0.09092671777777778,-1.179936711111111,-0.41988115000000004,2.1403580000000004,-4.053862466666667
580,1778413111450,-0.9173197766666666,-0.18008503555555555,-1.1379626888888887,-0.5477773,2.2938843,-4.1794934
581,1778413111460,-1.5389618,-0.33230597,-1.0796971,-0.641847752,2.49057709,-4.0405256199999995
582,1778413111470,-2.0212596222222223,-0.5668047633333333,-0.8643864822222223,-0.20347999555555554,2.238365,-2.8260085555555556
583,1778413111480,-1.998460033333333,-0.44760066,-0.7343822977777777,0.56709531,1.8825803666666667,-1.9029928666666664
584,1778413111490,-1.88043896,-0.24245318400000002,-0.82017594,1.28087032,1.6112624,-1.37074125
585,1778413111500,-1.8144148222222225,-0.10424050533333333,-0.9590092555555556,1.859376611111111,1.393427511111111,-1.0318567444444444
586,1778413111510,-1.7150188,0.06426188199999999,-1.5620016666666667,2.7061298333333337,1.0697463,-0.42535330000000005
587,1778413111520,-1.6147419666666665,0.11751702444444444,-1.8917904777777776,2.8769210000000003,0.9606082333333332,-0.15237245333333335
588,1778413111530,-1.4903674599999999,0.15329553199999998,-2.0878534600000003,2.78644088,0.9445836419999999,0.04082750079999999
589,1778413111540,-1.3815745,0.17263202,-2.204275,2.5328782,0.99461204,0.25724304
590,1778413111550,-1.3664212,0.16019227,-2.2172024,2.4381204,1.0728005,0.3171061
591,1778413111560,-1.2097962,0.107317238,-2.37451056,1.63558934,1.41279806,1.04438084
592,1778413111570,-1.1064703777777778,0.21094726888888887,-2.343744611111111,1.4483442777777777,1.2916874333333335,1.2557068666666666
593,1778413111580,-0.9863786999999999,0.32694998,-2.2447652,1.2883023,1.1023248,1.4054323
594,1778413111590,-0.7207310600000001,0.34375178,-2.00565964,1.09590578,1.06473732,1.55749253
595,1778413111600,-0.6198837,0.29270002,-1.9380094,1.0793925111111111,1.1923229444444443,1.5449090888888888
596,1778413111610,-0.7038791444444443,0.1947132577777778,-2.6524209666666665,0.8509356466666667,1.3181574333333335,1.4944123999999999
597,1778413111620,-0.68597906,0.131715,-2.76752724,0.497825248,0.758580642,1.53965578
598,1778413111630,-0.5253558466666667,0.022135436866666667,-2.6677776,-0.2650059,-0.09804947333333332,1.6233690444444444
599,1778413111640,-0.3538011111111111,-0.057228949277777774,-2.3455773333333334,-0.8473639444444445,-0.37905615555555555,1.639794
600,1778413111650,-0.23016585000000003,-0.12095218,-2.023167,-1.3669235,-0.5338041,1.640812
601,1778413111660,-0.03665864111111111,-0.34635827777777783,-1.312285222222222,-2.019579944444444,-0.2302809355555556,1.6315815111111112
602,1778413111670,-0.11113453777777776,-0.96246476,-0.6206933833333333,-2.374210566666667,1.097565297777778,1.6064689222222222
603,1778413111680,-0.282284772,-1.27306214,-0.497742458,-2.09902385,1.7874918999999998,1.9300483
604,1778413111690,-0.2575353444444445,-1.3361756,-0.6579550344444445,-1.4168093222222222,1.5656185,2.5943362666666667
605,1778413111700,-0.1799800028888889,-1.2987005333333335,-0.7081442711111111,-1.2744140444444443,1.3389262555555554,2.7307757777777777
606,1778413111710,0.2832756742,-1.1593024299999999,-0.85624509,-1.0997388799999999,0.09484166599999999,3.0590924999999998
607,1778413111720,0.7347515177777778,-1.0387903666666667,-0.5799525266666667,-1.516784588888889,-0.31579954777777774,3.0353170666666665
608,1778413111730,0.9438694333333333,-0.9834788111111111,-0.3425132022222222,-1.8674109222222224,-0.15073504333333332,2.8811120444444445
609,1778413111740,1.13587726,-0.9213860800000001,-0.011354318999999998,-2.54060536,0.781220162,2.34624143
610,1778413111750,1.0981128333333332,-0.88742985,0.08464924666666668,-2.833796766666667,1.2920946333333334,1.9887914333333336
611,1778413111760,0.7510261666666667,-0.8298722944444444,0.08915154,-3.254314133333333,1.8341198333333333,1.3077645777777778
612,1778413111770,0.42029280399999996,-0.847598254,-0.0023294048000000026,-3.53123171,1.77270927,0.9589232900000001
613,1778413111780,-0.21690967888888887,-0.9824252533333334,-0.16044974333333334,-4.055677966666667,1.3013930833333331,1.0524304666666666
614,1778413111790,-0.35871605,-1.06205588,0.029148038000000005,-4.92145879,0.659012567,1.4011156599999999
615,1778413111800,-0.3128028,-1.1078898333333334,0.21260386666666667,-5.3444552666666665,0.41919394,1.5978491666666668
616,1778413111810,0.002337539999999999,-1.2279578333333332,0.7789580800000001,-6.0840385999999995,0.07258901733333332,1.8568484333333335
617,1778413111820,0.22840967799999995,-1.36429292,1.29555732,-6.41957723,-0.013301198699999999,1.8163696200000001
618,1778413111830,0.2310128122222222,-1.477565888888889,1.6396315222222222,-6.446474966666667,-0.025986460111111113,1.7785242333333333
619,1778413111840,0.2020544788888889,-1.5360246444444445,1.8924646777777778,-6.304554766666667,-0.025171997333333335,1.8000396
620,1778413111850,0.19351739,-1.5230157,1.9555104,-6.11506993,-0.0109188949,1.8671309099999998
621,1778413111860,0.1018386,-1.4195746777777778,1.7203375444444446,-5.788592333333333,-0.0015525703333333328,1.9757600333333336
622,1778413111870,0.04885447777777778,-1.3586633,1.5817725444444444,-5.737009722222222,-0.04098615277777778,2.0544235555555557
623,1778413111880,0.0426854148,-1.25439327,1.22161096,-5.84079944,-0.21872912800000002,2.291731
624,1778413111890,0.167631738,-1.2007916,0.9452381333333333,-6.136368133333333,-0.43382882,2.479709
625,1778413111900,0.22425090000000003,-1.1879352,0.8651115,-6.247746,-0.49593163,2.516767
626,1778413111910,0.422518552,-1.20648504,0.7250301,-6.732758680000001,-0.705818726,2.45226164
627,1778413111920,0.6982115,-1.4046552,0.7736122,-7.6864945222222225,-1.1128194222222223,2.231637122222222
628,1778413111930,0.8498632722222221,-1.5120801555555556,0.9286788444444443,-8.18732088888889,-1.305168488888889,2.122567066666667
629,1778413111940,1.06403159,-1.5831898800000002,1.12116304,-8.5538317,-1.4585047,1.9704253
630,1778413111950,1.1593461111111112,-1.6216020555555555,1.3161303888888891,-8.672885666666666,-1.5028115,1.8914631000000002
631,1778413111960,1.34150512,-1.55880438,1.89967778,-8.949599,-1.5667468,1.6347036
632,1778413111970,1.4767833333333333,-1.4203471333333333,2.2098951666666666,-8.884849666666666,-1.5288743333333334,1.5402258666666666
633,1778413111980,1.6989269777777778,-1.1889615999999998,2.6865524888888888,-8.630941,-1.3633347666666669,1.2999592666666668
634,1778413111990,1.54723659,-1.04420722,2.9334729200000003,-8.267283,-0.78095296,1.05171107
635,1778413112000,1.4218275111111112,-0.8730522888888889,3.0291909333333336,-8.201566,-0.6056126399999999,1.0237206844444442
636,1778413112010,1.2834624444444445,-0.4744450333333334,3.350869533333333,-7.884205577777777,-0.0036565984444444427,0.9646720322222223
637,1778413112020,1.37006163,-0.07776063420000001,3.70757891,-7.5441470100000005,-4.581380000000003e-05,0.891607931
638,1778413112030,1.4425638111111112,0.17569452866666666,3.8943327666666665,-7.0913259,-0.08971818733333332,0.75264018
639,1778413112040,1.5736690333333332,0.7370247,4.109792833333334,-6.435411533333333,-0.26055179666666667,0.5240475477777777
640,1778413112050,1.6358270999999998,1.0438719,4.0821285,-6.2605734,-0.32733777,0.43499961000000004
641,1778413112060,1.3393871,1.2628684333333333,3.8105883666666664,-5.379383911111111,-0.9358773688888888,-0.3993583766666667
642,1778413112070,-0.11114131222222226,1.026330208888889,4.0447820666666665,-5.3796554,-0.9406284,-0.41171107
643,1778413112080,-0.585491495,1.20433857,4.9566915,-4.72971396,-1.34745267,0.8961205879999999
644,1778413112090,-0.05106328222222223,1.629664888888889,6.2949232777777775,-2.683740466666667,-2.7185756444444444,2.5855637
645,1778413112100,1.0455487933333332,1.8511751333333335,6.894223333333334,-1.4068236555555556,-3.457395466666666,3.164612922222222
646,1778413112110,3.0015593199999997,2.17337068,6.957204559999999,2.37231688,-4.1615804,3.3588353
647,1778413112120,3.9208487333333335,2.3372297333333334,6.224377333333333,3.9414240888888887,-3.8114155000000003,2.845368977777778
648,1778413112130,4.1199965,2.3802607,5.952756,4.67976212,-2.93179202,1.758705656
649,1778413112140,4.436224222222222,2.837729833333333,3.4743456444444445,4.8302749,-1.5818143999999998,0.025681026666666662
650,1778413112150,4.3095298,2.893918766666667,2.5259298333333335,4.0404493,-0.6970784999999999,-0.9938485533333333
651,1778413112160,3.1502569,2.2956003600000003,1.9276277,1.6871753600000001,1.45567954,-3.077128
652,1778413112170,2.6480236777777777,1.9544466666666667,1.984692311111111,0.3180308222222223,2.4725230444444444,-3.667060388888889
653,1778413112180,2.3485211333333336,1.6082747,2.3561536666666667,-0.7008963333333332,3.2570376666666667,-3.8072837
654,1778413112190,2.14114344,0.9239015,3.3193034,-0.7786775300000001,3.5071032000000004,-3.74737997
655,1778413112200,2.1518228666666666,0.7553286666666666,3.4661677666666666,-0.53390594,3.5205418,-3.764117166666667
656,1778413112210,1.9219312,0.3235351466666667,3.5626369,0.25128729333333333,3.4533486,-3.941670033333333
657,1778413112220,1.37842493,0.038865073,3.5725042099999995,0.9510738599999999,3.27107184,-3.8667394799999997
658,1778413112230,0.9464813833333332,-0.11037229222222221,3.647763566666667,1.9182215333333335,2.803882311111111,-3.2975656222222223
659,1778413112240,0.8517841011111111,-0.1607681877777778,3.7004530555555553,2.6069772777777778,2.3439737555555555,-2.691952877777778
660,1778413112250,0.892649624,-0.171961254,3.7214916000000002,2.93774768,2.13787388,-2.4079598
661,1778413112260,1.3657504,-0.14380920333333333,3.769518666666667,4.013164777777778,1.6351193555555554,-1.6678166444444444
662,1778413112270,1.6226556333333333,-0.10981331666666666,3.6854893333333334,4.6280844000000005,1.4893983333333332,-1.4499478
663,1778413112280,1.8554741,-0.08070593,3.5164552000000002,5.141196,1.4417522,-1.3774606
664,1778413112290,2.0091686777777777,-0.1179099922222222,2.6077707333333335,6.047566,1.4105991,-1.8708215333333333
665,1778413112300,2.024112,-0.13220283,2.4170008,6.11997175,1.4250151,-2.01066481
666,1778413112310,1.6225777555555556,-0.3074095277777778,1.8800995555555555,6.193083555555556,1.661182188888889,-2.5832476222222223
667,1778413112320,1.4353988,-0.35596588333333334,1.6530537666666667,6.138175166666667,1.856517533333333,-2.7586626333333335
668,1778413112330,1.2097718,-0.396053596,1.25402438,5.77533196,2.39504052,-2.9254238999999997
669,1778413112340,1.03214356,-0.4793877200000001,0.9910334333333333,5.4678721333333336,2.6742383333333333,-3.0247883
670,1778413112350,0.98252684,-0.5075296,0.9363656,5.406991,2.70193,-3.0433173
671,1778413112360,0.80426638,-0.67571626,0.787363004,5.258432999999999,2.47591662,-3.10818948
672,1778413112370,0.6200361666666666,-0.8915526777777778,0.6897014777777778,5.255025777777778,1.9359955333333332,-3.159582011111111
673,1778413112380,0.5060627266666667,-1.0210453222222222,0.6537847244444445,5.2629668333333335,1.704009288888889,-3.1408493111111113
674,1778413112390,0.45519117400000003,-1.0942651399999999,0.656074852,5.24688795,1.62018073,-3.0548012800000004
675,1778413112400,0.4809223533333334,-1.0853479333333333,0.6540219,5.211519766666666,1.6805935333333333,-3.0184762666666667
676,1778413112410,0.46870282333333335,-1.084426388888889,0.5227540777777777,5.046251477777778,2.0400432000000004,-3.036801688888889
677,1778413112420,0.35291083999999995,-1.0950883,0.424963818,4.842613780000001,2.16035288,-2.9956712800000003
678,1778413112430,0.28330922,-1.1010399,0.38337603,4.7160463,2.2236366,-2.9663506
679,1778413112440,0.215131463,-1.054503624,0.407612198,4.37873629,2.31214844,-2.73334297
680,1778413112450,0.15419599555555555,-0.9877032888888889,0.43812516,4.091420888888889,2.3492675888888885,-2.546147133333333
681,1778413112460,0.18381492444444444,-0.844019461111111,0.5206739822222222,3.7084197444444444,2.1678459555555554,-2.388955688888889
682,1778413112470,0.16149418399999999,-0.8483665840000001,0.5955896,3.6171320199999997,2.057975,-2.31987562
683,1778413112480,0.13005840666666668,-0.8493584799999999,0.6464503,3.5855716333333336,1.9856099666666667,-2.251786533333333
684,1778413112490,0.041533588333333336,-0.8642001333333333,0.7118572444444444,3.5641240777777776,1.843961233333333,-1.9901403444444443
685,1778413112500,0.0160497169,-0.871242898,0.71742295,3.58384078,1.79317268,-1.78141386
686,1778413112510,0.05856032666666666,-0.8374878733333334,0.65864614,3.6431948999999997,1.7522662333333332,-1.4780467666666668
687,1778413112520,0.07849034666666667,-0.8257798866666667,0.5243395200000001,3.6877868,1.7308866333333333,-1.3165794666666666
688,1778413112530,0.049223738333333336,-0.7852660333333333,0.2710828788888889,3.70299,1.658195811111111,-1.1746592999999999
689,1778413112540,0.003981941000000001,-0.725560636,0.0896820584,3.6632509,1.3971604,-1.0039275
690,1778413112550,-0.020031655,-0.69324166,0.006311344,3.6123130888888886,1.184178351111111,-0.9322886888888888
691,1778413112560,-0.073964684,-0.632771695,-0.1634912395,3.3069437200000005,0.783625392,-0.7286186
692,1778413112570,-0.07835823333333333,-0.6364599,-0.20503228,3.052505466666667,0.72176695,-0.6061641
693,1778413112580,-0.05934628333333333,-0.6283835444444444,-0.19592267222222223,2.833669455555556,0.7181697511111111,-0.5091751355555556
694,1778413112590,0.00804925,-0.5893027,-0.11448839,2.419795,0.74477553,-0.33291176
695,1778413112600,0.01194514088888889,-0.5927717222222222,-0.003262386888888888,2.183464966666667,0.8157695544444444,-0.21875119366666668
696,1778413112610,0.041069469,-0.5835909933333334,0.07123382666666667,1.9604378666666666,0.6683517555555556,0.03418199422222222
697,1778413112620,0.099274082,-0.5700515960000001,-0.038788848,1.9784578499999999,0.42285902999999997,0.11399937
698,1778413112630,0.12876767111111112,-0.5866331777777778,-0.25829420000000003,1.9252124,-0.03240035222222222,0.15394199333333336
699,1778413112640,0.19285678666666667,-0.5520240666666667,-0.4778733933333333,1.6014634111111112,-0.6694801177777777,0.15719984666666667
700,1778413112650,0.200773916,-0.54183647,-0.5165301179999999,1.4584437,-0.7921925479999999,0.150711292
701,1778413112660,-0.04867154,-0.6048049366666667,-0.40943447,1.0303890277777779,-0.7023301088888889,0.2525598911111111
702,1778413112670,-0.14986647333333336,-0.5843226866666666,-0.40189337666666664,0.9547797166666666,-0.5950925,0.37187871333333333
703,1778413112680,-0.20941467,-0.417713376,-0.484467308,0.9728201000000001,-0.731107836,0.652949888
704,1778413112690,-0.08557410555555556,-0.004739440000000002,-0.5703381666666666,1.109324088888889,-1.2267764511111112,1.0461862222222222
705,1778413112700,0.036343586,0.13820928,-0.5417999,1.1809968,-1.4195327,1.0757784
706,1778413112710,0.382689995,0.41610660499999996,-0.599656945,1.33138742,-1.26388885,0.677628122
707,1778413112720,0.4577604333333334,0.48875139999999995,-0.8266370055555555,1.2992975666666666,-0.75920678,0.17128326444444444
708,1778413112730,0.0888283458,0.370512463,-1.170690291,0.95040195,-0.168822915,-0.452637815
709,1778413112740,-0.23673128377777777,0.2878318333333334,-1.2047214,0.29404660722222226,0.48608168888888886,-0.8837602444444443
710,1778413112750,-0.38121125,0.2587651,-1.1448534,0.005726693,0.774707,-0.9510892
711,1778413112760,-0.71214524,0.17018065799999998,-0.77824051,-0.219110908,1.1393828400000001,-0.785183086
712,1778413112770,-0.7288941666666666,0.20467657666666667,-0.6246197666666666,-0.037032611111111106,1.1201072333333333,-0.6675881888888889
713,1778413112780,-0.7179449888888889,0.28537912777777774,-0.6257106666666666,0.21192157777777776,1.0948588666666668,-0.6407108933333334
714,1778413112790,-0.856092638,0.261295725,-0.93601805,1.61518708,0.9180118,-0.568820968
715,1778413112800,-0.9605133755555555,0.20978526444444445,-1.0970999333333333,1.80569,0.9157448777777777,-0.49044247333333335
716,1778413112810,-1.0371336666666666,0.26536101,-1.5367969666666665,2.130660766666667,1.1487491666666667,-0.002188859999999996
717,1778413112820,-0.9818621399999999,0.32559216599999996,-1.6883484799999997,2.15102233,1.23217055,0.166532236
718,1778413112830,-0.6739587,0.5929546777777779,-2.0309212222222226,1.9723834111111112,1.0723932555555555,0.26321578333333334
719,1778413112840,-0.5686408999999999,0.7117285533333333,-2.127146466666667,1.779355622222222,0.8878495000000001,0.10414946
720,1778413112850,-0.552145015,0.735085607,-2.15021698,1.6215398,0.753266271,-0.0453859524
721,1778413112860,-0.73980941,0.5145219,-2.1493428666666663,1.1594136,0.45543751666666665,-0.3044055533333333
722,1778413112870,-0.9957118733333333,0.32436512777777776,-2.1660984666666665,1.0863833999999999,0.31229565555555555,-0.2570988222222222
723,1778413112880,-1.16475694,0.233739238,-2.179121,1.012280789,-0.092138671,0.22875465399999997
724,1778413112890,-1.142261777777778,0.2906436477777778,-2.242383522222222,0.9288526311111112,-0.3014106977777778,0.5605626611111111
725,1778413112900,-1.1206752,0.33565983,-2.2935789,0.8835142,-0.36032352,0.68056023
726,1778413112910,-0.9672637319999999,0.439001208,-2.18850869,0.43582424399999997,-0.734895074,1.2868871890000002
727,1778413112920,-0.7226945766666666,0.5067504422222222,-2.0108828777777776,0.12959294222222223,-0.9280042455555555,1.6913087666666666
728,1778413112930,-0.304252507,0.5661763200000001,-1.75875809,-0.079547582,-0.7033753500000001,1.7666465800000002
729,1778413112940,-0.014899246666666671,0.4654844733333333,-1.6517325333333333,-0.29629485555555557,-0.11910673429222222,1.4741865777777778
730,1778413112950,0.07076632,0.40642616,-1.6295158,-0.3457225788888889,0.0702644008088889,1.3503882222222223
731,1778413112960,-0.04075847,0.009311522,-1.87914626,-0.48547084399999996,0.888324584,0.7442105160000001
732,1778413112970,-0.21306120999999997,-0.14186803666666667,-2.0416434333333333,-0.5575508222222223,1.1193606,0.54352682
733,1778413112980,-0.57116135,-0.19759282666666667,-2.2277620666666667,-0.8371831777777778,1.1400615444444444,0.5167173977777778
734,1778413112990,-0.8283623819999999,-0.20916463899999999,-2.16697109,-1.3256302400000002,0.861691664,0.70499411
735,1778413113000,-0.8697526866666666,-0.2297593388888889,-2.0253486888888887,-1.5697926555555557,0.6684196066666667,0.8451496222222222
736,1778413113010,-0.8344795911111111,-0.38022205555555555,-1.566700511111111,-2.0400092777777776,0.2673983933333333,1.2578108222222224
737,1778413113020,-0.785118991,-0.51596608,-1.27281508,-2.20176847,-0.028999971999999995,1.6429500100000003
738,1778413113030,-0.7008505222222222,-0.6620914555555556,-1.0334071333333332,-2.200119133333333,-0.2672711166666667,2.0236096999999997
739,1778413113040,-0.5441238666666668,-0.7695401666666667,-0.8643593844444445,-2.1909564,-0.35177165,2.1667516
740,1778413113050,-0.5044502,-0.7828201,-0.8427321300000001,-2.1919336800000004,-0.38255835400000004,2.22832504
741,1778413113060,-0.17669392088888888,-0.8876195444444445,-0.6996953177777778,-2.236362777777778,-0.6415847955555556,2.5273550555555553
742,1778413113070,0.11859229279999998,-0.95789738,-0.5664598599999999,-2.45484245,-1.00721077,2.6141972499999997
743,1778413113080,0.32486313555555557,-0.9634098444444444,-0.37792515000000004,-2.9183992888888888,-1.3189464222222222,2.4087828333333334
744,1778413113090,0.44423322888888894,-0.9933980444444445,-0.19195902333333334,-3.348181111111111,-1.5411591777777778,2.1677017666666667
745,1778413113100,0.545949508,-1.07535238,0.106429997,-3.4700247399999995,-1.5843393200000002,2.09033457
746,1778413113110,0.4414248111111111,-1.3551671444444446,0.6803378,-3.900387066666667,-1.379624,1.8195867333333335
747,1778413113120,0.09875237777777778,-1.6055476777777777,0.9715709222222222,-4.131015644444444,-0.6860408888888889,2.052523222222222
748,1778413113130,-0.12905631999999997,-1.6788174200000001,1.1371700200000001,-4.176897,-0.518533,2.1270466
749,1778413113140,-0.17402438666666667,-1.4869871666666665,1.2083326666666667,-4.1325088333333335,0.25952524444444447,3.0121387888888886
750,1778413113150,-0.15483288444444446,-1.3458170111111112,1.2121066,-3.9838693,0.34926888888888885,3.3557403666666668
751,1778413113160,0.060687822222222215,-1.0910764666666666,1.0358192555555557,-3.5304172,-0.2843748466666667,3.6715482666666666
752,1778413113170,0.23162935999999998,-1.0042232,0.8887896379999999,-3.3489548200000003,-0.67918578,3.7246106400000003
753,1778413113180,0.4568695022222222,-1.014175,0.7406868266666666,-3.3977954222222224,-0.9953331666666665,3.638834111111111
754,1778413113190,0.5354580955555556,-1.0099471666666666,0.7414118333333334,-3.644917066666667,-1.0959872222222222,3.441123211111111
755,1778413113200,0.57863134,-1.0053941,0.75431234,-3.8960906,-0.950890641,3.29500181
756,1778413113210,0.4857770055555556,-0.9972363555555555,0.9687218444444444,-4.381938,-0.47862428999999995,3.0745470666666663
757,1778413113220,0.45616145444444445,-0.9939570444444443,1.0034630333333334,-4.549513944444445,-0.29380904444444444,2.969413444444444
758,1778413113230,0.39057158,-1.0027108999999998,1.02033395,-4.67070612,-0.204190956,2.9035098
759,1778413113240,0.33908821666666666,-1.0151506222222222,0.9984762888888888,-4.787201333333333,-0.22851626333333336,2.8779899444444443
760,1778413113250,0.33529395,-1.0188094,0.9705444000000001,-4.804848,-0.24426255,2.8766325
761,1778413113260,0.41934763799999997,-1.00846736,0.866099298,-4.99268363,-0.393675778,2.82434398
762,1778413113270,0.45120179222222223,-1.0208691777777779,0.8588237811111111,-5.1454973,-0.49430267999999994,2.7731956666666666
763,1778413113280,0.515612431,-1.02085836,0.8859876490000002,-5.41221363,-0.52335867,2.71848401
764,1778413113290,0.5587724666666667,-1.0199477333333333,0.9018920433333333,-5.601019777777777,-0.5386230733333333,2.6854371666666665
765,1778413113300,0.605844948888889,-1.0371913,0.9418232222222223,-5.756421055555555,-0.5378086133333333,2.6584835333333334
766,1778413113310,0.67166114,-1.1321941,1.13782246,-6.1737112199999995,-0.2364437124,2.57943992
767,1778413113320,0.6841049622222222,-1.1039837444444442,1.2051380111111112,-6.350571811111111,-0.0675919451111111,2.5459519999999998
768,1778413113330,0.7527065288888889,-0.9922733555555554,1.370679511111111,-6.489777022222222,-0.15148163355555555,2.5226040555555556
769,1778413113340,0.915114376,-0.8931375039999999,1.60252636,-6.5499928,-0.339921226,2.4703425799999996
770,1778413113350,1.071343,-0.82577986,1.7861406999999998,-6.52507,-0.48249298000000007,2.4098687
771,1778413113360,1.3644224222222223,-0.6693615577777777,2.177057811111111,-6.248628055555555,-0.55844167,1.9814612111111112
772,1778413113370,1.3477717666666666,-0.6013359,2.4430387666666666,-6.034492077777778,-0.34783509999999995,1.7168965444444444
773,1778413113380,1.2076467,-0.478137655,2.4993683,-5.8539934,0.07110261199999998,1.66170306
774,1778413113390,1.1877014444444445,-0.1579258881111111,2.6374674999999996,-5.698594,0.3202366722222222,1.7242945333333333
775,1778413113400,1.2468106,0.0061893854,2.7230551,-5.635066,0.37154785,1.7739768000000002
776,1778413113410,1.6163138,0.5421149666666667,3.20226,-5.1788905,0.6735100133333334,1.5664923333333334
777,1778413113420,1.6992115555555556,0.7215495777777777,3.298719033333333,-4.989595611111111,0.92640082,1.3966768
778,1778413113430,1.56894516,0.95836688,3.08196044,-4.752315380000001,1.24909102,0.901809072
779,1778413113440,1.2354921111111112,1.0248463888888888,2.8482623777777776,-4.6761632,1.1499708333333334,0.68279998
780,1778413113450,1.1584822,1.0233829,2.80992,-4.6600776,1.0734113,0.6274165
781,1778413113460,1.17611737,1.18356292,2.98754313,-4.65537388,0.654797692,0.6359683300000001
782,1778413113470,1.2866536333333332,1.2837368777777778,3.2372179222222224,-4.5992640555555555,0.17217407444444444,0.6092267877777778
783,1778413113480,1.2305393,1.1967262666666667,3.4865754,-4.284813533333333,-0.51120281,0.39366559
784,1778413113490,0.93576196,1.0844230199999998,3.8094481,-3.8527817200000003,-0.87819984,0.41642985
785,1778413113500,0.8712399,1.0658244,3.8693419,-3.7700729999999996,-0.9467369,0.437443
786,1778413113510,0.7251575,1.2403840555555554,4.501885155555556,-2.5043549666666665,-1.5193722222222223,1.2031739333333333
787,1778413113520,0.80445548,1.42331474,4.9549476,-1.2096913200000001,-2.03257884,1.9434258
788,1778413113530,2.282030222222222,1.7026128222222223,5.044186888888889,0.5206370222222222,-2.4181745,2.1877240000000002
789,1778413113540,3.1467520111111114,1.814960177777778,4.685744333333334,2.343226944444444,-2.5252424555555555,1.9024583888888889
790,1778413113550,3.4502803,1.90398304,4.12264916,3.03383388,-1.96510324,1.06136243
791,1778413113560,3.525940688888889,2.060702866666667,3.3459301333333333,3.1910321,-0.919791731111111,-0.08557799999999999
792,1778413113570,3.2968081333333337,2.0782208,2.7244271333333336,2.5596960555555555,0.0408588911111111,-1.1733019
793,1778413113580,2.98130204,1.9096967599999999,2.33119708,1.8003959000000003,0.912391948,-1.9697381800000002
794,1778413113590,2.4486049999999997,1.4793038222222221,2.3680075555555558,0.7156669333333334,2.175651333333333,-2.757084611111111
795,1778413113600,2.2088416666666664,1.285044511111111,2.472519,0.516395,2.4172754,-2.8838863
796,1778413113610,1.4571917,0.69022319,2.89929717,0.16222576025000002,3.45399759,-2.99951962
797,1778413113620,1.2331885111111112,0.5212871888888889,3.032199211111111,0.06837247555555555,3.9845141444444447,-3.0086347666666664
798,1778413113630,1.15933297,0.448962163,3.08055463,0.58981886,3.9155768099999997,-2.77490341
799,1778413113640,1.1519608333333333,0.20713946333333333,3.079468244444444,1.765441911111111,3.2465429777777777,-2.5671195111111107
800,1778413113650,1.1633605,0.09622513,3.0344453,2.3471043,2.9414587,-2.5301294
801,1778413113660,1.06233024,-0.093834744,2.5699303999999996,3.249402,2.59319935,-2.45560595
802,1778413113670,1.0507185333333333,-0.16682884222222222,2.3566247,3.522858022222222,2.4758487444444444,-2.407891977777778
803,1778413113680,1.1584416444444445,-0.2988758422222222,2.064822311111111,3.833439933333333,2.4594915777777775,-2.2967856666666666
804,1778413113690,1.18182505,-0.404645558,1.8018154899999999,3.9516319600000003,2.6197102,-2.2554924
805,1778413113700,1.1804347,-0.4370072,1.7165941,3.956763,2.695211,-2.2540264
806,1778413113710,1.1161016400000001,-0.607492756,1.38078792,3.8150466199999995,2.83277356,-2.28811168
807,1778413113720,1.036689888888889,-0.6956706544444445,1.2613609222222222,3.7682828111111113,2.808556877777778,-2.2980073777777776
808,1778413113730,0.9894378722222221,-0.7513412466666667,1.1358454222222223,3.8476929,2.5338114222222226,-2.247103388888889
809,1778413113740,0.978599795,-0.8111113980000001,0.9667363200000001,3.95297586,2.2795904399999998,-2.23912166
810,1778413113750,0.9761545066666666,-0.8308751044444445,0.9029660188888889,3.973256,2.2334104,-2.2405877
811,1778413113760,0.8773886044444444,-0.9055745177777779,0.5971893255555556,4.0669192,1.9250002666666666,-2.3117175222222226
812,1778413113770,0.8173038399999999,-0.9358473,0.48515025000000006,4.07691679,1.7358140799999997,-2.35756499
813,1778413113780,0.5321177877777779,-0.9365553888888889,0.2629726488888889,3.8914705,1.7271536555555553,-2.267397166666667
814,1778413113790,0.43146725100000005,-0.882353352,0.135837186,3.59660756,1.8295181,-2.0901971599999998
815,1778413113800,0.40408184444444445,-0.8605515866666666,0.09526300666666666,3.449827733333333,1.8907249999999998,-2.003646888888889
816,1778413113810,0.31497774,-0.82845282,0.05341775000000001,3.101780633333333,1.9949763,-1.8046463333333334
817,1778413113820,0.24696562000000002,-0.80501646,0.04610025,2.9268136,2.01210041,-1.68227329
818,1778413113830,0.21059155,-0.7747708,0.054149497,2.8767853,1.9609724000000002,-1.6217995
819,1778413113840,0.16804841833333334,-0.7496270666666667,0.03389425133333333,2.8653149333333334,1.828554277777778,-1.528475588888889
820,1778413113850,0.08554767199999999,-0.6836740499999999,-0.021257337999999997,2.84648722,1.5258048,-1.3388549600000001
821,1778413113860,0.08906007333333334,-0.5844040166666667,-0.09463967,2.8902237,0.9168308666666667,-1.181175
822,1778413113870,0.053423847999999996,-0.5380008999999999,-0.138562968,2.8955992700000004,0.691326385,-1.1475377
823,1778413113880,-0.015553075555555554,-0.5102736777777778,-0.21525306888888887,2.820383533333333,0.57231297,-1.0899551666666667
824,1778413113890,-0.13108826555555556,-0.5058764166666667,-0.2719535255555556,2.645545411111111,0.5716342511111111,-0.9837355655555555
825,1778413113900,-0.15912513,-0.50631005,-0.28263843,2.5665815600000004,0.5892538,-0.920668976
826,1778413113910,-0.34330594,-0.48231136333333324,-0.3266010366666667,2.3289146444444446,0.6187373688888889,-0.6388105022222222
827,1778413113920,-0.3873904933333333,-0.40722905,-0.30582070666666666,2.1614067,0.6018372766666666,-0.3316900733333334
828,1778413113930,-0.309091216,-0.298560106,-0.312393235,2.05298125,0.59114745,-0.1120523015
829,1778413113940,-0.23510518666666666,-0.22208613333333335,-0.3089102833333333,1.8789916,0.5340332333333334,0.1466796982222222
830,1778413113950,-0.16991235600000001,-0.167869554,-0.29507817199999997,1.8405896599999998,0.48693690600000006,0.19725785199999998
831,1778413113960,-0.04630351666666667,-0.053936074333333334,-0.28117493,1.8211647333333332,0.35016818666666666,0.18170160999999999
832,1778413113970,-0.05053817888888888,-0.009489035777777778,-0.2963519688888889,1.8229973,0.31962582,0.15339902
833,1778413113980,-0.151130768,0.029818813519999997,-0.358435536,1.7988688199999998,0.24194895700000002,0.0945744275
834,1778413113990,-0.22178122666666666,0.08559442333333334,-0.40392602666666666,1.7304200333333333,0.15068413444444442,0.08159052722222222
835,1778413114000,-0.23723945222222223,0.13255855000000002,-0.4241304666666667,1.6116442333333332,0.13853506666666665,0.16093279666666666
836,1778413114010,-0.22370818799999997,0.20743282999999998,-0.44103183999999995,1.362785,0.206412927,0.313196645
837,1778413114020,-0.21387427111111112,0.25060743333333335,-0.4273826666666667,1.2584386777777778,0.2482245644444444,0.37364337777777773
838,1778413114030,-0.237074804,0.27658321199999997,-0.44164772799999996,1.1110548,0.388956975,0.47409382000000005
839,1778413114040,-0.27301389,0.37965630666666667,-0.5518919733333333,0.9562050333333334,0.4187866933333333,0.5954488133333333
840,1778413114050,-0.27463999777777776,0.4336431933333333,-0.5944113944444445,0.9195541999999999,0.3813214,0.62558395
841,1778413114060,-0.25680156,0.60453526,-0.662276458,0.8294542500000001,-0.12038272700000001,0.6419546460000001
842,1778413114070,-0.25878542222222223,0.6991939222222222,-0.6808696722222223,0.7730187111111111,-0.3426089488888889,0.6212401288888889
843,1778413114080,-0.2616311244444445,0.9271136688888889,-0.6926318888888889,0.607954191111111,-0.5671292555555555,0.6206971333333333
844,1778413114090,-0.192730768,1.089078748,-0.66982871,0.242246753,-0.729886122,0.65221684
845,1778413114100,-0.10323773866666666,1.2455401666666666,-0.5871175833333333,0.04303928666666666,-0.6947963355555555,0.6477780333333333
846,1778413114110,0.0479662144,1.5654938600000001,-0.357075722,-0.458288146,-0.4979474079999999,0.567370222
847,1778413114120,0.09174316,1.7201309,-0.22894628000000003,-0.6956023,-0.34016556,0.47287214
848,1778413114130,0.04565307166666667,1.9476306222222222,0.160883366,-0.8441060755555555,-0.21792824,0.3486665177777778
849,1778413114140,0.035465481300000004,2.17498972,0.49917849,-0.88435411,-0.165463255,0.22608984
850,1778413114150,0.11516931,2.3240685666666665,0.6519079333333333,-0.7656461288888888,-0.29503075666666667,0.18319478888888888
851,1778413114160,0.3578867366666667,2.622825744444444,1.0870858333333335,-0.26327516333333334,-0.7190945000000001,-0.10035711333333333
852,1778413114170,0.37069236,2.65623424,1.26682396,-0.05260922,-0.620544475,-0.327108705
853,1778413114180,0.18589837777777776,2.6441685555555554,1.560128288888889,0.2808115666666666,-0.25566504,-0.5890603766666667
854,1778413114190,0.118586189,2.67703428,1.84476616,0.779914488,0.194875544,-0.654339596
855,1778413114200,0.11684625222222222,2.711852022222222,2.037249611111111,1.0398911,0.39964681333333335,-0.65747528
856,1778413114210,0.16934592888888889,2.795325666666667,2.4615257777777777,1.9454382222222222,1.0580043888888888,-0.7260259
857,1778413114220,0.1256597744,2.7938611399999997,2.40757956,2.56840653,1.1209964,-0.821467395
858,1778413114230,-0.09050663644444444,2.7753753333333333,1.8993384777777775,3.2691526333333334,0.8685738999999999,-1.03558975
859,1778413114240,-0.3534793077777778,2.692192944444445,1.3761642444444444,3.743305911111111,0.5284677,-1.283118611111111
860,1778413114250,-0.590144215,2.57163171,1.057168329,3.91424818,0.35768162000000003,-1.42785545
861,1778413114260,-0.9335673222222223,2.323601044444444,0.6814489733333333,3.540436855555556,0.6631255777777778,-1.3335473666666668
862,1778413114270,-0.9508176799999999,2.17127606,0.66480401,3.1269881899999996,1.14103213,-1.09103423
863,1778413114280,-0.8845027911111111,1.966144488888889,0.6984248666666667,2.701743422222222,1.6747565555555555,-0.7461159555555555
864,1778413114290,-0.8299399777777778,1.8246050666666669,0.7193610622222223,2.6017002,1.7881026666666666,-0.61308701
865,1778413114300,-0.784375,1.7023249,0.73577464,2.57294962,1.78455976,-0.48061462000000005
866,1778413114310,-0.5565060544444445,1.4050311222222223,0.7177552733333333,2.7859046000000003,1.3540617666666668,-0.37139514111111116
867,1778413114320,-0.5178147555555556,1.2190615888888887,0.6644493511111111,2.921512755555556,1.1928659222222224,-0.39202819666666666
868,1778413114330,-0.525091602,1.03813368,0.5579350200000001,3.08184659,0.98917547,-0.42392798899999995
869,1778413114340,-0.4632181,0.7397992533333333,0.31528262,3.360440422222222,0.43385425,-0.4836552833333333
870,1778413114350,-0.35527683200000004,0.628628157,0.249581636,3.43754297,0.14056359400000001,-0.532231219
871,1778413114360,-0.12923518444444446,0.35336412,0.12004088111111111,3.4304842777777775,-0.2809812655555555,-0.84900982
872,1778413114370,-0.13332418,0.28038560777777777,0.09243425555555557,3.3591508888888892,-0.36358138,-0.9707042155555556
873,1778413114380,-0.18124837,0.060942582,0.0365387156,3.2241129600000002,-0.45634870000000005,-1.06947146
874,1778413114390,-0.14005220555555556,-0.05944452888888888,0.025614637111111112,2.9340011999999995,-0.5026509333333333,-1.0787563
875,1778413114400,-0.11556568522222224,-0.08634311777777777,0.022328537822222223,2.8226912222222222,-0.4795744933333333,-1.0647746666666666
876,1778413114410,0.032453114899999996,-0.163171096,0.03155367212,2.35299896,-0.346518378,-1.1360537000000002
877,1778413114420,0.06027791,-0.18513274,0.04414892,2.188284,-0.31573167,-1.1832111
878,1778413114430,0.0926700412,-0.22301302,0.132397976,2.05438616,-0.33283538999999995,-1.2662863
879,1778413114440,0.10262455488888889,-0.33683874333333336,0.41022039555555556,1.9886048555555556,-0.34634191111111107,-1.5085891444444444
880,1778413114450,0.07518054033333334,-0.39665591555555557,0.5024954222222222,2.036794,-0.32061845,-1.5943114
881,1778413114460,-0.0376363426,-0.51489588,0.44022083199999995,2.18999438,-0.088985172,-1.54275584
882,1778413114470,-0.041008491333333334,-0.5194002333333333,0.4041089533333333,2.2135323888888885,-0.047026753888888884,-1.5001051444444444
883,1778413114480,0.02932758888888889,-0.48068184444444445,0.33417939888888887,2.2509976777777774,0.02165962388888889,-1.4506943888888888
884,1778413114490,-0.024269712,-0.5290003719999999,0.1465451438,2.27453554,0.099766628,-1.39541954
885,1778413114500,-0.080356994,-0.5692913355555556,0.022941718999999996,2.2360657222222224,0.06794827333333334,-1.349293788888889
886,1778413114510,0.0731445134,-0.46091710399999997,-0.16768052,1.99708881,-0.15801091699999997,-1.21906785
887,1778413114520,0.09832891,-0.44383684,-0.18866955,1.9402800000000002,-0.19722731,-1.2100884
888,1778413114530,0.18489223888888887,-0.45001608000000004,-0.24865949666666667,1.8077940222222222,-0.26136626777777777,-1.2458568888888888
889,1778413114540,0.33350727,-0.45393502,-0.326866632,0.970315581,-0.34413608300000004,-1.56816709
890,1778413114550,0.3611525,-0.4542202622222222,-0.3371199422222222,0.82059693,-0.30107135,-1.6370707
891,1778413114560,0.30170460666666665,-0.54121044,-0.46348232,0.16855142222222225,-0.07159638777777778,-1.9101192888888887
892,1778413114570,0.258521192,-0.58811358,-0.489741972,-0.127079141,-0.0097582847,-2.00938192
893,1778413114580,0.09257315022222222,-0.7461648111111111,-0.45203519333333336,-0.6842677133333334,0.11172566333333332,-2.0671072
894,1778413114590,-0.05688746360000001,-0.81537682,-0.43642792799999997,-1.00682897,0.25025649,-1.9821993500000001
895,1778413114600,-0.16615806111111112,-0.8553547555555556,-0.4422006222222222,-1.1664976444444444,0.30218274777777776,-1.8015921222222222
896,1778413114610,-0.33851227888888885,-0.9202603111111112,-0.4078625733333333,-1.2738710666666666,0.07869748966666666,-1.1860617666666666
897,1778413114620,-0.381927762,-0.92013294,-0.328738711,-1.133702,-0.041705600200000005,-0.7866491
898,1778413114630,-0.44563577,-0.9063029,-0.19598705,-0.88761201,-0.08035187,-0.4909175866666666
899,1778413114640,-0.4866476266666666,-0.7147164822222223,-0.2666110933333333,-0.06543701333333332,-0.15351779555555556,-0.03416502666666667
900,1778413114650,-0.5450317929999999,-0.6350583860000001,-0.389083694,0.39801281,-0.233328386,0.159507498
901,1778413114660,-0.7565956300000001,-0.5109410488888889,-0.8980741177777778,1.237059011111111,-0.7515372777777778,0.5980279622222222
902,1778413114670,-0.7528518670000001,-0.451154355,-1.1233369300000002,1.69991157,-1.0855214400000002,0.910605278
903,1778413114680,-0.7277287600000001,-0.34697823333333333,-1.615290688888889,1.8798061333333334,-0.9742250555555556,1.1822694222222223
904,1778413114690,-0.7665284666666667,-0.19197258222222222,-1.9301091555555554,1.8344676333333334,-0.7292752888888888,1.3184883888888888
905,1778413114700,-0.8136816440000001,-0.09996925139999999,-1.98505174,1.7607519,-0.582977384,1.32060599
906,1778413114710,-1.1458087333333333,0.019902922,-2.369396288888889,1.3573959777777778,-0.03399534577777777,1.2383994777777778
907,1778413114720,-1.3052489333333332,-0.03984988733333334,-2.5291617333333334,1.09785376,0.17494835555555557,1.1688986555555556
908,1778413114730,-1.4226562600000001,-0.135446936,-2.53436126,0.632822494,0.49139608399999996,1.05855254
909,1778413114740,-1.5021203,-0.18373024444444444,-2.489017122222222,0.15212642066666668,1.10313922,0.8739951866666666
910,1778413114750,-1.6387848000000003,-0.197603,-2.449533,-0.008322794,1.3641746,0.79723203
911,1778413114760,-1.8483700444444446,-0.049941940222222224,-2.5410154666666664,-0.016263809,1.4921131666666667,0.7730696255555556
912,1778413114770,-1.9666560888888887,0.04860717311111111,-2.7627222666666666,-0.07449791866666666,1.8174232555555558,0.6902658666666667
913,1778413114780,-1.96927956,0.009220050464,-3.3663548,-0.5340714054,2.03054795,0.899976551
914,1778413114790,-1.9481286,-0.11987487685333334,-3.3932432444444443,-1.345611617777778,1.5267958222222222,1.276272028888889
915,1778413114800,-1.9355398,-0.21565282,-3.3434572,-1.5184135,1.4118208,1.3604332
916,1778413114810,-1.53762015,-0.5199724210000001,-2.07338312,-2.91810134,0.2363749823,2.31793619
917,1778413114820,-1.2493005,-0.71732842,-1.2811112666666666,-3.2982952,-0.23387813699999999,2.8436211
918,1778413114830,-1.0988628999999999,-0.87838662,-0.85018982,-3.3797415600000003,-0.39135456,3.2018473999999997
919,1778413114840,-0.9017430111111112,-1.2711006666666667,-0.3144729555555556,-3.2617802,-0.3781059722222222,3.840820777777778
920,1778413114850,-0.7285824822222222,-1.5012089555555557,-0.07151162222222222,-3.094934,-0.32543737,4.265834711111111
921,1778413114860,-0.132379672,-1.6277047599999999,0.133654142,-2.4624169399999998,-0.49837502300000003,5.14373121
922,1778413114870,0.3969642133333333,-1.5930604666666666,0.26328772333333333,-1.9810285666666667,-0.7720345833333333,5.395206866666666
923,1778413114880,0.9200028866666666,-1.4002205888888888,0.2683760933333333,-1.6051539,-0.9117149866666667,5.3554759333333335
924,1778413114890,1.037225162,-1.2783062399999998,0.145066388,-1.47504349,-0.814549542,5.12968132
925,1778413114900,1.0475915999999998,-1.1999784999999998,0.03626227666666667,-1.5746115666666667,-0.6580097466666666,4.958603399999999
926,1778413114910,0.9024092999999999,-1.0890238799999998,-0.184135739,-2.22436979,-0.1998539485,4.618952009999999
927,1778413114920,0.8169616055555555,-1.0578395111111112,-0.25186429111111114,-2.8152932666666666,0.022270474999999998,4.470943766666667
928,1778413114930,0.74066315,-1.0896774333333334,-0.14125824533333334,-4.049229955555556,0.13385190111111112,4.291015222222223
929,1778413114940,0.648080497,-1.20262812,0.2094543088,-4.495515279999999,0.11344960600000001,4.2619118
930,1778413114950,0.6468568533333333,-1.2808776333333334,0.49450719555555556,-4.786930333333333,0.05505261000000001,4.254093
931,1778413114960,0.814559728888889,-1.345945688888889,1.0208591111111112,-5.197012333333333,-0.27500853000000003,4.253685866666667
932,1778413114970,0.894076542,-1.3570608800000001,1.16447042,-5.273856759999999,-0.393187112,4.2358899
933,1778413114980,1.1275894666666666,-1.4165291444444443,1.5808713444444444,-5.258503999999999,-0.34023344222222224,3.935298722222223
934,1778413114990,1.28647745,-1.4385748,1.91439525,-5.20250965,-0.1761530795,3.7461736500000002
935,1778413115000,1.3351693,-1.4241685,2.0441132,-5.092149933333333,0.13815328733333335,3.4683399333333336
936,1778413115010,1.2716018999999998,-1.220708077777778,2.144037677777778,-4.795753322222222,0.7868560733333333,2.969549111111111
937,1778413115020,1.1938623,-1.05294558,2.06654433,-4.54658202,1.25373342,2.46377612
938,1778413115030,0.8817147444444444,-0.9460104333333335,1.6018279111111111,-4.490940655555556,1.4874979000000002,2.0709163333333334
939,1778413115040,0.7883048166666666,-0.9644803888888889,1.5047829333333334,-4.526641277777777,1.5424741222222222,1.9722305555555555
940,1778413115050,0.7072364,-0.9880759999999998,1.4252051,-4.566007,1.5767494,1.916915
941,1778413115060,0.40977323777777774,-0.9910368,1.1046308555555555,-5.360990711111111,1.5369765333333332,1.8630246666666668
942,1778413115070,0.366301865,-0.9870849749999999,1.05608295,-5.55317425,1.4622156,1.85460855
943,1778413115080,0.42006516,-1.0402944166666666,1.2427351,-5.843161277777778,1.2987461111111112,1.818636488888889
944,1778413115090,0.5643723666666667,-1.0365442333333332,1.4831150666666666,-6.069378333333333,1.1811919444444443,1.767936211111111
945,1778413115100,0.6986871,-1.00934548,1.6129234799999999,-6.12307176,1.1638167,1.6971933
946,1778413115110,0.8626113,-0.9638266166666667,1.6786041333333332,-6.148584866666667,1.1764409,1.4477843666666665
947,1778413115120,0.9538869666666666,-0.8783236066666666,1.6827608666666667,-6.279374222222222,1.2584302222222223,1.2377207555555556
948,1778413115130,1.0252275,-0.79562566,1.7130572999999998,-6.463375000000001,1.3773079000000001,1.013471925
949,1778413115140,0.9549405333333332,-0.7637776111111111,1.8396635555555558,-6.7136186222222225,1.5616140666666665,0.8071413388888888
950,1778413115150,0.839363015,-0.7263015119999999,2.07233738,-6.939469219999999,1.74235017,0.68868449
951,1778413115160,0.9425651333333332,-0.44384704666666663,2.5864720333333335,-7.1387681999999995,2.036921066666667,0.64207682
952,1778413115170,0.9809684777777777,-0.2665467222222222,2.9149024444444445,-7.052842466666666,2.096309066666667,0.5681643033333333
953,1778413115180,1.11479372,0.316616036,3.4507653599999997,-6.31781008,2.17208128,0.393095491
954,1778413115190,1.239415122222222,0.8728524111111111,3.6304929555555554,-5.4013148555555555,2.0049534444444443,0.08186202000000001
955,1778413115200,1.2927786666666665,1.3336448666666665,3.623178733333333,-5.103959499999999,1.8666983333333331,-0.08424601
956,1778413115210,1.16535764,2.00073572,3.4969538899999995,-4.42844402,1.5253162,-0.578716682
957,1778413115220,0.9397194666666668,2.3656258,3.3953201666666666,-4.238185611111111,1.4255987777777779,-0.8795521722222223
958,1778413115230,0.682234928,2.5560759,3.3929542400000003,-4.2418914,1.41670748,-1.1332438200000001
959,1778413115240,0.1352348588888889,2.6820433333333336,3.4570005555555556,-4.305785844444444,1.4401911555555555,-1.2349295333333332
960,1778413115250,-0.5147488622222222,2.674512377777778,3.557822777777778,-4.3118944,1.4283136,-1.2369657
961,1778413115260,-1.4638171199999999,2.55907616,4.49296356,-3.3990441600000003,-1.303318956,0.8888285399999999
962,1778413115270,-1.0662885111111111,2.603309133333333,5.546871888888889,-2.58357,-2.7178885555555556,1.9912348333333334
963,1778413115280,1.1130561555555556,2.816837911111111,7.2397554444444445,0.05571427777777776,-3.977973222222222,2.9509861666666666
964,1778413115290,3.3922285199999997,2.98863792,7.938664399999999,3.35297104,-4.29560004,2.96654908
965,1778413115300,4.121931,3.0178387555555553,7.558445466666667,4.690203888888889,-3.726762044444445,2.397982622222222
966,1778413115310,4.65107624,3.08195432,4.87251612,5.56611658,-1.099143325,0.26128226000000004
967,1778413115320,4.440411433333334,3.063441066666667,3.7268841999999998,4.201594077777778,1.0451596888888888,-1.9517249222222222
968,1778413115330,3.910969944444444,2.8302736,3.1572473333333333,3.1146422777777776,2.0200888333333333,-3.1957153888888885
969,1778413115340,2.91097775,2.2044426,3.06897485,1.6192796999999999,3.12833965,-4.7384185
970,1778413115350,2.429715,1.8480040999999998,3.2045467,1.0185114,3.5785723,-5.343768
971,1778413115360,1.0622300111111111,0.5404007611111111,4.116486755555555,0.5819592755555556,4.0183823,-5.655503866666667
972,1778413115370,0.5167527300000001,-0.141334465,4.517153649999999,1.055528744,4.32246204,-5.0184616
973,1778413115380,0.2503059311111111,-0.5980261066666667,4.535122188888888,1.9275200888888888,4.496404355555556,-4.235283911111111
974,1778413115390,0.206262034,-0.691308644,4.31764192,2.8541533,4.28691084,-3.6733452200000003
975,1778413115400,0.16236380777777776,-0.7178264388888889,4.114728266666667,3.465302555555555,4.073426455555556,-3.320506377777778
976,1778413115410,-0.035479714,-0.6525787166666667,3.1964161333333334,4.758127,3.080867611111111,-2.351227355555556
977,1778413115420,-0.040444435,-0.6186672,2.99698581,4.821723,3.0190363,-2.2894554
978,1778413115430,0.022880740222222223,-0.5768595333333333,2.6463229,5.061862166666667,2.6834095666666666,-1.8750296222222222
979,1778413115440,0.20791864333333332,-0.5689458000000001,1.9322570333333333,5.294187833333333,2.335014433333333,-1.1494109000000001
980,1778413115450,0.24381911299999998,-0.573713365,1.7661975900000002,5.31737951,2.33035173,-0.9426594469999999
981,1778413115460,0.28479643222222223,-0.6877569311111111,1.2125809666666667,5.281699155555556,2.2881149333333335,-0.7326094755555554
982,1778413115470,0.38612008,-0.722176242,1.05908614,5.29728276,2.15412222,-0.66631218
983,1778413115480,0.47985519000000004,-0.8082789,0.8958754333333333,5.494952866666667,1.926968566666667,-0.8201642466666667
984,1778413115490,0.47342192000000005,-0.8843402733333333,0.7176435400000001,5.740852555555556,1.7369272111111111,-1.0174000555555556
985,1778413115500,0.448041395,-0.9010831099999999,0.628768436,5.7943899,1.68053243,-1.0586594
986,1778413115510,0.37979857333333333,-0.8299976533333333,0.22433219333333332,5.791485333333333,1.2618916666666666,-1.198142977777778
987,1778413115520,0.3915607866666667,-0.7824948777777778,0.0986507411111111,5.648343333333333,1.139179266666667,-1.2686618777777778
988,1778413115530,0.372497344,-0.77886861,0.052393301999999996,5.12252679,1.09192007,-1.42211353
989,1778413115540,0.31920561333333336,-0.77916129,0.07154889266666667,4.587632577777778,1.208951622222222,-1.5135437333333333
990,1778413115550,0.280059022,-0.771252308,0.09460308320000001,4.41111132,1.2746244999999998,-1.52272
991,1778413115560,0.11294358466666668,-0.7482889444444445,0.16925783555555554,3.850068444444444,1.4759597111111111,-1.4401742333333332
992,1778413115570,0.041801220666666666,-0.7527065333333334,0.20846743666666667,3.640751388888889,1.500597188888889,-1.3387736222222222
993,1778413115580,-0.028215060199999996,-0.75449524,0.23571496600000003,3.4374207400000003,1.40168064,-1.1317778600000001
994,1778413115590,-0.023175471666666666,-0.7240327777777779,0.30782621777777774,3.3865033,1.1230256777777778,-0.8899366
995,1778413115600,-0.014177657000000001,-0.7154686,0.32675686,3.3898969,1.0630269,-0.847856
996,1778413115610,0.0646318226,-0.6794420999999999,0.32218037699999996,3.5746781499999996,0.6012264199999999,-0.7513420999999999
997,1778413115620,0.08320607666666666,-0.6703677222222222,0.28274006444444444,3.6917912222222222,0.3379512366666667,-0.7291479999999999
998,1778413115630,0.0486979638,-0.670557424,0.170759952,3.77619672,0.024174280999999995,-0.651041018
999,1778413115640,0.040950900666666665,-0.6385806088888889,0.05025360888888889,3.751925733333333,-0.197634535,-0.53734197
1000,1778413115650,0.04414892,-0.629305,0.032197,3.729528,-0.24670593,-0.50211644
