id,timestamp,id,acc_x,acc_y,acc_z,gyro_x,gyro_y,gyro_z
0,1778446265790,1.0,-0.35779816,0.61509174,0.37808868,0.0,0.0,0.0
1,1778446265800,2.0,-0.35779816,0.61509174,0.37808868,0.0,0.0,0.0
2,1778446265810,3.0,-0.35779816,0.61509174,0.37808868,0.0,0.0,0.0
3,1778446265820,4.0,-0.35779816,0.61509174,0.37808868,0.0,0.0,0.0
4,1778446265830,5.0,-0.35779816,0.61509174,0.37808868,0.0,0.0,0.0
5,1778446265840,6.0,-0.35779816,0.61509174,0.37808868,0.0,0.0,0.0
6,1778446265850,7.0,-0.35779816,0.61509174,0.37808868,0.0,0.0,0.0
7,1778446265860,8.0,-0.35779816,0.61509174,0.37808868,0.0,0.0,0.0
8,1778446265870,9.0,-0.35779816,0.61509174,0.37808868,0.0,0.0,0.0
9,1778446265880,10.0,-0.35779816,0.61509174,0.37808868,0.0,0.0,0.0
10,1778446265890,11.0,-0.35779816,0.61509174,0.37808868,0.0,0.0,0.0
11,1778446265900,12.0,-0.35779816,0.61509174,0.37808868,0.0,0.0,0.0
12,1778446265910,13.0,-0.35779816,0.61509174,0.37808868,0.0,0.0,0.0
13,1778446265920,14.0,-0.35779816,0.61509174,0.37808868,0.0,0.0,0.0
14,1778446265930,15.0,-0.35779816,0.61509174,0.37808868,0.0,0.0,0.0
15,1778446265940,16.0,-0.2005848599999999,0.530355505,0.42770641,0.0,0.0,0.0
16,1778446265950,17.0,0.27105504,0.2761468,0.5765596,0.0,0.0,0.0
17,1778446265960,18.0,0.27105504,0.2761468,0.5765596,0.0,0.0,0.0
18,1778446265970,19.0,0.27105504,0.2761468,0.5765596,0.0,0.0,0.0
19,1778446265980,20.0,0.27105504,0.2761468,0.5765596,0.0,0.0,0.0
20,1778446265990,21.0,0.27105504,0.2761468,0.5765596,0.0,0.0,0.0
21,1778446266000,22.0,0.27105504,0.2761468,0.5765596,0.0,0.0,0.0
22,1778446266010,23.0,0.27105504,0.2761468,0.5765596,0.0,0.0,0.0
23,1778446266020,24.0,0.27105504,0.2761468,0.5765596,0.0,0.0,0.0
24,1778446266030,25.0,0.27105504,0.2761468,0.5765596,0.0,0.0,0.0
25,1778446266040,26.0,0.27105504,0.2761468,0.5765596,0.0,0.0,0.0
26,1778446266050,27.0,0.27105504,0.2761468,0.5765596,0.0,0.0,0.0
27,1778446266060,28.0,0.27105504,0.2761468,0.5765596,0.0,0.0,0.0
28,1778446266070,29.0,0.27105504,0.2761468,0.5765596,0.0,0.0,0.0
29,1778446266080,30.0,0.27105504,0.2761468,0.5765596,0.0,0.0,0.0
30,1778446266090,31.0,0.27105504,0.2761468,0.5765596,0.0,0.0,0.0
31,1778446266100,32.0,0.27105504,0.2761468,0.5765596,0.0,0.0,0.0
32,1778446266110,33.0,0.27105504,0.2761468,0.5765596,0.0,0.0,0.0
33,1778446266120,34.0,0.27105504,0.2761468,0.5765596,0.0,0.0,0.0
34,1778446266130,35.0,0.27105504,0.2761468,0.5765596,0.0,0.0,0.0
35,1778446266140,36.0,0.27105504,0.2761468,0.5765596,0.0,0.0,0.0
36,1778446266150,37.0,0.27105504,0.2761468,0.5765596,0.0,0.0,0.0
37,1778446266160,38.0,0.27105504,0.2761468,0.5765596,0.0,0.0,0.0
38,1778446266170,39.0,0.27105504,0.2761468,0.5765596,0.0,0.0,0.0
39,1778446266180,40.0,0.27105504,0.2761468,0.5765596,0.0,0.0,0.0
40,1778446266190,41.0,0.27105504,0.2761468,0.5765596,0.0,0.0,0.0
41,1778446266200,42.0,0.27105504,0.2761468,0.5765596,0.0,0.0,0.0
42,1778446266210,43.0,0.27105504,0.2761468,0.5765596,0.0,0.0,0.0
43,1778446266220,44.0,0.27105504,0.2761468,0.5765596,0.0,0.0,0.0
44,1778446266230,45.0,0.27105504,0.2761468,0.5765596,0.0,0.0,0.0
45,1778446266240,46.0,0.27105504,0.2761468,0.5765596,0.0,0.0,0.0
46,1778446266250,47.0,0.27105504,0.2761468,0.5765596,0.0,0.0,0.0
47,1778446266260,48.0,0.27105504,0.2761468,0.5765596,0.0,0.0,0.0
48,1778446266270,49.0,0.27105504,0.2761468,0.5765596,0.0,0.0,0.0
49,1778446266280,50.0,0.27105504,0.2761468,0.5765596,0.0,0.0,0.0
50,1778446266290,51.0,0.27105504,0.2761468,0.5765596,0.0,0.0,0.0
51,1778446266300,52.0,0.27105504,0.2761468,0.5765596,0.0,0.0,0.0
52,1778446266310,53.0,0.27105504,0.2761468,0.5765596,0.0,0.0,0.0
53,1778446266320,54.0,0.27105504,0.2761468,0.5765596,0.0,0.0,0.0
54,1778446266330,55.0,0.27105504,0.2761468,0.5765596,0.0,0.0,0.0
55,1778446266340,56.0,0.27105504,0.2761468,0.5765596,0.0,0.0,0.0
56,1778446266350,57.0,0.27105504,0.2761468,0.5765596,0.0,0.0,0.0
57,1778446266360,58.0,0.27105504,0.2761468,0.5765596,0.0,0.0,0.0
58,1778446266370,59.0,0.27105504,0.2761468,0.5765596,0.0,0.0,0.0
59,1778446266380,60.0,0.27105504,0.2761468,0.5765596,0.0,0.0,0.0
60,1778446266390,61.0,0.27105504,0.2761468,0.5765596,0.0,0.0,0.0
61,1778446266400,62.0,0.27105504,0.2761468,0.5765596,0.0,0.0,0.0
62,1778446266410,63.0,0.27105504,0.2761468,0.5765596,0.0,0.0,0.0
63,1778446266420,64.0,0.27105504,0.2761468,0.5765596,0.0,0.0,0.0
64,1778446266430,65.0,0.27105504,0.2761468,0.5765596,0.0,0.0,0.0
65,1778446266440,66.0,0.27105504,0.2761468,0.5765596,0.0,0.0,0.0
66,1778446266450,67.0,0.27105504,0.2761468,0.5765596,0.0,0.0,0.0
67,1778446266460,68.0,0.27105504,0.2761468,0.5765596,0.0,0.0,0.0
68,1778446266470,69.0,0.27105504,0.2761468,0.5765596,0.0,0.0,0.0
69,1778446266480,70.0,0.27105504,0.2761468,0.5765596,0.0,0.0,0.0
70,1778446266490,71.0,0.27105504,0.2761468,0.5765596,0.0,0.0,0.0
71,1778446266500,72.0,0.27105504,0.2761468,0.5765596,0.0,0.0,0.0
72,1778446266510,73.0,0.27105504,0.2761468,0.5765596,0.0,0.0,0.0
73,1778446266520,74.0,0.27105504,0.2761468,0.5765596,0.0,0.0,0.0
74,1778446266530,75.0,0.27105504,0.2761468,0.5765596,0.0,0.0,0.0
75,1778446266540,76.0,0.27105504,0.2761468,0.5765596,0.0,0.0,0.0
76,1778446266550,77.0,0.27105504,0.2761468,0.5765596,0.0,0.0,0.0
77,1778446266560,78.0,0.27105504,0.2761468,0.5765596,0.0,0.0,0.0
78,1778446266570,79.0,0.27105504,0.2761468,0.5765596,0.0,0.0,0.0
79,1778446266580,80.0,0.27105504,0.2761468,0.5765596,0.0,0.0,0.0
80,1778446266590,81.0,0.27105504,0.2761468,0.5765596,0.0,0.0,0.0
81,1778446266600,82.0,0.27105504,0.2761468,0.5765596,0.0,0.0,0.0
82,1778446266610,83.0,0.27105504,0.2761468,0.5765596,0.0,0.0,0.0
83,1778446266620,84.0,0.27105504,0.2761468,0.5765596,0.0,0.0,0.0
84,1778446266630,85.0,0.27105504,0.2761468,0.5765596,0.0,0.0,0.0
85,1778446266640,86.0,0.27105504,0.2761468,0.5765596,0.0,0.0,0.0
86,1778446266650,87.0,0.27105504,0.2761468,0.5765596,0.0,0.0,0.0
87,1778446266660,88.0,0.27105504,0.2761468,0.5765596,0.0,0.0,0.0
88,1778446266670,89.0,0.27105504,0.2761468,0.5765596,0.0,0.0,0.0
89,1778446266680,90.0,0.27105504,0.2761468,0.5765596,0.0,0.0,0.0
90,1778446266690,91.0,0.27105504,0.2761468,0.5765596,0.0,0.0,0.0
91,1778446266700,92.0,0.27105504,0.2761468,0.5765596,0.0,0.0,0.0
92,1778446266710,93.0,0.27105504,0.2761468,0.5765596,0.0,0.0,0.0
93,1778446266720,94.0,0.27105504,0.2761468,0.5765596,0.0,0.0,0.0
94,1778446266730,95.0,0.27105504,0.2761468,0.5765596,0.0,0.0,0.0
95,1778446266740,96.0,0.27105504,0.2761468,0.5765596,0.0,0.0,0.0
96,1778446266750,97.0,0.27105504,0.2761468,0.5765596,0.0,0.0,0.0
97,1778446266760,98.0,0.27105504,0.2761468,0.5765596,0.0,0.0,0.0
98,1778446266770,99.0,0.27105504,0.2761468,0.5765596,0.0,0.0,0.0
99,1778446266780,100.0,0.27105504,0.2761468,0.5765596,0.0,0.0,0.0
100,1778446266790,101.0,0.27105504,0.2761468,0.5765596,0.0,0.0,0.0
101,1778446266800,102.0,0.27105504,0.2761468,0.5765596,0.0,0.0,0.0
102,1778446266810,103.0,0.27105504,0.2761468,0.5765596,0.0,0.0,0.0
103,1778446266820,104.0,0.27105504,0.2761468,0.5765596,0.0,0.0,0.0
104,1778446266830,105.0,0.27105504,0.2761468,0.5765596,0.0,0.0,0.0
105,1778446266840,106.0,0.27105504,0.2761468,0.5765596,0.0,0.0,0.0
106,1778446266850,107.0,0.27105504,0.2761468,0.5765596,0.0,0.0,0.0
107,1778446266860,108.0,0.27105504,0.2761468,0.5765596,0.0,0.0,0.0
108,1778446266870,109.0,0.27105504,0.2761468,0.5765596,0.0,0.0,0.0
109,1778446266880,110.0,0.27105504,0.2761468,0.5765596,0.0,0.0,0.0
110,1778446266890,111.0,0.27105504,0.2761468,0.5765596,0.0,0.0,0.0
111,1778446266900,112.0,0.27105504,0.2761468,0.5765596,0.0,0.0,0.0
112,1778446266910,113.0,0.27105504,0.2761468,0.5765596,0.0,0.0,0.0
113,1778446266920,114.0,0.27105504,0.2761468,0.5765596,0.0,0.0,0.0
114,1778446266930,115.0,0.27105504,0.2761468,0.5765596,0.0,0.0,0.0
115,1778446266940,116.0,0.27105504,0.2761468,0.5765596,0.0,0.0,0.0
116,1778446266950,117.0,0.27105504,0.2761468,0.5765596,0.0,0.0,0.0
117,1778446266960,118.0,0.27105504,0.2761468,0.5765596,0.0,0.0,0.0
118,1778446266970,119.0,0.27105504,0.2761468,0.5765596,0.0,0.0,0.0
119,1778446266980,120.0,0.27105504,0.2761468,0.5765596,0.0,0.0,0.0
120,1778446266990,121.0,0.27105504,0.2761468,0.5765596,0.0,0.0,0.0
121,1778446267000,122.0,0.27105504,0.2761468,0.5765596,0.0,0.0,0.0
122,1778446267010,123.0,0.27105504,0.2761468,0.5765596,0.0,0.0,0.0
123,1778446267020,124.0,0.27105504,0.2761468,0.5765596,0.0,0.0,0.0
124,1778446267030,125.0,0.27105504,0.2761468,0.5765596,0.0,0.0,0.0
125,1778446267040,126.0,0.27105504,0.2761468,0.5765596,0.0,0.0,0.0
126,1778446267050,127.0,0.27105504,0.2761468,0.5765596,0.0,0.0,0.0
127,1778446267060,128.0,0.27105504,0.2761468,0.5765596,0.0,0.0,0.0
128,1778446267070,129.0,0.27105504,0.2761468,0.5765596,0.0,0.0,0.0
129,1778446267080,130.0,0.27105504,0.2761468,0.5765596,0.0,0.0,0.0
130,1778446267090,131.0,0.27105504,0.2761468,0.5765596,0.0,0.0,0.0
131,1778446267100,132.0,0.27105504,0.2761468,0.5765596,0.0,0.0,0.0
132,1778446267110,133.0,0.27105504,0.2761468,0.5765596,0.0,0.0,0.0
133,1778446267120,134.0,0.27105504,0.2761468,0.5765596,0.0,0.0,0.0
134,1778446267130,135.0,0.27105504,0.2761468,0.5765596,0.0,0.0,0.0
135,1778446267140,136.0,0.27105504,0.2761468,0.5765596,0.0,0.0,0.0
136,1778446267150,137.0,0.27105504,0.2761468,0.5765596,0.0,0.0,0.0
137,1778446267160,138.0,0.27105504,0.2761468,0.5765596,0.0,0.0,0.0
138,1778446267170,139.0,0.27105504,0.2761468,0.5765596,0.0,0.0,0.0
139,1778446267180,140.0,0.27105504,0.2761468,0.5765596,0.0,0.0,0.0
140,1778446267190,141.0,0.27105504,0.2761468,0.5765596,0.0,0.0,0.0
141,1778446267200,142.0,0.27105504,0.2761468,0.5765596,0.0,0.0,0.0
142,1778446267210,143.0,0.27105504,0.2761468,0.5765596,0.0,0.0,0.0
143,1778446267220,144.0,0.27105504,0.2761468,0.5765596,0.0,0.0,0.0
144,1778446267230,145.0,0.27105504,0.2761468,0.5765596,0.0,0.0,0.0
145,1778446267240,146.0,0.27105504,0.2761468,0.5765596,0.0,0.0,0.0
146,1778446267250,147.0,0.27105504,0.2761468,0.5765596,0.0,0.0,0.0
147,1778446267260,148.0,0.27105504,0.2761468,0.5765596,0.0,0.0,0.0
148,1778446267270,149.0,0.27105504,0.2761468,0.5765596,0.0,0.0,0.0
149,1778446267280,150.0,0.27105504,0.2761468,0.5765596,0.0,0.0,0.0
150,1778446267290,151.0,0.27105504,0.2761468,0.5765596,0.0,0.0,0.0
151,1778446267300,152.0,0.27105504,0.2761468,0.5765596,0.0,0.0,0.0
152,1778446267310,153.0,0.27105504,0.2761468,0.5765596,0.0,0.0,0.0
153,1778446267320,154.0,0.27105504,0.2761468,0.5765596,0.0,0.0,0.0
154,1778446267330,155.0,0.27105504,0.2761468,0.5765596,0.0,0.0,0.0
155,1778446267340,156.0,0.27105504,0.2761468,0.5765596,0.0,0.0,0.0
156,1778446267350,157.0,0.27105504,0.2761468,0.5765596,0.0,0.0,0.0
157,1778446267360,158.0,0.27105504,0.2761468,0.5765596,0.0,0.0,0.0
158,1778446267370,159.0,0.27105504,0.2761468,0.5765596,0.0,0.0,0.0
159,1778446267380,160.0,0.27105504,0.2761468,0.5765596,0.0,0.0,0.0
160,1778446267390,161.0,0.27105504,0.2761468,0.5765596,0.0,0.0,0.0
161,1778446267400,162.0,0.27105504,0.2761468,0.5765596,0.0,0.0,0.0
162,1778446267410,163.0,0.27105504,0.2761468,0.5765596,0.0,0.0,0.0
163,1778446267420,164.0,0.27105504,0.2761468,0.5765596,0.0,0.0,0.0
164,1778446267430,165.0,0.27105504,0.2761468,0.5765596,0.0,0.0,0.0
165,1778446267440,166.0,0.27105504,0.2761468,0.5765596,0.0,0.0,0.0
166,1778446267450,167.0,0.27105504,0.2761468,0.5765596,0.0,0.0,0.0
167,1778446267460,168.0,0.27105504,0.2761468,0.5765596,0.0,0.0,0.0
168,1778446267470,169.0,0.27105504,0.2761468,0.5765596,0.0,0.0,0.0
169,1778446267480,170.0,0.27105504,0.2761468,0.5765596,0.0,0.0,0.0
170,1778446267490,171.0,0.27105504,0.2761468,0.5765596,0.0,0.0,0.0
171,1778446267500,172.0,0.27105504,0.2761468,0.5765596,0.0,0.0,0.0
172,1778446267510,173.0,0.27105504,0.2761468,0.5765596,0.0,0.0,0.0
173,1778446267520,174.0,0.27105504,0.2761468,0.5765596,0.0,0.0,0.0
174,1778446267530,175.0,0.27105504,0.2761468,0.5765596,0.0,0.0,0.0
175,1778446267540,176.0,0.27105504,0.2761468,0.5765596,0.0,0.0,0.0
176,1778446267550,177.0,0.27105504,0.2761468,0.5765596,0.0,0.0,0.0
177,1778446267560,178.0,0.27105504,0.2761468,0.5765596,0.0,0.0,0.0
178,1778446267570,179.0,0.27105504,0.2761468,0.5765596,0.0,0.0,0.0
179,1778446267580,180.0,0.27105504,0.2761468,0.5765596,0.0,0.0,0.0
180,1778446267590,181.0,0.27105504,0.2761468,0.5765596,0.0,0.0,0.0
181,1778446267600,182.0,0.27105504,0.2761468,0.5765596,0.0,0.0,0.0
182,1778446267610,183.0,0.27105504,0.2761468,0.5765596,0.0,0.0,0.0
183,1778446267620,184.0,0.27105504,0.2761468,0.5765596,0.0,0.0,0.0
184,1778446267630,185.0,0.27105504,0.2761468,0.5765596,0.0,0.0,0.0
185,1778446267640,186.0,0.27105504,0.2761468,0.5765596,0.0,0.0,0.0
186,1778446267650,187.0,0.27105504,0.2761468,0.5765596,0.0,0.0,0.0
187,1778446267660,188.0,0.27105504,0.2761468,0.5765596,0.0,0.0,0.0
188,1778446267670,189.0,0.27105504,0.2761468,0.5765596,0.0,0.0,0.0
189,1778446267680,190.0,0.27105504,0.2761468,0.5765596,0.0,0.0,0.0
190,1778446267690,191.0,0.27105504,0.2761468,0.5765596,0.0,0.0,0.0
191,1778446267700,192.0,0.27105504,0.2761468,0.5765596,0.0,0.0,0.0
192,1778446267710,193.0,0.27105504,0.2761468,0.5765596,0.0,0.0,0.0
193,1778446267720,194.0,0.27105504,0.2761468,0.5765596,0.0,0.0,0.0
194,1778446267730,195.0,0.27105504,0.2761468,0.5765596,0.0,0.0,0.0
195,1778446267740,196.0,0.27105504,0.2761468,0.5765596,0.0,0.0,0.0
196,1778446267750,197.0,0.27105504,0.2761468,0.5765596,0.0,0.0,0.0
197,1778446267760,198.0,0.27105504,0.2761468,0.5765596,0.0,0.0,0.0
198,1778446267770,199.0,0.27105504,0.2761468,0.5765596,0.0,0.0,0.0
199,1778446267780,200.0,0.27105504,0.2761468,0.5765596,0.0,0.0,0.0
200,1778446267790,201.0,0.27105504,0.2761468,0.5765596,0.0,0.0,0.0
201,1778446267800,202.0,0.27105504,0.2761468,0.5765596,0.0,0.0,0.0
202,1778446267810,203.0,0.27105504,0.2761468,0.5765596,0.0,0.0,0.0
203,1778446267820,204.0,0.27105504,0.2761468,0.5765596,0.0,0.0,0.0
204,1778446267830,205.0,0.27105504,0.2761468,0.5765596,0.0,0.0,0.0
205,1778446267840,206.0,0.27105504,0.2761468,0.5765596,0.0,0.0,0.0
206,1778446267850,207.0,0.1788328196666666,0.1900764596666666,0.5099948833333333,0.0,0.0,0.0
207,1778446267860,208.0,-0.005611621,0.017935779,0.37686545,0.0,0.0,0.0
208,1778446267870,209.0,-0.005611621,0.017935779,0.37686545,0.0,0.0,0.0
209,1778446267880,210.0,-0.005611621,0.017935779,0.37686545,0.0,0.0,0.0
210,1778446267890,211.0,-0.005611621,0.017935779,0.37686545,0.0,0.0,0.0
211,1778446267900,212.0,-0.005611621,0.017935779,0.37686545,0.0,0.0,0.0
212,1778446267910,213.0,-0.005611621,0.017935779,0.37686545,0.0,0.0,0.0
213,1778446267920,214.0,-0.005611621,0.017935779,0.37686545,0.0,0.0,0.0
214,1778446267930,215.0,-0.005611621,0.017935779,0.37686545,0.0,0.0,0.0
215,1778446267940,216.0,-0.005611621,0.017935779,0.37686545,0.0,0.0,0.0
216,1778446267950,217.0,-0.005611621,0.017935779,0.37686545,0.0,0.0,0.0
217,1778446267960,218.0,-0.005611621,0.017935779,0.37686545,0.0,0.0,0.0
218,1778446267970,219.0,-0.005611621,0.017935779,0.37686545,0.0,0.0,0.0
219,1778446267980,220.0,-0.005611621,0.017935779,0.37686545,0.0,0.0,0.0
220,1778446267990,221.0,-0.005611621,0.017935779,0.37686545,0.0,0.0,0.0
221,1778446268000,222.0,-0.005611621,0.017935779,0.37686545,0.0,0.0,0.0
222,1778446268010,223.0,-0.005611621,0.017935779,0.37686545,0.0,0.0,0.0
223,1778446268020,224.0,-0.005611621,0.017935779,0.37686545,0.0,0.0,0.0
224,1778446268030,225.0,-0.005611621,0.017935779,0.37686545,0.0,0.0,0.0
225,1778446268040,226.0,-0.005611621,0.017935779,0.37686545,0.0,0.0,0.0
226,1778446268050,227.0,-0.005611621,0.017935779,0.37686545,0.0,0.0,0.0
227,1778446268060,228.0,-0.005611621,0.017935779,0.37686545,0.0,0.0,0.0
228,1778446268070,229.0,-0.005611621,0.017935779,0.37686545,0.0,0.0,0.0
229,1778446268080,230.0,-0.005611621,0.017935779,0.37686545,0.0,0.0,0.0
230,1778446268090,231.0,-0.005611621,0.017935779,0.37686545,0.0,0.0,0.0
231,1778446268100,232.0,-0.005611621,0.017935779,0.37686545,0.0,0.0,0.0
232,1778446268110,233.0,-0.005611621,0.017935779,0.37686545,0.0,0.0,0.0
233,1778446268120,234.0,-0.005611621,0.017935779,0.37686545,0.0,0.0,0.0
234,1778446268130,235.0,-0.005611621,0.017935779,0.37686545,0.0,0.0,0.0
235,1778446268140,236.0,-0.005611621,0.017935779,0.37686545,0.0,0.0,0.0
236,1778446268150,237.0,-0.005611621,0.017935779,0.37686545,0.0,0.0,0.0
237,1778446268160,238.0,-0.005611621,0.017935779,0.37686545,0.0,0.0,0.0
238,1778446268170,239.0,-0.005611621,0.017935779,0.37686545,0.0,0.0,0.0
239,1778446268180,240.0,-0.005611621,0.017935779,0.37686545,0.0,0.0,0.0
240,1778446268190,241.0,-0.005611621,0.017935779,0.37686545,0.0,0.0,0.0
241,1778446268200,242.0,-0.005611621,0.017935779,0.37686545,0.0,0.0,0.0
242,1778446268210,243.0,-0.005611621,0.017935779,0.37686545,0.0,0.0,0.0
243,1778446268220,244.0,-0.005611621,0.017935779,0.37686545,0.0,0.0,0.0
244,1778446268230,245.0,-0.005611621,0.017935779,0.37686545,0.0,0.0,0.0
245,1778446268240,246.0,-0.005611621,0.017935779,0.37686545,0.0,0.0,0.0
246,1778446268250,247.0,-0.005611621,0.017935779,0.37686545,0.0,0.0,0.0
247,1778446268260,248.0,-0.005611621,0.017935779,0.37686545,0.0,0.0,0.0
248,1778446268270,249.0,-0.005611621,0.017935779,0.37686545,0.0,0.0,0.0
249,1778446268280,250.0,-0.005611621,0.017935779,0.37686545,0.0,0.0,0.0
250,1778446268290,251.0,-0.005611621,0.017935779,0.37686545,0.0,0.0,0.0
251,1778446268300,252.0,-0.005611621,0.017935779,0.37686545,0.0,0.0,0.0
252,1778446268310,253.0,-0.005611621,0.017935779,0.37686545,0.0,0.0,0.0
253,1778446268320,254.0,-0.005611621,0.017935779,0.37686545,0.0,0.0,0.0
254,1778446268330,255.0,-0.005611621,0.017935779,0.37686545,0.0,0.0,0.0
255,1778446268340,256.0,-0.005611621,0.017935779,0.37686545,0.0,0.0,0.0
256,1778446268350,257.0,-0.005611621,0.017935779,0.37686545,0.0,0.0,0.0
257,1778446268360,258.0,-0.005611621,0.017935779,0.37686545,0.0,0.0,0.0
258,1778446268370,259.0,-0.005611621,0.017935779,0.37686545,0.0,0.0,0.0
259,1778446268380,260.0,-0.005611621,0.017935779,0.37686545,0.0,0.0,0.0
260,1778446268390,261.0,-0.005611621,0.017935779,0.37686545,0.0,0.0,0.0
261,1778446268400,262.0,-0.005611621,0.017935779,0.37686545,0.0,0.0,0.0
262,1778446268410,263.0,-0.005611621,0.017935779,0.37686545,0.0,0.0,0.0
263,1778446268420,264.0,-0.005611621,0.017935779,0.37686545,0.0,0.0,0.0
264,1778446268430,265.0,-0.005611621,0.017935779,0.37686545,0.0,0.0,0.0
265,1778446268440,266.0,-0.005611621,0.017935779,0.37686545,0.0,0.0,0.0
266,1778446268450,267.0,-0.005611621,0.017935779,0.37686545,0.0,0.0,0.0
267,1778446268460,268.0,-0.005611621,0.017935779,0.37686545,0.0,0.0,0.0
268,1778446268470,269.0,-0.005611621,0.017935779,0.37686545,0.0,0.0,0.0
269,1778446268480,270.0,-0.005611621,0.017935779,0.37686545,0.0,0.0,0.0
270,1778446268490,271.0,-0.005611621,0.017935779,0.37686545,0.0,0.0,0.0
271,1778446268500,272.0,-0.005611621,0.017935779,0.37686545,0.0,0.0,0.0
272,1778446268510,273.0,-0.005611621,0.017935779,0.37686545,0.0,0.0,0.0
273,1778446268520,274.0,-0.005611621,0.017935779,0.37686545,0.0,0.0,0.0
274,1778446268530,275.0,-0.005611621,0.017935779,0.37686545,0.0,0.0,0.0
275,1778446268540,276.0,-0.005611621,0.017935779,0.37686545,0.0,0.0,0.0
276,1778446268550,277.0,-0.005611621,0.017935779,0.37686545,0.0,0.0,0.0
277,1778446268560,278.0,-0.005611621,0.017935779,0.37686545,0.0,0.0,0.0
278,1778446268570,279.0,-0.005611621,0.017935779,0.37686545,0.0,0.0,0.0
279,1778446268580,280.0,-0.005611621,0.017935779,0.37686545,0.0,0.0,0.0
280,1778446268590,281.0,-0.005611621,0.017935779,0.37686545,0.0,0.0,0.0
281,1778446268600,282.0,-0.005611621,0.017935779,0.37686545,0.0,0.0,0.0
282,1778446268610,283.0,-0.005611621,0.017935779,0.37686545,0.0,0.0,0.0
283,1778446268620,284.0,-0.005611621,0.017935779,0.37686545,0.0,0.0,0.0
284,1778446268630,285.0,-0.005611621,0.017935779,0.37686545,0.0,0.0,0.0
285,1778446268640,286.0,-0.005611621,0.017935779,0.37686545,0.0,0.0,0.0
286,1778446268650,287.0,-0.005611621,0.017935779,0.37686545,0.0,0.0,0.0
287,1778446268660,288.0,-0.005611621,0.017935779,0.37686545,0.0,0.0,0.0
288,1778446268670,289.0,-0.005611621,0.017935779,0.37686545,0.0,0.0,0.0
289,1778446268680,290.0,-0.005611621,0.017935779,0.37686545,0.0,0.0,0.0
290,1778446268690,291.0,-0.005611621,0.017935779,0.37686545,0.0,0.0,0.0
291,1778446268700,292.0,-0.005611621,0.017935779,0.37686545,0.0,0.0,0.0
292,1778446268710,293.0,-0.005611621,0.017935779,0.37686545,0.0,0.0,0.0
293,1778446268720,294.0,-0.005611621,0.017935779,0.37686545,0.0,0.0,0.0
294,1778446268730,295.0,-0.005611621,0.017935779,0.37686545,0.0,0.0,0.0
295,1778446268740,296.0,-0.005611621,0.017935779,0.37686545,0.0,0.0,0.0
296,1778446268750,297.0,-0.005611621,0.017935779,0.37686545,0.0,0.0,0.0
297,1778446268760,298.0,-0.005611621,0.017935779,0.37686545,0.0,0.0,0.0
298,1778446268770,299.0,-0.005611621,0.017935779,0.37686545,0.0,0.0,0.0
299,1778446268780,300.0,-0.005611621,0.017935779,0.37686545,0.0,0.0,0.0
300,1778446268790,301.0,-0.005611621,0.017935779,0.37686545,0.0,0.0,0.0
301,1778446268800,302.0,-0.005611621,0.017935779,0.37686545,0.0,0.0,0.0
302,1778446268810,303.0,-0.005611621,0.017935779,0.37686545,0.0,0.0,0.0
303,1778446268820,304.0,-0.005611621,0.017935779,0.37686545,0.0,0.0,0.0
304,1778446268830,305.0,-0.005611621,0.017935779,0.37686545,0.0,0.0,0.0
305,1778446268840,306.0,-0.005611621,0.017935779,0.37686545,0.0,0.0,0.0
306,1778446268850,307.0,-0.005611621,0.017935779,0.37686545,0.0,0.0,0.0
307,1778446268860,308.0,-0.005611621,0.017935779,0.37686545,0.0,0.0,0.0
308,1778446268870,309.0,-0.005611621,0.017935779,0.37686545,0.0,0.0,0.0
309,1778446268880,310.0,-0.005611621,0.017935779,0.37686545,0.0,0.0,0.0
310,1778446268890,311.0,-0.005611621,0.017935779,0.37686545,0.0,0.0,0.0
311,1778446268900,312.0,-0.005611621,0.017935779,0.37686545,0.0,0.0,0.0
312,1778446268910,313.0,-0.005611621,0.017935779,0.37686545,0.0,0.0,0.0
313,1778446268920,314.0,-0.005611621,0.017935779,0.37686545,0.0,0.0,0.0
314,1778446268930,315.0,-0.005611621,0.017935779,0.37686545,0.0,0.0,0.0
315,1778446268940,316.0,-0.005611621,0.017935779,0.37686545,0.0,0.0,0.0
316,1778446268950,317.0,-0.005611621,0.017935779,0.37686545,0.0,0.0,0.0
317,1778446268960,318.0,-0.005611621,0.017935779,0.37686545,0.0,0.0,0.0
318,1778446268970,319.0,-0.005611621,0.017935779,0.37686545,0.0,0.0,0.0
319,1778446268980,320.0,-0.005611621,0.017935779,0.37686545,0.0,0.0,0.0
320,1778446268990,321.0,-0.005611621,0.017935779,0.37686545,0.0,0.0,0.0
321,1778446269000,322.0,-0.005611621,0.017935779,0.37686545,0.0,0.0,0.0
322,1778446269010,323.0,-0.005611621,0.017935779,0.37686545,0.0,0.0,0.0
323,1778446269020,324.0,-0.005611621,0.017935779,0.37686545,0.0,0.0,0.0
324,1778446269030,325.0,-0.005611621,0.017935779,0.37686545,0.0,0.0,0.0
325,1778446269040,326.0,-0.005611621,0.017935779,0.37686545,0.0,0.0,0.0
326,1778446269050,327.0,-0.005611621,0.017935779,0.37686545,0.0,0.0,0.0
327,1778446269060,328.0,-0.005611621,0.017935779,0.37686545,0.0,0.0,0.0
328,1778446269070,329.0,-0.005611621,0.017935779,0.37686545,0.0,0.0,0.0
329,1778446269080,330.0,-0.005611621,0.017935779,0.37686545,0.0,0.0,0.0
330,1778446269090,331.0,-0.005611621,0.017935779,0.37686545,0.0,0.0,0.0
331,1778446269100,332.0,-0.005611621,0.017935779,0.37686545,0.0,0.0,0.0
332,1778446269110,333.0,-0.005611621,0.017935779,0.37686545,0.0,0.0,0.0
333,1778446269120,334.0,-0.005611621,0.017935779,0.37686545,0.0,0.0,0.0
334,1778446269130,335.0,-0.005611621,0.017935779,0.37686545,0.0,0.0,0.0
335,1778446269140,336.0,-0.005611621,0.017935779,0.37686545,0.0,0.0,0.0
336,1778446269150,337.0,-0.005611621,0.017935779,0.37686545,0.0,0.0,0.0
337,1778446269160,338.0,-0.005611621,0.017935779,0.37686545,0.0,0.0,0.0
338,1778446269170,339.0,-0.005611621,0.017935779,0.37686545,0.0,0.0,0.0
339,1778446269180,340.0,-0.005611621,0.017935779,0.37686545,0.0,0.0,0.0
340,1778446269190,341.0,-0.005611621,0.017935779,0.37686545,0.0,0.0,0.0
341,1778446269200,342.0,-0.005611621,0.017935779,0.37686545,0.0,0.0,0.0
342,1778446269210,343.0,-0.005611621,0.017935779,0.37686545,0.0,0.0,0.0
343,1778446269220,344.0,-0.005611621,0.017935779,0.37686545,0.0,0.0,0.0
344,1778446269230,345.0,-0.005611621,0.017935779,0.37686545,0.0,0.0,0.0
345,1778446269240,346.0,-0.005611621,0.017935779,0.37686545,0.0,0.0,0.0
346,1778446269250,347.0,-0.005611621,0.017935779,0.37686545,0.0,0.0,0.0
347,1778446269260,348.0,-0.005611621,0.017935779,0.37686545,0.0,0.0,0.0
348,1778446269270,349.0,-0.005611621,0.017935779,0.37686545,0.0,0.0,0.0
349,1778446269280,350.0,-0.005611621,0.017935779,0.37686545,0.0,0.0,0.0
350,1778446269290,351.0,-0.005611621,0.017935779,0.37686545,0.0,0.0,0.0
351,1778446269300,352.0,-0.005611621,0.017935779,0.37686545,0.0,0.0,0.0
352,1778446269310,353.0,-0.005611621,0.017935779,0.37686545,0.0,0.0,0.0
353,1778446269320,354.0,-0.005611621,0.017935779,0.37686545,0.0,0.0,0.0
354,1778446269330,355.0,-0.005611621,0.017935779,0.37686545,0.0,0.0,0.0
355,1778446269340,356.0,-0.005611621,0.017935779,0.37686545,0.0,0.0,0.0
356,1778446269350,357.0,-0.005611621,0.017935779,0.37686545,0.0,0.0,0.0
357,1778446269360,358.0,-0.005611621,0.017935779,0.37686545,0.0,0.0,0.0
358,1778446269370,359.0,-0.005611621,0.017935779,0.37686545,0.0,0.0,0.0
359,1778446269380,360.0,-0.005611621,0.017935779,0.37686545,0.0,0.0,0.0
360,1778446269390,361.0,-0.005611621,0.017935779,0.37686545,0.0,0.0,0.0
361,1778446269400,362.0,-0.005611621,0.017935779,0.37686545,0.0,0.0,0.0
362,1778446269410,363.0,-0.005611621,0.017935779,0.37686545,0.0,0.0,0.0
363,1778446269420,364.0,-0.005611621,0.017935779,0.37686545,0.0,0.0,0.0
364,1778446269430,365.0,-0.005611621,0.017935779,0.37686545,0.0,0.0,0.0
365,1778446269440,366.0,-0.005611621,0.017935779,0.37686545,0.0,0.0,0.0
366,1778446269450,367.0,-0.005611621,0.017935779,0.37686545,0.0,0.0,0.0
367,1778446269460,368.0,-0.005611621,0.017935779,0.37686545,0.0,0.0,0.0
368,1778446269470,369.0,-0.005611621,0.017935779,0.37686545,0.0,0.0,0.0
369,1778446269480,370.0,-0.005611621,0.017935779,0.37686545,0.0,0.0,0.0
370,1778446269490,371.0,-0.005611621,0.017935779,0.37686545,0.0,0.0,0.0
371,1778446269500,372.0,-0.005611621,0.017935779,0.37686545,0.0,0.0,0.0
372,1778446269510,373.0,-0.005611621,0.017935779,0.37686545,0.0,0.0,0.0
373,1778446269520,374.0,-0.005611621,0.017935779,0.37686545,0.0,0.0,0.0
374,1778446269530,375.0,-0.005611621,0.017935779,0.37686545,0.0,0.0,0.0
375,1778446269540,376.0,-0.005611621,0.017935779,0.37686545,0.0,0.0,0.0
376,1778446269550,377.0,-0.005611621,0.017935779,0.37686545,0.0,0.0,0.0
377,1778446269560,378.0,-0.005611621,0.017935779,0.37686545,0.0,0.0,0.0
378,1778446269570,379.0,-0.005611621,0.017935779,0.37686545,0.0,0.0,0.0
379,1778446269580,380.0,-0.005611621,0.017935779,0.37686545,0.0,0.0,0.0
380,1778446269590,381.0,-0.005611621,0.017935779,0.37686545,0.0,0.0,0.0
381,1778446269600,382.0,-0.005611621,0.017935779,0.37686545,0.0,0.0,0.0
382,1778446269610,383.0,-0.005611621,0.017935779,0.37686545,0.0,0.0,0.0
383,1778446269620,384.0,-0.005611621,0.017935779,0.37686545,0.0,0.0,0.0
384,1778446269630,385.0,-0.005611621,0.017935779,0.37686545,0.0,0.0,0.0
385,1778446269640,386.0,-0.005611621,0.017935779,0.37686545,0.0,0.0,0.0
386,1778446269650,387.0,-0.005611621,0.017935779,0.37686545,0.0,0.0,0.0
387,1778446269660,388.0,-0.005611621,0.017935779,0.37686545,0.0,0.0,0.0
388,1778446269670,389.0,-0.005611621,0.017935779,0.37686545,0.0,0.0,0.0
389,1778446269680,390.0,-0.005611621,0.017935779,0.37686545,0.0,0.0,0.0
390,1778446269690,391.0,-0.005611621,0.017935779,0.37686545,0.0,0.0,0.0
391,1778446269700,392.0,-0.005611621,0.017935779,0.37686545,0.0,0.0,0.0
392,1778446269710,393.0,-0.005611621,0.017935779,0.37686545,0.0,0.0,0.0
393,1778446269720,394.0,-0.005611621,0.017935779,0.37686545,0.0,0.0,0.0
394,1778446269730,395.0,-0.005611621,0.017935779,0.37686545,0.0,0.0,0.0
395,1778446269740,396.0,-0.005611621,0.017935779,0.37686545,0.0,0.0,0.0
396,1778446269750,397.0,-0.005611621,0.017935779,0.37686545,0.0,0.0,0.0
397,1778446269760,398.0,-0.005611621,0.017935779,0.37686545,0.0,0.0,0.0
398,1778446269770,399.0,-0.005611621,0.017935779,0.37686545,0.0,0.0,0.0
399,1778446269780,400.0,-0.005611621,0.017935779,0.37686545,0.0,0.0,0.0
400,1778446269790,401.0,-0.005611621,0.017935779,0.37686545,0.0,0.0,0.0
401,1778446269800,402.0,-0.005611621,0.017935779,0.37686545,0.0,0.0,0.0
402,1778446269810,403.0,-0.005611621,0.017935779,0.37686545,0.0,0.0,0.0
403,1778446269820,404.0,-0.005611621,0.017935779,0.37686545,0.0,0.0,0.0
404,1778446269830,405.0,-0.005611621,0.017935779,0.37686545,0.0,0.0,0.0
405,1778446269840,406.0,-0.005611621,0.017935779,0.37686545,0.0,0.0,0.0
406,1778446269850,407.0,-0.005611621,0.017935779,0.37686545,0.0,0.0,0.0
407,1778446269860,408.0,-0.005611621,0.017935779,0.37686545,0.0,0.0,0.0
408,1778446269870,409.0,-0.005611621,0.017935779,0.37686545,0.0,0.0,0.0
409,1778446269880,410.0,-0.005611621,0.017935779,0.37686545,0.0,0.0,0.0
410,1778446269890,411.0,-0.005611621,0.017935779,0.37686545,0.0,0.0,0.0
411,1778446269900,412.0,-0.005611621,0.017935779,0.37686545,0.0,0.0,0.0
412,1778446269910,413.0,-0.005611621,0.017935779,0.37686545,0.0,0.0,0.0
413,1778446269920,414.0,-0.005611621,0.017935779,0.37686545,0.0,0.0,0.0
414,1778446269930,415.0,-0.005611621,0.017935779,0.37686545,0.0,0.0,0.0
415,1778446269940,416.0,-0.005611621,0.017935779,0.37686545,0.0,0.0,0.0
416,1778446269950,417.0,-0.005611621,0.017935779,0.37686545,0.0,0.0,0.0
417,1778446269960,418.0,-0.005611621,0.017935779,0.37686545,0.0,0.0,0.0
418,1778446269970,419.0,-0.005611621,0.017935779,0.37686545,0.0,0.0,0.0
419,1778446269980,420.0,-0.005611621,0.017935779,0.37686545,0.0,0.0,0.0
420,1778446269990,421.0,-0.005611621,0.017935779,0.37686545,0.0,0.0,0.0
421,1778446270000,422.0,-0.005611621,0.017935779,0.37686545,0.0,0.0,0.0
422,1778446270010,423.0,-0.005611621,0.017935779,0.37686545,0.0,0.0,0.0
423,1778446270020,424.0,-0.005611621,0.017935779,0.37686545,0.0,0.0,0.0
424,1778446270030,425.0,-0.005611621,0.017935779,0.37686545,0.0,0.0,0.0
425,1778446270040,426.0,-0.005611621,0.017935779,0.37686545,0.0,0.0,0.0
426,1778446270050,427.0,-0.005611621,0.017935779,0.37686545,0.0,0.0,0.0
427,1778446270060,428.0,-0.005611621,0.017935779,0.37686545,0.0,0.0,0.0
428,1778446270070,429.0,-0.005611621,0.017935779,0.37686545,0.0,0.0,0.0
429,1778446270080,430.0,-0.005611621,0.017935779,0.37686545,0.0,0.0,0.0
430,1778446270090,431.0,-0.005611621,0.017935779,0.37686545,0.0,0.0,0.0
431,1778446270100,432.0,-0.005611621,0.017935779,0.37686545,0.0,0.0,0.0
432,1778446270110,433.0,-0.005611621,0.017935779,0.37686545,0.0,0.0,0.0
433,1778446270120,434.0,-0.005611621,0.017935779,0.37686545,0.0,0.0,0.0
434,1778446270130,435.0,-0.005611621,0.017935779,0.37686545,0.0,0.0,0.0
435,1778446270140,436.0,-0.005611621,0.017935779,0.37686545,0.0,0.0,0.0
436,1778446270150,437.0,-0.005611621,0.017935779,0.37686545,0.0,0.0,0.0
437,1778446270160,438.0,-0.005611621,0.017935779,0.37686545,0.0,0.0,0.0
438,1778446270170,439.0,-0.005611621,0.017935779,0.37686545,0.0,0.0,0.0
439,1778446270180,440.0,-0.005611621,0.017935779,0.37686545,0.0,0.0,0.0
440,1778446270190,441.0,-0.005611621,0.017935779,0.37686545,0.0,0.0,0.0
441,1778446270200,442.0,-0.005611621,0.017935779,0.37686545,0.0,0.0,0.0
442,1778446270210,443.0,-0.005611621,0.017935779,0.37686545,0.0,0.0,0.0
443,1778446270220,444.0,-0.005611621,0.017935779,0.37686545,0.0,0.0,0.0
444,1778446270230,445.0,-0.005611621,0.017935779,0.37686545,0.0,0.0,0.0
445,1778446270240,446.0,-0.005611621,0.017935779,0.37686545,0.0,0.0,0.0
446,1778446270250,447.0,-0.005611621,0.017935779,0.37686545,0.0,0.0,0.0
447,1778446270260,448.0,-0.005611621,0.017935779,0.37686545,0.0,0.0,0.0
448,1778446270270,449.0,-0.005611621,0.017935779,0.37686545,0.0,0.0,0.0
449,1778446270280,450.0,-0.005611621,0.017935779,0.37686545,0.0,0.0,0.0
450,1778446270290,451.0,-0.005611621,0.017935779,0.37686545,0.0,0.0,0.0
451,1778446270300,452.0,-0.005611621,0.017935779,0.37686545,0.0,0.0,0.0
452,1778446270310,453.0,-0.005611621,0.017935779,0.37686545,0.0,0.0,0.0
453,1778446270320,454.0,-0.005611621,0.017935779,0.37686545,0.0,0.0,0.0
454,1778446270330,455.0,-0.005611621,0.017935779,0.37686545,0.0,0.0,0.0
455,1778446270340,456.0,-0.005611621,0.017935779,0.37686545,0.0,0.0,0.0
456,1778446270350,457.0,-0.005611621,0.017935779,0.37686545,0.0,0.0,0.0
457,1778446270360,458.0,-0.005611621,0.017935779,0.37686545,0.0,0.0,0.0
458,1778446270370,459.0,-0.005611621,0.017935779,0.37686545,0.0,0.0,0.0
459,1778446270380,460.0,-0.005611621,0.017935779,0.37686545,0.0,0.0,0.0
460,1778446270390,461.0,-0.005611621,0.017935779,0.37686545,0.0,0.0,0.0
461,1778446270400,462.0,-0.005611621,0.017935779,0.37686545,0.0,0.0,0.0
462,1778446270410,463.0,-0.005611621,0.017935779,0.37686545,0.0,0.0,0.0
463,1778446270420,464.0,-0.005611621,0.017935779,0.37686545,0.0,0.0,0.0
464,1778446270430,465.0,-0.005611621,0.017935779,0.37686545,0.0,0.0,0.0
465,1778446270440,466.0,-0.005611621,0.017935779,0.37686545,0.0,0.0,0.0
466,1778446270450,467.0,-0.005611621,0.017935779,0.37686545,0.0,0.0,0.0
467,1778446270460,468.0,-0.005611621,0.017935779,0.37686545,0.0,0.0,0.0
468,1778446270470,469.0,-0.005611621,0.017935779,0.37686545,0.0,0.0,0.0
469,1778446270480,470.0,-0.005611621,0.017935779,0.37686545,0.0,0.0,0.0
470,1778446270490,471.0,-0.005611621,0.017935779,0.37686545,0.0,0.0,0.0
471,1778446270500,472.0,-0.005611621,0.017935779,0.37686545,0.0,0.0,0.0
472,1778446270510,473.0,-0.005611621,0.017935779,0.37686545,0.0,0.0,0.0
473,1778446270520,474.0,-0.005611621,0.017935779,0.37686545,0.0,0.0,0.0
474,1778446270530,475.0,-0.005611621,0.017935779,0.37686545,0.0,0.0,0.0
475,1778446270540,476.0,-0.005611621,0.017935779,0.37686545,0.0,0.0,0.0
476,1778446270550,477.0,-0.005611621,0.017935779,0.37686545,0.0,0.0,0.0
477,1778446270560,478.0,-0.005611621,0.017935779,0.37686545,0.0,0.0,0.0
478,1778446270570,479.0,-0.005611621,0.017935779,0.37686545,0.0,0.0,0.0
479,1778446270580,480.0,-0.005611621,0.017935779,0.37686545,0.0,0.0,0.0
480,1778446270590,481.0,-0.005611621,0.017935779,0.37686545,0.0,0.0,0.0
481,1778446270600,482.0,-0.005611621,0.017935779,0.37686545,0.0,0.0,0.0
482,1778446270610,483.0,-0.005611621,0.017935779,0.37686545,0.0,0.0,0.0
483,1778446270620,484.0,-0.005611621,0.017935779,0.37686545,0.0,0.0,0.0
484,1778446270630,485.0,-0.005611621,0.017935779,0.37686545,0.0,0.0,0.0
485,1778446270640,486.0,-0.005611621,0.017935779,0.37686545,0.0,0.0,0.0
486,1778446270650,487.0,-0.005611621,0.017935779,0.37686545,0.0,0.0,0.0
487,1778446270660,488.0,-0.005611621,0.017935779,0.37686545,0.0,0.0,0.0
488,1778446270670,489.0,-0.005611621,0.017935779,0.37686545,0.0,0.0,0.0
489,1778446270680,490.0,-0.005611621,0.017935779,0.37686545,0.0,0.0,0.0
490,1778446270690,491.0,-0.005611621,0.017935779,0.37686545,0.0,0.0,0.0
491,1778446270700,492.0,-0.005611621,0.017935779,0.37686545,0.0,0.0,0.0
492,1778446270710,493.0,-0.005611621,0.017935779,0.37686545,0.0,0.0,0.0
493,1778446270720,494.0,-0.005611621,0.017935779,0.37686545,0.0,0.0,0.0
494,1778446270730,495.0,-0.005611621,0.017935779,0.37686545,0.0,0.0,0.0
495,1778446270740,496.0,-0.005611621,0.017935779,0.37686545,0.0,0.0,0.0
496,1778446270750,497.0,-0.005611621,0.017935779,0.37686545,0.0,0.0,0.0
497,1778446270760,498.0,-0.005611621,0.017935779,0.37686545,0.0,0.0,0.0
498,1778446270770,499.0,-0.005611621,0.017935779,0.37686545,0.0,0.0,0.0
499,1778446270780,500.0,-0.005611621,0.017935779,0.37686545,0.0,0.0,0.0
500,1778446270790,501.0,-0.005611621,0.017935779,0.37686545,0.0,0.0,0.0
501,1778446270800,502.0,-0.005611621,0.017935779,0.37686545,0.0,0.0,0.0
502,1778446270810,503.0,-0.005611621,0.017935779,0.37686545,0.0,0.0,0.0
503,1778446270820,504.0,-0.005611621,0.017935779,0.37686545,0.0,0.0,0.0
504,1778446270830,505.0,-0.005611621,0.017935779,0.37686545,0.0,0.0,0.0
505,1778446270840,506.0,-0.005611621,0.017935779,0.37686545,0.0,0.0,0.0
506,1778446270850,507.0,-0.005611621,0.017935779,0.37686545,0.0,0.0,0.0
507,1778446270860,508.0,-0.005611621,0.017935779,0.37686545,0.0,0.0,0.0
508,1778446270870,509.0,-0.005611621,0.017935779,0.37686545,0.0,0.0,0.0
509,1778446270880,510.0,-0.005611621,0.017935779,0.37686545,0.0,0.0,0.0
510,1778446270890,511.0,-0.005611621,0.017935779,0.37686545,0.0,0.0,0.0
511,1778446270900,512.0,-0.005611621,0.017935779,0.37686545,0.0,0.0,0.0
512,1778446270910,513.0,-0.005611621,0.017935779,0.37686545,0.0,0.0,0.0
513,1778446270920,514.0,-0.005611621,0.017935779,0.37686545,0.0,0.0,0.0
514,1778446270930,515.0,-0.005611621,0.017935779,0.37686545,0.0,0.0,0.0
515,1778446270940,516.0,-0.005611621,0.017935779,0.37686545,0.0,0.0,0.0
516,1778446270950,517.0,-0.005611621,0.017935779,0.37686545,0.0,0.0,0.0
517,1778446270960,518.0,-0.005611621,0.017935779,0.37686545,0.0,0.0,0.0
518,1778446270970,519.0,-0.005611621,0.017935779,0.37686545,0.0,0.0,0.0
519,1778446270980,520.0,-0.005611621,0.017935779,0.37686545,0.0,0.0,0.0
520,1778446270990,521.0,-0.005611621,0.017935779,0.37686545,0.0,0.0,0.0
521,1778446271000,522.0,-0.005611621,0.017935779,0.37686545,0.0,0.0,0.0
522,1778446271010,523.0,-0.005611621,0.017935779,0.37686545,0.0,0.0,0.0
523,1778446271020,524.0,-0.005611621,0.017935779,0.37686545,0.0,0.0,0.0
524,1778446271030,525.0,-0.005611621,0.017935779,0.37686545,0.0,0.0,0.0
525,1778446271040,526.0,-0.005611621,0.017935779,0.37686545,0.0,0.0,0.0
526,1778446271050,527.0,-0.005611621,0.017935779,0.37686545,0.0,0.0,0.0
527,1778446271060,528.0,-0.005611621,0.017935779,0.37686545,0.0,0.0,0.0
528,1778446271070,529.0,-0.005611621,0.017935779,0.37686545,0.0,0.0,0.0
529,1778446271080,530.0,-0.005611621,0.017935779,0.37686545,0.0,0.0,0.0
530,1778446271090,531.0,-0.005611621,0.017935779,0.37686545,0.0,0.0,0.0
531,1778446271100,532.0,-0.005611621,0.017935779,0.37686545,0.0,0.0,0.0
532,1778446271110,533.0,-0.005611621,0.017935779,0.37686545,0.0,0.0,0.0
533,1778446271120,534.0,-0.005611621,0.017935779,0.37686545,0.0,0.0,0.0
534,1778446271130,535.0,-0.005611621,0.017935779,0.37686545,0.0,0.0,0.0
535,1778446271140,536.0,-0.005611621,0.017935779,0.37686545,0.0,0.0,0.0
536,1778446271150,537.0,-0.005611621,0.017935779,0.37686545,0.0,0.0,0.0
537,1778446271160,538.0,-0.005611621,0.017935779,0.37686545,0.0,0.0,0.0
538,1778446271170,539.0,-0.005611621,0.017935779,0.37686545,0.0,0.0,0.0
539,1778446271180,540.0,-0.005611621,0.017935779,0.37686545,0.0,0.0,0.0
540,1778446271190,541.0,-0.005611621,0.017935779,0.37686545,0.0,0.0,0.0
541,1778446271200,542.0,-0.005611621,0.017935779,0.37686545,0.0,0.0,0.0
542,1778446271210,543.0,-0.005611621,0.017935779,0.37686545,0.0,0.0,0.0
543,1778446271220,544.0,-0.005611621,0.017935779,0.37686545,0.0,0.0,0.0
544,1778446271230,545.0,-0.005611621,0.017935779,0.37686545,0.0,0.0,0.0
545,1778446271240,546.0,-0.005611621,0.017935779,0.37686545,0.0,0.0,0.0
546,1778446271250,547.0,-0.005611621,0.017935779,0.37686545,0.0,0.0,0.0
547,1778446271260,548.0,-0.005611621,0.017935779,0.37686545,0.0,0.0,0.0
548,1778446271270,549.0,-0.005611621,0.017935779,0.37686545,0.0,0.0,0.0
549,1778446271280,550.0,-0.005611621,0.017935779,0.37686545,0.0,0.0,0.0
550,1778446271290,551.0,-0.005611621,0.017935779,0.37686545,0.0,0.0,0.0
551,1778446271300,552.0,-0.005611621,0.017935779,0.37686545,0.0,0.0,0.0
552,1778446271310,553.0,-0.005611621,0.017935779,0.37686545,0.0,0.0,0.0
553,1778446271320,554.0,-0.005611621,0.017935779,0.37686545,0.0,0.0,0.0
554,1778446271330,555.0,-0.005611621,0.017935779,0.37686545,0.0,0.0,0.0
555,1778446271340,556.0,-0.005611621,0.017935779,0.37686545,0.0,0.0,0.0
556,1778446271350,557.0,-0.005611621,0.017935779,0.37686545,0.0,0.0,0.0
557,1778446271360,558.0,-0.005611621,0.017935779,0.37686545,0.0,0.0,0.0
558,1778446271370,559.0,-0.005611621,0.017935779,0.37686545,0.0,0.0,0.0
559,1778446271380,560.0,-0.005611621,0.017935779,0.37686545,0.0,0.0,0.0
560,1778446271390,561.0,-0.005611621,0.017935779,0.37686545,0.0,0.0,0.0
561,1778446271400,562.0,-0.005611621,0.017935779,0.37686545,0.0,0.0,0.0
562,1778446271410,563.0,-0.005611621,0.017935779,0.37686545,0.0,0.0,0.0
563,1778446271420,564.0,-0.005611621,0.017935779,0.37686545,0.0,0.0,0.0
564,1778446271430,565.0,-0.005611621,0.017935779,0.37686545,0.0,0.0,0.0
565,1778446271440,566.0,-0.005611621,0.017935779,0.37686545,0.0,0.0,0.0
566,1778446271450,567.0,-0.005611621,0.017935779,0.37686545,0.0,0.0,0.0
567,1778446271460,568.0,-0.005611621,0.017935779,0.37686545,0.0,0.0,0.0
568,1778446271470,569.0,-0.005611621,0.017935779,0.37686545,0.0,0.0,0.0
569,1778446271480,570.0,-0.005611621,0.017935779,0.37686545,0.0,0.0,0.0
570,1778446271490,571.0,-0.005611621,0.017935779,0.37686545,0.0,0.0,0.0
571,1778446271500,572.0,-0.005611621,0.017935779,0.37686545,0.0,0.0,0.0
572,1778446271510,573.0,-0.005611621,0.017935779,0.37686545,0.0,0.0,0.0
573,1778446271520,574.0,-0.005611621,0.017935779,0.37686545,0.0,0.0,0.0
574,1778446271530,575.0,-0.005611621,0.017935779,0.37686545,0.0,0.0,0.0
575,1778446271540,576.0,-0.005611621,0.017935779,0.37686545,0.0,0.0,0.0
576,1778446271550,577.0,-0.005611621,0.017935779,0.37686545,0.0,0.0,0.0
577,1778446271560,578.0,-0.005611621,0.017935779,0.37686545,0.0,0.0,0.0
578,1778446271570,579.0,-0.005611621,0.017935779,0.37686545,0.0,0.0,0.0
579,1778446271580,580.0,-0.005611621,0.017935779,0.37686545,0.0,0.0,0.0
580,1778446271590,581.0,-0.005611621,0.017935779,0.37686545,0.0,0.0,0.0
581,1778446271600,582.0,-0.005611621,0.017935779,0.37686545,0.0,0.0,0.0
582,1778446271610,583.0,-0.005611621,0.017935779,0.37686545,0.0,0.0,0.0
583,1778446271620,584.0,-0.005611621,0.017935779,0.37686545,0.0,0.0,0.0
584,1778446271630,585.0,-0.005611621,0.017935779,0.37686545,0.0,0.0,0.0
585,1778446271640,586.0,-0.005611621,0.017935779,0.37686545,0.0,0.0,0.0
586,1778446271650,587.0,-0.005611621,0.017935779,0.37686545,0.0,0.0,0.0
587,1778446271660,588.0,-0.005611621,0.017935779,0.37686545,0.0,0.0,0.0
588,1778446271670,589.0,-0.005611621,0.017935779,0.37686545,0.0,0.0,0.0
589,1778446271680,590.0,-0.005611621,0.017935779,0.37686545,0.0,0.0,0.0
590,1778446271690,591.0,-0.005611621,0.017935779,0.37686545,0.0,0.0,0.0
591,1778446271700,592.0,-0.005611621,0.017935779,0.37686545,0.0,0.0,0.0
592,1778446271710,593.0,-0.005611621,0.017935779,0.37686545,0.0,0.0,0.0
593,1778446271720,594.0,-0.005611621,0.017935779,0.37686545,0.0,0.0,0.0
594,1778446271730,595.0,-0.005611621,0.017935779,0.37686545,0.0,0.0,0.0
595,1778446271740,596.0,-0.005611621,0.017935779,0.37686545,0.0,0.0,0.0
596,1778446271750,597.0,-0.005611621,0.017935779,0.37686545,0.0,0.0,0.0
597,1778446271760,598.0,-0.005611621,0.017935779,0.37686545,0.0,0.0,0.0
598,1778446271770,599.0,-0.005611621,0.017935779,0.37686545,0.0,0.0,0.0
599,1778446271780,600.0,-0.005611621,0.017935779,0.37686545,0.0,0.0,0.0
600,1778446271790,601.0,-0.005611621,0.017935779,0.37686545,0.0,0.0,0.0
601,1778446271800,602.0,-0.005611621,0.017935779,0.37686545,0.0,0.0,0.0
602,1778446271810,603.0,-0.005611621,0.017935779,0.37686545,0.0,0.0,0.0
603,1778446271820,604.0,-0.005611621,0.017935779,0.37686545,0.0,0.0,0.0
604,1778446271830,605.0,-0.005611621,0.017935779,0.37686545,0.0,0.0,0.0
605,1778446271840,606.0,-0.005611621,0.017935779,0.37686545,0.0,0.0,0.0
606,1778446271850,607.0,-0.005611621,0.017935779,0.37686545,0.0,0.0,0.0
607,1778446271860,608.0,-0.005611621,0.017935779,0.37686545,0.0,0.0,0.0
608,1778446271870,609.0,-0.005611621,0.017935779,0.37686545,0.0,0.0,0.0
609,1778446271880,610.0,-0.005611621,0.017935779,0.37686545,0.0,0.0,0.0
610,1778446271890,611.0,-0.005611621,0.017935779,0.37686545,0.0,0.0,0.0
611,1778446271900,612.0,-0.005611621,0.017935779,0.37686545,0.0,0.0,0.0
612,1778446271910,613.0,-0.005611621,0.017935779,0.37686545,0.0,0.0,0.0
613,1778446271920,614.0,-0.005611621,0.017935779,0.37686545,0.0,0.0,0.0
614,1778446271930,615.0,-0.005611621,0.017935779,0.37686545,0.0,0.0,0.0
615,1778446271940,616.0,-0.005611621,0.017935779,0.37686545,0.0,0.0,0.0
616,1778446271950,617.0,-0.005611621,0.017935779,0.37686545,0.0,0.0,0.0
617,1778446271960,618.0,-0.005611621,0.017935779,0.37686545,0.0,0.0,0.0
618,1778446271970,619.0,-0.005611621,0.017935779,0.37686545,0.0,0.0,0.0
619,1778446271980,620.0,-0.005611621,0.017935779,0.37686545,0.0,0.0,0.0
620,1778446271990,621.0,-0.005611621,0.017935779,0.37686545,0.0,0.0,0.0
621,1778446272000,622.0,-0.005611621,0.017935779,0.37686545,0.0,0.0,0.0
622,1778446272010,623.0,-0.005611621,0.017935779,0.37686545,0.0,0.0,0.0
623,1778446272020,624.0,-0.005611621,0.017935779,0.37686545,0.0,0.0,0.0
624,1778446272030,625.0,-0.005611621,0.017935779,0.37686545,0.0,0.0,0.0
625,1778446272040,626.0,-0.005611621,0.017935779,0.37686545,0.0,0.0,0.0
626,1778446272050,627.0,-0.005611621,0.017935779,0.37686545,0.0,0.0,0.0
627,1778446272060,628.0,-0.005611621,0.017935779,0.37686545,0.0,0.0,0.0
628,1778446272070,629.0,-0.005611621,0.017935779,0.37686545,0.0,0.0,0.0
629,1778446272080,630.0,-0.005611621,0.017935779,0.37686545,0.0,0.0,0.0
630,1778446272090,631.0,-0.005611621,0.017935779,0.37686545,0.0,0.0,0.0
631,1778446272100,632.0,-0.005611621,0.017935779,0.37686545,0.0,0.0,0.0
632,1778446272110,633.0,-0.31462537525,0.49493121975,0.4091246,0.0,0.0,0.0
633,1778446272120,634.0,-0.41762996,0.6539297,0.4198776499999999,0.0,0.0,0.0
634,1778446272130,635.0,-0.41762996,0.6539297,0.4198776499999999,0.0,0.0,0.0
635,1778446272140,636.0,-0.41762996,0.6539297,0.4198776499999999,0.0,0.0,0.0
636,1778446272150,637.0,-0.41762996,0.6539297,0.4198776499999999,0.0,0.0,0.0
637,1778446272160,638.0,-0.41762996,0.6539297,0.4198776499999999,0.0,0.0,0.0
638,1778446272170,639.0,-0.41762996,0.6539297,0.4198776499999999,0.0,0.0,0.0
639,1778446272180,640.0,-0.41762996,0.6539297,0.4198776499999999,0.0,0.0,0.0
640,1778446272190,641.0,-0.41762996,0.6539297,0.4198776499999999,0.0,0.0,0.0
641,1778446272200,642.0,-0.41762996,0.6539297,0.4198776499999999,0.0,0.0,0.0
642,1778446272210,643.0,-0.41762996,0.6539297,0.41987765,0.0,0.0,0.0
643,1778446272220,644.0,-0.41762996,0.6539297,0.4198776499999999,0.0,0.0,0.0
644,1778446272230,645.0,-0.41762996,0.6539297,0.41987765,0.0,0.0,0.0
645,1778446272240,646.0,-0.41762996,0.6539297,0.4198776499999999,0.0,0.0,0.0
646,1778446272250,647.0,-0.41762996,0.6539297,0.4198776499999999,0.0,0.0,0.0
647,1778446272260,648.0,-0.41762996,0.6539297,0.4198776499999999,0.0,0.0,0.0
648,1778446272270,649.0,-0.41762996,0.6539297,0.4198776499999999,0.0,0.0,0.0
649,1778446272280,650.0,-0.41762996,0.6539297,0.4198776499999999,0.0,0.0,0.0
650,1778446272290,651.0,-0.41762996,0.6539297,0.4198776499999999,0.0,0.0,0.0
651,1778446272300,652.0,-0.41762996,0.6539297,0.4198776499999999,0.0,0.0,0.0
652,1778446272310,653.0,-0.41762996,0.6539297,0.41987765,0.0,0.0,0.0
653,1778446272320,654.0,-0.41762996,0.6539297,0.4198776499999999,0.0,0.0,0.0
654,1778446272330,655.0,-0.41762996,0.6539297,0.4198776499999999,0.0,0.0,0.0
655,1778446272340,656.0,-0.41762996,0.6539297,0.4198776499999999,0.0,0.0,0.0
656,1778446272350,657.0,-0.41762996,0.6539297,0.4198776499999999,0.0,0.0,0.0
657,1778446272360,658.0,-0.41762996,0.6539297,0.4198776499999999,0.0,0.0,0.0
658,1778446272370,659.0,-0.41762996,0.6539297,0.41987765,0.0,0.0,0.0
659,1778446272380,660.0,-0.41762996,0.6539297,0.41987765,0.0,0.0,0.0
660,1778446272390,661.0,-0.41762996,0.6539297,0.41987765,0.0,0.0,0.0
661,1778446272400,662.0,-0.41762996,0.6539297,0.4198776499999999,0.0,0.0,0.0
662,1778446272410,663.0,-0.41762996,0.6539297,0.4198776499999999,0.0,0.0,0.0
663,1778446272420,664.0,-0.41762996,0.6539297,0.4198776499999999,0.0,0.0,0.0
664,1778446272430,665.0,-0.41762996,0.6539297,0.4198776499999999,0.0,0.0,0.0
665,1778446272440,666.0,-0.41762996,0.6539297,0.4198776499999999,0.0,0.0,0.0
666,1778446272450,667.0,-0.41762996,0.6539297,0.4198776499999999,0.0,0.0,0.0
667,1778446272460,668.0,-0.41762996,0.6539297,0.4198776499999999,0.0,0.0,0.0
668,1778446272470,669.0,-0.41762996,0.6539297,0.4198776499999999,0.0,0.0,0.0
669,1778446272480,670.0,-0.41762996,0.6539297,0.4198776499999999,0.0,0.0,0.0
670,1778446272490,671.0,-0.41762996,0.6539297,0.4198776499999999,0.0,0.0,0.0
671,1778446272500,672.0,-0.41762996,0.6539297,0.4198776499999999,0.0,0.0,0.0
672,1778446272510,673.0,-0.41762996,0.6539297,0.4198776499999999,0.0,0.0,0.0
673,1778446272520,674.0,-0.41762996,0.6539297,0.4198776499999999,0.0,0.0,0.0
674,1778446272530,675.0,-0.41762996,0.6539297,0.4198776499999999,0.0,0.0,0.0
675,1778446272540,676.0,-0.41762996,0.6539297,0.41987765,0.0,0.0,0.0
676,1778446272550,677.0,-0.41762996,0.6539297,0.4198776499999999,0.0,0.0,0.0
677,1778446272560,678.0,-0.41762996,0.6539297,0.4198776499999999,0.0,0.0,0.0
678,1778446272570,679.0,-0.41762996,0.6539297,0.4198776499999999,0.0,0.0,0.0
679,1778446272580,680.0,-0.41762996,0.6539297,0.4198776499999999,0.0,0.0,0.0
680,1778446272590,681.0,-0.41762996,0.6539297,0.4198776499999999,0.0,0.0,0.0
681,1778446272600,682.0,-0.41762996,0.6539297,0.4198776499999999,0.0,0.0,0.0
682,1778446272610,683.0,-0.41762996,0.6539297,0.4198776499999999,0.0,0.0,0.0
683,1778446272620,684.0,-0.41762996,0.6539297,0.41987765,0.0,0.0,0.0
684,1778446272630,685.0,-0.41762996,0.6539297,0.4198776499999999,0.0,0.0,0.0
685,1778446272640,686.0,-0.41762996,0.6539297,0.4198776499999999,0.0,0.0,0.0
686,1778446272650,687.0,-0.41762996,0.6539297,0.4198776499999999,0.0,0.0,0.0
687,1778446272660,688.0,-0.41762996,0.6539297,0.41987765,0.0,0.0,0.0
688,1778446272670,689.0,-0.41762996,0.6539297,0.4198776499999999,0.0,0.0,0.0
689,1778446272680,690.0,-0.41762996,0.6539297,0.41987765,0.0,0.0,0.0
690,1778446272690,691.0,-0.41762996,0.6539297,0.4198776499999999,0.0,0.0,0.0
691,1778446272700,692.0,-0.41762996,0.6539297,0.4198776499999999,0.0,0.0,0.0
692,1778446272710,693.0,-0.41762996,0.6539297,0.4198776499999999,0.0,0.0,0.0
693,1778446272720,694.0,-0.41762996,0.6539297,0.41987765,0.0,0.0,0.0
694,1778446272730,695.0,-0.41762996,0.6539297,0.4198776499999999,0.0,0.0,0.0
695,1778446272740,696.0,-0.41762996,0.6539297,0.4198776499999999,0.0,0.0,0.0
696,1778446272750,697.0,-0.41762996,0.6539297,0.41987765,0.0,0.0,0.0
697,1778446272760,698.0,-0.41762996,0.6539297,0.4198776499999999,0.0,0.0,0.0
698,1778446272770,699.0,-0.41762996,0.6539297,0.4198776499999999,0.0,0.0,0.0
699,1778446272780,700.0,-0.41762996,0.6539297,0.4198776499999999,0.0,0.0,0.0
700,1778446272790,701.0,-0.41762996,0.6539297,0.41987765,0.0,0.0,0.0
701,1778446272800,702.0,-0.41762996,0.6539297,0.4198776499999999,0.0,0.0,0.0
702,1778446272810,703.0,-0.41762996,0.6539297,0.4198776499999999,0.0,0.0,0.0
703,1778446272820,704.0,-0.41762996,0.6539297,0.4198776499999999,0.0,0.0,0.0
704,1778446272830,705.0,-0.41762996,0.6539297,0.41987765,0.0,0.0,0.0
705,1778446272840,706.0,-0.41762996,0.6539297,0.41987765,0.0,0.0,0.0
706,1778446272850,707.0,-0.41762996,0.6539297,0.4198776499999999,0.0,0.0,0.0
707,1778446272860,708.0,-0.41762996,0.6539297,0.4198776499999999,0.0,0.0,0.0
708,1778446272870,709.0,-0.41762996,0.6539297,0.4198776499999999,0.0,0.0,0.0
709,1778446272880,710.0,-0.41762996,0.6539297,0.41987765,0.0,0.0,0.0
710,1778446272890,711.0,-0.41762996,0.6539297,0.4198776499999999,0.0,0.0,0.0
711,1778446272900,712.0,-0.41762996,0.6539297,0.4198776499999999,0.0,0.0,0.0
712,1778446272910,713.0,-0.41762996,0.6539297,0.4198776499999999,0.0,0.0,0.0
713,1778446272920,714.0,-0.41762996,0.6539297,0.4198776499999999,0.0,0.0,0.0
714,1778446272930,715.0,-0.41762996,0.6539297,0.4198776499999999,0.0,0.0,0.0
715,1778446272940,716.0,-0.41762996,0.6539297,0.4198776499999999,0.0,0.0,0.0
716,1778446272950,717.0,-0.41762996,0.6539297,0.4198776499999999,0.0,0.0,0.0
717,1778446272960,718.0,-0.41762996,0.6539297,0.4198776499999999,0.0,0.0,0.0
718,1778446272970,719.0,-0.41762996,0.6539297,0.41987765,0.0,0.0,0.0
719,1778446272980,720.0,-0.41762996,0.6539297,0.4198776499999999,0.0,0.0,0.0
720,1778446272990,721.0,-0.41762996,0.6539297,0.4198776499999999,0.0,0.0,0.0
721,1778446273000,722.0,-0.41762996,0.6539297,0.4198776499999999,0.0,0.0,0.0
722,1778446273010,723.0,-0.41762996,0.6539297,0.4198776499999999,0.0,0.0,0.0
723,1778446273020,724.0,-0.41762996,0.6539297,0.4198776499999999,0.0,0.0,0.0
724,1778446273030,725.0,-0.41762996,0.6539297,0.4198776499999999,0.0,0.0,0.0
725,1778446273040,726.0,-0.41762996,0.6539297,0.4198776499999999,0.0,0.0,0.0
726,1778446273050,727.0,-0.41762996,0.6539297,0.4198776499999999,0.0,0.0,0.0
727,1778446273060,728.0,-0.41762996,0.6539297,0.4198776499999999,0.0,0.0,0.0
728,1778446273070,729.0,-0.41762996,0.6539297,0.4198776499999999,0.0,0.0,0.0
729,1778446273080,730.0,-0.41762996,0.6539297,0.4198776499999999,0.0,0.0,0.0
730,1778446273090,731.0,-0.41762996,0.6539297,0.4198776499999999,0.0,0.0,0.0
731,1778446273100,732.0,-0.41762996,0.6539297,0.4198776499999999,0.0,0.0,0.0
732,1778446273110,733.0,-0.41762996,0.6539297,0.4198776499999999,0.0,0.0,0.0
733,1778446273120,734.0,-0.41762996,0.6539297,0.4198776499999999,0.0,0.0,0.0
734,1778446273130,735.0,-0.41762996,0.6539297,0.41987765,0.0,0.0,0.0
735,1778446273140,736.0,-0.41762996,0.6539297,0.4198776499999999,0.0,0.0,0.0
736,1778446273150,737.0,-0.41762996,0.6539297,0.41987765,0.0,0.0,0.0
737,1778446273160,738.0,-0.41762996,0.6539297,0.4198776499999999,0.0,0.0,0.0
738,1778446273170,739.0,-0.41762996,0.6539297,0.41987765,0.0,0.0,0.0
739,1778446273180,740.0,-0.41762996,0.6539297,0.4198776499999999,0.0,0.0,0.0
740,1778446273190,741.0,-0.41762996,0.6539297,0.41987765,0.0,0.0,0.0
741,1778446273200,742.0,-0.41762996,0.6539297,0.4198776499999999,0.0,0.0,0.0
742,1778446273210,743.0,-0.41762996,0.6539297,0.4198776499999999,0.0,0.0,0.0
743,1778446273220,744.0,-0.41762996,0.6539297,0.41987765,0.0,0.0,0.0
744,1778446273230,745.0,-0.41762996,0.6539297,0.41987765,0.0,0.0,0.0
745,1778446273240,746.0,-0.41762996,0.6539297,0.41987765,0.0,0.0,0.0
746,1778446273250,747.0,-0.41762996,0.6539297,0.41987765,0.0,0.0,0.0
747,1778446273260,748.0,-0.41762996,0.6539297,0.4198776499999999,0.0,0.0,0.0
748,1778446273270,749.0,-0.41762996,0.6539297,0.4198776499999999,0.0,0.0,0.0
749,1778446273280,750.0,-0.41762996,0.6539297,0.41987765,0.0,0.0,0.0
750,1778446273290,751.0,-0.41762996,0.6539297,0.41987765,0.0,0.0,0.0
751,1778446273300,752.0,-0.41762996,0.6539297,0.41987765,0.0,0.0,0.0
752,1778446273310,753.0,-0.41762996,0.6539297,0.41987765,0.0,0.0,0.0
753,1778446273320,754.0,-0.41762996,0.6539297,0.41987765,0.0,0.0,0.0
754,1778446273330,755.0,-0.41762996,0.6539297,0.41987765,0.0,0.0,0.0
755,1778446273340,756.0,-0.41762996,0.6539297,0.41987765,0.0,0.0,0.0
756,1778446273350,757.0,-0.41762996,0.6539297,0.41987765,0.0,0.0,0.0
757,1778446273360,758.0,-0.41762996,0.6539297,0.4198776499999999,0.0,0.0,0.0
758,1778446273370,759.0,-0.41762996,0.6539297,0.4198776499999999,0.0,0.0,0.0
759,1778446273380,760.0,-0.41762996,0.6539297,0.41987765,0.0,0.0,0.0
760,1778446273390,761.0,-0.41762996,0.6539297,0.41987765,0.0,0.0,0.0
761,1778446273400,762.0,-0.41762996,0.6539297,0.41987765,0.0,0.0,0.0
762,1778446273410,763.0,-0.41762996,0.6539297,0.4198776499999999,0.0,0.0,0.0
763,1778446273420,764.0,-0.41762996,0.6539297,0.41987765,0.0,0.0,0.0
764,1778446273430,765.0,-0.41762996,0.6539297,0.41987765,0.0,0.0,0.0
765,1778446273440,766.0,-0.41762996,0.6539297,0.41987765,0.0,0.0,0.0
766,1778446273450,767.0,-0.41762996,0.6539297,0.41987765,0.0,0.0,0.0
767,1778446273460,768.0,-0.41762996,0.6539297,0.4198776499999999,0.0,0.0,0.0
768,1778446273470,769.0,-0.41762996,0.6539297,0.4198776499999999,0.0,0.0,0.0
769,1778446273480,770.0,-0.41762996,0.6539297,0.41987765,0.0,0.0,0.0
770,1778446273490,771.0,-0.41762996,0.6539297,0.4198776499999999,0.0,0.0,0.0
771,1778446273500,772.0,-0.41762996,0.6539297,0.4198776499999999,0.0,0.0,0.0
772,1778446273510,773.0,-0.41762996,0.6539297,0.41987765,0.0,0.0,0.0
773,1778446273520,774.0,-0.41762996,0.6539297,0.4198776499999999,0.0,0.0,0.0
774,1778446273530,775.0,-0.41762996,0.6539297,0.41987765,0.0,0.0,0.0
775,1778446273540,776.0,-0.41762996,0.6539297,0.41987765,0.0,0.0,0.0
776,1778446273550,777.0,-0.41762996,0.6539297,0.4198776499999999,0.0,0.0,0.0
777,1778446273560,778.0,-0.41762996,0.6539297,0.4198776499999999,0.0,0.0,0.0
778,1778446273570,779.0,-0.41762996,0.6539297,0.4198776499999999,0.0,0.0,0.0
779,1778446273580,780.0,-0.41762996,0.6539297,0.41987765,0.0,0.0,0.0
780,1778446273590,781.0,-0.41762996,0.6539297,0.4198776499999999,0.0,0.0,0.0
781,1778446273600,782.0,-0.41762996,0.6539297,0.4198776499999999,0.0,0.0,0.0
782,1778446273610,783.0,-0.41762996,0.6539297,0.41987765,0.0,0.0,0.0
783,1778446273620,784.0,-0.41762996,0.6539297,0.41987765,0.0,0.0,0.0
784,1778446273630,785.0,-0.41762996,0.6539297,0.4198776499999999,0.0,0.0,0.0
785,1778446273640,786.0,-0.41762996,0.6539297,0.41987765,0.0,0.0,0.0
786,1778446273650,787.0,-0.41762996,0.6539297,0.41987765,0.0,0.0,0.0
787,1778446273660,788.0,-0.41762996,0.6539297,0.4198776499999999,0.0,0.0,0.0
788,1778446273670,789.0,-0.41762996,0.6539297,0.4198776499999999,0.0,0.0,0.0
789,1778446273680,790.0,-0.41762996,0.6539297,0.4198776499999999,0.0,0.0,0.0
790,1778446273690,791.0,-0.41762996,0.6539297,0.4198776499999999,0.0,0.0,0.0
791,1778446273700,792.0,-0.41762996,0.6539297,0.4198776499999999,0.0,0.0,0.0
792,1778446273710,793.0,-0.41762996,0.6539297,0.4198776499999999,0.0,0.0,0.0
793,1778446273720,794.0,-0.41762996,0.6539297,0.4198776499999999,0.0,0.0,0.0
794,1778446273730,795.0,-0.41762996,0.6539297,0.4198776499999999,0.0,0.0,0.0
795,1778446273740,796.0,-0.41762996,0.6539297,0.4198776499999999,0.0,0.0,0.0
796,1778446273750,797.0,-0.41762996,0.6539297,0.4198776499999999,0.0,0.0,0.0
797,1778446273760,798.0,-0.41762996,0.6539297,0.41987765,0.0,0.0,0.0
798,1778446273770,799.0,-0.41762996,0.6539297,0.41987765,0.0,0.0,0.0
799,1778446273780,800.0,-0.41762996,0.6539297,0.4198776499999999,0.0,0.0,0.0
800,1778446273790,801.0,-0.41762996,0.6539297,0.41987765,0.0,0.0,0.0
801,1778446273800,802.0,-0.41762996,0.6539297,0.4198776499999999,0.0,0.0,0.0
802,1778446273810,803.0,-0.41762996,0.6539297,0.4198776499999999,0.0,0.0,0.0
803,1778446273820,804.0,-0.41762996,0.6539297,0.4198776499999999,0.0,0.0,0.0
804,1778446273830,805.0,-0.41762996,0.6539297,0.4198776499999999,0.0,0.0,0.0
805,1778446273840,806.0,-0.41762996,0.6539297,0.4198776499999999,0.0,0.0,0.0
806,1778446273850,807.0,-0.41762996,0.6539297,0.4198776499999999,0.0,0.0,0.0
807,1778446273860,808.0,-0.41762996,0.6539297,0.4198776499999999,0.0,0.0,0.0
808,1778446273870,809.0,-0.41762996,0.6539297,0.4198776499999999,0.0,0.0,0.0
809,1778446273880,810.0,-0.41762996,0.6539297,0.4198776499999999,0.0,0.0,0.0
810,1778446273890,811.0,-0.41762996,0.6539297,0.4198776499999999,0.0,0.0,0.0
811,1778446273900,812.0,-0.41762996,0.6539297,0.4198776499999999,0.0,0.0,0.0
812,1778446273910,813.0,-0.41762996,0.6539297,0.4198776499999999,0.0,0.0,0.0
813,1778446273920,814.0,-0.41762996,0.6539297,0.4198776499999999,0.0,0.0,0.0
814,1778446273930,815.0,-0.41762996,0.6539297,0.4198776499999999,0.0,0.0,0.0
815,1778446273940,816.0,-0.41762996,0.6539297,0.4198776499999999,0.0,0.0,0.0
816,1778446273950,817.0,-0.41762996,0.6539297,0.4198776499999999,0.0,0.0,0.0
817,1778446273960,818.0,-0.41762996,0.6539297,0.4198776499999999,0.0,0.0,0.0
818,1778446273970,819.0,-0.41762996,0.6539297,0.4198776499999999,0.0,0.0,0.0
819,1778446273980,820.0,-0.41762996,0.6539297,0.41987765,0.0,0.0,0.0
820,1778446273990,821.0,-0.41762996,0.6539297,0.41987765,0.0,0.0,0.0
821,1778446274000,822.0,-0.41762996,0.6539297,0.4198776499999999,0.0,0.0,0.0
822,1778446274010,823.0,-0.41762996,0.6539297,0.41987765,0.0,0.0,0.0
823,1778446274020,824.0,-0.41762996,0.6539297,0.4198776499999999,0.0,0.0,0.0
824,1778446274030,825.0,-0.41762996,0.6539297,0.4198776499999999,0.0,0.0,0.0
825,1778446274040,826.0,-0.41762996,0.6539297,0.4198776499999999,0.0,0.0,0.0
826,1778446274050,827.0,-0.41762996,0.6539297,0.4198776499999999,0.0,0.0,0.0
827,1778446274060,828.0,-0.41762996,0.6539297,0.4198776499999999,0.0,0.0,0.0
828,1778446274070,829.0,-0.41762996,0.6539297,0.4198776499999999,0.0,0.0,0.0
829,1778446274080,830.0,-0.41762996,0.6539297,0.4198776499999999,0.0,0.0,0.0
830,1778446274090,831.0,-0.41762996,0.6539297,0.4198776499999999,0.0,0.0,0.0
831,1778446274100,832.0,-0.41762996,0.6539297,0.4198776499999999,0.0,0.0,0.0
832,1778446274110,833.0,-0.41762996,0.6539297,0.41987765,0.0,0.0,0.0
833,1778446274120,834.0,-0.41762996,0.6539297,0.4198776499999999,0.0,0.0,0.0
834,1778446274130,835.0,-0.41762996,0.6539297,0.4198776499999999,0.0,0.0,0.0
835,1778446274140,836.0,-0.41762996,0.6539297,0.4198776499999999,0.0,0.0,0.0
836,1778446274150,837.0,-0.41762996,0.6539297,0.4198776499999999,0.0,0.0,0.0
837,1778446274160,838.0,-0.41762996,0.6539297,0.4198776499999999,0.0,0.0,0.0
838,1778446274170,839.0,-0.41762996,0.6539297,0.4198776499999999,0.0,0.0,0.0
839,1778446274180,840.0,-0.41762996,0.6539297,0.4198776499999999,0.0,0.0,0.0
840,1778446274190,841.0,-0.41762996,0.6539297,0.4198776499999999,0.0,0.0,0.0
841,1778446274200,842.0,-0.41762996,0.6539297,0.4198776499999999,0.0,0.0,0.0
842,1778446274210,843.0,-0.41762996,0.6539297,0.4198776499999999,0.0,0.0,0.0
843,1778446274220,844.0,-0.41762996,0.6539297,0.41987765,0.0,0.0,0.0
844,1778446274230,845.0,-0.41762996,0.6539297,0.4198776499999999,0.0,0.0,0.0
845,1778446274240,846.0,-0.41762996,0.6539297,0.4198776499999999,0.0,0.0,0.0
846,1778446274250,847.0,-0.41762996,0.6539297,0.4198776499999999,0.0,0.0,0.0
847,1778446274260,848.0,-0.41762996,0.6539297,0.4198776499999999,0.0,0.0,0.0
848,1778446274270,849.0,-0.41762996,0.6539297,0.4198776499999999,0.0,0.0,0.0
849,1778446274280,850.0,-0.41762996,0.6539297,0.4198776499999999,0.0,0.0,0.0
850,1778446274290,851.0,-0.41762996,0.6539297,0.4198776499999999,0.0,0.0,0.0
851,1778446274300,852.0,-0.41762996,0.6539297,0.4198776499999999,0.0,0.0,0.0
852,1778446274310,853.0,-0.41762996,0.6539297,0.4198776499999999,0.0,0.0,0.0
853,1778446274320,854.0,-0.41762996,0.6539297,0.41987765,0.0,0.0,0.0
854,1778446274330,855.0,-0.41762996,0.6539297,0.4198776499999999,0.0,0.0,0.0
855,1778446274340,856.0,-0.41762996,0.6539297,0.4198776499999999,0.0,0.0,0.0
856,1778446274350,857.0,-0.41762996,0.6539297,0.4198776499999999,0.0,0.0,0.0
857,1778446274360,858.0,-0.41762996,0.6539297,0.4198776499999999,0.0,0.0,0.0
858,1778446274370,859.0,-0.41762996,0.6539297,0.4198776499999999,0.0,0.0,0.0
859,1778446274380,860.0,-0.41762996,0.6539297,0.4198776499999999,0.0,0.0,0.0
860,1778446274390,861.0,-0.41762996,0.6539297,0.4198776499999999,0.0,0.0,0.0
861,1778446274400,862.0,-0.41762996,0.6539297,0.4198776499999999,0.0,0.0,0.0
862,1778446274410,863.0,-0.41762996,0.6539297,0.4198776499999999,0.0,0.0,0.0
863,1778446274420,864.0,-0.41762996,0.6539297,0.41987765,0.0,0.0,0.0
864,1778446274430,865.0,-0.41762996,0.6539297,0.4198776499999999,0.0,0.0,0.0
865,1778446274440,866.0,-0.41762996,0.6539297,0.4198776499999999,0.0,0.0,0.0
866,1778446274450,867.0,-0.41762996,0.6539297,0.4198776499999999,0.0,0.0,0.0
867,1778446274460,868.0,-0.41762996,0.6539297,0.4198776499999999,0.0,0.0,0.0
868,1778446274470,869.0,-0.41762996,0.6539297,0.4198776499999999,0.0,0.0,0.0
869,1778446274480,870.0,-0.41762996,0.6539297,0.4198776499999999,0.0,0.0,0.0
870,1778446274490,871.0,-0.41762996,0.6539297,0.4198776499999999,0.0,0.0,0.0
871,1778446274500,872.0,-0.41762996,0.6539297,0.4198776499999999,0.0,0.0,0.0
872,1778446274510,873.0,-0.41762996,0.6539297,0.4198776499999999,0.0,0.0,0.0
873,1778446274520,874.0,-0.41762996,0.6539297,0.41987765,0.0,0.0,0.0
874,1778446274530,875.0,-0.41762996,0.6539297,0.4198776499999999,0.0,0.0,0.0
875,1778446274540,876.0,-0.41762996,0.6539297,0.4198776499999999,0.0,0.0,0.0
876,1778446274550,877.0,-0.41762996,0.6539297,0.4198776499999999,0.0,0.0,0.0
877,1778446274560,878.0,-0.41762996,0.6539297,0.4198776499999999,0.0,0.0,0.0
878,1778446274570,879.0,-0.41762996,0.6539297,0.4198776499999999,0.0,0.0,0.0
879,1778446274580,880.0,-0.41762996,0.6539297,0.4198776499999999,0.0,0.0,0.0
880,1778446274590,881.0,-0.41762996,0.6539297,0.4198776499999999,0.0,0.0,0.0
881,1778446274600,882.0,-0.41762996,0.6539297,0.4198776499999999,0.0,0.0,0.0
882,1778446274610,883.0,-0.41762996,0.6539297,0.41987765,0.0,0.0,0.0
883,1778446274620,884.0,-0.41762996,0.6539297,0.4198776499999999,0.0,0.0,0.0
884,1778446274630,885.0,-0.41762996,0.6539297,0.4198776499999999,0.0,0.0,0.0
885,1778446274640,886.0,-0.41762996,0.6539297,0.4198776499999999,0.0,0.0,0.0
886,1778446274650,887.0,-0.41762996,0.6539297,0.4198776499999999,0.0,0.0,0.0
887,1778446274660,888.0,-0.41762996,0.6539297,0.4198776499999999,0.0,0.0,0.0
888,1778446274670,889.0,-0.41762996,0.6539297,0.4198776499999999,0.0,0.0,0.0
889,1778446274680,890.0,-0.41762996,0.6539297,0.4198776499999999,0.0,0.0,0.0
890,1778446274690,891.0,-0.41762996,0.6539297,0.4198776499999999,0.0,0.0,0.0
891,1778446274700,892.0,-0.41762996,0.6539297,0.4198776499999999,0.0,0.0,0.0
892,1778446274710,893.0,-0.41762996,0.6539297,0.41987765,0.0,0.0,0.0
893,1778446274720,894.0,-0.41762996,0.6539297,0.4198776499999999,0.0,0.0,0.0
894,1778446274730,895.0,-0.41762996,0.6539297,0.4198776499999999,0.0,0.0,0.0
895,1778446274740,896.0,-0.41762996,0.6539297,0.4198776499999999,0.0,0.0,0.0
896,1778446274750,897.0,-0.41762996,0.6539297,0.4198776499999999,0.0,0.0,0.0
897,1778446274760,898.0,-0.41762996,0.6539297,0.4198776499999999,0.0,0.0,0.0
898,1778446274770,899.0,-0.41762996,0.6539297,0.4198776499999999,0.0,0.0,0.0
899,1778446274780,900.0,-0.41762996,0.6539297,0.4198776499999999,0.0,0.0,0.0
900,1778446274790,901.0,-0.41762996,0.6539297,0.4198776499999999,0.0,0.0,0.0
901,1778446274800,902.0,-0.41762996,0.6539297,0.4198776499999999,0.0,0.0,0.0
902,1778446274810,903.0,-0.41762996,0.6539297,0.4198776499999999,0.0,0.0,0.0
903,1778446274820,904.0,-0.41762996,0.6539297,0.4198776499999999,0.0,0.0,0.0
904,1778446274830,905.0,-0.41762996,0.6539297,0.41987765,0.0,0.0,0.0
905,1778446274840,906.0,-0.41762996,0.6539297,0.4198776499999999,0.0,0.0,0.0
906,1778446274850,907.0,-0.41762996,0.6539297,0.4198776499999999,0.0,0.0,0.0
907,1778446274860,908.0,-0.41762996,0.6539297,0.4198776499999999,0.0,0.0,0.0
908,1778446274870,909.0,-0.41762996,0.6539297,0.4198776499999999,0.0,0.0,0.0
909,1778446274880,910.0,-0.41762996,0.6539297,0.4198776499999999,0.0,0.0,0.0
910,1778446274890,911.0,-0.41762996,0.6539297,0.41987765,0.0,0.0,0.0
911,1778446274900,912.0,-0.41762996,0.6539297,0.4198776499999999,0.0,0.0,0.0
912,1778446274910,913.0,-0.41762996,0.6539297,0.4198776499999999,0.0,0.0,0.0
913,1778446274920,914.0,-0.41762996,0.6539297,0.4198776499999999,0.0,0.0,0.0
914,1778446274930,915.0,-0.41762996,0.6539297,0.4198776499999999,0.0,0.0,0.0
915,1778446274940,916.0,-0.41762996,0.6539297,0.4198776499999999,0.0,0.0,0.0
916,1778446274950,917.0,-0.41762996,0.6539297,0.4198776499999999,0.0,0.0,0.0
917,1778446274960,918.0,-0.41762996,0.6539297,0.4198776499999999,0.0,0.0,0.0
918,1778446274970,919.0,-0.41762996,0.6539297,0.4198776499999999,0.0,0.0,0.0
919,1778446274980,920.0,-0.41762996,0.6539297,0.4198776499999999,0.0,0.0,0.0
920,1778446274990,921.0,-0.41762996,0.6539297,0.4198776499999999,0.0,0.0,0.0
921,1778446275000,922.0,-0.41762996,0.6539297,0.4198776499999999,0.0,0.0,0.0
922,1778446275010,923.0,-0.41762996,0.6539297,0.41987765,0.0,0.0,0.0
923,1778446275020,924.0,-0.41762996,0.6539297,0.4198776499999999,0.0,0.0,0.0
924,1778446275030,925.0,-0.41762996,0.6539297,0.4198776499999999,0.0,0.0,0.0
925,1778446275040,926.0,-0.41762996,0.6539297,0.4198776499999999,0.0,0.0,0.0
926,1778446275050,927.0,-0.41762996,0.6539297,0.4198776499999999,0.0,0.0,0.0
927,1778446275060,928.0,-0.41762996,0.6539297,0.4198776499999999,0.0,0.0,0.0
928,1778446275070,929.0,-0.41762996,0.6539297,0.4198776499999999,0.0,0.0,0.0
929,1778446275080,930.0,-0.41762996,0.6539297,0.4198776499999999,0.0,0.0,0.0
930,1778446275090,931.0,-0.41762996,0.6539297,0.4198776499999999,0.0,0.0,0.0
931,1778446275100,932.0,-0.41762996,0.6539297,0.4198776499999999,0.0,0.0,0.0
932,1778446275110,933.0,-0.41762996,0.6539297,0.41987765,0.0,0.0,0.0
933,1778446275120,934.0,-0.41762996,0.6539297,0.4198776499999999,0.0,0.0,0.0
934,1778446275130,935.0,-0.41762996,0.6539297,0.4198776499999999,0.0,0.0,0.0
935,1778446275140,936.0,-0.41762996,0.6539297,0.4198776499999999,0.0,0.0,0.0
936,1778446275150,937.0,-0.41762996,0.6539297,0.4198776499999999,0.0,0.0,0.0
937,1778446275160,938.0,-0.41762996,0.6539297,0.4198776499999999,0.0,0.0,0.0
938,1778446275170,939.0,-0.41762996,0.6539297,0.4198776499999999,0.0,0.0,0.0
939,1778446275180,940.0,-0.41762996,0.6539297,0.4198776499999999,0.0,0.0,0.0
940,1778446275190,941.0,-0.41762996,0.6539297,0.4198776499999999,0.0,0.0,0.0
941,1778446275200,942.0,-0.41762996,0.6539297,0.4198776499999999,0.0,0.0,0.0
942,1778446275210,943.0,-0.41762996,0.6539297,0.4198776499999999,0.0,0.0,0.0
943,1778446275220,944.0,-0.41762996,0.6539297,0.4198776499999999,0.0,0.0,0.0
944,1778446275230,945.0,-0.41762996,0.6539297,0.4198776499999999,0.0,0.0,0.0
945,1778446275240,946.0,-0.41762996,0.6539297,0.4198776499999999,0.0,0.0,0.0
946,1778446275250,947.0,-0.41762996,0.6539297,0.4198776499999999,0.0,0.0,0.0
947,1778446275260,948.0,-0.41762996,0.6539297,0.4198776499999999,0.0,0.0,0.0
948,1778446275270,949.0,-0.41762996,0.6539297,0.4198776499999999,0.0,0.0,0.0
949,1778446275280,950.0,-0.41762996,0.6539297,0.4198776499999999,0.0,0.0,0.0
950,1778446275290,951.0,-0.41762996,0.6539297,0.41987765,0.0,0.0,0.0
951,1778446275300,952.0,-0.41762996,0.6539297,0.4198776499999999,0.0,0.0,0.0
952,1778446275310,953.0,-0.41762996,0.6539297,0.4198776499999999,0.0,0.0,0.0
953,1778446275320,954.0,-0.41762996,0.6539297,0.4198776499999999,0.0,0.0,0.0
954,1778446275330,955.0,-0.41762996,0.6539297,0.4198776499999999,0.0,0.0,0.0
955,1778446275340,956.0,-0.41762996,0.6539297,0.4198776499999999,0.0,0.0,0.0
956,1778446275350,957.0,-0.41762996,0.6539297,0.4198776499999999,0.0,0.0,0.0
957,1778446275360,958.0,-0.41762996,0.6539297,0.4198776499999999,0.0,0.0,0.0
958,1778446275370,959.0,-0.41762996,0.6539297,0.4198776499999999,0.0,0.0,0.0
959,1778446275380,960.0,-0.41762996,0.6539297,0.4198776499999999,0.0,0.0,0.0
960,1778446275390,961.0,-0.41762996,0.6539297,0.4198776499999999,0.0,0.0,0.0
961,1778446275400,962.0,-0.4397910533333333,0.6518195666666666,0.37087665,0.0,0.0,0.0
962,1778446275410,963.0,-0.4508716,0.6507645,0.34637615,0.0,0.0,0.0
963,1778446275420,964.0,-0.4508716,0.6507645,0.34637615,0.0,0.0,0.0
964,1778446275430,965.0,-0.4508716,0.6507645,0.34637615,0.0,0.0,0.0
965,1778446275440,966.0,-0.4508716,0.6507645,0.34637615,0.0,0.0,0.0
966,1778446275450,967.0,-0.4508716,0.6507645,0.34637615,0.0,0.0,0.0
967,1778446275460,968.0,-0.4508716,0.6507645,0.34637615,0.0,0.0,0.0
968,1778446275470,969.0,-0.4508716,0.6507645,0.34637615,0.0,0.0,0.0
969,1778446275480,970.0,-0.4508716,0.6507645,0.34637615,0.0,0.0,0.0
970,1778446275490,971.0,-0.4508716,0.6507645,0.34637615,0.0,0.0,0.0
971,1778446275500,972.0,-0.4508716,0.6507645,0.34637615,0.0,0.0,0.0
972,1778446275510,973.0,-0.4508716,0.6507645,0.34637615,0.0,0.0,0.0
973,1778446275520,974.0,-0.4508716,0.6507645,0.34637615,0.0,0.0,0.0
974,1778446275530,975.0,-0.4508716,0.6507645,0.34637615,0.0,0.0,0.0
975,1778446275540,976.0,-0.4508716,0.6507645,0.34637615,0.0,0.0,0.0
976,1778446275550,977.0,-0.4508716,0.6507645,0.34637615,0.0,0.0,0.0
977,1778446275560,978.0,-0.4508716,0.6507645,0.34637615,0.0,0.0,0.0
978,1778446275570,979.0,-0.4508716,0.6507645,0.34637615,0.0,0.0,0.0
979,1778446275580,980.0,-0.4508716,0.6507645,0.34637615,0.0,0.0,0.0
980,1778446275590,981.0,-0.4508716,0.6507645,0.34637615,0.0,0.0,0.0
981,1778446275600,982.0,-0.4508716,0.6507645,0.34637615,0.0,0.0,0.0
982,1778446275610,983.0,-0.4508716,0.6507645,0.34637615,0.0,0.0,0.0
983,1778446275620,984.0,-0.4508716,0.6507645,0.34637615,0.0,0.0,0.0
984,1778446275630,985.0,-0.4508716,0.6507645,0.34637615,0.0,0.0,0.0
985,1778446275640,986.0,-0.4508716,0.6507645,0.34637615,0.0,0.0,0.0
986,1778446275650,987.0,-0.4508716,0.6507645,0.34637615,0.0,0.0,0.0
987,1778446275660,988.0,-0.4508716,0.6507645,0.34637615,0.0,0.0,0.0
988,1778446275670,989.0,-0.4508716,0.6507645,0.34637615,0.0,0.0,0.0
989,1778446275680,990.0,-0.4508716,0.6507645,0.34637615,0.0,0.0,0.0
990,1778446275690,991.0,-0.4508716,0.6507645,0.34637615,0.0,0.0,0.0
991,1778446275700,992.0,-0.4508716,0.6507645,0.34637615,0.0,0.0,0.0
992,1778446275710,993.0,-0.4508716,0.6507645,0.34637615,0.0,0.0,0.0
993,1778446275720,994.0,-0.4508716,0.6507645,0.34637615,0.0,0.0,0.0
994,1778446275730,995.0,-0.4508716,0.6507645,0.34637615,0.0,0.0,0.0
995,1778446275740,996.0,-0.4508716,0.6507645,0.34637615,0.0,0.0,0.0
996,1778446275750,997.0,-0.4508716,0.6507645,0.34637615,0.0,0.0,0.0
997,1778446275760,998.0,-0.4508716,0.6507645,0.34637615,0.0,0.0,0.0
998,1778446275770,999.0,-0.4508716,0.6507645,0.34637615,0.0,0.0,0.0
999,1778446275780,1000.0,-0.4508716,0.6507645,0.34637615,0.0,0.0,0.0
1000,1778446275790,1001.0,-0.4508716,0.6507645,0.34637615,0.0,0.0,0.0
