id,timestamp,id,acc_x,acc_y,acc_z,gyro_x,gyro_y,gyro_z
0,1778446523620,1.0,0.18634558,0.089189604,0.9594342,0.0,0.0,0.0
1,1778446523630,2.0,0.1739755433333333,0.0863353726666666,0.9594342,0.0,0.0,0.0
2,1778446523640,3.0,0.1616055066666666,0.0834811413333333,0.9594342,0.0,0.0,0.0
3,1778446523650,4.0,0.14923547,0.08062691,0.9594342,0.0,0.0,0.0
4,1778446523660,5.0,0.10703364,0.07237003,1.1930734,0.0,0.0,0.0
5,1778446523670,6.0,0.10703364,0.07237003,1.1930734,0.0,0.0,0.0
6,1778446523680,7.0,0.10703364,0.07237003,1.1930734,0.0,0.0,0.0
7,1778446523690,8.0,0.10703364,0.07237003,1.1930734,0.0,0.0,0.0
8,1778446523700,9.0,0.10703364,0.07237003,1.1930734,0.0,0.0,0.0
9,1778446523710,10.0,0.10703364,0.07237003,1.1930734,0.0,0.0,0.0
10,1778446523720,11.0,0.10703364,0.07237003,1.1930734,0.0,0.0,0.0
11,1778446523730,12.0,0.10703364,0.07237003,1.1930734,0.0,0.0,0.0
12,1778446523740,13.0,0.10703364,0.07237003,1.1930734,0.0,0.0,0.0
13,1778446523750,14.0,0.10703364,0.07237003,1.1930734,0.0,0.0,0.0
14,1778446523760,15.0,0.10703364,0.07237003,1.1930734,0.0,0.0,0.0
15,1778446523770,16.0,0.10703364,0.07237003,1.1930734,0.0,0.0,0.0
16,1778446523780,17.0,0.10703364,0.07237003,1.1930734,0.0,0.0,0.0
17,1778446523790,18.0,0.10703364,0.07237003,1.1930734,0.0,0.0,0.0
18,1778446523800,19.0,0.10703364,0.07237003,1.1930734,0.0,0.0,0.0
19,1778446523810,20.0,0.10703364,0.07237003,1.1930734,0.0,0.0,0.0
20,1778446523820,21.0,0.10703364,0.07237003,1.1930734,0.0,0.0,0.0
21,1778446523830,22.0,0.10703364,0.07237003,1.1930734,0.0,0.0,0.0
22,1778446523840,23.0,0.113149844,0.07136086,1.2687004,0.0,0.0,0.0
23,1778446523850,24.0,0.113149844,0.07136086,1.2687004,0.0,0.0,0.0
24,1778446523860,25.0,0.113149844,0.07136086,1.2687004,0.0,0.0,0.0
25,1778446523870,26.0,0.113149844,0.07136086,1.2687004,0.0,0.0,0.0
26,1778446523880,27.0,0.113149844,0.07136086,1.2687004,0.0,0.0,0.0
27,1778446523890,28.0,0.113149844,0.07136086,1.2687004,0.0,0.0,0.0
28,1778446523900,29.0,0.113149844,0.07136086,1.2687004,0.0,0.0,0.0
29,1778446523910,30.0,0.12385321,0.06697247,1.2753364,0.0,0.0,0.0
30,1778446523920,31.0,0.12385321,0.06697247,1.2753364,0.0,0.0,0.0
31,1778446523930,32.0,0.12385321,0.06697247,1.2753364,0.0,0.0,0.0
32,1778446523940,33.0,0.12385321,0.06697247,1.2753364,0.0,0.0,0.0
33,1778446523950,34.0,0.12385321,0.06697247,1.2753364,0.0,0.0,0.0
34,1778446523960,35.0,0.12385321,0.06697247,1.2753364,0.0,0.0,0.0
35,1778446523970,36.0,0.12385321,0.06697247,1.2753364,0.0,0.0,0.0
36,1778446523980,37.0,0.12385321,0.06697247,1.2753364,0.0,0.0,0.0
37,1778446523990,38.0,0.12385321,0.06697247,1.2753364,0.0,0.0,0.0
38,1778446524000,39.0,0.12385321,0.06697247,1.2753364,0.0,0.0,0.0
39,1778446524010,40.0,0.12385321,0.06697247,1.2753364,0.0,0.0,0.0
40,1778446524020,41.0,0.12385321,0.06697247,1.2753364,0.0,0.0,0.0
41,1778446524030,42.0,0.12385321,0.06697247,1.2753364,0.0,0.0,0.0
42,1778446524040,43.0,0.12385321,0.06697247,1.2753364,0.0,0.0,0.0
43,1778446524050,44.0,0.12385321,0.06697247,1.2753364,0.0,0.0,0.0
44,1778446524060,45.0,0.16411315,0.063103974,1.2687004,0.0,0.0,0.0
45,1778446524070,46.0,0.16411315,0.063103974,1.2687004,0.0,0.0,0.0
46,1778446524080,47.0,0.16411315,0.063103974,1.2687004,0.0,0.0,0.0
47,1778446524090,48.0,0.16411315,0.063103974,1.2687004,0.0,0.0,0.0
48,1778446524100,49.0,0.16411315,0.063103974,1.2687004,0.0,0.0,0.0
49,1778446524110,50.0,0.16411315,0.063103974,1.2687004,0.0,0.0,0.0
50,1778446524120,51.0,0.1694138666666667,0.0559327206666666,1.2467534,0.0,0.0,0.0
51,1778446524130,52.0,0.1800153,0.041590214,1.2028594,0.0,0.0,0.0
52,1778446524140,53.0,0.1800153,0.041590214,1.2028594,0.0,0.0,0.0
53,1778446524150,54.0,0.1800153,0.041590214,1.2028594,0.0,0.0,0.0
54,1778446524160,55.0,0.1800153,0.041590214,1.2028594,0.0,0.0,0.0
55,1778446524170,56.0,0.17778286,0.062584095,1.1169266,0.0,0.0,0.0
56,1778446524180,57.0,0.17778286,0.062584095,1.1169266,0.0,0.0,0.0
57,1778446524190,58.0,0.17778286,0.062584095,1.1169266,0.0,0.0,0.0
58,1778446524200,59.0,0.17778286,0.062584095,1.1169266,0.0,0.0,0.0
59,1778446524210,60.0,0.17778286,0.062584095,1.1169266,0.0,0.0,0.0
60,1778446524220,61.0,0.17778286,0.062584095,1.1169266,0.0,0.0,0.0
61,1778446524230,62.0,0.177347085,0.0706383775,1.113077225,0.0,0.0,0.0
62,1778446524240,63.0,0.17603976,0.094801225,1.1015291,0.0,0.0,0.0
63,1778446524250,64.0,0.177263,0.09686544375,1.097935825,0.0,0.0,0.0
64,1778446524260,65.0,0.18093272,0.1030581,1.087156,0.0,0.0,0.0
65,1778446524270,66.0,0.18093272,0.1030581,1.087156,0.0,0.0,0.0
66,1778446524280,67.0,0.18093272,0.1030581,1.087156,0.0,0.0,0.0
67,1778446524290,68.0,0.18093272,0.1030581,1.087156,0.0,0.0,0.0
68,1778446524300,69.0,0.18093272,0.1030581,1.087156,0.0,0.0,0.0
69,1778446524310,70.0,0.18093272,0.1030581,1.087156,0.0,0.0,0.0
70,1778446524320,71.0,0.18093272,0.1030581,1.087156,0.0,0.0,0.0
71,1778446524330,72.0,0.1716972533333333,0.1234454599999999,1.0825994666666665,0.0,0.0,0.0
72,1778446524340,73.0,0.16707952,0.13363914,1.0803212,0.0,0.0,0.0
73,1778446524350,74.0,0.16707952,0.13363914,1.0803212,0.0,0.0,0.0
74,1778446524360,75.0,0.13558105,0.1420948,1.0766515,0.0,0.0,0.0
75,1778446524370,76.0,0.13558105,0.1420948,1.0766515,0.0,0.0,0.0
76,1778446524380,77.0,0.13558105,0.1420948,1.0766515,0.0,0.0,0.0
77,1778446524390,78.0,0.1235525033333333,0.1840927533333333,0.9765495,0.0,0.0,0.0
78,1778446524400,79.0,0.11753823,0.20509173,0.9264985,0.0,0.0,0.0
79,1778446524410,80.0,0.11753823,0.20509173,0.9264985,0.0,0.0,0.0
80,1778446524420,81.0,0.11753823,0.20509173,0.9264985,0.0,0.0,0.0
81,1778446524430,82.0,0.11753823,0.20509173,0.9264985,0.0,0.0,0.0
82,1778446524440,83.0,0.11753823,0.20509173,0.9264985,0.0,0.0,0.0
83,1778446524450,84.0,0.11753823,0.20509173,0.9264985,0.0,0.0,0.0
84,1778446524460,85.0,0.11753823,0.20509173,0.9264985,0.0,0.0,0.0
85,1778446524470,86.0,0.1076095806666666,0.2275178366666666,0.8669674333333334,0.0,0.0,0.0
86,1778446524480,87.0,0.102645256,0.23873089,0.8372019,0.0,0.0,0.0
87,1778446524490,88.0,0.102645256,0.23873089,0.8372019,0.0,0.0,0.0
88,1778446524500,89.0,0.102645256,0.23873089,0.8372019,0.0,0.0,0.0
89,1778446524510,90.0,0.102645256,0.23873089,0.8372019,0.0,0.0,0.0
90,1778446524520,91.0,0.102645256,0.23873089,0.8372019,0.0,0.0,0.0
91,1778446524530,92.0,0.102645256,0.23873089,0.8372019,0.0,0.0,0.0
92,1778446524540,93.0,0.102645256,0.23873089,0.8372019,0.0,0.0,0.0
93,1778446524550,94.0,0.102645256,0.23873089,0.8372019,0.0,0.0,0.0
94,1778446524560,95.0,0.102645256,0.23873089,0.8372019,0.0,0.0,0.0
95,1778446524570,96.0,0.102645256,0.23873089,0.8372019,0.0,0.0,0.0
96,1778446524580,97.0,0.102645256,0.23873089,0.8372019,0.0,0.0,0.0
97,1778446524590,98.0,0.102645256,0.23873089,0.8372019,0.0,0.0,0.0
98,1778446524600,99.0,0.102645256,0.23873089,0.8372019,0.0,0.0,0.0
99,1778446524610,100.0,0.102645256,0.23873089,0.8372019,0.0,0.0,0.0
100,1778446524620,101.0,0.102645256,0.23873089,0.8372019,0.0,0.0,0.0
101,1778446524630,102.0,0.102645256,0.23873089,0.8372019,0.0,0.0,0.0
102,1778446524640,103.0,0.102645256,0.23873089,0.8372019,0.0,0.0,0.0
103,1778446524650,104.0,0.127874618,0.27206423,0.76798935,0.0,0.0,0.0
104,1778446524660,105.0,0.15310398,0.30539757,0.6987768,0.0,0.0,0.0
105,1778446524670,106.0,0.15310398,0.30539757,0.6987768,0.0,0.0,0.0
106,1778446524680,107.0,0.15310398,0.30539757,0.6987768,0.0,0.0,0.0
107,1778446524690,108.0,0.15310398,0.30539757,0.6987768,0.0,0.0,0.0
108,1778446524700,109.0,0.15310398,0.30539757,0.6987768,0.0,0.0,0.0
109,1778446524710,110.0,0.15310398,0.30539757,0.6987768,0.0,0.0,0.0
110,1778446524720,111.0,0.1850815533333333,0.2980937966666666,0.6668042999999999,0.0,0.0,0.0
111,1778446524730,112.0,0.2490367,0.28348625,0.6028593,0.0,0.0,0.0
112,1778446524740,113.0,0.2490367,0.28348625,0.6028593,0.0,0.0,0.0
113,1778446524750,114.0,0.2490367,0.28348625,0.6028593,0.0,0.0,0.0
114,1778446524760,115.0,0.2490367,0.28348625,0.6028593,0.0,0.0,0.0
115,1778446524770,116.0,0.2490367,0.28348625,0.6028593,0.0,0.0,0.0
116,1778446524780,117.0,0.2490367,0.28348625,0.6028593,0.0,0.0,0.0
117,1778446524790,118.0,0.2490367,0.28348625,0.6028593,0.0,0.0,0.0
118,1778446524800,119.0,0.2490367,0.28348625,0.6028593,0.0,0.0,0.0
119,1778446524810,120.0,0.2490367,0.28348625,0.6028593,0.0,0.0,0.0
120,1778446524820,121.0,0.2490367,0.28348625,0.6028593,0.0,0.0,0.0
121,1778446524830,122.0,0.2490367,0.28348625,0.6028593,0.0,0.0,0.0
122,1778446524840,123.0,0.2890570866666667,0.2488277366666667,0.5843068133333333,0.0,0.0,0.0
123,1778446524850,124.0,0.30906728,0.23149848,0.57503057,0.0,0.0,0.0
124,1778446524860,125.0,0.30906728,0.23149848,0.57503057,0.0,0.0,0.0
125,1778446524870,126.0,0.5434251,0.269526,0.5428135,0.0,0.0,0.0
126,1778446524880,127.0,0.5434251,0.269526,0.5428135,0.0,0.0,0.0
127,1778446524890,128.0,0.5434251,0.269526,0.5428135,0.0,0.0,0.0
128,1778446524900,129.0,0.5434251,0.269526,0.5428135,0.0,0.0,0.0
129,1778446524910,130.0,0.50094802,0.2542354866666667,0.9231090333333332,0.0,0.0,0.0
130,1778446524920,131.0,0.47970948,0.24659023,1.1132568,0.0,0.0,0.0
131,1778446524930,132.0,0.4797094800000001,0.24659023,1.1132568,0.0,0.0,0.0
132,1778446524940,133.0,0.4797094800000001,0.24659023,1.1132568,0.0,0.0,0.0
133,1778446524950,134.0,0.47970948,0.24659023,1.1132568,0.0,0.0,0.0
134,1778446524960,135.0,0.4797094800000001,0.24659023,1.1132568,0.0,0.0,0.0
135,1778446524970,136.0,0.47970948,0.24659023,1.1132568,0.0,0.0,0.0
136,1778446524980,137.0,0.47970948,0.24659023,1.1132568,0.0,0.0,0.0
137,1778446524990,138.0,0.47970948,0.24659023,1.1132568,0.0,0.0,0.0
138,1778446525000,139.0,-1.31962546,0.221460255,1.8928135,0.0,0.0,0.0
139,1778446525010,140.0,-3.1189604,0.19633028,2.6723702,0.0,0.0,0.0
140,1778446525020,141.0,-3.1189604,0.19633028,2.6723702,0.0,0.0,0.0
141,1778446525030,142.0,-3.288578,0.19093272,2.5944955,0.0,0.0,0.0
142,1778446525040,143.0,-3.288578,0.19093272,2.5944955,0.0,0.0,0.0
143,1778446525050,144.0,-3.288578,0.19093272,2.5944955,0.0,0.0,0.0
144,1778446525060,145.0,-3.288578,0.19093272,2.5944955,0.0,0.0,0.0
145,1778446525070,146.0,-3.3701375,0.0579052,2.4863455,0.0,0.0,0.0
146,1778446525080,147.0,-3.3701375,0.0579052,2.4863455,0.0,0.0,0.0
147,1778446525090,148.0,-3.3701375,0.0579052,2.4863455,0.0,0.0,0.0
148,1778446525100,149.0,-3.3701375,0.0579052,2.4863455,0.0,0.0,0.0
149,1778446525110,150.0,-3.3701375,0.0579052,2.4863455,0.0,0.0,0.0
150,1778446525120,151.0,-3.3701375,0.0579052,2.4863455,0.0,0.0,0.0
151,1778446525130,152.0,-3.3701375,0.0579052,2.4863455,0.0,0.0,0.0
152,1778446525140,153.0,-3.3701375,0.0579052,2.4863455,0.0,0.0,0.0
153,1778446525150,154.0,-3.3701375,0.0579052,2.4863455,0.0,0.0,0.0
154,1778446525160,155.0,-3.3701375,0.0579052,2.4863455,0.0,0.0,0.0
155,1778446525170,156.0,-3.3701375,0.0579052,2.4863455,0.0,0.0,0.0
156,1778446525180,157.0,-3.3701375,0.0579052,2.4863455,0.0,0.0,0.0
157,1778446525190,158.0,-3.3701375,0.0579052,2.4863455,0.0,0.0,0.0
158,1778446525200,159.0,-3.3701375,0.0579052,2.4863455,0.0,0.0,0.0
159,1778446525210,160.0,-3.3701375,0.0579052,2.4863455,0.0,0.0,0.0
160,1778446525220,161.0,-3.3701375,0.0579052,2.4863455,0.0,0.0,0.0
161,1778446525230,162.0,-3.3701375,0.0579052,2.4863455,0.0,0.0,0.0
162,1778446525240,163.0,-3.3701375,0.0579052,2.4863455,0.0,0.0,0.0
163,1778446525250,164.0,-3.3701375,0.0579052,2.4863455,0.0,0.0,0.0
164,1778446525260,165.0,-3.2666359999999997,-0.0228287466666666,2.3964372333333332,0.0,0.0,0.0
165,1778446525270,166.0,-3.059633,-0.18429664,2.2166207,0.0,0.0,0.0
166,1778446525280,167.0,-3.059633,-0.18429664,2.2166207,0.0,0.0,0.0
167,1778446525290,168.0,-3.059633,-0.18429664,2.2166207,0.0,0.0,0.0
168,1778446525300,169.0,-3.059633,-0.18429664,2.2166207,0.0,0.0,0.0
169,1778446525310,170.0,-3.059633,-0.18429664,2.2166207,0.0,0.0,0.0
170,1778446525320,171.0,-3.059633,-0.18429664,2.2166207,0.0,0.0,0.0
171,1778446525330,172.0,-3.059633,-0.18429664,2.2166207,0.0,0.0,0.0
172,1778446525340,173.0,-3.059633,-0.18429664,2.2166207,0.0,0.0,0.0
173,1778446525350,174.0,-3.059633,-0.18429664,2.2166207,0.0,0.0,0.0
174,1778446525360,175.0,-3.059633,-0.18429664,2.2166207,0.0,0.0,0.0
175,1778446525370,176.0,-3.0050994,-0.20285169,2.1357338500000003,0.0,0.0,0.0
176,1778446525380,177.0,-2.9505658,-0.22140674,2.054847,0.0,0.0,0.0
177,1778446525390,178.0,-2.9505658,-0.22140674,2.054847,0.0,0.0,0.0
178,1778446525400,179.0,-2.9505658,-0.22140674,2.054847,0.0,0.0,0.0
179,1778446525410,180.0,-2.9505658,-0.22140674,2.054847,0.0,0.0,0.0
180,1778446525420,181.0,-2.9505658,-0.22140674,2.054847,0.0,0.0,0.0
181,1778446525430,182.0,-2.9108105,-0.2619725,1.7949083,0.0,0.0,0.0
182,1778446525440,183.0,-2.9108105,-0.2619725,1.7949083,0.0,0.0,0.0
183,1778446525450,184.0,-2.9108105,-0.2619725,1.7949083,0.0,0.0,0.0
184,1778446525460,185.0,-2.9108105,-0.2619725,1.7949083,0.0,0.0,0.0
185,1778446525470,186.0,-2.9108105,-0.2619725,1.7949083,0.0,0.0,0.0
186,1778446525480,187.0,-2.9108105,-0.2619725,1.7949083,0.0,0.0,0.0
187,1778446525490,188.0,-2.9108105,-0.2619725,1.7949083,0.0,0.0,0.0
188,1778446525500,189.0,-2.9108105,-0.2619725,1.7949083,0.0,0.0,0.0
189,1778446525510,190.0,-2.9032671000000003,-0.3179052133333333,1.6948674333333331,0.0,0.0,0.0
190,1778446525520,191.0,-2.8994954,-0.34587157,1.644847,0.0,0.0,0.0
191,1778446525530,192.0,-2.8994954000000006,-0.3458715700000001,1.6448469999999995,0.0,0.0,0.0
192,1778446525540,193.0,-2.876967366666667,-0.44186036,1.5562333666666666,0.0,0.0,0.0
193,1778446525550,194.0,-2.8319113,-0.63383794,1.3790061,0.0,0.0,0.0
194,1778446525560,195.0,-2.8305504,-0.6506931800000001,1.3790061,0.0,0.0,0.0
195,1778446525570,196.0,-2.8278286,-0.68440366,1.3790061,0.0,0.0,0.0
196,1778446525580,197.0,-2.8278286,-0.68440366,1.3790061,0.0,0.0,0.0
197,1778446525590,198.0,-2.8278286,-0.68440366,1.3790061,0.0,0.0,0.0
198,1778446525600,199.0,-2.8278286,-0.68440366,1.3790061,0.0,0.0,0.0
199,1778446525610,200.0,-2.8278286,-0.68440366,1.3790061,0.0,0.0,0.0
200,1778446525620,201.0,-2.630407733333333,-0.9743832866666668,1.4175994333333335,0.0,0.0,0.0
201,1778446525630,202.0,-2.5316973,-1.1193731,1.4368961,0.0,0.0,0.0
202,1778446525640,203.0,-2.5316973,-1.1193731,1.4368961,0.0,0.0,0.0
203,1778446525650,204.0,-2.5316973,-1.1193731,1.4368961,0.0,0.0,0.0
204,1778446525660,205.0,-2.5316973,-1.1193731,1.4368961,0.0,0.0,0.0
205,1778446525670,206.0,-2.5316973,-1.1193731,1.4368961,0.0,0.0,0.0
206,1778446525680,207.0,-2.5316973,-1.1193731,1.4368961,0.0,0.0,0.0
207,1778446525690,208.0,-2.5316973,-1.1193731,1.4368961,0.0,0.0,0.0
208,1778446525700,209.0,-2.5316973,-1.1193731,1.4368961,0.0,0.0,0.0
209,1778446525710,210.0,-2.5316973,-1.1193731,1.4368961,0.0,0.0,0.0
210,1778446525720,211.0,-2.5316973,-1.1193731,1.4368961,0.0,0.0,0.0
211,1778446525730,212.0,-2.5316973,-1.1193731,1.4368961,0.0,0.0,0.0
212,1778446525740,213.0,-2.5316973,-1.1193731,1.4368961,0.0,0.0,0.0
213,1778446525750,214.0,-2.5316973,-1.1193731,1.4368961,0.0,0.0,0.0
214,1778446525760,215.0,-2.3344903,-1.2770285666666668,1.4863048333333333,0.0,0.0,0.0
215,1778446525770,216.0,-2.2358868,-1.3558563,1.5110092,0.0,0.0,0.0
216,1778446525780,217.0,-2.2358868,-1.3558563,1.5110092,0.0,0.0,0.0
217,1778446525790,218.0,-2.2358868,-1.3558563,1.5110092,0.0,0.0,0.0
218,1778446525800,219.0,-2.2358868,-1.3558563,1.5110092,0.0,0.0,0.0
219,1778446525810,220.0,-2.0548113999999997,-1.4459022,1.5006779,0.0,0.0,0.0
220,1778446525820,221.0,-1.5603823,-1.6687054333333335,1.4431855333333334,0.0,0.0,0.0
221,1778446525830,222.0,-1.2958257,-1.7541283,1.369526,0.0,0.0,0.0
222,1778446525840,223.0,-1.2958257,-1.7541283000000003,1.3695259999999998,0.0,0.0,0.0
223,1778446525850,224.0,-1.2958257,-1.7541283000000003,1.3695259999999998,0.0,0.0,0.0
224,1778446525860,225.0,-0.8575229200000001,-1.9057339,1.398035225,0.0,0.0,0.0
225,1778446525870,226.0,-0.5584148733333333,-1.9230070666666668,1.3919113666666665,0.0,0.0,0.0
226,1778446525880,227.0,-0.43833333,-1.9221253,1.3840979,0.0,0.0,0.0
227,1778446525890,228.0,-0.43833333,-1.9221253,1.3840978999999998,0.0,0.0,0.0
228,1778446525900,229.0,-0.43833333,-1.9221253,1.3840978999999998,0.0,0.0,0.0
229,1778446525910,230.0,-0.43833333,-1.9221253,1.3840979,0.0,0.0,0.0
230,1778446525920,231.0,-0.43833333,-1.9221253,1.3840978999999998,0.0,0.0,0.0
231,1778446525930,232.0,-0.43833333,-1.9221253,1.3840978999999998,0.0,0.0,0.0
232,1778446525940,233.0,-0.43833333,-1.9221253,1.3840978999999998,0.0,0.0,0.0
233,1778446525950,234.0,-0.43833333,-1.9221253,1.3840978999999998,0.0,0.0,0.0
234,1778446525960,235.0,-0.3187920433333333,-1.8947349,1.376146833333333,0.0,0.0,0.0
235,1778446525970,236.0,-0.2590214,-1.8810397,1.3721713,0.0,0.0,0.0
236,1778446525980,237.0,-0.2590214,-1.8810397,1.3721713,0.0,0.0,0.0
237,1778446525990,238.0,-0.2590214,-1.8810397,1.3721713,0.0,0.0,0.0
238,1778446526000,239.0,-0.2590214,-1.8810397,1.3721713,0.0,0.0,0.0
239,1778446526010,240.0,-0.2590214,-1.8810397,1.3721713,0.0,0.0,0.0
240,1778446526020,241.0,-0.2590214,-1.8810397,1.3721713,0.0,0.0,0.0
241,1778446526030,242.0,-0.2590214,-1.8810397,1.3721713,0.0,0.0,0.0
242,1778446526040,243.0,-0.2590214,-1.8810397,1.3721713,0.0,0.0,0.0
243,1778446526050,244.0,-0.24478593,-1.8705402333333336,1.372105,0.0,0.0,0.0
244,1778446526060,245.0,-0.21631499,-1.8495413,1.3719724,0.0,0.0,0.0
245,1778446526070,246.0,-0.21631499,-1.8495413,1.3719724,0.0,0.0,0.0
246,1778446526080,247.0,-0.21631499,-1.8495413,1.3719724,0.0,0.0,0.0
247,1778446526090,248.0,-0.282370025,-1.8232454,1.45377295,0.0,0.0,0.0
248,1778446526100,249.0,-0.30438837,-1.8144801,1.4810398000000002,0.0,0.0,0.0
249,1778446526110,250.0,-0.30438837,-1.8144801,1.4810398000000002,0.0,0.0,0.0
250,1778446526120,251.0,-0.39541283,-1.7073394,1.4934709,0.0,0.0,0.0
251,1778446526130,252.0,-0.39541283,-1.7073393999999995,1.4934709,0.0,0.0,0.0
252,1778446526140,253.0,-0.39541283,-1.7073393999999995,1.4934709,0.0,0.0,0.0
253,1778446526150,254.0,-0.39541283,-1.7073394,1.4934709,0.0,0.0,0.0
254,1778446526160,255.0,-0.39541283,-1.7073393999999995,1.4934709,0.0,0.0,0.0
255,1778446526170,256.0,-0.39541283,-1.7073394,1.4934709,0.0,0.0,0.0
256,1778446526180,257.0,-0.39541283,-1.7073393999999995,1.4934709,0.0,0.0,0.0
257,1778446526190,258.0,-0.39541283,-1.7073393999999995,1.4934709,0.0,0.0,0.0
258,1778446526200,259.0,-0.39541283,-1.7073394,1.4934709,0.0,0.0,0.0
259,1778446526210,260.0,-0.39541283,-1.7073393999999995,1.4934709,0.0,0.0,0.0
260,1778446526220,261.0,-0.39541283,-1.7073393999999995,1.4934709,0.0,0.0,0.0
261,1778446526230,262.0,-0.321353205,-1.68914365,1.3978057499999998,0.0,0.0,0.0
262,1778446526240,263.0,-0.24729358,-1.6709479,1.3021406,0.0,0.0,0.0
263,1778446526250,264.0,-0.136364677,-1.698241525,1.2960971,0.0,0.0,0.0
264,1778446526260,265.0,-0.099388376,-1.7073393999999995,1.2940826,0.0,0.0,0.0
265,1778446526270,266.0,-0.099388376,-1.7073393999999995,1.2940826,0.0,0.0,0.0
266,1778446526280,267.0,-0.099388376,-1.7073394,1.2940826,0.0,0.0,0.0
267,1778446526290,268.0,-0.099388376,-1.7073394,1.2940826,0.0,0.0,0.0
268,1778446526300,269.0,-0.099388376,-1.7073394,1.2940826,0.0,0.0,0.0
269,1778446526310,270.0,-0.099388376,-1.7073393999999995,1.2940826,0.0,0.0,0.0
270,1778446526320,271.0,-0.099388376,-1.7073393999999995,1.2940826,0.0,0.0,0.0
271,1778446526330,272.0,-0.099388376,-1.7073394,1.2940826,0.0,0.0,0.0
272,1778446526340,273.0,-0.099388376,-1.7073393999999995,1.2940826,0.0,0.0,0.0
273,1778446526350,274.0,-0.0002064179999999,-1.6923012,1.28847865,0.0,0.0,0.0
274,1778446526360,275.0,0.09897554,-1.677263,1.2828747,0.0,0.0,0.0
275,1778446526370,276.0,0.09897554,-1.677263,1.2828747,0.0,0.0,0.0
276,1778446526380,277.0,0.09897554,-1.677263,1.2828747,0.0,0.0,0.0
277,1778446526390,278.0,0.09897554,-1.677263,1.2828747,0.0,0.0,0.0
278,1778446526400,279.0,0.09897554,-1.677263,1.2828747,0.0,0.0,0.0
279,1778446526410,280.0,0.09897554,-1.677263,1.2828747,0.0,0.0,0.0
280,1778446526420,281.0,0.09897554,-1.677263,1.2828747,0.0,0.0,0.0
281,1778446526430,282.0,0.09897554,-1.677263,1.2828747,0.0,0.0,0.0
282,1778446526440,283.0,0.09897554,-1.677263,1.2828747,0.0,0.0,0.0
283,1778446526450,284.0,0.09897554,-1.677263,1.2828747,0.0,0.0,0.0
284,1778446526460,285.0,0.1732568833333333,-1.6267379999999998,1.2307187333333334,0.0,0.0,0.0
285,1778446526470,286.0,0.32181957,-1.525688,1.1264068,0.0,0.0,0.0
286,1778446526480,287.0,0.3537155999999999,-1.4925535000000003,0.9711468,0.0,0.0,0.0
287,1778446526490,288.0,0.3537156,-1.4925535,0.9711468,0.0,0.0,0.0
288,1778446526500,289.0,0.3537156,-1.4925535,0.9711468,0.0,0.0,0.0
289,1778446526510,290.0,0.3537155999999999,-1.4925535000000003,0.9711468,0.0,0.0,0.0
290,1778446526520,291.0,0.3537155999999999,-1.4925535000000003,0.9711468,0.0,0.0,0.0
291,1778446526530,292.0,0.3537156,-1.4925535,0.9711468,0.0,0.0,0.0
292,1778446526540,293.0,0.3537155999999999,-1.4925535000000003,0.9711468,0.0,0.0,0.0
293,1778446526550,294.0,0.3537156,-1.4925535,0.9711468,0.0,0.0,0.0
294,1778446526560,295.0,0.3537156,-1.4925535,0.9711468,0.0,0.0,0.0
295,1778446526570,296.0,0.3537155999999999,-1.4925535000000003,0.9711468,0.0,0.0,0.0
296,1778446526580,297.0,0.3537155999999999,-1.4925535000000003,0.9711468,0.0,0.0,0.0
297,1778446526590,298.0,0.3537156,-1.4925535,0.9711468,0.0,0.0,0.0
298,1778446526600,299.0,0.3906269,-1.4532110000000005,0.8986697,0.0,0.0,0.0
299,1778446526610,300.0,0.3906269,-1.4532110000000005,0.8986697,0.0,0.0,0.0
300,1778446526620,301.0,0.3906269,-1.4532110000000005,0.8986697,0.0,0.0,0.0
301,1778446526630,302.0,0.3906269,-1.453211,0.8986697,0.0,0.0,0.0
302,1778446526640,303.0,0.3906269,-1.4532110000000005,0.8986697,0.0,0.0,0.0
303,1778446526650,304.0,0.3906269,-1.4532110000000005,0.8986697,0.0,0.0,0.0
304,1778446526660,305.0,0.3906269,-1.453211,0.8986697,0.0,0.0,0.0
305,1778446526670,306.0,0.3906269,-1.4532110000000005,0.8986697,0.0,0.0,0.0
306,1778446526680,307.0,0.3906269,-1.453211,0.8986697,0.0,0.0,0.0
307,1778446526690,308.0,0.3906269,-1.4532110000000005,0.8986697,0.0,0.0,0.0
308,1778446526700,309.0,0.38746178,-1.3949083,0.8342507500000002,0.0,0.0,0.0
309,1778446526710,310.0,0.38746178,-1.3949083,0.83425075,0.0,0.0,0.0
310,1778446526720,311.0,0.38746178,-1.3949083,0.8342507500000002,0.0,0.0,0.0
311,1778446526730,312.0,0.38746178,-1.3949083,0.83425075,0.0,0.0,0.0
312,1778446526740,313.0,0.38746178,-1.3949083,0.8342507500000002,0.0,0.0,0.0
313,1778446526750,314.0,0.38746178,-1.3949083,0.8342507500000002,0.0,0.0,0.0
314,1778446526760,315.0,0.38746178,-1.3949083,0.83425075,0.0,0.0,0.0
315,1778446526770,316.0,0.38746178,-1.3949083,0.8342507500000002,0.0,0.0,0.0
316,1778446526780,317.0,0.40575689,-1.31289755,0.70978591,0.0,0.0,0.0
317,1778446526790,318.0,0.4240519999999999,-1.2308868,0.58532107,0.0,0.0,0.0
318,1778446526800,319.0,0.4358460799999999,-1.2095820333333334,0.5445463666666667,0.0,0.0,0.0
319,1778446526810,320.0,0.45943424,-1.1669725,0.46299696,0.0,0.0,0.0
320,1778446526820,321.0,0.45943424,-1.1669725,0.46299696,0.0,0.0,0.0
321,1778446526830,322.0,0.45943424,-1.1669725,0.46299696,0.0,0.0,0.0
322,1778446526840,323.0,0.45943424,-1.1669725,0.46299696,0.0,0.0,0.0
323,1778446526850,324.0,0.4415239499999999,-1.1293578,0.3802599566666667,0.0,0.0,0.0
324,1778446526860,325.0,0.3017278433333333,-0.99167176,-0.0497094766666666,0.0,0.0,0.0
325,1778446526870,326.0,0.24974008,-0.96044344,-0.18195719,0.0,0.0,0.0
326,1778446526880,327.0,0.24974008,-0.96044344,-0.18195719,0.0,0.0,0.0
327,1778446526890,328.0,0.24974008,-0.96044344,-0.18195719,0.0,0.0,0.0
328,1778446526900,329.0,0.7051936933333334,-0.9596279466666666,-0.3361569633333333,0.0,0.0,0.0
329,1778446526910,330.0,0.96793575,-0.90749235,-0.41656725,0.0,0.0,0.0
330,1778446526920,331.0,1.002951,-0.8557644999999999,-0.4198776499999999,0.0,0.0,0.0
331,1778446526930,332.0,1.002951,-0.8557644999999999,-0.4198776499999999,0.0,0.0,0.0
332,1778446526940,333.0,1.002951,-0.8557644999999999,-0.4198776499999999,0.0,0.0,0.0
333,1778446526950,334.0,1.0133486,-0.6520234333333333,-0.3198470833333333,0.0,0.0,0.0
334,1778446526960,335.0,1.0185474,-0.5501529,-0.2698318,0.0,0.0,0.0
335,1778446526970,336.0,1.0185474,-0.5501529,-0.2698318,0.0,0.0,0.0
336,1778446526980,337.0,1.0185474,-0.5501529,-0.2698318,0.0,0.0,0.0
337,1778446526990,338.0,1.2733894666666667,-0.0333333199999999,-1.0298012666666667,0.0,0.0,0.0
338,1778446527000,339.0,1.4008104999999995,0.22507647,-1.4097859999999998,0.0,0.0,0.0
339,1778446527010,340.0,1.4008104999999995,0.22507647,-1.4097859999999998,0.0,0.0,0.0
340,1778446527020,341.0,1.3878645,-0.0208307666666666,-1.0410143133333334,0.0,0.0,0.0
341,1778446527030,342.0,1.3619725,-0.51264524,-0.30347094,0.0,0.0,0.0
342,1778446527040,343.0,1.3619725,-0.51264524,-0.30347094,0.0,0.0,0.0
343,1778446527050,344.0,1.4188532,-0.4993577766666666,-0.3678949933333333,0.0,0.0,0.0
344,1778446527060,345.0,1.5326145999999998,-0.47278285,-0.4967431,0.0,0.0,0.0
345,1778446527070,346.0,1.5326145999999998,-0.47278285,-0.4967431,0.0,0.0,0.0
346,1778446527080,347.0,1.5726835,-0.4156727875,-0.74001145,0.0,0.0,0.0
347,1778446527090,348.0,1.5860398,-0.3966361,-0.8211008999999999,0.0,0.0,0.0
348,1778446527100,349.0,1.5860398,-0.3966361,-0.8211008999999999,0.0,0.0,0.0
349,1778446527110,350.0,1.5860398,-0.3966361,-0.8211009,0.0,0.0,0.0
350,1778446527120,351.0,1.5860398,-0.3966361,-0.8211008999999999,0.0,0.0,0.0
351,1778446527130,352.0,1.4125382,-0.24659023,-1.2296636,0.0,0.0,0.0
352,1778446527140,353.0,1.4125382,-0.24659023,-1.2296636,0.0,0.0,0.0
353,1778446527150,354.0,1.4125382,-0.24659023,-1.2296636,0.0,0.0,0.0
354,1778446527160,355.0,1.4125382,-0.24659023,-1.2296636,0.0,0.0,0.0
355,1778446527170,356.0,1.4125382,-0.24659023,-1.2296636,0.0,0.0,0.0
356,1778446527180,357.0,1.3381600333333334,-0.1404383366666666,-1.2316360666666668,0.0,0.0,0.0
357,1778446527190,358.0,1.1894037,0.07186545,-1.235581,0.0,0.0,0.0
358,1778446527200,359.0,1.1894037,0.07186545,-1.235581,0.0,0.0,0.0
359,1778446527210,360.0,1.1894037,0.07186545,-1.235581,0.0,0.0,0.0
360,1778446527220,361.0,1.1894037,0.07186545,-1.235581,0.0,0.0,0.0
361,1778446527230,362.0,1.1894037,0.07186545,-1.235581,0.0,0.0,0.0
362,1778446527240,363.0,1.1894037,0.07186545,-1.235581,0.0,0.0,0.0
363,1778446527250,364.0,1.198501525,0.0918195775,-1.22393345,0.0,0.0,0.0
364,1778446527260,365.0,1.225795,0.15168196,-1.1889908,0.0,0.0,0.0
365,1778446527270,366.0,1.225795,0.15168196,-1.1889908,0.0,0.0,0.0
366,1778446527280,367.0,1.225795,0.15168196,-1.1889908,0.0,0.0,0.0
367,1778446527290,368.0,1.225795,0.15168196,-1.1889908,0.0,0.0,0.0
368,1778446527300,369.0,1.225795,0.15168196,-1.1889908,0.0,0.0,0.0
369,1778446527310,370.0,1.225795,0.15168196,-1.1889908,0.0,0.0,0.0
370,1778446527320,371.0,1.225795,0.15168196,-1.1889908,0.0,0.0,0.0
371,1778446527330,372.0,1.225795,0.15168196,-1.1889908,0.0,0.0,0.0
372,1778446527340,373.0,1.225795,0.15168196,-1.1889908,0.0,0.0,0.0
373,1778446527350,374.0,1.2900152,0.2058104,-1.261162,0.0,0.0,0.0
374,1778446527360,375.0,1.3022782333333334,0.2098878733333333,-1.2872935333333333,0.0,0.0,0.0
375,1778446527370,376.0,1.3268043,0.21804282,-1.3395566,0.0,0.0,0.0
376,1778446527380,377.0,1.3268043,0.21804282,-1.3395566,0.0,0.0,0.0
377,1778446527390,378.0,1.3268043,0.21804282,-1.3395566,0.0,0.0,0.0
378,1778446527400,379.0,1.3268043,0.21804282,-1.3395566,0.0,0.0,0.0
379,1778446527410,380.0,1.3268043,0.21804282,-1.3395566,0.0,0.0,0.0
380,1778446527420,381.0,1.3268043,0.21804282,-1.3395566,0.0,0.0,0.0
381,1778446527430,382.0,1.3268043,0.21804282,-1.3395566,0.0,0.0,0.0
382,1778446527440,383.0,1.3268043,0.21804282,-1.3395566,0.0,0.0,0.0
383,1778446527450,384.0,1.3268043,0.21804282,-1.3395566,0.0,0.0,0.0
384,1778446527460,385.0,1.3268043,0.21804282,-1.3395566,0.0,0.0,0.0
385,1778446527470,386.0,1.3268043,0.21804282,-1.3395566,0.0,0.0,0.0
386,1778446527480,387.0,1.3268043,0.21804282,-1.3395566,0.0,0.0,0.0
387,1778446527490,388.0,1.3268043,0.21804282,-1.3395566,0.0,0.0,0.0
388,1778446527500,389.0,1.3268043,0.21804282,-1.3395566,0.0,0.0,0.0
389,1778446527510,390.0,1.3268043,0.21804282,-1.3395566,0.0,0.0,0.0
390,1778446527520,391.0,1.5391438,0.1919419,-1.4447554,0.0,0.0,0.0
391,1778446527530,392.0,1.5391438,0.1919419,-1.4447554,0.0,0.0,0.0
392,1778446527540,393.0,1.5391438,0.1919419,-1.4447554,0.0,0.0,0.0
393,1778446527550,394.0,1.588960266666667,0.0900764533333333,-1.4484862666666665,0.0,0.0,0.0
394,1778446527560,395.0,1.6138685,0.03914373,-1.4503517,0.0,0.0,0.0
395,1778446527570,396.0,1.6138685,0.03914373,-1.4503517,0.0,0.0,0.0
396,1778446527580,397.0,1.6138685,0.03914373,-1.4503517,0.0,0.0,0.0
397,1778446527590,398.0,1.6138685,0.03914373,-1.4503517,0.0,0.0,0.0
398,1778446527600,399.0,1.1828797,-0.1835575966666666,-1.4778135,0.0,0.0,0.0
399,1778446527610,400.0,0.9673853,-0.29490826,-1.4915444,0.0,0.0,0.0
400,1778446527620,401.0,0.7391437,-0.47798166,-1.4839909,0.0,0.0,0.0
401,1778446527630,402.0,0.7391437,-0.47798166,-1.4839909,0.0,0.0,0.0
402,1778446527640,403.0,0.7336391499999999,-0.5608601025,-1.396536775,0.0,0.0,0.0
403,1778446527650,404.0,0.7318043,-0.58848625,-1.3673854,0.0,0.0,0.0
404,1778446527660,405.0,0.7318043,-0.58848625,-1.3673854,0.0,0.0,0.0
405,1778446527670,406.0,0.7318043,-0.58848625,-1.3673854,0.0,0.0,0.0
406,1778446527680,407.0,0.7318043,-0.58848625,-1.3673854,0.0,0.0,0.0
407,1778446527690,408.0,0.8121253999999999,-0.7005046,-1.1220183,0.0,0.0,0.0
408,1778446527700,409.0,0.8121254,-0.7005046,-1.1220183,0.0,0.0,0.0
409,1778446527710,410.0,0.8121253999999999,-0.7005046,-1.1220183,0.0,0.0,0.0
410,1778446527720,411.0,0.8121253999999999,-0.7005046,-1.1220183,0.0,0.0,0.0
411,1778446527730,412.0,0.8121254,-0.7005046,-1.1220183,0.0,0.0,0.0
412,1778446527740,413.0,0.9973548,-0.8340520000000001,-0.6827675699999999,0.0,0.0,0.0
413,1778446527750,414.0,0.8279969333333334,-0.93734456,-0.42840469,0.0,0.0,0.0
414,1778446527760,415.0,0.7856574666666667,-0.9631677,-0.36481397,0.0,0.0,0.0
415,1778446527770,416.0,0.743318,-0.98899084,-0.30122325,0.0,0.0,0.0
416,1778446527780,417.0,0.743318,-0.98899084,-0.30122325,0.0,0.0,0.0
417,1778446527790,418.0,0.743318,-0.98899084,-0.30122325,0.0,0.0,0.0
418,1778446527800,419.0,0.6209939,-1.0322171,-0.21120796,0.0,0.0,0.0
419,1778446527810,420.0,0.6209939,-1.0322171,-0.21120796,0.0,0.0,0.0
420,1778446527820,421.0,0.6209939,-1.0322171,-0.21120796,0.0,0.0,0.0
421,1778446527830,422.0,0.6209939,-1.0322171,-0.21120796,0.0,0.0,0.0
422,1778446527840,423.0,0.6209939,-1.0322171,-0.21120796,0.0,0.0,0.0
423,1778446527850,424.0,0.6209939,-1.0322171,-0.21120796,0.0,0.0,0.0
424,1778446527860,425.0,0.6209939,-1.0322171,-0.21120796,0.0,0.0,0.0
425,1778446527870,426.0,0.42915902,-1.1046941,-0.15974006,0.0,0.0,0.0
426,1778446527880,427.0,0.42915902,-1.1046941,-0.15974006,0.0,0.0,0.0
427,1778446527890,428.0,0.26323649,-1.1358511333333332,-0.1476095833333333,0.0,0.0,0.0
428,1778446527900,429.0,-0.06860857,-1.1981652,-0.12334863,0.0,0.0,0.0
429,1778446527910,430.0,-0.06860857,-1.1981652,-0.12334863,0.0,0.0,0.0
430,1778446527920,431.0,-0.06860857,-1.1981652,-0.12334863,0.0,0.0,0.0
431,1778446527930,432.0,-0.06860857,-1.1981652,-0.12334863,0.0,0.0,0.0
432,1778446527940,433.0,-0.06860857,-1.1981652,-0.12334863,0.0,0.0,0.0
433,1778446527950,434.0,-0.06860857,-1.1981652,-0.12334863,0.0,0.0,0.0
434,1778446527960,435.0,-0.06860857,-1.1981652,-0.12334863,0.0,0.0,0.0
435,1778446527970,436.0,-0.06860857,-1.1981652,-0.12334863,0.0,0.0,0.0
436,1778446527980,437.0,-0.06860857,-1.1981652,-0.12334863,0.0,0.0,0.0
437,1778446527990,438.0,-0.06860857,-1.1981652,-0.12334863,0.0,0.0,0.0
438,1778446528000,439.0,-0.2038379233333333,-1.2528746,-0.11376657,0.0,0.0,0.0
439,1778446528010,440.0,-0.2714526,-1.2802293,-0.10897554,0.0,0.0,0.0
440,1778446528020,441.0,-0.3905147866666666,-1.3303109,-0.0858664666666666,0.0,0.0,0.0
441,1778446528030,442.0,-0.45004588,-1.3553517,-0.07431193,0.0,0.0,0.0
442,1778446528040,443.0,-0.45004588,-1.3553517,-0.07431193,0.0,0.0,0.0
443,1778446528050,444.0,-0.45004588,-1.3553517,-0.07431193,0.0,0.0,0.0
444,1778446528060,445.0,-0.45004588,-1.3553517,-0.07431193,0.0,0.0,0.0
445,1778446528070,446.0,-0.45004588,-1.3553517,-0.07431193,0.0,0.0,0.0
446,1778446528080,447.0,-0.6053364066666667,-1.3875637,0.0100917406666666,0.0,0.0,0.0
447,1778446528090,448.0,-0.68298167,-1.4036697,0.052293576,0.0,0.0,0.0
448,1778446528100,449.0,-0.6829816699999999,-1.4036697,0.052293576,0.0,0.0,0.0
449,1778446528110,450.0,-0.6829816699999999,-1.4036697,0.052293576,0.0,0.0,0.0
450,1778446528120,451.0,-0.6829816699999999,-1.4036697,0.052293576,0.0,0.0,0.0
451,1778446528130,452.0,-0.6829816699999999,-1.4036697,0.052293576,0.0,0.0,0.0
452,1778446528140,453.0,-0.6829816699999999,-1.4036697,0.052293576,0.0,0.0,0.0
453,1778446528150,454.0,-0.68298167,-1.4036697,0.052293576,0.0,0.0,0.0
454,1778446528160,455.0,-0.6829816699999999,-1.4036697,0.052293576,0.0,0.0,0.0
455,1778446528170,456.0,-0.70778288,-1.4296279333333333,0.1301376073333333,0.0,0.0,0.0
456,1778446528180,457.0,-0.82487005,-1.51166665,0.351016805,0.0,0.0,0.0
457,1778446528190,458.0,-0.8923548,-1.5417889,0.41620794,0.0,0.0,0.0
458,1778446528200,459.0,-0.8923548,-1.5417889,0.41620794,0.0,0.0,0.0
459,1778446528210,460.0,-0.8923548,-1.5417889,0.41620794,0.0,0.0,0.0
460,1778446528220,461.0,-1.157869533333333,-1.571421966666667,0.48715598,0.0,0.0,0.0
461,1778446528230,462.0,-1.2906269,-1.5862385,0.52263,0.0,0.0,0.0
462,1778446528240,463.0,-1.2906269,-1.5862385,0.52263,0.0,0.0,0.0
463,1778446528250,464.0,-1.2906269,-1.5862385,0.52263,0.0,0.0,0.0
464,1778446528260,465.0,-1.3179205,-1.590087875,0.533000785,0.0,0.0,0.0
465,1778446528270,466.0,-1.3998013,-1.601636,0.56411314,0.0,0.0,0.0
466,1778446528280,467.0,-1.3998013,-1.601636,0.56411314,0.0,0.0,0.0
467,1778446528290,468.0,-1.3998013,-1.601636,0.56411314,0.0,0.0,0.0
468,1778446528300,469.0,-1.516416966666667,-1.5807695333333331,0.6309837133333334,0.0,0.0,0.0
469,1778446528310,470.0,-1.5747248,-1.5703363,0.664419,0.0,0.0,0.0
470,1778446528320,471.0,-1.5747248,-1.5703363,0.664419,0.0,0.0,0.0
471,1778446528330,472.0,-1.5747248,-1.5703363,0.664419,0.0,0.0,0.0
472,1778446528340,473.0,-1.7541283000000003,-1.4908258000000003,0.8093730999999998,0.0,0.0,0.0
473,1778446528350,474.0,-1.7541283,-1.4908258,0.8093731,0.0,0.0,0.0
474,1778446528360,475.0,-1.7541283000000003,-1.4908258000000003,0.8093730999999998,0.0,0.0,0.0
475,1778446528370,476.0,-1.7541283000000003,-1.4908258000000003,0.8093730999999998,0.0,0.0,0.0
476,1778446528380,477.0,-1.9840978,-1.3697248,0.9418961,0.0,0.0,0.0
477,1778446528390,478.0,-1.9840978,-1.3697248,0.9418961,0.0,0.0,0.0
478,1778446528400,479.0,-1.9840978,-1.3697248,0.9418961,0.0,0.0,0.0
479,1778446528410,480.0,-2.0395527,-1.3087653,0.97449165,0.0,0.0,0.0
480,1778446528420,481.0,-2.2059174,-1.1258868,1.0722783,0.0,0.0,0.0
481,1778446528430,482.0,-2.2059174,-1.1258868,1.0722783,0.0,0.0,0.0
482,1778446528440,483.0,-2.2059174,-1.1258868,1.0722783,0.0,0.0,0.0
483,1778446528450,484.0,-2.2059174,-1.1258868,1.0722783,0.0,0.0,0.0
484,1778446528460,485.0,-2.2059174,-1.1258868,1.0722783,0.0,0.0,0.0
485,1778446528470,486.0,-2.2059174,-1.1258868,1.0722783,0.0,0.0,0.0
486,1778446528480,487.0,-2.2059174,-1.1258868,1.0722783,0.0,0.0,0.0
487,1778446528490,488.0,-2.2059174,-1.1258868,1.0722783,0.0,0.0,0.0
488,1778446528500,489.0,-2.2059174,-1.1258868,1.0722783,0.0,0.0,0.0
489,1778446528510,490.0,-2.2042864666666664,-1.0585474,1.0714627666666667,0.0,0.0,0.0
490,1778446528520,491.0,-2.203471,-1.0248777,1.071055,0.0,0.0,0.0
491,1778446528530,492.0,-2.203471,-1.0248777,1.071055,0.0,0.0,0.0
492,1778446528540,493.0,-2.369413866666666,-0.8000968466666668,0.97019879,0.0,0.0,0.0
493,1778446528550,494.0,-2.4313915,-0.75249237,0.95749235,0.0,0.0,0.0
494,1778446528560,495.0,-2.4313915,-0.75249237,0.95749235,0.0,0.0,0.0
495,1778446528570,496.0,-2.5316973,-0.70954638,0.9898725666666666,0.0,0.0,0.0
496,1778446528580,497.0,-2.7323089,-0.6236544,1.054633,0.0,0.0,0.0
497,1778446528590,498.0,-2.7323089,-0.6236544,1.054633,0.0,0.0,0.0
498,1778446528600,499.0,-2.7323089,-0.6236544,1.054633,0.0,0.0,0.0
499,1778446528610,500.0,-2.791942,-0.5846024,1.1388379,0.0,0.0,0.0
500,1778446528620,501.0,-2.791942,-0.5846024,1.1388379,0.0,0.0,0.0
501,1778446528630,502.0,-2.791942,-0.5846024,1.1388379,0.0,0.0,0.0
502,1778446528640,503.0,-2.791942,-0.5846024,1.1388379,0.0,0.0,0.0
503,1778446528650,504.0,-2.747905266666667,-0.5556217833333333,1.1419316666666666,0.0,0.0,0.0
504,1778446528660,505.0,-2.6598318,-0.49766055,1.1481192,0.0,0.0,0.0
505,1778446528670,506.0,-2.6598318,-0.49766055,1.1481192,0.0,0.0,0.0
506,1778446528680,507.0,-2.6598318,-0.49766055,1.1481192,0.0,0.0,0.0
507,1778446528690,508.0,-2.6598318,-0.49766055,1.1481192,0.0,0.0,0.0
508,1778446528700,509.0,-2.6598318,-0.49766055,1.1481192,0.0,0.0,0.0
509,1778446528710,510.0,-2.6598318,-0.49766055,1.1481192,0.0,0.0,0.0
510,1778446528720,511.0,-2.4519878,-0.1735626933333333,1.1078797666666669,0.0,0.0,0.0
511,1778446528730,512.0,-2.6162615,-0.083639145,1.11437315,0.0,0.0,0.0
512,1778446528740,513.0,-2.9036696,0.08940367,1.130581,0.0,0.0,0.0
513,1778446528750,514.0,-2.9456676,0.1229408766666666,1.0535167666666667,0.0,0.0,0.0
514,1778446528760,515.0,-2.99852445,0.226865445,0.553058065,0.0,0.0,0.0
515,1778446528770,516.0,-2.9673853,0.2637156,0.20672783,0.0,0.0,0.0
516,1778446528780,517.0,-2.9673853,0.2637156,0.20672783,0.0,0.0,0.0
517,1778446528790,518.0,-2.9673853,0.2637156,0.20672783,0.0,0.0,0.0
518,1778446528800,519.0,-2.9673853,0.2637156,0.20672783,0.0,0.0,0.0
519,1778446528810,520.0,-2.9673853,0.2637156,0.20672783,0.0,0.0,0.0
520,1778446528820,521.0,-2.9673853,0.2637156,0.20672783,0.0,0.0,0.0
521,1778446528830,522.0,-2.8128975,0.2802523,0.1146292075,0.0,0.0,0.0
522,1778446528840,523.0,-2.3494341,0.3298624,-0.16166666,0.0,0.0,0.0
523,1778446528850,524.0,-2.3494341,0.3298624,-0.16166666,0.0,0.0,0.0
524,1778446528860,525.0,-2.3494341,0.3298624,-0.16166666,0.0,0.0,0.0
525,1778446528870,526.0,-2.3494341,0.3298624,-0.16166666,0.0,0.0,0.0
526,1778446528880,527.0,-2.3494341,0.3298624,-0.16166666,0.0,0.0,0.0
527,1778446528890,528.0,-2.3494341,0.3298624,-0.16166666,0.0,0.0,0.0
528,1778446528900,529.0,-2.3494341,0.3298624,-0.16166666,0.0,0.0,0.0
529,1778446528910,530.0,-2.3494341,0.3298624,-0.16166666,0.0,0.0,0.0
530,1778446528920,531.0,-2.3494341,0.3298624,-0.16166666,0.0,0.0,0.0
531,1778446528930,532.0,-2.3494341,0.3298624,-0.16166666,0.0,0.0,0.0
532,1778446528940,533.0,-2.3494341,0.3298624,-0.16166666,0.0,0.0,0.0
533,1778446528950,534.0,-2.3494341,0.3298624,-0.16166666,0.0,0.0,0.0
534,1778446528960,535.0,-2.3494341,0.3298624,-0.16166666,0.0,0.0,0.0
535,1778446528970,536.0,-2.3494341,0.3298624,-0.16166666,0.0,0.0,0.0
536,1778446528980,537.0,-2.2275177,0.3514729866666666,-0.1429816466666666,0.0,0.0,0.0
537,1778446528990,538.0,-2.1665595,0.36227828,-0.13363914,0.0,0.0,0.0
538,1778446529000,539.0,-2.1665595,0.36227828,-0.13363914,0.0,0.0,0.0
539,1778446529010,540.0,-2.1665595,0.36227828,-0.13363914,0.0,0.0,0.0
540,1778446529020,541.0,-2.11640665,-0.0557874649999999,0.08417432,0.0,0.0,0.0
541,1778446529030,542.0,-2.0662538,-0.4738532099999999,0.30198778,0.0,0.0,0.0
542,1778446529040,543.0,-2.01610095,-0.891918955,0.5198012399999999,0.0,0.0,0.0
543,1778446529050,544.0,-1.9659481,-1.3099847,0.7376147,0.0,0.0,0.0
544,1778446529060,545.0,-1.9659481,-1.3099847,0.7376147,0.0,0.0,0.0
545,1778446529070,546.0,-1.9659481,-1.3099847,0.7376147,0.0,0.0,0.0
546,1778446529080,547.0,-1.9659481,-1.3099847,0.7376147,0.0,0.0,0.0
547,1778446529090,548.0,-1.9659481,-1.3099847,0.7376147,0.0,0.0,0.0
548,1778446529100,549.0,-1.9659481,-1.3099847,0.7376147,0.0,0.0,0.0
549,1778446529110,550.0,-1.9659481,-1.3099847,0.7376147,0.0,0.0,0.0
550,1778446529120,551.0,-1.9659481,-1.3099847,0.7376147,0.0,0.0,0.0
551,1778446529130,552.0,-1.9510704,-1.3994954,0.80377674,0.0,0.0,0.0
552,1778446529140,553.0,-1.9510704,-1.3994954,0.80377674,0.0,0.0,0.0
553,1778446529150,554.0,-1.9071356,-1.4216462666666665,0.8229714433333334,0.0,0.0,0.0
554,1778446529160,555.0,-1.819266,-1.465948,0.86136085,0.0,0.0,0.0
555,1778446529170,556.0,-1.819266,-1.465948,0.86136085,0.0,0.0,0.0
556,1778446529180,557.0,-1.6960244,-1.4699235333333334,0.8664933866666665,0.0,0.0,0.0
557,1778446529190,558.0,-1.4495412,-1.4778746,0.87675846,0.0,0.0,0.0
558,1778446529200,559.0,-1.4495412,-1.4778746,0.87675846,0.0,0.0,0.0
559,1778446529210,560.0,-1.4495412,-1.4778746,0.87675846,0.0,0.0,0.0
560,1778446529220,561.0,-1.4495412,-1.4778746,0.87675846,0.0,0.0,0.0
561,1778446529230,562.0,-1.4495412,-1.4778746,0.87675846,0.0,0.0,0.0
562,1778446529240,563.0,-1.3272171,-1.4820642,0.9396484,0.0,0.0,0.0
563,1778446529250,564.0,-1.3272171,-1.4820642,0.9396484,0.0,0.0,0.0
564,1778446529260,565.0,-1.3272171,-1.4820642,0.9396484,0.0,0.0,0.0
565,1778446529270,566.0,-1.3272171,-1.4820642,0.9396484,0.0,0.0,0.0
566,1778446529280,567.0,-1.3272171,-1.4820642,0.9396484,0.0,0.0,0.0
567,1778446529290,568.0,-1.3272171,-1.4820642,0.9396484,0.0,0.0,0.0
568,1778446529300,569.0,-1.3272171,-1.4820642,0.9396484,0.0,0.0,0.0
569,1778446529310,570.0,-1.3272171,-1.4820642,0.9396484,0.0,0.0,0.0
570,1778446529320,571.0,-1.0247209275,-1.4357339,0.8750459325000001,0.0,0.0,0.0
571,1778446529330,572.0,-0.11723241,-1.296743,0.68123853,0.0,0.0,0.0
572,1778446529340,573.0,-0.11723241,-1.296743,0.68123853,0.0,0.0,0.0
573,1778446529350,574.0,-0.11723241,-1.296743,0.68123853,0.0,0.0,0.0
574,1778446529360,575.0,-0.11723241,-1.296743,0.68123853,0.0,0.0,0.0
575,1778446529370,576.0,-0.8615749366666666,-1.4251121333333332,0.89843531,0.0,0.0,0.0
576,1778446529380,577.0,-1.1744648999999998,-1.4727294,1.04367745,0.0,0.0,0.0
577,1778446529390,578.0,-1.1151836,-1.4561621,1.0803212,0.0,0.0,0.0
578,1778446529400,579.0,-1.1151836,-1.4561621,1.0803212,0.0,0.0,0.0
579,1778446529410,580.0,-1.1151836,-1.4561621,1.0803212,0.0,0.0,0.0
580,1778446529420,581.0,-1.1151836,-1.4561621,1.0803212,0.0,0.0,0.0
581,1778446529430,582.0,-1.1151836,-1.4561621,1.0803212,0.0,0.0,0.0
582,1778446529440,583.0,-1.1151836,-1.4561621,1.0803212,0.0,0.0,0.0
583,1778446529450,584.0,-1.1151836,-1.4561621,1.0803212,0.0,0.0,0.0
584,1778446529460,585.0,-1.1151836,-1.4561621,1.0803212,0.0,0.0,0.0
585,1778446529470,586.0,-1.1151836,-1.4561621,1.0803212,0.0,0.0,0.0
586,1778446529480,587.0,-0.9538226,-1.4481193,1.0829816,0.0,0.0,0.0
587,1778446529490,588.0,-0.9538226,-1.4481193,1.0829816,0.0,0.0,0.0
588,1778446529500,589.0,-0.9538226,-1.4481193,1.0829816,0.0,0.0,0.0
589,1778446529510,590.0,-0.53282875,-1.4570795,0.97655964,0.0,0.0,0.0
590,1778446529520,591.0,-0.53282875,-1.4570795,0.97655964,0.0,0.0,0.0
591,1778446529530,592.0,-0.53282875,-1.4570795,0.97655964,0.0,0.0,0.0
592,1778446529540,593.0,-0.53282875,-1.4570795,0.97655964,0.0,0.0,0.0
593,1778446529550,594.0,-0.53282875,-1.4570795,0.97655964,0.0,0.0,0.0
594,1778446529560,595.0,-0.53282875,-1.4570795,0.97655964,0.0,0.0,0.0
595,1778446529570,596.0,-0.4483893999999999,-1.4425382333333332,0.9337767766666666,0.0,0.0,0.0
596,1778446529580,597.0,-0.2795107,-1.4134557,0.8482110500000001,0.0,0.0,0.0
597,1778446529590,598.0,-0.2795107,-1.4134557,0.84821105,0.0,0.0,0.0
598,1778446529600,599.0,-0.2795107,-1.4134557,0.8482110500000001,0.0,0.0,0.0
599,1778446529610,600.0,-0.19408766,-1.3743833,0.79642715,0.0,0.0,0.0
600,1778446529620,601.0,-0.15137614,-1.3548471,0.7705352,0.0,0.0,0.0
601,1778446529630,602.0,-0.15137614,-1.3548471,0.7705352,0.0,0.0,0.0
602,1778446529640,603.0,-0.15137614,-1.3548471,0.7705352,0.0,0.0,0.0
603,1778446529650,604.0,-0.15137614,-1.3548471,0.7705352,0.0,0.0,0.0
604,1778446529660,605.0,-0.15137614,-1.3548471,0.7705352,0.0,0.0,0.0
605,1778446529670,606.0,-0.15137614,-1.3548471,0.7705352,0.0,0.0,0.0
606,1778446529680,607.0,-0.15137614,-1.3548471,0.7705352,0.0,0.0,0.0
607,1778446529690,608.0,-0.15137614,-1.3548471,0.7705352,0.0,0.0,0.0
608,1778446529700,609.0,-0.14912845,-1.2569878,0.60214067,0.0,0.0,0.0
609,1778446529710,610.0,-0.14912845,-1.2569878,0.60214067,0.0,0.0,0.0
610,1778446529720,611.0,-0.14912845,-1.2569878,0.60214067,0.0,0.0,0.0
611,1778446529730,612.0,-0.14912845,-1.2569878,0.60214067,0.0,0.0,0.0
612,1778446529740,613.0,-0.14912845,-1.2569878,0.60214067,0.0,0.0,0.0
613,1778446529750,614.0,-0.14912845,-1.2569878,0.60214067,0.0,0.0,0.0
614,1778446529760,615.0,-0.14912845,-1.2569878,0.60214067,0.0,0.0,0.0
615,1778446529770,616.0,-0.14912845,-1.2569878,0.60214067,0.0,0.0,0.0
616,1778446529780,617.0,-0.14912845,-1.2569878,0.60214067,0.0,0.0,0.0
617,1778446529790,618.0,-0.14912845,-1.2569878,0.60214067,0.0,0.0,0.0
618,1778446529800,619.0,-0.11067661,-1.1487997,0.5199502925,0.0,0.0,0.0
619,1778446529810,620.0,-0.0978593299999999,-1.112737,0.4925534999999999,0.0,0.0,0.0
620,1778446529820,621.0,-0.0978593299999999,-1.112737,0.4925534999999999,0.0,0.0,0.0
621,1778446529830,622.0,-0.0978593299999999,-1.112737,0.4925534999999999,0.0,0.0,0.0
622,1778446529840,623.0,-0.0978593299999999,-1.112737,0.4925534999999999,0.0,0.0,0.0
623,1778446529850,624.0,-0.0978593299999999,-1.112737,0.4925534999999999,0.0,0.0,0.0
624,1778446529860,625.0,-0.09785933,-1.112737,0.4925535,0.0,0.0,0.0
625,1778446529870,626.0,-0.0978593299999999,-1.112737,0.4925534999999999,0.0,0.0,0.0
626,1778446529880,627.0,-0.0064220179999999,-1.0754281,0.45524463,0.0,0.0,0.0
627,1778446529890,628.0,-0.006422018,-1.0754281,0.45524463,0.0,0.0,0.0
628,1778446529900,629.0,-0.0064220179999999,-1.0754281,0.45524463,0.0,0.0,0.0
629,1778446529910,630.0,-0.0064220179999999,-1.0754281,0.45524463,0.0,0.0,0.0
630,1778446529920,631.0,-0.006422018,-1.0754281,0.45524463,0.0,0.0,0.0
631,1778446529930,632.0,0.12680428,-1.0351682,0.3913302699999999,0.0,0.0,0.0
632,1778446529940,633.0,0.12680428,-1.0351682,0.3913302699999999,0.0,0.0,0.0
633,1778446529950,634.0,0.12680428,-1.0351682,0.39133027,0.0,0.0,0.0
634,1778446529960,635.0,0.1917074399999999,-1.0079816666666666,0.3527369966666667,0.0,0.0,0.0
635,1778446529970,636.0,0.3455351666666666,-0.9631346,0.2645922533333333,0.0,0.0,0.0
636,1778446529980,637.0,0.40622324,-0.9475077,0.2301682,0.0,0.0,0.0
637,1778446529990,638.0,0.4062232399999999,-0.9475077,0.2301681999999999,0.0,0.0,0.0
638,1778446530000,639.0,0.40622324,-0.9475077,0.2301682,0.0,0.0,0.0
639,1778446530010,640.0,0.4062232399999999,-0.9475077,0.2301681999999999,0.0,0.0,0.0
640,1778446530020,641.0,0.4062232399999999,-0.9475077,0.2301681999999999,0.0,0.0,0.0
641,1778446530030,642.0,0.4062232399999999,-0.9475077,0.2301681999999999,0.0,0.0,0.0
642,1778446530040,643.0,0.40622324,-0.9475077,0.2301682,0.0,0.0,0.0
643,1778446530050,644.0,0.4062232399999999,-0.9475077,0.2301681999999999,0.0,0.0,0.0
644,1778446530060,645.0,0.4062232399999999,-0.9475077,0.2301681999999999,0.0,0.0,0.0
645,1778446530070,646.0,0.42642966,-0.938486275,0.2221941925,0.0,0.0,0.0
646,1778446530080,647.0,0.48704892,-0.911422,0.19827217,0.0,0.0,0.0
647,1778446530090,648.0,0.48704892,-0.911422,0.19827217,0.0,0.0,0.0
648,1778446530100,649.0,0.48704892,-0.911422,0.19827217,0.0,0.0,0.0
649,1778446530110,650.0,0.48704892,-0.911422,0.19827217,0.0,0.0,0.0
650,1778446530120,651.0,0.4999643133333333,-0.897421,0.1675178366666666,0.0,0.0,0.0
651,1778446530130,652.0,0.5257951,-0.869419,0.10600917,0.0,0.0,0.0
652,1778446530140,653.0,0.5257951,-0.869419,0.10600917,0.0,0.0,0.0
653,1778446530150,654.0,0.5257951,-0.869419,0.10600917,0.0,0.0,0.0
654,1778446530160,655.0,0.5257951,-0.869419,0.10600917,0.0,0.0,0.0
655,1778446530170,656.0,0.5257951,-0.869419,0.10600917,0.0,0.0,0.0
656,1778446530180,657.0,0.5257951,-0.869419,0.10600917,0.0,0.0,0.0
657,1778446530190,658.0,0.5257951,-0.869419,0.10600917,0.0,0.0,0.0
658,1778446530200,659.0,0.5124668933333334,-0.7234403666666666,-0.1623904233333333,0.0,0.0,0.0
659,1778446530210,660.0,0.5107034,-0.7209939,-0.18481651,0.0,0.0,0.0
660,1778446530220,661.0,0.5107034,-0.7209939,-0.18481651,0.0,0.0,0.0
661,1778446530230,662.0,0.5374770866666667,-0.6885474,-0.2551172266666666,0.0,0.0,0.0
662,1778446530240,663.0,0.6764474866666667,-0.5907594,-0.3982976533333333,0.0,0.0,0.0
663,1778446530250,664.0,0.719159,-0.5743119,-0.39958715,0.0,0.0,0.0
664,1778446530260,665.0,0.719159,-0.5743119,-0.39958715,0.0,0.0,0.0
665,1778446530270,666.0,0.719159,-0.5743119,-0.39958715,0.0,0.0,0.0
666,1778446530280,667.0,0.719159,-0.5743119,-0.39958715,0.0,0.0,0.0
667,1778446530290,668.0,0.719159,-0.5743119,-0.39958715,0.0,0.0,0.0
668,1778446530300,669.0,0.719159,-0.5743119,-0.39958715,0.0,0.0,0.0
669,1778446530310,670.0,0.72983944,-0.57247705,-0.418394495,0.0,0.0,0.0
670,1778446530320,671.0,0.76188076,-0.5669725,-0.47481653,0.0,0.0,0.0
671,1778446530330,672.0,0.76188076,-0.5669725,-0.47481653,0.0,0.0,0.0
672,1778446530340,673.0,0.76188076,-0.5669725,-0.47481653,0.0,0.0,0.0
673,1778446530350,674.0,0.8924923866666666,-0.5403364133333333,-0.52802751,0.0,0.0,0.0
674,1778446530360,675.0,0.9577982,-0.52701837,-0.554633,0.0,0.0,0.0
675,1778446530370,676.0,0.9577982,-0.52701837,-0.554633,0.0,0.0,0.0
676,1778446530380,677.0,0.9577982,-0.52701837,-0.554633,0.0,0.0,0.0
677,1778446530390,678.0,0.9577982,-0.52701837,-0.554633,0.0,0.0,0.0
678,1778446530400,679.0,0.9577982,-0.52701837,-0.554633,0.0,0.0,0.0
679,1778446530410,680.0,0.9903517333333336,-0.5014628133333333,-0.5707390333333334,0.0,0.0,0.0
680,1778446530420,681.0,1.0554588,-0.4503517,-0.6029511,0.0,0.0,0.0
681,1778446530430,682.0,1.058481233333333,-0.4385627,-0.6080836199999999,0.0,0.0,0.0
682,1778446530440,683.0,1.0645261,-0.4149847,-0.61834866,0.0,0.0,0.0
683,1778446530450,684.0,1.0645261,-0.4149847,-0.61834866,0.0,0.0,0.0
684,1778446530460,685.0,1.0645261,-0.4149847,-0.61834866,0.0,0.0,0.0
685,1778446530470,686.0,1.0645261,-0.4149847,-0.61834866,0.0,0.0,0.0
686,1778446530480,687.0,1.0399287,-0.3754332333333334,-0.6456676866666666,0.0,0.0,0.0
687,1778446530490,688.0,1.02763,-0.3556575,-0.6593272,0.0,0.0,0.0
688,1778446530500,689.0,1.02763,-0.3556575,-0.6593272,0.0,0.0,0.0
689,1778446530510,690.0,1.02763,-0.3556575,-0.6593272,0.0,0.0,0.0
690,1778446530520,691.0,1.02763,-0.3556575,-0.6593272,0.0,0.0,0.0
691,1778446530530,692.0,1.008262,-0.3104994966666667,-0.6822629666666667,0.0,0.0,0.0
692,1778446530540,693.0,0.969526,-0.22018349,-0.7281345,0.0,0.0,0.0
693,1778446530550,694.0,0.969526,-0.22018349,-0.7281345,0.0,0.0,0.0
694,1778446530560,695.0,0.969526,-0.22018349,-0.7281345,0.0,0.0,0.0
695,1778446530570,696.0,0.969526,-0.22018349,-0.7281345,0.0,0.0,0.0
696,1778446530580,697.0,0.969526,-0.22018349,-0.7281345,0.0,0.0,0.0
697,1778446530590,698.0,0.964419,-0.18215597,-0.74128443,0.0,0.0,0.0
698,1778446530600,699.0,1.0022477,-0.1235474,-0.756682,0.0,0.0,0.0
699,1778446530610,700.0,1.0022477,-0.1235474,-0.756682,0.0,0.0,0.0
700,1778446530620,701.0,1.0022477,-0.1235474,-0.756682,0.0,0.0,0.0
701,1778446530630,702.0,1.0029587000000002,-0.0906192675,-0.7745183499999999,0.0,0.0,0.0
702,1778446530640,703.0,1.0036697,-0.057691135,-0.7923547,0.0,0.0,0.0
703,1778446530650,704.0,1.0036697,-0.057691135,-0.7923547000000001,0.0,0.0,0.0
704,1778446530660,705.0,0.9677829,-0.018348623,-0.8093730999999998,0.0,0.0,0.0
705,1778446530670,706.0,0.9677829,-0.018348623,-0.8093730999999998,0.0,0.0,0.0
706,1778446530680,707.0,0.9677829,-0.018348623,-0.8093730999999998,0.0,0.0,0.0
707,1778446530690,708.0,0.9677829,-0.018348623,-0.8093730999999998,0.0,0.0,0.0
708,1778446530700,709.0,0.9677829,-0.018348623,-0.8093730999999998,0.0,0.0,0.0
709,1778446530710,710.0,0.9677829,-0.018348623,-0.8093730999999998,0.0,0.0,0.0
710,1778446530720,711.0,0.9677829,-0.018348623,-0.8093731,0.0,0.0,0.0
711,1778446530730,712.0,0.9677829,-0.018348623,-0.8093730999999998,0.0,0.0,0.0
712,1778446530740,713.0,0.9677829,-0.018348623,-0.8093730999999998,0.0,0.0,0.0
713,1778446530750,714.0,0.9677829,-0.018348623,-0.8093730999999998,0.0,0.0,0.0
714,1778446530760,715.0,0.9677829,-0.018348623,-0.8093730999999998,0.0,0.0,0.0
715,1778446530770,716.0,0.9677829,-0.018348623,-0.8093730999999998,0.0,0.0,0.0
716,1778446530780,717.0,0.9677829,-0.018348623,-0.8093730999999998,0.0,0.0,0.0
717,1778446530790,718.0,0.9677829,-0.018348623,-0.8093731,0.0,0.0,0.0
718,1778446530800,719.0,0.9677829,-0.018348623,-0.8093730999999998,0.0,0.0,0.0
719,1778446530810,720.0,0.9677829,-0.018348623,-0.8093730999999998,0.0,0.0,0.0
720,1778446530820,721.0,1.0382620333333332,-0.0026503565333333,-0.8372425866666666,0.0,0.0,0.0
721,1778446530830,722.0,1.0735016,0.0051987767,-0.85117733,0.0,0.0,0.0
722,1778446530840,723.0,1.0735016,0.0051987767,-0.85117733,0.0,0.0,0.0
723,1778446530850,724.0,1.0735016,0.0051987767,-0.85117733,0.0,0.0,0.0
724,1778446530860,725.0,1.0735016,0.0051987767,-0.85117733,0.0,0.0,0.0
725,1778446530870,726.0,1.172105,0.0113863409,-0.8746228233333334,0.0,0.0,0.0
726,1778446530880,727.0,1.2214067,0.014480123,-0.88634557,0.0,0.0,0.0
727,1778446530890,728.0,1.2214067,0.014480123,-0.88634557,0.0,0.0,0.0
728,1778446530900,729.0,1.25555815,0.0162079509999999,-0.945259985,0.0,0.0,0.0
729,1778446530910,730.0,1.2897096,0.017935779,-1.0041744,0.0,0.0,0.0
730,1778446530920,731.0,1.2897096,0.017935779,-1.0041744,0.0,0.0,0.0
731,1778446530930,732.0,1.2897096,0.017935779,-1.0041744,0.0,0.0,0.0
732,1778446530940,733.0,1.2897096,0.017935779,-1.0041744,0.0,0.0,0.0
733,1778446530950,734.0,1.2897096,0.017935779,-1.0041744,0.0,0.0,0.0
734,1778446530960,735.0,1.3416973333333333,0.0174260953333333,-1.0766514333333332,0.0,0.0,0.0
735,1778446530970,736.0,1.4456728,0.016406728,-1.2216055,0.0,0.0,0.0
736,1778446530980,737.0,1.4456728,0.016406728,-1.2216055,0.0,0.0,0.0
737,1778446530990,738.0,1.4456728,0.016406728,-1.2216055,0.0,0.0,0.0
738,1778446531000,739.0,1.4456728,0.016406728,-1.2216055,0.0,0.0,0.0
739,1778446531010,740.0,1.4456728,0.016406728,-1.2216055,0.0,0.0,0.0
740,1778446531020,741.0,1.4456728,0.016406728,-1.2216055,0.0,0.0,0.0
741,1778446531030,742.0,1.4456728,0.016406728,-1.2216055,0.0,0.0,0.0
742,1778446531040,743.0,1.5685016,0.03088685,-1.3505658,0.0,0.0,0.0
743,1778446531050,744.0,1.5685016,0.03088685,-1.3505658,0.0,0.0,0.0
744,1778446531060,745.0,1.5685016,0.03088685,-1.3505658,0.0,0.0,0.0
745,1778446531070,746.0,1.6475332,-0.00961264,-1.5161722666666666,0.0,0.0,0.0
746,1778446531080,747.0,1.687049,-0.029862385,-1.5989755,0.0,0.0,0.0
747,1778446531090,748.0,1.687049,-0.029862385,-1.5989755,0.0,0.0,0.0
748,1778446531100,749.0,1.687049,-0.029862385,-1.5989755,0.0,0.0,0.0
749,1778446531110,750.0,1.687049,-0.029862385,-1.5989755,0.0,0.0,0.0
750,1778446531120,751.0,1.6527064,0.02762997,-1.5013303,0.0,0.0,0.0
751,1778446531130,752.0,1.6527064,0.02762997,-1.5013303,0.0,0.0,0.0
752,1778446531140,753.0,1.6527064,0.02762997,-1.5013303,0.0,0.0,0.0
753,1778446531150,754.0,1.6527064,0.02762997,-1.5013303,0.0,0.0,0.0
754,1778446531160,755.0,1.6888226333333334,0.0067635066666666,-1.5347655333333332,0.0,0.0,0.0
755,1778446531170,756.0,1.7610551,-0.03496942,-1.601636,0.0,0.0,0.0
756,1778446531180,757.0,1.7610551,-0.03496942,-1.601636,0.0,0.0,0.0
757,1778446531190,758.0,1.7610551,-0.03496942,-1.601636,0.0,0.0,0.0
758,1778446531200,759.0,1.7610551,-0.03496942,-1.601636,0.0,0.0,0.0
759,1778446531210,760.0,1.794969466666667,-0.0996279366666666,-1.5496482666666669,0.0,0.0,0.0
760,1778446531220,761.0,1.916077975,-0.25915137,-1.42319575,0.0,0.0,0.0
761,1778446531230,762.0,1.9338379,-0.26922017,-1.4157034,0.0,0.0,0.0
762,1778446531240,763.0,1.9338379,-0.26922017,-1.4157034,0.0,0.0,0.0
763,1778446531250,764.0,1.9397859666666664,-0.31260957,-1.4393833,0.0,0.0,0.0
764,1778446531260,765.0,1.9638075,-0.46279815,-1.4962232,0.0,0.0,0.0
765,1778446531270,766.0,1.8804281,-0.59999996,-1.4589144,0.0,0.0,0.0
766,1778446531280,767.0,1.8804281000000005,-0.59999996,-1.4589144,0.0,0.0,0.0
767,1778446531290,768.0,1.8804281000000005,-0.59999996,-1.4589144,0.0,0.0,0.0
768,1778446531300,769.0,1.8804281,-0.59999996,-1.4589144,0.0,0.0,0.0
769,1778446531310,770.0,1.8804281000000005,-0.59999996,-1.4589144,0.0,0.0,0.0
770,1778446531320,771.0,1.833058033333333,-0.6435575866666667,-1.3783232,0.0,0.0,0.0
771,1778446531330,772.0,1.809373,-0.6653364,-1.3380276,0.0,0.0,0.0
772,1778446531340,773.0,1.809373,-0.6653364,-1.3380276,0.0,0.0,0.0
773,1778446531350,774.0,1.809373,-0.6653364,-1.3380276,0.0,0.0,0.0
774,1778446531360,775.0,1.809373,-0.6653364,-1.3380276,0.0,0.0,0.0
775,1778446531370,776.0,1.809373,-0.6653364,-1.3380276,0.0,0.0,0.0
776,1778446531380,777.0,1.809373,-0.6653364,-1.3380276,0.0,0.0,0.0
777,1778446531390,778.0,1.809373,-0.6653364,-1.3380276,0.0,0.0,0.0
778,1778446531400,779.0,1.7769265666666667,-0.6688379333333333,-1.2806677333333332,0.0,0.0,0.0
779,1778446531410,780.0,1.7120337,-0.675841,-1.165948,0.0,0.0,0.0
780,1778446531420,781.0,1.7120337,-0.675841,-1.165948,0.0,0.0,0.0
781,1778446531430,782.0,1.7120337,-0.675841,-1.165948,0.0,0.0,0.0
782,1778446531440,783.0,1.5443425,-0.73711014,-0.8753364,0.0,0.0,0.0
783,1778446531450,784.0,1.5443425,-0.73711014,-0.8753364,0.0,0.0,0.0
784,1778446531460,785.0,1.5443425,-0.73711014,-0.8753364,0.0,0.0,0.0
785,1778446531470,786.0,1.5443425,-0.73711014,-0.8753364,0.0,0.0,0.0
786,1778446531480,787.0,1.5443425,-0.73711014,-0.8753364,0.0,0.0,0.0
787,1778446531490,788.0,1.5443425,-0.73711014,-0.8753364,0.0,0.0,0.0
788,1778446531500,789.0,1.5443425,-0.73711014,-0.8753364,0.0,0.0,0.0
789,1778446531510,790.0,1.5443425,-0.73711014,-0.8753364,0.0,0.0,0.0
790,1778446531520,791.0,1.5443425,-0.73711014,-0.8753364,0.0,0.0,0.0
791,1778446531530,792.0,1.5443425,-0.73711014,-0.8753364,0.0,0.0,0.0
792,1778446531540,793.0,1.5443425,-0.73711014,-0.8753364,0.0,0.0,0.0
793,1778446531550,794.0,1.5443425,-0.73711014,-0.8753364,0.0,0.0,0.0
794,1778446531560,795.0,1.5443425,-0.73711014,-0.8753364,0.0,0.0,0.0
795,1778446531570,796.0,1.5443425,-0.73711014,-0.8753364,0.0,0.0,0.0
796,1778446531580,797.0,1.5064882666666666,-0.7488328599999999,-0.8191997999999999,0.0,0.0,0.0
797,1778446531590,798.0,1.4307798,-0.7722783,-0.7069266,0.0,0.0,0.0
798,1778446531600,799.0,1.1574566666666666,-0.8371712733333334,-0.5839296666666667,0.0,0.0,0.0
799,1778446531610,800.0,1.0207951,-0.86961776,-0.5224312,0.0,0.0,0.0
800,1778446531620,801.0,0.7111161999999999,-0.9084556,-0.5150917,0.0,0.0,0.0
801,1778446531630,802.0,0.7111162,-0.9084556,-0.5150917,0.0,0.0,0.0
802,1778446531640,803.0,0.7111161999999999,-0.9084556,-0.5150917,0.0,0.0,0.0
803,1778446531650,804.0,0.7111161999999999,-0.9084556,-0.5150917,0.0,0.0,0.0
804,1778446531660,805.0,0.7111161999999999,-0.9084556,-0.5150917,0.0,0.0,0.0
805,1778446531670,806.0,0.7111161999999999,-0.9084556,-0.5150917,0.0,0.0,0.0
806,1778446531680,807.0,0.7111161999999999,-0.9084556,-0.5150917,0.0,0.0,0.0
807,1778446531690,808.0,0.7111161999999999,-0.9084556,-0.5150917,0.0,0.0,0.0
808,1778446531700,809.0,0.7111161999999999,-0.9084556,-0.5150917,0.0,0.0,0.0
809,1778446531710,810.0,0.7111161999999999,-0.9084556,-0.5150917,0.0,0.0,0.0
810,1778446531720,811.0,0.7111161999999999,-0.9084556,-0.5150917,0.0,0.0,0.0
811,1778446531730,812.0,0.7111161999999999,-0.9084556,-0.5150917,0.0,0.0,0.0
812,1778446531740,813.0,0.7111162,-0.9084556,-0.5150917,0.0,0.0,0.0
813,1778446531750,814.0,0.545632,-0.9315647333333332,-0.5093833,0.0,0.0,0.0
814,1778446531760,815.0,0.3618399533333333,-0.94842,-0.5062895466666667,0.0,0.0,0.0
815,1778446531770,816.0,0.15974006,-0.9590214,-0.50581044,0.0,0.0,0.0
816,1778446531780,817.0,0.0510754333333333,-0.9745515,-0.58885324,0.0,0.0,0.0
817,1778446531790,818.0,-0.16625382,-1.0056117,-0.75493884,0.0,0.0,0.0
818,1778446531800,819.0,-0.16625382,-1.0056117,-0.75493884,0.0,0.0,0.0
819,1778446531810,820.0,-0.16625382,-1.0056117,-0.75493884,0.0,0.0,0.0
820,1778446531820,821.0,-0.13353212,-1.0190673,-0.65270644,0.0,0.0,0.0
821,1778446531830,822.0,-0.13353212,-1.0190673,-0.65270644,0.0,0.0,0.0
822,1778446531840,823.0,-0.13353212,-1.0190673,-0.65270644,0.0,0.0,0.0
823,1778446531850,824.0,-0.13353212,-1.0190673,-0.65270644,0.0,0.0,0.0
824,1778446531860,825.0,-0.13353212,-1.0190673,-0.65270644,0.0,0.0,0.0
825,1778446531870,826.0,-0.13353212,-1.0190673,-0.65270644,0.0,0.0,0.0
826,1778446531880,827.0,-0.13353212,-1.0190673,-0.65270644,0.0,0.0,0.0
827,1778446531890,828.0,-0.13353212,-1.0190673,-0.65270644,0.0,0.0,0.0
828,1778446531900,829.0,-0.13649847,-1.0553517,-0.375948,0.0,0.0,0.0
829,1778446531910,830.0,-0.13649847,-1.0553517,-0.375948,0.0,0.0,0.0
830,1778446531920,831.0,-0.13649847,-1.0553517,-0.375948,0.0,0.0,0.0
831,1778446531930,832.0,-0.13649847,-1.0553517,-0.375948,0.0,0.0,0.0
832,1778446531940,833.0,-0.13649847,-1.0553517,-0.375948,0.0,0.0,0.0
833,1778446531950,834.0,-0.1179459766666666,-1.1195005,-0.1124006066666666,0.0,0.0,0.0
834,1778446531960,835.0,-0.10866973,-1.1515749,0.01937309,0.0,0.0,0.0
835,1778446531970,836.0,-0.10866973,-1.1515749,0.01937309,0.0,0.0,0.0
836,1778446531980,837.0,-0.10866973,-1.1515749,0.01937309,0.0,0.0,0.0
837,1778446531990,838.0,-0.10866973,-1.1515749,0.01937309,0.0,0.0,0.0
838,1778446532000,839.0,-0.10802243,-1.1723037333333333,0.0950101966666666,0.0,0.0,0.0
839,1778446532010,840.0,-0.10672783,-1.2137614,0.24628441,0.0,0.0,0.0
840,1778446532020,841.0,-0.10672783,-1.2137614,0.24628441,0.0,0.0,0.0
841,1778446532030,842.0,-0.10672783,-1.2137614,0.24628441,0.0,0.0,0.0
842,1778446532040,843.0,-0.10859837,-1.2392456333333337,0.30706933,0.0,0.0,0.0
843,1778446532050,844.0,-0.11233945,-1.2902141,0.42863917,0.0,0.0,0.0
844,1778446532060,845.0,-0.11233945,-1.2902141,0.42863917,0.0,0.0,0.0
845,1778446532070,846.0,-0.11233945,-1.2902141,0.42863917,0.0,0.0,0.0
846,1778446532080,847.0,-0.11233945,-1.2902141,0.42863917,0.0,0.0,0.0
847,1778446532090,848.0,-0.11233945,-1.2902141,0.42863917,0.0,0.0,0.0
848,1778446532100,849.0,-0.1573955166666666,-1.344719633333333,0.5506982766666667,0.0,0.0,0.0
849,1778446532110,850.0,-0.17992355,-1.3719724,0.61172783,0.0,0.0,0.0
850,1778446532120,851.0,-0.1799235499999999,-1.3719724,0.61172783,0.0,0.0,0.0
851,1778446532130,852.0,-0.1799235499999999,-1.3719724,0.61172783,0.0,0.0,0.0
852,1778446532140,853.0,-0.2790061166666666,-1.3955504666666665,0.6710550366666667,0.0,0.0,0.0
853,1778446532150,854.0,-0.474059625,-1.400561975,0.6867010549999999,0.0,0.0,0.0
854,1778446532160,855.0,-0.9105963,-1.3802294,0.6446483,0.0,0.0,0.0
855,1778446532170,856.0,-0.9105963,-1.3802294,0.6446483,0.0,0.0,0.0
856,1778446532180,857.0,-0.9105963,-1.3802294,0.6446483,0.0,0.0,0.0
857,1778446532190,858.0,-0.9105963,-1.3802294,0.6446483,0.0,0.0,0.0
858,1778446532200,859.0,-0.9105963,-1.3802294,0.6446483,0.0,0.0,0.0
859,1778446532210,860.0,-0.9105963,-1.3802294,0.6446483,0.0,0.0,0.0
860,1778446532220,861.0,-0.9105963,-1.3802294,0.6446483,0.0,0.0,0.0
861,1778446532230,862.0,-0.9105963,-1.3802294,0.6446483,0.0,0.0,0.0
862,1778446532240,863.0,-1.6201835,-1.2228287,0.42426607,0.0,0.0,0.0
863,1778446532250,864.0,-1.6201835000000002,-1.2228287,0.42426607,0.0,0.0,0.0
864,1778446532260,865.0,-1.6201835000000002,-1.2228287,0.42426607,0.0,0.0,0.0
865,1778446532270,866.0,-1.6201835000000002,-1.2228287,0.42426607,0.0,0.0,0.0
866,1778446532280,867.0,-1.6201835000000002,-1.2228287,0.42426607,0.0,0.0,0.0
867,1778446532290,868.0,-1.68955275,-1.2059327,0.41603212,0.0,0.0,0.0
868,1778446532300,869.0,-1.8976605,-1.1552447,0.3913302699999999,0.0,0.0,0.0
869,1778446532310,870.0,-1.8976605,-1.1552447,0.3913302699999999,0.0,0.0,0.0
870,1778446532320,871.0,-1.8976605,-1.1552447,0.39133027,0.0,0.0,0.0
871,1778446532330,872.0,-1.8976605,-1.1552447,0.3913302699999999,0.0,0.0,0.0
872,1778446532340,873.0,-1.8976605,-1.1552447,0.3913302699999999,0.0,0.0,0.0
873,1778446532350,874.0,-1.8976605,-1.1552447,0.3913302699999999,0.0,0.0,0.0
874,1778446532360,875.0,-1.739120775,-1.107515325,0.492530585,0.0,0.0,0.0
875,1778446532370,876.0,-1.2379205,-1.0621866,0.7544343000000001,0.0,0.0,0.0
876,1778446532380,877.0,-1.2379205,-1.0621866,0.7544343000000001,0.0,0.0,0.0
877,1778446532390,878.0,-1.2379205,-1.0621866,0.7544343000000001,0.0,0.0,0.0
878,1778446532400,879.0,-1.2379205,-1.0621866,0.7544343000000001,0.0,0.0,0.0
879,1778446532410,880.0,-1.1119979666666666,-1.1153975333333337,0.8769623000000001,0.0,0.0,0.0
880,1778446532420,881.0,-1.0490367,-1.142003,0.9382262999999998,0.0,0.0,0.0
881,1778446532430,882.0,-1.0490367,-1.142003,0.9382262999999998,0.0,0.0,0.0
882,1778446532440,883.0,-1.0490367,-1.142003,0.9382262999999998,0.0,0.0,0.0
883,1778446532450,884.0,-1.1425127333333334,-1.1318399,1.0619776,0.0,0.0,0.0
884,1778446532460,885.0,-1.6252853333333332,-1.0763863,1.2260244666666666,0.0,0.0,0.0
885,1778446532470,886.0,-1.7731956,-1.0588226,1.1842966,0.0,0.0,0.0
886,1778446532480,887.0,-1.8786238,-1.037821075,0.983302725,0.0,0.0,0.0
887,1778446532490,888.0,-2.1949084,-0.9748165,0.3803211,0.0,0.0,0.0
888,1778446532500,889.0,-1.9650305999999995,-0.904786,0.22282875,0.0,0.0,0.0
889,1778446532510,890.0,-1.9650306,-0.904786,0.22282875,0.0,0.0,0.0
890,1778446532520,891.0,-1.9650305999999995,-0.904786,0.22282875,0.0,0.0,0.0
891,1778446532530,892.0,-1.9650306,-0.904786,0.22282875,0.0,0.0,0.0
892,1778446532540,893.0,-1.9650305999999995,-0.904786,0.22282875,0.0,0.0,0.0
893,1778446532550,894.0,-1.9528339,-0.8595617333333333,0.2355402666666667,0.0,0.0,0.0
894,1778446532560,895.0,-1.9284405,-0.7691132,0.2609633,0.0,0.0,0.0
895,1778446532570,896.0,-1.9284405,-0.7691132,0.2609633,0.0,0.0,0.0
896,1778446532580,897.0,-1.9284405,-0.7691132,0.2609633,0.0,0.0,0.0
897,1778446532590,898.0,-1.9284405,-0.7691132,0.2609633,0.0,0.0,0.0
898,1778446532600,899.0,-1.9284405,-0.7691132,0.2609633,0.0,0.0,0.0
899,1778446532610,900.0,-1.9284405,-0.7691132,0.2609633,0.0,0.0,0.0
900,1778446532620,901.0,-1.9284405,-0.7691132,0.2609633,0.0,0.0,0.0
901,1778446532630,902.0,-1.9284405,-0.7691132,0.2609633,0.0,0.0,0.0
902,1778446532640,903.0,-1.9284405,-0.7691132,0.2609633,0.0,0.0,0.0
903,1778446532650,904.0,-1.9284405,-0.7691132,0.2609633,0.0,0.0,0.0
904,1778446532660,905.0,-1.9284405,-0.7691132,0.2609633,0.0,0.0,0.0
905,1778446532670,906.0,-1.9284405,-0.7691132,0.2609633,0.0,0.0,0.0
906,1778446532680,907.0,-1.9284405,-0.7691132,0.2609633,0.0,0.0,0.0
907,1778446532690,908.0,-1.9284405,-0.7691132,0.2609633,0.0,0.0,0.0
908,1778446532700,909.0,-2.16600165,-0.73113915,0.372629975,0.0,0.0,0.0
909,1778446532710,910.0,-2.4035628,-0.6931651,0.4842966499999999,0.0,0.0,0.0
910,1778446532720,911.0,-2.4035628,-0.6931651,0.4842966499999999,0.0,0.0,0.0
911,1778446532730,912.0,-2.4035628,-0.6931651,0.4842966499999999,0.0,0.0,0.0
912,1778446532740,913.0,-2.4035628,-0.6931651,0.4842966499999999,0.0,0.0,0.0
913,1778446532750,914.0,-2.4035628,-0.6931651,0.48429665,0.0,0.0,0.0
914,1778446532760,915.0,-2.4035628,-0.6931651,0.4842966499999999,0.0,0.0,0.0
915,1778446532770,916.0,-2.700474,-0.8218093666666667,0.4713608666666666,0.0,0.0,0.0
916,1778446532780,917.0,-2.7313914,-0.8601376,0.4520948,0.0,0.0,0.0
917,1778446532790,918.0,-2.7313914,-0.8601376,0.4520948,0.0,0.0,0.0
918,1778446532800,919.0,-2.7313914,-0.8601376,0.4520948,0.0,0.0,0.0
919,1778446532810,920.0,-2.7313914,-0.8601376,0.4520948,0.0,0.0,0.0
920,1778446532820,921.0,-2.7313914,-0.8601376,0.4520948,0.0,0.0,0.0
921,1778446532830,922.0,-2.7313914,-0.8601376,0.4520948,0.0,0.0,0.0
922,1778446532840,923.0,-2.7313914,-0.8601376,0.4520948,0.0,0.0,0.0
923,1778446532850,924.0,-2.7313914,-0.8601376,0.4520948,0.0,0.0,0.0
924,1778446532860,925.0,-2.7450509333333333,-0.8743068099999999,0.40547401,0.0,0.0,0.0
925,1778446532870,926.0,-2.77237,-0.90264523,0.31223243,0.0,0.0,0.0
926,1778446532880,927.0,-2.77237,-0.90264523,0.31223243,0.0,0.0,0.0
927,1778446532890,928.0,-2.7485525,-0.8906880533333332,0.2770642299999999,0.0,0.0,0.0
928,1778446532900,929.0,-2.7009175000000005,-0.8667737,0.20672783,0.0,0.0,0.0
929,1778446532910,930.0,-2.7009175000000005,-0.8667737,0.20672783,0.0,0.0,0.0
930,1778446532920,931.0,-2.7009175000000005,-0.8667737,0.20672783,0.0,0.0,0.0
931,1778446532930,932.0,-2.62866975,-0.827958715,0.2277790499999999,0.0,0.0,0.0
932,1778446532940,933.0,-2.4119265,-0.71151376,0.29093271,0.0,0.0,0.0
933,1778446532950,934.0,-2.4537728249999997,-0.68626147,0.3552025975,0.0,0.0,0.0
934,1778446532960,935.0,-2.5793118,-0.6105046,0.54801226,0.0,0.0,0.0
935,1778446532970,936.0,-2.687670666666667,-0.5672833833333333,0.6442405733333333,0.0,0.0,0.0
936,1778446532980,937.0,-2.9043884,-0.48084095,0.8366972,0.0,0.0,0.0
937,1778446532990,938.0,-2.9043884,-0.48084095,0.8366972,0.0,0.0,0.0
938,1778446533000,939.0,-2.9043884,-0.48084095,0.8366972,0.0,0.0,0.0
939,1778446533010,940.0,-2.9043884,-0.48084095,0.8366972,0.0,0.0,0.0
940,1778446533020,941.0,-2.9043884,-0.48084095,0.8366972,0.0,0.0,0.0
941,1778446533030,942.0,-2.9043884,-0.48084095,0.8366972,0.0,0.0,0.0
942,1778446533040,943.0,-3.0216055,-0.44454128,0.8366972,0.0,0.0,0.0
943,1778446533050,944.0,-3.05259945,-0.41330275,0.75275225,0.0,0.0,0.0
944,1778446533060,945.0,-3.05879824,-0.407055044,0.73596326,0.0,0.0,0.0
945,1778446533070,946.0,-3.06499703,-0.400807338,0.71917427,0.0,0.0,0.0
946,1778446533080,947.0,-3.07119582,-0.394559632,0.70238528,0.0,0.0,0.0
947,1778446533090,948.0,-3.07739461,-0.388311926,0.68559629,0.0,0.0,0.0
948,1778446533100,949.0,-3.0835934,-0.38206422,0.6688073,0.0,0.0,0.0
949,1778446533110,950.0,-3.0835934,-0.38206422,0.6688073,0.0,0.0,0.0
950,1778446533120,951.0,-3.0835934,-0.38206422,0.6688073,0.0,0.0,0.0
951,1778446533130,952.0,-3.0835934,-0.38206422,0.6688073,0.0,0.0,0.0
952,1778446533140,953.0,-3.0835934,-0.38206422,0.6688073,0.0,0.0,0.0
953,1778446533150,954.0,-3.0835934,-0.38206422,0.6688073,0.0,0.0,0.0
954,1778446533160,955.0,-3.0835934,-0.38206422,0.6688073,0.0,0.0,0.0
955,1778446533170,956.0,-3.0835934,-0.38206422,0.6688073,0.0,0.0,0.0
956,1778446533180,957.0,-3.0835934,-0.38206422,0.6688073,0.0,0.0,0.0
957,1778446533190,958.0,-3.0835934,-0.38206422,0.6688073,0.0,0.0,0.0
958,1778446533200,959.0,-3.0835934,-0.38206422,0.6688073,0.0,0.0,0.0
959,1778446533210,960.0,-3.0835934,-0.38206422,0.6688073,0.0,0.0,0.0
960,1778446533220,961.0,-3.0835934,-0.38206422,0.6688073,0.0,0.0,0.0
961,1778446533230,962.0,-3.0835934,-0.38206422,0.6688073,0.0,0.0,0.0
962,1778446533240,963.0,-3.0835934,-0.38206422,0.6688073,0.0,0.0,0.0
963,1778446533250,964.0,-3.0456727333333333,-0.33761978,0.5986748333333334,0.0,0.0,0.0
964,1778446533260,965.0,-3.0267124,-0.31539756,0.5636086,0.0,0.0,0.0
965,1778446533270,966.0,-3.0267123999999996,-0.31539756,0.5636086,0.0,0.0,0.0
966,1778446533280,967.0,-3.0267123999999996,-0.31539756,0.5636086,0.0,0.0,0.0
967,1778446533290,968.0,-2.9337104000000003,-0.2934097933333333,0.53812439,0.0,0.0,0.0
968,1778446533300,969.0,-2.7477064,-0.24943426,0.48715597,0.0,0.0,0.0
969,1778446533310,970.0,-2.7477064,-0.24943426,0.48715597,0.0,0.0,0.0
970,1778446533320,971.0,-2.7477064,-0.24943426,0.48715597,0.0,0.0,0.0
971,1778446533330,972.0,-2.7477064,-0.24943426,0.48715597,0.0,0.0,0.0
972,1778446533340,973.0,-2.7477064,-0.24943426,0.48715597,0.0,0.0,0.0
973,1778446533350,974.0,-2.7477064,-0.24943426,0.48715597,0.0,0.0,0.0
974,1778446533360,975.0,-2.7477064,-0.24943426,0.48715597,0.0,0.0,0.0
975,1778446533370,976.0,-2.7477064,-0.24943426,0.48715597,0.0,0.0,0.0
976,1778446533380,977.0,-2.7477064,-0.24943426,0.48715597,0.0,0.0,0.0
977,1778446533390,978.0,-2.7477064,-0.24943426,0.48715597,0.0,0.0,0.0
978,1778446533400,979.0,-2.782874566666667,0.1274566733333333,0.38712539,0.0,0.0,0.0
979,1778446533410,980.0,-2.8693118,0.30714068,0.42426607,0.0,0.0,0.0
980,1778446533420,981.0,-2.8693118,0.30714068,0.42426607,0.0,0.0,0.0
981,1778446533430,982.0,-2.8693118,0.30714068,0.42426607,0.0,0.0,0.0
982,1778446533440,983.0,-2.8693118,0.30714068,0.42426607,0.0,0.0,0.0
983,1778446533450,984.0,-2.8693118,0.30714068,0.42426607,0.0,0.0,0.0
984,1778446533460,985.0,-2.5847044,0.2926656533333333,0.2065290633333333,0.0,0.0,0.0
985,1778446533470,986.0,-2.3401274666666665,0.2633078533333333,0.0559684056666666,0.0,0.0,0.0
986,1778446533480,987.0,-2.135581,0.21906728,-0.027415903,0.0,0.0,0.0
987,1778446533490,988.0,-2.088486233333333,0.2166207999999999,-0.0410754353333333,0.0,0.0,0.0
988,1778446533500,989.0,-1.7829408999999998,0.1935117266666667,-0.0893934799999999,0.0,0.0,0.0
989,1778446533510,990.0,-1.658765225,0.1224770625,-0.0881957225,0.0,0.0,0.0
990,1778446533520,991.0,-1.6525993,0.10183486,-0.08429664,0.0,0.0,0.0
991,1778446533530,992.0,-1.6525993,0.10183486,-0.08429664,0.0,0.0,0.0
992,1778446533540,993.0,-1.6525993,0.10183486,-0.0842966399999999,0.0,0.0,0.0
993,1778446533550,994.0,-1.6525993,0.10183486,-0.0842966399999999,0.0,0.0,0.0
994,1778446533560,995.0,-1.6525993,0.10183486,-0.0842966399999999,0.0,0.0,0.0
995,1778446533570,996.0,-1.6525993,0.10183486,-0.0842966399999999,0.0,0.0,0.0
996,1778446533580,997.0,-1.6525993,0.10183486,-0.0842966399999999,0.0,0.0,0.0
997,1778446533590,998.0,-1.6640825333333336,0.0758052993333333,-0.0931651419999999,0.0,0.0,0.0
998,1778446533600,999.0,-1.687049,0.0237461779999999,-0.110902146,0.0,0.0,0.0
999,1778446533610,1000.0,-1.9089348,-0.1462130473333333,-0.231941882,0.0,0.0,0.0
1000,1778446533620,1001.0,-2.0198777,-0.2311926599999999,-0.29246175,0.0,0.0,0.0
