id,timestamp,id,acc_x,acc_y,acc_z,gyro_x,gyro_y,gyro_z
0,1778446471320,1.0,0.4963303,0.70662075,0.52232414,0.0,0.0,0.0
1,1778446471330,2.0,0.500152915,0.7063914125,0.54648317,0.0,0.0,0.0
2,1778446471340,3.0,0.50397553,0.706162075,0.5706422,0.0,0.0,0.0
3,1778446471350,4.0,0.507798145,0.7059327375,0.5948012300000001,0.0,0.0,0.0
4,1778446471360,5.0,0.51162076,0.7057034,0.61896026,0.0,0.0,0.0
5,1778446471370,6.0,0.47094804,0.71151376,0.6570795,0.0,0.0,0.0
6,1778446471380,7.0,0.47094804,0.71151376,0.6570795,0.0,0.0,0.0
7,1778446471390,8.0,0.47094804,0.71151376,0.6570795,0.0,0.0,0.0
8,1778446471400,9.0,0.4709480399999999,0.71151376,0.6570795,0.0,0.0,0.0
9,1778446471410,10.0,0.4709480399999999,0.71151376,0.6570795,0.0,0.0,0.0
10,1778446471420,11.0,0.4709480399999999,0.71151376,0.6570795,0.0,0.0,0.0
11,1778446471430,12.0,0.4709480399999999,0.71151376,0.6570795,0.0,0.0,0.0
12,1778446471440,13.0,0.4709480399999999,0.71151376,0.6570795,0.0,0.0,0.0
13,1778446471450,14.0,0.4709480399999999,0.71151376,0.6570795,0.0,0.0,0.0
14,1778446471460,15.0,0.44275996,0.708103955,0.6896483200000001,0.0,0.0,0.0
15,1778446471470,16.0,0.41457188,0.70469415,0.72221714,0.0,0.0,0.0
16,1778446471480,17.0,0.41457188,0.70469415,0.72221714,0.0,0.0,0.0
17,1778446471490,18.0,0.41457188,0.70469415,0.72221714,0.0,0.0,0.0
18,1778446471500,19.0,0.3914678966666666,0.7077828433333333,0.7331243733333334,0.0,0.0,0.0
19,1778446471510,20.0,0.3683639133333333,0.7108715366666667,0.7440316066666667,0.0,0.0,0.0
20,1778446471520,21.0,0.34525993,0.71396023,0.75493884,0.0,0.0,0.0
21,1778446471530,22.0,0.3452599299999999,0.71396023,0.75493884,0.0,0.0,0.0
22,1778446471540,23.0,0.34525993,0.71396023,0.75493884,0.0,0.0,0.0
23,1778446471550,24.0,0.3452599299999999,0.71396023,0.75493884,0.0,0.0,0.0
24,1778446471560,25.0,0.3452599299999999,0.71396023,0.75493884,0.0,0.0,0.0
25,1778446471570,26.0,0.34525993,0.71396023,0.75493884,0.0,0.0,0.0
26,1778446471580,27.0,0.34525993,0.71396023,0.75493884,0.0,0.0,0.0
27,1778446471590,28.0,0.34525993,0.71396023,0.75493884,0.0,0.0,0.0
28,1778446471600,29.0,0.3452599299999999,0.71396023,0.75493884,0.0,0.0,0.0
29,1778446471610,30.0,0.3452599299999999,0.71396023,0.75493884,0.0,0.0,0.0
30,1778446471620,31.0,0.34525993,0.71396023,0.75493884,0.0,0.0,0.0
31,1778446471630,32.0,0.3452599299999999,0.71396023,0.75493884,0.0,0.0,0.0
32,1778446471640,33.0,0.3452599299999999,0.71396023,0.75493884,0.0,0.0,0.0
33,1778446471650,34.0,0.34525993,0.71396023,0.75493884,0.0,0.0,0.0
34,1778446471660,35.0,0.3452599299999999,0.71396023,0.75493884,0.0,0.0,0.0
35,1778446471670,36.0,0.34525993,0.71396023,0.75493884,0.0,0.0,0.0
36,1778446471680,37.0,0.3452599299999999,0.71396023,0.75493884,0.0,0.0,0.0
37,1778446471690,38.0,0.3452599299999999,0.71396023,0.75493884,0.0,0.0,0.0
38,1778446471700,39.0,0.3347897574999999,0.7037194075,0.7580810474999999,0.0,0.0,0.0
39,1778446471710,40.0,0.3312997,0.7003058000000001,0.75912845,0.0,0.0,0.0
40,1778446471720,41.0,0.3312997,0.7003058000000001,0.75912845,0.0,0.0,0.0
41,1778446471730,42.0,0.3312997,0.7003058,0.75912845,0.0,0.0,0.0
42,1778446471740,43.0,0.3312997,0.7003058000000001,0.75912845,0.0,0.0,0.0
43,1778446471750,44.0,0.3312997,0.7003058,0.75912845,0.0,0.0,0.0
44,1778446471760,45.0,0.3374159,0.6924617999999999,0.7281345,0.0,0.0,0.0
45,1778446471770,46.0,0.3374159,0.6924617999999999,0.7281345,0.0,0.0,0.0
46,1778446471780,47.0,0.3374159,0.6924617999999999,0.7281345,0.0,0.0,0.0
47,1778446471790,48.0,0.3624847025,0.6975765,0.702297375,0.0,0.0,0.0
48,1778446471800,49.0,0.37084097,0.6992813999999999,0.693685,0.0,0.0,0.0
49,1778446471810,50.0,0.37084097,0.6992813999999999,0.693685,0.0,0.0,0.0
50,1778446471820,51.0,0.37084097,0.6992814,0.693685,0.0,0.0,0.0
51,1778446471830,52.0,0.37084097,0.6992813999999999,0.693685,0.0,0.0,0.0
52,1778446471840,53.0,0.37084097,0.6992813999999999,0.693685,0.0,0.0,0.0
53,1778446471850,54.0,0.37084097,0.6992813999999999,0.693685,0.0,0.0,0.0
54,1778446471860,55.0,0.37542814,0.69888383,0.6672783,0.0,0.0,0.0
55,1778446471870,56.0,0.3754281400000001,0.6988838300000001,0.6672783,0.0,0.0,0.0
56,1778446471880,57.0,0.37542814,0.69888383,0.6672783,0.0,0.0,0.0
57,1778446471890,58.0,0.3754281400000001,0.6988838300000001,0.6672783,0.0,0.0,0.0
58,1778446471900,59.0,0.3754281400000001,0.6988838300000001,0.6672783,0.0,0.0,0.0
59,1778446471910,60.0,0.3754281400000001,0.6988838300000001,0.6672783,0.0,0.0,0.0
60,1778446471920,61.0,0.3754281400000001,0.6988838300000001,0.6672783,0.0,0.0,0.0
61,1778446471930,62.0,0.37542814,0.69888383,0.6672783,0.0,0.0,0.0
62,1778446471940,63.0,0.41457188,0.7127115533333334,0.6215749333333332,0.0,0.0,0.0
63,1778446471950,64.0,0.49285936,0.740367,0.5301682,0.0,0.0,0.0
64,1778446471960,65.0,0.49285936,0.740367,0.5301682,0.0,0.0,0.0
65,1778446471970,66.0,0.49285936,0.740367,0.5301682,0.0,0.0,0.0
66,1778446471980,67.0,0.49285936,0.740367,0.5301682,0.0,0.0,0.0
67,1778446471990,68.0,0.49285936,0.740367,0.5301682,0.0,0.0,0.0
68,1778446472000,69.0,0.49285936,0.740367,0.5301682,0.0,0.0,0.0
69,1778446472010,70.0,0.49285936,0.740367,0.5301682,0.0,0.0,0.0
70,1778446472020,71.0,0.38399082,0.69785935,0.664419,0.0,0.0,0.0
71,1778446472030,72.0,0.38399082,0.69785935,0.664419,0.0,0.0,0.0
72,1778446472040,73.0,0.38399082,0.69785935,0.664419,0.0,0.0,0.0
73,1778446472050,74.0,0.38399082,0.69785935,0.664419,0.0,0.0,0.0
74,1778446472060,75.0,0.38399082,0.69785935,0.664419,0.0,0.0,0.0
75,1778446472070,76.0,0.38399082,0.69785935,0.664419,0.0,0.0,0.0
76,1778446472080,77.0,0.38399082,0.69785935,0.664419,0.0,0.0,0.0
77,1778446472090,78.0,0.420229345,0.7191131749999999,0.60218655,0.0,0.0,0.0
78,1778446472100,79.0,0.45646787,0.740367,0.5399541,0.0,0.0,0.0
79,1778446472110,80.0,0.45646787,0.740367,0.5399541,0.0,0.0,0.0
80,1778446472120,81.0,0.45646787,0.740367,0.5399541,0.0,0.0,0.0
81,1778446472130,82.0,0.45646787,0.740367,0.5399541,0.0,0.0,0.0
82,1778446472140,83.0,0.45646787,0.740367,0.5399541,0.0,0.0,0.0
83,1778446472150,84.0,0.45646787,0.740367,0.5399541,0.0,0.0,0.0
84,1778446472160,85.0,0.45646787,0.740367,0.5399541,0.0,0.0,0.0
85,1778446472170,86.0,0.45646787,0.740367,0.5399541,0.0,0.0,0.0
86,1778446472180,87.0,0.45646787,0.740367,0.5399541,0.0,0.0,0.0
87,1778446472190,88.0,0.45646787,0.740367,0.5399541,0.0,0.0,0.0
88,1778446472200,89.0,0.45646787,0.740367,0.5399541,0.0,0.0,0.0
89,1778446472210,90.0,0.45646787,0.740367,0.5399541,0.0,0.0,0.0
90,1778446472220,91.0,0.45646787,0.740367,0.5399541,0.0,0.0,0.0
91,1778446472230,92.0,0.5301682,0.7415902600000001,0.512844,0.0,0.0,0.0
92,1778446472240,93.0,0.5301682,0.7415902600000001,0.512844,0.0,0.0,0.0
93,1778446472250,94.0,0.5301682,0.7415902600000001,0.512844,0.0,0.0,0.0
94,1778446472260,95.0,0.5301682,0.74159026,0.512844,0.0,0.0,0.0
95,1778446472270,96.0,0.5301682,0.74159026,0.512844,0.0,0.0,0.0
96,1778446472280,97.0,0.5301682,0.7415902600000001,0.512844,0.0,0.0,0.0
97,1778446472290,98.0,0.5282416,0.7888838000000001,0.4774770399999999,0.0,0.0,0.0
98,1778446472300,99.0,0.5282416,0.8155912666666666,0.4761824666666667,0.0,0.0,0.0
99,1778446472310,100.0,0.5282416,0.828945,0.47553518,0.0,0.0,0.0
100,1778446472320,101.0,0.5282416,0.828945,0.47553518,0.0,0.0,0.0
101,1778446472330,102.0,0.5282416,0.828945,0.47553518,0.0,0.0,0.0
102,1778446472340,103.0,0.5282416,0.828945,0.47553518,0.0,0.0,0.0
103,1778446472350,104.0,0.5282416,0.828945,0.47553518,0.0,0.0,0.0
104,1778446472360,105.0,0.5282416,0.828945,0.47553518,0.0,0.0,0.0
105,1778446472370,106.0,0.5282416,0.828945,0.47553518,0.0,0.0,0.0
106,1778446472380,107.0,0.5282416,0.828945,0.47553518,0.0,0.0,0.0
107,1778446472390,108.0,0.5282416,0.828945,0.47553518,0.0,0.0,0.0
108,1778446472400,109.0,0.52446483,0.8332263,0.47553518,0.0,0.0,0.0
109,1778446472410,110.0,0.52068806,0.8375076,0.47553518,0.0,0.0,0.0
110,1778446472420,111.0,0.52068806,0.8375076,0.47553518,0.0,0.0,0.0
111,1778446472430,112.0,0.52068806,0.8375076,0.47553518,0.0,0.0,0.0
112,1778446472440,113.0,0.52263,0.84678894,0.5399541,0.0,0.0,0.0
113,1778446472450,114.0,0.5316972,0.8855198999999999,0.6058104,0.0,0.0,0.0
114,1778446472460,115.0,0.5316972,0.8855198999999999,0.6058104,0.0,0.0,0.0
115,1778446472470,116.0,0.63129973,0.9297707,0.7309939,0.0,0.0,0.0
116,1778446472480,117.0,0.6362589366666667,0.9277982,0.7424108199999999,0.0,0.0,0.0
117,1778446472490,118.0,0.64617735,0.9238532,0.76524466,0.0,0.0,0.0
118,1778446472500,119.0,0.64617735,0.9238532,0.76524466,0.0,0.0,0.0
119,1778446472510,120.0,0.64617735,0.9238532,0.76524466,0.0,0.0,0.0
120,1778446472520,121.0,0.64617735,0.9238532,0.76524466,0.0,0.0,0.0
121,1778446472530,122.0,0.64617735,0.9238532,0.76524466,0.0,0.0,0.0
122,1778446472540,123.0,0.64617735,0.9238532,0.76524466,0.0,0.0,0.0
123,1778446472550,124.0,0.64617735,0.9238532,0.76524466,0.0,0.0,0.0
124,1778446472560,125.0,0.64617735,0.9238532,0.76524466,0.0,0.0,0.0
125,1778446472570,126.0,0.64617735,0.9238532,0.76524466,0.0,0.0,0.0
126,1778446472580,127.0,0.64617735,0.9238532,0.76524466,0.0,0.0,0.0
127,1778446472590,128.0,0.64934254,0.91090214,0.8372019,0.0,0.0,0.0
128,1778446472600,129.0,0.64934254,0.91090214,0.8372019,0.0,0.0,0.0
129,1778446472610,130.0,0.64342505,0.8799236,0.9863455,0.0,0.0,0.0
130,1778446472620,131.0,0.64342505,0.8799236,0.9863455,0.0,0.0,0.0
131,1778446472630,132.0,0.64342505,0.8799236,0.9863455,0.0,0.0,0.0
132,1778446472640,133.0,0.64342505,0.8799236,0.9863455,0.0,0.0,0.0
133,1778446472650,134.0,0.64342505,0.8799236,0.9863455,0.0,0.0,0.0
134,1778446472660,135.0,0.64342505,0.8799236,0.9863455,0.0,0.0,0.0
135,1778446472670,136.0,0.64342505,0.8799236,0.9863455,0.0,0.0,0.0
136,1778446472680,137.0,0.64342505,0.8799236,0.9863455,0.0,0.0,0.0
137,1778446472690,138.0,0.6461276625000001,0.880049725,0.988535875,0.0,0.0,0.0
138,1778446472700,139.0,0.6542355,0.8804281,0.995107,0.0,0.0,0.0
139,1778446472710,140.0,0.6542355,0.8804281,0.995107,0.0,0.0,0.0
140,1778446472720,141.0,0.6542355,0.8804281,0.995107,0.0,0.0,0.0
141,1778446472730,142.0,0.6542355,0.8804281,0.995107,0.0,0.0,0.0
142,1778446472740,143.0,0.6542355,0.8804281,0.995107,0.0,0.0,0.0
143,1778446472750,144.0,0.6542355,0.8804281,0.995107,0.0,0.0,0.0
144,1778446472760,145.0,0.6542355,0.8804281,0.995107,0.0,0.0,0.0
145,1778446472770,146.0,0.6542355,0.8804281,0.995107,0.0,0.0,0.0
146,1778446472780,147.0,0.6542355,0.8804281,0.995107,0.0,0.0,0.0
147,1778446472790,148.0,0.6542355,0.8804281,0.995107,0.0,0.0,0.0
148,1778446472800,149.0,0.6542355,0.8804281,0.995107,0.0,0.0,0.0
149,1778446472810,150.0,0.6542355,0.8804281,0.995107,0.0,0.0,0.0
150,1778446472820,151.0,0.6542355,0.8804281,0.995107,0.0,0.0,0.0
151,1778446472830,152.0,0.65726684,0.8800726125,0.995107,0.0,0.0,0.0
152,1778446472840,153.0,0.66636086,0.87900615,0.995107,0.0,0.0,0.0
153,1778446472850,154.0,0.66636086,0.87900615,0.995107,0.0,0.0,0.0
154,1778446472860,155.0,0.66636086,0.87900615,0.995107,0.0,0.0,0.0
155,1778446472870,156.0,0.66636086,0.87900615,0.995107,0.0,0.0,0.0
156,1778446472880,157.0,0.66636086,0.87900615,0.995107,0.0,0.0,0.0
157,1778446472890,158.0,0.66636086,0.87900615,0.995107,0.0,0.0,0.0
158,1778446472900,159.0,0.66636086,0.87900615,0.995107,0.0,0.0,0.0
159,1778446472910,160.0,0.66636086,0.87900615,0.995107,0.0,0.0,0.0
160,1778446472920,161.0,0.7065952866666666,0.87621305,0.9926606,0.0,0.0,0.0
161,1778446472930,162.0,0.7186047375,0.910676625,1.008100225,0.0,0.0,0.0
162,1778446472940,163.0,0.7159021500000001,0.92263,1.0136545,0.0,0.0,0.0
163,1778446472950,164.0,0.7159021500000001,0.92263,1.0136545,0.0,0.0,0.0
164,1778446472960,165.0,0.71590215,0.92263,1.0136545,0.0,0.0,0.0
165,1778446472970,166.0,0.7027522999999999,0.9427472,1.0291183333333331,0.0,0.0,0.0
166,1778446472980,167.0,0.6764525999999998,0.9829816,1.060046,0.0,0.0,0.0
167,1778446472990,168.0,0.6764525999999998,0.9829816,1.060046,0.0,0.0,0.0
168,1778446473000,169.0,0.6585091750000001,1.02334865,1.06371565,0.0,0.0,0.0
169,1778446473010,170.0,0.64056575,1.0637157,1.0673853,0.0,0.0,0.0
170,1778446473020,171.0,0.64056575,1.0637157,1.0673853,0.0,0.0,0.0
171,1778446473030,172.0,0.64056575,1.0637157,1.0673853,0.0,0.0,0.0
172,1778446473040,173.0,0.64056575,1.0637157,1.0673853,0.0,0.0,0.0
173,1778446473050,174.0,0.64056575,1.0637157,1.0673853,0.0,0.0,0.0
174,1778446473060,175.0,0.64056575,1.0637157,1.0673853,0.0,0.0,0.0
175,1778446473070,176.0,0.64056575,1.0637157,1.0673853,0.0,0.0,0.0
176,1778446473080,177.0,0.64056575,1.0637157,1.0673853,0.0,0.0,0.0
177,1778446473090,178.0,0.64056575,1.0637157,1.0673853,0.0,0.0,0.0
178,1778446473100,179.0,0.6285066333333335,1.0884506333333333,1.0532161,0.0,0.0,0.0
179,1778446473110,180.0,0.6043884,1.1379205,1.0248777,0.0,0.0,0.0
180,1778446473120,181.0,0.6043884,1.1379205,1.0248777,0.0,0.0,0.0
181,1778446473130,182.0,0.6043884,1.1379205,1.0248777,0.0,0.0,0.0
182,1778446473140,183.0,0.6043884,1.1379205,1.0248777,0.0,0.0,0.0
183,1778446473150,184.0,0.6043884,1.1379205,1.0248777,0.0,0.0,0.0
184,1778446473160,185.0,0.6043884,1.1379205,1.0248777,0.0,0.0,0.0
185,1778446473170,186.0,0.6043884,1.1379205,1.0248777,0.0,0.0,0.0
186,1778446473180,187.0,0.55938073,1.20453365,0.9861927,0.0,0.0,0.0
187,1778446473190,188.0,0.51437306,1.2711468,0.9475077,0.0,0.0,0.0
188,1778446473200,189.0,0.51331802,1.2936085666666666,0.9444139,0.0,0.0,0.0
189,1778446473210,190.0,0.51120794,1.3385321,0.9382262999999998,0.0,0.0,0.0
190,1778446473220,191.0,0.51120794,1.3385321,0.9382262999999998,0.0,0.0,0.0
191,1778446473230,192.0,0.51120794,1.3385321,0.9382263,0.0,0.0,0.0
192,1778446473240,193.0,0.51120794,1.3385321,0.9382262999999998,0.0,0.0,0.0
193,1778446473250,194.0,0.51120794,1.3385321,0.9382263,0.0,0.0,0.0
194,1778446473260,195.0,0.51120794,1.3385321,0.9382262999999998,0.0,0.0,0.0
195,1778446473270,196.0,0.51120794,1.3385321,0.9382263,0.0,0.0,0.0
196,1778446473280,197.0,0.51120794,1.3385321,0.9382262999999998,0.0,0.0,0.0
197,1778446473290,198.0,0.51120794,1.3385321,0.9382262999999998,0.0,0.0,0.0
198,1778446473300,199.0,0.51120794,1.3385321,0.9382263,0.0,0.0,0.0
199,1778446473310,200.0,0.51120794,1.3385321,0.9382262999999998,0.0,0.0,0.0
200,1778446473320,201.0,0.51120794,1.3385321,0.9382262999999998,0.0,0.0,0.0
201,1778446473330,202.0,0.51120794,1.3385321,0.9382263,0.0,0.0,0.0
202,1778446473340,203.0,0.51120794,1.3385321,0.9382262999999998,0.0,0.0,0.0
203,1778446473350,204.0,0.564418985,1.3704128,0.934407525,0.0,0.0,0.0
204,1778446473360,205.0,0.582156,1.3810397,0.9331346,0.0,0.0,0.0
205,1778446473370,206.0,0.582156,1.3810397,0.9331346,0.0,0.0,0.0
206,1778446473380,207.0,0.582156,1.3810397,0.9331346,0.0,0.0,0.0
207,1778446473390,208.0,0.582156,1.3810397,0.9331346,0.0,0.0,0.0
208,1778446473400,209.0,0.582156,1.3810397,0.9331346,0.0,0.0,0.0
209,1778446473410,210.0,0.582156,1.3810397,0.9331346,0.0,0.0,0.0
210,1778446473420,211.0,0.582156,1.3810397,0.9331346,0.0,0.0,0.0
211,1778446473430,212.0,0.582156,1.3810397,0.9331346,0.0,0.0,0.0
212,1778446473440,213.0,0.582156,1.3810397,0.9331346,0.0,0.0,0.0
213,1778446473450,214.0,0.582156,1.3810397,0.9331346,0.0,0.0,0.0
214,1778446473460,215.0,0.582156,1.3810397,0.9331346,0.0,0.0,0.0
215,1778446473470,216.0,0.582156,1.3810397,0.9331346,0.0,0.0,0.0
216,1778446473480,217.0,0.6109021575,1.409759125,0.932393,0.0,0.0,0.0
217,1778446473490,218.0,0.69714063,1.4959174,0.9301682,0.0,0.0,0.0
218,1778446473500,219.0,0.69714063,1.4959174,0.9301682,0.0,0.0,0.0
219,1778446473510,220.0,0.69714063,1.4959174,0.9301682,0.0,0.0,0.0
220,1778446473520,221.0,0.69714063,1.4959174,0.9301682,0.0,0.0,0.0
221,1778446473530,222.0,0.69714063,1.4959174,0.9301682,0.0,0.0,0.0
222,1778446473540,223.0,0.6971406300000001,1.4959174,0.9301682,0.0,0.0,0.0
223,1778446473550,224.0,0.6971406300000001,1.4959174,0.9301682,0.0,0.0,0.0
224,1778446473560,225.0,0.7191946666666666,1.5039041666666666,0.9587105,0.0,0.0,0.0
225,1778446473570,226.0,0.76330274,1.5198777,1.0157951,0.0,0.0,0.0
226,1778446473580,227.0,0.76330274,1.5198777,1.0157951,0.0,0.0,0.0
227,1778446473590,228.0,0.76330274,1.5198777,1.0157951,0.0,0.0,0.0
228,1778446473600,229.0,0.7713609,1.4874618,1.1209939,0.0,0.0,0.0
229,1778446473610,230.0,0.7713609,1.4874618,1.1209939,0.0,0.0,0.0
230,1778446473620,231.0,0.7713609,1.4874618,1.1209939,0.0,0.0,0.0
231,1778446473630,232.0,0.7713609,1.4874618,1.1209939,0.0,0.0,0.0
232,1778446473640,233.0,0.7713609,1.4874618,1.1209939,0.0,0.0,0.0
233,1778446473650,234.0,0.7713609,1.4874618,1.1209939,0.0,0.0,0.0
234,1778446473660,235.0,0.7713609,1.4874618,1.1209939,0.0,0.0,0.0
235,1778446473670,236.0,0.7713609,1.4874618,1.1209939,0.0,0.0,0.0
236,1778446473680,237.0,0.7713609,1.4874618,1.1209939,0.0,0.0,0.0
237,1778446473690,238.0,0.7713609,1.4874618,1.1209939,0.0,0.0,0.0
238,1778446473700,239.0,0.7713609,1.4874618,1.1209939,0.0,0.0,0.0
239,1778446473710,240.0,0.7713609,1.4874618,1.1209939,0.0,0.0,0.0
240,1778446473720,241.0,0.7713609,1.4874618,1.1209939,0.0,0.0,0.0
241,1778446473730,242.0,0.7713609,1.4874618,1.1209939,0.0,0.0,0.0
242,1778446473740,243.0,0.7973471249999999,1.494571875,1.14813835,0.0,0.0,0.0
243,1778446473750,244.0,0.8060092,1.4969419000000002,1.1571865,0.0,0.0,0.0
244,1778446473760,245.0,0.8060092,1.4969419,1.1571865,0.0,0.0,0.0
245,1778446473770,246.0,0.8053057999999998,1.4661621,1.1571865,0.0,0.0,0.0
246,1778446473780,247.0,0.8053057999999998,1.4661621,1.1571865,0.0,0.0,0.0
247,1778446473790,248.0,0.8053058,1.4661621,1.1571865,0.0,0.0,0.0
248,1778446473800,249.0,0.8053057999999998,1.4661621,1.1571865,0.0,0.0,0.0
249,1778446473810,250.0,0.5534862319999999,1.007986761333333,1.1193322666666663,0.0,0.0,0.0
250,1778446473820,251.0,0.024159022,-0.0025535186666666,1.0026452666666668,0.0,0.0,0.0
251,1778446473830,252.0,0.011314985,-0.04964832,0.982156,0.0,0.0,0.0
252,1778446473840,253.0,0.011314985,-0.04964832,0.982156,0.0,0.0,0.0
253,1778446473850,254.0,0.011314985,-0.04964832,0.982156,0.0,0.0,0.0
254,1778446473860,255.0,0.011314985,-0.04964832,0.982156,0.0,0.0,0.0
255,1778446473870,256.0,0.2643221233333333,0.4413812866666667,1.0358461,0.0,0.0,0.0
256,1778446473880,257.0,0.7703364,1.4234405,1.1432263,0.0,0.0,0.0
257,1778446473890,258.0,0.72507645,1.37548175,1.11065755,0.0,0.0,0.0
258,1778446473900,259.0,0.66778798,1.2877676,1.0733639666666666,0.0,0.0,0.0
259,1778446473910,260.0,0.64373094,1.2082568,1.0639143,0.0,0.0,0.0
260,1778446473920,261.0,0.64373094,1.2082568,1.0639143,0.0,0.0,0.0
261,1778446473930,262.0,0.64373094,1.2082568,1.0639143,0.0,0.0,0.0
262,1778446473940,263.0,0.64373094,1.2082568,1.0639143,0.0,0.0,0.0
263,1778446473950,264.0,0.64373094,1.2082568,1.0639143,0.0,0.0,0.0
264,1778446473960,265.0,0.5946942,1.0668654,1.060046,0.0,0.0,0.0
265,1778446473970,266.0,0.5946942,1.0668654,1.060046,0.0,0.0,0.0
266,1778446473980,267.0,0.5946942,1.0668654,1.060046,0.0,0.0,0.0
267,1778446473990,268.0,0.4088685,0.8860397299999999,1.0731957,0.0,0.0,0.0
268,1778446474000,269.0,0.4088685,0.88603973,1.0731957,0.0,0.0,0.0
269,1778446474010,270.0,0.4088685,0.8860397299999999,1.0731957,0.0,0.0,0.0
270,1778446474020,271.0,0.4088685,0.8860397299999999,1.0731957,0.0,0.0,0.0
271,1778446474030,272.0,0.4088685,0.88603973,1.0731957,0.0,0.0,0.0
272,1778446474040,273.0,0.4088685,0.8860397299999999,1.0731957,0.0,0.0,0.0
273,1778446474050,274.0,0.3833843133333334,0.8631345433333334,1.0735321000000002,0.0,0.0,0.0
274,1778446474060,275.0,0.3706422199999999,0.85168195,1.0737003,0.0,0.0,0.0
275,1778446474070,276.0,0.37064222,0.85168195,1.0737003,0.0,0.0,0.0
276,1778446474080,277.0,0.3706422199999999,0.85168195,1.0737003,0.0,0.0,0.0
277,1778446474090,278.0,0.3706422199999999,0.85168195,1.0737003,0.0,0.0,0.0
278,1778446474100,279.0,0.37064222,0.85168195,1.0737003,0.0,0.0,0.0
279,1778446474110,280.0,0.3706422199999999,0.85168195,1.0737003,0.0,0.0,0.0
280,1778446474120,281.0,0.3706422199999999,0.85168195,1.0737003,0.0,0.0,0.0
281,1778446474130,282.0,0.37064222,0.85168195,1.0737003,0.0,0.0,0.0
282,1778446474140,283.0,0.2822324266666666,0.6500509833333333,1.0654129,0.0,0.0,0.0
283,1778446474150,284.0,0.23802753,0.5492355,1.0612692,0.0,0.0,0.0
284,1778446474160,285.0,0.23802753,0.5492355,1.0612692,0.0,0.0,0.0
285,1778446474170,286.0,0.22778288,0.5080543,1.059075,0.0,0.0,0.0
286,1778446474180,287.0,0.19704893,0.3845107,1.0524924,0.0,0.0,0.0
287,1778446474190,288.0,0.19704893,0.3845107,1.0524924,0.0,0.0,0.0
288,1778446474200,289.0,0.19704893,0.3845107,1.0524924,0.0,0.0,0.0
289,1778446474210,290.0,0.19704893,0.3845107,1.0524924,0.0,0.0,0.0
290,1778446474220,291.0,0.19704893,0.3845107,1.0524924,0.0,0.0,0.0
291,1778446474230,292.0,0.19704893,0.3845107,1.0524924,0.0,0.0,0.0
292,1778446474240,293.0,0.19704893,0.3845107,1.0524924,0.0,0.0,0.0
293,1778446474250,294.0,0.19704893,0.3845107,1.0524924,0.0,0.0,0.0
294,1778446474260,295.0,0.19704893,0.3845107,1.0524924,0.0,0.0,0.0
295,1778446474270,296.0,0.19704893,0.3845107,1.0524924,0.0,0.0,0.0
296,1778446474280,297.0,0.19704893,0.3845107,1.0524924,0.0,0.0,0.0
297,1778446474290,298.0,0.19704893,0.3845107,1.0524924,0.0,0.0,0.0
298,1778446474300,299.0,0.19704893,0.3845107,1.0524924,0.0,0.0,0.0
299,1778446474310,300.0,0.19704893,0.3845107,1.0524924,0.0,0.0,0.0
300,1778446474320,301.0,0.19704893,0.3845107,1.0524924,0.0,0.0,0.0
301,1778446474330,302.0,0.19704893,0.3845107,1.0524924,0.0,0.0,0.0
302,1778446474340,303.0,0.19704893,0.3845107,1.0524924,0.0,0.0,0.0
303,1778446474350,304.0,0.19704893,0.3845107,1.0524924,0.0,0.0,0.0
304,1778446474360,305.0,0.19704893,0.3845107,1.0524924,0.0,0.0,0.0
305,1778446474370,306.0,-0.17043834,-0.1458002,0.7481141866666666,0.0,0.0,0.0
306,1778446474380,307.0,-0.5636086,-0.5424006,0.4022477,0.0,0.0,0.0
307,1778446474390,308.0,-0.5636086,-0.5424006,0.4022477,0.0,0.0,0.0
308,1778446474400,309.0,-0.6096126666666667,-0.6278236666666667,0.3275586066666666,0.0,0.0,0.0
309,1778446474410,310.0,-0.6126350333333334,-0.74698778,0.1276554533333333,0.0,0.0,0.0
310,1778446474420,311.0,-0.47227833,-0.8491284,-0.4850153,0.0,0.0,0.0
311,1778446474430,312.0,-0.47227833,-0.8491284,-0.4850153,0.0,0.0,0.0
312,1778446474440,313.0,-0.47227833,-0.8491284,-0.4850153,0.0,0.0,0.0
313,1778446474450,314.0,-0.47227833,-0.8491284,-0.4850153,0.0,0.0,0.0
314,1778446474460,315.0,-0.47227833,-0.8491284,-0.4850153,0.0,0.0,0.0
315,1778446474470,316.0,-0.4307798,-0.7722783,-0.6395566,0.0,0.0,0.0
316,1778446474480,317.0,-0.4307798,-0.7722783,-0.6395566,0.0,0.0,0.0
317,1778446474490,318.0,-0.4307798,-0.7722783,-0.6395566,0.0,0.0,0.0
318,1778446474500,319.0,-0.4307798,-0.7722783,-0.6395566,0.0,0.0,0.0
319,1778446474510,320.0,-0.4307798,-0.7722783,-0.6395566,0.0,0.0,0.0
320,1778446474520,321.0,-0.4307798,-0.7722783,-0.6395566,0.0,0.0,0.0
321,1778446474530,322.0,-0.4307798,-0.7722783,-0.6395566,0.0,0.0,0.0
322,1778446474540,323.0,-0.3467660525,-0.72778287,-0.9503364250000002,0.0,0.0,0.0
323,1778446474550,324.0,-0.31876147,-0.71295106,-1.0539297,0.0,0.0,0.0
324,1778446474560,325.0,-0.31876147,-0.71295106,-1.0539297,0.0,0.0,0.0
325,1778446474570,326.0,-0.162421,-0.7206982533333334,-1.1576656666666667,0.0,0.0,0.0
326,1778446474580,327.0,0.15025994,-0.73619264,-1.3651376,0.0,0.0,0.0
327,1778446474590,328.0,0.23516819,-0.74143727,-1.3679434,0.0,0.0,0.0
328,1778446474600,329.0,0.4240519999999999,-0.7627982000000001,-1.3654435000000005,0.0,0.0,0.0
329,1778446474610,330.0,0.424052,-0.7627982,-1.3654435,0.0,0.0,0.0
330,1778446474620,331.0,0.4240519999999999,-0.7627982000000001,-1.3654435000000005,0.0,0.0,0.0
331,1778446474630,332.0,0.424052,-0.7627982,-1.3654435,0.0,0.0,0.0
332,1778446474640,333.0,0.4240519999999999,-0.7627982000000001,-1.3654435000000005,0.0,0.0,0.0
333,1778446474650,334.0,0.4240519999999999,-0.7627982000000001,-1.3654435000000005,0.0,0.0,0.0
334,1778446474660,335.0,0.424052,-0.7627982,-1.3654435,0.0,0.0,0.0
335,1778446474670,336.0,0.4240519999999999,-0.7627982000000001,-1.3654435000000005,0.0,0.0,0.0
336,1778446474680,337.0,0.4705352,-0.7874159000000001,-1.31294345,0.0,0.0,0.0
337,1778446474690,338.0,0.5170184,-0.8120336,-1.2604434,0.0,0.0,0.0
338,1778446474700,339.0,0.5170184,-0.8120336,-1.2604434,0.0,0.0,0.0
339,1778446474710,340.0,0.5170184,-0.8120336,-1.2604434,0.0,0.0,0.0
340,1778446474720,341.0,0.5170184,-0.8120336,-1.2604434,0.0,0.0,0.0
341,1778446474730,342.0,0.5487564166666666,-0.8158715333333334,-1.2092048666666668,0.0,0.0,0.0
342,1778446474740,343.0,0.61223245,-0.8235474,-1.1067278,0.0,0.0,0.0
343,1778446474750,344.0,0.61223245,-0.8235474000000002,-1.1067278,0.0,0.0,0.0
344,1778446474760,345.0,0.61223245,-0.8235474,-1.1067278,0.0,0.0,0.0
345,1778446474770,346.0,0.7044546633333333,-0.8454944400000001,-1.0232110266666667,0.0,0.0,0.0
346,1778446474780,347.0,0.75056577,-0.85646796,-0.98145264,0.0,0.0,0.0
347,1778446474790,348.0,0.75056577,-0.8564679600000001,-0.98145264,0.0,0.0,0.0
348,1778446474800,349.0,0.75056577,-0.8564679600000001,-0.98145264,0.0,0.0,0.0
349,1778446474810,350.0,0.75056577,-0.85646796,-0.98145264,0.0,0.0,0.0
350,1778446474820,351.0,0.75056577,-0.8564679600000001,-0.98145264,0.0,0.0,0.0
351,1778446474830,352.0,0.75056577,-0.8564679600000001,-0.98145264,0.0,0.0,0.0
352,1778446474840,353.0,0.75056577,-0.85646796,-0.98145264,0.0,0.0,0.0
353,1778446474850,354.0,0.75056577,-0.8564679600000001,-0.98145264,0.0,0.0,0.0
354,1778446474860,355.0,0.861521455,-0.8628440500000001,-0.91519114,0.0,0.0,0.0
355,1778446474870,356.0,0.97247714,-0.86922014,-0.84892964,0.0,0.0,0.0
356,1778446474880,357.0,0.97247714,-0.86922014,-0.84892964,0.0,0.0,0.0
357,1778446474890,358.0,0.97247714,-0.86922014,-0.84892964,0.0,0.0,0.0
358,1778446474900,359.0,0.97247714,-0.86922014,-0.84892964,0.0,0.0,0.0
359,1778446474910,360.0,0.97247714,-0.86922014,-0.84892964,0.0,0.0,0.0
360,1778446474920,361.0,0.97247714,-0.86922014,-0.84892964,0.0,0.0,0.0
361,1778446474930,362.0,0.97247714,-0.86922014,-0.84892964,0.0,0.0,0.0
362,1778446474940,363.0,0.97247714,-0.86922014,-0.84892964,0.0,0.0,0.0
363,1778446474950,364.0,0.97247714,-0.86922014,-0.84892964,0.0,0.0,0.0
364,1778446474960,365.0,0.97247714,-0.86922014,-0.84892964,0.0,0.0,0.0
365,1778446474970,366.0,0.97247714,-0.86922014,-0.84892964,0.0,0.0,0.0
366,1778446474980,367.0,1.106697313333333,-0.91148318,-0.7249745133333333,0.0,0.0,0.0
367,1778446474990,368.0,1.1738074,-0.9326147,-0.66299695,0.0,0.0,0.0
368,1778446475000,369.0,1.1738074,-0.9326147,-0.66299695,0.0,0.0,0.0
369,1778446475010,370.0,1.1738074,-0.9326147,-0.66299695,0.0,0.0,0.0
370,1778446475020,371.0,1.1738074,-0.9326147,-0.66299695,0.0,0.0,0.0
371,1778446475030,372.0,1.1738074,-0.9326147,-0.66299695,0.0,0.0,0.0
372,1778446475040,373.0,1.2274872666666667,-0.9366921266666668,-0.6375841166666666,0.0,0.0,0.0
373,1778446475050,374.0,1.2543272,-0.93873084,-0.6248777,0.0,0.0,0.0
374,1778446475060,375.0,1.2543272,-0.93873084,-0.6248777,0.0,0.0,0.0
375,1778446475070,376.0,1.2543272,-0.93873084,-0.6248777,0.0,0.0,0.0
376,1778446475080,377.0,1.2543272,-0.93873084,-0.6248777,0.0,0.0,0.0
377,1778446475090,378.0,1.2543272,-0.93873084,-0.6248777,0.0,0.0,0.0
378,1778446475100,379.0,1.2543272,-0.93873084,-0.6248777,0.0,0.0,0.0
379,1778446475110,380.0,1.2543272,-0.93873084,-0.6248777,0.0,0.0,0.0
380,1778446475120,381.0,1.2543272,-0.93873084,-0.6248777,0.0,0.0,0.0
381,1778446475130,382.0,1.2543272,-0.93873084,-0.6248777,0.0,0.0,0.0
382,1778446475140,383.0,1.2543272,-0.93873084,-0.6248777,0.0,0.0,0.0
383,1778446475150,384.0,1.3283334,-1.0222172,-0.5812385,0.0,0.0,0.0
384,1778446475160,385.0,1.3283334,-1.0222172,-0.5812385,0.0,0.0,0.0
385,1778446475170,386.0,1.3283334,-1.0222172,-0.5812385,0.0,0.0,0.0
386,1778446475180,387.0,1.3283334,-1.0222172,-0.5812385,0.0,0.0,0.0
387,1778446475190,388.0,1.3283334,-1.0222172,-0.5812385,0.0,0.0,0.0
388,1778446475200,389.0,1.3283334,-1.0222172,-0.5812385,0.0,0.0,0.0
389,1778446475210,390.0,1.3283334,-1.0222172,-0.5812385,0.0,0.0,0.0
390,1778446475220,391.0,1.4645259,-1.1442355,-0.5380275,0.0,0.0,0.0
391,1778446475230,392.0,1.4645259,-1.1442355,-0.5380275,0.0,0.0,0.0
392,1778446475240,393.0,1.4645259,-1.1442355,-0.5380275,0.0,0.0,0.0
393,1778446475250,394.0,1.4645259,-1.1442355,-0.5380275,0.0,0.0,0.0
394,1778446475260,395.0,1.4645259,-1.1442355,-0.5380275,0.0,0.0,0.0
395,1778446475270,396.0,1.4645259,-1.1442355,-0.5380275,0.0,0.0,0.0
396,1778446475280,397.0,1.4645259,-1.1442355,-0.5380275,0.0,0.0,0.0
397,1778446475290,398.0,1.4645259,-1.1442355,-0.5380275,0.0,0.0,0.0
398,1778446475300,399.0,1.4645259,-1.1442355,-0.5380275,0.0,0.0,0.0
399,1778446475310,400.0,1.8474007,-1.2125382,-0.5714526,0.0,0.0,0.0
400,1778446475320,401.0,1.8474007,-1.2125382,-0.5714526,0.0,0.0,0.0
401,1778446475330,402.0,1.8474007,-1.2125382,-0.5714526,0.0,0.0,0.0
402,1778446475340,403.0,1.8474007,-1.2125382,-0.5714526,0.0,0.0,0.0
403,1778446475350,404.0,1.8474007,-1.2125382,-0.5714526,0.0,0.0,0.0
404,1778446475360,405.0,1.8474007,-1.2125382,-0.5714526,0.0,0.0,0.0
405,1778446475370,406.0,2.0656167666666665,-1.2841692666666666,-0.59652904,0.0,0.0,0.0
406,1778446475380,407.0,2.1747248,-1.3199848,-0.60906726,0.0,0.0,0.0
407,1778446475390,408.0,2.1747248,-1.3199848,-0.60906726,0.0,0.0,0.0
408,1778446475400,409.0,2.1747248,-1.3199848,-0.60906726,0.0,0.0,0.0
409,1778446475410,410.0,2.1747248,-1.3199848,-0.60906726,0.0,0.0,0.0
410,1778446475420,411.0,2.1747248,-1.3199848,-0.60906726,0.0,0.0,0.0
411,1778446475430,412.0,2.1747248,-1.3199848,-0.60906726,0.0,0.0,0.0
412,1778446475440,413.0,2.1747248,-1.3199848,-0.60906726,0.0,0.0,0.0
413,1778446475450,414.0,2.1747248,-1.3199848,-0.60906726,0.0,0.0,0.0
414,1778446475460,415.0,2.3632568999999997,-1.3538762000000002,-0.61452598,0.0,0.0,0.0
415,1778446475470,416.0,2.551789,-1.3877676,-0.6199847,0.0,0.0,0.0
416,1778446475480,417.0,2.551789,-1.3877676,-0.6199847,0.0,0.0,0.0
417,1778446475490,418.0,2.551789,-1.3877676,-0.6199847,0.0,0.0,0.0
418,1778446475500,419.0,2.551789,-1.3877676,-0.6199847,0.0,0.0,0.0
419,1778446475510,420.0,2.551789,-1.3877676,-0.6199847,0.0,0.0,0.0
420,1778446475520,421.0,2.551789,-1.3877676,-0.6199847,0.0,0.0,0.0
421,1778446475530,422.0,2.551789,-1.3877676,-0.6199847,0.0,0.0,0.0
422,1778446475540,423.0,2.737314,-1.4392151333333334,-0.6457339400000001,0.0,0.0,0.0
423,1778446475550,424.0,3.0062845,-1.5767227666666666,-0.6665596533333333,0.0,0.0,0.0
424,1778446475560,425.0,3.0943884999999995,-1.6326147000000002,-0.6705352000000001,0.0,0.0,0.0
425,1778446475570,426.0,3.0943885,-1.6326147,-0.6705352,0.0,0.0,0.0
426,1778446475580,427.0,3.0943884999999995,-1.6326147000000002,-0.6705352000000001,0.0,0.0,0.0
427,1778446475590,428.0,3.0943884999999995,-1.6326147000000002,-0.6705352000000001,0.0,0.0,0.0
428,1778446475600,429.0,3.0943884999999995,-1.6326147000000002,-0.6705352000000001,0.0,0.0,0.0
429,1778446475610,430.0,3.0943885,-1.6326147,-0.6705352,0.0,0.0,0.0
430,1778446475620,431.0,3.0943884999999995,-1.6326147000000002,-0.6705352000000001,0.0,0.0,0.0
431,1778446475630,432.0,3.0943884999999995,-1.6326147000000002,-0.6705352000000001,0.0,0.0,0.0
432,1778446475640,433.0,3.0943884999999995,-1.6326147000000002,-0.6705352000000001,0.0,0.0,0.0
433,1778446475650,434.0,3.0943885,-1.6326147,-0.6705352,0.0,0.0,0.0
434,1778446475660,435.0,3.0943884999999995,-1.6326147000000002,-0.6705352000000001,0.0,0.0,0.0
435,1778446475670,436.0,3.0943885,-1.6326147,-0.6705352,0.0,0.0,0.0
436,1778446475680,437.0,3.0943884999999995,-1.6326147000000002,-0.6705352000000001,0.0,0.0,0.0
437,1778446475690,438.0,3.0943884999999995,-1.6326147000000002,-0.6705352000000001,0.0,0.0,0.0
438,1778446475700,439.0,2.9003518,-1.80944955,-0.7309366,0.0,0.0,0.0
439,1778446475710,440.0,2.7649643666666663,-1.8943577666666669,-0.7546738533333334,0.0,0.0,0.0
440,1778446475720,441.0,2.6235473,-1.9462843,-0.76188076,0.0,0.0,0.0
441,1778446475730,442.0,2.6235473,-1.9462843,-0.76188076,0.0,0.0,0.0
442,1778446475740,443.0,2.6589146,-2.130474,-0.76666665,0.0,0.0,0.0
443,1778446475750,444.0,2.6589146,-2.130474,-0.76666665,0.0,0.0,0.0
444,1778446475760,445.0,2.6589146,-2.130474,-0.76666665,0.0,0.0,0.0
445,1778446475770,446.0,2.6589146,-2.130474,-0.76666665,0.0,0.0,0.0
446,1778446475780,447.0,2.4144191,-2.0294877,-0.76666665,0.0,0.0,0.0
447,1778446475790,448.0,2.3329206,-1.9958256,-0.76666665,0.0,0.0,0.0
448,1778446475800,449.0,2.3329206,-1.9958256,-0.76666665,0.0,0.0,0.0
449,1778446475810,450.0,2.3329206,-1.9958256,-0.76666665,0.0,0.0,0.0
450,1778446475820,451.0,2.3329206,-1.9958256,-0.76666665,0.0,0.0,0.0
451,1778446475830,452.0,2.3329206,-1.9958256,-0.76666665,0.0,0.0,0.0
452,1778446475840,453.0,2.3329206,-1.9958256,-0.76666665,0.0,0.0,0.0
453,1778446475850,454.0,2.3329206,-1.9958256,-0.76666665,0.0,0.0,0.0
454,1778446475860,455.0,2.332584066666667,-1.9837258,-0.77576959,0.0,0.0,0.0
455,1778446475870,456.0,2.3324158,-1.9776759,-0.78032106,0.0,0.0,0.0
456,1778446475880,457.0,2.3324158,-1.9776759,-0.78032106,0.0,0.0,0.0
457,1778446475890,458.0,2.3324158,-1.9776759,-0.78032106,0.0,0.0,0.0
458,1778446475900,459.0,2.2287817666666667,-2.0005454,-0.79051474,0.0,0.0,0.0
459,1778446475910,460.0,2.0215137,-2.0462844,-0.8109021,0.0,0.0,0.0
460,1778446475920,461.0,2.0215137,-2.0462844,-0.8109021,0.0,0.0,0.0
461,1778446475930,462.0,2.0215137,-2.0462844,-0.8109021,0.0,0.0,0.0
462,1778446475940,463.0,1.9246737666666665,-2.0947043666666665,-0.7186493166666666,0.0,0.0,0.0
463,1778446475950,464.0,1.7309939000000003,-2.1915443,-0.53414375,0.0,0.0,0.0
464,1778446475960,465.0,1.7309939,-2.1915443,-0.53414375,0.0,0.0,0.0
465,1778446475970,466.0,1.5506320333333334,-2.2707797666666667,-0.2674108166666666,0.0,0.0,0.0
466,1778446475980,467.0,1.1899083,-2.4292507,0.26605505,0.0,0.0,0.0
467,1778446475990,468.0,1.1899083,-2.4292507,0.26605505,0.0,0.0,0.0
468,1778446476000,469.0,1.1899083,-2.4292507,0.26605505,0.0,0.0,0.0
469,1778446476010,470.0,1.1899083,-2.4292507,0.26605505,0.0,0.0,0.0
470,1778446476020,471.0,1.1899083,-2.4292507,0.26605505,0.0,0.0,0.0
471,1778446476030,472.0,0.9182416,-2.400199,0.5282416,0.0,0.0,0.0
472,1778446476040,473.0,0.9182416,-2.400199,0.5282416,0.0,0.0,0.0
473,1778446476050,474.0,0.9182416,-2.400199,0.5282416,0.0,0.0,0.0
474,1778446476060,475.0,0.9182416,-2.400199,0.5282416,0.0,0.0,0.0
475,1778446476070,476.0,0.9182416,-2.400199,0.5282416,0.0,0.0,0.0
476,1778446476080,477.0,0.9182416,-2.400199,0.5282416,0.0,0.0,0.0
477,1778446476090,478.0,0.9182416,-2.400199,0.5282416,0.0,0.0,0.0
478,1778446476100,479.0,0.9182416,-2.400199,0.5282416,0.0,0.0,0.0
479,1778446476110,480.0,0.9182416,-2.400199,0.5282416,0.0,0.0,0.0
480,1778446476120,481.0,0.9182416,-2.400199,0.5282416,0.0,0.0,0.0
481,1778446476130,482.0,0.9182416,-2.400199,0.5282416,0.0,0.0,0.0
482,1778446476140,483.0,0.9182416,-2.400199,0.5282416,0.0,0.0,0.0
483,1778446476150,484.0,0.9182416,-2.400199,0.5282416,0.0,0.0,0.0
484,1778446476160,485.0,0.8445820666666667,-2.454837,0.68298164,0.0,0.0,0.0
485,1778446476170,486.0,0.8077523000000001,-2.482156,0.76035166,0.0,0.0,0.0
486,1778446476180,487.0,0.8077523,-2.482156,0.76035166,0.0,0.0,0.0
487,1778446476190,488.0,0.8077523000000001,-2.482156,0.76035166,0.0,0.0,0.0
488,1778446476200,489.0,0.8077523000000001,-2.482156,0.76035166,0.0,0.0,0.0
489,1778446476210,490.0,0.8077523,-2.482156,0.76035166,0.0,0.0,0.0
490,1778446476220,491.0,0.8077523000000001,-2.482156,0.76035166,0.0,0.0,0.0
491,1778446476230,492.0,0.8077523000000001,-2.482156,0.76035166,0.0,0.0,0.0
492,1778446476240,493.0,0.8077523000000001,-2.482156,0.76035166,0.0,0.0,0.0
493,1778446476250,494.0,0.6414832,-2.4802294,0.9777829,0.0,0.0,0.0
494,1778446476260,495.0,0.6414832,-2.4802294,0.9777829,0.0,0.0,0.0
495,1778446476270,496.0,0.6414832,-2.4802294,0.9777829,0.0,0.0,0.0
496,1778446476280,497.0,0.5333639266666667,-2.4632365,1.0758766666666666,0.0,0.0,0.0
497,1778446476290,498.0,0.31712538,-2.4292507,1.2720642,0.0,0.0,0.0
498,1778446476300,499.0,0.31712538,-2.4292507,1.2720642,0.0,0.0,0.0
499,1778446476310,500.0,0.31712538,-2.4292507,1.2720642,0.0,0.0,0.0
500,1778446476320,501.0,0.31712538,-2.4292507,1.2720642,0.0,0.0,0.0
501,1778446476330,502.0,0.31712538,-2.4292507,1.2720642,0.0,0.0,0.0
502,1778446476340,503.0,0.31712538,-2.4292507,1.2720642,0.0,0.0,0.0
503,1778446476350,504.0,0.31712538,-2.4292507,1.2720642,0.0,0.0,0.0
504,1778446476360,505.0,0.31712538,-2.4292507,1.2720642,0.0,0.0,0.0
505,1778446476370,506.0,0.31712538,-2.4292507,1.2720642,0.0,0.0,0.0
506,1778446476380,507.0,0.31712538,-2.4292507,1.2720642,0.0,0.0,0.0
507,1778446476390,508.0,0.31712538,-2.4292507,1.2720642,0.0,0.0,0.0
508,1778446476400,509.0,0.26185015,-2.4103937,1.273493875,0.0,0.0,0.0
509,1778446476410,510.0,0.09602446,-2.3538227,1.2777829,0.0,0.0,0.0
510,1778446476420,511.0,0.09602446,-2.3538227,1.2777829,0.0,0.0,0.0
511,1778446476430,512.0,0.09602446,-2.3538227,1.2777829,0.0,0.0,0.0
512,1778446476440,513.0,0.09602446,-2.3538227,1.2777829,0.0,0.0,0.0
513,1778446476450,514.0,-0.0923547399999999,-2.2908256999999996,1.2756014333333334,0.0,0.0,0.0
514,1778446476460,515.0,-0.18654434,-2.2593272,1.2745107,0.0,0.0,0.0
515,1778446476470,516.0,-0.3798165,-2.1927676,1.2025535,0.0,0.0,0.0
516,1778446476480,517.0,-0.3798165,-2.1927676,1.2025535,0.0,0.0,0.0
517,1778446476490,518.0,-0.3798165,-2.1927676,1.2025535,0.0,0.0,0.0
518,1778446476500,519.0,-0.3798165,-2.1927676,1.2025535,0.0,0.0,0.0
519,1778446476510,520.0,-0.5072375,-2.149342533333334,1.1620438333333334,0.0,0.0,0.0
520,1778446476520,521.0,-0.6215622000000001,-2.046177366666667,1.1024821666666669,0.0,0.0,0.0
521,1778446476530,522.0,-0.7358869,-1.9430122,1.0429205,0.0,0.0,0.0
522,1778446476540,523.0,-0.7358869,-1.9430122,1.0429205,0.0,0.0,0.0
523,1778446476550,524.0,-0.7358869,-1.9430122,1.0429205,0.0,0.0,0.0
524,1778446476560,525.0,-0.7358869,-1.9430122,1.0429205,0.0,0.0,0.0
525,1778446476570,526.0,-0.7358869,-1.9430122,1.0429205,0.0,0.0,0.0
526,1778446476580,527.0,-0.7358869,-1.9430122,1.0429205,0.0,0.0,0.0
527,1778446476590,528.0,-0.7358869,-1.9430122,1.0429205,0.0,0.0,0.0
528,1778446476600,529.0,-0.7358869,-1.9430122,1.0429205,0.0,0.0,0.0
529,1778446476610,530.0,-0.7358869,-1.9430122,1.0429205,0.0,0.0,0.0
530,1778446476620,531.0,-0.7358869,-1.9430122,1.0429205,0.0,0.0,0.0
531,1778446476630,532.0,-0.7358869,-1.9430122,1.0429205,0.0,0.0,0.0
532,1778446476640,533.0,-0.7358869,-1.9430122,1.0429205,0.0,0.0,0.0
533,1778446476650,534.0,-0.7358869,-1.9430122,1.0429205,0.0,0.0,0.0
534,1778446476660,535.0,-0.7358869,-1.9430122,1.0429205,0.0,0.0,0.0
535,1778446476670,536.0,-0.7358869,-1.9430122,1.0429205,0.0,0.0,0.0
536,1778446476680,537.0,-0.7358869,-1.9430122,1.0429205,0.0,0.0,0.0
537,1778446476690,538.0,-0.7358869,-1.9430122,1.0429205,0.0,0.0,0.0
538,1778446476700,539.0,-0.7358869,-1.9430122,1.0429205,0.0,0.0,0.0
539,1778446476710,540.0,-0.75004584,-1.8742049,1.0058104,0.0,0.0,0.0
540,1778446476720,541.0,-0.7544343,-1.8588226,0.96707946,0.0,0.0,0.0
541,1778446476730,542.0,-0.7544343,-1.8588226,0.96707946,0.0,0.0,0.0
542,1778446476740,543.0,-0.7544343,-1.8588226,0.96707946,0.0,0.0,0.0
543,1778446476750,544.0,-0.67267585,-1.8624924,0.9577982,0.0,0.0,0.0
544,1778446476760,545.0,-0.67267585,-1.8624924,0.9577982,0.0,0.0,0.0
545,1778446476770,546.0,-0.67267585,-1.8624924,0.9577982,0.0,0.0,0.0
546,1778446476780,547.0,-0.67267585,-1.8624924,0.9577982,0.0,0.0,0.0
547,1778446476790,548.0,-0.5384658566666666,-1.9610957333333332,0.9518858,0.0,0.0,0.0
548,1778446476800,549.0,-0.39735472,-1.9958256,0.94801223,0.0,0.0,0.0
549,1778446476810,550.0,-0.39735472,-1.9958256,0.94801223,0.0,0.0,0.0
550,1778446476820,551.0,-0.39735472,-1.9958256,0.94801223,0.0,0.0,0.0
551,1778446476830,552.0,-0.39735472,-1.9958256,0.94801223,0.0,0.0,0.0
552,1778446476840,553.0,-0.39735472,-1.9958256,0.94801223,0.0,0.0,0.0
553,1778446476850,554.0,-0.39735472,-1.9958256,0.94801223,0.0,0.0,0.0
554,1778446476860,555.0,-0.39735472,-1.9958256,0.94801223,0.0,0.0,0.0
555,1778446476870,556.0,-0.39735472,-1.9958256,0.94801223,0.0,0.0,0.0
556,1778446476880,557.0,-0.39735472,-1.9958256,0.94801223,0.0,0.0,0.0
557,1778446476890,558.0,-0.39735472,-1.9958256,0.94801223,0.0,0.0,0.0
558,1778446476900,559.0,-0.39735472,-1.9958256,0.94801223,0.0,0.0,0.0
559,1778446476910,560.0,-0.37834096,-2.00974005,0.965344065,0.0,0.0,0.0
560,1778446476920,561.0,-0.3593272,-2.0236545,0.9826759,0.0,0.0,0.0
561,1778446476930,562.0,-0.3593272,-2.0236545,0.9826759,0.0,0.0,0.0
562,1778446476940,563.0,-0.3593272,-2.0236545,0.9826759,0.0,0.0,0.0
563,1778446476950,564.0,-0.3593272,-2.0236545,0.9826759,0.0,0.0,0.0
564,1778446476960,565.0,-0.3593272,-2.0236545,0.9826759,0.0,0.0,0.0
565,1778446476970,566.0,-0.3593272,-2.0236545,0.9826759,0.0,0.0,0.0
566,1778446476980,567.0,-0.5130428,-2.154633,1.011422,0.0,0.0,0.0
567,1778446476990,568.0,-0.5130428,-2.154633,1.011422,0.0,0.0,0.0
568,1778446477000,569.0,-0.5130428,-2.154633,1.011422,0.0,0.0,0.0
569,1778446477010,570.0,-0.5130428,-2.154633,1.011422,0.0,0.0,0.0
570,1778446477020,571.0,-0.5130428,-2.154633,1.011422,0.0,0.0,0.0
571,1778446477030,572.0,-0.6704434,-2.2132568,1.011422,0.0,0.0,0.0
572,1778446477040,573.0,-0.6704434,-2.2132568,1.011422,0.0,0.0,0.0
573,1778446477050,574.0,-0.992156,-2.3987105333333334,0.9796788933333334,0.0,0.0,0.0
574,1778446477060,575.0,-1.1530123,-2.4914374,0.96380734,0.0,0.0,0.0
575,1778446477070,576.0,-1.1530123,-2.4914374,0.96380734,0.0,0.0,0.0
576,1778446477080,577.0,-1.1530123,-2.4914374,0.96380734,0.0,0.0,0.0
577,1778446477090,578.0,-1.1530123,-2.4914374,0.96380734,0.0,0.0,0.0
578,1778446477100,579.0,-1.1530123,-2.4914374,0.96380734,0.0,0.0,0.0
579,1778446477110,580.0,-1.4202906000000002,-2.5507646,0.89551985,0.0,0.0,0.0
580,1778446477120,581.0,-1.4202906000000002,-2.5507646,0.89551985,0.0,0.0,0.0
581,1778446477130,582.0,-1.4202906000000002,-2.5507646,0.89551985,0.0,0.0,0.0
582,1778446477140,583.0,-1.5083372,-2.55295495,0.8697782725000001,0.0,0.0,0.0
583,1778446477150,584.0,-1.772477,-2.559526,0.79255354,0.0,0.0,0.0
584,1778446477160,585.0,-1.772477,-2.559526,0.79255354,0.0,0.0,0.0
585,1778446477170,586.0,-1.772477,-2.559526,0.79255354,0.0,0.0,0.0
586,1778446477180,587.0,-1.772477,-2.559526,0.79255354,0.0,0.0,0.0
587,1778446477190,588.0,-1.772477,-2.559526,0.79255354,0.0,0.0,0.0
588,1778446477200,589.0,-2.765649825,-2.189858575,0.8463302875000001,0.0,0.0,0.0
589,1778446477210,590.0,-2.8245717999999997,-2.1437309,0.8788991,0.0,0.0,0.0
590,1778446477220,591.0,-2.8733995333333335,-2.031192666666666,0.9594648333333334,0.0,0.0,0.0
591,1778446477230,592.0,-2.971055,-1.8061162,1.1205963,0.0,0.0,0.0
592,1778446477240,593.0,-2.971055,-1.8061162,1.1205963,0.0,0.0,0.0
593,1778446477250,594.0,-2.971055,-1.8061162,1.1205963,0.0,0.0,0.0
594,1778446477260,595.0,-2.971055,-1.8061162,1.1205963,0.0,0.0,0.0
595,1778446477270,596.0,-2.971055,-1.8061162,1.1205963,0.0,0.0,0.0
596,1778446477280,597.0,-2.971055,-1.8061162,1.1205963,0.0,0.0,0.0
597,1778446477290,598.0,-2.971055,-1.8061162,1.1205963,0.0,0.0,0.0
598,1778446477300,599.0,-2.9840672666666666,-1.6738379333333333,1.1355453333333334,0.0,0.0,0.0
599,1778446477310,600.0,-3.0100918,-1.4092814,1.1654434,0.0,0.0,0.0
600,1778446477320,601.0,-3.0100918,-1.4092814,1.1654434,0.0,0.0,0.0
601,1778446477330,602.0,-3.0100918,-1.4092814,1.1654434,0.0,0.0,0.0
602,1778446477340,603.0,-3.0100918,-1.4092814,1.1654434,0.0,0.0,0.0
603,1778446477350,604.0,-3.0100918,-1.4092814,1.1654434,0.0,0.0,0.0
604,1778446477360,605.0,-3.0100918,-1.4092814,1.1654434,0.0,0.0,0.0
605,1778446477370,606.0,-3.0100918,-1.4092814,1.1654434,0.0,0.0,0.0
606,1778446477380,607.0,-3.0100918,-1.4092814,1.1654434,0.0,0.0,0.0
607,1778446477390,608.0,-2.9802242999999997,-1.3409480333333337,1.169046866666667,0.0,0.0,0.0
608,1778446477400,609.0,-2.878527,-1.1547400333333335,1.1845412666666666,0.0,0.0,0.0
609,1778446477410,610.0,-2.5859327,-0.9975535,1.1234404,0.0,0.0,0.0
610,1778446477420,611.0,-2.5859327,-0.9975535,1.1234404,0.0,0.0,0.0
611,1778446477430,612.0,-2.5859327,-0.9975535,1.1234404,0.0,0.0,0.0
612,1778446477440,613.0,-2.5859327,-0.9975535,1.1234404,0.0,0.0,0.0
613,1778446477450,614.0,-2.5859327,-0.9975535,1.1234404,0.0,0.0,0.0
614,1778446477460,615.0,-2.5859327,-0.9975535,1.1234404,0.0,0.0,0.0
615,1778446477470,616.0,-2.5859327,-0.9975535,1.1234404,0.0,0.0,0.0
616,1778446477480,617.0,-2.5859327,-0.9975535,1.1234404,0.0,0.0,0.0
617,1778446477490,618.0,-2.5859327,-0.9975535,1.1234404,0.0,0.0,0.0
618,1778446477500,619.0,-2.5859327,-0.9975535,1.1234404,0.0,0.0,0.0
619,1778446477510,620.0,-2.5859327,-0.9975535,1.1234404,0.0,0.0,0.0
620,1778446477520,621.0,-2.5859327,-0.9975535,1.1234404,0.0,0.0,0.0
621,1778446477530,622.0,-2.5859327,-0.9975535,1.1234404,0.0,0.0,0.0
622,1778446477540,623.0,-2.5859327,-0.9975535,1.1234404,0.0,0.0,0.0
623,1778446477550,624.0,-2.576896,-1.0298674666666667,1.0849796333333332,0.0,0.0,0.0
624,1778446477560,625.0,-2.5588226,-1.0944954,1.0080581,0.0,0.0,0.0
625,1778446477570,626.0,-2.5588226,-1.0944954,1.0080581,0.0,0.0,0.0
626,1778446477580,627.0,-2.5588226,-1.0944954,1.0080581,0.0,0.0,0.0
627,1778446477590,628.0,-2.5588226,-1.0944954,1.0080581,0.0,0.0,0.0
628,1778446477600,629.0,-2.5588226,-1.0944954,1.0080581,0.0,0.0,0.0
629,1778446477610,630.0,-2.5588226,-1.0944954,1.0080581,0.0,0.0,0.0
630,1778446477620,631.0,-2.5588226,-1.0944954,1.0080581,0.0,0.0,0.0
631,1778446477630,632.0,-2.5588226,-1.0944954,1.0080581,0.0,0.0,0.0
632,1778446477640,633.0,-2.5588226,-1.0944954,1.0080581,0.0,0.0,0.0
633,1778446477650,634.0,-2.5588226,-1.0944954,1.0080581,0.0,0.0,0.0
634,1778446477660,635.0,-2.5588226,-1.0944954,1.0080581,0.0,0.0,0.0
635,1778446477670,636.0,-2.57217505,-1.102725525,0.990955675,0.0,0.0,0.0
636,1778446477680,637.0,-2.6122324,-1.1274159,0.9396484,0.0,0.0,0.0
637,1778446477690,638.0,-2.6122324,-1.1274159,0.9396484,0.0,0.0,0.0
638,1778446477700,639.0,-2.931737866666667,-1.082777833333333,0.8450917133333333,0.0,0.0,0.0
639,1778446477710,640.0,-3.217844,-0.9949083,0.80377674,0.0,0.0,0.0
640,1778446477720,641.0,-3.217844,-0.9949083,0.80377674,0.0,0.0,0.0
641,1778446477730,642.0,-3.217844,-0.9949083,0.80377674,0.0,0.0,0.0
642,1778446477740,643.0,-3.217844,-0.9949083,0.80377674,0.0,0.0,0.0
643,1778446477750,644.0,-3.217844,-0.9949083,0.80377674,0.0,0.0,0.0
644,1778446477760,645.0,-3.217844,-0.9949083,0.80377674,0.0,0.0,0.0
645,1778446477770,646.0,-3.217844,-0.9949083,0.80377674,0.0,0.0,0.0
646,1778446477780,647.0,-3.24699545,-0.960477865,0.788459465,0.0,0.0,0.0
647,1778446477790,648.0,-3.3344498,-0.85718656,0.74250764,0.0,0.0,0.0
648,1778446477800,649.0,-3.4408716,-0.6787257866666666,0.6336391200000001,0.0,0.0,0.0
649,1778446477810,650.0,-3.4940825,-0.5894954,0.57920486,0.0,0.0,0.0
650,1778446477820,651.0,-3.4940825,-0.5894954,0.57920486,0.0,0.0,0.0
651,1778446477830,652.0,-3.4940825,-0.5894954,0.57920486,0.0,0.0,0.0
652,1778446477840,653.0,-3.4940825,-0.5894954,0.57920486,0.0,0.0,0.0
653,1778446477850,654.0,-3.4940825,-0.5894954,0.57920486,0.0,0.0,0.0
654,1778446477860,655.0,-3.4940825,-0.5894954,0.57920486,0.0,0.0,0.0
655,1778446477870,656.0,-3.4940825,-0.5894954,0.57920486,0.0,0.0,0.0
656,1778446477880,657.0,-3.4940825,-0.5894954,0.57920486,0.0,0.0,0.0
657,1778446477890,658.0,-3.5564065,-0.5797094666666666,0.5624158866666668,0.0,0.0,0.0
658,1778446477900,659.0,-3.5875685,-0.5748165,0.5540214,0.0,0.0,0.0
659,1778446477910,660.0,-3.5875685,-0.5748165,0.5540214,0.0,0.0,0.0
660,1778446477920,661.0,-3.5875685,-0.5748165,0.5540214,0.0,0.0,0.0
661,1778446477930,662.0,-3.5875685,-0.5748165,0.5540214,0.0,0.0,0.0
662,1778446477940,663.0,-3.5875685,-0.5748165,0.5540214,0.0,0.0,0.0
663,1778446477950,664.0,-3.5875685,-0.5748165,0.5540214,0.0,0.0,0.0
664,1778446477960,665.0,-3.59510695,-0.5737462,0.5535627000000001,0.0,0.0,0.0
665,1778446477970,666.0,-3.6026454,-0.5726759,0.553104,0.0,0.0,0.0
666,1778446477980,667.0,-3.6554486,-0.5611264333333333,0.5648267166666666,0.0,0.0,0.0
667,1778446477990,668.0,-3.8023088,-0.5225637,0.563369,0.0,0.0,0.0
668,1778446478000,669.0,-3.8848164,-0.4916361,0.5135627,0.0,0.0,0.0
669,1778446478010,670.0,-3.8848164,-0.4916361,0.5135627,0.0,0.0,0.0
670,1778446478020,671.0,-3.8848164,-0.4916361,0.5135627,0.0,0.0,0.0
671,1778446478030,672.0,-3.8848164,-0.4916361,0.5135627,0.0,0.0,0.0
672,1778446478040,673.0,-3.951682,-0.41009176,0.27848622,0.0,0.0,0.0
673,1778446478050,674.0,-3.951682,-0.41009176,0.27848622,0.0,0.0,0.0
674,1778446478060,675.0,-3.951682,-0.41009176,0.27848622,0.0,0.0,0.0
675,1778446478070,676.0,-3.9262996666666665,-0.4008155066666667,0.24807848,0.0,0.0,0.0
676,1778446478080,677.0,-3.84764,-0.3937461833333333,0.1841029533333333,0.0,0.0,0.0
677,1778446478090,678.0,-3.79185,-0.41671255,0.17778286,0.0,0.0,0.0
678,1778446478100,679.0,-2.7711213333333333,-0.71341998,0.6093781933333334,0.0,0.0,0.0
679,1778446478110,680.0,-3.6820236,-0.5309531266666667,0.2149184466666666,0.0,0.0,0.0
680,1778446478120,681.0,-3.601422,-0.61509174,0.2961315,0.0,0.0,0.0
681,1778446478130,682.0,-3.601422,-0.61509174,0.2961315,0.0,0.0,0.0
682,1778446478140,683.0,-3.601422,-0.61509174,0.2961315,0.0,0.0,0.0
683,1778446478150,684.0,-3.601422,-0.61509174,0.2961315,0.0,0.0,0.0
684,1778446478160,685.0,-3.601422,-0.61509174,0.2961315,0.0,0.0,0.0
685,1778446478170,686.0,-3.44493105,-0.62387616,0.350259945,0.0,0.0,0.0
686,1778446478180,687.0,-3.3927674,-0.6268043,0.36830276,0.0,0.0,0.0
687,1778446478190,688.0,-3.3927674,-0.6268043,0.36830276,0.0,0.0,0.0
688,1778446478200,689.0,-3.3927674,-0.6268043,0.36830276,0.0,0.0,0.0
689,1778446478210,690.0,-3.3927674,-0.6268043,0.36830276,0.0,0.0,0.0
690,1778446478220,691.0,-3.2678542,-0.6264679000000001,0.37957696,0.0,0.0,0.0
691,1778446478230,692.0,-3.2053976,-0.6262997,0.38521406,0.0,0.0,0.0
692,1778446478240,693.0,-3.2053976,-0.6262997,0.38521406,0.0,0.0,0.0
693,1778446478250,694.0,-3.0361926999999995,-0.6255811,0.39643732,0.0,0.0,0.0
694,1778446478260,695.0,-3.0361926999999995,-0.6255811,0.39643732,0.0,0.0,0.0
695,1778446478270,696.0,-3.0361927,-0.6255811,0.39643732,0.0,0.0,0.0
696,1778446478280,697.0,-3.0361926999999995,-0.6255811,0.39643732,0.0,0.0,0.0
697,1778446478290,698.0,-3.0361927,-0.6255811,0.39643732,0.0,0.0,0.0
698,1778446478300,699.0,-2.935132433333333,-0.6721356333333333,0.4369368066666667,0.0,0.0,0.0
699,1778446478310,700.0,-2.770876533333334,-0.7127421333333332,0.5006473,0.0,0.0,0.0
700,1778446478320,701.0,-2.397710275,-0.7723968,0.66712159,0.0,0.0,0.0
701,1778446478330,702.0,-2.3428135,-0.8027523,0.7192660600000002,0.0,0.0,0.0
702,1778446478340,703.0,-2.3428135,-0.8027523,0.7192660600000002,0.0,0.0,0.0
703,1778446478350,704.0,-2.3062232,-0.81723243,0.78909785,0.0,0.0,0.0
704,1778446478360,705.0,-2.3062232,-0.8172324300000001,0.78909785,0.0,0.0,0.0
705,1778446478370,706.0,-2.3062232,-0.81723243,0.78909785,0.0,0.0,0.0
706,1778446478380,707.0,-2.3062232,-0.8172324300000001,0.78909785,0.0,0.0,0.0
707,1778446478390,708.0,-2.3062232,-0.8172324300000001,0.78909785,0.0,0.0,0.0
708,1778446478400,709.0,-2.383792,-0.90041286,0.8435321,0.0,0.0,0.0
709,1778446478410,710.0,-2.383792,-0.90041286,0.8435321,0.0,0.0,0.0
710,1778446478420,711.0,-2.383792,-0.90041286,0.8435321,0.0,0.0,0.0
711,1778446478430,712.0,-2.383792,-0.90041286,0.8435321,0.0,0.0,0.0
712,1778446478440,713.0,-2.383792,-0.90041286,0.8435321,0.0,0.0,0.0
713,1778446478450,714.0,-2.383792,-0.90041286,0.8435321,0.0,0.0,0.0
714,1778446478460,715.0,-2.383792,-0.90041286,0.8435321,0.0,0.0,0.0
715,1778446478470,716.0,-2.383792,-0.90041286,0.8435321,0.0,0.0,0.0
716,1778446478480,717.0,-2.383792,-0.90041286,0.8435321,0.0,0.0,0.0
717,1778446478490,718.0,-2.383792,-0.90041286,0.8435321,0.0,0.0,0.0
718,1778446478500,719.0,-2.4943883,-0.9590214,0.8420948,0.0,0.0,0.0
719,1778446478510,720.0,-2.4943883,-0.9590214,0.8420948,0.0,0.0,0.0
720,1778446478520,721.0,-2.4943883,-0.9590214,0.8420948,0.0,0.0,0.0
721,1778446478530,722.0,-2.528792,-0.99413605,0.80570335,0.0,0.0,0.0
722,1778446478540,723.0,-2.5631957,-1.0292507,0.7693119,0.0,0.0,0.0
723,1778446478550,724.0,-2.5631957,-1.0292507,0.7693119,0.0,0.0,0.0
724,1778446478560,725.0,-2.5631957,-1.0292507,0.7693119,0.0,0.0,0.0
725,1778446478570,726.0,-2.5631957,-1.0292507,0.7693119,0.0,0.0,0.0
726,1778446478580,727.0,-2.5631957,-1.0292507,0.7693119,0.0,0.0,0.0
727,1778446478590,728.0,-2.5631957,-1.0292507,0.7693119,0.0,0.0,0.0
728,1778446478600,729.0,-2.5631957,-1.0292507,0.7693119,0.0,0.0,0.0
729,1778446478610,730.0,-2.5766513,-1.1479051,0.6931651,0.0,0.0,0.0
730,1778446478620,731.0,-2.5766513,-1.1479051,0.6931651,0.0,0.0,0.0
731,1778446478630,732.0,-2.5766513,-1.1479051,0.6931651,0.0,0.0,0.0
732,1778446478640,733.0,-2.5766513,-1.1479051,0.6931651,0.0,0.0,0.0
733,1778446478650,734.0,-2.5766513,-1.1479051,0.6931651,0.0,0.0,0.0
734,1778446478660,735.0,-2.5766513,-1.1479051,0.6931651,0.0,0.0,0.0
735,1778446478670,736.0,-2.5766513,-1.1479051,0.6931651,0.0,0.0,0.0
736,1778446478680,737.0,-2.5705352,-1.238945,0.6551529,0.0,0.0,0.0
737,1778446478690,738.0,-2.5705352,-1.238945,0.6551529,0.0,0.0,0.0
738,1778446478700,739.0,-2.5705352,-1.238945,0.6551529,0.0,0.0,0.0
739,1778446478710,740.0,-2.4943883,-1.3268043,0.6221254,0.0,0.0,0.0
740,1778446478720,741.0,-2.4943883,-1.3268043,0.6221254,0.0,0.0,0.0
741,1778446478730,742.0,-2.3948367666666663,-1.405234433333333,0.5795158,0.0,0.0,0.0
742,1778446478740,743.0,-2.345061,-1.4444495,0.558211,0.0,0.0,0.0
743,1778446478750,744.0,-2.345061,-1.4444495,0.558211,0.0,0.0,0.0
744,1778446478760,745.0,-2.299153833333333,-1.5078848,0.5563404766666666,0.0,0.0,0.0
745,1778446478770,746.0,-2.14441525,-1.7177140999999998,0.5796636075,0.0,0.0,0.0
746,1778446478780,747.0,-2.1234405,-1.745367,0.588685,0.0,0.0,0.0
747,1778446478790,748.0,-2.097014625,-1.76422405,0.60797781,0.0,0.0,0.0
748,1778446478800,749.0,-2.017737,-1.8207952,0.66585624,0.0,0.0,0.0
749,1778446478810,750.0,-2.017737,-1.8207952,0.66585624,0.0,0.0,0.0
750,1778446478820,751.0,-2.017737,-1.8207952,0.66585624,0.0,0.0,0.0
751,1778446478830,752.0,-1.9093807,-1.8762997,0.690978585,0.0,0.0,0.0
752,1778446478840,753.0,-1.8010244,-1.9318042,0.71610093,0.0,0.0,0.0
753,1778446478850,754.0,-1.8010244,-1.9318042,0.71610093,0.0,0.0,0.0
754,1778446478860,755.0,-1.8010244,-1.9318042,0.71610093,0.0,0.0,0.0
755,1778446478870,756.0,-1.8010244,-1.9318042,0.71610093,0.0,0.0,0.0
756,1778446478880,757.0,-1.8010244,-1.9318042,0.71610093,0.0,0.0,0.0
757,1778446478890,758.0,-1.8010244,-1.9318042,0.71610093,0.0,0.0,0.0
758,1778446478900,759.0,-1.8010244,-1.9318042,0.71610093,0.0,0.0,0.0
759,1778446478910,760.0,-1.7236544,-1.993578,0.7180428,0.0,0.0,0.0
760,1778446478920,761.0,-1.7236544,-1.993578,0.7180428,0.0,0.0,0.0
761,1778446478930,762.0,-1.7236544,-1.993578,0.7180428,0.0,0.0,0.0
762,1778446478940,763.0,-1.7236544,-1.993578,0.7180428,0.0,0.0,0.0
763,1778446478950,764.0,-1.7236544,-1.993578,0.7180428,0.0,0.0,0.0
764,1778446478960,765.0,-1.7236544,-1.993578,0.7180428,0.0,0.0,0.0
765,1778446478970,766.0,-1.7236544,-1.993578,0.7180428,0.0,0.0,0.0
766,1778446478980,767.0,-1.6820107,-2.0328746,0.714166675,0.0,0.0,0.0
767,1778446478990,768.0,-1.640367,-2.0721712,0.71029055,0.0,0.0,0.0
768,1778446479000,769.0,-1.640367,-2.0721712,0.71029055,0.0,0.0,0.0
769,1778446479010,770.0,-1.640367,-2.0721712,0.71029055,0.0,0.0,0.0
770,1778446479020,771.0,-1.640367,-2.0721712,0.71029055,0.0,0.0,0.0
771,1778446479030,772.0,-1.58019495,-2.1279854499999997,0.7047859625,0.0,0.0,0.0
772,1778446479040,773.0,-1.5751806125,-2.1326366374999997,0.704327246875,0.0,0.0,0.0
773,1778446479050,774.0,-1.570166275,-2.1372878249999996,0.70386853125,0.0,0.0,0.0
774,1778446479060,775.0,-1.5651519375,-2.1419390125,0.703409815625,0.0,0.0,0.0
775,1778446479070,776.0,-1.5601376,-2.1465902,0.7029511,0.0,0.0,0.0
776,1778446479080,777.0,-1.5601376,-2.1465902,0.7029511,0.0,0.0,0.0
777,1778446479090,778.0,-1.5601376,-2.1465902,0.7029511,0.0,0.0,0.0
778,1778446479100,779.0,-1.5601376,-2.1465902,0.7029511,0.0,0.0,0.0
779,1778446479110,780.0,-1.4444495,-2.2183487,0.6941896,0.0,0.0,0.0
780,1778446479120,781.0,-1.4444495,-2.2183487,0.6941896,0.0,0.0,0.0
781,1778446479130,782.0,-1.4444495,-2.2183487,0.6941896,0.0,0.0,0.0
782,1778446479140,783.0,-1.4444495,-2.2183487,0.6941896,0.0,0.0,0.0
783,1778446479150,784.0,-1.4444495,-2.2183487,0.6941896,0.0,0.0,0.0
784,1778446479160,785.0,-1.4444495,-2.2183487,0.6941896,0.0,0.0,0.0
785,1778446479170,786.0,-1.38658,-2.2430174,0.6879052,0.0,0.0,0.0
786,1778446479180,787.0,-1.270841,-2.2923548,0.6753364,0.0,0.0,0.0
787,1778446479190,788.0,-1.270841,-2.2923548,0.6753364,0.0,0.0,0.0
788,1778446479200,789.0,-1.270841,-2.2923548,0.6753364,0.0,0.0,0.0
789,1778446479210,790.0,-1.270841,-2.2923548,0.6753364,0.0,0.0,0.0
790,1778446479220,791.0,-1.270841,-2.2923548,0.6753364,0.0,0.0,0.0
791,1778446479230,792.0,-1.270841,-2.2923548,0.6753364,0.0,0.0,0.0
792,1778446479240,793.0,-1.1295567,-2.30448,0.64392966,0.0,0.0,0.0
793,1778446479250,794.0,-1.1295567,-2.30448,0.64392966,0.0,0.0,0.0
794,1778446479260,795.0,-1.1295567,-2.30448,0.64392966,0.0,0.0,0.0
795,1778446479270,796.0,-1.1295567,-2.30448,0.64392966,0.0,0.0,0.0
796,1778446479280,797.0,-1.1295567,-2.30448,0.64392966,0.0,0.0,0.0
797,1778446479290,798.0,-1.1295567,-2.30448,0.64392966,0.0,0.0,0.0
798,1778446479300,799.0,-1.030909875,-2.315668875,0.632821095,0.0,0.0,0.0
799,1778446479310,800.0,-0.7349694000000001,-2.3492355,0.5994954,0.0,0.0,0.0
800,1778446479320,801.0,-0.39154434,-2.2911315,0.39908257,0.0,0.0,0.0
801,1778446479330,802.0,-0.39154434,-2.2911315,0.39908257,0.0,0.0,0.0
802,1778446479340,803.0,-0.39154434,-2.2911315,0.39908257,0.0,0.0,0.0
803,1778446479350,804.0,-0.39154434,-2.2911315,0.39908257,0.0,0.0,0.0
804,1778446479360,805.0,-0.39154434,-2.2911315,0.39908257,0.0,0.0,0.0
805,1778446479370,806.0,-0.39154434,-2.2911315,0.39908257,0.0,0.0,0.0
806,1778446479380,807.0,-0.39154434,-2.2911315,0.39908257,0.0,0.0,0.0
807,1778446479390,808.0,-0.39154434,-2.2911315,0.39908257,0.0,0.0,0.0
808,1778446479400,809.0,-0.39154434,-2.2911315,0.39908257,0.0,0.0,0.0
809,1778446479410,810.0,-0.39154434,-2.2911315,0.39908257,0.0,0.0,0.0
810,1778446479420,811.0,-0.39154434,-2.2911315,0.39908257,0.0,0.0,0.0
811,1778446479430,812.0,-0.39154434,-2.2911315,0.39908257,0.0,0.0,0.0
812,1778446479440,813.0,-0.39154434,-2.2911315,0.39908257,0.0,0.0,0.0
813,1778446479450,814.0,-0.39154434,-2.2911315,0.39908257,0.0,0.0,0.0
814,1778446479460,815.0,-0.39154434,-2.2911315,0.39908257,0.0,0.0,0.0
815,1778446479470,816.0,-0.39154434,-2.2911315,0.39908257,0.0,0.0,0.0
816,1778446479480,817.0,-0.1762538299999999,-2.2720642,0.3785932699999999,0.0,0.0,0.0
817,1778446479490,818.0,-0.1762538299999999,-2.2720642,0.3785932699999999,0.0,0.0,0.0
818,1778446479500,819.0,-0.0903516846666666,-2.130851133333333,0.31919469,0.0,0.0,0.0
819,1778446479510,820.0,-0.047400612,-2.0602446,0.2894954,0.0,0.0,0.0
820,1778446479520,821.0,0.26299694,-1.9277217,0.22527525,0.0,0.0,0.0
821,1778446479530,822.0,0.26299694,-1.9277217,0.22527525,0.0,0.0,0.0
822,1778446479540,823.0,0.26299694,-1.9277217,0.22527525,0.0,0.0,0.0
823,1778446479550,824.0,0.26299694,-1.9277217,0.22527525,0.0,0.0,0.0
824,1778446479560,825.0,0.26299694,-1.9277217,0.22527525,0.0,0.0,0.0
825,1778446479570,826.0,0.26299694,-1.9277217,0.22527525,0.0,0.0,0.0
826,1778446479580,827.0,0.26299694,-1.9277217,0.22527525,0.0,0.0,0.0
827,1778446479590,828.0,0.26299694,-1.9277217,0.22527525,0.0,0.0,0.0
828,1778446479600,829.0,0.26299694,-1.9277217,0.22527525,0.0,0.0,0.0
829,1778446479610,830.0,0.26299694,-1.9277217,0.22527525,0.0,0.0,0.0
830,1778446479620,831.0,0.43506116,-1.8896024,0.15840977,0.0,0.0,0.0
831,1778446479630,832.0,0.43506116,-1.8896024,0.15840977,0.0,0.0,0.0
832,1778446479640,833.0,0.43506116,-1.8896024,0.15840977,0.0,0.0,0.0
833,1778446479650,834.0,0.43506116,-1.8896024,0.15840977,0.0,0.0,0.0
834,1778446479660,835.0,0.43506116,-1.8896024,0.15840977,0.0,0.0,0.0
835,1778446479670,836.0,0.5011875733333334,-1.8778797,0.1201172166666666,0.0,0.0,0.0
836,1778446479680,837.0,0.6334404,-1.8544343,0.0435321099999999,0.0,0.0,0.0
837,1778446479690,838.0,0.6334404,-1.8544343,0.0435321099999999,0.0,0.0,0.0
838,1778446479700,839.0,0.7945616666666666,-1.8481141666666667,-0.00472477,0.0,0.0,0.0
839,1778446479710,840.0,0.8751223,-1.8449541,-0.02885321,0.0,0.0,0.0
840,1778446479720,841.0,0.8751223,-1.8449541,-0.02885321,0.0,0.0,0.0
841,1778446479730,842.0,0.8751223,-1.8449541,-0.02885321,0.0,0.0,0.0
842,1778446479740,843.0,0.8751223,-1.8449541,-0.02885321,0.0,0.0,0.0
843,1778446479750,844.0,0.8751223,-1.8449541,-0.02885321,0.0,0.0,0.0
844,1778446479760,845.0,1.0614679,-1.8074923,-0.08711009,0.0,0.0,0.0
845,1778446479770,846.0,1.3302803666666667,-1.7422680333333334,-0.1897757366666666,0.0,0.0,0.0
846,1778446479780,847.0,1.8191997666666664,-1.5337105333333332,-0.36044342,0.0,0.0,0.0
847,1778446479790,848.0,1.9103975,-1.5377218,-0.38185015,0.0,0.0,0.0
848,1778446479800,849.0,1.9103975,-1.5377218,-0.38185015,0.0,0.0,0.0
849,1778446479810,850.0,1.9795107,-1.3616667,-0.38501528,0.0,0.0,0.0
850,1778446479820,851.0,1.9795107,-1.3616667,-0.38501528,0.0,0.0,0.0
851,1778446479830,852.0,2.02038985,-1.38169725,-0.3266590099999999,0.0,0.0,0.0
852,1778446479840,853.0,2.061269,-1.4017278,-0.26830274,0.0,0.0,0.0
853,1778446479850,854.0,2.061269,-1.4017278,-0.26830274,0.0,0.0,0.0
854,1778446479860,855.0,2.061269,-1.4017278,-0.26830274,0.0,0.0,0.0
855,1778446479870,856.0,2.061269,-1.4017278,-0.26830274,0.0,0.0,0.0
856,1778446479880,857.0,2.1166208,-1.4234405,-0.2243578,0.0,0.0,0.0
857,1778446479890,858.0,2.1166208,-1.4234405,-0.2243578,0.0,0.0,0.0
858,1778446479900,859.0,2.1166208,-1.4234405,-0.2243578,0.0,0.0,0.0
859,1778446479910,860.0,2.1166208,-1.4234405,-0.2243578,0.0,0.0,0.0
860,1778446479920,861.0,2.1166208,-1.4234405,-0.2243578,0.0,0.0,0.0
861,1778446479930,862.0,2.1166208,-1.4234405,-0.2243578,0.0,0.0,0.0
862,1778446479940,863.0,2.1166208,-1.4234405,-0.2243578,0.0,0.0,0.0
863,1778446479950,864.0,2.1166208,-1.4234405,-0.2243578,0.0,0.0,0.0
864,1778446479960,865.0,2.1166208,-1.4234405,-0.2243578,0.0,0.0,0.0
865,1778446479970,866.0,2.1166208,-1.4234405,-0.2243578,0.0,0.0,0.0
866,1778446479980,867.0,2.1479053,-1.2681957,-0.6234403,0.0,0.0,0.0
867,1778446479990,868.0,2.1479053,-1.2681957,-0.6234403,0.0,0.0,0.0
868,1778446480000,869.0,2.1479053,-1.2681957,-0.6234403,0.0,0.0,0.0
869,1778446480010,870.0,2.1479053,-1.2681957,-0.6234403,0.0,0.0,0.0
870,1778446480020,871.0,2.1479053,-1.2681957,-0.6234403,0.0,0.0,0.0
871,1778446480030,872.0,2.1479053,-1.2681957,-0.6234403,0.0,0.0,0.0
872,1778446480040,873.0,2.1479053,-1.2681957,-0.6234403,0.0,0.0,0.0
873,1778446480050,874.0,2.1479053,-1.2681957,-0.6234403,0.0,0.0,0.0
874,1778446480060,875.0,2.1479053,-1.2681957,-0.6234403,0.0,0.0,0.0
875,1778446480070,876.0,2.164082666666667,-1.260244666666667,-0.6841946466666666,0.0,0.0,0.0
876,1778446480080,877.0,2.3504586,-1.1830734,-0.982263,0.0,0.0,0.0
877,1778446480090,878.0,2.3504586,-1.1830734,-0.982263,0.0,0.0,0.0
878,1778446480100,879.0,2.3504586,-1.1830734,-0.982263,0.0,0.0,0.0
879,1778446480110,880.0,2.3504586,-1.1830734,-0.982263,0.0,0.0,0.0
880,1778446480120,881.0,2.590627,-1.3390367,-0.9892967,0.0,0.0,0.0
881,1778446480130,882.0,2.590627,-1.3390367,-0.9892967,0.0,0.0,0.0
882,1778446480140,883.0,2.6815851,-1.3358460666666667,-1.0341846,0.0,0.0,0.0
883,1778446480150,884.0,2.6462843,-1.2233486,-1.060046,0.0,0.0,0.0
884,1778446480160,885.0,2.6462843,-1.2233486,-1.060046,0.0,0.0,0.0
885,1778446480170,886.0,2.6409122666666667,-1.2272528,-1.0903874666666666,0.0,0.0,0.0
886,1778446480180,887.0,2.6301682,-1.2350612,-1.1510704,0.0,0.0,0.0
887,1778446480190,888.0,2.6301682,-1.2350612,-1.1510704,0.0,0.0,0.0
888,1778446480200,889.0,2.6301682,-1.2350612,-1.1510704,0.0,0.0,0.0
889,1778446480210,890.0,2.5400612,-1.2423089,-1.159633,0.0,0.0,0.0
890,1778446480220,891.0,2.5400612,-1.2423089,-1.159633,0.0,0.0,0.0
891,1778446480230,892.0,2.5400612,-1.2423089,-1.159633,0.0,0.0,0.0
892,1778446480240,893.0,2.5400612,-1.2423089,-1.159633,0.0,0.0,0.0
893,1778446480250,894.0,2.5400612,-1.2423089,-1.159633,0.0,0.0,0.0
894,1778446480260,895.0,2.5400612,-1.2423089,-1.159633,0.0,0.0,0.0
895,1778446480270,896.0,2.463476066666667,-1.2711161666666666,-1.087736933333333,0.0,0.0,0.0
896,1778446480280,897.0,2.40576455,-1.2897018,-1.00127672,0.0,0.0,0.0
897,1778446480290,898.0,2.3658563,-1.2983333333333331,-0.9458715733333332,0.0,0.0,0.0
898,1778446480300,899.0,2.3033638,-1.4173242,-0.9143731,0.0,0.0,0.0
899,1778446480310,900.0,2.3033638,-1.4173242,-0.9143731,0.0,0.0,0.0
900,1778446480320,901.0,2.3033638,-1.4173242,-0.9143731,0.0,0.0,0.0
901,1778446480330,902.0,2.3033638,-1.4173242,-0.9143731,0.0,0.0,0.0
902,1778446480340,903.0,2.3033638,-1.4173242,-0.9143731,0.0,0.0,0.0
903,1778446480350,904.0,2.3033638,-1.4173242,-0.9143731,0.0,0.0,0.0
904,1778446480360,905.0,2.3033638,-1.4173242,-0.9143731,0.0,0.0,0.0
905,1778446480370,906.0,2.3033638,-1.4173242,-0.9143731,0.0,0.0,0.0
906,1778446480380,907.0,2.3033638,-1.4173242,-0.9143731,0.0,0.0,0.0
907,1778446480390,908.0,2.3033638,-1.4173242,-0.9143731,0.0,0.0,0.0
908,1778446480400,909.0,2.3033638,-1.4173242,-0.9143731,0.0,0.0,0.0
909,1778446480410,910.0,2.2481383,-1.3840176,-0.90478976,0.0,0.0,0.0
910,1778446480420,911.0,2.0824618,-1.2840978,-0.87603974,0.0,0.0,0.0
911,1778446480430,912.0,2.0824618,-1.2840978,-0.87603974,0.0,0.0,0.0
912,1778446480440,913.0,2.0824618,-1.2840978,-0.87603974,0.0,0.0,0.0
913,1778446480450,914.0,2.0824618,-1.2840978,-0.87603974,0.0,0.0,0.0
914,1778446480460,915.0,2.0824618,-1.2840978,-0.87603974,0.0,0.0,0.0
915,1778446480470,916.0,2.0824618,-1.2840978,-0.87603974,0.0,0.0,0.0
916,1778446480480,917.0,2.0824618,-1.2840978,-0.87603974,0.0,0.0,0.0
917,1778446480490,918.0,2.0824618,-1.2840978,-0.87603974,0.0,0.0,0.0
918,1778446480500,919.0,2.190107,-1.5264068,-0.8086696999999999,0.0,0.0,0.0
919,1778446480510,920.0,2.190107,-1.5264068,-0.8086696999999999,0.0,0.0,0.0
920,1778446480520,921.0,2.190107,-1.5264068,-0.8086696999999999,0.0,0.0,0.0
921,1778446480530,922.0,2.190107,-1.5264068,-0.8086697,0.0,0.0,0.0
922,1778446480540,923.0,2.190107,-1.5264068,-0.8086696999999999,0.0,0.0,0.0
923,1778446480550,924.0,2.190107,-1.5264068,-0.8086696999999999,0.0,0.0,0.0
924,1778446480560,925.0,2.190107,-1.5264068,-0.8086696999999999,0.0,0.0,0.0
925,1778446480570,926.0,2.190107,-1.5264068,-0.8086696999999999,0.0,0.0,0.0
926,1778446480580,927.0,2.190107,-1.5264068,-0.8086697,0.0,0.0,0.0
927,1778446480590,928.0,2.190107,-1.5264068,-0.8086696999999999,0.0,0.0,0.0
928,1778446480600,929.0,2.5211008,-1.8794037,-0.7752294000000001,0.0,0.0,0.0
929,1778446480610,930.0,2.5211008,-1.8794037,-0.7752294,0.0,0.0,0.0
930,1778446480620,931.0,2.5211008,-1.8794037,-0.7752294000000001,0.0,0.0,0.0
931,1778446480630,932.0,2.5211008,-1.8794037,-0.7752294000000001,0.0,0.0,0.0
932,1778446480640,933.0,2.5211008,-1.8794037,-0.7752294000000001,0.0,0.0,0.0
933,1778446480650,934.0,2.4434607333333336,-1.8364220333333332,-0.7429511,0.0,0.0,0.0
934,1778446480660,935.0,2.2881806,-1.7504587,-0.6783945,0.0,0.0,0.0
935,1778446480670,936.0,2.2881806,-1.7504587,-0.6783945,0.0,0.0,0.0
936,1778446480680,937.0,2.2881806,-1.7504587,-0.6783945,0.0,0.0,0.0
937,1778446480690,938.0,2.2881806,-1.7504587,-0.6783945,0.0,0.0,0.0
938,1778446480700,939.0,2.2881806,-1.7504587,-0.6783945,0.0,0.0,0.0
939,1778446480710,940.0,2.2881806,-1.7504587,-0.6783945,0.0,0.0,0.0
940,1778446480720,941.0,2.2881806,-1.7504587,-0.6783945,0.0,0.0,0.0
941,1778446480730,942.0,2.2881806,-1.7504587,-0.6783945,0.0,0.0,0.0
942,1778446480740,943.0,2.2881806,-1.7504587,-0.6783945,0.0,0.0,0.0
943,1778446480750,944.0,2.2783182,-1.7654702,-0.686980125,0.0,0.0,0.0
944,1778446480760,945.0,2.248731,-1.8105047,-0.7127370000000001,0.0,0.0,0.0
945,1778446480770,946.0,2.248731,-1.8105047,-0.7127370000000001,0.0,0.0,0.0
946,1778446480780,947.0,2.248731,-1.8105047,-0.7127370000000001,0.0,0.0,0.0
947,1778446480790,948.0,2.248731,-1.8105047,-0.7127370000000001,0.0,0.0,0.0
948,1778446480800,949.0,2.1557111,-1.84638385,-0.730680425,0.0,0.0,0.0
949,1778446480810,950.0,2.0626912,-1.882263,-0.74862385,0.0,0.0,0.0
950,1778446480820,951.0,2.0626912,-1.882263,-0.74862385,0.0,0.0,0.0
951,1778446480830,952.0,2.0626912,-1.882263,-0.74862385,0.0,0.0,0.0
952,1778446480840,953.0,2.0626912,-1.882263,-0.74862385,0.0,0.0,0.0
953,1778446480850,954.0,2.0626912,-1.882263,-0.74862385,0.0,0.0,0.0
954,1778446480860,955.0,2.0626912,-1.882263,-0.74862385,0.0,0.0,0.0
955,1778446480870,956.0,1.9716616333333337,-1.918144766666667,-0.7513099,0.0,0.0,0.0
956,1778446480880,957.0,1.7896025,-1.9899083,-0.756682,0.0,0.0,0.0
957,1778446480890,958.0,1.7896025,-1.9899083,-0.756682,0.0,0.0,0.0
958,1778446480900,959.0,1.6402344333333332,-2.0146484333333334,-0.7329612666666666,0.0,0.0,0.0
959,1778446480910,960.0,1.5655504,-2.0270185,-0.7211009,0.0,0.0,0.0
960,1778446480920,961.0,1.5655504,-2.0270185,-0.7211009,0.0,0.0,0.0
961,1778446480930,962.0,1.5655504,-2.0270185,-0.7211009,0.0,0.0,0.0
962,1778446480940,963.0,1.5655504,-2.0270185,-0.7211009,0.0,0.0,0.0
963,1778446480950,964.0,1.5655504,-2.0270185,-0.7211009,0.0,0.0,0.0
964,1778446480960,965.0,1.5655504,-2.0270185,-0.7211009,0.0,0.0,0.0
965,1778446480970,966.0,1.48756875,-2.0372096,-0.6846062500000001,0.0,0.0,0.0
966,1778446480980,967.0,1.2536238,-2.0677829,-0.5751223,0.0,0.0,0.0
967,1778446480990,968.0,1.2536238,-2.0677829,-0.5751223,0.0,0.0,0.0
968,1778446481000,969.0,1.2536238,-2.0677829,-0.5751223,0.0,0.0,0.0
969,1778446481010,970.0,1.2536238,-2.0677829,-0.5751223,0.0,0.0,0.0
970,1778446481020,971.0,1.2183027,-2.0702829,-0.544365425,0.0,0.0,0.0
971,1778446481030,972.0,1.1829816,-2.0727829,-0.51360855,0.0,0.0,0.0
972,1778446481040,973.0,1.1476605,-2.0752829,-0.482851675,0.0,0.0,0.0
973,1778446481050,974.0,1.1123394,-2.0777829,-0.4520948,0.0,0.0,0.0
974,1778446481060,975.0,1.1123394,-2.0777829,-0.4520948,0.0,0.0,0.0
975,1778446481070,976.0,1.1123394,-2.0777829,-0.4520948,0.0,0.0,0.0
976,1778446481080,977.0,1.1123394,-2.0777829,-0.4520948,0.0,0.0,0.0
977,1778446481090,978.0,1.1123394,-2.0777829,-0.4520948,0.0,0.0,0.0
978,1778446481100,979.0,1.1123394,-2.0777829,-0.4520948,0.0,0.0,0.0
979,1778446481110,980.0,1.1123394,-2.0777829,-0.4520948,0.0,0.0,0.0
980,1778446481120,981.0,1.1123394,-2.0777829,-0.4520948,0.0,0.0,0.0
981,1778446481130,982.0,1.1123394,-2.0777829,-0.4520948,0.0,0.0,0.0
982,1778446481140,983.0,1.1123394,-2.0777829,-0.4520948,0.0,0.0,0.0
983,1778446481150,984.0,1.1123394,-2.0777829,-0.4520948,0.0,0.0,0.0
984,1778446481160,985.0,0.9651376,-2.0787919,-0.31590214,0.0,0.0,0.0
985,1778446481170,986.0,0.9651376,-2.0787919,-0.31590214,0.0,0.0,0.0
986,1778446481180,987.0,0.9651376,-2.0787919,-0.31590214,0.0,0.0,0.0
987,1778446481190,988.0,0.9651376,-2.0787919,-0.31590214,0.0,0.0,0.0
988,1778446481200,989.0,0.9651376,-2.0787919,-0.31590214,0.0,0.0,0.0
989,1778446481210,990.0,0.68103975,-2.0655503,-0.02232416,0.0,0.0,0.0
990,1778446481220,991.0,0.5175280566666666,-2.0539244666666665,0.1706422033333333,0.0,0.0,0.0
991,1778446481230,992.0,0.44087157,-2.0541284,0.27706423,0.0,0.0,0.0
992,1778446481240,993.0,0.30662078,-2.016315,0.42671257,0.0,0.0,0.0
993,1778446481250,994.0,0.30662078,-2.016315,0.42671257,0.0,0.0,0.0
994,1778446481260,995.0,0.2754548825,-2.00978975,0.4443960475,0.0,0.0,0.0
995,1778446481270,996.0,0.18195719,-1.990214,0.49744648,0.0,0.0,0.0
996,1778446481280,997.0,0.18195719,-1.990214,0.49744648,0.0,0.0,0.0
997,1778446481290,998.0,0.18195719,-1.990214,0.49744648,0.0,0.0,0.0
998,1778446481300,999.0,0.18195719,-1.990214,0.49744648,0.0,0.0,0.0
999,1778446481310,1000.0,0.18195719,-1.990214,0.49744648,0.0,0.0,0.0
1000,1778446481320,1001.0,0.18195719,-1.990214,0.49744648,0.0,0.0,0.0
