id,timestamp,id,acc_x,acc_y,acc_z,gyro_x,gyro_y,gyro_z
0,1778446346890,1.0,0.2534098,0.5050917,0.7932722,0.0,0.0,0.0
1,1778446346900,2.0,0.1795107,0.5264985,0.9035627,0.0,0.0,0.0
2,1778446346910,3.0,0.1795107,0.5264985,0.9035627,0.0,0.0,0.0
3,1778446346920,4.0,0.17359328,0.5306881,0.9135627,0.0,0.0,0.0
4,1778446346930,5.0,0.17359328,0.5306881,0.9135627,0.0,0.0,0.0
5,1778446346940,6.0,0.17359328,0.5306881,0.9135627,0.0,0.0,0.0
6,1778446346950,7.0,0.17359328,0.5306881,0.9135627,0.0,0.0,0.0
7,1778446346960,8.0,0.17359328,0.5306881,0.9135627,0.0,0.0,0.0
8,1778446346970,9.0,0.17359328,0.5306881,0.9135627,0.0,0.0,0.0
9,1778446346980,10.0,0.17197248,0.5282416,1.0217125,0.0,0.0,0.0
10,1778446346990,11.0,0.17197248,0.5282416,1.0217125,0.0,0.0,0.0
11,1778446347000,12.0,0.17197248,0.5282416,1.0217125,0.0,0.0,0.0
12,1778446347010,13.0,0.17197248,0.5282416,1.0217125,0.0,0.0,0.0
13,1778446347020,14.0,0.17197248,0.5282416,1.0217125,0.0,0.0,0.0
14,1778446347030,15.0,0.17197248,0.5282416,1.0217125,0.0,0.0,0.0
15,1778446347040,16.0,0.17197248,0.5282416,1.0217125,0.0,0.0,0.0
16,1778446347050,17.0,0.17197248,0.5282416,1.0217125,0.0,0.0,0.0
17,1778446347060,18.0,0.17197248,0.5282416,1.0217125,0.0,0.0,0.0
18,1778446347070,19.0,0.109892964,0.5326147,1.1579052,0.0,0.0,0.0
19,1778446347080,20.0,0.0266411793333333,0.5624821999999999,1.1782568666666666,0.0,0.0,0.0
20,1778446347090,21.0,-0.13986239,0.6222172,1.2189602,0.0,0.0,0.0
21,1778446347100,22.0,-0.13986239,0.6222172,1.2189602,0.0,0.0,0.0
22,1778446347110,23.0,-0.13986239,0.6222172,1.2189602,0.0,0.0,0.0
23,1778446347120,24.0,-0.13986239,0.6222172,1.2189602,0.0,0.0,0.0
24,1778446347130,25.0,-0.13986239,0.6222172,1.2189602,0.0,0.0,0.0
25,1778446347140,26.0,-0.13986239,0.6222172,1.2189602,0.0,0.0,0.0
26,1778446347150,27.0,-0.13986239,0.6222172,1.2189602,0.0,0.0,0.0
27,1778446347160,28.0,-0.13986239,0.6222172,1.2189602,0.0,0.0,0.0
28,1778446347170,29.0,-0.13986239,0.6222172,1.2189602,0.0,0.0,0.0
29,1778446347180,30.0,-0.13986239,0.6222172,1.2189602,0.0,0.0,0.0
30,1778446347190,31.0,-0.13986239,0.6222172,1.2189602,0.0,0.0,0.0
31,1778446347200,32.0,-0.13986239,0.6222172,1.2189602,0.0,0.0,0.0
32,1778446347210,33.0,-0.13986239,0.6222172,1.2189602,0.0,0.0,0.0
33,1778446347220,34.0,-0.13986239,0.6222172,1.2189602,0.0,0.0,0.0
34,1778446347230,35.0,-0.13986239,0.6222172,1.2189602,0.0,0.0,0.0
35,1778446347240,36.0,-0.13986239,0.6222172,1.2189602,0.0,0.0,0.0
36,1778446347250,37.0,-0.13986239,0.6222172,1.2189602,0.0,0.0,0.0
37,1778446347260,38.0,-0.13986239,0.6222172,1.2189602,0.0,0.0,0.0
38,1778446347270,39.0,-0.13496941,0.63200307,1.2326146,0.0,0.0,0.0
39,1778446347280,40.0,-0.13496941,0.63200307,1.2326146,0.0,0.0,0.0
40,1778446347290,41.0,-0.13496941,0.63200307,1.2326146,0.0,0.0,0.0
41,1778446347300,42.0,-0.13496941,0.63200307,1.2326146,0.0,0.0,0.0
42,1778446347310,43.0,-0.13496941,0.63200307,1.2326146,0.0,0.0,0.0
43,1778446347320,44.0,-0.13496941,0.63200307,1.2326146,0.0,0.0,0.0
44,1778446347330,45.0,-0.13496941,0.63200307,1.2326146,0.0,0.0,0.0
45,1778446347340,46.0,-0.04373089,0.671055,1.2308868,0.0,0.0,0.0
46,1778446347350,47.0,-0.04373089,0.671055,1.2308868,0.0,0.0,0.0
47,1778446347360,48.0,-0.04373089,0.671055,1.2308868,0.0,0.0,0.0
48,1778446347370,49.0,-0.04373089,0.671055,1.2308868,0.0,0.0,0.0
49,1778446347380,50.0,-0.04373089,0.671055,1.2308868,0.0,0.0,0.0
50,1778446347390,51.0,-0.04373089,0.671055,1.2308868,0.0,0.0,0.0
51,1778446347400,52.0,-0.04373089,0.671055,1.2308868,0.0,0.0,0.0
52,1778446347410,53.0,-0.04373089,0.671055,1.2308868,0.0,0.0,0.0
53,1778446347420,54.0,-0.04373089,0.671055,1.2308868,0.0,0.0,0.0
54,1778446347430,55.0,-0.04373089,0.671055,1.2308868,0.0,0.0,0.0
55,1778446347440,56.0,-0.04373089,0.671055,1.2308868,0.0,0.0,0.0
56,1778446347450,57.0,-0.04373089,0.671055,1.2308868,0.0,0.0,0.0
57,1778446347460,58.0,-0.04373089,0.671055,1.2308868,0.0,0.0,0.0
58,1778446347470,59.0,-0.04373089,0.671055,1.2308868,0.0,0.0,0.0
59,1778446347480,60.0,0.004994902,0.6801579999999999,1.2013964666666668,0.0,0.0,0.0
60,1778446347490,61.0,0.029357798,0.6847095,1.1866513,0.0,0.0,0.0
61,1778446347500,62.0,0.029357798,0.6847095,1.1866513,0.0,0.0,0.0
62,1778446347510,63.0,0.029357798,0.6847095,1.1866513,0.0,0.0,0.0
63,1778446347520,64.0,0.029357798,0.6847095,1.1866513,0.0,0.0,0.0
64,1778446347530,65.0,0.029357798,0.6847095,1.1866513,0.0,0.0,0.0
65,1778446347540,66.0,0.029357798,0.6847095,1.1866513,0.0,0.0,0.0
66,1778446347550,67.0,0.029357798,0.6847095,1.1866513,0.0,0.0,0.0
67,1778446347560,68.0,0.0400968403333333,0.6890927833333333,1.1960958000000002,0.0,0.0,0.0
68,1778446347570,69.0,0.061574925,0.69785935,1.2149848,0.0,0.0,0.0
69,1778446347580,70.0,0.061574925,0.69785935,1.2149848,0.0,0.0,0.0
70,1778446347590,71.0,0.061574925,0.69785935,1.2149848,0.0,0.0,0.0
71,1778446347600,72.0,0.061574925,0.69785935,1.2149848,0.0,0.0,0.0
72,1778446347610,73.0,0.061574925,0.69785935,1.2149848,0.0,0.0,0.0
73,1778446347620,74.0,0.061574925,0.69785935,1.2149848,0.0,0.0,0.0
74,1778446347630,75.0,0.061574925,0.69785935,1.2149848,0.0,0.0,0.0
75,1778446347640,76.0,0.061574925,0.69785935,1.2149848,0.0,0.0,0.0
76,1778446347650,77.0,0.061574925,0.69785935,1.2149848,0.0,0.0,0.0
77,1778446347660,78.0,0.061574925,0.69785935,1.2149848,0.0,0.0,0.0
78,1778446347670,79.0,0.061574925,0.69785935,1.2149848,0.0,0.0,0.0
79,1778446347680,80.0,0.06327981875,0.6997439,1.23420115,0.0,0.0,0.0
80,1778446347690,81.0,0.0683945,0.7053975500000002,1.2918502,0.0,0.0,0.0
81,1778446347700,82.0,0.0683945,0.7053975500000002,1.2918502,0.0,0.0,0.0
82,1778446347710,83.0,0.0683945,0.7053975500000002,1.2918502,0.0,0.0,0.0
83,1778446347720,84.0,0.0683945,0.7053975500000002,1.2918502,0.0,0.0,0.0
84,1778446347730,85.0,0.0683945,0.7053975500000002,1.2918502,0.0,0.0,0.0
85,1778446347740,86.0,0.105810404,0.7090673,1.3394495,0.0,0.0,0.0
86,1778446347750,87.0,0.105810404,0.7090673,1.3394495,0.0,0.0,0.0
87,1778446347760,88.0,0.105810404,0.7090673,1.3394495,0.0,0.0,0.0
88,1778446347770,89.0,0.105810404,0.7090673,1.3394495,0.0,0.0,0.0
89,1778446347780,90.0,0.105810404,0.7090673,1.3394495,0.0,0.0,0.0
90,1778446347790,91.0,0.105810404,0.7090673,1.3394495,0.0,0.0,0.0
91,1778446347800,92.0,0.105810404,0.7090673,1.3394495,0.0,0.0,0.0
92,1778446347810,93.0,0.105810404,0.7090673,1.3394495,0.0,0.0,0.0
93,1778446347820,94.0,0.105810404,0.7090673,1.3394495,0.0,0.0,0.0
94,1778446347830,95.0,0.105810404,0.7090673,1.3394495,0.0,0.0,0.0
95,1778446347840,96.0,0.105810404,0.7090673,1.3394495,0.0,0.0,0.0
96,1778446347850,97.0,0.105810404,0.7090673,1.3394495,0.0,0.0,0.0
97,1778446347860,98.0,0.105810404,0.7090673,1.3394495,0.0,0.0,0.0
98,1778446347870,99.0,0.105810404,0.7090673,1.3394495,0.0,0.0,0.0
99,1778446347880,100.0,0.105810404,0.7090673,1.3394495,0.0,0.0,0.0
100,1778446347890,101.0,0.1028899126666666,0.7263965499999999,1.365581,0.0,0.0,0.0
101,1778446347900,102.0,0.0999694213333333,0.7437258,1.3917125,0.0,0.0,0.0
102,1778446347910,103.0,0.09704893,0.76105505,1.417844,0.0,0.0,0.0
103,1778446347920,104.0,0.09704893,0.76105505,1.417844,0.0,0.0,0.0
104,1778446347930,105.0,0.09704893,0.76105505,1.417844,0.0,0.0,0.0
105,1778446347940,106.0,0.09704893,0.76105505,1.417844,0.0,0.0,0.0
106,1778446347950,107.0,0.0970489299999999,0.76105505,1.417844,0.0,0.0,0.0
107,1778446347960,108.0,0.0970489299999999,0.76105505,1.417844,0.0,0.0,0.0
108,1778446347970,109.0,0.09704893,0.76105505,1.417844,0.0,0.0,0.0
109,1778446347980,110.0,0.0970489299999999,0.76105505,1.417844,0.0,0.0,0.0
110,1778446347990,111.0,0.06380734,0.7620795399999999,1.4530122,0.0,0.0,0.0
111,1778446348000,112.0,0.06380734,0.7620795399999999,1.4530122,0.0,0.0,0.0
112,1778446348010,113.0,0.06380734,0.76207954,1.4530122,0.0,0.0,0.0
113,1778446348020,114.0,0.06380734,0.76207954,1.4530122,0.0,0.0,0.0
114,1778446348030,115.0,0.06380734,0.76207954,1.4530122,0.0,0.0,0.0
115,1778446348040,116.0,0.06380734,0.7620795399999999,1.4530122,0.0,0.0,0.0
116,1778446348050,117.0,0.06380734,0.76207954,1.4530122,0.0,0.0,0.0
117,1778446348060,118.0,0.06380734,0.76207954,1.4530122,0.0,0.0,0.0
118,1778446348070,119.0,0.06380734,0.7620795399999999,1.4530122,0.0,0.0,0.0
119,1778446348080,120.0,0.06380734,0.7620795399999999,1.4530122,0.0,0.0,0.0
120,1778446348090,121.0,0.05474006,0.7681957,1.459526,0.0,0.0,0.0
121,1778446348100,122.0,0.05474006,0.7681957,1.459526,0.0,0.0,0.0
122,1778446348110,123.0,0.052293578,0.771964825,1.4555046,0.0,0.0,0.0
123,1778446348120,124.0,0.049847096,0.77573395,1.4514832,0.0,0.0,0.0
124,1778446348130,125.0,0.049847096,0.7757339499999999,1.4514832,0.0,0.0,0.0
125,1778446348140,126.0,0.049847096,0.7757339499999999,1.4514832,0.0,0.0,0.0
126,1778446348150,127.0,0.049847096,0.77573395,1.4514832,0.0,0.0,0.0
127,1778446348160,128.0,0.049847096,0.7757339499999999,1.4514832,0.0,0.0,0.0
128,1778446348170,129.0,0.049847096,0.7757339499999999,1.4514832,0.0,0.0,0.0
129,1778446348180,130.0,0.049847096,0.7757339499999999,1.4514832,0.0,0.0,0.0
130,1778446348190,131.0,0.049847096,0.77573395,1.4514832,0.0,0.0,0.0
131,1778446348200,132.0,0.049847096,0.77573395,1.4514832,0.0,0.0,0.0
132,1778446348210,133.0,0.049847096,0.7757339499999999,1.4514832,0.0,0.0,0.0
133,1778446348220,134.0,0.049847096,0.7757339499999999,1.4514832,0.0,0.0,0.0
134,1778446348230,135.0,0.049847096,0.7757339499999999,1.4514832,0.0,0.0,0.0
135,1778446348240,136.0,0.049847096,0.7757339499999999,1.4514832,0.0,0.0,0.0
136,1778446348250,137.0,0.0199490322666666,0.7669673833333333,1.4282416666666666,0.0,0.0,0.0
137,1778446348260,138.0,0.0050000004,0.7625841000000001,1.4166209,0.0,0.0,0.0
138,1778446348270,139.0,0.0050000004,0.7625841000000001,1.4166209,0.0,0.0,0.0
139,1778446348280,140.0,0.0050000004,0.7625841000000001,1.4166209,0.0,0.0,0.0
140,1778446348290,141.0,0.0050000004,0.7625841000000001,1.4166209,0.0,0.0,0.0
141,1778446348300,142.0,0.0050000004,0.7625841000000001,1.4166209,0.0,0.0,0.0
142,1778446348310,143.0,0.0050000004,0.7625841000000001,1.4166209,0.0,0.0,0.0
143,1778446348320,144.0,0.0050000004,0.7625841,1.4166209,0.0,0.0,0.0
144,1778446348330,145.0,-0.04637615,0.7593272299999999,1.4031652,0.0,0.0,0.0
145,1778446348340,146.0,-0.04637615,0.75932723,1.4031652,0.0,0.0,0.0
146,1778446348350,147.0,-0.04637615,0.7593272299999999,1.4031652,0.0,0.0,0.0
147,1778446348360,148.0,-0.04637615,0.7593272299999999,1.4031652,0.0,0.0,0.0
148,1778446348370,149.0,-0.04637615,0.75932723,1.4031652,0.0,0.0,0.0
149,1778446348380,150.0,-0.04637615,0.7593272299999999,1.4031652,0.0,0.0,0.0
150,1778446348390,151.0,-0.04637615,0.7593272299999999,1.4031652,0.0,0.0,0.0
151,1778446348400,152.0,-0.04637615,0.7593272299999999,1.4031652,0.0,0.0,0.0
152,1778446348410,153.0,-0.04637615,0.7593272299999999,1.4031652,0.0,0.0,0.0
153,1778446348420,154.0,-0.080535166,0.7598318,1.2846024,0.0,0.0,0.0
154,1778446348430,155.0,-0.080535166,0.7598318000000001,1.2846024,0.0,0.0,0.0
155,1778446348440,156.0,-0.080535166,0.7598318000000001,1.2846024,0.0,0.0,0.0
156,1778446348450,157.0,-0.080535166,0.7598318000000001,1.2846024,0.0,0.0,0.0
157,1778446348460,158.0,-0.080535166,0.7598318,1.2846024,0.0,0.0,0.0
158,1778446348470,159.0,-0.080535166,0.7598318000000001,1.2846024,0.0,0.0,0.0
159,1778446348480,160.0,-0.080535166,0.7598318000000001,1.2846024,0.0,0.0,0.0
160,1778446348490,161.0,-0.124969415,0.76207954,1.1776758,0.0,0.0,0.0
161,1778446348500,162.0,-0.1249694149999999,0.7620795399999999,1.1776758,0.0,0.0,0.0
162,1778446348510,163.0,-0.1249694149999999,0.7620795399999999,1.1776758,0.0,0.0,0.0
163,1778446348520,164.0,-0.124969415,0.76207954,1.1776758,0.0,0.0,0.0
164,1778446348530,165.0,-0.1249694149999999,0.7620795399999999,1.1776758,0.0,0.0,0.0
165,1778446348540,166.0,-0.124969415,0.76207954,1.1776758,0.0,0.0,0.0
166,1778446348550,167.0,-0.1249694149999999,0.7620795399999999,1.1776758,0.0,0.0,0.0
167,1778446348560,168.0,-0.124969415,0.76207954,1.1776758,0.0,0.0,0.0
168,1778446348570,169.0,-0.1249694149999999,0.7620795399999999,1.1776758,0.0,0.0,0.0
169,1778446348580,170.0,-0.124969415,0.76207954,1.1776758,0.0,0.0,0.0
170,1778446348590,171.0,-0.1249694149999999,0.7620795399999999,1.1776758,0.0,0.0,0.0
171,1778446348600,172.0,-0.124969415,0.76207954,1.1776758,0.0,0.0,0.0
172,1778446348610,173.0,-0.1249694149999999,0.7620795399999999,1.1776758,0.0,0.0,0.0
173,1778446348620,174.0,-0.1249694149999999,0.7620795399999999,1.1776758,0.0,0.0,0.0
174,1778446348630,175.0,-0.124969415,0.76207954,1.1776758,0.0,0.0,0.0
175,1778446348640,176.0,-0.1249694149999999,0.7620795399999999,1.1776758,0.0,0.0,0.0
176,1778446348650,177.0,-0.05004587,0.7356728,0.94117737,0.0,0.0,0.0
177,1778446348660,178.0,-0.05004587,0.7356728,0.94117737,0.0,0.0,0.0
178,1778446348670,179.0,-0.05004587,0.7356728,0.94117737,0.0,0.0,0.0
179,1778446348680,180.0,-0.05004587,0.7356728,0.94117737,0.0,0.0,0.0
180,1778446348690,181.0,-0.05004587,0.7356728,0.94117737,0.0,0.0,0.0
181,1778446348700,182.0,-0.05004587,0.7356728,0.94117737,0.0,0.0,0.0
182,1778446348710,183.0,-0.05004587,0.7356728,0.94117737,0.0,0.0,0.0
183,1778446348720,184.0,-0.05004587,0.7356728,0.94117737,0.0,0.0,0.0
184,1778446348730,185.0,-0.05004587,0.7356728,0.94117737,0.0,0.0,0.0
185,1778446348740,186.0,-0.05004587,0.7356728,0.94117737,0.0,0.0,0.0
186,1778446348750,187.0,-0.05004587,0.7356728,0.94117737,0.0,0.0,0.0
187,1778446348760,188.0,-0.05004587,0.7356728,0.94117737,0.0,0.0,0.0
188,1778446348770,189.0,-0.05853211,0.736540525,0.925787465,0.0,0.0,0.0
189,1778446348780,190.0,-0.08399083,0.7391437,0.87961775,0.0,0.0,0.0
190,1778446348790,191.0,-0.08399083,0.7391437,0.87961775,0.0,0.0,0.0
191,1778446348800,192.0,-0.034250766,0.6927676,0.5084557,0.0,0.0,0.0
192,1778446348810,193.0,-0.034250766,0.6927676000000001,0.5084557,0.0,0.0,0.0
193,1778446348820,194.0,-0.034250766,0.6927676,0.5084557,0.0,0.0,0.0
194,1778446348830,195.0,-0.034250766,0.6927676000000001,0.5084557,0.0,0.0,0.0
195,1778446348840,196.0,-0.060754334,0.6972528166666666,0.5594597666666666,0.0,0.0,0.0
196,1778446348850,197.0,-0.11376147,0.70622325,0.6614679,0.0,0.0,0.0
197,1778446348860,198.0,-0.1137614699999999,0.70622325,0.6614679,0.0,0.0,0.0
198,1778446348870,199.0,-0.11376147,0.70622325,0.6614679,0.0,0.0,0.0
199,1778446348880,200.0,-0.1137614699999999,0.70622325,0.6614679,0.0,0.0,0.0
200,1778446348890,201.0,-0.1137614699999999,0.70622325,0.6614679,0.0,0.0,0.0
201,1778446348900,202.0,-0.11376147,0.70622325,0.6614679,0.0,0.0,0.0
202,1778446348910,203.0,-0.1137614699999999,0.70622325,0.6614679,0.0,0.0,0.0
203,1778446348920,204.0,-0.1137614699999999,0.70622325,0.6614679,0.0,0.0,0.0
204,1778446348930,205.0,-0.1137614699999999,0.70622325,0.6614679,0.0,0.0,0.0
205,1778446348940,206.0,-0.1137614699999999,0.70622325,0.6614679,0.0,0.0,0.0
206,1778446348950,207.0,-0.11376147,0.70622325,0.6614679,0.0,0.0,0.0
207,1778446348960,208.0,-0.1137614699999999,0.70622325,0.6614679,0.0,0.0,0.0
208,1778446348970,209.0,-0.11376147,0.70622325,0.6614679,0.0,0.0,0.0
209,1778446348980,210.0,-0.04458206,0.6702395666666666,0.56700816,0.0,0.0,0.0
210,1778446348990,211.0,0.09377676,0.5982722,0.37808868,0.0,0.0,0.0
211,1778446349000,212.0,0.09377676,0.5982722,0.37808868,0.0,0.0,0.0
212,1778446349010,213.0,0.09377676,0.5982722,0.37808868,0.0,0.0,0.0
213,1778446349020,214.0,0.2358766533333333,0.53859838,0.3141335333333333,0.0,0.0,0.0
214,1778446349030,215.0,0.3069266,0.50876147,0.28215596,0.0,0.0,0.0
215,1778446349040,216.0,0.3069266,0.50876147,0.28215596,0.0,0.0,0.0
216,1778446349050,217.0,0.3069266,0.50876147,0.28215596,0.0,0.0,0.0
217,1778446349060,218.0,0.3069266,0.50876147,0.28215596,0.0,0.0,0.0
218,1778446349070,219.0,0.3069266,0.50876147,0.28215596,0.0,0.0,0.0
219,1778446349080,220.0,0.4357798,0.47380736,0.072782874,0.0,0.0,0.0
220,1778446349090,221.0,0.4357798,0.47380736,0.072782874,0.0,0.0,0.0
221,1778446349100,222.0,0.4357798,0.47380736,0.072782874,0.0,0.0,0.0
222,1778446349110,223.0,0.4357798,0.47380736,0.072782874,0.0,0.0,0.0
223,1778446349120,224.0,0.4357798,0.47380736,0.072782874,0.0,0.0,0.0
224,1778446349130,225.0,0.4357798,0.47380736,0.072782874,0.0,0.0,0.0
225,1778446349140,226.0,0.4357798,0.47380736,0.072782874,0.0,0.0,0.0
226,1778446349150,227.0,0.4357798,0.47380736,0.072782874,0.0,0.0,0.0
227,1778446349160,228.0,0.5174617733333333,0.4716972399999999,-0.0803975486666666,0.0,0.0,0.0
228,1778446349170,229.0,0.595107,0.36544344,-0.5992813,0.0,0.0,0.0
229,1778446349180,230.0,0.595107,0.36544344,-0.5992813,0.0,0.0,0.0
230,1778446349190,231.0,0.595107,0.36544344,-0.5992813,0.0,0.0,0.0
231,1778446349200,232.0,0.595107,0.36544344,-0.5992813,0.0,0.0,0.0
232,1778446349210,233.0,0.49724773,0.29877678,-0.8116208,0.0,0.0,0.0
233,1778446349220,234.0,0.49724773,0.29877678,-0.8116208,0.0,0.0,0.0
234,1778446349230,235.0,0.4715596433333333,0.25827728,-0.8759123333333333,0.0,0.0,0.0
235,1778446349240,236.0,0.4587156,0.23802753,-0.9080581,0.0,0.0,0.0
236,1778446349250,237.0,-0.3482160999999999,-0.3440316133333333,-0.1840315999999999,0.0,0.0,0.0
237,1778446349260,238.0,-1.1551478,-0.9260907566666666,0.5399949,0.0,0.0,0.0
238,1778446349270,239.0,-1.9620795,-1.5081499,1.2640214,0.0,0.0,0.0
239,1778446349280,240.0,-1.9620795,-1.5081499,1.2640214,0.0,0.0,0.0
240,1778446349290,241.0,-1.8258919666666669,-1.6369979666666667,1.2700662666666669,0.0,0.0,0.0
241,1778446349300,242.0,-1.7577982,-1.701422,1.2730887,0.0,0.0,0.0
242,1778446349310,243.0,-1.7577982,-1.701422,1.2730887,0.0,0.0,0.0
243,1778446349320,244.0,-1.7577982,-1.701422,1.2730887,0.0,0.0,0.0
244,1778446349330,245.0,-1.7577982,-1.701422,1.2730887,0.0,0.0,0.0
245,1778446349340,246.0,-1.569954175,-1.767866975,1.1361621,0.0,0.0,0.0
246,1778446349350,247.0,-1.5073394999999998,-1.7900153,1.0905199,0.0,0.0,0.0
247,1778446349360,248.0,-1.5073395,-1.7900153,1.0905199,0.0,0.0,0.0
248,1778446349370,249.0,-1.5073394999999998,-1.7900153,1.0905199,0.0,0.0,0.0
249,1778446349380,250.0,-1.5073394999999998,-1.7900153,1.0905199,0.0,0.0,0.0
250,1778446349390,251.0,-1.5073395,-1.7900153,1.0905199,0.0,0.0,0.0
251,1778446349400,252.0,-1.5073394999999998,-1.7900153,1.0905199,0.0,0.0,0.0
252,1778446349410,253.0,-1.4324159333333333,-1.8031957333333335,1.0075433333333337,0.0,0.0,0.0
253,1778446349420,254.0,-1.2825688,-1.8295566,0.8415902,0.0,0.0,0.0
254,1778446349430,255.0,-1.2825688,-1.8295566,0.8415902000000001,0.0,0.0,0.0
255,1778446349440,256.0,-1.2825688,-1.8295566,0.8415902,0.0,0.0,0.0
256,1778446349450,257.0,-1.2825688,-1.8295566,0.8415902000000001,0.0,0.0,0.0
257,1778446349460,258.0,-1.2825688,-1.8295566,0.8415902000000001,0.0,0.0,0.0
258,1778446349470,259.0,-1.2825688,-1.8295566,0.8415902,0.0,0.0,0.0
259,1778446349480,260.0,-1.2825688,-1.8295566,0.8415902000000001,0.0,0.0,0.0
260,1778446349490,261.0,-1.2825688,-1.8295566,0.8415902000000001,0.0,0.0,0.0
261,1778446349500,262.0,-1.0314984,-1.866468,0.61172783,0.0,0.0,0.0
262,1778446349510,263.0,-1.0314984,-1.866468,0.61172783,0.0,0.0,0.0
263,1778446349520,264.0,-1.0314984,-1.866468,0.61172783,0.0,0.0,0.0
264,1778446349530,265.0,-1.0314984,-1.866468,0.61172783,0.0,0.0,0.0
265,1778446349540,266.0,-1.0314984,-1.866468,0.61172783,0.0,0.0,0.0
266,1778446349550,267.0,-0.23486239,-1.91763,0.4083639,0.0,0.0,0.0
267,1778446349560,268.0,-0.23486239,-1.91763,0.4083639,0.0,0.0,0.0
268,1778446349570,269.0,-0.0650356793333333,-1.8932364666666668,0.4054383333333333,0.0,0.0,0.0
269,1778446349580,270.0,0.019877676,-1.8810397,0.40397555,0.0,0.0,0.0
270,1778446349590,271.0,0.019877676,-1.8810397,0.40397555,0.0,0.0,0.0
271,1778446349600,272.0,0.2031600506666666,-1.8456676666666667,0.42246178,0.0,0.0,0.0
272,1778446349610,273.0,0.5697248,-1.7749236,0.45943424,0.0,0.0,0.0
273,1778446349620,274.0,0.5697248,-1.7749236,0.45943424,0.0,0.0,0.0
274,1778446349630,275.0,0.5697248,-1.7749236,0.45943424,0.0,0.0,0.0
275,1778446349640,276.0,0.5697248,-1.7749236,0.45943424,0.0,0.0,0.0
276,1778446349650,277.0,0.5697248,-1.7749236,0.45943424,0.0,0.0,0.0
277,1778446349660,278.0,0.5697248,-1.7749236,0.45943424,0.0,0.0,0.0
278,1778446349670,279.0,0.5697248,-1.7749236,0.45943424,0.0,0.0,0.0
279,1778446349680,280.0,0.5697248,-1.7749236,0.45943424,0.0,0.0,0.0
280,1778446349690,281.0,0.5697248,-1.7749236,0.45943424,0.0,0.0,0.0
281,1778446349700,282.0,0.5697248,-1.7749236,0.45943424,0.0,0.0,0.0
282,1778446349710,283.0,0.7850152666666667,-1.7254537333333333,0.45943424,0.0,0.0,0.0
283,1778446349720,284.0,0.8926605,-1.7007188,0.45943424,0.0,0.0,0.0
284,1778446349730,285.0,0.8926605,-1.7007188,0.45943424,0.0,0.0,0.0
285,1778446349740,286.0,0.8926605,-1.7007188,0.45943424,0.0,0.0,0.0
286,1778446349750,287.0,0.8926605,-1.7007188,0.45943424,0.0,0.0,0.0
287,1778446349760,288.0,0.943730875,-1.689377,0.458746165,0.0,0.0,0.0
288,1778446349770,289.0,1.096942,-1.6553516,0.45668194,0.0,0.0,0.0
289,1778446349780,290.0,1.096942,-1.6553516,0.45668194,0.0,0.0,0.0
290,1778446349790,291.0,1.096942,-1.6553516,0.45668194,0.0,0.0,0.0
291,1778446349800,292.0,1.5940826,-1.2636086,0.25290522,0.0,0.0,0.0
292,1778446349810,293.0,1.61658,-1.2323445333333334,0.23483182,0.0,0.0,0.0
293,1778446349820,294.0,1.6278287,-1.2167125,0.22579512,0.0,0.0,0.0
294,1778446349830,295.0,1.6278287,-1.2167125,0.22579512,0.0,0.0,0.0
295,1778446349840,296.0,1.6278287,-1.2167125,0.22579512,0.0,0.0,0.0
296,1778446349850,297.0,1.7052293,-0.9794750333333332,0.1127064266666666,0.0,0.0,0.0
297,1778446349860,298.0,1.6902599,-0.7836391650000001,-0.01493884,0.0,0.0,0.0
298,1778446349870,299.0,1.6365902,-0.70642203,-0.08603976,0.0,0.0,0.0
299,1778446349880,300.0,1.6365902,-0.70642203,-0.08603976,0.0,0.0,0.0
300,1778446349890,301.0,1.535581,-0.529159,-0.12313456,0.0,0.0,0.0
301,1778446349900,302.0,1.535581,-0.529159,-0.12313456,0.0,0.0,0.0
302,1778446349910,303.0,1.6394495000000002,-0.3614679,0.020076452,0.0,0.0,0.0
303,1778446349920,304.0,1.6394495000000002,-0.3614679,0.020076452,0.0,0.0,0.0
304,1778446349930,305.0,1.6394495,-0.3614679,0.020076452,0.0,0.0,0.0
305,1778446349940,306.0,1.6394495000000002,-0.3614679,0.020076452,0.0,0.0,0.0
306,1778446349950,307.0,1.6394495000000002,-0.3614679,0.020076452,0.0,0.0,0.0
307,1778446349960,308.0,1.6394495000000002,-0.3614679,0.020076452,0.0,0.0,0.0
308,1778446349970,309.0,1.6394495,-0.3614679,0.020076452,0.0,0.0,0.0
309,1778446349980,310.0,1.6394495000000002,-0.3614679,0.020076452,0.0,0.0,0.0
310,1778446349990,311.0,1.7006116,-0.284250775,0.0365443445,0.0,0.0,0.0
311,1778446350000,312.0,1.7617737,-0.2070336499999999,0.053012237,0.0,0.0,0.0
312,1778446350010,313.0,1.7617737,-0.20703365,0.053012237,0.0,0.0,0.0
313,1778446350020,314.0,1.7617737,-0.2070336499999999,0.053012237,0.0,0.0,0.0
314,1778446350030,315.0,1.7617737,-0.20703365,0.053012237,0.0,0.0,0.0
315,1778446350040,316.0,1.7617737,-0.2070336499999999,0.053012237,0.0,0.0,0.0
316,1778446350050,317.0,1.7617737,-0.2070336499999999,0.053012237,0.0,0.0,0.0
317,1778446350060,318.0,1.7586086,-0.14668196,0.05443425,0.0,0.0,0.0
318,1778446350070,319.0,1.7586086,-0.14668196,0.0544342499999999,0.0,0.0,0.0
319,1778446350080,320.0,1.7586086,-0.14668196,0.05443425,0.0,0.0,0.0
320,1778446350090,321.0,1.7586086,-0.14668196,0.05443425,0.0,0.0,0.0
321,1778446350100,322.0,1.7586086,-0.14668196,0.05443425,0.0,0.0,0.0
322,1778446350110,323.0,1.7586086,-0.14668196,0.05443425,0.0,0.0,0.0
323,1778446350120,324.0,1.7586086,-0.14668196,0.0544342499999999,0.0,0.0,0.0
324,1778446350130,325.0,1.7586086,-0.14668196,0.05443425,0.0,0.0,0.0
325,1778446350140,326.0,1.7586086,-0.14668196,0.05443425,0.0,0.0,0.0
326,1778446350150,327.0,1.7586086,-0.14668196,0.05443425,0.0,0.0,0.0
327,1778446350160,328.0,1.7586086,-0.14668196,0.05443425,0.0,0.0,0.0
328,1778446350170,329.0,1.7586086,-0.14668196,0.05443425,0.0,0.0,0.0
329,1778446350180,330.0,1.7586086,-0.14668196,0.05443425,0.0,0.0,0.0
330,1778446350190,331.0,1.7586086,-0.14668196,0.05443425,0.0,0.0,0.0
331,1778446350200,332.0,1.9485167,0.078394495,0.01937309,0.0,0.0,0.0
332,1778446350210,333.0,1.9485167,0.078394495,0.01937309,0.0,0.0,0.0
333,1778446350220,334.0,1.9485167,0.078394495,0.01937309,0.0,0.0,0.0
334,1778446350230,335.0,1.9485167,0.078394495,0.01937309,0.0,0.0,0.0
335,1778446350240,336.0,1.9485167,0.078394495,0.01937309,0.0,0.0,0.0
336,1778446350250,337.0,1.9485167,0.078394495,0.01937309,0.0,0.0,0.0
337,1778446350260,338.0,1.9485167,0.078394495,0.01937309,0.0,0.0,0.0
338,1778446350270,339.0,1.9485167,0.078394495,0.01937309,0.0,0.0,0.0
339,1778446350280,340.0,1.9485167,0.078394495,0.01937309,0.0,0.0,0.0
340,1778446350290,341.0,1.9485167,0.078394495,0.01937309,0.0,0.0,0.0
341,1778446350300,342.0,1.9485167,0.078394495,0.01937309,0.0,0.0,0.0
342,1778446350310,343.0,1.9396890333333332,0.2022069183333333,0.011829766,0.0,0.0,0.0
343,1778446350320,344.0,1.9352752,0.26411313,0.008058104,0.0,0.0,0.0
344,1778446350330,345.0,1.9352752,0.26411313,0.008058104,0.0,0.0,0.0
345,1778446350340,346.0,1.9352752,0.26411313,0.008058104,0.0,0.0,0.0
346,1778446350350,347.0,1.9352752,0.26411313,0.008058104,0.0,0.0,0.0
347,1778446350360,348.0,1.9352752,0.26411313,0.008058104,0.0,0.0,0.0
348,1778446350370,349.0,1.9352752,0.26411313,0.008058104,0.0,0.0,0.0
349,1778446350380,350.0,1.9352752,0.26411313,0.008058104,0.0,0.0,0.0
350,1778446350390,351.0,1.9352752,0.26411313,0.008058104,0.0,0.0,0.0
351,1778446350400,352.0,1.9352752,0.26411313,0.008058104,0.0,0.0,0.0
352,1778446350410,353.0,1.9352752,0.26411313,0.008058104,0.0,0.0,0.0
353,1778446350420,354.0,1.9352752,0.26411313,0.008058104,0.0,0.0,0.0
354,1778446350430,355.0,1.9352752,0.26411313,0.008058104,0.0,0.0,0.0
355,1778446350440,356.0,1.9352752,0.26411313,0.008058104,0.0,0.0,0.0
356,1778446350450,357.0,1.9352752,0.26411313,0.008058104,0.0,0.0,0.0
357,1778446350460,358.0,1.8669419,0.2696534,0.0262028546666666,0.0,0.0,0.0
358,1778446350470,359.0,1.7302753,0.28073394,0.062492356,0.0,0.0,0.0
359,1778446350480,360.0,1.7302753,0.28073394,0.062492356,0.0,0.0,0.0
360,1778446350490,361.0,1.7302753,0.28073394,0.062492356,0.0,0.0,0.0
361,1778446350500,362.0,1.4586085,0.29001528,0.19429664,0.0,0.0,0.0
362,1778446350510,363.0,1.4586084999999998,0.29001528,0.19429664,0.0,0.0,0.0
363,1778446350520,364.0,1.4586085,0.29001528,0.19429664,0.0,0.0,0.0
364,1778446350530,365.0,1.4586084999999998,0.29001528,0.19429664,0.0,0.0,0.0
365,1778446350540,366.0,1.3077777666666666,0.2945005,0.2877726833333333,0.0,0.0,0.0
366,1778446350550,367.0,1.0061163,0.30347094,0.4747247700000001,0.0,0.0,0.0
367,1778446350560,368.0,1.0061163,0.30347094,0.4747247700000001,0.0,0.0,0.0
368,1778446350570,369.0,1.0061163,0.30347094,0.47472477,0.0,0.0,0.0
369,1778446350580,370.0,1.0061163,0.30347094,0.4747247700000001,0.0,0.0,0.0
370,1778446350590,371.0,1.0061163,0.30347094,0.4747247700000001,0.0,0.0,0.0
371,1778446350600,372.0,1.0061163,0.30347094,0.4747247700000001,0.0,0.0,0.0
372,1778446350610,373.0,1.0061163,0.30347094,0.4747247700000001,0.0,0.0,0.0
373,1778446350620,374.0,1.0061163,0.30347094,0.4747247700000001,0.0,0.0,0.0
374,1778446350630,375.0,1.0061163,0.30347094,0.4747247700000001,0.0,0.0,0.0
375,1778446350640,376.0,1.0061163,0.30347094,0.47472477,0.0,0.0,0.0
376,1778446350650,377.0,1.0061163,0.30347094,0.4747247700000001,0.0,0.0,0.0
377,1778446350660,378.0,1.0061163,0.30347094,0.4747247700000001,0.0,0.0,0.0
378,1778446350670,379.0,1.0061163,0.30347094,0.47472477,0.0,0.0,0.0
379,1778446350680,380.0,1.12207195,0.03323394,0.308922015,0.0,0.0,0.0
380,1778446350690,381.0,1.2380276,-0.23700306,0.14311926,0.0,0.0,0.0
381,1778446350700,382.0,1.2380276,-0.23700306,0.14311926,0.0,0.0,0.0
382,1778446350710,383.0,1.2380276,-0.23700306,0.14311926,0.0,0.0,0.0
383,1778446350720,384.0,1.2380276,-0.23700306,0.14311926,0.0,0.0,0.0
384,1778446350730,385.0,1.2380276,-0.23700306,0.14311926,0.0,0.0,0.0
385,1778446350740,386.0,1.2380276,-0.23700306,0.14311926,0.0,0.0,0.0
386,1778446350750,387.0,1.2380276,-0.23700306,0.14311926,0.0,0.0,0.0
387,1778446350760,388.0,1.23506885,-0.2725305799999999,0.12161315,0.0,0.0,0.0
388,1778446350770,389.0,1.2321101,-0.3080581,0.10010704,0.0,0.0,0.0
389,1778446350780,390.0,1.2321101,-0.3080581,0.10010704,0.0,0.0,0.0
390,1778446350790,391.0,1.2321101,-0.3080581,0.10010704,0.0,0.0,0.0
391,1778446350800,392.0,1.2321101,-0.3080581,0.10010704,0.0,0.0,0.0
392,1778446350810,393.0,1.2321101,-0.3080581,0.10010704,0.0,0.0,0.0
393,1778446350820,394.0,1.2321101,-0.3080581,0.10010704,0.0,0.0,0.0
394,1778446350830,395.0,1.2284760666666668,-0.3217176333333333,0.0609938879999999,0.0,0.0,0.0
395,1778446350840,396.0,1.221208,-0.3490367,-0.017232416,0.0,0.0,0.0
396,1778446350850,397.0,1.221208,-0.3490366999999999,-0.017232416,0.0,0.0,0.0
397,1778446350860,398.0,1.221208,-0.3490367,-0.017232416,0.0,0.0,0.0
398,1778446350870,399.0,1.221208,-0.3490366999999999,-0.017232416,0.0,0.0,0.0
399,1778446350880,400.0,1.0968450666666667,-0.5472630333333334,-0.1485270186666666,0.0,0.0,0.0
400,1778446350890,401.0,1.0346636,-0.6463762,-0.21417432,0.0,0.0,0.0
401,1778446350900,402.0,0.80989295,-0.75178903,-0.3451528799999999,0.0,0.0,0.0
402,1778446350910,403.0,0.80989295,-0.75178903,-0.34515288,0.0,0.0,0.0
403,1778446350920,404.0,0.58368504,-0.8345566,-0.4205963,0.0,0.0,0.0
404,1778446350930,405.0,0.58368504,-0.8345566,-0.4205963,0.0,0.0,0.0
405,1778446350940,406.0,0.58368504,-0.8345566,-0.4205963,0.0,0.0,0.0
406,1778446350950,407.0,0.58368504,-0.8345566,-0.4205963,0.0,0.0,0.0
407,1778446350960,408.0,0.58368504,-0.8345566,-0.4205963,0.0,0.0,0.0
408,1778446350970,409.0,0.58368504,-0.8345566,-0.4205963,0.0,0.0,0.0
409,1778446350980,410.0,0.58368504,-0.8345566,-0.4205963,0.0,0.0,0.0
410,1778446350990,411.0,0.3742049,-0.9179358,-0.4354739999999999,0.0,0.0,0.0
411,1778446351000,412.0,0.3742049,-0.9179358,-0.4354739999999999,0.0,0.0,0.0
412,1778446351010,413.0,0.3742049,-0.9179358,-0.435474,0.0,0.0,0.0
413,1778446351020,414.0,0.3742049,-0.9179358,-0.4354739999999999,0.0,0.0,0.0
414,1778446351030,415.0,0.3742049,-0.9179358,-0.4354739999999999,0.0,0.0,0.0
415,1778446351040,416.0,0.3742049,-0.9179358,-0.435474,0.0,0.0,0.0
416,1778446351050,417.0,0.16411315,-0.99633026,-0.47573394,0.0,0.0,0.0
417,1778446351060,418.0,0.16411315,-0.99633026,-0.47573394,0.0,0.0,0.0
418,1778446351070,419.0,0.16411315,-0.99633026,-0.47573394,0.0,0.0,0.0
419,1778446351080,420.0,0.16411315,-0.99633026,-0.47573394,0.0,0.0,0.0
420,1778446351090,421.0,0.16411315,-0.99633026,-0.47573394,0.0,0.0,0.0
421,1778446351100,422.0,0.16411315,-0.99633026,-0.47573394,0.0,0.0,0.0
422,1778446351110,423.0,0.0582364966666666,-1.04587154,-0.47729868,0.0,0.0,0.0
423,1778446351120,424.0,-0.274365445,-1.18292815,-0.44883028,0.0,0.0,0.0
424,1778446351130,425.0,-0.3952140799999999,-1.2209022,-0.4172324,0.0,0.0,0.0
425,1778446351140,426.0,-0.39521408,-1.2209022,-0.4172324,0.0,0.0,0.0
426,1778446351150,427.0,-0.3952140799999999,-1.2209022,-0.4172324,0.0,0.0,0.0
427,1778446351160,428.0,-0.3952140799999999,-1.2209022,-0.4172324,0.0,0.0,0.0
428,1778446351170,429.0,-0.484892985,-1.2299236,-0.384762985,0.0,0.0,0.0
429,1778446351180,430.0,-0.7539297,-1.2569878,-0.28735474,0.0,0.0,0.0
430,1778446351190,431.0,-0.7539297,-1.2569878,-0.28735474,0.0,0.0,0.0
431,1778446351200,432.0,-0.7539297,-1.2569878,-0.28735474,0.0,0.0,0.0
432,1778446351210,433.0,-0.7539297,-1.2569878,-0.28735474,0.0,0.0,0.0
433,1778446351220,434.0,-0.7539297,-1.2569878,-0.28735474,0.0,0.0,0.0
434,1778446351230,435.0,-1.3770642000000002,-1.2760398,0.08960245,0.0,0.0,0.0
435,1778446351240,436.0,-1.3770642000000002,-1.2760398,0.08960245,0.0,0.0,0.0
436,1778446351250,437.0,-1.3770642000000002,-1.2760398,0.08960245,0.0,0.0,0.0
437,1778446351260,438.0,-1.3770642,-1.2760398,0.08960245,0.0,0.0,0.0
438,1778446351270,439.0,-1.3770642000000002,-1.2760398,0.08960245,0.0,0.0,0.0
439,1778446351280,440.0,-1.3770642000000002,-1.2760398,0.08960245,0.0,0.0,0.0
440,1778446351290,441.0,-1.3770642000000002,-1.2760398,0.08960245,0.0,0.0,0.0
441,1778446351300,442.0,-1.3770642000000002,-1.2760398,0.08960245,0.0,0.0,0.0
442,1778446351310,443.0,-1.3770642000000002,-1.2760398,0.08960245,0.0,0.0,0.0
443,1778446351320,444.0,-1.3770642,-1.2760398,0.08960245,0.0,0.0,0.0
444,1778446351330,445.0,-1.3770642000000002,-1.2760398,0.08960245,0.0,0.0,0.0
445,1778446351340,446.0,-1.3770642000000002,-1.2760398,0.08960245,0.0,0.0,0.0
446,1778446351350,447.0,-1.3770642,-1.2760398,0.08960245,0.0,0.0,0.0
447,1778446351360,448.0,-1.3770642000000002,-1.2760398,0.08960245,0.0,0.0,0.0
448,1778446351370,449.0,-1.3770642000000002,-1.2760398,0.08960245,0.0,0.0,0.0
449,1778446351380,450.0,-1.1969419,-1.2748165,0.25463304,0.0,0.0,0.0
450,1778446351390,451.0,-1.1969419,-1.2748165,0.25463304,0.0,0.0,0.0
451,1778446351400,452.0,-1.121330275,-1.2423509,0.2538455724999999,0.0,0.0,0.0
452,1778446351410,453.0,-0.8944953999999999,-1.1449541,0.25148317,0.0,0.0,0.0
453,1778446351420,454.0,-0.8944953999999999,-1.1449541,0.25148317,0.0,0.0,0.0
454,1778446351430,455.0,-0.8944954,-1.1449541,0.25148317,0.0,0.0,0.0
455,1778446351440,456.0,-0.8247043666666668,-1.1424413666666666,0.2294954033333333,0.0,0.0,0.0
456,1778446351450,457.0,-0.6851223,-1.1374159,0.18551987,0.0,0.0,0.0
457,1778446351460,458.0,-0.6851223000000001,-1.1374159,0.18551987,0.0,0.0,0.0
458,1778446351470,459.0,-0.6851223000000001,-1.1374159,0.18551987,0.0,0.0,0.0
459,1778446351480,460.0,-0.9233078333333332,-1.2600764333333334,0.25728339,0.0,0.0,0.0
460,1778446351490,461.0,-1.0424006,-1.3214067,0.29316515,0.0,0.0,0.0
461,1778446351500,462.0,-1.0424006,-1.3214067,0.29316515,0.0,0.0,0.0
462,1778446351510,463.0,-1.0424006,-1.3214067,0.29316515,0.0,0.0,0.0
463,1778446351520,464.0,-1.3887922,-1.4099847,0.61386853,0.0,0.0,0.0
464,1778446351530,465.0,-1.3887922,-1.4099847,0.61386853,0.0,0.0,0.0
465,1778446351540,466.0,-1.3887922,-1.4099847,0.61386853,0.0,0.0,0.0
466,1778446351550,467.0,-1.3887922,-1.4099847,0.61386853,0.0,0.0,0.0
467,1778446351560,468.0,-1.3887922,-1.4099847,0.61386853,0.0,0.0,0.0
468,1778446351570,469.0,-1.3887922,-1.4099847,0.61386853,0.0,0.0,0.0
469,1778446351580,470.0,-1.3887922,-1.4099847,0.61386853,0.0,0.0,0.0
470,1778446351590,471.0,-1.3887922,-1.4099847,0.61386853,0.0,0.0,0.0
471,1778446351600,472.0,-1.3887922,-1.4099847,0.61386853,0.0,0.0,0.0
472,1778446351610,473.0,-1.3887922,-1.4099847,0.61386853,0.0,0.0,0.0
473,1778446351620,474.0,-1.3887922,-1.4099847,0.61386853,0.0,0.0,0.0
474,1778446351630,475.0,-1.4768961666666665,-1.432038733333333,0.6797502866666667,0.0,0.0,0.0
475,1778446351640,476.0,-1.6531041,-1.4761467999999998,0.8115137999999998,0.0,0.0,0.0
476,1778446351650,477.0,-1.6531041,-1.4761467999999998,0.8115137999999998,0.0,0.0,0.0
477,1778446351660,478.0,-1.9884148333333336,-1.3651682,0.7680887066666666,0.0,0.0,0.0
478,1778446351670,479.0,-2.1560702,-1.3096789,0.74637616,0.0,0.0,0.0
479,1778446351680,480.0,-2.1560702,-1.3096789,0.74637616,0.0,0.0,0.0
480,1778446351690,481.0,-2.1560702,-1.3096789,0.74637616,0.0,0.0,0.0
481,1778446351700,482.0,-2.1560702,-1.3096789,0.74637616,0.0,0.0,0.0
482,1778446351710,483.0,-2.1560702,-1.3096789,0.74637616,0.0,0.0,0.0
483,1778446351720,484.0,-2.3274694250000003,-1.216330225,0.7216858150000001,0.0,0.0,0.0
484,1778446351730,485.0,-2.3846025,-1.185214,0.7134557,0.0,0.0,0.0
485,1778446351740,486.0,-2.3846025,-1.185214,0.7134557,0.0,0.0,0.0
486,1778446351750,487.0,-2.3846025,-1.185214,0.7134557,0.0,0.0,0.0
487,1778446351760,488.0,-2.3846025,-1.185214,0.7134557,0.0,0.0,0.0
488,1778446351770,489.0,-2.3831091333333334,-1.1805963000000002,0.7135219533333333,0.0,0.0,0.0
489,1778446351780,490.0,-2.3801224,-1.1713609,0.71365446,0.0,0.0,0.0
490,1778446351790,491.0,-2.3801224,-1.1713609,0.71365446,0.0,0.0,0.0
491,1778446351800,492.0,-2.3801224,-1.1713609,0.71365446,0.0,0.0,0.0
492,1778446351810,493.0,-2.198063133333333,-1.0761519,0.8189245533333334,0.0,0.0,0.0
493,1778446351820,494.0,-2.1070335,-1.0285474,0.8715596,0.0,0.0,0.0
494,1778446351830,495.0,-2.1070335,-1.0285474,0.8715596,0.0,0.0,0.0
495,1778446351840,496.0,-2.1070335,-1.0285474,0.8715596,0.0,0.0,0.0
496,1778446351850,497.0,-2.1070335,-1.0285474,0.8715596,0.0,0.0,0.0
497,1778446351860,498.0,-1.1869572,-1.2364985,1.2713609,0.0,0.0,0.0
498,1778446351870,499.0,-1.1869572,-1.2364985,1.2713609,0.0,0.0,0.0
499,1778446351880,500.0,-1.19525384,-1.27003366,1.2622875,0.0,0.0,0.0
500,1778446351890,501.0,-1.20355048,-1.30356882,1.2532141,0.0,0.0,0.0
501,1778446351900,502.0,-1.21184712,-1.33710398,1.2441407,0.0,0.0,0.0
502,1778446351910,503.0,-1.22014376,-1.37063914,1.2350673,0.0,0.0,0.0
503,1778446351920,504.0,-1.2284404,-1.4041743,1.2259939,0.0,0.0,0.0
504,1778446351930,505.0,-1.2284404,-1.4041743,1.2259939,0.0,0.0,0.0
505,1778446351940,506.0,-1.4597655333333333,-1.5417889666666669,0.9838634,0.0,0.0,0.0
506,1778446351950,507.0,-1.5754281,-1.6105963,0.86279815,0.0,0.0,0.0
507,1778446351960,508.0,-1.5754281,-1.6105963,0.86279815,0.0,0.0,0.0
508,1778446351970,509.0,-1.5754281,-1.6105963,0.86279815,0.0,0.0,0.0
509,1778446351980,510.0,-1.5754281,-1.6105963,0.86279815,0.0,0.0,0.0
510,1778446351990,511.0,-1.5754281,-1.6105963,0.86279815,0.0,0.0,0.0
511,1778446352000,512.0,-1.5754281,-1.6105963,0.86279815,0.0,0.0,0.0
512,1778446352010,513.0,-1.5754281,-1.6105963,0.86279815,0.0,0.0,0.0
513,1778446352020,514.0,-1.859526,-1.6587156,0.61896026,0.0,0.0,0.0
514,1778446352030,515.0,-1.859526,-1.6587156,0.61896026,0.0,0.0,0.0
515,1778446352040,516.0,-1.859526,-1.6587156,0.61896026,0.0,0.0,0.0
516,1778446352050,517.0,-1.859526,-1.6587156,0.61896026,0.0,0.0,0.0
517,1778446352060,518.0,-1.9666972666666669,-1.6602803000000002,0.56819572,0.0,0.0,0.0
518,1778446352070,519.0,-2.1810398,-1.6634097,0.46666664,0.0,0.0,0.0
519,1778446352080,520.0,-2.1810398,-1.6634097,0.4666666399999999,0.0,0.0,0.0
520,1778446352090,521.0,-2.3318705333333334,-1.6048266333333334,0.45439856,0.0,0.0,0.0
521,1778446352100,522.0,-2.633532,-1.4876605,0.4298624,0.0,0.0,0.0
522,1778446352110,523.0,-2.633532,-1.4876604999999998,0.4298624,0.0,0.0,0.0
523,1778446352120,524.0,-2.633532,-1.4876605,0.4298624,0.0,0.0,0.0
524,1778446352130,525.0,-2.633532,-1.4876604999999998,0.4298624,0.0,0.0,0.0
525,1778446352140,526.0,-2.633532,-1.4876605,0.4298624,0.0,0.0,0.0
526,1778446352150,527.0,-2.633532,-1.4876604999999998,0.4298624,0.0,0.0,0.0
527,1778446352160,528.0,-2.633532,-1.4876604999999998,0.4298624,0.0,0.0,0.0
528,1778446352170,529.0,-2.633532,-1.4876605,0.4298624,0.0,0.0,0.0
529,1778446352180,530.0,-2.633532,-1.4876604999999998,0.4298624,0.0,0.0,0.0
530,1778446352190,531.0,-2.675072575,-1.4299388,0.4922247825,0.0,0.0,0.0
531,1778446352200,532.0,-2.7996943,-1.2567737,0.67931193,0.0,0.0,0.0
532,1778446352210,533.0,-2.7996943,-1.2567737,0.67931193,0.0,0.0,0.0
533,1778446352220,534.0,-2.7996943,-1.2567737,0.67931193,0.0,0.0,0.0
534,1778446352230,535.0,-2.7996943,-1.2567737,0.67931193,0.0,0.0,0.0
535,1778446352240,536.0,-2.7996943,-1.2567737,0.67931193,0.0,0.0,0.0
536,1778446352250,537.0,-2.7996943,-1.2567737,0.67931193,0.0,0.0,0.0
537,1778446352260,538.0,-2.6535169333333335,-1.2307492333333334,0.6955861200000001,0.0,0.0,0.0
538,1778446352270,539.0,-2.3611622,-1.1787003,0.7281345,0.0,0.0,0.0
539,1778446352280,540.0,-1.76289,-1.1556575,0.6987768,0.0,0.0,0.0
540,1778446352290,541.0,-1.7628899999999998,-1.1556575,0.6987768,0.0,0.0,0.0
541,1778446352300,542.0,-1.7628899999999998,-1.1556575,0.6987768,0.0,0.0,0.0
542,1778446352310,543.0,-1.68934255,-1.1512768,0.68302755,0.0,0.0,0.0
543,1778446352320,544.0,-1.6157951,-1.1468961,0.6672783,0.0,0.0,0.0
544,1778446352330,545.0,-1.6157951,-1.1468961,0.6672783,0.0,0.0,0.0
545,1778446352340,546.0,-1.6157951,-1.1468961,0.6672783,0.0,0.0,0.0
546,1778446352350,547.0,-1.6157951,-1.1468961,0.6672783,0.0,0.0,0.0
547,1778446352360,548.0,-1.6157951,-1.1468961,0.6672783,0.0,0.0,0.0
548,1778446352370,549.0,-1.6157951,-1.1468961,0.6672783,0.0,0.0,0.0
549,1778446352380,550.0,-1.4239602,-1.079312,0.6487309,0.0,0.0,0.0
550,1778446352390,551.0,-1.4239602,-1.079312,0.6487309,0.0,0.0,0.0
551,1778446352400,552.0,-1.4239602,-1.079312,0.6487309,0.0,0.0,0.0
552,1778446352410,553.0,-1.471735425,-1.0758716000000002,0.6544648,0.0,0.0,0.0
553,1778446352420,554.0,-1.4876604999999998,-1.0747248,0.6563761,0.0,0.0,0.0
554,1778446352430,555.0,-1.4876604999999998,-1.0747248,0.6563761,0.0,0.0,0.0
555,1778446352440,556.0,-1.4876605,-1.0747248,0.6563761,0.0,0.0,0.0
556,1778446352450,557.0,-1.4876604999999998,-1.0747248,0.6563761,0.0,0.0,0.0
557,1778446352460,558.0,-1.4876604999999998,-1.0747248,0.6563761,0.0,0.0,0.0
558,1778446352470,559.0,-1.4876605,-1.0747248,0.6563761,0.0,0.0,0.0
559,1778446352480,560.0,-1.4876604999999998,-1.0747248,0.6563761,0.0,0.0,0.0
560,1778446352490,561.0,-1.4876604999999998,-1.0747248,0.6563761,0.0,0.0,0.0
561,1778446352500,562.0,-1.4876604999999998,-1.0747248,0.6563761,0.0,0.0,0.0
562,1778446352510,563.0,-1.4876604999999998,-1.0747248,0.6563761,0.0,0.0,0.0
563,1778446352520,564.0,-1.7439295666666668,-0.9903822666666668,0.6988430333333334,0.0,0.0,0.0
564,1778446352530,565.0,-1.8720641,-0.948211,0.7200764999999999,0.0,0.0,0.0
565,1778446352540,566.0,-1.8720641,-0.948211,0.7200765,0.0,0.0,0.0
566,1778446352550,567.0,-1.8720641,-0.948211,0.7200764999999999,0.0,0.0,0.0
567,1778446352560,568.0,-1.8720641,-0.948211,0.7200764999999999,0.0,0.0,0.0
568,1778446352570,569.0,-2.316712566666667,-0.8973139666666667,0.8089042333333333,0.0,0.0,0.0
569,1778446352580,570.0,-2.5390368,-0.87186545,0.8533181,0.0,0.0,0.0
570,1778446352590,571.0,-2.8012233,-0.86697245,0.8533181,0.0,0.0,0.0
571,1778446352600,572.0,-2.8012233,-0.86697245,0.8533181,0.0,0.0,0.0
572,1778446352610,573.0,-2.893471,-0.8081499,0.80570334,0.0,0.0,0.0
573,1778446352620,574.0,-2.893471,-0.8081499,0.80570334,0.0,0.0,0.0
574,1778446352630,575.0,-2.893471,-0.8081499,0.80570334,0.0,0.0,0.0
575,1778446352640,576.0,-2.893471,-0.8081499,0.80570334,0.0,0.0,0.0
576,1778446352650,577.0,-2.6064222,-0.52772176,0.23383792,0.0,0.0,0.0
577,1778446352660,578.0,-2.6064222,-0.52772176,0.23383792,0.0,0.0,0.0
578,1778446352670,579.0,-2.5695567333333336,-0.5143680266666667,0.181850152,0.0,0.0,0.0
579,1778446352680,580.0,-2.4958258,-0.4876605599999999,0.077874616,0.0,0.0,0.0
580,1778446352690,581.0,-2.4958258,-0.4876605599999999,0.077874616,0.0,0.0,0.0
581,1778446352700,582.0,-2.3801224,-0.4767584,0.042003058,0.0,0.0,0.0
582,1778446352710,583.0,-2.3801224,-0.4767584,0.042003058,0.0,0.0,0.0
583,1778446352720,584.0,-2.3801224,-0.4767584,0.042003058,0.0,0.0,0.0
584,1778446352730,585.0,-2.3801224,-0.4767584,0.042003058,0.0,0.0,0.0
585,1778446352740,586.0,-2.3550102666666666,-0.4730886766666667,0.040948012,0.0,0.0,0.0
586,1778446352750,587.0,-2.304786,-0.46574923,0.03883792,0.0,0.0,0.0
587,1778446352760,588.0,-2.196529,-0.44997961,0.1742099933333333,0.0,0.0,0.0
588,1778446352770,589.0,-2.1424005,-0.4420948,0.24189603,0.0,0.0,0.0
589,1778446352780,590.0,-2.1424005,-0.4420948,0.24189603,0.0,0.0,0.0
590,1778446352790,591.0,-2.1424005,-0.4420948,0.24189603,0.0,0.0,0.0
591,1778446352800,592.0,-2.1424005,-0.4420948,0.24189603,0.0,0.0,0.0
592,1778446352810,593.0,-2.1157950666666667,-0.4418246666666667,0.26948522,0.0,0.0,0.0
593,1778446352820,594.0,-2.0625842,-0.4412844,0.3246636,0.0,0.0,0.0
594,1778446352830,595.0,-2.0625842,-0.4412844,0.3246636,0.0,0.0,0.0
595,1778446352840,596.0,-2.0625842,-0.4412844,0.3246636,0.0,0.0,0.0
596,1778446352850,597.0,-2.0625842,-0.4412844,0.3246636,0.0,0.0,0.0
597,1778446352860,598.0,-2.01564225,-0.432010715,0.32930429,0.0,0.0,0.0
598,1778446352870,599.0,-1.9687003,-0.42273703,0.33394498,0.0,0.0,0.0
599,1778446352880,600.0,-1.9687003,-0.42273703,0.33394498,0.0,0.0,0.0
600,1778446352890,601.0,-1.9687003,-0.42273703,0.33394498,0.0,0.0,0.0
601,1778446352900,602.0,-1.9687003,-0.42273703,0.33394498,0.0,0.0,0.0
602,1778446352910,603.0,-1.9687003,-0.42273703,0.33394498,0.0,0.0,0.0
603,1778446352920,604.0,-1.9687003,-0.42273703,0.33394498,0.0,0.0,0.0
604,1778446352930,605.0,-1.9687003,-0.42273703,0.33394498,0.0,0.0,0.0
605,1778446352940,606.0,-1.9687003,-0.42273703,0.33394498,0.0,0.0,0.0
606,1778446352950,607.0,-1.9687003,-0.42273703,0.33394498,0.0,0.0,0.0
607,1778446352960,608.0,-1.9687003,-0.42273703,0.33394498,0.0,0.0,0.0
608,1778446352970,609.0,-1.9687003,-0.42273703,0.33394498,0.0,0.0,0.0
609,1778446352980,610.0,-1.9687003,-0.42273703,0.33394498,0.0,0.0,0.0
610,1778446352990,611.0,-1.9563353666666667,-0.4346942,0.3320744266666666,0.0,0.0,0.0
611,1778446353000,612.0,-1.9316055,-0.45860854,0.32833332,0.0,0.0,0.0
612,1778446353010,613.0,-1.9316055,-0.45860854,0.32833332,0.0,0.0,0.0
613,1778446353020,614.0,-1.9316055,-0.45860854,0.32833332,0.0,0.0,0.0
614,1778446353030,615.0,-1.9316055,-0.45860854,0.32833332,0.0,0.0,0.0
615,1778446353040,616.0,-1.9316055,-0.45860854,0.32833332,0.0,0.0,0.0
616,1778446353050,617.0,-1.9316055,-0.45860854,0.32833332,0.0,0.0,0.0
617,1778446353060,618.0,-1.7938839,-0.5804281,0.4579052,0.0,0.0,0.0
618,1778446353070,619.0,-1.7938839,-0.5804281,0.4579052,0.0,0.0,0.0
619,1778446353080,620.0,-1.7938839,-0.5804281,0.4579052,0.0,0.0,0.0
620,1778446353090,621.0,-1.7938839,-0.5804281,0.4579052,0.0,0.0,0.0
621,1778446353100,622.0,-1.7938839,-0.5804281,0.4579052,0.0,0.0,0.0
622,1778446353110,623.0,-1.7938839,-0.5804281,0.4579052,0.0,0.0,0.0
623,1778446353120,624.0,-1.7938839,-0.5804281,0.4579052,0.0,0.0,0.0
624,1778446353130,625.0,-1.7938839,-0.5804281,0.4579052,0.0,0.0,0.0
625,1778446353140,626.0,-1.8269649,-0.5554052,0.43216361,0.0,0.0,0.0
626,1778446353150,627.0,-1.8472681,-0.5414577333333334,0.4181447533333333,0.0,0.0,0.0
627,1778446353160,628.0,-1.8217125,-0.5636086,0.44159022,0.0,0.0,0.0
628,1778446353170,629.0,-1.8217125,-0.5636086,0.44159022,0.0,0.0,0.0
629,1778446353180,630.0,-1.8217125,-0.5636086,0.44159022,0.0,0.0,0.0
630,1778446353190,631.0,-1.8217125,-0.5636086,0.44159022,0.0,0.0,0.0
631,1778446353200,632.0,-1.8217125,-0.5636086,0.44159022,0.0,0.0,0.0
632,1778446353210,633.0,-1.8217125,-0.5636086,0.44159022,0.0,0.0,0.0
633,1778446353220,634.0,-1.8217125,-0.5636086,0.44159022,0.0,0.0,0.0
634,1778446353230,635.0,-1.8217125,-0.5636086,0.44159022,0.0,0.0,0.0
635,1778446353240,636.0,-1.8217125,-0.5636086,0.44159022,0.0,0.0,0.0
636,1778446353250,637.0,-1.8217125,-0.5636086,0.44159022,0.0,0.0,0.0
637,1778446353260,638.0,-1.8217125,-0.5636086,0.44159022,0.0,0.0,0.0
638,1778446353270,639.0,-1.84862385,-0.7332263,0.605099415,0.0,0.0,0.0
639,1778446353280,640.0,-1.8530122,-0.7974465,0.65412843,0.0,0.0,0.0
640,1778446353290,641.0,-1.8530122,-0.7974465,0.65412843,0.0,0.0,0.0
641,1778446353300,642.0,-1.8530122,-0.7974465,0.65412843,0.0,0.0,0.0
642,1778446353310,643.0,-1.8530122,-0.7974465,0.65412843,0.0,0.0,0.0
643,1778446353320,644.0,-1.8530122,-0.7974465,0.65412843,0.0,0.0,0.0
644,1778446353330,645.0,-1.8530122,-0.7974465,0.65412843,0.0,0.0,0.0
645,1778446353340,646.0,-1.8574617333333336,-0.8268756533333333,0.6939194533333333,0.0,0.0,0.0
646,1778446353350,647.0,-1.9214067333333336,-0.95117736,0.77118754,0.0,0.0,0.0
647,1778446353360,648.0,-1.9489297,-0.98389906,0.77003056,0.0,0.0,0.0
648,1778446353370,649.0,-1.9489297,-0.98389906,0.77003056,0.0,0.0,0.0
649,1778446353380,650.0,-1.9489297,-0.98389906,0.77003056,0.0,0.0,0.0
650,1778446353390,651.0,-1.9489297,-0.98389906,0.77003056,0.0,0.0,0.0
651,1778446353400,652.0,-1.9489297,-0.98389906,0.77003056,0.0,0.0,0.0
652,1778446353410,653.0,-1.9489297,-0.98389906,0.77003056,0.0,0.0,0.0
653,1778446353420,654.0,-1.9489297,-0.98389906,0.77003056,0.0,0.0,0.0
654,1778446353430,655.0,-1.9489297,-0.98389906,0.77003056,0.0,0.0,0.0
655,1778446353440,656.0,-1.9489297,-0.98389906,0.77003056,0.0,0.0,0.0
656,1778446353450,657.0,-1.9489297,-0.98389906,0.77003056,0.0,0.0,0.0
657,1778446353460,658.0,-1.9489297,-0.98389906,0.77003056,0.0,0.0,0.0
658,1778446353470,659.0,-1.9489297,-0.98389906,0.77003056,0.0,0.0,0.0
659,1778446353480,660.0,-1.9489297,-0.98389906,0.77003056,0.0,0.0,0.0
660,1778446353490,661.0,-1.9489297,-0.98389906,0.77003056,0.0,0.0,0.0
661,1778446353500,662.0,-1.9489297,-0.98389906,0.77003056,0.0,0.0,0.0
662,1778446353510,663.0,-1.9489297,-0.98389906,0.77003056,0.0,0.0,0.0
663,1778446353520,664.0,-2.016315,-1.088578,0.7330275,0.0,0.0,0.0
664,1778446353530,665.0,-2.016315,-1.088578,0.7330275,0.0,0.0,0.0
665,1778446353540,666.0,-2.016315,-1.088578,0.7330275,0.0,0.0,0.0
666,1778446353550,667.0,-2.016315,-1.088578,0.7330275,0.0,0.0,0.0
667,1778446353560,668.0,-2.016315,-1.088578,0.7330275,0.0,0.0,0.0
668,1778446353570,669.0,-2.016315,-1.088578,0.7330275,0.0,0.0,0.0
669,1778446353580,670.0,-2.016315,-1.088578,0.7330275,0.0,0.0,0.0
670,1778446353590,671.0,-2.016315,-1.088578,0.7330275,0.0,0.0,0.0
671,1778446353600,672.0,-2.0521865,-1.1508715,0.7705352,0.0,0.0,0.0
672,1778446353610,673.0,-2.0521865,-1.1508715,0.7705352,0.0,0.0,0.0
673,1778446353620,674.0,-2.0521865,-1.1508715,0.7705352,0.0,0.0,0.0
674,1778446353630,675.0,-2.0521865,-1.1508715,0.7705352,0.0,0.0,0.0
675,1778446353640,676.0,-2.102543266666667,-1.2011263666666667,0.78966872,0.0,0.0,0.0
676,1778446353650,677.0,-2.2032568,-1.3016361,0.82793576,0.0,0.0,0.0
677,1778446353660,678.0,-2.2032568,-1.3016361,0.82793576,0.0,0.0,0.0
678,1778446353670,679.0,-2.21008785,-1.3108601,0.811395245,0.0,0.0,0.0
679,1778446353680,680.0,-2.230581,-1.3385321,0.7617737,0.0,0.0,0.0
680,1778446353690,681.0,-2.230581,-1.3385321,0.7617737,0.0,0.0,0.0
681,1778446353700,682.0,-2.230581,-1.3385321,0.7617737,0.0,0.0,0.0
682,1778446353710,683.0,-2.230581,-1.3385321,0.7617737,0.0,0.0,0.0
683,1778446353720,684.0,-2.230581,-1.3385321,0.7617737,0.0,0.0,0.0
684,1778446353730,685.0,-2.230581,-1.3385321,0.7617737,0.0,0.0,0.0
685,1778446353740,686.0,-2.230581,-1.3385321,0.7617737,0.0,0.0,0.0
686,1778446353750,687.0,-2.230581,-1.3385321,0.7617737,0.0,0.0,0.0
687,1778446353760,688.0,-2.230581,-1.3385321,0.7617737,0.0,0.0,0.0
688,1778446353770,689.0,-2.230581,-1.3385321,0.7617737,0.0,0.0,0.0
689,1778446353780,690.0,-2.180153,-1.3632721666666665,0.7393475666666666,0.0,0.0,0.0
690,1778446353790,691.0,-2.154939,-1.3756422,0.7281345,0.0,0.0,0.0
691,1778446353800,692.0,-2.154939,-1.3756422,0.7281345,0.0,0.0,0.0
692,1778446353810,693.0,-2.154939,-1.3756422,0.7281345,0.0,0.0,0.0
693,1778446353820,694.0,-2.120695725,-1.4027064,0.728673525,0.0,0.0,0.0
694,1778446353830,695.0,-2.1092813,-1.4117278000000002,0.7288532,0.0,0.0,0.0
695,1778446353840,696.0,-2.1092813,-1.4117278,0.7288532,0.0,0.0,0.0
696,1778446353850,697.0,-2.1092813,-1.4117278000000002,0.7288532,0.0,0.0,0.0
697,1778446353860,698.0,-2.1092813,-1.4117278000000002,0.7288532,0.0,0.0,0.0
698,1778446353870,699.0,-2.1092813,-1.4117278,0.7288532,0.0,0.0,0.0
699,1778446353880,700.0,-2.1092813,-1.4117278000000002,0.7288532,0.0,0.0,0.0
700,1778446353890,701.0,-2.0924349500000003,-1.413792025,0.7289029,0.0,0.0,0.0
701,1778446353900,702.0,-2.0418959,-1.4199847,0.7290519999999999,0.0,0.0,0.0
702,1778446353910,703.0,-2.0418959,-1.4199847,0.729052,0.0,0.0,0.0
703,1778446353920,704.0,-2.0418959,-1.4199847,0.7290519999999999,0.0,0.0,0.0
704,1778446353930,705.0,-2.0418959,-1.4199847,0.7290519999999999,0.0,0.0,0.0
705,1778446353940,706.0,-2.0418959,-1.4199847,0.7290519999999999,0.0,0.0,0.0
706,1778446353950,707.0,-2.0418959,-1.4199847,0.7290519999999999,0.0,0.0,0.0
707,1778446353960,708.0,-2.0291181666666667,-1.4054383,0.7133537333333333,0.0,0.0,0.0
708,1778446353970,709.0,-1.9980275,-1.3512690666666665,0.6710499666666667,0.0,0.0,0.0
709,1778446353980,710.0,-1.9869571,-1.3011162,0.6492355,0.0,0.0,0.0
710,1778446353990,711.0,-1.9869571,-1.3011162,0.6492355,0.0,0.0,0.0
711,1778446354000,712.0,-1.9869571,-1.3011162,0.6492355,0.0,0.0,0.0
712,1778446354010,713.0,-1.9869571,-1.3011162,0.6492355,0.0,0.0,0.0
713,1778446354020,714.0,-1.9869571,-1.3011162,0.6492355,0.0,0.0,0.0
714,1778446354030,715.0,-1.9869571,-1.3011162,0.6492355,0.0,0.0,0.0
715,1778446354040,716.0,-1.9869571,-1.3011162,0.6492355,0.0,0.0,0.0
716,1778446354050,717.0,-1.9869571,-1.3011162,0.6492355,0.0,0.0,0.0
717,1778446354060,718.0,-1.9697298,-1.2824312000000002,0.6718654533333334,0.0,0.0,0.0
718,1778446354070,719.0,-1.9352752,-1.2450612,0.7171253600000002,0.0,0.0,0.0
719,1778446354080,720.0,-1.9352752,-1.2450612,0.71712536,0.0,0.0,0.0
720,1778446354090,721.0,-1.9352752,-1.2450612,0.7171253600000002,0.0,0.0,0.0
721,1778446354100,722.0,-1.9352752,-1.2450612,0.7171253600000002,0.0,0.0,0.0
722,1778446354110,723.0,-1.9352752,-1.2450612,0.7171253600000002,0.0,0.0,0.0
723,1778446354120,724.0,-1.9352752,-1.2450612,0.71712536,0.0,0.0,0.0
724,1778446354130,725.0,-1.9352752,-1.2450612,0.7171253600000002,0.0,0.0,0.0
725,1778446354140,726.0,-1.8442761333333333,-1.2377217333333332,0.77632008,0.0,0.0,0.0
726,1778446354150,727.0,-1.7987766,-1.234052,0.80591744,0.0,0.0,0.0
727,1778446354160,728.0,-1.7987766,-1.234052,0.80591744,0.0,0.0,0.0
728,1778446354170,729.0,-1.7987766,-1.234052,0.80591744,0.0,0.0,0.0
729,1778446354180,730.0,-1.7987766,-1.234052,0.80591744,0.0,0.0,0.0
730,1778446354190,731.0,-1.65173535,-1.2327217,0.8642737199999999,0.0,0.0,0.0
731,1778446354200,732.0,-1.5046941,-1.2313914,0.92263,0.0,0.0,0.0
732,1778446354210,733.0,-1.5046941,-1.2313914,0.92263,0.0,0.0,0.0
733,1778446354220,734.0,-1.5046941,-1.2313914,0.92263,0.0,0.0,0.0
734,1778446354230,735.0,-1.5046941,-1.2313914,0.92263,0.0,0.0,0.0
735,1778446354240,736.0,-1.5046941,-1.2313914,0.92263,0.0,0.0,0.0
736,1778446354250,737.0,-1.5046941,-1.2313914,0.92263,0.0,0.0,0.0
737,1778446354260,738.0,-1.5046941,-1.2313914,0.92263,0.0,0.0,0.0
738,1778446354270,739.0,-1.5046941,-1.2313914,0.92263,0.0,0.0,0.0
739,1778446354280,740.0,-1.5046941,-1.2313914,0.92263,0.0,0.0,0.0
740,1778446354290,741.0,-1.444292775,-1.1781117,0.920256175,0.0,0.0,0.0
741,1778446354300,742.0,-1.4241590000000002,-1.1603518,0.9194649,0.0,0.0,0.0
742,1778446354310,743.0,-1.3264985,-1.1349694,0.8086697,0.0,0.0,0.0
743,1778446354320,744.0,-1.3201784333333333,-1.1089348,0.7608205933333334,0.0,0.0,0.0
744,1778446354330,745.0,-1.3170184,-1.0959175,0.73689604,0.0,0.0,0.0
745,1778446354340,746.0,-1.3675573,-1.0549426,0.68545111,0.0,0.0,0.0
746,1778446354350,747.0,-1.3844036,-1.0412843,0.6683027999999999,0.0,0.0,0.0
747,1778446354360,748.0,-1.3844036,-1.0412843,0.6683027999999999,0.0,0.0,0.0
748,1778446354370,749.0,-1.3844036,-1.0412843,0.6683028,0.0,0.0,0.0
749,1778446354380,750.0,-1.3844036,-1.0412843,0.6683027999999999,0.0,0.0,0.0
750,1778446354390,751.0,-1.3844036,-1.0412843,0.6683027999999999,0.0,0.0,0.0
751,1778446354400,752.0,-1.3844036,-1.0412843,0.6683027999999999,0.0,0.0,0.0
752,1778446354410,753.0,-1.3844036,-1.0412843,0.6683027999999999,0.0,0.0,0.0
753,1778446354420,754.0,-1.3844036,-1.0412843,0.6683027999999999,0.0,0.0,0.0
754,1778446354430,755.0,-1.3844036,-1.0412843,0.6683027999999999,0.0,0.0,0.0
755,1778446354440,756.0,-1.3844036,-1.0412843,0.6683027999999999,0.0,0.0,0.0
756,1778446354450,757.0,-1.3844036,-1.0412843,0.6683027999999999,0.0,0.0,0.0
757,1778446354460,758.0,-1.3863404333333331,-1.0421661,0.6672477333333333,0.0,0.0,0.0
758,1778446354470,759.0,-1.3902141,-1.0439297,0.6651376,0.0,0.0,0.0
759,1778446354480,760.0,-1.3902141,-1.0439297,0.6651376,0.0,0.0,0.0
760,1778446354490,761.0,-1.3902141,-1.0439297,0.6651376,0.0,0.0,0.0
761,1778446354500,762.0,-1.3902141,-1.0439297,0.6651376,0.0,0.0,0.0
762,1778446354510,763.0,-1.3902141,-1.0439297,0.6651376,0.0,0.0,0.0
763,1778446354520,764.0,-1.3902141,-1.0439297,0.6651376,0.0,0.0,0.0
764,1778446354530,765.0,-1.0651070733333332,-1.1449897666666666,0.6792762666666666,0.0,0.0,0.0
765,1778446354540,766.0,-0.90255356,-1.1955198,0.6863456,0.0,0.0,0.0
766,1778446354550,767.0,-0.90255356,-1.1955198,0.6863456,0.0,0.0,0.0
767,1778446354560,768.0,-0.90255356,-1.1955198,0.6863456,0.0,0.0,0.0
768,1778446354570,769.0,-0.90255356,-1.1955198,0.6863456,0.0,0.0,0.0
769,1778446354580,770.0,-0.71295106,-1.2545413,0.59561163,0.0,0.0,0.0
770,1778446354590,771.0,-0.71295106,-1.2545413,0.59561163,0.0,0.0,0.0
771,1778446354600,772.0,-0.71295106,-1.2545413,0.59561163,0.0,0.0,0.0
772,1778446354610,773.0,-0.71295106,-1.2545413,0.59561163,0.0,0.0,0.0
773,1778446354620,774.0,-0.71295106,-1.2545413,0.59561163,0.0,0.0,0.0
774,1778446354630,775.0,-0.71295106,-1.2545413,0.59561163,0.0,0.0,0.0
775,1778446354640,776.0,-0.5633384166666666,-1.2681294333333335,0.5165086766666667,0.0,0.0,0.0
776,1778446354650,777.0,-0.26411313,-1.2953057,0.35830277,0.0,0.0,0.0
777,1778446354660,778.0,-0.26411313,-1.2953057,0.35830277,0.0,0.0,0.0
778,1778446354670,779.0,-0.26411313,-1.2953057,0.35830277,0.0,0.0,0.0
779,1778446354680,780.0,-0.26411313,-1.2953057,0.35830277,0.0,0.0,0.0
780,1778446354690,781.0,-0.26411313,-1.2953057,0.35830277,0.0,0.0,0.0
781,1778446354700,782.0,-0.26411313,-1.2953057,0.35830277,0.0,0.0,0.0
782,1778446354710,783.0,-0.05035168,-1.2601377,0.1986697199999999,0.0,0.0,0.0
783,1778446354720,784.0,-0.05035168,-1.2601377,0.1986697199999999,0.0,0.0,0.0
784,1778446354730,785.0,0.12752293,-1.133945,0.04423547,0.0,0.0,0.0
785,1778446354740,786.0,0.12752293,-1.133945,0.04423547,0.0,0.0,0.0
786,1778446354750,787.0,0.12752293,-1.133945,0.04423547,0.0,0.0,0.0
787,1778446354760,788.0,0.12752293,-1.133945,0.04423547,0.0,0.0,0.0
788,1778446354770,789.0,0.1901108475,-1.089296675,0.0109556537499999,0.0,0.0,0.0
789,1778446354780,790.0,0.4955096666666667,-0.8855555666666666,-0.0975178383333333,0.0,0.0,0.0
790,1778446354790,791.0,0.5543272,-0.8506575,-0.10183486,0.0,0.0,0.0
791,1778446354800,792.0,0.5543272,-0.8506575,-0.10183486,0.0,0.0,0.0
792,1778446354810,793.0,0.5543272,-0.8506575,-0.10183486,0.0,0.0,0.0
793,1778446354820,794.0,0.5543272,-0.8506575,-0.10183486,0.0,0.0,0.0
794,1778446354830,795.0,0.5543272,-0.8506575,-0.10183486,0.0,0.0,0.0
795,1778446354840,796.0,0.5543272,-0.8506575,-0.10183486,0.0,0.0,0.0
796,1778446354850,797.0,0.5543272,-0.8506575,-0.10183486,0.0,0.0,0.0
797,1778446354860,798.0,0.5543272,-0.8506575,-0.10183486,0.0,0.0,0.0
798,1778446354870,799.0,0.5543272,-0.8506575,-0.10183486,0.0,0.0,0.0
799,1778446354880,800.0,0.5858970333333334,-0.8224923666666667,-0.1205555566666666,0.0,0.0,0.0
800,1778446354890,801.0,0.70081043,-0.65657496,-0.20071866,0.0,0.0,0.0
801,1778446354900,802.0,0.7008104300000001,-0.65657496,-0.20071866,0.0,0.0,0.0
802,1778446354910,803.0,0.7008104300000001,-0.65657496,-0.20071866,0.0,0.0,0.0
803,1778446354920,804.0,0.77992356,-0.4633027299999999,-0.22680429,0.0,0.0,0.0
804,1778446354930,805.0,0.77992356,-0.4633027299999999,-0.22680429,0.0,0.0,0.0
805,1778446354940,806.0,0.84284912,-0.4246330166666667,-0.2012894999999999,0.0,0.0,0.0
806,1778446354950,807.0,0.906529,-0.38685015,-0.15340978,0.0,0.0,0.0
807,1778446354960,808.0,0.906529,-0.38685015,-0.15340978,0.0,0.0,0.0
808,1778446354970,809.0,0.906529,-0.38685015,-0.15340978,0.0,0.0,0.0
809,1778446354980,810.0,0.906529,-0.38685015,-0.15340978,0.0,0.0,0.0
810,1778446354990,811.0,0.906529,-0.38685015,-0.15340978,0.0,0.0,0.0
811,1778446355000,812.0,0.9441438,-0.3204893,-0.073593274,0.0,0.0,0.0
812,1778446355010,813.0,0.9441438,-0.3204893,-0.073593274,0.0,0.0,0.0
813,1778446355020,814.0,1.0285933,-0.22130734,0.048425078,0.0,0.0,0.0
814,1778446355030,815.0,1.1130428,-0.12212538,0.17044343,0.0,0.0,0.0
815,1778446355040,816.0,1.1130428,-0.12212538,0.17044343,0.0,0.0,0.0
816,1778446355050,817.0,1.1130428,-0.12212538,0.17044343,0.0,0.0,0.0
817,1778446355060,818.0,1.1130428,-0.12212538,0.17044343,0.0,0.0,0.0
818,1778446355070,819.0,1.1130428,-0.12212538,0.17044343,0.0,0.0,0.0
819,1778446355080,820.0,1.1130428,-0.12212538,0.17044343,0.0,0.0,0.0
820,1778446355090,821.0,1.1130428,-0.12212538,0.17044343,0.0,0.0,0.0
821,1778446355100,822.0,1.1130428,-0.12212538,0.17044343,0.0,0.0,0.0
822,1778446355110,823.0,1.1130428,-0.12212538,0.17044343,0.0,0.0,0.0
823,1778446355120,824.0,1.1130428,-0.12212538,0.17044343,0.0,0.0,0.0
824,1778446355130,825.0,1.1130428,-0.12212538,0.17044343,0.0,0.0,0.0
825,1778446355140,826.0,1.1130428,-0.12212538,0.17044343,0.0,0.0,0.0
826,1778446355150,827.0,1.1130428,-0.12212538,0.17044343,0.0,0.0,0.0
827,1778446355160,828.0,1.1440367333333334,0.134892978,0.25379206,0.0,0.0,0.0
828,1778446355170,829.0,1.1342508,0.48623857,0.35321102,0.0,0.0,0.0
829,1778446355180,830.0,1.1342508,0.48623857,0.35321102,0.0,0.0,0.0
830,1778446355190,831.0,1.1543680333333333,0.4013252066666666,0.3197757533333333,0.0,0.0,0.0
831,1778446355200,832.0,1.1946025,0.23149848,0.25290522,0.0,0.0,0.0
832,1778446355210,833.0,1.1946025,0.23149848,0.25290522,0.0,0.0,0.0
833,1778446355220,834.0,1.1946025,0.23149848,0.25290522,0.0,0.0,0.0
834,1778446355230,835.0,1.1946025,0.23149848,0.25290522,0.0,0.0,0.0
835,1778446355240,836.0,1.1946025,0.23149848,0.25290522,0.0,0.0,0.0
836,1778446355250,837.0,1.1946025,0.23149848,0.25290522,0.0,0.0,0.0
837,1778446355260,838.0,1.193578,0.29490826,0.25290522,0.0,0.0,0.0
838,1778446355270,839.0,1.193578,0.29490826,0.25290522,0.0,0.0,0.0
839,1778446355280,840.0,1.193578,0.29490826,0.25290522,0.0,0.0,0.0
840,1778446355290,841.0,1.17746945,0.3378746299999999,0.2678899099999999,0.0,0.0,0.0
841,1778446355300,842.0,1.1613609,0.380841,0.2828746,0.0,0.0,0.0
842,1778446355310,843.0,1.1613609,0.380841,0.2828746,0.0,0.0,0.0
843,1778446355320,844.0,1.1613609,0.380841,0.2828746,0.0,0.0,0.0
844,1778446355330,845.0,1.1613609,0.380841,0.2828746,0.0,0.0,0.0
845,1778446355340,846.0,1.1613609,0.380841,0.2828746,0.0,0.0,0.0
846,1778446355350,847.0,1.1613609,0.380841,0.2828746,0.0,0.0,0.0
847,1778446355360,848.0,1.1613609,0.380841,0.2828746,0.0,0.0,0.0
848,1778446355370,849.0,1.1613609,0.380841,0.2828746,0.0,0.0,0.0
849,1778446355380,850.0,1.1613609,0.380841,0.2828746,0.0,0.0,0.0
850,1778446355390,851.0,1.1613609,0.380841,0.2828746,0.0,0.0,0.0
851,1778446355400,852.0,1.1613609,0.380841,0.2828746,0.0,0.0,0.0
852,1778446355410,853.0,1.1613609,0.380841,0.2828746,0.0,0.0,0.0
853,1778446355420,854.0,1.1613609,0.380841,0.2828746,0.0,0.0,0.0
854,1778446355430,855.0,1.1613609,0.380841,0.2828746,0.0,0.0,0.0
855,1778446355440,856.0,1.1613609,0.380841,0.2828746,0.0,0.0,0.0
856,1778446355450,857.0,1.1613609,0.380841,0.2828746,0.0,0.0,0.0
857,1778446355460,858.0,1.1613609,0.380841,0.2828746,0.0,0.0,0.0
858,1778446355470,859.0,1.1613609,0.380841,0.2828746,0.0,0.0,0.0
859,1778446355480,860.0,1.1613609,0.380841,0.2828746,0.0,0.0,0.0
860,1778446355490,861.0,1.1613609,0.380841,0.2828746,0.0,0.0,0.0
861,1778446355500,862.0,1.1613609,0.380841,0.2828746,0.0,0.0,0.0
862,1778446355510,863.0,1.1613609,0.380841,0.2828746,0.0,0.0,0.0
863,1778446355520,864.0,1.1613609,0.380841,0.2828746,0.0,0.0,0.0
864,1778446355530,865.0,0.9226962333333332,0.5777115333333334,0.4395820666666666,0.0,0.0,0.0
865,1778446355540,866.0,0.8033639,0.6761468,0.5179358,0.0,0.0,0.0
866,1778446355550,867.0,0.8033639,0.6761468,0.5179358,0.0,0.0,0.0
867,1778446355560,868.0,0.8033639,0.6761468,0.5179358,0.0,0.0,0.0
868,1778446355570,869.0,0.8448521666666666,0.6488277466666666,0.4965290666666666,0.0,0.0,0.0
869,1778446355580,870.0,0.9278287,0.59418964,0.4537156,0.0,0.0,0.0
870,1778446355590,871.0,0.9278287,0.59418964,0.4537156,0.0,0.0,0.0
871,1778446355600,872.0,0.9278287,0.59418964,0.4537156,0.0,0.0,0.0
872,1778446355610,873.0,0.9278287,0.59418964,0.4537156,0.0,0.0,0.0
873,1778446355620,874.0,0.9278287,0.59418964,0.4537156,0.0,0.0,0.0
874,1778446355630,875.0,0.9278287,0.59418964,0.4537156,0.0,0.0,0.0
875,1778446355640,876.0,0.83115695,0.6328899433333333,0.5017278333333334,0.0,0.0,0.0
876,1778446355650,877.0,0.63781345,0.71029055,0.5977523,0.0,0.0,0.0
877,1778446355660,878.0,0.63781345,0.71029055,0.5977523,0.0,0.0,0.0
878,1778446355670,879.0,0.5726452566666667,0.7234760666666666,0.6196381333333334,0.0,0.0,0.0
879,1778446355680,880.0,0.44230887,0.7498470999999999,0.6634098,0.0,0.0,0.0
880,1778446355690,881.0,0.44230887,0.7498470999999999,0.6634098,0.0,0.0,0.0
881,1778446355700,882.0,0.44230887,0.7498470999999999,0.6634098,0.0,0.0,0.0
882,1778446355710,883.0,0.44230887,0.7498470999999999,0.6634098,0.0,0.0,0.0
883,1778446355720,884.0,0.44230887,0.7498471,0.6634098,0.0,0.0,0.0
884,1778446355730,885.0,0.44230887,0.7498470999999999,0.6634098,0.0,0.0,0.0
885,1778446355740,886.0,0.14362386,0.8536237999999999,0.6705352000000001,0.0,0.0,0.0
886,1778446355750,887.0,0.14362386,0.8536238,0.6705352,0.0,0.0,0.0
887,1778446355760,888.0,0.14362386,0.8536237999999999,0.6705352000000001,0.0,0.0,0.0
888,1778446355770,889.0,0.14362386,0.8536237999999999,0.6705352000000001,0.0,0.0,0.0
889,1778446355780,890.0,0.14362386,0.8536237999999999,0.6705352000000001,0.0,0.0,0.0
890,1778446355790,891.0,0.14362386,0.8536237999999999,0.6705352000000001,0.0,0.0,0.0
891,1778446355800,892.0,0.14362386,0.8536237999999999,0.6705352000000001,0.0,0.0,0.0
892,1778446355810,893.0,0.14362386,0.8536237999999999,0.6705352000000001,0.0,0.0,0.0
893,1778446355820,894.0,0.0977522981666666,0.8746890666666666,0.6494342666666667,0.0,0.0,0.0
894,1778446355830,895.0,0.0060091745,0.9168195999999998,0.6072324,0.0,0.0,0.0
895,1778446355840,896.0,-0.021792814125,0.931831075,0.586922775,0.0,0.0,0.0
896,1778446355850,897.0,-0.1318042833333333,0.9983384333333336,0.4998980766666667,0.0,0.0,0.0
897,1778446355860,898.0,-0.2118552633333333,1.0359123,0.3798165233333333,0.0,0.0,0.0
898,1778446355870,899.0,-0.22527525,1.0332263,0.3458715700000001,0.0,0.0,0.0
899,1778446355880,900.0,-0.22527525,1.0332263,0.3458715700000001,0.0,0.0,0.0
900,1778446355890,901.0,-0.22527525,1.0332263,0.3458715700000001,0.0,0.0,0.0
901,1778446355900,902.0,-0.22527525,1.0332263,0.3458715700000001,0.0,0.0,0.0
902,1778446355910,903.0,-0.22527525,1.0332263,0.3458715700000001,0.0,0.0,0.0
903,1778446355920,904.0,-0.22527525,1.0332263,0.3458715700000001,0.0,0.0,0.0
904,1778446355930,905.0,-0.22527525,1.0332263,0.3458715700000001,0.0,0.0,0.0
905,1778446355940,906.0,-0.22527525,1.0332263,0.34587157,0.0,0.0,0.0
906,1778446355950,907.0,-0.22527525,1.0332263,0.3458715700000001,0.0,0.0,0.0
907,1778446355960,908.0,-0.22527525,1.0332263,0.3458715700000001,0.0,0.0,0.0
908,1778446355970,909.0,-0.22527525,1.0332263,0.3458715700000001,0.0,0.0,0.0
909,1778446355980,910.0,-0.22527525,1.0332263,0.3458715700000001,0.0,0.0,0.0
910,1778446355990,911.0,-0.23261469,1.00593275,0.3385321074999999,0.0,0.0,0.0
911,1778446356000,912.0,-0.23506117,0.9968349,0.33608562,0.0,0.0,0.0
912,1778446356010,913.0,-0.23506117,0.9968349,0.33608562,0.0,0.0,0.0
913,1778446356020,914.0,-0.23506117,0.9968349,0.33608562,0.0,0.0,0.0
914,1778446356030,915.0,-0.23506117,0.9968349,0.33608562,0.0,0.0,0.0
915,1778446356040,916.0,-0.23506117,0.9968349,0.33608562,0.0,0.0,0.0
916,1778446356050,917.0,-0.23506117,0.9968349,0.33608562,0.0,0.0,0.0
917,1778446356060,918.0,-0.23506117,0.9968349,0.33608562,0.0,0.0,0.0
918,1778446356070,919.0,-0.23523446,0.9765188866666666,0.3241233333333333,0.0,0.0,0.0
919,1778446356080,920.0,0.09377676,0.65545875,0.08542814,0.0,0.0,0.0
920,1778446356090,921.0,0.09377676,0.65545875,0.08542814,0.0,0.0,0.0
921,1778446356100,922.0,0.09377676,0.65545875,0.08542814,0.0,0.0,0.0
922,1778446356110,923.0,0.09377676,0.65545875,0.08542814,0.0,0.0,0.0
923,1778446356120,924.0,0.0087971466666666,0.7149898333333334,0.1183180466666666,0.0,0.0,0.0
924,1778446356130,925.0,-0.1510703366666666,0.8340520000000001,0.1840978599999999,0.0,0.0,0.0
925,1778446356140,926.0,-0.13088685,0.8340520000000001,0.1840978599999999,0.0,0.0,0.0
926,1778446356150,927.0,-0.13088685,0.8340520000000001,0.1840978599999999,0.0,0.0,0.0
927,1778446356160,928.0,-0.13088685,0.8340520000000001,0.1840978599999999,0.0,0.0,0.0
928,1778446356170,929.0,-0.13088685,0.8340520000000001,0.1840978599999999,0.0,0.0,0.0
929,1778446356180,930.0,-0.13088685,0.8340520000000001,0.1840978599999999,0.0,0.0,0.0
930,1778446356190,931.0,0.3577943325,0.54956806,0.03042813475,0.0,0.0,0.0
931,1778446356200,932.0,0.52068806,0.4547400799999999,-0.020795107,0.0,0.0,0.0
932,1778446356210,933.0,0.52068806,0.4547400799999999,-0.020795107,0.0,0.0,0.0
933,1778446356220,934.0,0.52068806,0.4547400799999999,-0.020795107,0.0,0.0,0.0
934,1778446356230,935.0,0.7524197149999999,0.298237775,-0.0235474015,0.0,0.0,0.0
935,1778446356240,936.0,0.8296636,0.24607034,-0.024464833,0.0,0.0,0.0
936,1778446356250,937.0,0.8296636,0.24607034,-0.024464833,0.0,0.0,0.0
937,1778446356260,938.0,0.8296636,0.24607034,-0.024464833,0.0,0.0,0.0
938,1778446356270,939.0,0.8296636,0.24607034,-0.024464833,0.0,0.0,0.0
939,1778446356280,940.0,0.8296636,0.24607034,-0.024464833,0.0,0.0,0.0
940,1778446356290,941.0,0.8296636,0.24607034,-0.024464833,0.0,0.0,0.0
941,1778446356300,942.0,0.8296636,0.24607034,-0.024464833,0.0,0.0,0.0
942,1778446356310,943.0,0.8296636,0.24607034,-0.024464833,0.0,0.0,0.0
943,1778446356320,944.0,0.8296636,0.24607034,-0.024464833,0.0,0.0,0.0
944,1778446356330,945.0,0.8296636,0.24607034,-0.024464833,0.0,0.0,0.0
945,1778446356340,946.0,0.8296636,0.24607034,-0.024464833,0.0,0.0,0.0
946,1778446356350,947.0,0.8296636,0.24607034,-0.024464833,0.0,0.0,0.0
947,1778446356360,948.0,0.8296636,0.24607034,-0.024464833,0.0,0.0,0.0
948,1778446356370,949.0,0.8296636,0.24607034,-0.024464833,0.0,0.0,0.0
949,1778446356380,950.0,0.8296636,0.24607034,-0.024464833,0.0,0.0,0.0
950,1778446356390,951.0,0.858230125,0.2101911325,-0.01131498525,0.0,0.0,0.0
951,1778446356400,952.0,0.9439297,0.10255351,0.028134558,0.0,0.0,0.0
952,1778446356410,953.0,0.9439297,0.10255351,0.028134558,0.0,0.0,0.0
953,1778446356420,954.0,0.9439297,0.10255351,0.028134558,0.0,0.0,0.0
954,1778446356430,955.0,0.9442355,0.0650050923333333,0.0403312953333333,0.0,0.0,0.0
955,1778446356440,956.0,0.9448471,-0.010091743,0.06472477,0.0,0.0,0.0
956,1778446356450,957.0,0.9448471,-0.010091743,0.06472477,0.0,0.0,0.0
957,1778446356460,958.0,0.9448471,-0.010091743,0.06472477,0.0,0.0,0.0
958,1778446356470,959.0,0.9150841,-0.05968271975,0.0819266075,0.0,0.0,0.0
959,1778446356480,960.0,0.8257951,-0.20845565,0.13353212,0.0,0.0,0.0
960,1778446356490,961.0,0.8257951,-0.20845565,0.13353212,0.0,0.0,0.0
961,1778446356500,962.0,0.8257951,-0.20845565,0.13353212,0.0,0.0,0.0
962,1778446356510,963.0,0.8257951,-0.20845565,0.13353212,0.0,0.0,0.0
963,1778446356520,964.0,0.7208613666666667,-0.3090010266666667,0.14084608,0.0,0.0,0.0
964,1778446356530,965.0,0.6671713,-0.36513764,0.14281346,0.0,0.0,0.0
965,1778446356540,966.0,0.6671713,-0.36513764,0.14281346,0.0,0.0,0.0
966,1778446356550,967.0,0.6671713,-0.36513764,0.14281346,0.0,0.0,0.0
967,1778446356560,968.0,0.6671713,-0.36513764,0.14281346,0.0,0.0,0.0
968,1778446356570,969.0,0.6671713,-0.36513764,0.14281346,0.0,0.0,0.0
969,1778446356580,970.0,0.6671713,-0.36513764,0.14281346,0.0,0.0,0.0
970,1778446356590,971.0,0.6671713,-0.36513764,0.14281346,0.0,0.0,0.0
971,1778446356600,972.0,0.6671713,-0.36513764,0.14281346,0.0,0.0,0.0
972,1778446356610,973.0,0.6671713,-0.36513764,0.14281346,0.0,0.0,0.0
973,1778446356620,974.0,0.38474009,-0.6159021933333334,0.1796789066666666,0.0,0.0,0.0
974,1778446356630,975.0,-0.18012233,-1.1174313,0.2534098,0.0,0.0,0.0
975,1778446356640,976.0,-0.18012233,-1.1174313,0.2534098,0.0,0.0,0.0
976,1778446356650,977.0,-0.18012233,-1.1174313,0.2534098,0.0,0.0,0.0
977,1778446356660,978.0,-0.4167482433333333,-1.1123343666666667,0.3941539333333333,0.0,0.0,0.0
978,1778446356670,979.0,-0.5350612,-1.1097859,0.464526,0.0,0.0,0.0
979,1778446356680,980.0,-0.5350612,-1.1097859,0.464526,0.0,0.0,0.0
980,1778446356690,981.0,-0.5350612,-1.1097859,0.464526,0.0,0.0,0.0
981,1778446356700,982.0,-0.5350612,-1.1097859,0.464526,0.0,0.0,0.0
982,1778446356710,983.0,-0.5350612,-1.1097859,0.464526,0.0,0.0,0.0
983,1778446356720,984.0,-0.5350612,-1.1097859,0.464526,0.0,0.0,0.0
984,1778446356730,985.0,0.2113811999999999,-0.6622120066666667,0.2513455666666667,0.0,0.0,0.0
985,1778446356740,986.0,0.5846024,-0.43842506,0.14475535,0.0,0.0,0.0
986,1778446356750,987.0,0.38746178,-0.6040826,0.19235474,0.0,0.0,0.0
987,1778446356760,988.0,0.38746178,-0.6040826,0.19235474,0.0,0.0,0.0
988,1778446356770,989.0,0.38746178,-0.6040826,0.19235474,0.0,0.0,0.0
989,1778446356780,990.0,0.38746178,-0.6040826,0.19235474,0.0,0.0,0.0
990,1778446356790,991.0,0.38746178,-0.6040826,0.19235474,0.0,0.0,0.0
991,1778446356800,992.0,0.3045145325,-0.664323395,0.216127685,0.0,0.0,0.0
992,1778446356810,993.0,0.27686545,-0.68440366,0.224052,0.0,0.0,0.0
993,1778446356820,994.0,0.27686545,-0.68440366,0.224052,0.0,0.0,0.0
994,1778446356830,995.0,0.27686545,-0.68440366,0.224052,0.0,0.0,0.0
995,1778446356840,996.0,0.27686545,-0.68440366,0.224052,0.0,0.0,0.0
996,1778446356850,997.0,0.27686545,-0.68440366,0.224052,0.0,0.0,0.0
997,1778446356860,998.0,0.27686545,-0.68440366,0.224052,0.0,0.0,0.0
998,1778446356870,999.0,0.27686545,-0.68440366,0.224052,0.0,0.0,0.0
999,1778446356880,1000.0,0.2227013316666667,-0.6970081533333333,0.22504078,0.0,0.0,0.0
