id,timestamp,id,acc_x,acc_y,acc_z,gyro_x,gyro_y,gyro_z
0,1778446435550,1.0,0.052293576,0.8228287,0.375948,0.0,0.0,0.0
1,1778446435560,2.0,0.0749617715,0.818191855,0.43476490375,0.0,0.0,0.0
2,1778446435570,3.0,0.097629967,0.81355501,0.4935818075,0.0,0.0,0.0
3,1778446435580,4.0,0.1202981625,0.8089181649999999,0.5523987112500001,0.0,0.0,0.0
4,1778446435590,5.0,0.142966358,0.80428132,0.611215615,0.0,0.0,0.0
5,1778446435600,6.0,0.1656345535,0.799644475,0.67003251875,0.0,0.0,0.0
6,1778446435610,7.0,0.188302749,0.79500763,0.7288494225000001,0.0,0.0,0.0
7,1778446435620,8.0,0.2109709444999999,0.7903707849999999,0.78766632625,0.0,0.0,0.0
8,1778446435630,9.0,0.23363914,0.78573394,0.84648323,0.0,0.0,0.0
9,1778446435640,10.0,0.23363914,0.78573394,0.84648323,0.0,0.0,0.0
10,1778446435650,11.0,0.23363914,0.78573394,0.84648323,0.0,0.0,0.0
11,1778446435660,12.0,0.23363914,0.78573394,0.84648323,0.0,0.0,0.0
12,1778446435670,13.0,0.23363914,0.78573394,0.84648323,0.0,0.0,0.0
13,1778446435680,14.0,0.23363914,0.78573394,0.84648323,0.0,0.0,0.0
14,1778446435690,15.0,0.23363914,0.78573394,0.84648323,0.0,0.0,0.0
15,1778446435700,16.0,0.23363914,0.78573394,0.84648323,0.0,0.0,0.0
16,1778446435710,17.0,0.23363914,0.78573394,0.84648323,0.0,0.0,0.0
17,1778446435720,18.0,0.23363914,0.78573394,0.84648323,0.0,0.0,0.0
18,1778446435730,19.0,0.23363914,0.78573394,0.84648323,0.0,0.0,0.0
19,1778446435740,20.0,0.23363914,0.78573394,0.84648323,0.0,0.0,0.0
20,1778446435750,21.0,0.1670081516666667,0.7668756466666666,0.4761111433333334,0.0,0.0,0.0
21,1778446435760,22.0,0.033746175,0.72915906,-0.26463303,0.0,0.0,0.0
22,1778446435770,23.0,0.033746175,0.7291590600000001,-0.26463303,0.0,0.0,0.0
23,1778446435780,24.0,0.033746175,0.7291590600000001,-0.26463303,0.0,0.0,0.0
24,1778446435790,25.0,0.033746175,0.7291590600000001,-0.26463303,0.0,0.0,0.0
25,1778446435800,26.0,0.033746175,0.72915906,-0.26463303,0.0,0.0,0.0
26,1778446435810,27.0,0.033746175,0.7291590600000001,-0.26463303,0.0,0.0,0.0
27,1778446435820,28.0,0.033746175,0.72915906,-0.26463303,0.0,0.0,0.0
28,1778446435830,29.0,0.033746175,0.7291590600000001,-0.26463303,0.0,0.0,0.0
29,1778446435840,30.0,0.033746175,0.7291590600000001,-0.26463303,0.0,0.0,0.0
30,1778446435850,31.0,0.033746175,0.72915906,-0.26463303,0.0,0.0,0.0
31,1778446435860,32.0,0.033746175,0.7291590600000001,-0.26463303,0.0,0.0,0.0
32,1778446435870,33.0,0.17563837875,0.765546615,0.6267316425,0.0,0.0,0.0
33,1778446435880,34.0,0.22293578,0.7776758,0.9238532,0.0,0.0,0.0
34,1778446435890,35.0,0.22293578,0.7776758,0.9238532,0.0,0.0,0.0
35,1778446435900,36.0,0.22293578,0.7776758,0.9238532,0.0,0.0,0.0
36,1778446435910,37.0,0.22293578,0.7776758,0.9238532,0.0,0.0,0.0
37,1778446435920,38.0,0.22293578,0.7776758,0.9238532,0.0,0.0,0.0
38,1778446435930,39.0,0.22293578,0.7776758,0.9238532,0.0,0.0,0.0
39,1778446435940,40.0,0.22293578,0.7776758,0.9238532,0.0,0.0,0.0
40,1778446435950,41.0,0.22293578,0.7776758,0.9238532,0.0,0.0,0.0
41,1778446435960,42.0,0.22293578,0.7776758,0.9238532,0.0,0.0,0.0
42,1778446435970,43.0,0.22293578,0.7776758,0.9238532,0.0,0.0,0.0
43,1778446435980,44.0,0.22293578,0.7776758,0.9238532,0.0,0.0,0.0
44,1778446435990,45.0,0.22293578,0.7776758,0.9238532,0.0,0.0,0.0
45,1778446436000,46.0,0.22293578,0.7776758,0.9238532,0.0,0.0,0.0
46,1778446436010,47.0,0.22293578,0.7776758,0.9238532,0.0,0.0,0.0
47,1778446436020,48.0,0.22293578,0.7776758,0.9238532,0.0,0.0,0.0
48,1778446436030,49.0,0.22293578,0.7776758,0.9238532,0.0,0.0,0.0
49,1778446436040,50.0,0.22293578,0.7776758,0.9238532,0.0,0.0,0.0
50,1778446436050,51.0,0.15974006,0.7743119000000002,1.0041744,0.0,0.0,0.0
51,1778446436060,52.0,0.0518909273333333,0.7773700333333333,0.9534098,0.0,0.0,0.0
52,1778446436070,53.0,-0.002033639,0.7788991,0.9280275,0.0,0.0,0.0
53,1778446436080,54.0,-0.002033639,0.7788991,0.9280275,0.0,0.0,0.0
54,1778446436090,55.0,-0.002033639,0.7788991,0.9280275,0.0,0.0,0.0
55,1778446436100,56.0,-0.002033639,0.7788991,0.9280275,0.0,0.0,0.0
56,1778446436110,57.0,-0.002033639,0.7788991,0.9280275,0.0,0.0,0.0
57,1778446436120,58.0,-0.002033639,0.7788991,0.9280275,0.0,0.0,0.0
58,1778446436130,59.0,-0.002033639,0.7788991,0.9280275,0.0,0.0,0.0
59,1778446436140,60.0,-0.002033639,0.7788991,0.9280275,0.0,0.0,0.0
60,1778446436150,61.0,-0.002033639,0.7788991,0.9280275,0.0,0.0,0.0
61,1778446436160,62.0,-0.002033639,0.7788991,0.9280275,0.0,0.0,0.0
62,1778446436170,63.0,-0.002033639,0.7788991,0.9280275,0.0,0.0,0.0
63,1778446436180,64.0,-0.0393425093333333,0.7841998133333332,0.8147757166666666,0.0,0.0,0.0
64,1778446436190,65.0,-0.11396025,0.79480124,0.58827215,0.0,0.0,0.0
65,1778446436200,66.0,-0.11396025,0.79480124,0.58827215,0.0,0.0,0.0
66,1778446436210,67.0,-0.11396025,0.79480124,0.58827215,0.0,0.0,0.0
67,1778446436220,68.0,-0.11396025,0.79480124,0.58827215,0.0,0.0,0.0
68,1778446436230,69.0,-0.11396025,0.79480124,0.58827215,0.0,0.0,0.0
69,1778446436240,70.0,-0.11396025,0.79480124,0.58827215,0.0,0.0,0.0
70,1778446436250,71.0,-0.11396025,0.79480124,0.58827215,0.0,0.0,0.0
71,1778446436260,72.0,-0.11396025,0.79480124,0.58827215,0.0,0.0,0.0
72,1778446436270,73.0,-0.11396025,0.79480124,0.58827215,0.0,0.0,0.0
73,1778446436280,74.0,-0.11396025,0.79480124,0.58827215,0.0,0.0,0.0
74,1778446436290,75.0,-0.11396025,0.79480124,0.58827215,0.0,0.0,0.0
75,1778446436300,76.0,-0.11396025,0.79480124,0.58827215,0.0,0.0,0.0
76,1778446436310,77.0,-0.11396025,0.79480124,0.58827215,0.0,0.0,0.0
77,1778446436320,78.0,-0.11396025,0.79480124,0.58827215,0.0,0.0,0.0
78,1778446436330,79.0,-0.11396025,0.79480124,0.58827215,0.0,0.0,0.0
79,1778446436340,80.0,-0.11396025,0.79480124,0.58827215,0.0,0.0,0.0
80,1778446436350,81.0,-0.11396025,0.79480124,0.58827215,0.0,0.0,0.0
81,1778446436360,82.0,-0.11396025,0.79480124,0.58827215,0.0,0.0,0.0
82,1778446436370,83.0,-0.002033639,0.7589144,0.02151376,0.0,0.0,0.0
83,1778446436380,84.0,-0.002033639,0.7589144,0.02151376,0.0,0.0,0.0
84,1778446436390,85.0,-0.002033639,0.7589144,0.02151376,0.0,0.0,0.0
85,1778446436400,86.0,-0.002033639,0.7589144,0.02151376,0.0,0.0,0.0
86,1778446436410,87.0,-0.002033639,0.7589144,0.02151376,0.0,0.0,0.0
87,1778446436420,88.0,-0.002033639,0.7589144,0.02151376,0.0,0.0,0.0
88,1778446436430,89.0,-0.002033639,0.7589144,0.02151376,0.0,0.0,0.0
89,1778446436440,90.0,-0.002033639,0.7589144,0.02151376,0.0,0.0,0.0
90,1778446436450,91.0,-0.002033639,0.7589144,0.02151376,0.0,0.0,0.0
91,1778446436460,92.0,-0.002033639,0.7589144,0.02151376,0.0,0.0,0.0
92,1778446436470,93.0,-0.002033639,0.7589144,0.02151376,0.0,0.0,0.0
93,1778446436480,94.0,0.04178899,0.7437309,-0.0853211,0.0,0.0,0.0
94,1778446436490,95.0,0.04178899,0.7437309,-0.0853211,0.0,0.0,0.0
95,1778446436500,96.0,0.04178899,0.7437309,-0.0853211,0.0,0.0,0.0
96,1778446436510,97.0,0.04178899,0.7437309,-0.0853211,0.0,0.0,0.0
97,1778446436520,98.0,0.04178899,0.7437309,-0.0853211,0.0,0.0,0.0
98,1778446436530,99.0,0.04178899,0.7437309,-0.0853211,0.0,0.0,0.0
99,1778446436540,100.0,0.04178899,0.7437309,-0.0853211,0.0,0.0,0.0
100,1778446436550,101.0,0.04178899,0.7437309,-0.0853211,0.0,0.0,0.0
101,1778446436560,102.0,0.04178899,0.7437309,-0.0853211,0.0,0.0,0.0
102,1778446436570,103.0,0.04178899,0.7437309,-0.0853211,0.0,0.0,0.0
103,1778446436580,104.0,0.0301681959999999,0.7122324,-0.26146787,0.0,0.0,0.0
104,1778446436590,105.0,0.017935779,0.6583027,-0.0046941894,0.0,0.0,0.0
105,1778446436600,106.0,0.0272171259999999,0.7256880999999998,0.9096789,0.0,0.0,0.0
106,1778446436610,107.0,0.027217126,0.7256881,0.9096789,0.0,0.0,0.0
107,1778446436620,108.0,0.027217126,0.7256881,0.9096789,0.0,0.0,0.0
108,1778446436630,109.0,0.0272171259999999,0.7256880999999998,0.9096789,0.0,0.0,0.0
109,1778446436640,110.0,0.0272171259999999,0.7256880999999998,0.9096789,0.0,0.0,0.0
110,1778446436650,111.0,0.039653414,0.7386340666666666,0.955316,0.0,0.0,0.0
111,1778446436660,112.0,0.06452599,0.764526,1.0465902,0.0,0.0,0.0
112,1778446436670,113.0,0.06452599,0.764526,1.0465902,0.0,0.0,0.0
113,1778446436680,114.0,0.06452599,0.764526,1.0465902,0.0,0.0,0.0
114,1778446436690,115.0,0.06452599,0.764526,1.0465902,0.0,0.0,0.0
115,1778446436700,116.0,0.06452599,0.764526,1.0465902,0.0,0.0,0.0
116,1778446436710,117.0,0.0987104999999999,0.8099235333333334,1.1278644333333334,0.0,0.0,0.0
117,1778446436720,118.0,0.16707952,0.9007185999999999,1.2904129,0.0,0.0,0.0
118,1778446436730,119.0,0.16707952,0.9007185999999999,1.2904129,0.0,0.0,0.0
119,1778446436740,120.0,0.16707952,0.9007185999999999,1.2904129,0.0,0.0,0.0
120,1778446436750,121.0,0.16707952,0.9007186,1.2904129,0.0,0.0,0.0
121,1778446436760,122.0,0.16707952,0.9007185999999999,1.2904129,0.0,0.0,0.0
122,1778446436770,123.0,0.16707952,0.9007186,1.2904129,0.0,0.0,0.0
123,1778446436780,124.0,0.2106371133333333,0.9085270266666666,1.3894954333333331,0.0,0.0,0.0
124,1778446436790,125.0,0.2324159099999999,0.91243124,1.4390367,0.0,0.0,0.0
125,1778446436800,126.0,0.225993885,0.96625382,1.5064220499999998,0.0,0.0,0.0
126,1778446436810,127.0,0.2084785941666666,0.9919775666666666,1.501495941666667,0.0,0.0,0.0
127,1778446436820,128.0,0.1909633033333333,1.0177013133333332,1.4965698333333333,0.0,0.0,0.0
128,1778446436830,129.0,0.1734480125,1.04342506,1.491643725,0.0,0.0,0.0
129,1778446436840,130.0,0.1559327216666666,1.0691488066666668,1.486717616666667,0.0,0.0,0.0
130,1778446436850,131.0,0.1384174308333333,1.0948725533333334,1.4817915083333335,0.0,0.0,0.0
131,1778446436860,132.0,0.12090214,1.1205963,1.4768654,0.0,0.0,0.0
132,1778446436870,133.0,0.12090214,1.1205963,1.4768654,0.0,0.0,0.0
133,1778446436880,134.0,0.12090214,1.1205963,1.4768654,0.0,0.0,0.0
134,1778446436890,135.0,0.12090214,1.1205963,1.4768654,0.0,0.0,0.0
135,1778446436900,136.0,0.12090214,1.1205963,1.4768654,0.0,0.0,0.0
136,1778446436910,137.0,0.12090214,1.1205963,1.4768654,0.0,0.0,0.0
137,1778446436920,138.0,0.12090214,1.1205963,1.4768654,0.0,0.0,0.0
138,1778446436930,139.0,0.12090214,1.1205963,1.4768654,0.0,0.0,0.0
139,1778446436940,140.0,0.12090214,1.1205963,1.4768654,0.0,0.0,0.0
140,1778446436950,141.0,0.04301223,1.1825688,1.4761467999999998,0.0,0.0,0.0
141,1778446436960,142.0,0.04301223,1.1825688,1.4761468,0.0,0.0,0.0
142,1778446436970,143.0,0.04301223,1.1825688,1.4761467999999998,0.0,0.0,0.0
143,1778446436980,144.0,0.1523598433333333,1.2348318,1.795545266666667,0.0,0.0,0.0
144,1778446436990,145.0,0.2070336499999999,1.2609633,1.9552445,0.0,0.0,0.0
145,1778446437000,146.0,0.2070336499999999,1.2609633,1.9552445,0.0,0.0,0.0
146,1778446437010,147.0,0.2202191766666666,1.2576299666666666,2.0201783,0.0,0.0,0.0
147,1778446437020,148.0,0.24659023,1.2509633,2.1500459,0.0,0.0,0.0
148,1778446437030,149.0,0.24659023,1.2509633,2.1500459,0.0,0.0,0.0
149,1778446437040,150.0,0.24659023,1.2509633,2.1500459,0.0,0.0,0.0
150,1778446437050,151.0,0.24659023,1.2509633,2.1500459,0.0,0.0,0.0
151,1778446437060,152.0,0.24659023,1.2509633,2.1500459,0.0,0.0,0.0
152,1778446437070,153.0,0.24659023,1.2509633,2.1500459,0.0,0.0,0.0
153,1778446437080,154.0,0.16279817,1.2782823666666667,2.2730530333333334,0.0,0.0,0.0
154,1778446437090,155.0,0.12090214,1.2919419,2.3345566,0.0,0.0,0.0
155,1778446437100,156.0,0.12090214,1.2919419,2.3345566,0.0,0.0,0.0
156,1778446437110,157.0,0.12090214,1.2919419,2.3345566,0.0,0.0,0.0
157,1778446437120,158.0,0.12090214,1.2919419,2.3345566,0.0,0.0,0.0
158,1778446437130,159.0,0.12090214,1.2919419,2.3345566,0.0,0.0,0.0
159,1778446437140,160.0,0.12090214,1.2919419,2.3345566,0.0,0.0,0.0
160,1778446437150,161.0,0.0823343522333333,1.314301733333333,2.3382262666666667,0.0,0.0,0.0
161,1778446437160,162.0,0.0051987767,1.3590214,2.3455656,0.0,0.0,0.0
162,1778446437170,163.0,0.0051987767,1.3590214000000005,2.3455656,0.0,0.0,0.0
163,1778446437180,164.0,0.0051987767,1.3590214000000005,2.3455656,0.0,0.0,0.0
164,1778446437190,165.0,0.0051987767,1.3590214,2.3455656,0.0,0.0,0.0
165,1778446437200,166.0,0.0051987767,1.3590214000000005,2.3455656,0.0,0.0,0.0
166,1778446437210,167.0,0.0051987767,1.3590214,2.3455656,0.0,0.0,0.0
167,1778446437220,168.0,0.0051987767,1.3590214000000005,2.3455656,0.0,0.0,0.0
168,1778446437230,169.0,0.0051987767,1.3590214000000005,2.3455656,0.0,0.0,0.0
169,1778446437240,170.0,0.0051987767,1.3590214000000005,2.3455656,0.0,0.0,0.0
170,1778446437250,171.0,0.0051987767,1.3590214000000005,2.3455656,0.0,0.0,0.0
171,1778446437260,172.0,0.0051987767,1.3590214000000005,2.3455656,0.0,0.0,0.0
172,1778446437270,173.0,-0.0469928621999999,1.3729511,2.3494392666666664,0.0,0.0,0.0
173,1778446437280,174.0,-0.1945616666666666,1.4147757666666667,2.3560652999999996,0.0,0.0,0.0
174,1778446437290,175.0,-0.3146483175,1.51174305,2.296563425,0.0,0.0,0.0
175,1778446437300,176.0,-0.32588685,1.5347552999999998,2.277477,0.0,0.0,0.0
176,1778446437310,177.0,-0.32588685,1.5347553,2.277477,0.0,0.0,0.0
177,1778446437320,178.0,-0.32588685,1.5347552999999998,2.277477,0.0,0.0,0.0
178,1778446437330,179.0,-0.32588685,1.5347553,2.277477,0.0,0.0,0.0
179,1778446437340,180.0,-0.3555861333333333,1.5683639000000005,2.1029612333333336,0.0,0.0,0.0
180,1778446437350,181.0,-0.4149847,1.6355811000000002,1.7539296999999998,0.0,0.0,0.0
181,1778446437360,182.0,-0.4149847,1.6355811,1.7539297,0.0,0.0,0.0
182,1778446437370,183.0,-0.4149847,1.6355811000000002,1.7539296999999998,0.0,0.0,0.0
183,1778446437380,184.0,-0.4149847,1.6355811000000002,1.7539296999999998,0.0,0.0,0.0
184,1778446437390,185.0,-0.4149847,1.6355811,1.7539297,0.0,0.0,0.0
185,1778446437400,186.0,-0.4149847,1.6355811000000002,1.7539296999999998,0.0,0.0,0.0
186,1778446437410,187.0,-0.4149847,1.6355811,1.7539297,0.0,0.0,0.0
187,1778446437420,188.0,-0.4149847,1.6355811000000002,1.7539296999999998,0.0,0.0,0.0
188,1778446437430,189.0,-0.4149847,1.6355811000000002,1.7539296999999998,0.0,0.0,0.0
189,1778446437440,190.0,-0.4149847,1.6355811,1.7539297,0.0,0.0,0.0
190,1778446437450,191.0,-0.4149847,1.6355811000000002,1.7539296999999998,0.0,0.0,0.0
191,1778446437460,192.0,-0.4149847,1.6355811000000002,1.7539296999999998,0.0,0.0,0.0
192,1778446437470,193.0,-0.4149847,1.6355811,1.7539297,0.0,0.0,0.0
193,1778446437480,194.0,-0.4149847,1.6355811000000002,1.7539296999999998,0.0,0.0,0.0
194,1778446437490,195.0,-0.4149847,1.6355811,1.7539297,0.0,0.0,0.0
195,1778446437500,196.0,-0.4219877666666667,1.6793425666666668,1.6475077,0.0,0.0,0.0
196,1778446437510,197.0,-0.4254893,1.7012233,1.5942967,0.0,0.0,0.0
197,1778446437520,198.0,-0.4254893,1.7012233,1.5942967,0.0,0.0,0.0
198,1778446437530,199.0,-0.4254893,1.7012233,1.5942967,0.0,0.0,0.0
199,1778446437540,200.0,-0.4254893,1.7012233,1.5942967,0.0,0.0,0.0
200,1778446437550,201.0,-0.4254893,1.7012233,1.5942967,0.0,0.0,0.0
201,1778446437560,202.0,-0.3970081666666666,1.8069623,1.499903233333333,0.0,0.0,0.0
202,1778446437570,203.0,-0.3827676,1.8598318,1.4527065,0.0,0.0,0.0
203,1778446437580,204.0,-0.3827676,1.8598318,1.4527065,0.0,0.0,0.0
204,1778446437590,205.0,-0.3827676,1.8598318,1.4527065,0.0,0.0,0.0
205,1778446437600,206.0,-0.3827676,1.8598318,1.4527065,0.0,0.0,0.0
206,1778446437610,207.0,-0.3827676,1.8598318,1.4527065,0.0,0.0,0.0
207,1778446437620,208.0,-0.3827676,1.8598318,1.4527065,0.0,0.0,0.0
208,1778446437630,209.0,-0.3827676,1.8598318,1.4527065,0.0,0.0,0.0
209,1778446437640,210.0,-0.3827676,1.8598318,1.4527065,0.0,0.0,0.0
210,1778446437650,211.0,-0.3827676,1.8598318,1.4527065,0.0,0.0,0.0
211,1778446437660,212.0,-0.3827676,1.8598318,1.4527065,0.0,0.0,0.0
212,1778446437670,213.0,-0.3827676,1.8598318,1.4527065,0.0,0.0,0.0
213,1778446437680,214.0,-0.3827676,1.8598318,1.4527065,0.0,0.0,0.0
214,1778446437690,215.0,-0.3827676,1.8598318,1.4527065,0.0,0.0,0.0
215,1778446437700,216.0,-0.3827676,1.8598318,1.4527065,0.0,0.0,0.0
216,1778446437710,217.0,-0.3827676,1.8598318,1.4527065,0.0,0.0,0.0
217,1778446437720,218.0,-0.3827676,1.8598318,1.4527065,0.0,0.0,0.0
218,1778446437730,219.0,-0.3827676,1.8598318,1.4527065,0.0,0.0,0.0
219,1778446437740,220.0,-0.3827676,1.8598318,1.4527065,0.0,0.0,0.0
220,1778446437750,221.0,-0.3827676,1.8598318,1.4527065,0.0,0.0,0.0
221,1778446437760,222.0,-0.3827676,1.8598318,1.4527065,0.0,0.0,0.0
222,1778446437770,223.0,-0.3827676,1.8598318,1.4527065,0.0,0.0,0.0
223,1778446437780,224.0,-0.3827676,1.8598318,1.4527065,0.0,0.0,0.0
224,1778446437790,225.0,-0.3827676,1.8598318,1.4527065,0.0,0.0,0.0
225,1778446437800,226.0,-0.4715902333333333,1.8593578,1.4476759,0.0,0.0,0.0
226,1778446437810,227.0,-0.6492355,1.8584098,1.4376147,0.0,0.0,0.0
227,1778446437820,228.0,-0.6492355,1.8584098,1.4376147,0.0,0.0,0.0
228,1778446437830,229.0,-0.6492355,1.8584098,1.4376147,0.0,0.0,0.0
229,1778446437840,230.0,-0.6492355,1.8584098,1.4376147,0.0,0.0,0.0
230,1778446437850,231.0,-0.6492355,1.8584098,1.4376147,0.0,0.0,0.0
231,1778446437860,232.0,-0.6492355,1.8584098,1.4376147,0.0,0.0,0.0
232,1778446437870,233.0,-0.71930175,1.7971458,1.4107696333333333,0.0,0.0,0.0
233,1778446437880,234.0,-0.85943425,1.6746178,1.3570795,0.0,0.0,0.0
234,1778446437890,235.0,-0.85943425,1.6746178,1.3570795,0.0,0.0,0.0
235,1778446437900,236.0,-0.85943425,1.6746178,1.3570795,0.0,0.0,0.0
236,1778446437910,237.0,-1.1061163,1.4747248,1.1908257,0.0,0.0,0.0
237,1778446437920,238.0,-1.1061163,1.4747248,1.1908257,0.0,0.0,0.0
238,1778446437930,239.0,-1.1061163,1.4747248,1.1908257,0.0,0.0,0.0
239,1778446437940,240.0,-1.6347554000000002,1.033945,0.7691132,0.0,0.0,0.0
240,1778446437950,241.0,-1.77642965,0.909862405,0.596097125,0.0,0.0,0.0
241,1778446437960,242.0,-1.9232415,0.72497707,0.4527523,0.0,0.0,0.0
242,1778446437970,243.0,-2.0228286,0.5814526,0.3670795,0.0,0.0,0.0
243,1778446437980,244.0,-2.0228286,0.5814526,0.3670795,0.0,0.0,0.0
244,1778446437990,245.0,-2.0228286,0.5814526,0.3670795,0.0,0.0,0.0
245,1778446438000,246.0,-2.0228286,0.5814526,0.3670795,0.0,0.0,0.0
246,1778446438010,247.0,-2.0228286,0.5814526,0.3670795,0.0,0.0,0.0
247,1778446438020,248.0,-2.0228286,0.5814526,0.3670795,0.0,0.0,0.0
248,1778446438030,249.0,-2.0228286,0.5814526,0.3670795,0.0,0.0,0.0
249,1778446438040,250.0,-2.0228286,0.5814526,0.3670795,0.0,0.0,0.0
250,1778446438050,251.0,-2.0228286,0.5814526,0.3670795,0.0,0.0,0.0
251,1778446438060,252.0,-2.0228286,0.5814526,0.3670795,0.0,0.0,0.0
252,1778446438070,253.0,-2.0228286,0.5814526,0.3670795,0.0,0.0,0.0
253,1778446438080,254.0,-2.0228286,0.5814526,0.3670795,0.0,0.0,0.0
254,1778446438090,255.0,-2.0228286,0.5814526,0.3670795,0.0,0.0,0.0
255,1778446438100,256.0,-2.0599336666666663,0.4035372066666666,0.237038729,0.0,0.0,0.0
256,1778446438110,257.0,-2.1341438,0.04770642,-0.023042813,0.0,0.0,0.0
257,1778446438120,258.0,-2.1341438,0.04770642,-0.023042813,0.0,0.0,0.0
258,1778446438130,259.0,-2.1341438,0.04770642,-0.023042813,0.0,0.0,0.0
259,1778446438140,260.0,-2.1341438,0.04770642,-0.023042813,0.0,0.0,0.0
260,1778446438150,261.0,-2.1341438,0.04770642,-0.023042813,0.0,0.0,0.0
261,1778446438160,262.0,-2.1341438,0.04770642,-0.023042813,0.0,0.0,0.0
262,1778446438170,263.0,-2.065576033333333,-0.07699797,-0.0962640186666666,0.0,0.0,0.0
263,1778446438180,264.0,-1.9284405,-0.32640675,-0.24270643,0.0,0.0,0.0
264,1778446438190,265.0,-1.9284405,-0.32640675,-0.24270643,0.0,0.0,0.0
265,1778446438200,266.0,-1.9284405,-0.32640675,-0.24270643,0.0,0.0,0.0
266,1778446438210,267.0,-1.9284405,-0.32640675,-0.24270643,0.0,0.0,0.0
267,1778446438220,268.0,-1.7005390500000002,-0.5075993625,-0.3794036575,0.0,0.0,0.0
268,1778446438230,269.0,-1.6245719,-0.5679969,-0.4249694,0.0,0.0,0.0
269,1778446438240,270.0,-0.7180428,-0.6956116,-0.92365444,0.0,0.0,0.0
270,1778446438250,271.0,-0.7180428,-0.6956116,-0.92365444,0.0,0.0,0.0
271,1778446438260,272.0,-0.4129765666666666,-0.636896,-1.03979108,0.0,0.0,0.0
272,1778446438270,273.0,-0.26044345,-0.6075382,-1.0978594,0.0,0.0,0.0
273,1778446438280,274.0,-0.21073396,-0.5724719666666668,-1.1183843333333332,0.0,0.0,0.0
274,1778446438290,275.0,-0.11131498,-0.5023395,-1.1594342,0.0,0.0,0.0
275,1778446438300,276.0,-0.11131498,-0.5023395,-1.1594342,0.0,0.0,0.0
276,1778446438310,277.0,-0.11131498,-0.5023395,-1.1594342,0.0,0.0,0.0
277,1778446438320,278.0,-0.11131498,-0.5023395,-1.1594342,0.0,0.0,0.0
278,1778446438330,279.0,-0.11131498,-0.5023395,-1.1594342,0.0,0.0,0.0
279,1778446438340,280.0,-0.11131498,-0.5023395,-1.1594342,0.0,0.0,0.0
280,1778446438350,281.0,-0.11131498,-0.5023395,-1.1594342,0.0,0.0,0.0
281,1778446438360,282.0,-0.11131498,-0.5023395,-1.1594342,0.0,0.0,0.0
282,1778446438370,283.0,-0.0003058104,-0.3944954,-1.1989756,0.0,0.0,0.0
283,1778446438380,284.0,-0.0003058104,-0.3944954,-1.1989756,0.0,0.0,0.0
284,1778446438390,285.0,-0.0003058104,-0.3944954,-1.1989756,0.0,0.0,0.0
285,1778446438400,286.0,-0.0003058104,-0.3944954,-1.1989756,0.0,0.0,0.0
286,1778446438410,287.0,-0.0003058104,-0.3944954,-1.1989756,0.0,0.0,0.0
287,1778446438420,288.0,-0.0003058104,-0.3944954,-1.1989756,0.0,0.0,0.0
288,1778446438430,289.0,-0.0003058104,-0.3944954,-1.1989756,0.0,0.0,0.0
289,1778446438440,290.0,0.0097056579,-0.53119268,-1.175890675,0.0,0.0,0.0
290,1778446438450,291.0,0.013042814,-0.57675844,-1.1681957,0.0,0.0,0.0
291,1778446438460,292.0,0.0154166675,-0.5791322875,-1.1423585,0.0,0.0,0.0
292,1778446438470,293.0,0.016207952,-0.57992357,-1.1337461,0.0,0.0,0.0
293,1778446438480,294.0,0.0003720696666666,-0.6035372133333333,-1.017568756666667,0.0,0.0,0.0
294,1778446438490,295.0,-0.0629510712499999,-0.62691132,-0.4063149925,0.0,0.0,0.0
295,1778446438500,296.0,-0.07350153,-0.61896026,-0.2800153,0.0,0.0,0.0
296,1778446438510,297.0,-0.07350153,-0.61896026,-0.2800153,0.0,0.0,0.0
297,1778446438520,298.0,-0.07350153,-0.61896026,-0.2800153,0.0,0.0,0.0
298,1778446438530,299.0,-0.07350153,-0.61896026,-0.2800153,0.0,0.0,0.0
299,1778446438540,300.0,-0.07350153,-0.61896026,-0.2800153,0.0,0.0,0.0
300,1778446438550,301.0,-0.07350153,-0.61896026,-0.2800153,0.0,0.0,0.0
301,1778446438560,302.0,-0.07350153,-0.61896026,-0.2800153,0.0,0.0,0.0
302,1778446438570,303.0,-0.07350153,-0.61896026,-0.2800153,0.0,0.0,0.0
303,1778446438580,304.0,-0.07350153,-0.61896026,-0.2800153,0.0,0.0,0.0
304,1778446438590,305.0,-0.07350153,-0.61896026,-0.2800153,0.0,0.0,0.0
305,1778446438600,306.0,-0.07350153,-0.61896026,-0.2800153,0.0,0.0,0.0
306,1778446438610,307.0,-0.07350153,-0.61896026,-0.2800153,0.0,0.0,0.0
307,1778446438620,308.0,-0.07350153,-0.61896026,-0.2800153,0.0,0.0,0.0
308,1778446438630,309.0,-0.07350153,-0.61896026,-0.2800153,0.0,0.0,0.0
309,1778446438640,310.0,-0.07350153,-0.61896026,-0.2800153,0.0,0.0,0.0
310,1778446438650,311.0,0.0791016825,-0.8778249650000001,-0.023134558,0.0,0.0,0.0
311,1778446438660,312.0,0.20509173,-1.0712539,0.25362387,0.0,0.0,0.0
312,1778446438670,313.0,0.20509173,-1.0712539,0.25362387,0.0,0.0,0.0
313,1778446438680,314.0,0.20509173,-1.0712539,0.25362387,0.0,0.0,0.0
314,1778446438690,315.0,0.20509173,-1.0712539,0.25362387,0.0,0.0,0.0
315,1778446438700,316.0,0.20509173,-1.0712539,0.25362387,0.0,0.0,0.0
316,1778446438710,317.0,0.20509173,-1.0712539,0.25362387,0.0,0.0,0.0
317,1778446438720,318.0,0.20509173,-1.0712539,0.25362387,0.0,0.0,0.0
318,1778446438730,319.0,0.20509173,-1.0712539,0.25362387,0.0,0.0,0.0
319,1778446438740,320.0,0.20509173,-1.0712539,0.25362387,0.0,0.0,0.0
320,1778446438750,321.0,0.20509173,-1.0712539,0.25362387,0.0,0.0,0.0
321,1778446438760,322.0,0.20509173,-1.0712539,0.25362387,0.0,0.0,0.0
322,1778446438770,323.0,0.20509173,-1.0712539,0.25362387,0.0,0.0,0.0
323,1778446438780,324.0,0.20509173,-1.0712539,0.25362387,0.0,0.0,0.0
324,1778446438790,325.0,0.33475536,-1.0782874,0.26288992,0.0,0.0,0.0
325,1778446438800,326.0,0.33475536,-1.0782874,0.26288992,0.0,0.0,0.0
326,1778446438810,327.0,0.33475536,-1.0782874,0.26288992,0.0,0.0,0.0
327,1778446438820,328.0,0.33475536,-1.0782874,0.26288992,0.0,0.0,0.0
328,1778446438830,329.0,0.33475536,-1.0782874,0.26288992,0.0,0.0,0.0
329,1778446438840,330.0,0.33475536,-1.0782874,0.26288992,0.0,0.0,0.0
330,1778446438850,331.0,0.4591895866666666,-1.1009174,0.2579969533333333,0.0,0.0,0.0
331,1778446438860,332.0,0.5214067,-1.1122324,0.25555047,0.0,0.0,0.0
332,1778446438870,333.0,0.5214067,-1.1122324,0.25555047,0.0,0.0,0.0
333,1778446438880,334.0,0.5214067,-1.1122324,0.25555047,0.0,0.0,0.0
334,1778446438890,335.0,0.5214067,-1.1122324,0.25555047,0.0,0.0,0.0
335,1778446438900,336.0,0.5214067,-1.1122324,0.25555047,0.0,0.0,0.0
336,1778446438910,337.0,0.5214067,-1.1122324,0.25555047,0.0,0.0,0.0
337,1778446438920,338.0,0.70958716,-1.1164067,0.21120796,0.0,0.0,0.0
338,1778446438930,339.0,0.70958716,-1.1164067,0.21120796,0.0,0.0,0.0
339,1778446438940,340.0,0.7772018533333332,-1.1274872333333332,0.1872884866666666,0.0,0.0,0.0
340,1778446438950,341.0,0.91243124,-1.1496483,0.13944954,0.0,0.0,0.0
341,1778446438960,342.0,0.91243124,-1.1496483,0.13944954,0.0,0.0,0.0
342,1778446438970,343.0,0.91243124,-1.1496483,0.13944954,0.0,0.0,0.0
343,1778446438980,344.0,0.91243124,-1.1496483,0.13944954,0.0,0.0,0.0
344,1778446438990,345.0,0.91243124,-1.1496483,0.13944954,0.0,0.0,0.0
345,1778446439000,346.0,0.91243124,-1.1496483,0.13944954,0.0,0.0,0.0
346,1778446439010,347.0,0.91243124,-1.1496483,0.13944954,0.0,0.0,0.0
347,1778446439020,348.0,0.91243124,-1.1496483,0.13944954,0.0,0.0,0.0
348,1778446439030,349.0,0.91243124,-1.1496483,0.13944954,0.0,0.0,0.0
349,1778446439040,350.0,0.91243124,-1.1496483,0.13944954,0.0,0.0,0.0
350,1778446439050,351.0,0.91243124,-1.1496483,0.13944954,0.0,0.0,0.0
351,1778446439060,352.0,0.91243124,-1.1496483,0.13944954,0.0,0.0,0.0
352,1778446439070,353.0,1.0808308133333333,-1.1743781666666666,0.0920795133333333,0.0,0.0,0.0
353,1778446439080,354.0,1.1650306,-1.1867431,0.0683945,0.0,0.0,0.0
354,1778446439090,355.0,1.1650306,-1.1867431,0.0683945,0.0,0.0,0.0
355,1778446439100,356.0,1.1650306,-1.1867431,0.0683945,0.0,0.0,0.0
356,1778446439110,357.0,1.1650306,-1.1867431,0.0683945,0.0,0.0,0.0
357,1778446439120,358.0,1.1650306,-1.1867431,0.0683945,0.0,0.0,0.0
358,1778446439130,359.0,1.2902446666666665,-1.2323802,0.0432161090666666,0.0,0.0,0.0
359,1778446439140,360.0,1.5406728,-1.3236544,-0.0071406728,0.0,0.0,0.0
360,1778446439150,361.0,1.5406728,-1.3236544,-0.0071406728,0.0,0.0,0.0
361,1778446439160,362.0,1.5406728,-1.3236544,-0.0071406728,0.0,0.0,0.0
362,1778446439170,363.0,1.5406728,-1.3236544,-0.0071406728,0.0,0.0,0.0
363,1778446439180,364.0,1.5406728,-1.3236544,-0.0071406728,0.0,0.0,0.0
364,1778446439190,365.0,1.7705351,-1.3585168,-0.12262997,0.0,0.0,0.0
365,1778446439200,366.0,1.7705351,-1.3585168,-0.12262997,0.0,0.0,0.0
366,1778446439210,367.0,1.7705351,-1.3585168,-0.12262997,0.0,0.0,0.0
367,1778446439220,368.0,1.7705351,-1.3585168,-0.12262997,0.0,0.0,0.0
368,1778446439230,369.0,1.7705351,-1.3585168,-0.12262997,0.0,0.0,0.0
369,1778446439240,370.0,1.7705351,-1.3585168,-0.12262997,0.0,0.0,0.0
370,1778446439250,371.0,1.828129433333333,-1.3715290666666666,-0.1371049933333333,0.0,0.0,0.0
371,1778446439260,372.0,1.9433181,-1.3975536,-0.16605504,0.0,0.0,0.0
372,1778446439270,373.0,1.9433181,-1.3975536,-0.16605504,0.0,0.0,0.0
373,1778446439280,374.0,1.9433181,-1.3975536,-0.16605504,0.0,0.0,0.0
374,1778446439290,375.0,1.9433181,-1.3975536,-0.16605504,0.0,0.0,0.0
375,1778446439300,376.0,1.9433181,-1.3975536,-0.16605504,0.0,0.0,0.0
376,1778446439310,377.0,1.9433181,-1.3975536,-0.16605504,0.0,0.0,0.0
377,1778446439320,378.0,1.9433181,-1.3975536,-0.16605504,0.0,0.0,0.0
378,1778446439330,379.0,1.9433181,-1.3975536,-0.16605504,0.0,0.0,0.0
379,1778446439340,380.0,1.9433181,-1.3975536,-0.16605504,0.0,0.0,0.0
380,1778446439350,381.0,2.0729816,-1.5008104,-0.2182416,0.0,0.0,0.0
381,1778446439360,382.0,2.0729816,-1.5008104,-0.2182416,0.0,0.0,0.0
382,1778446439370,383.0,2.0729816,-1.5008104,-0.2182416,0.0,0.0,0.0
383,1778446439380,384.0,2.0729816,-1.5008104,-0.2182416,0.0,0.0,0.0
384,1778446439390,385.0,2.0729816,-1.5008104,-0.2182416,0.0,0.0,0.0
385,1778446439400,386.0,2.1157033,-1.6672783000000002,-0.31620798,0.0,0.0,0.0
386,1778446439410,387.0,2.1157033,-1.6672783,-0.31620798,0.0,0.0,0.0
387,1778446439420,388.0,2.1157033,-1.6672783000000002,-0.31620798,0.0,0.0,0.0
388,1778446439430,389.0,2.1451273333333334,-1.6803618666666666,-0.3654077666666667,0.0,0.0,0.0
389,1778446439440,390.0,2.2039754,-1.706529,-0.46380734,0.0,0.0,0.0
390,1778446439450,391.0,2.2039754,-1.706529,-0.46380734,0.0,0.0,0.0
391,1778446439460,392.0,2.2039754,-1.706529,-0.46380734,0.0,0.0,0.0
392,1778446439470,393.0,2.2039754,-1.706529,-0.46380734,0.0,0.0,0.0
393,1778446439480,394.0,2.2039754,-1.706529,-0.46380734,0.0,0.0,0.0
394,1778446439490,395.0,2.2039754,-1.706529,-0.46380734,0.0,0.0,0.0
395,1778446439500,396.0,2.2039754,-1.706529,-0.46380734,0.0,0.0,0.0
396,1778446439510,397.0,2.2039754,-1.706529,-0.46380734,0.0,0.0,0.0
397,1778446439520,398.0,2.279408666666667,-1.7394851666666666,-0.5821916433333333,0.0,0.0,0.0
398,1778446439530,399.0,2.4302752,-1.8053975,-0.81896025,0.0,0.0,0.0
399,1778446439540,400.0,2.4302752,-1.8053975,-0.81896025,0.0,0.0,0.0
400,1778446439550,401.0,2.4302752,-1.8053975,-0.81896025,0.0,0.0,0.0
401,1778446439560,402.0,2.4302752,-1.8053975,-0.81896025,0.0,0.0,0.0
402,1778446439570,403.0,2.4302752,-1.8053975,-0.81896025,0.0,0.0,0.0
403,1778446439580,404.0,2.4302752,-1.8053975,-0.81896025,0.0,0.0,0.0
404,1778446439590,405.0,2.4302752,-1.8053975,-0.81896025,0.0,0.0,0.0
405,1778446439600,406.0,2.4302752,-1.8053975,-0.81896025,0.0,0.0,0.0
406,1778446439610,407.0,2.4302752,-1.8053975,-0.81896025,0.0,0.0,0.0
407,1778446439620,408.0,2.4302752,-1.8053975,-0.81896025,0.0,0.0,0.0
408,1778446439630,409.0,2.4302752,-1.8053975,-0.81896025,0.0,0.0,0.0
409,1778446439640,410.0,2.4302752,-1.8053975,-0.81896025,0.0,0.0,0.0
410,1778446439650,411.0,2.4829817,-1.9899083,-1.161575,0.0,0.0,0.0
411,1778446439660,412.0,2.4829817,-1.9899083,-1.161575,0.0,0.0,0.0
412,1778446439670,413.0,2.4829817,-1.9899083,-1.161575,0.0,0.0,0.0
413,1778446439680,414.0,2.4829817,-1.9899083,-1.161575,0.0,0.0,0.0
414,1778446439690,415.0,2.5582108,-2.1493425,-1.2919419,0.0,0.0,0.0
415,1778446439700,416.0,2.5582108,-2.1493425,-1.2919419,0.0,0.0,0.0
416,1778446439710,417.0,2.5575278666666663,-2.174383333333333,-1.3260907,0.0,0.0,0.0
417,1778446439720,418.0,2.556162,-2.224465,-1.3943883,0.0,0.0,0.0
418,1778446439730,419.0,2.556162,-2.224465,-1.3943883,0.0,0.0,0.0
419,1778446439740,420.0,2.6009173,-2.251575,-1.3896024,0.0,0.0,0.0
420,1778446439750,421.0,2.6009173,-2.251575,-1.3896024,0.0,0.0,0.0
421,1778446439760,422.0,2.6009173,-2.251575,-1.3896024,0.0,0.0,0.0
422,1778446439770,423.0,2.6009173,-2.251575,-1.3896024,0.0,0.0,0.0
423,1778446439780,424.0,2.6009173,-2.251575,-1.3896024,0.0,0.0,0.0
424,1778446439790,425.0,2.6009173,-2.251575,-1.3896024,0.0,0.0,0.0
425,1778446439800,426.0,2.6009173,-2.251575,-1.3896024,0.0,0.0,0.0
426,1778446439810,427.0,2.6513762,-2.2298622,-1.0854281,0.0,0.0,0.0
427,1778446439820,428.0,2.6513762,-2.2298622,-1.0854281,0.0,0.0,0.0
428,1778446439830,429.0,2.6513762,-2.2298622,-1.0854281,0.0,0.0,0.0
429,1778446439840,430.0,2.6513762,-2.2298622,-1.0854281,0.0,0.0,0.0
430,1778446439850,431.0,2.6513762,-2.2298622,-1.0854281,0.0,0.0,0.0
431,1778446439860,432.0,2.6513762,-2.2298622,-1.0854281,0.0,0.0,0.0
432,1778446439870,433.0,2.6513762,-2.2298622,-1.0854281,0.0,0.0,0.0
433,1778446439880,434.0,2.6513762,-2.2298622,-1.0854281,0.0,0.0,0.0
434,1778446439890,435.0,2.6525993,-2.221101,-0.8753364,0.0,0.0,0.0
435,1778446439900,436.0,2.6525993,-2.221101,-0.8753364,0.0,0.0,0.0
436,1778446439910,437.0,2.6525993,-2.221101,-0.8753364,0.0,0.0,0.0
437,1778446439920,438.0,2.6525993,-2.221101,-0.8753364,0.0,0.0,0.0
438,1778446439930,439.0,2.6525993,-2.221101,-0.8753364,0.0,0.0,0.0
439,1778446439940,440.0,2.6525993,-2.221101,-0.8753364,0.0,0.0,0.0
440,1778446439950,441.0,2.6525993,-2.221101,-0.8753364,0.0,0.0,0.0
441,1778446439960,442.0,2.588990733333333,-2.2175994333333335,-0.6961977666666667,0.0,0.0,0.0
442,1778446439970,443.0,2.4617736,-2.2105963,-0.3379205,0.0,0.0,0.0
443,1778446439980,444.0,2.4617736,-2.2105963,-0.3379205,0.0,0.0,0.0
444,1778446439990,445.0,2.4617736,-2.2105963,-0.3379205,0.0,0.0,0.0
445,1778446440000,446.0,2.4617736,-2.2105963,-0.3379205,0.0,0.0,0.0
446,1778446440010,447.0,2.4358816666666665,-2.2227982,-0.2402650433333333,0.0,0.0,0.0
447,1778446440020,448.0,2.3840978,-2.247202,-0.04495413,0.0,0.0,0.0
448,1778446440030,449.0,2.3840978,-2.247202,-0.04495413,0.0,0.0,0.0
449,1778446440040,450.0,2.3840978,-2.247202,-0.04495413,0.0,0.0,0.0
450,1778446440050,451.0,2.2869828,-2.2460397333333333,0.1521202899999999,0.0,0.0,0.0
451,1778446440060,452.0,2.2384253,-2.2454586,0.2506575,0.0,0.0,0.0
452,1778446440070,453.0,2.2384253,-2.2454586,0.2506575,0.0,0.0,0.0
453,1778446440080,454.0,2.2384253,-2.2454586,0.2506575,0.0,0.0,0.0
454,1778446440090,455.0,2.2384253,-2.2454586,0.2506575,0.0,0.0,0.0
455,1778446440100,456.0,2.1203860999999997,-2.239805025,0.455554305,0.0,0.0,0.0
456,1778446440110,457.0,2.0810397,-2.2379205,0.52385324,0.0,0.0,0.0
457,1778446440120,458.0,2.0810397,-2.2379205,0.52385324,0.0,0.0,0.0
458,1778446440130,459.0,2.0810397,-2.2379205,0.52385324,0.0,0.0,0.0
459,1778446440140,460.0,2.0810397,-2.2379205,0.52385324,0.0,0.0,0.0
460,1778446440150,461.0,2.0810397,-2.2379205,0.52385324,0.0,0.0,0.0
461,1778446440160,462.0,2.0810397,-2.2379205,0.52385324,0.0,0.0,0.0
462,1778446440170,463.0,2.0810397,-2.2379205,0.52385324,0.0,0.0,0.0
463,1778446440180,464.0,2.0810397,-2.2379205,0.52385324,0.0,0.0,0.0
464,1778446440190,465.0,2.0810397,-2.2379205,0.52385324,0.0,0.0,0.0
465,1778446440200,466.0,2.0810397,-2.2379205,0.52385324,0.0,0.0,0.0
466,1778446440210,467.0,2.0810397,-2.2379205,0.52385324,0.0,0.0,0.0
467,1778446440220,468.0,1.95634935,-2.1632301000000003,0.88134176,0.0,0.0,0.0
468,1778446440230,469.0,1.9147859,-2.1383333,1.0005046,0.0,0.0,0.0
469,1778446440240,470.0,1.7486238,-2.1678898,1.3651376,0.0,0.0,0.0
470,1778446440250,471.0,1.7486238,-2.1678898,1.3651376,0.0,0.0,0.0
471,1778446440260,472.0,1.7486238,-2.1678898,1.3651376,0.0,0.0,0.0
472,1778446440270,473.0,1.7486238,-2.1678898,1.3651376,0.0,0.0,0.0
473,1778446440280,474.0,1.7486238,-2.1678898,1.3651376,0.0,0.0,0.0
474,1778446440290,475.0,1.7486238,-2.1678898,1.3651376,0.0,0.0,0.0
475,1778446440300,476.0,1.7486238,-2.1678898,1.3651376,0.0,0.0,0.0
476,1778446440310,477.0,1.7486238,-2.1678898,1.3651376,0.0,0.0,0.0
477,1778446440320,478.0,1.7486238,-2.1678898,1.3651376,0.0,0.0,0.0
478,1778446440330,479.0,1.7486238,-2.1678898,1.3651376,0.0,0.0,0.0
479,1778446440340,480.0,1.7037053666666668,-2.1869164,1.4185881666666669,0.0,0.0,0.0
480,1778446440350,481.0,1.1459786,-2.3020337,1.8365902,0.0,0.0,0.0
481,1778446440360,482.0,1.1459786,-2.3020337,1.8365902,0.0,0.0,0.0
482,1778446440370,483.0,1.1459786,-2.3020337,1.8365902,0.0,0.0,0.0
483,1778446440380,484.0,1.1459786,-2.3020337,1.8365902,0.0,0.0,0.0
484,1778446440390,485.0,1.1459786,-2.3020337,1.8365902,0.0,0.0,0.0
485,1778446440400,486.0,0.91753817,-2.2681959,1.8735015,0.0,0.0,0.0
486,1778446440410,487.0,0.91753817,-2.2681959,1.8735015,0.0,0.0,0.0
487,1778446440420,488.0,0.91753817,-2.2681959,1.8735015,0.0,0.0,0.0
488,1778446440430,489.0,0.91753817,-2.2681959,1.8735015,0.0,0.0,0.0
489,1778446440440,490.0,0.91753817,-2.2681959,1.8735015,0.0,0.0,0.0
490,1778446440450,491.0,0.91753817,-2.2681959,1.8735015,0.0,0.0,0.0
491,1778446440460,492.0,0.91753817,-2.2681959,1.8735015,0.0,0.0,0.0
492,1778446440470,493.0,0.91753817,-2.2681959,1.8735015,0.0,0.0,0.0
493,1778446440480,494.0,0.91753817,-2.2681959,1.8735015,0.0,0.0,0.0
494,1778446440490,495.0,0.91753817,-2.2681959,1.8735015,0.0,0.0,0.0
495,1778446440500,496.0,0.91753817,-2.2681959,1.8735015,0.0,0.0,0.0
496,1778446440510,497.0,0.6017686133333333,-2.2922528333333334,1.8765545666666668,0.0,0.0,0.0
497,1778446440520,498.0,0.51926607,-2.3201835,1.8761468,0.0,0.0,0.0
498,1778446440530,499.0,0.51926607,-2.3201835,1.8761468,0.0,0.0,0.0
499,1778446440540,500.0,0.28637105,-2.3772681,1.8722731999999995,0.0,0.0,0.0
500,1778446440550,501.0,0.16992354,-2.4058104,1.8703364,0.0,0.0,0.0
501,1778446440560,502.0,-0.16728338,-2.3996228,1.8665954,0.0,0.0,0.0
502,1778446440570,503.0,-0.64391436,-2.3972973,1.854105575,0.0,0.0,0.0
503,1778446440580,504.0,-0.7465902,-2.3975534,1.8505658,0.0,0.0,0.0
504,1778446440590,505.0,-0.7465902,-2.3975534,1.8505658,0.0,0.0,0.0
505,1778446440600,506.0,-0.7465902,-2.3975534,1.8505658,0.0,0.0,0.0
506,1778446440610,507.0,-0.7465902,-2.3975534,1.8505658,0.0,0.0,0.0
507,1778446440620,508.0,-0.7465902,-2.3975534,1.8505658,0.0,0.0,0.0
508,1778446440630,509.0,-1.2203822,-2.202951,1.6529051,0.0,0.0,0.0
509,1778446440640,510.0,-1.2203822,-2.202951,1.6529051,0.0,0.0,0.0
510,1778446440650,511.0,-1.2203822,-2.202951,1.6529051,0.0,0.0,0.0
511,1778446440660,512.0,-1.2203822,-2.202951,1.6529051,0.0,0.0,0.0
512,1778446440670,513.0,-1.0567278,-2.42191125,1.09704125,0.0,0.0,0.0
513,1778446440680,514.0,-0.9749006,-2.531391375,0.819109325,0.0,0.0,0.0
514,1778446440690,515.0,-0.8930734,-2.6408715,0.5411774,0.0,0.0,0.0
515,1778446440700,516.0,-0.8930734,-2.6408715,0.5411774,0.0,0.0,0.0
516,1778446440710,517.0,-0.8930734,-2.6408715,0.5411774,0.0,0.0,0.0
517,1778446440720,518.0,-0.8930734,-2.6408715,0.5411774,0.0,0.0,0.0
518,1778446440730,519.0,-0.8930734,-2.6408715,0.5411774,0.0,0.0,0.0
519,1778446440740,520.0,-0.8930734,-2.6408715,0.5411774,0.0,0.0,0.0
520,1778446440750,521.0,-0.8930734,-2.6408715,0.5411774,0.0,0.0,0.0
521,1778446440760,522.0,-0.8930734,-2.6408715,0.5411774,0.0,0.0,0.0
522,1778446440770,523.0,-1.2013303,-2.8838992,0.56850153,0.0,0.0,0.0
523,1778446440780,524.0,-1.2013303,-2.8838992,0.56850153,0.0,0.0,0.0
524,1778446440790,525.0,-1.2013303,-2.8838992,0.56850153,0.0,0.0,0.0
525,1778446440800,526.0,-1.2013303,-2.8838992,0.56850153,0.0,0.0,0.0
526,1778446440810,527.0,-1.2013303,-2.8838992,0.56850153,0.0,0.0,0.0
527,1778446440820,528.0,-1.2013303,-2.8838992,0.56850153,0.0,0.0,0.0
528,1778446440830,529.0,-1.2013303,-2.8838992,0.56850153,0.0,0.0,0.0
529,1778446440840,530.0,-1.2013303,-2.8838992,0.56850153,0.0,0.0,0.0
530,1778446440850,531.0,-1.6310855,-3.029358,0.7983639,0.0,0.0,0.0
531,1778446440860,532.0,-2.0334326249999997,-2.86541675,0.9557798,0.0,0.0,0.0
532,1778446440870,533.0,-3.2404740000000003,-2.373593,1.4280275,0.0,0.0,0.0
533,1778446440880,534.0,-3.2404740000000003,-2.373593,1.4280275,0.0,0.0,0.0
534,1778446440890,535.0,-3.2404740000000003,-2.373593,1.4280275,0.0,0.0,0.0
535,1778446440900,536.0,-3.240474,-2.373593,1.4280275,0.0,0.0,0.0
536,1778446440910,537.0,-3.2404740000000003,-2.373593,1.4280275,0.0,0.0,0.0
537,1778446440920,538.0,-3.240474,-2.373593,1.4280275,0.0,0.0,0.0
538,1778446440930,539.0,-2.9456370666666665,-2.5463759333333336,1.3313914,0.0,0.0,0.0
539,1778446440940,540.0,-2.3559632,-2.8919418,1.1381192,0.0,0.0,0.0
540,1778446440950,541.0,-2.3559632,-2.8919418,1.1381192,0.0,0.0,0.0
541,1778446440960,542.0,-2.3559632,-2.8919418,1.1381192,0.0,0.0,0.0
542,1778446440970,543.0,-2.3559632,-2.8919418,1.1381192,0.0,0.0,0.0
543,1778446440980,544.0,-2.5163455666666668,-2.8258205333333333,1.1954790666666666,0.0,0.0,0.0
544,1778446440990,545.0,-2.8371103000000004,-2.693578,1.3101988,0.0,0.0,0.0
545,1778446441000,546.0,-2.8371103,-2.693578,1.3101988,0.0,0.0,0.0
546,1778446441010,547.0,-2.8371103000000004,-2.693578,1.3101988,0.0,0.0,0.0
547,1778446441020,548.0,-2.8371103000000004,-2.693578,1.3101988,0.0,0.0,0.0
548,1778446441030,549.0,-2.8371103,-2.693578,1.3101988,0.0,0.0,0.0
549,1778446441040,550.0,-2.8371103000000004,-2.693578,1.3101988,0.0,0.0,0.0
550,1778446441050,551.0,-2.8371103,-2.693578,1.3101988,0.0,0.0,0.0
551,1778446441060,552.0,-2.8371103000000004,-2.693578,1.3101988,0.0,0.0,0.0
552,1778446441070,553.0,-2.8371103000000004,-2.693578,1.3101988,0.0,0.0,0.0
553,1778446441080,554.0,-2.8371103000000004,-2.693578,1.3101988,0.0,0.0,0.0
554,1778446441090,555.0,-2.8371103000000004,-2.693578,1.3101988,0.0,0.0,0.0
555,1778446441100,556.0,-2.8371103,-2.693578,1.3101988,0.0,0.0,0.0
556,1778446441110,557.0,-2.8371103000000004,-2.693578,1.3101988,0.0,0.0,0.0
557,1778446441120,558.0,-3.324724975,-2.22072265,1.474419025,0.0,0.0,0.0
558,1778446441130,559.0,-3.3295974666666672,-1.8298013333333336,1.4656830333333335,0.0,0.0,0.0
559,1778446441140,560.0,-3.2507646,-1.7131499,1.433945,0.0,0.0,0.0
560,1778446441150,561.0,-3.2507646,-1.7131499,1.4339450000000002,0.0,0.0,0.0
561,1778446441160,562.0,-3.1582722666666663,-1.6870184,1.3734302000000005,0.0,0.0,0.0
562,1778446441170,563.0,-2.8012233,-1.5833792,1.1955199,0.0,0.0,0.0
563,1778446441180,564.0,-2.629159,-1.5320030000000002,1.1386392,0.0,0.0,0.0
564,1778446441190,565.0,-2.629159,-1.5320030000000002,1.1386392,0.0,0.0,0.0
565,1778446441200,566.0,-2.629159,-1.532003,1.1386392,0.0,0.0,0.0
566,1778446441210,567.0,-2.629159,-1.5320030000000002,1.1386392,0.0,0.0,0.0
567,1778446441220,568.0,-2.629159,-1.532003,1.1386392,0.0,0.0,0.0
568,1778446441230,569.0,-2.629159,-1.5320030000000002,1.1386392,0.0,0.0,0.0
569,1778446441240,570.0,-2.629159,-1.532003,1.1386392,0.0,0.0,0.0
570,1778446441250,571.0,-2.629159,-1.5320030000000002,1.1386392,0.0,0.0,0.0
571,1778446441260,572.0,-2.629159,-1.5320030000000002,1.1386392,0.0,0.0,0.0
572,1778446441270,573.0,-2.246360875,-1.497828725,1.07035935,0.0,0.0,0.0
573,1778446441280,574.0,-2.1187615,-1.4864372999999995,1.0475994,0.0,0.0,0.0
574,1778446441290,575.0,-2.1187615,-1.4864372999999995,1.0475994,0.0,0.0,0.0
575,1778446441300,576.0,-1.5617738,-1.4719725,0.90744644,0.0,0.0,0.0
576,1778446441310,577.0,-1.5617738,-1.4719725,0.90744644,0.0,0.0,0.0
577,1778446441320,578.0,-1.5617738,-1.4719725,0.90744644,0.0,0.0,0.0
578,1778446441330,579.0,-1.5670030666666666,-1.5131549666666666,0.90744644,0.0,0.0,0.0
579,1778446441340,580.0,-1.5696177,-1.5337462000000002,0.90744644,0.0,0.0,0.0
580,1778446441350,581.0,-2.120993925,-1.8406957,1.02609326,0.0,0.0,0.0
581,1778446441360,582.0,-2.304786,-1.9430122,1.0656422,0.0,0.0,0.0
582,1778446441370,583.0,-2.304786,-1.9430122,1.0656422,0.0,0.0,0.0
583,1778446441380,584.0,-2.304786,-1.9430122,1.0656422,0.0,0.0,0.0
584,1778446441390,585.0,-2.304786,-1.9430122,1.0656422,0.0,0.0,0.0
585,1778446441400,586.0,-2.304786,-1.9430122,1.0656422,0.0,0.0,0.0
586,1778446441410,587.0,-2.304786,-1.9430122,1.0656422,0.0,0.0,0.0
587,1778446441420,588.0,-2.304786,-1.9430122,1.0656422,0.0,0.0,0.0
588,1778446441430,589.0,-2.304786,-1.9430122,1.0656422,0.0,0.0,0.0
589,1778446441440,590.0,-2.304786,-1.9430122,1.0656422,0.0,0.0,0.0
590,1778446441450,591.0,-3.5019422,-1.6201835000000002,1.1105046,0.0,0.0,0.0
591,1778446441460,592.0,-3.5019422,-1.6201835000000002,1.1105046,0.0,0.0,0.0
592,1778446441470,593.0,-3.5019422,-1.6201835000000002,1.1105046,0.0,0.0,0.0
593,1778446441480,594.0,-3.5019422,-1.6201835000000002,1.1105046,0.0,0.0,0.0
594,1778446441490,595.0,-3.5019422,-1.6201835000000002,1.1105046,0.0,0.0,0.0
595,1778446441500,596.0,-3.5019422,-1.6201835,1.1105046,0.0,0.0,0.0
596,1778446441510,597.0,-5.183991,-1.046896,1.190107,0.0,0.0,0.0
597,1778446441520,598.0,-5.183991,-1.046896,1.190107,0.0,0.0,0.0
598,1778446441530,599.0,-5.183991,-1.046896,1.190107,0.0,0.0,0.0
599,1778446441540,600.0,-5.183991,-1.046896,1.190107,0.0,0.0,0.0
600,1778446441550,601.0,-5.183991,-1.046896,1.190107,0.0,0.0,0.0
601,1778446441560,602.0,-5.183991,-1.046896,1.190107,0.0,0.0,0.0
602,1778446441570,603.0,-5.183991,-1.046896,1.190107,0.0,0.0,0.0
603,1778446441580,604.0,-5.183991,-1.046896,1.190107,0.0,0.0,0.0
604,1778446441590,605.0,-5.183991,-1.046896,1.190107,0.0,0.0,0.0
605,1778446441600,606.0,-5.183991,-1.046896,1.190107,0.0,0.0,0.0
606,1778446441610,607.0,-5.183991,-1.046896,1.190107,0.0,0.0,0.0
607,1778446441620,608.0,-5.183991,-1.046896,1.190107,0.0,0.0,0.0
608,1778446441630,609.0,-5.183991,-1.046896,1.190107,0.0,0.0,0.0
609,1778446441640,610.0,-5.183991,-1.046896,1.190107,0.0,0.0,0.0
610,1778446441650,611.0,-5.183991,-1.046896,1.190107,0.0,0.0,0.0
611,1778446441660,612.0,-4.7853517666666665,-1.1586493000000002,1.162686,0.0,0.0,0.0
612,1778446441670,613.0,-3.9880733,-1.3821559,1.107844,0.0,0.0,0.0
613,1778446441680,614.0,-3.9880733,-1.3821559,1.107844,0.0,0.0,0.0
614,1778446441690,615.0,-3.9880733,-1.3821559,1.107844,0.0,0.0,0.0
615,1778446441700,616.0,-3.9880733,-1.3821559,1.107844,0.0,0.0,0.0
616,1778446441710,617.0,-4.15629585,-1.277469385,1.117171225,0.0,0.0,0.0
617,1778446441720,618.0,-4.6609635,-0.96340984,1.1451529,0.0,0.0,0.0
618,1778446441730,619.0,-4.6609635,-0.96340984,1.1451529,0.0,0.0,0.0
619,1778446441740,620.0,-4.683251833333333,-0.9358155266666666,1.1483486,0.0,0.0,0.0
620,1778446441750,621.0,-4.728985466666667,-0.9140621666666666,1.1573241333333335,0.0,0.0,0.0
621,1778446441760,622.0,-4.7312994,-0.9809327,1.1624924,0.0,0.0,0.0
622,1778446441770,623.0,-4.7312994,-0.9809327,1.1624924,0.0,0.0,0.0
623,1778446441780,624.0,-4.827935533333334,-1.0746533666666669,1.1888532,0.0,0.0,0.0
624,1778446441790,625.0,-4.8762536,-1.1215137,1.2020336,0.0,0.0,0.0
625,1778446441800,626.0,-4.8762536,-1.1215137,1.2020336,0.0,0.0,0.0
626,1778446441810,627.0,-4.8762536,-1.1215137,1.2020336,0.0,0.0,0.0
627,1778446441820,628.0,-4.8762536,-1.1215137,1.2020336,0.0,0.0,0.0
628,1778446441830,629.0,-4.8762536,-1.1215137,1.2020336,0.0,0.0,0.0
629,1778446441840,630.0,-4.8762536,-1.1215137,1.2020336,0.0,0.0,0.0
630,1778446441850,631.0,-4.8762536,-1.1215137,1.2020336,0.0,0.0,0.0
631,1778446441860,632.0,-4.8762536,-1.1215137,1.2020336,0.0,0.0,0.0
632,1778446441870,633.0,-4.8762536,-1.1215137,1.2020336,0.0,0.0,0.0
633,1778446441880,634.0,-4.9440724,-0.8816156666666667,0.86411316,0.0,0.0,0.0
634,1778446441890,635.0,-4.8820643,-0.6427064,0.46747708,0.0,0.0,0.0
635,1778446441900,636.0,-4.8820643,-0.6427064,0.4674770799999999,0.0,0.0,0.0
636,1778446441910,637.0,-4.8820643,-0.6427064,0.4674770799999999,0.0,0.0,0.0
637,1778446441920,638.0,-4.7058463,-0.4845005066666667,-0.0074057066666666,0.0,0.0,0.0
638,1778446441930,639.0,-4.6177373,-0.40539756,-0.2448471,0.0,0.0,0.0
639,1778446441940,640.0,-4.6177373,-0.40539756,-0.2448471,0.0,0.0,0.0
640,1778446441950,641.0,-4.6177373,-0.40539756,-0.2448471,0.0,0.0,0.0
641,1778446441960,642.0,-4.6177373,-0.40539756,-0.2448471,0.0,0.0,0.0
642,1778446441970,643.0,-4.6177373,-0.40539756,-0.2448471,0.0,0.0,0.0
643,1778446441980,644.0,-4.6177373,-0.40539756,-0.2448471,0.0,0.0,0.0
644,1778446441990,645.0,-4.4921511,-0.3038685,-0.6553873666666666,0.0,0.0,0.0
645,1778446442000,646.0,-4.429358,-0.25310397,-0.8606575,0.0,0.0,0.0
646,1778446442010,647.0,-4.429358,-0.25310397,-0.8606575,0.0,0.0,0.0
647,1778446442020,648.0,-4.429358,-0.25310397,-0.8606575,0.0,0.0,0.0
648,1778446442030,649.0,-4.429358,-0.25310397,-0.8606575,0.0,0.0,0.0
649,1778446442040,650.0,-4.429358,-0.25310397,-0.8606575,0.0,0.0,0.0
650,1778446442050,651.0,-4.429358,-0.25310397,-0.8606575,0.0,0.0,0.0
651,1778446442060,652.0,-4.429358,-0.25310397,-0.8606575,0.0,0.0,0.0
652,1778446442070,653.0,-4.429358,-0.25310397,-0.8606575,0.0,0.0,0.0
653,1778446442080,654.0,-4.429358,-0.25310397,-0.8606575,0.0,0.0,0.0
654,1778446442090,655.0,-4.5503516,-0.32487768,-0.8606575,0.0,0.0,0.0
655,1778446442100,656.0,-4.5503516,-0.32487768,-0.8606575,0.0,0.0,0.0
656,1778446442110,657.0,-4.6041132000000005,-0.3754994933333333,-0.7337767466666666,0.0,0.0,0.0
657,1778446442120,658.0,-4.630994,-0.4008104,-0.67033637,0.0,0.0,0.0
658,1778446442130,659.0,-4.630994,-0.4008103999999999,-0.6703363699999999,0.0,0.0,0.0
659,1778446442140,660.0,-4.630994,-0.4008103999999999,-0.6703363699999999,0.0,0.0,0.0
660,1778446442150,661.0,-4.630994,-0.4008103999999999,-0.6703363699999999,0.0,0.0,0.0
661,1778446442160,662.0,-4.630994,-0.4008103999999999,-0.6703363699999999,0.0,0.0,0.0
662,1778446442170,663.0,-4.668027599999999,-0.4019724866666667,-0.2866462733333333,0.0,0.0,0.0
663,1778446442180,664.0,-4.6865444,-0.40255353,-0.094801225,0.0,0.0,0.0
664,1778446442190,665.0,-4.6865444,-0.40255353,-0.094801225,0.0,0.0,0.0
665,1778446442200,666.0,-4.6865444,-0.40255353,-0.094801225,0.0,0.0,0.0
666,1778446442210,667.0,-4.6865444,-0.40255353,-0.094801225,0.0,0.0,0.0
667,1778446442220,668.0,-4.6724108,-0.4001732966666667,0.0188939866666666,0.0,0.0,0.0
668,1778446442230,669.0,-4.6441436,-0.39541283,0.24628441,0.0,0.0,0.0
669,1778446442240,670.0,-4.6441436,-0.39541283,0.24628441,0.0,0.0,0.0
670,1778446442250,671.0,-4.470372066666667,-0.5612334499999999,0.8350000033333332,0.0,0.0,0.0
671,1778446442260,672.0,-4.3834863,-0.64414376,1.1293578,0.0,0.0,0.0
672,1778446442270,673.0,-4.484536366666667,-0.62381754,1.4314984666666666,0.0,0.0,0.0
673,1778446442280,674.0,-4.5350614,-0.61365443,1.5825688,0.0,0.0,0.0
674,1778446442290,675.0,-4.5350614,-0.61365443,1.5825688,0.0,0.0,0.0
675,1778446442300,676.0,-4.5350614,-0.61365443,1.5825688,0.0,0.0,0.0
676,1778446442310,677.0,-4.496972733333333,-0.7053313033333333,1.6931345666666668,0.0,0.0,0.0
677,1778446442320,678.0,-4.4207954,-0.88868505,1.9142661,0.0,0.0,0.0
678,1778446442330,679.0,-4.4207954,-0.88868505,1.9142661,0.0,0.0,0.0
679,1778446442340,680.0,-4.4207954,-0.88868505,1.9142661,0.0,0.0,0.0
680,1778446442350,681.0,-4.4207954,-0.88868505,1.9142661,0.0,0.0,0.0
681,1778446442360,682.0,-4.4207954,-0.88868505,1.9142661,0.0,0.0,0.0
682,1778446442370,683.0,-4.4207954,-0.88868505,1.9142661,0.0,0.0,0.0
683,1778446442380,684.0,-4.4207954,-0.88868505,1.9142661,0.0,0.0,0.0
684,1778446442390,685.0,-4.4207954,-0.88868505,1.9142661,0.0,0.0,0.0
685,1778446442400,686.0,-4.4207954,-0.88868505,1.9142661,0.0,0.0,0.0
686,1778446442410,687.0,-4.4207954,-0.88868505,1.9142661,0.0,0.0,0.0
687,1778446442420,688.0,-4.4207954,-0.88868505,1.9142661,0.0,0.0,0.0
688,1778446442430,689.0,-4.4207954,-0.88868505,1.9142661,0.0,0.0,0.0
689,1778446442440,690.0,-4.4207954,-0.88868505,1.9142661,0.0,0.0,0.0
690,1778446442450,691.0,-4.4207954,-0.88868505,1.9142661,0.0,0.0,0.0
691,1778446442460,692.0,-4.028333,-1.1244648,2.3835933,0.0,0.0,0.0
692,1778446442470,693.0,-4.028333,-1.1244648,2.3835933,0.0,0.0,0.0
693,1778446442480,694.0,-4.028333,-1.1244648,2.3835933,0.0,0.0,0.0
694,1778446442490,695.0,-4.028333,-1.1244648,2.3835933,0.0,0.0,0.0
695,1778446442500,696.0,-4.028333,-1.1244648,2.3835933,0.0,0.0,0.0
696,1778446442510,697.0,-4.028333,-1.1244648,2.3835933,0.0,0.0,0.0
697,1778446442520,698.0,-4.028333,-1.1244648,2.3835933,0.0,0.0,0.0
698,1778446442530,699.0,-4.028333,-1.1244648,2.3835933,0.0,0.0,0.0
699,1778446442540,700.0,-4.028333,-1.1244648,2.3835933,0.0,0.0,0.0
700,1778446442550,701.0,-3.661299466666667,-1.0982975999999998,2.1897706333333335,0.0,0.0,0.0
701,1778446442560,702.0,-3.4777827,-1.085214,2.0928593,0.0,0.0,0.0
702,1778446442570,703.0,-3.4777827,-1.085214,2.0928593,0.0,0.0,0.0
703,1778446442580,704.0,-3.4777827,-1.085214,2.0928593,0.0,0.0,0.0
704,1778446442590,705.0,-3.4777827,-1.085214,2.0928593,0.0,0.0,0.0
705,1778446442600,706.0,-3.4777827,-1.085214,2.0928593,0.0,0.0,0.0
706,1778446442610,707.0,-3.4777827,-1.085214,2.0928593,0.0,0.0,0.0
707,1778446442620,708.0,-3.41478575,-1.0888379,1.8596789,0.0,0.0,0.0
708,1778446442630,709.0,-3.3517888,-1.0924618,1.6264985,0.0,0.0,0.0
709,1778446442640,710.0,-3.3517888,-1.0924618,1.6264985,0.0,0.0,0.0
710,1778446442650,711.0,-3.312507566666667,-1.1039449666666667,1.534893,0.0,0.0,0.0
711,1778446442660,712.0,-3.2339451,-1.1269113,1.351682,0.0,0.0,0.0
712,1778446442670,713.0,-3.2339451,-1.1269113,1.351682,0.0,0.0,0.0
713,1778446442680,714.0,-3.2347605666666666,-1.1493730666666666,1.351682,0.0,0.0,0.0
714,1778446442690,715.0,-3.2363915,-1.1942966,1.351682,0.0,0.0,0.0
715,1778446442700,716.0,-3.2363915,-1.1942966,1.351682,0.0,0.0,0.0
716,1778446442710,717.0,-3.2363915,-1.1942966,1.351682,0.0,0.0,0.0
717,1778446442720,718.0,-3.2363915,-1.1942966,1.351682,0.0,0.0,0.0
718,1778446442730,719.0,-3.2618756333333336,-1.2731956666666666,1.44947,0.0,0.0,0.0
719,1778446442740,720.0,-3.2746177,-1.3126452,1.4983639999999998,0.0,0.0,0.0
720,1778446442750,721.0,-3.1582416666666666,-1.6174974333333332,1.7186900333333333,0.0,0.0,0.0
721,1778446442760,722.0,-3.1006117,-1.7073394,1.7519877,0.0,0.0,0.0
722,1778446442770,723.0,-3.1006117,-1.7073394,1.7519877,0.0,0.0,0.0
723,1778446442780,724.0,-3.1006117,-1.7073394,1.7519877,0.0,0.0,0.0
724,1778446442790,725.0,-3.1006117,-1.7073394,1.7519877,0.0,0.0,0.0
725,1778446442800,726.0,-3.1006117,-1.7073394,1.7519877,0.0,0.0,0.0
726,1778446442810,727.0,-3.1006117,-1.7073394,1.7519877,0.0,0.0,0.0
727,1778446442820,728.0,-3.1006117,-1.7073394,1.7519877,0.0,0.0,0.0
728,1778446442830,729.0,-3.1006117,-1.7073394,1.7519877,0.0,0.0,0.0
729,1778446442840,730.0,-3.1006117,-1.7073394,1.7519877,0.0,0.0,0.0
730,1778446442850,731.0,-3.1006117,-1.7073394,1.7519877,0.0,0.0,0.0
731,1778446442860,732.0,-3.1006117,-1.7073394,1.7519877,0.0,0.0,0.0
732,1778446442870,733.0,-3.1006117,-1.7073394,1.7519877,0.0,0.0,0.0
733,1778446442880,734.0,-3.1006117,-1.7073393999999995,1.7519877,0.0,0.0,0.0
734,1778446442890,735.0,-3.1006117,-1.7073394,1.7519877,0.0,0.0,0.0
735,1778446442900,736.0,-3.1006117,-1.7073394,1.7519877,0.0,0.0,0.0
736,1778446442910,737.0,-3.1006117,-1.7073394,1.7519877,0.0,0.0,0.0
737,1778446442920,738.0,-3.1006117,-1.7073394,1.7519877,0.0,0.0,0.0
738,1778446442930,739.0,-3.1006117,-1.7073394,1.7519877,0.0,0.0,0.0
739,1778446442940,740.0,-3.1006117,-1.7073394,1.7519877,0.0,0.0,0.0
740,1778446442950,741.0,-3.1006117,-1.7073394,1.7519877,0.0,0.0,0.0
741,1778446442960,742.0,-3.1006117,-1.7073394,1.7519877,0.0,0.0,0.0
742,1778446442970,743.0,-3.1006117,-1.7073394,1.7519877,0.0,0.0,0.0
743,1778446442980,744.0,-3.1006117,-1.7073394,1.7519877,0.0,0.0,0.0
744,1778446442990,745.0,-3.1006117,-1.7073394,1.7519877,0.0,0.0,0.0
745,1778446443000,746.0,-3.1006117,-1.7073394,1.7519877,0.0,0.0,0.0
746,1778446443010,747.0,-3.1006117,-1.7073394,1.7519877,0.0,0.0,0.0
747,1778446443020,748.0,-3.1006117,-1.7073393999999995,1.7519877,0.0,0.0,0.0
748,1778446443030,749.0,-3.1006117,-1.7073394,1.7519877,0.0,0.0,0.0
749,1778446443040,750.0,-3.1006117,-1.7073393999999995,1.7519877,0.0,0.0,0.0
750,1778446443050,751.0,-3.1006117,-1.7073393999999995,1.7519877,0.0,0.0,0.0
751,1778446443060,752.0,-3.1006117,-1.7073393999999995,1.7519877,0.0,0.0,0.0
752,1778446443070,753.0,-2.941998033333333,-1.8034964,1.7235168333333333,0.0,0.0,0.0
753,1778446443080,754.0,-2.8626912,-1.8515749,1.7092814,0.0,0.0,0.0
754,1778446443090,755.0,-2.8626912,-1.8515749,1.7092814,0.0,0.0,0.0
755,1778446443100,756.0,-2.8626912,-1.8515749,1.7092814,0.0,0.0,0.0
756,1778446443110,757.0,-2.8626912,-1.8515749,1.7092814,0.0,0.0,0.0
757,1778446443120,758.0,-2.8626912,-1.8515749,1.7092814,0.0,0.0,0.0
758,1778446443130,759.0,-2.8626912,-1.8515749,1.7092814,0.0,0.0,0.0
759,1778446443140,760.0,-2.8626912,-1.8515749,1.7092814,0.0,0.0,0.0
760,1778446443150,761.0,-2.8626912,-1.8515749,1.7092814,0.0,0.0,0.0
761,1778446443160,762.0,-2.8626912,-1.8515749,1.7092814,0.0,0.0,0.0
762,1778446443170,763.0,-2.8626912,-1.8515749,1.7092814,0.0,0.0,0.0
763,1778446443180,764.0,-2.8626912,-1.8515749,1.7092814,0.0,0.0,0.0
764,1778446443190,765.0,-2.8626912,-1.8515749,1.7092814,0.0,0.0,0.0
765,1778446443200,766.0,-2.8626912,-1.8515749,1.7092814,0.0,0.0,0.0
766,1778446443210,767.0,-2.6386341333333334,-1.9364576333333332,1.6174669333333334,0.0,0.0,0.0
767,1778446443220,768.0,-2.1686087,-2.1268044,1.4185474,0.0,0.0,0.0
768,1778446443230,769.0,-2.1686087,-2.1268044,1.4185474000000002,0.0,0.0,0.0
769,1778446443240,770.0,-1.6623496,-2.4609888,1.3227676,0.0,0.0,0.0
770,1778446443250,771.0,-1.4949082,-2.495107,1.3136544,0.0,0.0,0.0
771,1778446443260,772.0,-1.4949082,-2.495107,1.3136544,0.0,0.0,0.0
772,1778446443270,773.0,-1.3770642000000002,-2.5314984,1.2479053,0.0,0.0,0.0
773,1778446443280,774.0,-1.3770642000000002,-2.5314984,1.2479053,0.0,0.0,0.0
774,1778446443290,775.0,-1.3770642,-2.5314984,1.2479053,0.0,0.0,0.0
775,1778446443300,776.0,-1.3770642000000002,-2.5314984,1.2479053,0.0,0.0,0.0
776,1778446443310,777.0,-1.3770642000000002,-2.5314984,1.2479053,0.0,0.0,0.0
777,1778446443320,778.0,-1.3770642000000002,-2.5314984,1.2479053,0.0,0.0,0.0
778,1778446443330,779.0,-1.3770642,-2.5314984,1.2479053,0.0,0.0,0.0
779,1778446443340,780.0,-1.3770642,-2.5314984,1.2479053,0.0,0.0,0.0
780,1778446443350,781.0,-1.3770642,-2.5314984,1.2479053,0.0,0.0,0.0
781,1778446443360,782.0,-1.3770642,-2.5314984,1.2479053,0.0,0.0,0.0
782,1778446443370,783.0,-1.3770642,-2.5314984,1.2479053,0.0,0.0,0.0
783,1778446443380,784.0,-1.3770642,-2.5314984,1.2479053,0.0,0.0,0.0
784,1778446443390,785.0,-1.3770642,-2.5314984,1.2479053,0.0,0.0,0.0
785,1778446443400,786.0,-1.3770642,-2.5314984,1.2479053,0.0,0.0,0.0
786,1778446443410,787.0,-1.3770642,-2.5314984,1.2479053,0.0,0.0,0.0
787,1778446443420,788.0,-1.3770642,-2.5314984,1.2479053,0.0,0.0,0.0
788,1778446443430,789.0,-1.3770642,-2.5314984,1.2479053,0.0,0.0,0.0
789,1778446443440,790.0,-1.3770642,-2.5314984,1.2479053,0.0,0.0,0.0
790,1778446443450,791.0,-1.3770642000000002,-2.5314984,1.2479053,0.0,0.0,0.0
791,1778446443460,792.0,-1.3770642000000002,-2.5314984,1.2479053,0.0,0.0,0.0
792,1778446443470,793.0,-1.3770642000000002,-2.5314984,1.2479053,0.0,0.0,0.0
793,1778446443480,794.0,-1.3770642000000002,-2.5314984,1.2479053,0.0,0.0,0.0
794,1778446443490,795.0,-1.3770642000000002,-2.5314984,1.2479053,0.0,0.0,0.0
795,1778446443500,796.0,-1.3770642000000002,-2.5314984,1.2479053,0.0,0.0,0.0
796,1778446443510,797.0,-1.3770642000000002,-2.5314984,1.2479053,0.0,0.0,0.0
797,1778446443520,798.0,-1.3638786666666665,-2.5835524999999997,1.15320598,0.0,0.0,0.0
798,1778446443530,799.0,-1.3375075999999997,-2.6876607,0.96380734,0.0,0.0,0.0
799,1778446443540,800.0,-1.3331345,-2.7126453,0.9235474,0.0,0.0,0.0
800,1778446443550,801.0,-1.3331345,-2.7126453,0.9235474,0.0,0.0,0.0
801,1778446443560,802.0,-1.3331345,-2.7126453,0.9235474,0.0,0.0,0.0
802,1778446443570,803.0,-1.3331345,-2.7126453,0.9235474,0.0,0.0,0.0
803,1778446443580,804.0,-1.3331345,-2.7126453,0.9235474,0.0,0.0,0.0
804,1778446443590,805.0,-1.3331345,-2.7126453,0.9235474,0.0,0.0,0.0
805,1778446443600,806.0,-1.3331345,-2.7126453,0.9235474,0.0,0.0,0.0
806,1778446443610,807.0,-1.2535524333333334,-2.783042833333333,0.81929664,0.0,0.0,0.0
807,1778446443620,808.0,-1.2137614,-2.8182416,0.76717126,0.0,0.0,0.0
808,1778446443630,809.0,-1.2137614,-2.8182416,0.76717126,0.0,0.0,0.0
809,1778446443640,810.0,-1.1749235,-2.8537157,0.7344495700000001,0.0,0.0,0.0
810,1778446443650,811.0,-1.1749235,-2.8537157,0.7344495700000001,0.0,0.0,0.0
811,1778446443660,812.0,-1.1749235,-2.8537157,0.7344495700000001,0.0,0.0,0.0
812,1778446443670,813.0,-1.1749235,-2.8537157,0.7344495700000001,0.0,0.0,0.0
813,1778446443680,814.0,-1.1749235,-2.8537157,0.7344495700000001,0.0,0.0,0.0
814,1778446443690,815.0,-1.1749235,-2.8537157,0.7344495700000001,0.0,0.0,0.0
815,1778446443700,816.0,-1.159159,-2.838904233333333,0.7140316133333333,0.0,0.0,0.0
816,1778446443710,817.0,-1.12763,-2.8092813,0.6731957,0.0,0.0,0.0
817,1778446443720,818.0,-1.12763,-2.8092813,0.6731957,0.0,0.0,0.0
818,1778446443730,819.0,-1.12763,-2.8092813,0.6731957,0.0,0.0,0.0
819,1778446443740,820.0,-1.12763,-2.8092813,0.6731957,0.0,0.0,0.0
820,1778446443750,821.0,-1.12763,-2.8092813,0.6731957,0.0,0.0,0.0
821,1778446443760,822.0,-1.12763,-2.8092813,0.6731957,0.0,0.0,0.0
822,1778446443770,823.0,-1.12763,-2.8092813,0.6731957,0.0,0.0,0.0
823,1778446443780,824.0,-1.12763,-2.8092813,0.6731957,0.0,0.0,0.0
824,1778446443790,825.0,-1.12763,-2.8092813,0.6731957,0.0,0.0,0.0
825,1778446443800,826.0,-1.0294648,-2.7277217,0.4925534999999999,0.0,0.0,0.0
826,1778446443810,827.0,-1.0294648,-2.7277217,0.4925534999999999,0.0,0.0,0.0
827,1778446443820,828.0,-1.0294648,-2.7277217,0.4925534999999999,0.0,0.0,0.0
828,1778446443830,829.0,-1.0294648,-2.7277217,0.4925534999999999,0.0,0.0,0.0
829,1778446443840,830.0,-1.0294648,-2.7277217,0.4925534999999999,0.0,0.0,0.0
830,1778446443850,831.0,-1.0294648,-2.7277217,0.4925535,0.0,0.0,0.0
831,1778446443860,832.0,-1.0294648,-2.7277217,0.4925534999999999,0.0,0.0,0.0
832,1778446443870,833.0,-1.0294648,-2.7277217,0.4925534999999999,0.0,0.0,0.0
833,1778446443880,834.0,-1.0294648,-2.7277217,0.4925534999999999,0.0,0.0,0.0
834,1778446443890,835.0,-1.0294648,-2.7277217,0.4925534999999999,0.0,0.0,0.0
835,1778446443900,836.0,-1.0294648,-2.7277217,0.4925534999999999,0.0,0.0,0.0
836,1778446443910,837.0,-1.0294648,-2.7277217,0.4925534999999999,0.0,0.0,0.0
837,1778446443920,838.0,-1.0294648,-2.7277217,0.4925535,0.0,0.0,0.0
838,1778446443930,839.0,-1.0294648,-2.7277217,0.4925534999999999,0.0,0.0,0.0
839,1778446443940,840.0,-1.0294648,-2.7277217,0.4925534999999999,0.0,0.0,0.0
840,1778446443950,841.0,-1.0294648,-2.7277217,0.4925534999999999,0.0,0.0,0.0
841,1778446443960,842.0,-1.0294648,-2.7277217,0.4925534999999999,0.0,0.0,0.0
842,1778446443970,843.0,-1.0294648,-2.7277217,0.4925535,0.0,0.0,0.0
843,1778446443980,844.0,-1.0294648,-2.7277217,0.4925534999999999,0.0,0.0,0.0
844,1778446443990,845.0,-1.0294648,-2.7277217,0.4925535,0.0,0.0,0.0
845,1778446444000,846.0,-1.0294648,-2.7277217,0.4925535,0.0,0.0,0.0
846,1778446444010,847.0,-1.0294648,-2.7277217,0.4925535,0.0,0.0,0.0
847,1778446444020,848.0,-1.0294648,-2.7277217,0.4925535,0.0,0.0,0.0
848,1778446444030,849.0,-1.0294648,-2.7277217,0.4925535,0.0,0.0,0.0
849,1778446444040,850.0,-1.0294648,-2.7277217,0.4925535,0.0,0.0,0.0
850,1778446444050,851.0,-1.0294648,-2.7277217,0.4925535,0.0,0.0,0.0
851,1778446444060,852.0,-1.0294648,-2.7277217,0.4925535,0.0,0.0,0.0
852,1778446444070,853.0,-1.0294648,-2.7277217,0.4925535,0.0,0.0,0.0
853,1778446444080,854.0,-1.0294648,-2.7277217,0.4925535,0.0,0.0,0.0
854,1778446444090,855.0,-1.0294648,-2.7277217,0.4925535,0.0,0.0,0.0
855,1778446444100,856.0,-1.0294648,-2.7277217,0.4925535,0.0,0.0,0.0
856,1778446444110,857.0,-1.0294648,-2.7277217,0.4925535,0.0,0.0,0.0
857,1778446444120,858.0,-1.0294648,-2.7277217,0.4925535,0.0,0.0,0.0
858,1778446444130,859.0,-1.0294648,-2.7277217,0.4925535,0.0,0.0,0.0
859,1778446444140,860.0,-1.0294648,-2.7277217,0.4925535,0.0,0.0,0.0
860,1778446444150,861.0,-1.0294648,-2.7277217,0.4925535,0.0,0.0,0.0
861,1778446444160,862.0,-1.0294648,-2.7277217,0.4925535,0.0,0.0,0.0
862,1778446444170,863.0,-1.0294648,-2.7277217,0.4925535,0.0,0.0,0.0
863,1778446444180,864.0,-1.0294648,-2.7277217,0.4925535,0.0,0.0,0.0
864,1778446444190,865.0,-0.95171764,-2.700066233333333,0.4903109,0.0,0.0,0.0
865,1778446444200,866.0,-0.91284406,-2.6862385,0.4891896,0.0,0.0,0.0
866,1778446444210,867.0,-0.8623190900000001,-2.6847094666666664,0.4904842,0.0,0.0,0.0
867,1778446444220,868.0,-0.76126915,-2.6816514,0.4930733999999999,0.0,0.0,0.0
868,1778446444230,869.0,-0.76126915,-2.6816514,0.4930734,0.0,0.0,0.0
869,1778446444240,870.0,-0.76126915,-2.6816514,0.4930734,0.0,0.0,0.0
870,1778446444250,871.0,-0.76126915,-2.6816514,0.4930734,0.0,0.0,0.0
871,1778446444260,872.0,-0.76126915,-2.6816514,0.4930734,0.0,0.0,0.0
872,1778446444270,873.0,-0.76126915,-2.6816514,0.4930734,0.0,0.0,0.0
873,1778446444280,874.0,-0.76126915,-2.6816514,0.4930734,0.0,0.0,0.0
874,1778446444290,875.0,-0.76126915,-2.6816514,0.4930734,0.0,0.0,0.0
875,1778446444300,876.0,-0.76126915,-2.6816514,0.4930734,0.0,0.0,0.0
876,1778446444310,877.0,-0.76126915,-2.6816514,0.4930734,0.0,0.0,0.0
877,1778446444320,878.0,-0.76126915,-2.6816514,0.4930734,0.0,0.0,0.0
878,1778446444330,879.0,-0.76126915,-2.6816514,0.4930734,0.0,0.0,0.0
879,1778446444340,880.0,-0.76126915,-2.6816514,0.4930734,0.0,0.0,0.0
880,1778446444350,881.0,-0.76126915,-2.6816514,0.4930734,0.0,0.0,0.0
881,1778446444360,882.0,-0.76126915,-2.6816514,0.4930734,0.0,0.0,0.0
882,1778446444370,883.0,-0.76126915,-2.6816514,0.4930733999999999,0.0,0.0,0.0
883,1778446444380,884.0,-0.76126915,-2.6816514,0.4930734,0.0,0.0,0.0
884,1778446444390,885.0,-0.76126915,-2.6816514,0.4930734,0.0,0.0,0.0
885,1778446444400,886.0,-0.76126915,-2.6816514,0.4930734,0.0,0.0,0.0
886,1778446444410,887.0,-0.76126915,-2.6816514,0.4930734,0.0,0.0,0.0
887,1778446444420,888.0,-0.76126915,-2.6816514,0.4930734,0.0,0.0,0.0
888,1778446444430,889.0,-0.76126915,-2.6816514,0.4930734,0.0,0.0,0.0
889,1778446444440,890.0,-0.76126915,-2.6816514,0.4930734,0.0,0.0,0.0
890,1778446444450,891.0,-0.76126915,-2.6816514,0.4930733999999999,0.0,0.0,0.0
891,1778446444460,892.0,-0.76126915,-2.6816514,0.4930734,0.0,0.0,0.0
892,1778446444470,893.0,-0.76126915,-2.6816514,0.4930733999999999,0.0,0.0,0.0
893,1778446444480,894.0,-0.76126915,-2.6816514,0.4930733999999999,0.0,0.0,0.0
894,1778446444490,895.0,-0.76126915,-2.6816514,0.4930734,0.0,0.0,0.0
895,1778446444500,896.0,-0.76126915,-2.6816514,0.4930733999999999,0.0,0.0,0.0
896,1778446444510,897.0,-0.76126915,-2.6816514,0.4930733999999999,0.0,0.0,0.0
897,1778446444520,898.0,-0.76126915,-2.6816514,0.4930734,0.0,0.0,0.0
898,1778446444530,899.0,-0.76126915,-2.6816514,0.4930733999999999,0.0,0.0,0.0
899,1778446444540,900.0,-0.76126915,-2.6816514,0.4930733999999999,0.0,0.0,0.0
900,1778446444550,901.0,-0.76126915,-2.6816514,0.4930733999999999,0.0,0.0,0.0
901,1778446444560,902.0,-0.76126915,-2.6816514,0.4930734,0.0,0.0,0.0
902,1778446444570,903.0,-0.76126915,-2.6816514,0.4930733999999999,0.0,0.0,0.0
903,1778446444580,904.0,-0.76126915,-2.6816514,0.4930733999999999,0.0,0.0,0.0
904,1778446444590,905.0,-0.44720182,-2.4863455,0.4622783,0.0,0.0,0.0
905,1778446444600,906.0,-0.44720182,-2.4863455,0.4622783,0.0,0.0,0.0
906,1778446444610,907.0,-0.42361366,-2.432176366666667,0.4076401666666667,0.0,0.0,0.0
907,1778446444620,908.0,-0.41181958,-2.4050918,0.3803211,0.0,0.0,0.0
908,1778446444630,909.0,-0.39785933,-2.3149848,0.29827216,0.0,0.0,0.0
909,1778446444640,910.0,-0.39785933,-2.3149848,0.29827216,0.0,0.0,0.0
910,1778446444650,911.0,-0.39785933,-2.3149848,0.29827216,0.0,0.0,0.0
911,1778446444660,912.0,-0.39785933,-2.3149848,0.29827216,0.0,0.0,0.0
912,1778446444670,913.0,-0.39785933,-2.3149848,0.29827216,0.0,0.0,0.0
913,1778446444680,914.0,-0.39785933,-2.3149848,0.29827216,0.0,0.0,0.0
914,1778446444690,915.0,-0.35249236,-2.2566822,0.22282875,0.0,0.0,0.0
915,1778446444700,916.0,-0.35249236,-2.2566822,0.22282875,0.0,0.0,0.0
916,1778446444710,917.0,-0.35249236,-2.2566822,0.22282875,0.0,0.0,0.0
917,1778446444720,918.0,-0.35249236,-2.2566822,0.22282875,0.0,0.0,0.0
918,1778446444730,919.0,-0.019571865,-2.2164066,0.083792046,0.0,0.0,0.0
919,1778446444740,920.0,-0.019571865,-2.2164066,0.083792046,0.0,0.0,0.0
920,1778446444750,921.0,-0.019571865,-2.2164066,0.083792046,0.0,0.0,0.0
921,1778446444760,922.0,0.113628945,-2.2214423333333335,0.0315290510666666,0.0,0.0,0.0
922,1778446444770,923.0,0.1802293499999999,-2.2239602,0.0053975536,0.0,0.0,0.0
923,1778446444780,924.0,0.1802293499999999,-2.2239602,0.0053975536,0.0,0.0,0.0
924,1778446444790,925.0,0.1802293499999999,-2.2239602,0.0053975536,0.0,0.0,0.0
925,1778446444800,926.0,0.1802293499999999,-2.2239602,0.0053975536,0.0,0.0,0.0
926,1778446444810,927.0,0.1802293499999999,-2.2239602,0.0053975536,0.0,0.0,0.0
927,1778446444820,928.0,0.7242660500000001,-2.1905198,-0.12405199,0.0,0.0,0.0
928,1778446444830,929.0,0.7242660500000001,-2.1905198,-0.12405199,0.0,0.0,0.0
929,1778446444840,930.0,0.7242660500000001,-2.1905198,-0.12405199,0.0,0.0,0.0
930,1778446444850,931.0,0.7242660500000001,-2.1905198,-0.12405199,0.0,0.0,0.0
931,1778446444860,932.0,0.72426605,-2.1905198,-0.12405199,0.0,0.0,0.0
932,1778446444870,933.0,0.7242660500000001,-2.1905198,-0.12405199,0.0,0.0,0.0
933,1778446444880,934.0,0.72426605,-2.1905198,-0.12405199,0.0,0.0,0.0
934,1778446444890,935.0,0.72426605,-2.1905198,-0.12405199,0.0,0.0,0.0
935,1778446444900,936.0,0.7242660500000001,-2.1905198,-0.12405199,0.0,0.0,0.0
936,1778446444910,937.0,0.72426605,-2.1905198,-0.12405199,0.0,0.0,0.0
937,1778446444920,938.0,0.7242660500000001,-2.1905198,-0.12405199,0.0,0.0,0.0
938,1778446444930,939.0,0.72426605,-2.1905198,-0.12405199,0.0,0.0,0.0
939,1778446444940,940.0,0.7242660500000001,-2.1905198,-0.12405199,0.0,0.0,0.0
940,1778446444950,941.0,0.9973548,-2.0697248,-0.22293578,0.0,0.0,0.0
941,1778446444960,942.0,0.9973548,-2.0697248,-0.22293578,0.0,0.0,0.0
942,1778446444970,943.0,0.9973548,-2.0697248,-0.22293578,0.0,0.0,0.0
943,1778446444980,944.0,0.9973548,-2.0697248,-0.22293578,0.0,0.0,0.0
944,1778446444990,945.0,0.9973548,-2.0697248,-0.22293578,0.0,0.0,0.0
945,1778446445000,946.0,0.9973548,-2.0697248,-0.22293578,0.0,0.0,0.0
946,1778446445010,947.0,0.9973548,-2.0697248,-0.22293578,0.0,0.0,0.0
947,1778446445020,948.0,0.9973548,-2.0697248,-0.22293578,0.0,0.0,0.0
948,1778446445030,949.0,0.9973548,-2.0697248,-0.22293578,0.0,0.0,0.0
949,1778446445040,950.0,0.9973548,-2.0697248,-0.22293578,0.0,0.0,0.0
950,1778446445050,951.0,0.9973548,-2.0697248,-0.22293578,0.0,0.0,0.0
951,1778446445060,952.0,0.9973548,-2.0697248,-0.22293578,0.0,0.0,0.0
952,1778446445070,953.0,0.9973548,-2.0697248,-0.22293578,0.0,0.0,0.0
953,1778446445080,954.0,0.9973548,-2.0697248,-0.22293578,0.0,0.0,0.0
954,1778446445090,955.0,0.9973548,-2.0697248,-0.22293578,0.0,0.0,0.0
955,1778446445100,956.0,0.9973548,-2.0697248,-0.22293578,0.0,0.0,0.0
956,1778446445110,957.0,1.9326249,-1.9221559666666668,-0.1371712533333333,0.0,0.0,0.0
957,1778446445120,958.0,1.7735015,-1.9174312,-0.15188073,0.0,0.0,0.0
958,1778446445130,959.0,1.7735015,-1.9174312,-0.15188073,0.0,0.0,0.0
959,1778446445140,960.0,1.7735015,-1.9174312,-0.15188073,0.0,0.0,0.0
960,1778446445150,961.0,2.6198778,-1.8183486,-0.2573853,0.0,0.0,0.0
961,1778446445160,962.0,2.6198778,-1.8183486,-0.2573853,0.0,0.0,0.0
962,1778446445170,963.0,2.6198778,-1.8183486,-0.2573853,0.0,0.0,0.0
963,1778446445180,964.0,2.6198778,-1.8183486,-0.2573853,0.0,0.0,0.0
964,1778446445190,965.0,2.6198778,-1.8183486,-0.2573853,0.0,0.0,0.0
965,1778446445200,966.0,2.6198778,-1.8183486,-0.2573853,0.0,0.0,0.0
966,1778446445210,967.0,2.6198778,-1.8183486,-0.2573853,0.0,0.0,0.0
967,1778446445220,968.0,2.6198778,-1.8183486,-0.2573853,0.0,0.0,0.0
968,1778446445230,969.0,2.6198778,-1.8183486,-0.2573853,0.0,0.0,0.0
969,1778446445240,970.0,2.6198778,-1.8183486,-0.2573853,0.0,0.0,0.0
970,1778446445250,971.0,2.6198778,-1.8183486,-0.2573853,0.0,0.0,0.0
971,1778446445260,972.0,2.6198778,-1.8183486,-0.2573853,0.0,0.0,0.0
972,1778446445270,973.0,2.6198778,-1.8183486,-0.2573853,0.0,0.0,0.0
973,1778446445280,974.0,2.6198778,-1.8183486,-0.2573853,0.0,0.0,0.0
974,1778446445290,975.0,2.6198778,-1.8183486,-0.2573853,0.0,0.0,0.0
975,1778446445300,976.0,2.6198778,-1.8183486,-0.2573853,0.0,0.0,0.0
976,1778446445310,977.0,2.6198778,-1.8183486,-0.2573853,0.0,0.0,0.0
977,1778446445320,978.0,2.6198778,-1.8183486,-0.2573853,0.0,0.0,0.0
978,1778446445330,979.0,2.6198778,-1.8183486,-0.2573853,0.0,0.0,0.0
979,1778446445340,980.0,2.6198778,-1.8183486,-0.2573853,0.0,0.0,0.0
980,1778446445350,981.0,2.6198778,-1.8183486,-0.2573853,0.0,0.0,0.0
981,1778446445360,982.0,2.6198778,-1.8183486,-0.2573853,0.0,0.0,0.0
982,1778446445370,983.0,2.6198778,-1.8183486,-0.2573853,0.0,0.0,0.0
983,1778446445380,984.0,2.6198778,-1.8183486,-0.2573853,0.0,0.0,0.0
984,1778446445390,985.0,2.6198778,-1.8183486,-0.2573853,0.0,0.0,0.0
985,1778446445400,986.0,2.6198778,-1.8183486,-0.2573853,0.0,0.0,0.0
986,1778446445410,987.0,2.6198778,-1.8183486,-0.2573853,0.0,0.0,0.0
987,1778446445420,988.0,2.6198778,-1.8183486,-0.2573853,0.0,0.0,0.0
988,1778446445430,989.0,2.6198778,-1.8183486,-0.2573853,0.0,0.0,0.0
989,1778446445440,990.0,2.6198778,-1.8183486,-0.2573853,0.0,0.0,0.0
990,1778446445450,991.0,2.6198778,-1.8183486,-0.2573853,0.0,0.0,0.0
991,1778446445460,992.0,2.6198778,-1.8183486,-0.2573853,0.0,0.0,0.0
992,1778446445470,993.0,2.6198778,-1.8183486,-0.2573853,0.0,0.0,0.0
993,1778446445480,994.0,2.6198778,-1.8183486,-0.2573853,0.0,0.0,0.0
994,1778446445490,995.0,2.6198778,-1.8183486,-0.2573853,0.0,0.0,0.0
995,1778446445500,996.0,2.6198778,-1.8183486,-0.2573853,0.0,0.0,0.0
996,1778446445510,997.0,2.6198778,-1.8183486,-0.2573853,0.0,0.0,0.0
997,1778446445520,998.0,2.6198778,-1.8183486,-0.2573853,0.0,0.0,0.0
998,1778446445530,999.0,2.6198778,-1.8183486,-0.2573853,0.0,0.0,0.0
999,1778446445540,1000.0,2.6198778,-1.8183486,-0.2573853,0.0,0.0,0.0
