id,timestamp,id,acc_x,acc_y,acc_z,gyro_x,gyro_y,gyro_z
0,1778446497660,1.0,-0.2524006,0.52844036,0.6668654,0.0,0.0,0.0
1,1778446497670,2.0,-0.294495415,0.52344798,0.6654892800000001,0.0,0.0,0.0
2,1778446497680,3.0,-0.33659023,0.5184556,0.66411316,0.0,0.0,0.0
3,1778446497690,4.0,-0.33659023,0.5184556,0.66411316,0.0,0.0,0.0
4,1778446497700,5.0,-0.33659023,0.5184556,0.66411316,0.0,0.0,0.0
5,1778446497710,6.0,-0.3787920449999999,0.51590212,0.6796101,0.0,0.0,0.0
6,1778446497720,7.0,-0.42099386,0.51334864,0.69510704,0.0,0.0,0.0
7,1778446497730,8.0,-0.42099386,0.51334864,0.69510704,0.0,0.0,0.0
8,1778446497740,9.0,-0.42099386,0.51334864,0.69510704,0.0,0.0,0.0
9,1778446497750,10.0,-0.42099386,0.51334864,0.69510704,0.0,0.0,0.0
10,1778446497760,11.0,-0.42099386,0.51334864,0.69510704,0.0,0.0,0.0
11,1778446497770,12.0,-0.42099386,0.51334864,0.69510704,0.0,0.0,0.0
12,1778446497780,13.0,-0.42099386,0.51334864,0.69510704,0.0,0.0,0.0
13,1778446497790,14.0,-0.5067635133333334,0.51219672,0.77958208,0.0,0.0,0.0
14,1778446497800,15.0,-0.54964834,0.51162076,0.8218196,0.0,0.0,0.0
15,1778446497810,16.0,-0.5511774,0.5160092,0.95290524,0.0,0.0,0.0
16,1778446497820,17.0,-0.5511774,0.5160092,0.95290524,0.0,0.0,0.0
17,1778446497830,18.0,-0.5511774,0.5160092,0.95290524,0.0,0.0,0.0
18,1778446497840,19.0,-0.5511774,0.5160092,0.95290524,0.0,0.0,0.0
19,1778446497850,20.0,-0.5511774,0.5160092,0.95290524,0.0,0.0,0.0
20,1778446497860,21.0,-0.4787003,0.50998473,0.916315,0.0,0.0,0.0
21,1778446497870,22.0,-0.4787003,0.50998473,0.916315,0.0,0.0,0.0
22,1778446497880,23.0,-0.4787003,0.50998473,0.916315,0.0,0.0,0.0
23,1778446497890,24.0,-0.4787003,0.50998473,0.916315,0.0,0.0,0.0
24,1778446497900,25.0,-0.4787003,0.50998473,0.916315,0.0,0.0,0.0
25,1778446497910,26.0,-0.4787003,0.50998473,0.916315,0.0,0.0,0.0
26,1778446497920,27.0,-0.4787003,0.50998473,0.916315,0.0,0.0,0.0
27,1778446497930,28.0,-0.4787003,0.50998473,0.916315,0.0,0.0,0.0
28,1778446497940,29.0,-0.4787003,0.50998473,0.916315,0.0,0.0,0.0
29,1778446497950,30.0,-0.4787003,0.50998473,0.916315,0.0,0.0,0.0
30,1778446497960,31.0,-0.4787003,0.50998473,0.916315,0.0,0.0,0.0
31,1778446497970,32.0,-0.4787003,0.50998473,0.916315,0.0,0.0,0.0
32,1778446497980,33.0,-0.4787003,0.50998473,0.916315,0.0,0.0,0.0
33,1778446497990,34.0,-0.4787003,0.50998473,0.916315,0.0,0.0,0.0
34,1778446498000,35.0,-0.4787003,0.50998473,0.916315,0.0,0.0,0.0
35,1778446498010,36.0,-0.4361927,0.49285936,0.8799236,0.0,0.0,0.0
36,1778446498020,37.0,-0.4361927,0.49285936,0.8799236,0.0,0.0,0.0
37,1778446498030,38.0,-0.4021407,0.476246205,0.81865445,0.0,0.0,0.0
38,1778446498040,39.0,-0.33047401,0.4604969599999999,0.6896483,0.0,0.0,0.0
39,1778446498050,40.0,-0.29285932,0.46136087,0.6219113,0.0,0.0,0.0
40,1778446498060,41.0,-0.29285932,0.46136087,0.6219113,0.0,0.0,0.0
41,1778446498070,42.0,-0.29285932,0.46136087,0.6219113,0.0,0.0,0.0
42,1778446498080,43.0,-0.29285932,0.46136087,0.6219113,0.0,0.0,0.0
43,1778446498090,44.0,-0.29285932,0.46136087,0.6219113,0.0,0.0,0.0
44,1778446498100,45.0,-0.29285932,0.46136087,0.6219113,0.0,0.0,0.0
45,1778446498110,46.0,-0.2743781733333333,0.4558562633333333,0.5343883866666667,0.0,0.0,0.0
46,1778446498120,47.0,-0.2651376,0.45310396,0.49062693,0.0,0.0,0.0
47,1778446498130,48.0,-0.2651376,0.45310396,0.49062693,0.0,0.0,0.0
48,1778446498140,49.0,-0.2651376,0.45310396,0.49062693,0.0,0.0,0.0
49,1778446498150,50.0,-0.2651376,0.45310396,0.49062693,0.0,0.0,0.0
50,1778446498160,51.0,-0.2651376,0.45310396,0.49062693,0.0,0.0,0.0
51,1778446498170,52.0,-0.2651376,0.45310396,0.49062693,0.0,0.0,0.0
52,1778446498180,53.0,-0.2651376,0.45310396,0.49062693,0.0,0.0,0.0
53,1778446498190,54.0,-0.4029511,0.4135627,0.59561163,0.0,0.0,0.0
54,1778446498200,55.0,-0.4029510999999999,0.4135627,0.59561163,0.0,0.0,0.0
55,1778446498210,56.0,-0.4029510999999999,0.4135627,0.59561163,0.0,0.0,0.0
56,1778446498220,57.0,-0.4029510999999999,0.4135627,0.59561163,0.0,0.0,0.0
57,1778446498230,58.0,-0.4285066333333334,0.3912691,0.6173649433333334,0.0,0.0,0.0
58,1778446498240,59.0,-0.4412844,0.3801223,0.6282416,0.0,0.0,0.0
59,1778446498250,60.0,-0.4412844,0.3801223,0.6282416,0.0,0.0,0.0
60,1778446498260,61.0,-0.4412844,0.3801223,0.6282416,0.0,0.0,0.0
61,1778446498270,62.0,-0.4412844,0.3801223,0.6282416,0.0,0.0,0.0
62,1778446498280,63.0,-0.4412844,0.3801223,0.6282416,0.0,0.0,0.0
63,1778446498290,64.0,-0.4412844,0.3801223,0.6282416,0.0,0.0,0.0
64,1778446498300,65.0,-0.4412844,0.3801223,0.6282416,0.0,0.0,0.0
65,1778446498310,66.0,-0.5653109066666667,0.3675535133333333,0.641422,0.0,0.0,0.0
66,1778446498320,67.0,-0.62732416,0.36126912,0.6480122,0.0,0.0,0.0
67,1778446498330,68.0,-0.62732416,0.36126912,0.6480122,0.0,0.0,0.0
68,1778446498340,69.0,-0.62732416,0.36126912,0.6480122,0.0,0.0,0.0
69,1778446498350,70.0,-0.62732416,0.36126912,0.6480122,0.0,0.0,0.0
70,1778446498360,71.0,-0.6756422,0.3664679,0.65974003,0.0,0.0,0.0
71,1778446498370,72.0,-0.6756422,0.3664679,0.65974003,0.0,0.0,0.0
72,1778446498380,73.0,-0.6756422,0.3664679,0.65974003,0.0,0.0,0.0
73,1778446498390,74.0,-0.6756422,0.3664679,0.65974003,0.0,0.0,0.0
74,1778446498400,75.0,-0.6756422,0.3664679,0.65974003,0.0,0.0,0.0
75,1778446498410,76.0,-0.6756422,0.3664679,0.65974003,0.0,0.0,0.0
76,1778446498420,77.0,-0.6756422,0.3664679,0.65974003,0.0,0.0,0.0
77,1778446498430,78.0,-0.6756422,0.3664679,0.65974003,0.0,0.0,0.0
78,1778446498440,79.0,-0.6840622,0.3747553666666667,0.6838583433333333,0.0,0.0,0.0
79,1778446498450,80.0,-0.6882722,0.3788991,0.6959175,0.0,0.0,0.0
80,1778446498460,81.0,-0.6882722,0.3788991,0.6959174999999999,0.0,0.0,0.0
81,1778446498470,82.0,-0.673134575,0.3831804399999999,0.7134556999999999,0.0,0.0,0.0
82,1778446498480,83.0,-0.65799695,0.38746178,0.7309939,0.0,0.0,0.0
83,1778446498490,84.0,-0.65799695,0.38746178,0.7309939,0.0,0.0,0.0
84,1778446498500,85.0,-0.65799695,0.38746178,0.7309939,0.0,0.0,0.0
85,1778446498510,86.0,-0.65799695,0.38746178,0.7309939,0.0,0.0,0.0
86,1778446498520,87.0,-0.65799695,0.38746178,0.7309939,0.0,0.0,0.0
87,1778446498530,88.0,-0.65799695,0.38746178,0.7309939,0.0,0.0,0.0
88,1778446498540,89.0,-0.65799695,0.38746178,0.7309939,0.0,0.0,0.0
89,1778446498550,90.0,-0.65799695,0.38746178,0.7309939,0.0,0.0,0.0
90,1778446498560,91.0,-0.65799695,0.38746178,0.7309939,0.0,0.0,0.0
91,1778446498570,92.0,-0.65799695,0.38746178,0.7309939,0.0,0.0,0.0
92,1778446498580,93.0,-0.65799695,0.38746178,0.7309939,0.0,0.0,0.0
93,1778446498590,94.0,-0.65799695,0.38746178,0.7309939,0.0,0.0,0.0
94,1778446498600,95.0,-0.6129740375,0.3830237075,0.73466365,0.0,0.0,0.0
95,1778446498610,96.0,-0.5979664,0.38154435,0.7358869,0.0,0.0,0.0
96,1778446498620,97.0,-0.5979664,0.38154435,0.7358869,0.0,0.0,0.0
97,1778446498630,98.0,-0.5979664,0.38154435,0.7358869,0.0,0.0,0.0
98,1778446498640,99.0,-0.5979664,0.38154435,0.7358869,0.0,0.0,0.0
99,1778446498650,100.0,-0.524419,0.3477523,0.73420493,0.0,0.0,0.0
100,1778446498660,101.0,-0.4508716,0.31396025,0.73252296,0.0,0.0,0.0
101,1778446498670,102.0,-0.42849391,0.311261475,0.70188841,0.0,0.0,0.0
102,1778446498680,103.0,-0.40611622,0.3085627,0.67125386,0.0,0.0,0.0
103,1778446498690,104.0,-0.213226305,0.08649465,0.4868234225,0.0,0.0,0.0
104,1778446498700,105.0,-0.0203363899999999,-0.1355734,0.302392985,0.0,0.0,0.0
105,1778446498710,106.0,0.172553525,-0.35764145,0.1179625475,0.0,0.0,0.0
106,1778446498720,107.0,0.36544344,-0.5797095,-0.06646789,0.0,0.0,0.0
107,1778446498730,108.0,0.36544344,-0.5797095,-0.06646789,0.0,0.0,0.0
108,1778446498740,109.0,0.36544344,-0.5797095,-0.06646789,0.0,0.0,0.0
109,1778446498750,110.0,0.36544344,-0.5797095,-0.06646789,0.0,0.0,0.0
110,1778446498760,111.0,0.36544344,-0.5797095,-0.06646789,0.0,0.0,0.0
111,1778446498770,112.0,0.36544344,-0.5797095,-0.06646789,0.0,0.0,0.0
112,1778446498780,113.0,0.36544344,-0.5797095,-0.06646789,0.0,0.0,0.0
113,1778446498790,114.0,0.36544344,-0.5797095,-0.06646789,0.0,0.0,0.0
114,1778446498800,115.0,0.36544344,-0.5797095,-0.06646789,0.0,0.0,0.0
115,1778446498810,116.0,0.36544344,-0.5797095,-0.06646789,0.0,0.0,0.0
116,1778446498820,117.0,0.36544344,-0.5797095,-0.06646789,0.0,0.0,0.0
117,1778446498830,118.0,0.36544344,-0.5797095,-0.06646789,0.0,0.0,0.0
118,1778446498840,119.0,0.39106525,-0.5889857333333334,-0.0907951066666666,0.0,0.0,0.0
119,1778446498850,120.0,0.44230887,-0.6075382,-0.13944954,0.0,0.0,0.0
120,1778446498860,121.0,0.44230887,-0.6075382,-0.13944954,0.0,0.0,0.0
121,1778446498870,122.0,0.44230887,-0.6075382,-0.13944954,0.0,0.0,0.0
122,1778446498880,123.0,0.44230887,-0.6075382,-0.13944954,0.0,0.0,0.0
123,1778446498890,124.0,0.44230887,-0.6075382,-0.13944954,0.0,0.0,0.0
124,1778446498900,125.0,0.44230887,-0.6075382,-0.13944954,0.0,0.0,0.0
125,1778446498910,126.0,0.44230887,-0.6075382,-0.13944954,0.0,0.0,0.0
126,1778446498920,127.0,0.44230887,-0.6075382,-0.13944954,0.0,0.0,0.0
127,1778446498930,128.0,0.44230887,-0.6075382,-0.13944954,0.0,0.0,0.0
128,1778446498940,129.0,0.55803769,-0.5966004,-0.1667686,0.0,0.0,0.0
129,1778446498950,130.0,0.6159021,-0.5911315,-0.18042813,0.0,0.0,0.0
130,1778446498960,131.0,0.6159021,-0.5911315,-0.18042813,0.0,0.0,0.0
131,1778446498970,132.0,0.6159021,-0.5911315,-0.18042813,0.0,0.0,0.0
132,1778446498980,133.0,0.6159021,-0.5911315,-0.18042813,0.0,0.0,0.0
133,1778446498990,134.0,0.6159021,-0.5911315,-0.18042813,0.0,0.0,0.0
134,1778446499000,135.0,0.6159021,-0.5911315,-0.18042813,0.0,0.0,0.0
135,1778446499010,136.0,0.6159021,-0.5911315,-0.18042813,0.0,0.0,0.0
136,1778446499020,137.0,0.6159021,-0.5911315,-0.18042813,0.0,0.0,0.0
137,1778446499030,138.0,0.6159021,-0.5911315,-0.18042813,0.0,0.0,0.0
138,1778446499040,139.0,0.6159021,-0.5911315,-0.18042813,0.0,0.0,0.0
139,1778446499050,140.0,0.6159021,-0.5911315,-0.18042813,0.0,0.0,0.0
140,1778446499060,141.0,0.6159021,-0.5911315,-0.18042813,0.0,0.0,0.0
141,1778446499070,142.0,0.6159021,-0.5911315,-0.18042813,0.0,0.0,0.0
142,1778446499080,143.0,0.6159021,-0.5911315,-0.18042813,0.0,0.0,0.0
143,1778446499090,144.0,0.6159021,-0.5911315,-0.18042813,0.0,0.0,0.0
144,1778446499100,145.0,0.6159021,-0.5911315,-0.18042813,0.0,0.0,0.0
145,1778446499110,146.0,0.6159021,-0.5911315,-0.18042813,0.0,0.0,0.0
146,1778446499120,147.0,0.6159021,-0.5911315,-0.18042813,0.0,0.0,0.0
147,1778446499130,148.0,0.6159021,-0.5911315,-0.18042813,0.0,0.0,0.0
148,1778446499140,149.0,0.6821597625,-0.5809633000000001,-0.2088188024999999,0.0,0.0,0.0
149,1778446499150,150.0,0.88093275,-0.5504587,-0.29399082,0.0,0.0,0.0
150,1778446499160,151.0,0.88093275,-0.5504587,-0.29399082,0.0,0.0,0.0
151,1778446499170,152.0,0.9439297,-0.5469878,-0.4916361,0.0,0.0,0.0
152,1778446499180,153.0,0.9439297,-0.5469878,-0.4916361,0.0,0.0,0.0
153,1778446499190,154.0,0.9439297,-0.5469878,-0.4916361,0.0,0.0,0.0
154,1778446499200,155.0,0.9439297,-0.5469878,-0.4916361,0.0,0.0,0.0
155,1778446499210,156.0,0.9439297,-0.5469878,-0.4916361,0.0,0.0,0.0
156,1778446499220,157.0,0.9439297,-0.5469878,-0.4916361,0.0,0.0,0.0
157,1778446499230,158.0,0.9439297,-0.5469878,-0.4916361,0.0,0.0,0.0
158,1778446499240,159.0,0.9439297,-0.5469878,-0.4916361,0.0,0.0,0.0
159,1778446499250,160.0,0.9439297,-0.5469878,-0.4916361,0.0,0.0,0.0
160,1778446499260,161.0,1.0818858333333334,-0.50013761,-0.82649845,0.0,0.0,0.0
161,1778446499270,162.0,1.1118196,-0.44862384,-0.8870489,0.0,0.0,0.0
162,1778446499280,163.0,1.1118196,-0.44862384,-0.8870489,0.0,0.0,0.0
163,1778446499290,164.0,1.1118196,-0.44862384,-0.8870489,0.0,0.0,0.0
164,1778446499300,165.0,1.1118196,-0.44862384,-0.8870489,0.0,0.0,0.0
165,1778446499310,166.0,1.1118196,-0.44862384,-0.8870489,0.0,0.0,0.0
166,1778446499320,167.0,1.1118196,-0.44862384,-0.8870489,0.0,0.0,0.0
167,1778446499330,168.0,1.1118196,-0.44862384,-0.8870489,0.0,0.0,0.0
168,1778446499340,169.0,1.1335321333333332,-0.44617736,-0.8898012,0.0,0.0,0.0
169,1778446499350,170.0,1.1769572,-0.4412844,-0.8953058,0.0,0.0,0.0
170,1778446499360,171.0,1.1769572,-0.4412844,-0.8953058,0.0,0.0,0.0
171,1778446499370,172.0,1.1769572,-0.4412844,-0.8953058,0.0,0.0,0.0
172,1778446499380,173.0,1.1769572,-0.4412844,-0.8953058,0.0,0.0,0.0
173,1778446499390,174.0,1.3247044,-0.3446483133333333,-0.9031244,0.0,0.0,0.0
174,1778446499400,175.0,1.398578,-0.29633027,-0.9070337,0.0,0.0,0.0
175,1778446499410,176.0,1.398578,-0.29633027,-0.9070337,0.0,0.0,0.0
176,1778446499420,177.0,1.422023466666667,-0.2486952166666666,-0.9830071,0.0,0.0,0.0
177,1778446499430,178.0,1.4337462,-0.22487769,-1.0209938,0.0,0.0,0.0
178,1778446499440,179.0,1.4337462,-0.22487769,-1.0209938,0.0,0.0,0.0
179,1778446499450,180.0,1.4337462,-0.22487769,-1.0209938,0.0,0.0,0.0
180,1778446499460,181.0,1.4337462,-0.22487769,-1.0209938,0.0,0.0,0.0
181,1778446499470,182.0,1.4337462,-0.22487769,-1.0209938,0.0,0.0,0.0
182,1778446499480,183.0,1.4337462,-0.22487769,-1.0209938,0.0,0.0,0.0
183,1778446499490,184.0,1.4337462,-0.22487769,-1.0209938,0.0,0.0,0.0
184,1778446499500,185.0,1.4337462,-0.22487769,-1.0209938,0.0,0.0,0.0
185,1778446499510,186.0,1.4337462,-0.22487769,-1.0209938,0.0,0.0,0.0
186,1778446499520,187.0,1.4337462,-0.22487769,-1.0209938,0.0,0.0,0.0
187,1778446499530,188.0,1.4337462,-0.22487769,-1.0209938,0.0,0.0,0.0
188,1778446499540,189.0,1.430581,-0.19093272,-1.1081499,0.0,0.0,0.0
189,1778446499550,190.0,1.430581,-0.19093272,-1.1081499,0.0,0.0,0.0
190,1778446499560,191.0,1.430581,-0.19093272,-1.1081499,0.0,0.0,0.0
191,1778446499570,192.0,1.430581,-0.19093272,-1.1081499,0.0,0.0,0.0
192,1778446499580,193.0,1.430581,-0.19093272,-1.1081499,0.0,0.0,0.0
193,1778446499590,194.0,1.4652447000000002,-0.17359328,-1.153104,0.0,0.0,0.0
194,1778446499600,195.0,1.4652447,-0.17359328,-1.153104,0.0,0.0,0.0
195,1778446499610,196.0,1.4937768,-0.1216054999999999,-1.1853211,0.0,0.0,0.0
196,1778446499620,197.0,1.4937768,-0.1216055,-1.1853211,0.0,0.0,0.0
197,1778446499630,198.0,1.4937768,-0.1216054999999999,-1.1853211,0.0,0.0,0.0
198,1778446499640,199.0,1.4937768,-0.1216055,-1.1853211,0.0,0.0,0.0
199,1778446499650,200.0,1.4937768,-0.1216054999999999,-1.1853211,0.0,0.0,0.0
200,1778446499660,201.0,1.4431549333333331,-0.07458206,-1.1799490333333331,0.0,0.0,0.0
201,1778446499670,202.0,1.417844,-0.05107034,-1.177263,0.0,0.0,0.0
202,1778446499680,203.0,1.417844,-0.05107034,-1.177263,0.0,0.0,0.0
203,1778446499690,204.0,1.417844,-0.05107034,-1.177263,0.0,0.0,0.0
204,1778446499700,205.0,1.304893,-0.011314985,-1.1420949,0.0,0.0,0.0
205,1778446499710,206.0,1.304893,-0.011314985,-1.1420949,0.0,0.0,0.0
206,1778446499720,207.0,1.304893,-0.011314985,-1.1420949,0.0,0.0,0.0
207,1778446499730,208.0,1.304893,-0.011314985,-1.1420949,0.0,0.0,0.0
208,1778446499740,209.0,1.304893,-0.011314985,-1.1420949,0.0,0.0,0.0
209,1778446499750,210.0,1.304893,-0.011314985,-1.1420949,0.0,0.0,0.0
210,1778446499760,211.0,1.304893,-0.011314985,-1.1420949,0.0,0.0,0.0
211,1778446499770,212.0,1.304893,-0.011314985,-1.1420949,0.0,0.0,0.0
212,1778446499780,213.0,1.288547433333333,-0.0066258921333333,-1.1389042666666669,0.0,0.0,0.0
213,1778446499790,214.0,1.2558563,0.0027522936,-1.132523,0.0,0.0,0.0
214,1778446499800,215.0,1.3217125,-0.036697246,-1.1740061,0.0,0.0,0.0
215,1778446499810,216.0,1.3217125,-0.036697246,-1.1740061,0.0,0.0,0.0
216,1778446499820,217.0,1.3217125,-0.036697246,-1.1740061,0.0,0.0,0.0
217,1778446499830,218.0,1.3217125,-0.036697246,-1.1740061,0.0,0.0,0.0
218,1778446499840,219.0,1.558211,-0.14698777,-1.2926606,0.0,0.0,0.0
219,1778446499850,220.0,1.9082569000000005,-0.33221713,-1.3642201,0.0,0.0,0.0
220,1778446499860,221.0,1.9082569000000005,-0.33221713,-1.3642201,0.0,0.0,0.0
221,1778446499870,222.0,1.9082569000000005,-0.33221713,-1.3642201,0.0,0.0,0.0
222,1778446499880,223.0,1.9082569000000005,-0.33221713,-1.3642201,0.0,0.0,0.0
223,1778446499890,224.0,1.9082569000000005,-0.33221713,-1.3642201,0.0,0.0,0.0
224,1778446499900,225.0,2.0956879666666666,-0.4156625966666666,-1.4131498333333334,0.0,0.0,0.0
225,1778446499910,226.0,2.1894035,-0.45738533,-1.4376147,0.0,0.0,0.0
226,1778446499920,227.0,2.1894035,-0.45738533,-1.4376147,0.0,0.0,0.0
227,1778446499930,228.0,2.1894035,-0.45738533,-1.4376147,0.0,0.0,0.0
228,1778446499940,229.0,2.1894035,-0.45738533,-1.4376147,0.0,0.0,0.0
229,1778446499950,230.0,2.1894035,-0.45738533,-1.4376147,0.0,0.0,0.0
230,1778446499960,231.0,2.1894035,-0.45738533,-1.4376147,0.0,0.0,0.0
231,1778446499970,232.0,2.1894035,-0.45738533,-1.4376147,0.0,0.0,0.0
232,1778446499980,233.0,2.1894035,-0.45738533,-1.4376147,0.0,0.0,0.0
233,1778446499990,234.0,2.1894035,-0.45738533,-1.4376147,0.0,0.0,0.0
234,1778446500000,235.0,2.1894035,-0.45738533,-1.4376147,0.0,0.0,0.0
235,1778446500010,236.0,2.1894035,-0.45738533,-1.4376147,0.0,0.0,0.0
236,1778446500020,237.0,2.2364984,-0.682263,-1.4783945,0.0,0.0,0.0
237,1778446500030,238.0,2.2364984,-0.682263,-1.4783945,0.0,0.0,0.0
238,1778446500040,239.0,2.2364984,-0.682263,-1.4783945,0.0,0.0,0.0
239,1778446500050,240.0,2.2311428749999997,-0.7519878,-1.47770645,0.0,0.0,0.0
240,1778446500060,241.0,2.2293577,-0.7752294000000001,-1.4774771,0.0,0.0,0.0
241,1778446500070,242.0,2.2293577,-0.7752294,-1.4774771,0.0,0.0,0.0
242,1778446500080,243.0,2.2293577,-0.7752294000000001,-1.4774771,0.0,0.0,0.0
243,1778446500090,244.0,2.1801224,-0.841789,-1.4164068,0.0,0.0,0.0
244,1778446500100,245.0,2.1801224,-0.841789,-1.4164068,0.0,0.0,0.0
245,1778446500110,246.0,2.1801224,-0.841789,-1.4164068,0.0,0.0,0.0
246,1778446500120,247.0,2.1801224,-0.841789,-1.4164068,0.0,0.0,0.0
247,1778446500130,248.0,2.1801224,-0.841789,-1.4164068,0.0,0.0,0.0
248,1778446500140,249.0,2.0422018,-1.0541284,-1.1176299,0.0,0.0,0.0
249,1778446500150,250.0,2.0422018,-1.0541284,-1.1176299,0.0,0.0,0.0
250,1778446500160,251.0,2.0422018,-1.0541284,-1.1176299,0.0,0.0,0.0
251,1778446500170,252.0,2.0422018,-1.0541284,-1.1176299,0.0,0.0,0.0
252,1778446500180,253.0,2.0422018,-1.0541284,-1.1176299,0.0,0.0,0.0
253,1778446500190,254.0,2.0422018,-1.0541284,-1.1176299,0.0,0.0,0.0
254,1778446500200,255.0,2.0422018,-1.0541284,-1.1176299,0.0,0.0,0.0
255,1778446500210,256.0,2.0422018,-1.0541284,-1.1176299,0.0,0.0,0.0
256,1778446500220,257.0,1.8967087,-1.1118463,-0.9831574725,0.0,0.0,0.0
257,1778446500230,258.0,1.848211,-1.1310856,-0.93833333,0.0,0.0,0.0
258,1778446500240,259.0,1.6534097999999997,-1.2109021,-0.80570334,0.0,0.0,0.0
259,1778446500250,260.0,1.6534098,-1.2109021,-0.80570334,0.0,0.0,0.0
260,1778446500260,261.0,1.5704332333333333,-1.2489602333333334,-0.8013200733333333,0.0,0.0,0.0
261,1778446500270,262.0,1.0932722,-1.451789,-0.7896024599999999,0.0,0.0,0.0
262,1778446500280,263.0,1.0932722,-1.451789,-0.78960246,0.0,0.0,0.0
263,1778446500290,264.0,1.0932722,-1.451789,-0.7896024599999999,0.0,0.0,0.0
264,1778446500300,265.0,1.0932722,-1.451789,-0.7896024599999999,0.0,0.0,0.0
265,1778446500310,266.0,-0.24576454,-1.5449542,-0.68715596,0.0,0.0,0.0
266,1778446500320,267.0,-0.24576454,-1.5449542,-0.68715596,0.0,0.0,0.0
267,1778446500330,268.0,-0.24576454,-1.5449542,-0.68715596,0.0,0.0,0.0
268,1778446500340,269.0,-0.24576454,-1.5449542,-0.68715596,0.0,0.0,0.0
269,1778446500350,270.0,-0.24576454,-1.5449542,-0.68715596,0.0,0.0,0.0
270,1778446500360,271.0,-0.24576454,-1.5449542,-0.68715596,0.0,0.0,0.0
271,1778446500370,272.0,-0.24576454,-1.5449542,-0.68715596,0.0,0.0,0.0
272,1778446500380,273.0,0.0536238449999999,-1.5485245,-0.75743883,0.0,0.0,0.0
273,1778446500390,274.0,0.35301223,-1.5520948,-0.8277217,0.0,0.0,0.0
274,1778446500400,275.0,0.35301223,-1.5520948,-0.8277217,0.0,0.0,0.0
275,1778446500410,276.0,0.35301223,-1.5520948,-0.8277217,0.0,0.0,0.0
276,1778446500420,277.0,0.35301223,-1.5520948,-0.8277217,0.0,0.0,0.0
277,1778446500430,278.0,0.35301223,-1.5520948,-0.8277217,0.0,0.0,0.0
278,1778446500440,279.0,0.07767584,-1.5415902,-0.7288532,0.0,0.0,0.0
279,1778446500450,280.0,0.07767584,-1.5415902,-0.7288532,0.0,0.0,0.0
280,1778446500460,281.0,0.07767584,-1.5415902,-0.7288532,0.0,0.0,0.0
281,1778446500470,282.0,0.07767584,-1.5415902,-0.7288532,0.0,0.0,0.0
282,1778446500480,283.0,0.07767584,-1.5415902,-0.7288532,0.0,0.0,0.0
283,1778446500490,284.0,0.07767584,-1.5415902,-0.7288532,0.0,0.0,0.0
284,1778446500500,285.0,0.07767584,-1.5415902,-0.7288532,0.0,0.0,0.0
285,1778446500510,286.0,-0.25443424,-1.5418960000000002,-0.7306524,0.0,0.0,0.0
286,1778446500520,287.0,-0.9186544,-1.5425076,-0.7342508,0.0,0.0,0.0
287,1778446500530,288.0,-0.9186544,-1.5425075999999998,-0.7342508,0.0,0.0,0.0
288,1778446500540,289.0,-0.9186544,-1.5425076,-0.7342508,0.0,0.0,0.0
289,1778446500550,290.0,-0.9506269,-1.5289500333333332,-0.72562185,0.0,0.0,0.0
290,1778446500560,291.0,-1.0145719,-1.5018348999999998,-0.70836395,0.0,0.0,0.0
291,1778446500570,292.0,-1.0145719,-1.5018349,-0.70836395,0.0,0.0,0.0
292,1778446500580,293.0,-1.0145719,-1.5018348999999998,-0.70836395,0.0,0.0,0.0
293,1778446500590,294.0,-1.0145719,-1.5018349,-0.70836395,0.0,0.0,0.0
294,1778446500600,295.0,-1.0145719,-1.5018348999999998,-0.70836395,0.0,0.0,0.0
295,1778446500610,296.0,-1.0438685666666667,-1.4757391000000002,-0.5687716833333333,0.0,0.0,0.0
296,1778446500620,297.0,-1.1195413,-1.4359480666666666,-0.3937767666666666,0.0,0.0,0.0
297,1778446500630,298.0,-1.2415901,-1.3824618,-0.1833792,0.0,0.0,0.0
298,1778446500640,299.0,-1.2415901,-1.3824618,-0.1833792,0.0,0.0,0.0
299,1778446500650,300.0,-1.2415901,-1.3824618,-0.1833792,0.0,0.0,0.0
300,1778446500660,301.0,-1.2415901,-1.3824618,-0.1833792,0.0,0.0,0.0
301,1778446500670,302.0,-1.2415901,-1.3824618,-0.1833792,0.0,0.0,0.0
302,1778446500680,303.0,-1.2415901,-1.3824618,-0.1833792,0.0,0.0,0.0
303,1778446500690,304.0,-1.2415901,-1.3824618,-0.1833792,0.0,0.0,0.0
304,1778446500700,305.0,-1.2415901,-1.3824618,-0.1833792,0.0,0.0,0.0
305,1778446500710,306.0,-1.2415901,-1.3824618,-0.1833792,0.0,0.0,0.0
306,1778446500720,307.0,-1.480734,-1.3387309,0.15993884,0.0,0.0,0.0
307,1778446500730,308.0,-1.480734,-1.3387309,0.15993884,0.0,0.0,0.0
308,1778446500740,309.0,-1.480734,-1.3387309,0.15993884,0.0,0.0,0.0
309,1778446500750,310.0,-1.480734,-1.3387309,0.15993884,0.0,0.0,0.0
310,1778446500760,311.0,-1.5232416,-1.3257952,0.34954128,0.0,0.0,0.0
311,1778446500770,312.0,-1.410632,-1.2857645333333332,0.4628236599999999,0.0,0.0,0.0
312,1778446500780,313.0,-1.3543272,-1.2657492,0.51946485,0.0,0.0,0.0
313,1778446500790,314.0,-1.3543272,-1.2657492,0.51946485,0.0,0.0,0.0
314,1778446500800,315.0,-1.3543272,-1.2657492,0.51946485,0.0,0.0,0.0
315,1778446500810,316.0,-1.0365902,-1.2167125,0.90897554,0.0,0.0,0.0
316,1778446500820,317.0,-1.0895667333333334,-1.3471254,1.04801736,0.0,0.0,0.0
317,1778446500830,318.0,-1.1955198,-1.6079511999999998,1.326101,0.0,0.0,0.0
318,1778446500840,319.0,-1.1955198,-1.6079512,1.326101,0.0,0.0,0.0
319,1778446500850,320.0,-1.1955198,-1.6079511999999998,1.326101,0.0,0.0,0.0
320,1778446500860,321.0,-1.1955198,-1.6079511999999998,1.326101,0.0,0.0,0.0
321,1778446500870,322.0,-2.063542333333333,-1.2617024,0.9747554,0.0,0.0,0.0
322,1778446500880,323.0,-2.4975536,-1.088578,0.7990825999999999,0.0,0.0,0.0
323,1778446500890,324.0,-2.4975536,-1.088578,0.7990825999999999,0.0,0.0,0.0
324,1778446500900,325.0,-2.4975536,-1.088578,0.7990826,0.0,0.0,0.0
325,1778446500910,326.0,-2.4975536,-1.088578,0.7990826,0.0,0.0,0.0
326,1778446500920,327.0,-2.4975536,-1.088578,0.7990825999999999,0.0,0.0,0.0
327,1778446500930,328.0,-2.4975536,-1.088578,0.7990825999999999,0.0,0.0,0.0
328,1778446500940,329.0,-2.2020744,-1.0205555466666667,0.8431855333333332,0.0,0.0,0.0
329,1778446500950,330.0,-1.8785933,-0.96188074,0.9301682,0.0,0.0,0.0
330,1778446500960,331.0,-1.3928950333333334,-0.9824006466666668,1.1150204,0.0,0.0,0.0
331,1778446500970,332.0,-1.1500459,-0.9926606,1.2074465,0.0,0.0,0.0
332,1778446500980,333.0,-1.1500459,-0.9926606,1.2074465,0.0,0.0,0.0
333,1778446500990,334.0,-1.1500459,-0.9926606,1.2074465,0.0,0.0,0.0
334,1778446501000,335.0,-1.0407084666666666,-0.8560295333333334,1.3176656333333332,0.0,0.0,0.0
335,1778446501010,336.0,-1.1735015,-0.8337462,1.4712539,0.0,0.0,0.0
336,1778446501020,337.0,-1.1735015,-0.8337461999999999,1.4712539,0.0,0.0,0.0
337,1778446501030,338.0,-1.1735015,-0.8337461999999999,1.4712539,0.0,0.0,0.0
338,1778446501040,339.0,-1.3906001,-0.73344038,1.37313845,0.0,0.0,0.0
339,1778446501050,340.0,-2.0418959,-0.43252292,1.0787921,0.0,0.0,0.0
340,1778446501060,341.0,-2.0418959,-0.43252292,1.0787921,0.0,0.0,0.0
341,1778446501070,342.0,-2.0418959,-0.43252292,1.0787921,0.0,0.0,0.0
342,1778446501080,343.0,-2.0418959,-0.43252292,1.0787921,0.0,0.0,0.0
343,1778446501090,344.0,-2.0418959,-0.43252292,1.0787921,0.0,0.0,0.0
344,1778446501100,345.0,-2.353104,-0.3842049,0.8730886999999999,0.0,0.0,0.0
345,1778446501110,346.0,-2.353104,-0.3842049,0.8730886999999999,0.0,0.0,0.0
346,1778446501120,347.0,-2.353104,-0.3842049,0.8730887,0.0,0.0,0.0
347,1778446501130,348.0,-2.353104,-0.3842049,0.8730886999999999,0.0,0.0,0.0
348,1778446501140,349.0,-2.4204536666666665,-0.37353211,0.8320744133333333,0.0,0.0,0.0
349,1778446501150,350.0,-2.555153,-0.35218653,0.75004584,0.0,0.0,0.0
350,1778446501160,351.0,-2.5419674666666663,-0.3548063133333333,0.7376809133333332,0.0,0.0,0.0
351,1778446501170,352.0,-2.5155964,-0.36004588,0.71295106,0.0,0.0,0.0
352,1778446501180,353.0,-2.336571175,-0.3824961775,0.6791590125,0.0,0.0,0.0
353,1778446501190,354.0,-1.7592202,-0.3556575,0.53669727,0.0,0.0,0.0
354,1778446501200,355.0,-2.1041055249999996,-0.2908295025,0.53524083,0.0,0.0,0.0
355,1778446501210,356.0,-2.2190673,-0.26922017,0.53475535,0.0,0.0,0.0
356,1778446501220,357.0,-2.2190673,-0.26922017,0.53475535,0.0,0.0,0.0
357,1778446501230,358.0,-2.2190673,-0.26922017,0.53475535,0.0,0.0,0.0
358,1778446501240,359.0,-2.2190673,-0.26922017,0.53475535,0.0,0.0,0.0
359,1778446501250,360.0,-2.2190673,-0.26922017,0.53475535,0.0,0.0,0.0
360,1778446501260,361.0,-2.6598419,-0.2391080566666666,0.6299643166666666,0.0,0.0,0.0
361,1778446501270,362.0,-2.8802292,-0.224052,0.6775688,0.0,0.0,0.0
362,1778446501280,363.0,-2.8802292,-0.224052,0.6775688,0.0,0.0,0.0
363,1778446501290,364.0,-3.3034708,-0.06207951,0.9133486,0.0,0.0,0.0
364,1778446501300,365.0,-3.3034708,-0.06207951,0.9133486,0.0,0.0,0.0
365,1778446501310,366.0,-3.3034708,-0.06207951,0.9133486,0.0,0.0,0.0
366,1778446501320,367.0,-3.3034708,-0.06207951,0.9133486,0.0,0.0,0.0
367,1778446501330,368.0,-3.0252446,-0.06221203,0.9662232666666668,0.0,0.0,0.0
368,1778446501340,369.0,-2.8861315,-0.0622782899999999,0.9926606,0.0,0.0,0.0
369,1778446501350,370.0,-2.8861315,-0.0622782899999999,0.9926606,0.0,0.0,0.0
370,1778446501360,371.0,-2.8861315,-0.06227829,0.9926606,0.0,0.0,0.0
371,1778446501370,372.0,-2.8861315,-0.0622782899999999,0.9926606,0.0,0.0,0.0
372,1778446501380,373.0,-2.8861315,-0.0622782899999999,0.9926606,0.0,0.0,0.0
373,1778446501390,374.0,-2.8861315,-0.0622782899999999,0.9926606,0.0,0.0,0.0
374,1778446501400,375.0,-2.8861315,-0.06227829,0.9926606,0.0,0.0,0.0
375,1778446501410,376.0,-2.8861315,-0.0622782899999999,0.9926606,0.0,0.0,0.0
376,1778446501420,377.0,-2.8861315,-0.0622782899999999,0.9926606,0.0,0.0,0.0
377,1778446501430,378.0,-2.8861315,-0.06227829,0.9926606,0.0,0.0,0.0
378,1778446501440,379.0,-2.1912386,-0.1462844,1.0700306,0.0,0.0,0.0
379,1778446501450,380.0,-2.1912386,-0.1462844,1.0700306,0.0,0.0,0.0
380,1778446501460,381.0,-2.1912386,-0.1462844,1.0700306,0.0,0.0,0.0
381,1778446501470,382.0,-2.1912386,-0.1462844,1.0700306,0.0,0.0,0.0
382,1778446501480,383.0,-2.1912386,-0.1462844,1.0700306,0.0,0.0,0.0
383,1778446501490,384.0,-2.0426147333333335,-0.1672477,1.0733588333333333,0.0,0.0,0.0
384,1778446501500,385.0,-1.745367,-0.2091743,1.0800153,0.0,0.0,0.0
385,1778446501510,386.0,-1.0368043,-0.6599745,0.9302395666666666,0.0,0.0,0.0
386,1778446501520,387.0,-0.3282415999999999,-1.1107747,0.7804638333333334,0.0,0.0,0.0
387,1778446501530,388.0,0.3803211,-1.5615749,0.6306881,0.0,0.0,0.0
388,1778446501540,389.0,0.3803211,-1.5615749,0.6306881,0.0,0.0,0.0
389,1778446501550,390.0,0.3648318,-1.4584633,0.6142202,0.0,0.0,0.0
390,1778446501560,391.0,0.3493424999999999,-1.3553517,0.5977523,0.0,0.0,0.0
391,1778446501570,392.0,0.3493425,-1.3553517,0.5977523,0.0,0.0,0.0
392,1778446501580,393.0,0.3493425,-1.3553517,0.5977523,0.0,0.0,0.0
393,1778446501590,394.0,0.3493425,-1.3553517,0.5977523,0.0,0.0,0.0
394,1778446501600,395.0,0.3493424999999999,-1.3553517,0.5977523,0.0,0.0,0.0
395,1778446501610,396.0,0.3493424999999999,-1.3553517,0.5977523,0.0,0.0,0.0
396,1778446501620,397.0,0.3493424999999999,-1.3553517,0.5977523,0.0,0.0,0.0
397,1778446501630,398.0,0.3493425,-1.3553517,0.5977523,0.0,0.0,0.0
398,1778446501640,399.0,0.3493424999999999,-1.3553517,0.5977523,0.0,0.0,0.0
399,1778446501650,400.0,0.3493424999999999,-1.3553517,0.5977523,0.0,0.0,0.0
400,1778446501660,401.0,0.3493425,-1.3553517,0.5977523,0.0,0.0,0.0
401,1778446501670,402.0,0.3493424999999999,-1.3553517,0.5977523,0.0,0.0,0.0
402,1778446501680,403.0,0.3493424999999999,-1.3553517,0.5977523,0.0,0.0,0.0
403,1778446501690,404.0,0.3493425,-1.3553517,0.5977523,0.0,0.0,0.0
404,1778446501700,405.0,0.3935117166666666,-1.3530734000000002,0.5557900166666667,0.0,0.0,0.0
405,1778446501710,406.0,0.4818501499999999,-1.3485167999999998,0.4718654499999999,0.0,0.0,0.0
406,1778446501720,407.0,0.78454129,-1.301625933333333,0.3553211033333333,0.0,0.0,0.0
407,1778446501730,408.0,0.93588686,-1.2781805,0.29704893,0.0,0.0,0.0
408,1778446501740,409.0,0.93588686,-1.2781805,0.29704893,0.0,0.0,0.0
409,1778446501750,410.0,0.93588686,-1.2781805,0.29704893,0.0,0.0,0.0
410,1778446501760,411.0,1.0066615733333333,-1.2642865,0.2520591233333333,0.0,0.0,0.0
411,1778446501770,412.0,1.3444495000000003,-1.2233486,0.04637615,0.0,0.0,0.0
412,1778446501780,413.0,1.3444495,-1.2233486,0.04637615,0.0,0.0,0.0
413,1778446501790,414.0,1.3444495000000003,-1.2233486,0.04637615,0.0,0.0,0.0
414,1778446501800,415.0,1.3444495000000003,-1.2233486,0.04637615,0.0,0.0,0.0
415,1778446501810,416.0,1.3444495000000003,-1.2233486,0.04637615,0.0,0.0,0.0
416,1778446501820,417.0,1.4264678999999998,-1.1789042,-0.0629001033333333,0.0,0.0,0.0
417,1778446501830,418.0,1.4674771,-1.156682,-0.11753823,0.0,0.0,0.0
418,1778446501840,419.0,1.4674771,-1.156682,-0.11753823,0.0,0.0,0.0
419,1778446501850,420.0,1.4674771,-1.156682,-0.11753823,0.0,0.0,0.0
420,1778446501860,421.0,1.4674771,-1.156682,-0.11753823,0.0,0.0,0.0
421,1778446501870,422.0,1.4674771,-1.156682,-0.11753823,0.0,0.0,0.0
422,1778446501880,423.0,1.574312,-1.1251835,-0.20897552,0.0,0.0,0.0
423,1778446501890,424.0,1.574312,-1.1251835,-0.20897552,0.0,0.0,0.0
424,1778446501900,425.0,1.574312,-1.1251835,-0.20897552,0.0,0.0,0.0
425,1778446501910,426.0,1.6726758,-0.9626911,-0.36472479,0.0,0.0,0.0
426,1778446501920,427.0,1.6726758,-0.9626911,-0.36472479,0.0,0.0,0.0
427,1778446501930,428.0,1.6726758,-0.9626911,-0.36472479,0.0,0.0,0.0
428,1778446501940,429.0,1.6726758,-0.9626911,-0.36472479,0.0,0.0,0.0
429,1778446501950,430.0,1.6726758,-0.9626911,-0.36472479,0.0,0.0,0.0
430,1778446501960,431.0,1.6726758,-0.9626911,-0.36472479,0.0,0.0,0.0
431,1778446501970,432.0,1.6726758,-0.9626911,-0.36472479,0.0,0.0,0.0
432,1778446501980,433.0,1.6726758,-0.9626911,-0.36472479,0.0,0.0,0.0
433,1778446501990,434.0,1.6726757999999995,-0.9626911,-0.3647247900000001,0.0,0.0,0.0
434,1778446502000,435.0,1.6726757999999995,-0.9626911,-0.3647247900000001,0.0,0.0,0.0
435,1778446502010,436.0,1.6726757999999995,-0.9626911,-0.3647247900000001,0.0,0.0,0.0
436,1778446502020,437.0,1.6726757999999995,-0.9626911,-0.3647247900000001,0.0,0.0,0.0
437,1778446502030,438.0,1.6297706,-0.8088685,-0.42282873,0.0,0.0,0.0
438,1778446502040,439.0,1.6283740666666666,-0.7845413,-0.4467532999999999,0.0,0.0,0.0
439,1778446502050,440.0,1.6255809999999995,-0.7358869,-0.49460244,0.0,0.0,0.0
440,1778446502060,441.0,1.6255809999999995,-0.7358869,-0.49460244,0.0,0.0,0.0
441,1778446502070,442.0,1.625581,-0.7358869,-0.49460244,0.0,0.0,0.0
442,1778446502080,443.0,1.664419,-0.69683486,-0.5077523,0.0,0.0,0.0
443,1778446502090,444.0,1.7507646,-0.658104,-0.5172324,0.0,0.0,0.0
444,1778446502100,445.0,1.7507646,-0.658104,-0.5172324,0.0,0.0,0.0
445,1778446502110,446.0,1.7507646,-0.658104,-0.5172324,0.0,0.0,0.0
446,1778446502120,447.0,1.7507646,-0.658104,-0.5172324,0.0,0.0,0.0
447,1778446502130,448.0,1.7507646,-0.658104,-0.5172324,0.0,0.0,0.0
448,1778446502140,449.0,1.8359785,-0.50937307,-0.5570795,0.0,0.0,0.0
449,1778446502150,450.0,1.8369367666666667,-0.4601070233333333,-0.58195208,0.0,0.0,0.0
450,1778446502160,451.0,1.772912825,-0.380913605,-0.6166628275,0.0,0.0,0.0
451,1778446502170,452.0,1.5794036,-0.21723242,-0.6834862,0.0,0.0,0.0
452,1778446502180,453.0,1.5794036,-0.21723242,-0.6834862,0.0,0.0,0.0
453,1778446502190,454.0,1.5794036,-0.21723242,-0.6834862,0.0,0.0,0.0
454,1778446502200,455.0,1.5794036,-0.21723242,-0.6834862,0.0,0.0,0.0
455,1778446502210,456.0,1.5794036,-0.21723242,-0.6834862,0.0,0.0,0.0
456,1778446502220,457.0,1.5794036,-0.21723242,-0.6834862,0.0,0.0,0.0
457,1778446502230,458.0,1.6436951666666666,-0.26728339,-0.6659887466666667,0.0,0.0,0.0
458,1778446502240,459.0,1.7722783,-0.36738533,-0.63099384,0.0,0.0,0.0
459,1778446502250,460.0,1.7722783,-0.36738533,-0.63099384,0.0,0.0,0.0
460,1778446502260,461.0,1.7722783,-0.36738533,-0.63099384,0.0,0.0,0.0
461,1778446502270,462.0,1.7722783,-0.36738533,-0.63099384,0.0,0.0,0.0
462,1778446502280,463.0,1.7722783,-0.36738533,-0.63099384,0.0,0.0,0.0
463,1778446502290,464.0,1.7722783,-0.36738533,-0.63099384,0.0,0.0,0.0
464,1778446502300,465.0,1.7722783,-0.36738533,-0.63099384,0.0,0.0,0.0
465,1778446502310,466.0,1.7079867333333334,-0.31733436,-0.6484912933333334,0.0,0.0,0.0
466,1778446502320,467.0,1.5794036,-0.21723242,-0.6834862,0.0,0.0,0.0
467,1778446502330,468.0,1.5794036,-0.21723242,-0.6834862,0.0,0.0,0.0
468,1778446502340,469.0,1.5794036,-0.21723242,-0.6834862,0.0,0.0,0.0
469,1778446502350,470.0,1.5794036,-0.21723242,-0.6834862,0.0,0.0,0.0
470,1778446502360,471.0,1.465948,-0.047400612,-0.7815442999999999,0.0,0.0,0.0
471,1778446502370,472.0,1.465948,-0.047400612,-0.7815442999999999,0.0,0.0,0.0
472,1778446502380,473.0,1.465948,-0.047400612,-0.7815443,0.0,0.0,0.0
473,1778446502390,474.0,1.465948,-0.047400612,-0.7815442999999999,0.0,0.0,0.0
474,1778446502400,475.0,1.465948,-0.047400612,-0.7815443,0.0,0.0,0.0
475,1778446502410,476.0,1.465948,-0.047400612,-0.7815442999999999,0.0,0.0,0.0
476,1778446502420,477.0,1.4527981,0.021100918,-0.7964373,0.0,0.0,0.0
477,1778446502430,478.0,1.4527981,0.021100918,-0.7964373,0.0,0.0,0.0
478,1778446502440,479.0,1.4527981,0.021100918,-0.7964373,0.0,0.0,0.0
479,1778446502450,480.0,1.4527981,0.021100918,-0.7964373,0.0,0.0,0.0
480,1778446502460,481.0,1.4527981,0.021100918,-0.7964373,0.0,0.0,0.0
481,1778446502470,482.0,1.4527981,0.021100918,-0.7964373,0.0,0.0,0.0
482,1778446502480,483.0,1.4527981,0.021100918,-0.7964373,0.0,0.0,0.0
483,1778446502490,484.0,1.4527981,0.021100918,-0.7964373,0.0,0.0,0.0
484,1778446502500,485.0,1.4527981,0.021100918,-0.7964373,0.0,0.0,0.0
485,1778446502510,486.0,1.4527981,0.021100918,-0.7964373,0.0,0.0,0.0
486,1778446502520,487.0,1.4527981,0.021100918,-0.7964373,0.0,0.0,0.0
487,1778446502530,488.0,1.4527981,0.021100918,-0.7964373,0.0,0.0,0.0
488,1778446502540,489.0,1.4247706,0.031804282,-0.8296636,0.0,0.0,0.0
489,1778446502550,490.0,1.4247705999999998,0.031804282,-0.8296636,0.0,0.0,0.0
490,1778446502560,491.0,1.42655195,0.0319571885,-0.82553515,0.0,0.0,0.0
491,1778446502570,492.0,1.4283333,0.032110095,-0.8214067000000002,0.0,0.0,0.0
492,1778446502580,493.0,1.4283333,0.032110095,-0.8214067000000002,0.0,0.0,0.0
493,1778446502590,494.0,1.4283333,0.032110095,-0.8214067,0.0,0.0,0.0
494,1778446502600,495.0,1.4283333,0.032110095,-0.8214067000000002,0.0,0.0,0.0
495,1778446502610,496.0,1.4283333,0.032110095,-0.8214067000000002,0.0,0.0,0.0
496,1778446502620,497.0,1.4283333,0.032110095,-0.8214067000000002,0.0,0.0,0.0
497,1778446502630,498.0,1.4283333,0.032110095,-0.8214067,0.0,0.0,0.0
498,1778446502640,499.0,1.4283333,0.032110095,-0.8214067000000002,0.0,0.0,0.0
499,1778446502650,500.0,1.39982415,0.03173165175,-0.820110805,0.0,0.0,0.0
500,1778446502660,501.0,1.3624515666666668,0.0110754330399999,-0.88851684,0.0,0.0,0.0
501,1778446502670,502.0,1.3485167999999998,0.00081039756,-0.92293584,0.0,0.0,0.0
502,1778446502680,503.0,1.3485168,0.00081039756,-0.92293584,0.0,0.0,0.0
503,1778446502690,504.0,1.3485167999999998,0.00081039756,-0.92293584,0.0,0.0,0.0
504,1778446502700,505.0,1.3485167999999998,0.00081039756,-0.92293584,0.0,0.0,0.0
505,1778446502710,506.0,1.3446483,-0.06610856122,-1.10009937,0.0,0.0,0.0
506,1778446502720,507.0,1.3407798,-0.13302752,-1.2772629,0.0,0.0,0.0
507,1778446502730,508.0,1.3407798,-0.13302752,-1.2772629,0.0,0.0,0.0
508,1778446502740,509.0,1.3407798,-0.13302752,-1.2772629,0.0,0.0,0.0
509,1778446502750,510.0,1.3407798,-0.13302752,-1.2772629,0.0,0.0,0.0
510,1778446502760,511.0,1.36547025,-0.1571903674999999,-1.3657263,0.0,0.0,0.0
511,1778446502770,512.0,1.3737004,-0.16524465,-1.3952140999999998,0.0,0.0,0.0
512,1778446502780,513.0,1.3737004,-0.16524465,-1.3952140999999998,0.0,0.0,0.0
513,1778446502790,514.0,1.3737004,-0.16524465,-1.3952141,0.0,0.0,0.0
514,1778446502800,515.0,1.3737004,-0.16524465,-1.3952140999999998,0.0,0.0,0.0
515,1778446502810,516.0,1.3737004,-0.16524465,-1.3952141,0.0,0.0,0.0
516,1778446502820,517.0,1.3815444,-0.23047401,-1.4379206,0.0,0.0,0.0
517,1778446502830,518.0,1.3815444,-0.23047401,-1.4379206,0.0,0.0,0.0
518,1778446502840,519.0,1.3815444,-0.23047401,-1.4379206,0.0,0.0,0.0
519,1778446502850,520.0,1.3815444,-0.23047401,-1.4379206,0.0,0.0,0.0
520,1778446502860,521.0,1.3837207333333332,-0.2592558566666667,-1.4384659333333332,0.0,0.0,0.0
521,1778446502870,522.0,1.3880734,-0.31681955,-1.4395566,0.0,0.0,0.0
522,1778446502880,523.0,1.3880734,-0.31681955,-1.4395566000000002,0.0,0.0,0.0
523,1778446502890,524.0,1.3880734,-0.31681955,-1.4395566000000002,0.0,0.0,0.0
524,1778446502900,525.0,1.3880734,-0.31681955,-1.4395566000000002,0.0,0.0,0.0
525,1778446502910,526.0,1.3880734,-0.31681955,-1.4395566,0.0,0.0,0.0
526,1778446502920,527.0,1.4154638000000002,-0.4383995966666666,-1.2445107333333334,0.0,0.0,0.0
527,1778446502930,528.0,1.429159,-0.4991896199999999,-1.1469878,0.0,0.0,0.0
528,1778446502940,529.0,1.429159,-0.4991896199999999,-1.1469878,0.0,0.0,0.0
529,1778446502950,530.0,1.429159,-0.49918962,-1.1469878,0.0,0.0,0.0
530,1778446502960,531.0,1.4545005333333334,-0.5816870733333334,-1.0254179666666667,0.0,0.0,0.0
531,1778446502970,532.0,1.4671712999999995,-0.6229358,-0.96463305,0.0,0.0,0.0
532,1778446502980,533.0,1.4671713,-0.6229358,-0.96463305,0.0,0.0,0.0
533,1778446502990,534.0,1.4671712999999995,-0.6229358,-0.96463305,0.0,0.0,0.0
534,1778446503000,535.0,1.475963325,-0.6635588925,-0.9252828975,0.0,0.0,0.0
535,1778446503010,536.0,1.5023394,-0.78542817,-0.80723244,0.0,0.0,0.0
536,1778446503020,537.0,1.5023394,-0.78542817,-0.80723244,0.0,0.0,0.0
537,1778446503030,538.0,1.5023394,-0.78542817,-0.80723244,0.0,0.0,0.0
538,1778446503040,539.0,1.5023394,-0.78542817,-0.80723244,0.0,0.0,0.0
539,1778446503050,540.0,1.4598318,-0.8879664,-0.6409786,0.0,0.0,0.0
540,1778446503060,541.0,1.4094087999999998,-0.9114832133333334,-0.6037359999999999,0.0,0.0,0.0
541,1778446503070,542.0,1.1352702,-0.9911977466666668,-0.4309837,0.0,0.0,0.0
542,1778446503080,543.0,0.9461468333333332,-1.0578338,-0.33788481,0.0,0.0,0.0
543,1778446503090,544.0,0.8949083,-1.0829816,-0.31590214,0.0,0.0,0.0
544,1778446503100,545.0,0.8949083,-1.0829816,-0.31590214,0.0,0.0,0.0
545,1778446503110,546.0,0.8949083,-1.0829816,-0.31590214,0.0,0.0,0.0
546,1778446503120,547.0,0.8949083,-1.0829816,-0.31590214,0.0,0.0,0.0
547,1778446503130,548.0,0.8949083,-1.0829816,-0.31590214,0.0,0.0,0.0
548,1778446503140,549.0,0.8949083,-1.0829816,-0.31590214,0.0,0.0,0.0
549,1778446503150,550.0,0.8949083,-1.0829816,-0.31590214,0.0,0.0,0.0
550,1778446503160,551.0,0.8949083,-1.0829816,-0.31590214,0.0,0.0,0.0
551,1778446503170,552.0,0.8949083,-1.0829816,-0.31590214,0.0,0.0,0.0
552,1778446503180,553.0,0.8949083,-1.0829816,-0.31590214,0.0,0.0,0.0
553,1778446503190,554.0,0.5775739333333333,-1.1526299333333334,-0.1519215076666666,0.0,0.0,0.0
554,1778446503200,555.0,0.3003058,-1.1620796,-0.012737003,0.0,0.0,0.0
555,1778446503210,556.0,0.3003058,-1.1620796,-0.012737003,0.0,0.0,0.0
556,1778446503220,557.0,0.0553211,-1.2082874666666663,0.0911671723333333,0.0,0.0,0.0
557,1778446503230,558.0,-0.06717125,-1.2313914,0.14311926,0.0,0.0,0.0
558,1778446503240,559.0,-0.06717125,-1.2313914,0.14311926,0.0,0.0,0.0
559,1778446503250,560.0,-0.0796075399999999,-1.2323445333333334,0.1441743066666666,0.0,0.0,0.0
560,1778446503260,561.0,-0.10448012,-1.2342508,0.1462844,0.0,0.0,0.0
561,1778446503270,562.0,-0.10448012,-1.2342508,0.1462844,0.0,0.0,0.0
562,1778446503280,563.0,-0.10448012,-1.2342508,0.1462844,0.0,0.0,0.0
563,1778446503290,564.0,-0.10448012,-1.2342508,0.1462844,0.0,0.0,0.0
564,1778446503300,565.0,-0.10448012,-1.2342508,0.1462844,0.0,0.0,0.0
565,1778446503310,566.0,-0.10448012,-1.2342508,0.1462844,0.0,0.0,0.0
566,1778446503320,567.0,-0.10448012,-1.2342508,0.1462844,0.0,0.0,0.0
567,1778446503330,568.0,-0.10448012,-1.2342508,0.1462844,0.0,0.0,0.0
568,1778446503340,569.0,-0.16207442,-1.2466208333333333,0.1879408733333333,0.0,0.0,0.0
569,1778446503350,570.0,-0.27726302,-1.2713609,0.27125382,0.0,0.0,0.0
570,1778446503360,571.0,-0.27726302,-1.2713609,0.27125382,0.0,0.0,0.0
571,1778446503370,572.0,-0.27726302,-1.2713609,0.27125382,0.0,0.0,0.0
572,1778446503380,573.0,-0.42496943,-1.323574175,0.32561163,0.0,0.0,0.0
573,1778446503390,574.0,-0.4742049,-1.3409786,0.3437309,0.0,0.0,0.0
574,1778446503400,575.0,-0.573677325,-1.386701075,0.34846715,0.0,0.0,0.0
575,1778446503410,576.0,-0.6068348,-1.4019419,0.3500459,0.0,0.0,0.0
576,1778446503420,577.0,-0.6068348,-1.4019419,0.3500459,0.0,0.0,0.0
577,1778446503430,578.0,-0.6068348,-1.4019419,0.3500459,0.0,0.0,0.0
578,1778446503440,579.0,-0.6068348,-1.4019419,0.3500459,0.0,0.0,0.0
579,1778446503450,580.0,-0.6068348,-1.4019419,0.3500459,0.0,0.0,0.0
580,1778446503460,581.0,-0.6990468666666666,-1.4104331666666663,0.3536544333333333,0.0,0.0,0.0
581,1778446503470,582.0,-0.7451529,-1.4146788,0.3554587,0.0,0.0,0.0
582,1778446503480,583.0,-0.7451529,-1.4146788,0.3554587,0.0,0.0,0.0
583,1778446503490,584.0,-0.7451529,-1.4146788,0.3554587,0.0,0.0,0.0
584,1778446503500,585.0,-0.7451529,-1.4146788,0.3554587,0.0,0.0,0.0
585,1778446503510,586.0,-0.7451529,-1.4146788,0.3554587,0.0,0.0,0.0
586,1778446503520,587.0,-0.7451529,-1.4146788,0.3554587,0.0,0.0,0.0
587,1778446503530,588.0,-0.7451529,-1.4146788,0.3554587,0.0,0.0,0.0
588,1778446503540,589.0,-0.7451529,-1.4146788,0.3554587,0.0,0.0,0.0
589,1778446503550,590.0,-0.8719877625000001,-1.4422821,0.3779357725,0.0,0.0,0.0
590,1778446503560,591.0,-0.91426605,-1.4514832,0.38542813,0.0,0.0,0.0
591,1778446503570,592.0,-0.91426605,-1.4514832,0.38542813,0.0,0.0,0.0
592,1778446503580,593.0,-0.91426605,-1.4514832,0.38542813,0.0,0.0,0.0
593,1778446503590,594.0,-0.91426605,-1.4514832,0.38542813,0.0,0.0,0.0
594,1778446503600,595.0,-0.91426605,-1.4514832,0.38542813,0.0,0.0,0.0
595,1778446503610,596.0,-0.91426605,-1.4514832,0.38542813,0.0,0.0,0.0
596,1778446503620,597.0,-0.91426605,-1.4514832,0.38542813,0.0,0.0,0.0
597,1778446503630,598.0,-0.91426605,-1.4514832,0.38542813,0.0,0.0,0.0
598,1778446503640,599.0,-0.91426605,-1.4514832,0.38542813,0.0,0.0,0.0
599,1778446503650,600.0,-1.065489275,-1.4230428,0.665137615,0.0,0.0,0.0
600,1778446503660,601.0,-1.1515749,-1.4532110000000005,0.66218656,0.0,0.0,0.0
601,1778446503670,602.0,-1.1515749,-1.453211,0.66218656,0.0,0.0,0.0
602,1778446503680,603.0,-1.1515749,-1.4532110000000005,0.66218656,0.0,0.0,0.0
603,1778446503690,604.0,-1.1515749,-1.4532110000000005,0.66218656,0.0,0.0,0.0
604,1778446503700,605.0,-1.1515749,-1.453211,0.66218656,0.0,0.0,0.0
605,1778446503710,606.0,-1.1515749,-1.4532110000000005,0.66218656,0.0,0.0,0.0
606,1778446503720,607.0,-1.1515749,-1.4532110000000005,0.66218656,0.0,0.0,0.0
607,1778446503730,608.0,-1.2303822,-1.3334404,1.2574923,0.0,0.0,0.0
608,1778446503740,609.0,-1.2303822,-1.3334404,1.2574923,0.0,0.0,0.0
609,1778446503750,610.0,-1.2303822,-1.3334404,1.2574923,0.0,0.0,0.0
610,1778446503760,611.0,-1.2303822,-1.3334404,1.2574923,0.0,0.0,0.0
611,1778446503770,612.0,-1.2303822,-1.3334404,1.2574923,0.0,0.0,0.0
612,1778446503780,613.0,-1.2303822,-1.3334404,1.2574923,0.0,0.0,0.0
613,1778446503790,614.0,-1.2303822,-1.3334404,1.2574923,0.0,0.0,0.0
614,1778446503800,615.0,-1.2303822,-1.3334404,1.2574923,0.0,0.0,0.0
615,1778446503810,616.0,-1.2303822,-1.3334404,1.2574923,0.0,0.0,0.0
616,1778446503820,617.0,-1.2303822,-1.3334404,1.2574923,0.0,0.0,0.0
617,1778446503830,618.0,-1.2303822,-1.3334404,1.2574923,0.0,0.0,0.0
618,1778446503840,619.0,-1.2128797,-1.3221916666666669,1.3509683666666668,0.0,0.0,0.0
619,1778446503850,620.0,-1.1778747,-1.2996942,1.5379205,0.0,0.0,0.0
620,1778446503860,621.0,-1.1778747,-1.2996942,1.5379205,0.0,0.0,0.0
621,1778446503870,622.0,-1.1778747,-1.2996942,1.5379205,0.0,0.0,0.0
622,1778446503880,623.0,-1.1778747,-1.2996942,1.5379205,0.0,0.0,0.0
623,1778446503890,624.0,-1.1445413666666668,-1.3133537000000002,1.5818552666666663,0.0,0.0,0.0
624,1778446503900,625.0,-1.0778747,-1.3406727,1.6697248,0.0,0.0,0.0
625,1778446503910,626.0,-1.0778747,-1.3406727,1.6697248,0.0,0.0,0.0
626,1778446503920,627.0,-1.0778747,-1.3406727,1.6697248,0.0,0.0,0.0
627,1778446503930,628.0,-1.0778747,-1.3406727,1.6697248,0.0,0.0,0.0
628,1778446503940,629.0,-1.1376147,-1.3738991,1.5144801,0.0,0.0,0.0
629,1778446503950,630.0,-1.363104,-1.3311927,1.2662538,0.0,0.0,0.0
630,1778446503960,631.0,-2.530275,-1.0395566,0.2800153,0.0,0.0,0.0
631,1778446503970,632.0,-2.530275,-1.0395566,0.2800153,0.0,0.0,0.0
632,1778446503980,633.0,-2.530275,-1.0395566,0.2800153,0.0,0.0,0.0
633,1778446503990,634.0,-2.530275,-1.0395566,0.2800153,0.0,0.0,0.0
634,1778446504000,635.0,-2.649408733333334,-0.985999,0.1194342533333333,0.0,0.0,0.0
635,1778446504010,636.0,-2.7089756,-0.9592202,0.03914373,0.0,0.0,0.0
636,1778446504020,637.0,-2.7089756,-0.9592202,0.03914373,0.0,0.0,0.0
637,1778446504030,638.0,-2.7089756,-0.9592202,0.03914373,0.0,0.0,0.0
638,1778446504040,639.0,-2.7089756,-0.9592202,0.03914373,0.0,0.0,0.0
639,1778446504050,640.0,-2.710739066666666,-0.9297604666666668,0.0118246686666666,0.0,0.0,0.0
640,1778446504060,641.0,-2.714266,-0.870841,-0.042813454,0.0,0.0,0.0
641,1778446504070,642.0,-2.714266,-0.870841,-0.042813454,0.0,0.0,0.0
642,1778446504080,643.0,-2.714266,-0.870841,-0.042813454,0.0,0.0,0.0
643,1778446504090,644.0,-2.714266,-0.870841,-0.042813454,0.0,0.0,0.0
644,1778446504100,645.0,-2.714266,-0.870841,-0.042813454,0.0,0.0,0.0
645,1778446504110,646.0,-2.714266,-0.870841,-0.042813454,0.0,0.0,0.0
646,1778446504120,647.0,-2.714266,-0.870841,-0.042813454,0.0,0.0,0.0
647,1778446504130,648.0,-2.714266,-0.870841,-0.042813454,0.0,0.0,0.0
648,1778446504140,649.0,-2.714266,-0.870841,-0.042813454,0.0,0.0,0.0
649,1778446504150,650.0,-2.714266,-0.870841,-0.042813454,0.0,0.0,0.0
650,1778446504160,651.0,-2.632686,-0.8582365,0.0484199806666666,0.0,0.0,0.0
651,1778446504170,652.0,-2.459026533333333,-0.8338429833333333,0.2614016333333333,0.0,0.0,0.0
652,1778446504180,653.0,-2.4380276,-0.83547395,0.3224312,0.0,0.0,0.0
653,1778446504190,654.0,-2.4380276,-0.83547395,0.3224312,0.0,0.0,0.0
654,1778446504200,655.0,-2.4380276,-0.83547395,0.3224312,0.0,0.0,0.0
655,1778446504210,656.0,-2.4380276,-0.83547395,0.3224312,0.0,0.0,0.0
656,1778446504220,657.0,-2.4380276,-0.83547395,0.3224312,0.0,0.0,0.0
657,1778446504230,658.0,-2.4380276,-0.83547395,0.3224312,0.0,0.0,0.0
658,1778446504240,659.0,-2.4380276,-0.83547395,0.3224312,0.0,0.0,0.0
659,1778446504250,660.0,-2.4380276,-0.83547395,0.3224312,0.0,0.0,0.0
660,1778446504260,661.0,-2.4380276,-0.83547395,0.3224312,0.0,0.0,0.0
661,1778446504270,662.0,-2.4380276,-0.83547395,0.3224312,0.0,0.0,0.0
662,1778446504280,663.0,-2.4380276,-0.83547395,0.3224312,0.0,0.0,0.0
663,1778446504290,664.0,-2.4380276,-0.83547395,0.3224312,0.0,0.0,0.0
664,1778446504300,665.0,-2.4380276,-0.83547395,0.3224312,0.0,0.0,0.0
665,1778446504310,666.0,-2.3532160666666666,-0.8187563633333333,0.7070692666666667,0.0,0.0,0.0
666,1778446504320,667.0,-2.3108103,-0.81039757,0.8993883,0.0,0.0,0.0
667,1778446504330,668.0,-2.3108103,-0.81039757,0.8993883,0.0,0.0,0.0
668,1778446504340,669.0,-2.3108103,-0.81039757,0.8993883,0.0,0.0,0.0
669,1778446504350,670.0,-2.3092278,-0.792912835,1.0000993500000002,0.0,0.0,0.0
670,1778446504360,671.0,-2.3076453,-0.7754281,1.1008104,0.0,0.0,0.0
671,1778446504370,672.0,-2.3076453,-0.7754281,1.1008104,0.0,0.0,0.0
672,1778446504380,673.0,-2.3076453,-0.7754281,1.1008104,0.0,0.0,0.0
673,1778446504390,674.0,-2.3076453,-0.7754281,1.1008104,0.0,0.0,0.0
674,1778446504400,675.0,-2.3408409666666667,-0.7480071,1.1239857666666666,0.0,0.0,0.0
675,1778446504410,676.0,-2.4072323,-0.6931651,1.1703365,0.0,0.0,0.0
676,1778446504420,677.0,-2.4072323,-0.6931651,1.1703365,0.0,0.0,0.0
677,1778446504430,678.0,-2.4072323,-0.6931651,1.1703365,0.0,0.0,0.0
678,1778446504440,679.0,-2.564881475,-0.6025688124999999,1.1368502,0.0,0.0,0.0
679,1778446504450,680.0,-2.6174312,-0.57237005,1.1256881,0.0,0.0,0.0
680,1778446504460,681.0,-2.6174312,-0.57237005,1.1256881,0.0,0.0,0.0
681,1778446504470,682.0,-2.6174312,-0.57237005,1.1256881,0.0,0.0,0.0
682,1778446504480,683.0,-2.6174312,-0.57237005,1.1256881,0.0,0.0,0.0
683,1778446504490,684.0,-2.6174312,-0.57237005,1.1256881,0.0,0.0,0.0
684,1778446504500,685.0,-2.737986733333333,-0.4928287666666666,1.02806832,0.0,0.0,0.0
685,1778446504510,686.0,-2.9790978,-0.3337462,0.83282876,0.0,0.0,0.0
686,1778446504520,687.0,-2.9790978,-0.3337462,0.83282876,0.0,0.0,0.0
687,1778446504530,688.0,-2.8583028,-0.25188074,0.1979663699999999,0.0,0.0,0.0
688,1778446504540,689.0,-2.8583028,-0.25188074,0.19796637,0.0,0.0,0.0
689,1778446504550,690.0,-2.8583028,-0.25188074,0.1979663699999999,0.0,0.0,0.0
690,1778446504560,691.0,-2.8583028,-0.25188074,0.1979663699999999,0.0,0.0,0.0
691,1778446504570,692.0,-2.8583028,-0.25188074,0.19796637,0.0,0.0,0.0
692,1778446504580,693.0,-2.567584,-0.2567737,-0.1811467999999999,0.0,0.0,0.0
693,1778446504590,694.0,-2.567584,-0.2567737,-0.1811468,0.0,0.0,0.0
694,1778446504600,695.0,-2.567584,-0.2567737,-0.1811467999999999,0.0,0.0,0.0
695,1778446504610,696.0,-2.567584,-0.2567737,-0.1811467999999999,0.0,0.0,0.0
696,1778446504620,697.0,-2.567584,-0.2567737,-0.1811468,0.0,0.0,0.0
697,1778446504630,698.0,-2.567584,-0.2567737,-0.1811467999999999,0.0,0.0,0.0
698,1778446504640,699.0,-2.567584,-0.2567737,-0.1811468,0.0,0.0,0.0
699,1778446504650,700.0,-2.567584,-0.2567737,-0.1811467999999999,0.0,0.0,0.0
700,1778446504660,701.0,-2.567584,-0.2567737,-0.1811467999999999,0.0,0.0,0.0
701,1778446504670,702.0,-2.4057568,-0.27548165,-0.358363925,0.0,0.0,0.0
702,1778446504680,703.0,-2.2439296,-0.2941896,-0.53558105,0.0,0.0,0.0
703,1778446504690,704.0,-2.2439296,-0.2941896,-0.53558105,0.0,0.0,0.0
704,1778446504700,705.0,-2.2439296,-0.2941896,-0.53558105,0.0,0.0,0.0
705,1778446504710,706.0,-2.2439296,-0.2941896,-0.53558105,0.0,0.0,0.0
706,1778446504720,707.0,-2.2439296,-0.2941896,-0.53558105,0.0,0.0,0.0
707,1778446504730,708.0,-2.2439296,-0.2941896,-0.53558105,0.0,0.0,0.0
708,1778446504740,709.0,-2.2439296,-0.2941896,-0.53558105,0.0,0.0,0.0
709,1778446504750,710.0,-2.2439296,-0.2941896,-0.53558105,0.0,0.0,0.0
710,1778446504760,711.0,-2.0023394,-0.365948,-0.7743119000000002,0.0,0.0,0.0
711,1778446504770,712.0,-2.0023394,-0.365948,-0.7743119000000002,0.0,0.0,0.0
712,1778446504780,713.0,-2.0023394,-0.365948,-0.7743119,0.0,0.0,0.0
713,1778446504790,714.0,-2.0023394,-0.365948,-0.7743119000000002,0.0,0.0,0.0
714,1778446504800,715.0,-2.0023394,-0.365948,-0.7743119000000002,0.0,0.0,0.0
715,1778446504810,716.0,-1.8236544,-0.7225229,-0.77278286,0.0,0.0,0.0
716,1778446504820,717.0,-1.8236544,-0.7225229,-0.77278286,0.0,0.0,0.0
717,1778446504830,718.0,-1.8236544,-0.7225229,-0.77278286,0.0,0.0,0.0
718,1778446504840,719.0,-1.796636,-0.75178903,-0.48215598,0.0,0.0,0.0
719,1778446504850,720.0,-1.796636,-0.75178903,-0.48215598,0.0,0.0,0.0
720,1778446504860,721.0,-1.796636,-0.75178903,-0.48215598,0.0,0.0,0.0
721,1778446504870,722.0,-1.796636,-0.75178903,-0.48215598,0.0,0.0,0.0
722,1778446504880,723.0,-1.796636,-0.75178903,-0.48215598,0.0,0.0,0.0
723,1778446504890,724.0,-1.796636,-0.75178903,-0.48215598,0.0,0.0,0.0
724,1778446504900,725.0,-1.796636,-0.75178903,-0.48215598,0.0,0.0,0.0
725,1778446504910,726.0,-1.8676502666666668,-0.6851529533333333,-0.3466819683333333,0.0,0.0,0.0
726,1778446504920,727.0,-2.0096788,-0.5518808,-0.075733945,0.0,0.0,0.0
727,1778446504930,728.0,-2.0096788,-0.5518808,-0.075733945,0.0,0.0,0.0
728,1778446504940,729.0,-2.0096788,-0.5518808,-0.075733945,0.0,0.0,0.0
729,1778446504950,730.0,-2.083990725,-0.50702987,0.04944189125,0.0,0.0,0.0
730,1778446504960,731.0,-2.3069265,-0.37247708,0.4249694,0.0,0.0,0.0
731,1778446504970,732.0,-2.3069265,-0.37247708,0.4249694,0.0,0.0,0.0
732,1778446504980,733.0,-2.4672782499999997,-0.30769879,0.58899082,0.0,0.0,0.0
733,1778446504990,734.0,-2.4116209,-0.13230887,0.7332263,0.0,0.0,0.0
734,1778446505000,735.0,-2.23647175,-0.12680427875,0.533914385,0.0,0.0,0.0
735,1778446505010,736.0,-1.9525994,-0.10795107,0.13792048,0.0,0.0,0.0
736,1778446505020,737.0,-1.9525994,-0.10795107,0.13792048,0.0,0.0,0.0
737,1778446505030,738.0,-1.9525994,-0.10795107,0.13792048,0.0,0.0,0.0
738,1778446505040,739.0,-1.9525994,-0.10795107,0.13792048,0.0,0.0,0.0
739,1778446505050,740.0,-1.9525994,-0.10795107,0.13792048,0.0,0.0,0.0
740,1778446505060,741.0,-1.9525994,-0.10795107,0.13792048,0.0,0.0,0.0
741,1778446505070,742.0,-1.9525994,-0.10795107,0.13792048,0.0,0.0,0.0
742,1778446505080,743.0,-1.9525994,-0.10795107,0.13792048,0.0,0.0,0.0
743,1778446505090,744.0,-1.9525994,-0.10795107,0.13792048,0.0,0.0,0.0
744,1778446505100,745.0,-1.8244648,-0.09622324,-0.091850154,0.0,0.0,0.0
745,1778446505110,746.0,-1.8468909333333337,-0.0867838933333333,-0.291646278,0.0,0.0,0.0
746,1778446505120,747.0,-1.952293533333333,-0.0582721733333333,-0.3912691133333333,0.0,0.0,0.0
747,1778446505130,748.0,-1.9993883,-0.04637615,-0.3911315,0.0,0.0,0.0
748,1778446505140,749.0,-1.9993883,-0.04637615,-0.3911315,0.0,0.0,0.0
749,1778446505150,750.0,-1.9993883,-0.04637615,-0.3911315,0.0,0.0,0.0
750,1778446505160,751.0,-2.2300763,-0.022522936,-0.06402141,0.0,0.0,0.0
751,1778446505170,752.0,-2.2300763,-0.022522936,-0.06402141,0.0,0.0,0.0
752,1778446505180,753.0,-2.2300763,-0.022522936,-0.06402141,0.0,0.0,0.0
753,1778446505190,754.0,-2.2300763,-0.022522936,-0.06402141,0.0,0.0,0.0
754,1778446505200,755.0,-2.2300763,-0.022522936,-0.06402141,0.0,0.0,0.0
755,1778446505210,756.0,-2.2300763,-0.022522936,-0.06402141,0.0,0.0,0.0
756,1778446505220,757.0,-2.2300763,-0.022522936,-0.06402141,0.0,0.0,0.0
757,1778446505230,758.0,-2.3267124,0.013562691,0.13139144,0.0,0.0,0.0
758,1778446505240,759.0,-2.3267124,0.013562691,0.13139144,0.0,0.0,0.0
759,1778446505250,760.0,-2.4058104,0.030382263,0.32538226,0.0,0.0,0.0
760,1778446505260,761.0,-2.4058104,0.030382263,0.32538226,0.0,0.0,0.0
761,1778446505270,762.0,-2.4058104,0.030382263,0.32538226,0.0,0.0,0.0
762,1778446505280,763.0,-2.4058104,0.030382263,0.32538226,0.0,0.0,0.0
763,1778446505290,764.0,-2.4058104,0.030382263,0.32538226,0.0,0.0,0.0
764,1778446505300,765.0,-2.4058104,0.030382263,0.32538226,0.0,0.0,0.0
765,1778446505310,766.0,-2.4058104,0.030382263,0.32538226,0.0,0.0,0.0
766,1778446505320,767.0,-2.4058104,0.030382263,0.32538226,0.0,0.0,0.0
767,1778446505330,768.0,-2.4058104,0.030382263,0.32538226,0.0,0.0,0.0
768,1778446505340,769.0,-2.4058104,0.030382263,0.32538226,0.0,0.0,0.0
769,1778446505350,770.0,-2.4224312,0.036896024,0.54362386,0.0,0.0,0.0
770,1778446505360,771.0,-2.4224312,0.036896024,0.54362386,0.0,0.0,0.0
771,1778446505370,772.0,-2.4224312,0.036896024,0.54362386,0.0,0.0,0.0
772,1778446505380,773.0,-2.4224312,0.036896024,0.54362386,0.0,0.0,0.0
773,1778446505390,774.0,-2.421208,0.018149847,0.7134557,0.0,0.0,0.0
774,1778446505400,775.0,-2.421208,0.018149847,0.7134557,0.0,0.0,0.0
775,1778446505410,776.0,-2.421208,0.018149847,0.7134557,0.0,0.0,0.0
776,1778446505420,777.0,-2.421208,0.018149847,0.7134557,0.0,0.0,0.0
777,1778446505430,778.0,-2.421208,0.018149847,0.7134557,0.0,0.0,0.0
778,1778446505440,779.0,-2.421208,0.018149847,0.7134557,0.0,0.0,0.0
779,1778446505450,780.0,-2.421208,0.018149847,0.7134557,0.0,0.0,0.0
780,1778446505460,781.0,-2.421208,0.018149847,0.7134557,0.0,0.0,0.0
781,1778446505470,782.0,-2.421208,0.018149847,0.7134557,0.0,0.0,0.0
782,1778446505480,783.0,-2.421208,0.018149847,0.7134557,0.0,0.0,0.0
783,1778446505490,784.0,-2.421208,0.018149847,0.7134557,0.0,0.0,0.0
784,1778446505500,785.0,-2.334052,0.0088685015,0.75515294,0.0,0.0,0.0
785,1778446505510,786.0,-2.334052,0.0088685015,0.75515294,0.0,0.0,0.0
786,1778446505520,787.0,-2.334052,0.0088685015,0.75515294,0.0,0.0,0.0
787,1778446505530,788.0,-2.334052,0.0088685015,0.75515294,0.0,0.0,0.0
788,1778446505540,789.0,-2.334052,0.0088685015,0.75515294,0.0,0.0,0.0
789,1778446505550,790.0,-2.334052,0.0088685015,0.75515294,0.0,0.0,0.0
790,1778446505560,791.0,-2.334052,0.0088685015,0.75515294,0.0,0.0,0.0
791,1778446505570,792.0,-2.334052,0.0088685015,0.75515294,0.0,0.0,0.0
792,1778446505580,793.0,-2.1854281,-0.05035168,0.78735477,0.0,0.0,0.0
793,1778446505590,794.0,-2.1854281,-0.05035168,0.78735477,0.0,0.0,0.0
794,1778446505600,795.0,-2.1854281,-0.05035168,0.78735477,0.0,0.0,0.0
795,1778446505610,796.0,-2.0535830333333336,-0.0944597333333333,0.7818501633333333,0.0,0.0,0.0
796,1778446505620,797.0,-1.9876605,-0.1165137599999999,0.7790978599999999,0.0,0.0,0.0
797,1778446505630,798.0,-1.9876605,-0.11651376,0.77909786,0.0,0.0,0.0
798,1778446505640,799.0,-1.9822987,-0.1216819599999999,0.7724414200000002,0.0,0.0,0.0
799,1778446505650,800.0,-1.9796178,-0.12426606,0.7691132,0.0,0.0,0.0
800,1778446505660,801.0,-1.9796178,-0.12426606,0.7691132,0.0,0.0,0.0
801,1778446505670,802.0,-1.9796178,-0.12426606,0.7691132,0.0,0.0,0.0
802,1778446505680,803.0,-1.9796178,-0.12426606,0.7691132,0.0,0.0,0.0
803,1778446505690,804.0,-1.9796178,-0.12426606,0.7691132,0.0,0.0,0.0
804,1778446505700,805.0,-1.9796178,-0.12426606,0.7691132,0.0,0.0,0.0
805,1778446505710,806.0,-1.9796178,-0.12426606,0.7691132,0.0,0.0,0.0
806,1778446505720,807.0,-1.9796178,-0.12426606,0.7691132,0.0,0.0,0.0
807,1778446505730,808.0,-1.9796178,-0.12426606,0.7691132,0.0,0.0,0.0
808,1778446505740,809.0,-1.9796178,-0.12426606,0.7691132,0.0,0.0,0.0
809,1778446505750,810.0,-1.9796178,-0.12426606,0.7691132,0.0,0.0,0.0
810,1778446505760,811.0,-1.9796178,-0.12426606,0.7691132,0.0,0.0,0.0
811,1778446505770,812.0,-1.9796178,-0.12426606,0.7691132,0.0,0.0,0.0
812,1778446505780,813.0,-2.0521865,-0.1205963299999999,0.76666665,0.0,0.0,0.0
813,1778446505790,814.0,-2.095741575,-0.11200688,0.7751528875,0.0,0.0,0.0
814,1778446505800,815.0,-2.2264068,-0.08623853,0.8006116,0.0,0.0,0.0
815,1778446505810,816.0,-2.2264068,-0.08623853,0.8006116,0.0,0.0,0.0
816,1778446505820,817.0,-2.2264068,-0.08623853,0.8006116,0.0,0.0,0.0
817,1778446505830,818.0,-2.2264068,-0.08623853,0.8006116,0.0,0.0,0.0
818,1778446505840,819.0,-2.2264068,-0.08623853,0.8006116,0.0,0.0,0.0
819,1778446505850,820.0,-2.2852243333333333,-0.0872935766666666,0.8381905999999999,0.0,0.0,0.0
820,1778446505860,821.0,-2.5031652,-0.0911314999999999,0.9858257,0.0,0.0,0.0
821,1778446505870,822.0,-2.5031652,-0.0911315,0.9858257,0.0,0.0,0.0
822,1778446505880,823.0,-2.5031652,-0.0911314999999999,0.9858257,0.0,0.0,0.0
823,1778446505890,824.0,-2.6793540250000003,-0.2033868525,0.8177408500000001,0.0,0.0,0.0
824,1778446505900,825.0,-2.6766515,-0.2756727766666667,0.5818909200000001,0.0,0.0,0.0
825,1778446505910,826.0,-2.7886848,-0.28704894,0.46055046,0.0,0.0,0.0
826,1778446505920,827.0,-2.793302666666667,-0.3959174466666667,0.27087666,0.0,0.0,0.0
827,1778446505930,828.0,-2.7956115999999995,-0.4503516999999999,0.17603976,0.0,0.0,0.0
828,1778446505940,829.0,-2.5092711,-0.55610094,-0.0266360833333333,0.0,0.0,0.0
829,1778446505950,830.0,-2.3940825,-0.60091746,-0.08307339,0.0,0.0,0.0
830,1778446505960,831.0,-2.3940825,-0.60091746,-0.08307339,0.0,0.0,0.0
831,1778446505970,832.0,-2.3940825,-0.60091746,-0.08307339,0.0,0.0,0.0
832,1778446505980,833.0,-2.3940825,-0.60091746,-0.08307339,0.0,0.0,0.0
833,1778446505990,834.0,-2.3940825,-0.60091746,-0.08307339,0.0,0.0,0.0
834,1778446506000,835.0,-2.3940825,-0.60091746,-0.08307339,0.0,0.0,0.0
835,1778446506010,836.0,-2.3940825,-0.60091746,-0.08307339,0.0,0.0,0.0
836,1778446506020,837.0,-2.3940825,-0.60091746,-0.08307339,0.0,0.0,0.0
837,1778446506030,838.0,-2.369413833333333,-0.6002038933333333,-0.1118909266666666,0.0,0.0,0.0
838,1778446506040,839.0,-2.3200765,-0.59877676,-0.1695259999999999,0.0,0.0,0.0
839,1778446506050,840.0,-2.3200765,-0.59877676,-0.1695259999999999,0.0,0.0,0.0
840,1778446506060,841.0,-2.2535167,-0.595107,-0.2551529,0.0,0.0,0.0
841,1778446506070,842.0,-2.2535167,-0.595107,-0.2551529,0.0,0.0,0.0
842,1778446506080,843.0,-2.2535167,-0.595107,-0.2551529,0.0,0.0,0.0
843,1778446506090,844.0,-2.2535167,-0.595107,-0.2551529,0.0,0.0,0.0
844,1778446506100,845.0,-2.2535167,-0.595107,-0.2551529,0.0,0.0,0.0
845,1778446506110,846.0,-2.214679,-0.6053058,-0.2551529,0.0,0.0,0.0
846,1778446506120,847.0,-2.214679,-0.6053058,-0.2551529,0.0,0.0,0.0
847,1778446506130,848.0,-2.214679,-0.6053058,-0.2551529,0.0,0.0,0.0
848,1778446506140,849.0,-2.214679,-0.6053058,-0.2551529,0.0,0.0,0.0
849,1778446506150,850.0,-2.214679,-0.6053058,-0.2551529,0.0,0.0,0.0
850,1778446506160,851.0,-2.214679,-0.6053058,-0.2551529,0.0,0.0,0.0
851,1778446506170,852.0,-2.1715597333333334,-0.61685525,-0.1885168166666666,0.0,0.0,0.0
852,1778446506180,853.0,-2.0853212,-0.63995415,-0.05524465,0.0,0.0,0.0
853,1778446506190,854.0,-2.0853212,-0.63995415,-0.05524465,0.0,0.0,0.0
854,1778446506200,855.0,-2.0853212,-0.63995415,-0.05524465,0.0,0.0,0.0
855,1778446506210,856.0,-2.0853212,-0.63995415,-0.05524465,0.0,0.0,0.0
856,1778446506220,857.0,-2.0853212,-0.63995415,-0.05524465,0.0,0.0,0.0
857,1778446506230,858.0,-2.0853212,-0.63995415,-0.05524465,0.0,0.0,0.0
858,1778446506240,859.0,-2.0853212,-0.63995415,-0.05524465,0.0,0.0,0.0
859,1778446506250,860.0,-2.0853212,-0.63995415,-0.05524465,0.0,0.0,0.0
860,1778446506260,861.0,-2.0538225,-0.6016361,0.12619266,0.0,0.0,0.0
861,1778446506270,862.0,-2.0538225,-0.6016361,0.12619266,0.0,0.0,0.0
862,1778446506280,863.0,-2.0800509666666667,-0.5749898133333334,0.24287972,0.0,0.0,0.0
863,1778446506290,864.0,-2.0931652,-0.56166667,0.30122325,0.0,0.0,0.0
864,1778446506300,865.0,-2.1597402,-0.56166667,0.55168194,0.0,0.0,0.0
865,1778446506310,866.0,-2.1597402,-0.56166667,0.55168194,0.0,0.0,0.0
866,1778446506320,867.0,-2.1597402,-0.56166667,0.55168194,0.0,0.0,0.0
867,1778446506330,868.0,-2.1597402,-0.56166667,0.55168194,0.0,0.0,0.0
868,1778446506340,869.0,-2.1597402,-0.56166667,0.55168194,0.0,0.0,0.0
869,1778446506350,870.0,-2.1729206333333333,-0.5735270133333333,0.61488277,0.0,0.0,0.0
870,1778446506360,871.0,-2.1992815,-0.5972477,0.74128443,0.0,0.0,0.0
871,1778446506370,872.0,-2.1543680333333337,-0.64074412,0.8072069433333334,0.0,0.0,0.0
872,1778446506380,873.0,-2.1319113,-0.66249233,0.8401682,0.0,0.0,0.0
873,1778446506390,874.0,-2.1319113,-0.66249233,0.8401682,0.0,0.0,0.0
874,1778446506400,875.0,-2.1319113,-0.66249233,0.8401682,0.0,0.0,0.0
875,1778446506410,876.0,-2.1319113,-0.66249233,0.8401682,0.0,0.0,0.0
876,1778446506420,877.0,-2.1319113,-0.66249233,0.8401682,0.0,0.0,0.0
877,1778446506430,878.0,-2.1319113,-0.66249233,0.8401682,0.0,0.0,0.0
878,1778446506440,879.0,-2.1319113,-0.66249233,0.8401682,0.0,0.0,0.0
879,1778446506450,880.0,-2.1319113,-0.66249233,0.8401682,0.0,0.0,0.0
880,1778446506460,881.0,-2.1319113,-0.66249233,0.8401682,0.0,0.0,0.0
881,1778446506470,882.0,-2.103843,-0.6735320866666666,0.8441437333333334,0.0,0.0,0.0
882,1778446506480,883.0,-2.0477064,-0.6956116,0.8520948,0.0,0.0,0.0
883,1778446506490,884.0,-2.0477064,-0.6956116,0.8520948,0.0,0.0,0.0
884,1778446506500,885.0,-2.0477064,-0.6956116,0.8520948,0.0,0.0,0.0
885,1778446506510,886.0,-2.0477064,-0.6956116,0.8520948,0.0,0.0,0.0
886,1778446506520,887.0,-2.0477064,-0.6956116,0.8520948,0.0,0.0,0.0
887,1778446506530,888.0,-2.0477064,-0.6956116,0.8520948,0.0,0.0,0.0
888,1778446506540,889.0,-2.0477064,-0.6956116,0.8520948,0.0,0.0,0.0
889,1778446506550,890.0,-2.0477064,-0.6956116,0.8520948,0.0,0.0,0.0
890,1778446506560,891.0,-2.0477064,-0.6956116,0.8520948,0.0,0.0,0.0
891,1778446506570,892.0,-2.0477064,-0.6956116,0.8520948,0.0,0.0,0.0
892,1778446506580,893.0,-2.0477064,-0.6956116,0.8520948,0.0,0.0,0.0
893,1778446506590,894.0,-2.0477064,-0.6956116,0.8520948,0.0,0.0,0.0
894,1778446506600,895.0,-2.0477064,-0.6956116,0.8520948,0.0,0.0,0.0
895,1778446506610,896.0,-2.0477064,-0.6956116,0.8520948,0.0,0.0,0.0
896,1778446506620,897.0,-2.0477064,-0.6956116,0.8520948,0.0,0.0,0.0
897,1778446506630,898.0,-2.0120948,-0.7088990666666666,0.8549490333333334,0.0,0.0,0.0
898,1778446506640,899.0,-1.9408716,-0.735474,0.8606575,0.0,0.0,0.0
899,1778446506650,900.0,-1.9408716,-0.735474,0.8606575,0.0,0.0,0.0
900,1778446506660,901.0,-1.889872633333333,-0.7415545433333333,0.8613710499999999,0.0,0.0,0.0
901,1778446506670,902.0,-1.7878747,-0.75371563,0.86279815,0.0,0.0,0.0
902,1778446506680,903.0,-1.7878747,-0.75371563,0.86279815,0.0,0.0,0.0
903,1778446506690,904.0,-1.75026,-0.7575586400000001,0.8508358766666667,0.0,0.0,0.0
904,1778446506700,905.0,-1.6750306,-0.76524466,0.82691133,0.0,0.0,0.0
905,1778446506710,906.0,-1.6750306,-0.76524466,0.82691133,0.0,0.0,0.0
906,1778446506720,907.0,-1.6093833,-0.7649031733333334,0.76126402,0.0,0.0,0.0
907,1778446506730,908.0,-1.4780887,-0.7642202,0.6299694,0.0,0.0,0.0
908,1778446506740,909.0,-1.4780887,-0.7642202,0.6299694,0.0,0.0,0.0
909,1778446506750,910.0,-1.4780887,-0.7642202,0.6299694,0.0,0.0,0.0
910,1778446506760,911.0,-1.3626606,-0.75582568,0.4286085733333333,0.0,0.0,0.0
911,1778446506770,912.0,-1.3368043,-0.75810397,0.38980123,0.0,0.0,0.0
912,1778446506780,913.0,-1.3368043,-0.75810397,0.38980123,0.0,0.0,0.0
913,1778446506790,914.0,-1.3368043,-0.75810397,0.38980123,0.0,0.0,0.0
914,1778446506800,915.0,-1.3368043,-0.75810397,0.38980123,0.0,0.0,0.0
915,1778446506810,916.0,-1.0973548,-0.6954129,0.23750764,0.0,0.0,0.0
916,1778446506820,917.0,-1.0973548,-0.6954129,0.23750764,0.0,0.0,0.0
917,1778446506830,918.0,-1.0973548,-0.6954129,0.23750764,0.0,0.0,0.0
918,1778446506840,919.0,-1.0973548,-0.6954129,0.23750764,0.0,0.0,0.0
919,1778446506850,920.0,-0.9846025,-0.68103975,0.24220183,0.0,0.0,0.0
920,1778446506860,921.0,-0.8985066600000001,-0.6745158233333334,0.3640468766666667,0.0,0.0,0.0
921,1778446506870,922.0,-0.85545874,-0.6712538599999999,0.4249694,0.0,0.0,0.0
922,1778446506880,923.0,-0.8186544000000001,-0.66074926,0.5130428,0.0,0.0,0.0
923,1778446506890,924.0,-0.8186544,-0.66074926,0.5130428,0.0,0.0,0.0
924,1778446506900,925.0,-0.8186544000000001,-0.66074926,0.5130428,0.0,0.0,0.0
925,1778446506910,926.0,-0.8227319333333334,-0.68209482,0.6234098,0.0,0.0,0.0
926,1778446506920,927.0,-0.8247706999999999,-0.6927676000000001,0.6785932999999998,0.0,0.0,0.0
927,1778446506930,928.0,-0.8247706999999999,-0.6927676000000001,0.6785932999999998,0.0,0.0,0.0
928,1778446506940,929.0,-0.8247706999999999,-0.6927676000000001,0.6785932999999998,0.0,0.0,0.0
929,1778446506950,930.0,-0.8247706999999999,-0.6927676000000001,0.6785932999999998,0.0,0.0,0.0
930,1778446506960,931.0,-0.8247706999999999,-0.6927676000000001,0.6785932999999998,0.0,0.0,0.0
931,1778446506970,932.0,-0.8247706999999999,-0.6927676000000001,0.6785932999999998,0.0,0.0,0.0
932,1778446506980,933.0,-0.8247706999999999,-0.6927676000000001,0.6785932999999998,0.0,0.0,0.0
933,1778446506990,934.0,-0.8247706999999999,-0.6927676000000001,0.6785932999999998,0.0,0.0,0.0
934,1778446507000,935.0,-0.8247706999999999,-0.6927676000000001,0.6785932999999998,0.0,0.0,0.0
935,1778446507010,936.0,-0.8247707,-0.6927676,0.6785933,0.0,0.0,0.0
936,1778446507020,937.0,-0.8247706999999999,-0.6927676000000001,0.6785932999999998,0.0,0.0,0.0
937,1778446507030,938.0,-0.8247706999999999,-0.6927676000000001,0.6785932999999998,0.0,0.0,0.0
938,1778446507040,939.0,-0.75358312,-0.7178083666666667,0.6509327433333333,0.0,0.0,0.0
939,1778446507050,940.0,-0.61120796,-0.7678899,0.59561163,0.0,0.0,0.0
940,1778446507060,941.0,-0.4537156,-0.7785933000000002,0.5137615,0.0,0.0,0.0
941,1778446507070,942.0,-0.4537156,-0.7785933000000002,0.5137615,0.0,0.0,0.0
942,1778446507080,943.0,-0.39856779,-0.78087159,0.4876656666666667,0.0,0.0,0.0
943,1778446507090,944.0,-0.28827217,-0.78542817,0.4354739999999999,0.0,0.0,0.0
944,1778446507100,945.0,-0.28827217,-0.78542817,0.4354739999999999,0.0,0.0,0.0
945,1778446507110,946.0,-0.1086595313333333,-0.7693221566666666,0.38600408,0.0,0.0,0.0
946,1778446507120,947.0,-0.018853212,-0.76126915,0.36126912,0.0,0.0,0.0
947,1778446507130,948.0,-0.018853212,-0.76126915,0.36126912,0.0,0.0,0.0
948,1778446507140,949.0,-0.018853212,-0.76126915,0.36126912,0.0,0.0,0.0
949,1778446507150,950.0,-0.018853212,-0.76126915,0.36126912,0.0,0.0,0.0
950,1778446507160,951.0,-0.018853212,-0.76126915,0.36126912,0.0,0.0,0.0
951,1778446507170,952.0,-0.018853212,-0.76126915,0.36126912,0.0,0.0,0.0
952,1778446507180,953.0,0.1198279769999999,-0.7076681874999999,0.3409250775,0.0,0.0,0.0
953,1778446507190,954.0,0.16605504,-0.6898012000000001,0.33414373,0.0,0.0,0.0
954,1778446507200,955.0,0.16605504,-0.6898012000000001,0.33414373,0.0,0.0,0.0
955,1778446507210,956.0,0.16605504,-0.6898012000000001,0.33414373,0.0,0.0,0.0
956,1778446507220,957.0,0.16605504,-0.6898012000000001,0.33414373,0.0,0.0,0.0
957,1778446507230,958.0,0.2351682,-0.6206881,0.33730888,0.0,0.0,0.0
958,1778446507240,959.0,0.27553516,-0.5792405666666667,0.3466157133333333,0.0,0.0,0.0
959,1778446507250,960.0,0.29571864,-0.5585168,0.35126913,0.0,0.0,0.0
960,1778446507260,961.0,0.29571864,-0.5585168,0.35126913,0.0,0.0,0.0
961,1778446507270,962.0,0.29571864,-0.5585168,0.35126913,0.0,0.0,0.0
962,1778446507280,963.0,0.29571864,-0.5585168,0.35126913,0.0,0.0,0.0
963,1778446507290,964.0,0.29571864,-0.5585168,0.35126913,0.0,0.0,0.0
964,1778446507300,965.0,0.29571864,-0.5585168,0.35126913,0.0,0.0,0.0
965,1778446507310,966.0,0.29571864,-0.5585168,0.35126913,0.0,0.0,0.0
966,1778446507320,967.0,0.4240519999999999,-0.51142204,0.28512233,0.0,0.0,0.0
967,1778446507330,968.0,0.424052,-0.51142204,0.28512233,0.0,0.0,0.0
968,1778446507340,969.0,0.4240519999999999,-0.51142204,0.28512233,0.0,0.0,0.0
969,1778446507350,970.0,0.4240519999999999,-0.51142204,0.28512233,0.0,0.0,0.0
970,1778446507360,971.0,0.4240519999999999,-0.51142204,0.28512233,0.0,0.0,0.0
971,1778446507370,972.0,0.4240519999999999,-0.51142204,0.28512233,0.0,0.0,0.0
972,1778446507380,973.0,0.4240519999999999,-0.51142204,0.28512233,0.0,0.0,0.0
973,1778446507390,974.0,0.5257951,-0.45891437,0.08328746,0.0,0.0,0.0
974,1778446507400,975.0,0.5257951,-0.45891437,0.08328746,0.0,0.0,0.0
975,1778446507410,976.0,0.5257951,-0.45891437,0.08328746,0.0,0.0,0.0
976,1778446507420,977.0,0.5257951,-0.45891437,0.08328746,0.0,0.0,0.0
977,1778446507430,978.0,0.5257951,-0.45891437,0.08328746,0.0,0.0,0.0
978,1778446507440,979.0,0.5257951,-0.45891437,0.08328746,0.0,0.0,0.0
979,1778446507450,980.0,0.543685,-0.4503019825,0.0539525975,0.0,0.0,0.0
980,1778446507460,981.0,0.5973547,-0.42446482,-0.03405199,0.0,0.0,0.0
981,1778446507470,982.0,0.5973547,-0.42446482,-0.03405199,0.0,0.0,0.0
982,1778446507480,983.0,0.5973547,-0.42446482,-0.03405199,0.0,0.0,0.0
983,1778446507490,984.0,0.5973547,-0.42446482,-0.03405199,0.0,0.0,0.0
984,1778446507500,985.0,0.75418195,-0.375435785,-0.219625385,0.0,0.0,0.0
985,1778446507510,986.0,0.9110092,-0.32640675,-0.4051987799999999,0.0,0.0,0.0
986,1778446507520,987.0,0.9110092,-0.32640675,-0.4051987799999999,0.0,0.0,0.0
987,1778446507530,988.0,0.9110092,-0.32640675,-0.4051987799999999,0.0,0.0,0.0
988,1778446507540,989.0,0.9110092,-0.32640675,-0.4051987799999999,0.0,0.0,0.0
989,1778446507550,990.0,1.0346636,-0.28899083,-0.44506118,0.0,0.0,0.0
990,1778446507560,991.0,1.0806268,-0.21876147,-0.4212997,0.0,0.0,0.0
991,1778446507570,992.0,1.080194875,-0.2101452625,-0.4008104,0.0,0.0,0.0
992,1778446507580,993.0,1.0788991,-0.18429664,-0.3393425,0.0,0.0,0.0
993,1778446507590,994.0,1.0788991,-0.18429664,-0.3393425,0.0,0.0,0.0
994,1778446507600,995.0,1.0788991,-0.18429664,-0.3393425,0.0,0.0,0.0
995,1778446507610,996.0,1.0447553,-0.118455656,-0.25218654,0.0,0.0,0.0
996,1778446507620,997.0,1.0447553,-0.118455656,-0.25218654,0.0,0.0,0.0
997,1778446507630,998.0,1.0447553,-0.118455656,-0.25218654,0.0,0.0,0.0
998,1778446507640,999.0,1.0447553,-0.118455656,-0.25218654,0.0,0.0,0.0
999,1778446507650,1000.0,1.0019418666666666,-0.054979612,-0.1940825666666666,0.0,0.0,0.0
1000,1778446507660,1001.0,0.98053515,-0.02324159,-0.16503058,0.0,0.0,0.0
