id,timestamp,id,acc_x,acc_y,acc_z,gyro_x,gyro_y,gyro_z
0,1778446558770,1.0,0.11651376,0.26463303,0.94873095,0.0,0.0,0.0
1,1778446558780,2.0,0.105606522,0.27132518,0.9733996333333332,0.0,0.0,0.0
2,1778446558790,3.0,0.094699284,0.27801733,0.9980683166666666,0.0,0.0,0.0
3,1778446558800,4.0,0.083792046,0.28470948,1.022737,0.0,0.0,0.0
4,1778446558810,5.0,0.083792046,0.28470948,1.022737,0.0,0.0,0.0
5,1778446558820,6.0,0.07186545,0.29591742,1.0509634,0.0,0.0,0.0
6,1778446558830,7.0,0.05821101,0.29836392,1.0607493,0.0,0.0,0.0
7,1778446558840,8.0,0.05821101,0.29836392,1.0607493,0.0,0.0,0.0
8,1778446558850,9.0,0.05821101,0.29836392,1.0607493,0.0,0.0,0.0
9,1778446558860,10.0,0.05821101,0.29836392,1.0607493,0.0,0.0,0.0
10,1778446558870,11.0,0.05821101,0.29836392,1.0607493,0.0,0.0,0.0
11,1778446558880,12.0,0.05821101,0.29836392,1.0607493,0.0,0.0,0.0
12,1778446558890,13.0,0.05821101,0.29836392,1.0607493,0.0,0.0,0.0
13,1778446558900,14.0,0.05821101,0.29836392,1.0607493,0.0,0.0,0.0
14,1778446558910,15.0,0.05821101,0.29836392,1.0607493,0.0,0.0,0.0
15,1778446558920,16.0,0.05821101,0.29836392,1.0607493,0.0,0.0,0.0
16,1778446558930,17.0,0.05821101,0.29836392,1.0607493,0.0,0.0,0.0
17,1778446558940,18.0,0.05821101,0.29836392,1.0607493,0.0,0.0,0.0
18,1778446558950,19.0,0.05821101,0.29836392,1.0607493,0.0,0.0,0.0
19,1778446558960,20.0,0.054281345,0.29775231,1.0833334,0.0,0.0,0.0
20,1778446558970,21.0,0.05035168,0.2971407,1.1059175,0.0,0.0,0.0
21,1778446558980,22.0,0.05035168,0.2971407,1.1059175,0.0,0.0,0.0
22,1778446558990,23.0,0.0580504575,0.30030582,1.1276299500000002,0.0,0.0,0.0
23,1778446559000,24.0,0.12680428,0.27022937,1.1146789,0.0,0.0,0.0
24,1778446559010,25.0,0.12680428,0.27022937,1.1146789,0.0,0.0,0.0
25,1778446559020,26.0,0.12680428,0.27022937,1.1146789,0.0,0.0,0.0
26,1778446559030,27.0,0.12680428,0.27022937,1.1146789,0.0,0.0,0.0
27,1778446559040,28.0,0.12680428,0.27022937,1.1146789,0.0,0.0,0.0
28,1778446559050,29.0,0.12680428,0.27022937,1.1146789,0.0,0.0,0.0
29,1778446559060,30.0,0.12680428,0.27022937,1.1146789,0.0,0.0,0.0
30,1778446559070,31.0,0.157698775,0.262740845,1.0625344,0.0,0.0,0.0
31,1778446559080,32.0,0.16799694,0.26024467,1.0451529,0.0,0.0,0.0
32,1778446559090,33.0,0.16799694,0.26024467,1.0451529,0.0,0.0,0.0
33,1778446559100,34.0,0.16799694,0.26024467,1.0451529,0.0,0.0,0.0
34,1778446559110,35.0,0.1786646266666667,0.2605861466666666,1.01831295,0.0,0.0,0.0
35,1778446559120,36.0,0.2,0.2612691,0.96463305,0.0,0.0,0.0
36,1778446559130,37.0,0.2,0.2612691,0.96463305,0.0,0.0,0.0
37,1778446559140,38.0,0.2,0.2612691,0.96463305,0.0,0.0,0.0
38,1778446559150,39.0,0.2,0.2612691,0.96463305,0.0,0.0,0.0
39,1778446559160,40.0,0.2,0.2612691,0.96463305,0.0,0.0,0.0
40,1778446559170,41.0,0.2,0.2612691,0.96463305,0.0,0.0,0.0
41,1778446559180,42.0,0.2,0.2612691,0.96463305,0.0,0.0,0.0
42,1778446559190,43.0,0.2,0.2612691,0.96463305,0.0,0.0,0.0
43,1778446559200,44.0,0.2,0.2612691,0.96463305,0.0,0.0,0.0
44,1778446559210,45.0,0.2,0.2612691,0.96463305,0.0,0.0,0.0
45,1778446559220,46.0,0.2,0.2612691,0.96463305,0.0,0.0,0.0
46,1778446559230,47.0,0.2,0.2612691,0.96463305,0.0,0.0,0.0
47,1778446559240,48.0,0.2,0.2612691,0.96463305,0.0,0.0,0.0
48,1778446559250,49.0,0.2,0.2612691,0.96463305,0.0,0.0,0.0
49,1778446559260,50.0,0.2,0.2612691,0.96463305,0.0,0.0,0.0
50,1778446559270,51.0,0.2008154933333333,0.26453108,0.9399643333333332,0.0,0.0,0.0
51,1778446559280,52.0,0.20244648,0.27105504,0.8906269,0.0,0.0,0.0
52,1778446559290,53.0,0.20244648,0.27105504,0.8906269,0.0,0.0,0.0
53,1778446559300,54.0,0.20244648,0.27105504,0.8906269,0.0,0.0,0.0
54,1778446559310,55.0,0.20244648,0.27105504,0.8906269,0.0,0.0,0.0
55,1778446559320,56.0,0.20244648,0.27105504,0.8906269,0.0,0.0,0.0
56,1778446559330,57.0,0.11773701,0.31814983,0.7722783,0.0,0.0,0.0
57,1778446559340,58.0,0.1177370099999999,0.31814983,0.7722783,0.0,0.0,0.0
58,1778446559350,59.0,0.11773701,0.31814983,0.7722783,0.0,0.0,0.0
59,1778446559360,60.0,0.1177370099999999,0.31814983,0.7722783,0.0,0.0,0.0
60,1778446559370,61.0,0.11773701,0.31814983,0.7722783,0.0,0.0,0.0
61,1778446559380,62.0,0.1177370099999999,0.31814983,0.7722783,0.0,0.0,0.0
62,1778446559390,63.0,0.1177370099999999,0.31814983,0.7722783,0.0,0.0,0.0
63,1778446559400,64.0,0.1177370099999999,0.31814983,0.7722783,0.0,0.0,0.0
64,1778446559410,65.0,0.109579515,0.325435765,0.7722783,0.0,0.0,0.0
65,1778446559420,66.0,0.10142202,0.3327217,0.7722783,0.0,0.0,0.0
66,1778446559430,67.0,0.10142202,0.3327217,0.7722783,0.0,0.0,0.0
67,1778446559440,68.0,0.10142202,0.3327217,0.7722783,0.0,0.0,0.0
68,1778446559450,69.0,0.10142202,0.3327217,0.7722783,0.0,0.0,0.0
69,1778446559460,70.0,0.10142202,0.3327217,0.7722783,0.0,0.0,0.0
70,1778446559470,71.0,0.10142202,0.3327217,0.7722783,0.0,0.0,0.0
71,1778446559480,72.0,0.10142202,0.3327217,0.7722783,0.0,0.0,0.0
72,1778446559490,73.0,0.10142202,0.3327217,0.7722783,0.0,0.0,0.0
73,1778446559500,74.0,0.10142202,0.3327217,0.7722783,0.0,0.0,0.0
74,1778446559510,75.0,0.10142202,0.3327217,0.7722783,0.0,0.0,0.0
75,1778446559520,76.0,0.10142202,0.3327217,0.7722783,0.0,0.0,0.0
76,1778446559530,77.0,0.10142202,0.3327217,0.7722783,0.0,0.0,0.0
77,1778446559540,78.0,0.0734301733333333,0.3370030466666667,0.8004128333333332,0.0,0.0,0.0
78,1778446559550,79.0,0.0529102943333333,0.3374108066666666,0.8671101,0.0,0.0,0.0
79,1778446559560,80.0,0.039862383,0.33394498,0.9723701,0.0,0.0,0.0
80,1778446559570,81.0,0.039862383,0.33394498,0.9723701,0.0,0.0,0.0
81,1778446559580,82.0,0.039862383,0.33394498,0.9723701,0.0,0.0,0.0
82,1778446559590,83.0,0.039862383,0.33394498,0.9723701,0.0,0.0,0.0
83,1778446559600,84.0,0.039862383,0.33394498,0.9723701,0.0,0.0,0.0
84,1778446559610,85.0,0.05482033475,0.3314984925,0.971529125,0.0,0.0,0.0
85,1778446559620,86.0,0.09969419,0.32415903,0.9690062,0.0,0.0,0.0
86,1778446559630,87.0,0.09969419,0.32415903,0.9690062,0.0,0.0,0.0
87,1778446559640,88.0,0.09969419,0.32415903,0.9690062,0.0,0.0,0.0
88,1778446559650,89.0,0.09969419,0.32415903,0.9690062,0.0,0.0,0.0
89,1778446559660,90.0,0.09969419,0.32415903,0.9690062,0.0,0.0,0.0
90,1778446559670,91.0,0.09969419,0.32415903,0.9690062,0.0,0.0,0.0
91,1778446559680,92.0,0.1025496965,0.3236238625,0.9601644425,0.0,0.0,0.0
92,1778446559690,93.0,0.111116216,0.32201836,0.93363917,0.0,0.0,0.0
93,1778446559700,94.0,0.111116216,0.32201836,0.93363917,0.0,0.0,0.0
94,1778446559710,95.0,0.111116216,0.32201836,0.93363917,0.0,0.0,0.0
95,1778446559720,96.0,0.111116216,0.32201836,0.93363917,0.0,0.0,0.0
96,1778446559730,97.0,0.111116216,0.32201836,0.93363917,0.0,0.0,0.0
97,1778446559740,98.0,0.111116216,0.32201836,0.93363917,0.0,0.0,0.0
98,1778446559750,99.0,0.111116216,0.32201836,0.93363917,0.0,0.0,0.0
99,1778446559760,100.0,0.111116216,0.32201836,0.93363917,0.0,0.0,0.0
100,1778446559770,101.0,0.111116216,0.32201836,0.93363917,0.0,0.0,0.0
101,1778446559780,102.0,0.111116216,0.32201836,0.93363917,0.0,0.0,0.0
102,1778446559790,103.0,0.111116216,0.32201836,0.93363917,0.0,0.0,0.0
103,1778446559800,104.0,0.1191284453333333,0.3186238533333334,0.89523955,0.0,0.0,0.0
104,1778446559810,105.0,0.12313456,0.3169266,0.87603974,0.0,0.0,0.0
105,1778446559820,106.0,0.12313456,0.3169266,0.87603974,0.0,0.0,0.0
106,1778446559830,107.0,0.12313456,0.3169266,0.87603974,0.0,0.0,0.0
107,1778446559840,108.0,0.11651376,0.311315,0.8472018,0.0,0.0,0.0
108,1778446559850,109.0,0.1051987766666666,0.3122681,0.8454994666666668,0.0,0.0,0.0
109,1778446559860,110.0,0.0435321099999999,0.32344037,0.8788991,0.0,0.0,0.0
110,1778446559870,111.0,0.04353211,0.32344037,0.8788991,0.0,0.0,0.0
111,1778446559880,112.0,0.0435321099999999,0.32344037,0.8788991,0.0,0.0,0.0
112,1778446559890,113.0,0.0435321099999999,0.32344037,0.8788991,0.0,0.0,0.0
113,1778446559900,114.0,0.04353211,0.32344037,0.8788991,0.0,0.0,0.0
114,1778446559910,115.0,0.0435321099999999,0.32344037,0.8788991,0.0,0.0,0.0
115,1778446559920,116.0,0.04353211,0.32344037,0.8788991,0.0,0.0,0.0
116,1778446559930,117.0,0.0435321099999999,0.32344037,0.8788991,0.0,0.0,0.0
117,1778446559940,118.0,0.0435321099999999,0.32344037,0.8788991,0.0,0.0,0.0
118,1778446559950,119.0,0.04353211,0.32344037,0.8788991,0.0,0.0,0.0
119,1778446559960,120.0,0.019701835,0.3272400625,0.89469801,0.0,0.0,0.0
120,1778446559970,121.0,-0.0041284399999999,0.331039755,0.91049692,0.0,0.0,0.0
121,1778446559980,122.0,-0.0279587149999999,0.3348394475,0.92629583,0.0,0.0,0.0
122,1778446559990,123.0,-0.05178899,0.33863914,0.94209474,0.0,0.0,0.0
123,1778446560000,124.0,-0.17455148,0.3449592266666667,0.98888376,0.0,0.0,0.0
124,1778446560010,125.0,-0.29731397,0.3512793133333333,1.03567278,0.0,0.0,0.0
125,1778446560020,126.0,-0.42007646,0.3575994,1.0824618,0.0,0.0,0.0
126,1778446560030,127.0,-0.42007646,0.3575994,1.0824618,0.0,0.0,0.0
127,1778446560040,128.0,-0.6623853,0.37328747,1.1197706,0.0,0.0,0.0
128,1778446560050,129.0,-0.6623853,0.37328747,1.1197706,0.0,0.0,0.0
129,1778446560060,130.0,-0.6623853,0.37328747,1.1197706,0.0,0.0,0.0
130,1778446560070,131.0,-0.6623853,0.37328747,1.1197706,0.0,0.0,0.0
131,1778446560080,132.0,-0.6623853,0.37328747,1.1197706,0.0,0.0,0.0
132,1778446560090,133.0,-0.6623853,0.37328747,1.1197706,0.0,0.0,0.0
133,1778446560100,134.0,-0.6623853,0.37328747,1.1197706,0.0,0.0,0.0
134,1778446560110,135.0,-0.6623853,0.37328747,1.1197706,0.0,0.0,0.0
135,1778446560120,136.0,-0.6623853,0.37328747,1.1197706,0.0,0.0,0.0
136,1778446560130,137.0,-0.6623853,0.37328747,1.1197706,0.0,0.0,0.0
137,1778446560140,138.0,-0.6623853,0.37328747,1.1197706,0.0,0.0,0.0
138,1778446560150,139.0,-0.6623853,0.37328747,1.1197706,0.0,0.0,0.0
139,1778446560160,140.0,-0.7138378999999999,0.3774923625,1.1204587,0.0,0.0,0.0
140,1778446560170,141.0,-0.9784913666666668,0.40003568,1.122523,0.0,0.0,0.0
141,1778446560180,142.0,-1.0336392,0.405,1.122523,0.0,0.0,0.0
142,1778446560190,143.0,-1.0336392,0.405,1.122523,0.0,0.0,0.0
143,1778446560200,144.0,-1.0336392,0.405,1.122523,0.0,0.0,0.0
144,1778446560210,145.0,-1.0336392,0.405,1.122523,0.0,0.0,0.0
145,1778446560220,146.0,-1.0336392,0.405,1.122523,0.0,0.0,0.0
146,1778446560230,147.0,-1.0336392,0.405,1.122523,0.0,0.0,0.0
147,1778446560240,148.0,-1.0336392,0.405,1.122523,0.0,0.0,0.0
148,1778446560250,149.0,-1.0336392,0.405,1.122523,0.0,0.0,0.0
149,1778446560260,150.0,-1.0336392,0.405,1.122523,0.0,0.0,0.0
150,1778446560270,151.0,-1.0336392,0.405,1.122523,0.0,0.0,0.0
151,1778446560280,152.0,-1.0336392,0.405,1.122523,0.0,0.0,0.0
152,1778446560290,153.0,-1.0336392,0.405,1.122523,0.0,0.0,0.0
153,1778446560300,154.0,-1.0336392,0.405,1.122523,0.0,0.0,0.0
154,1778446560310,155.0,-1.0336392,0.405,1.122523,0.0,0.0,0.0
155,1778446560320,156.0,-1.0336392,0.405,1.122523,0.0,0.0,0.0
156,1778446560330,157.0,-1.148348666666667,0.4100255066666666,1.1539195333333332,0.0,0.0,0.0
157,1778446560340,158.0,-1.2057034,0.41253826,1.1696178,0.0,0.0,0.0
158,1778446560350,159.0,-1.2057034,0.41253826,1.1696178,0.0,0.0,0.0
159,1778446560360,160.0,-1.2852854666666669,0.4777777866666666,1.3223904666666666,0.0,0.0,0.0
160,1778446560370,161.0,-1.3250765,0.51039755,1.3987768,0.0,0.0,0.0
161,1778446560380,162.0,-1.3250765,0.51039755,1.3987768,0.0,0.0,0.0
162,1778446560390,163.0,-1.3270183,0.5119266,1.4405656999999998,0.0,0.0,0.0
163,1778446560400,164.0,-1.3270183,0.5119266,1.4405656999999998,0.0,0.0,0.0
164,1778446560410,165.0,-1.3270183,0.5119266,1.4405657,0.0,0.0,0.0
165,1778446560420,166.0,-1.3270183,0.5119266,1.4405656999999998,0.0,0.0,0.0
166,1778446560430,167.0,-1.3270183,0.5119266,1.4405656999999998,0.0,0.0,0.0
167,1778446560440,168.0,-1.3270183,0.5119266,1.4405657,0.0,0.0,0.0
168,1778446560450,169.0,-1.3270183,0.5119266,1.4405656999999998,0.0,0.0,0.0
169,1778446560460,170.0,-1.3270183,0.5119266,1.4405656999999998,0.0,0.0,0.0
170,1778446560470,171.0,-1.2576911,0.44597858,1.5525994,0.0,0.0,0.0
171,1778446560480,172.0,-1.2576911,0.44597858,1.5525994,0.0,0.0,0.0
172,1778446560490,173.0,-1.2576911,0.44597858,1.5525994,0.0,0.0,0.0
173,1778446560500,174.0,-1.2576911,0.44597858,1.5525994,0.0,0.0,0.0
174,1778446560510,175.0,-1.2576911,0.44597858,1.5525994,0.0,0.0,0.0
175,1778446560520,176.0,-1.2576911,0.44597858,1.5525994,0.0,0.0,0.0
176,1778446560530,177.0,-1.2576911,0.44597858,1.5525994,0.0,0.0,0.0
177,1778446560540,178.0,-1.2576911,0.44597858,1.5525994,0.0,0.0,0.0
178,1778446560550,179.0,-1.2576911,0.44597858,1.5525994,0.0,0.0,0.0
179,1778446560560,180.0,-1.2576911,0.44597858,1.5525994,0.0,0.0,0.0
180,1778446560570,181.0,-1.2576911,0.44597858,1.5525994,0.0,0.0,0.0
181,1778446560580,182.0,-1.2576911,0.44597858,1.5525994,0.0,0.0,0.0
182,1778446560590,183.0,-0.99408257,0.05351682,1.774205,0.0,0.0,0.0
183,1778446560600,184.0,-0.99408257,0.05351682,1.774205,0.0,0.0,0.0
184,1778446560610,185.0,-0.99408257,0.05351682,1.774205,0.0,0.0,0.0
185,1778446560620,186.0,-0.99408257,0.05351682,1.774205,0.0,0.0,0.0
186,1778446560630,187.0,-0.99408257,0.05351682,1.774205,0.0,0.0,0.0
187,1778446560640,188.0,-0.6994954300000001,-0.03353211,1.9051987,0.0,0.0,0.0
188,1778446560650,189.0,-0.6994954300000001,-0.03353211,1.9051987,0.0,0.0,0.0
189,1778446560660,190.0,-0.69949543,-0.03353211,1.9051987,0.0,0.0,0.0
190,1778446560670,191.0,-0.6994954300000001,-0.03353211,1.9051987,0.0,0.0,0.0
191,1778446560680,192.0,-0.69949543,-0.03353211,1.9051987,0.0,0.0,0.0
192,1778446560690,193.0,-0.6994954300000001,-0.03353211,1.9051987,0.0,0.0,0.0
193,1778446560700,194.0,-0.6994954300000001,-0.03353211,1.9051987,0.0,0.0,0.0
194,1778446560710,195.0,-0.69949543,-0.03353211,1.9051987,0.0,0.0,0.0
195,1778446560720,196.0,-0.6994954300000001,-0.03353211,1.9051987,0.0,0.0,0.0
196,1778446560730,197.0,-0.69949543,-0.03353211,1.9051987,0.0,0.0,0.0
197,1778446560740,198.0,-0.6994954300000001,-0.03353211,1.9051987,0.0,0.0,0.0
198,1778446560750,199.0,-0.69949543,-0.03353211,1.9051987,0.0,0.0,0.0
199,1778446560760,200.0,-0.6994954300000001,-0.03353211,1.9051987,0.0,0.0,0.0
200,1778446560770,201.0,-0.72790012,0.0079561666666666,1.8935779333333331,0.0,0.0,0.0
201,1778446560780,202.0,-0.7847095,0.09093272,1.8703364,0.0,0.0,0.0
202,1778446560790,203.0,-0.7847095,0.09093272,1.8703364,0.0,0.0,0.0
203,1778446560800,204.0,-0.88081042,0.17984327,1.81704515,0.0,0.0,0.0
204,1778446560810,205.0,-0.91284406,0.2094801199999999,1.7992814,0.0,0.0,0.0
205,1778446560820,206.0,-0.91284406,0.2094801199999999,1.7992814,0.0,0.0,0.0
206,1778446560830,207.0,-0.91284406,0.20948012,1.7992814,0.0,0.0,0.0
207,1778446560840,208.0,-0.91284406,0.2094801199999999,1.7992814,0.0,0.0,0.0
208,1778446560850,209.0,-0.91284406,0.20948012,1.7992814,0.0,0.0,0.0
209,1778446560860,210.0,-0.7627573999999999,0.2482823633333333,1.3695871999999998,0.0,0.0,0.0
210,1778446560870,211.0,-0.46258408,0.32588685,0.5101988,0.0,0.0,0.0
211,1778446560880,212.0,-0.58485856,0.3077178925,0.79019115,0.0,0.0,0.0
212,1778446560890,213.0,-0.951682,0.25321102,1.6301682,0.0,0.0,0.0
213,1778446560900,214.0,-0.951682,0.25321102,1.6301682,0.0,0.0,0.0
214,1778446560910,215.0,-0.951682,0.25321102,1.6301682,0.0,0.0,0.0
215,1778446560920,216.0,-0.9042813,0.31712538,1.2809327,0.0,0.0,0.0
216,1778446560930,217.0,-0.9042813,0.31712538,1.2809327,0.0,0.0,0.0
217,1778446560940,218.0,-0.9042813,0.31712538,1.2809327,0.0,0.0,0.0
218,1778446560950,219.0,-0.9042813,0.31712538,1.2809327,0.0,0.0,0.0
219,1778446560960,220.0,-0.9042813,0.31712538,1.2809327,0.0,0.0,0.0
220,1778446560970,221.0,-0.9042813,0.31712538,1.2809327,0.0,0.0,0.0
221,1778446560980,222.0,-0.8283027000000001,0.3321100966666666,1.1171559533333333,0.0,0.0,0.0
222,1778446560990,223.0,-0.6763455,0.36207953,0.78960246,0.0,0.0,0.0
223,1778446561000,224.0,-0.6763455,0.36207953,0.7896024599999999,0.0,0.0,0.0
224,1778446561010,225.0,-0.6763455,0.36207953,0.78960246,0.0,0.0,0.0
225,1778446561020,226.0,-0.6763455,0.36207953,0.7896024599999999,0.0,0.0,0.0
226,1778446561030,227.0,-0.6763455,0.36207953,0.78960246,0.0,0.0,0.0
227,1778446561040,228.0,-0.6763455,0.36207953,0.7896024599999999,0.0,0.0,0.0
228,1778446561050,229.0,-0.6763455,0.36207953,0.7896024599999999,0.0,0.0,0.0
229,1778446561060,230.0,-0.6763455,0.36207953,0.78960246,0.0,0.0,0.0
230,1778446561070,231.0,-0.6285065833333333,0.3634403733333333,0.7295616733333333,0.0,0.0,0.0
231,1778446561080,232.0,-0.53282875,0.36616206,0.6094801,0.0,0.0,0.0
232,1778446561090,233.0,-0.53282875,0.36616206,0.6094801,0.0,0.0,0.0
233,1778446561100,234.0,-0.53282875,0.36616206,0.6094801,0.0,0.0,0.0
234,1778446561110,235.0,-0.44423547,0.2861315,0.39571866,0.0,0.0,0.0
235,1778446561120,236.0,-0.44423547,0.2861315,0.39571866,0.0,0.0,0.0
236,1778446561130,237.0,-0.43811926,0.25637615,0.27828744,0.0,0.0,0.0
237,1778446561140,238.0,-0.4381192599999999,0.25637615,0.27828744,0.0,0.0,0.0
238,1778446561150,239.0,-0.4381192599999999,0.25637615,0.27828744,0.0,0.0,0.0
239,1778446561160,240.0,-0.4381192599999999,0.25637615,0.27828744,0.0,0.0,0.0
240,1778446561170,241.0,-0.43811926,0.25637615,0.27828744,0.0,0.0,0.0
241,1778446561180,242.0,-0.43811926,0.25637615,0.27828744,0.0,0.0,0.0
242,1778446561190,243.0,-0.43811926,0.25637615,0.27828744,0.0,0.0,0.0
243,1778446561200,244.0,-0.43811926,0.25637615,0.27828744,0.0,0.0,0.0
244,1778446561210,245.0,-0.43811926,0.25637615,0.27828744,0.0,0.0,0.0
245,1778446561220,246.0,-0.4381192599999999,0.25637615,0.27828744,0.0,0.0,0.0
246,1778446561230,247.0,-0.44353214,0.19827217,0.26360857,0.0,0.0,0.0
247,1778446561240,248.0,-0.4434301866666666,0.2200866466666666,0.2612640233333333,0.0,0.0,0.0
248,1778446561250,249.0,-0.44322628,0.2637156,0.25657493,0.0,0.0,0.0
249,1778446561260,250.0,-0.44322628,0.2637156,0.25657493,0.0,0.0,0.0
250,1778446561270,251.0,-0.44322628,0.2637156,0.25657493,0.0,0.0,0.0
251,1778446561280,252.0,-0.4456727933333333,0.2625535333333333,0.2829459766666666,0.0,0.0,0.0
252,1778446561290,253.0,-0.44689605,0.2619725,0.2961315,0.0,0.0,0.0
253,1778446561300,254.0,-0.44689605,0.2619725,0.2961315,0.0,0.0,0.0
254,1778446561310,255.0,-0.44689605,0.2619725,0.2961315,0.0,0.0,0.0
255,1778446561320,256.0,-0.39296636,0.2043884,0.30102447,0.0,0.0,0.0
256,1778446561330,257.0,-0.39296636,0.2043884,0.30102447,0.0,0.0,0.0
257,1778446561340,258.0,-0.39296636,0.2043884,0.30102447,0.0,0.0,0.0
258,1778446561350,259.0,-0.3095106999999999,0.1708817666666666,0.24549949,0.0,0.0,0.0
259,1778446561360,260.0,-0.26778287,0.15412845,0.217737,0.0,0.0,0.0
260,1778446561370,261.0,-0.26778287,0.15412845,0.2177369999999999,0.0,0.0,0.0
261,1778446561380,262.0,-0.26778287,0.15412845,0.217737,0.0,0.0,0.0
262,1778446561390,263.0,-0.23523445,0.09289501,0.21529052,0.0,0.0,0.0
263,1778446561400,264.0,-0.21896024,0.0622782899999999,0.21406728,0.0,0.0,0.0
264,1778446561410,265.0,-0.21896024,0.06227829,0.21406728,0.0,0.0,0.0
265,1778446561420,266.0,-0.21896024,0.0622782899999999,0.21406728,0.0,0.0,0.0
266,1778446561430,267.0,-0.2078848066666666,0.0191284433333333,0.2120285466666666,0.0,0.0,0.0
267,1778446561440,268.0,-0.18573394,-0.06717125,0.20795108,0.0,0.0,0.0
268,1778446561450,269.0,-0.18573394,-0.06717125,0.20795108,0.0,0.0,0.0
269,1778446561460,270.0,-0.125336388,-0.18211009,0.18369267,0.0,0.0,0.0
270,1778446561470,271.0,-0.064938836,-0.29704893,0.15943426,0.0,0.0,0.0
271,1778446561480,272.0,-0.064938836,-0.29704893,0.15943426,0.0,0.0,0.0
272,1778446561490,273.0,-0.064938836,-0.29704893,0.15943426,0.0,0.0,0.0
273,1778446561500,274.0,-0.064938836,-0.29704893,0.15943426,0.0,0.0,0.0
274,1778446561510,275.0,-0.064938836,-0.29704893,0.15943426,0.0,0.0,0.0
275,1778446561520,276.0,-0.064938836,-0.29704893,0.15943426,0.0,0.0,0.0
276,1778446561530,277.0,-0.064938836,-0.29704893,0.15943426,0.0,0.0,0.0
277,1778446561540,278.0,-0.064938836,-0.29704893,0.15943426,0.0,0.0,0.0
278,1778446561550,279.0,-0.064938836,-0.29704893,0.15943426,0.0,0.0,0.0
279,1778446561560,280.0,-0.064938836,-0.29704893,0.15943426,0.0,0.0,0.0
280,1778446561570,281.0,0.072270642,-0.323448015,0.1646789,0.0,0.0,0.0
281,1778446561580,282.0,0.2094801199999999,-0.3498471,0.16992354,0.0,0.0,0.0
282,1778446561590,283.0,0.20948012,-0.3498471,0.16992354,0.0,0.0,0.0
283,1778446561600,284.0,0.20948012,-0.3498471,0.16992354,0.0,0.0,0.0
284,1778446561610,285.0,0.2094801199999999,-0.3498471,0.16992354,0.0,0.0,0.0
285,1778446561620,286.0,0.2094801199999999,-0.3498471,0.16992354,0.0,0.0,0.0
286,1778446561630,287.0,0.20948012,-0.3498471,0.16992354,0.0,0.0,0.0
287,1778446561640,288.0,0.3247400533333333,-0.3932721666666667,0.2232772666666666,0.0,0.0,0.0
288,1778446561650,289.0,0.225244648,-0.3343578166666667,0.45177878,0.0,0.0,0.0
289,1778446561660,290.0,0.089189604,-0.37717125,0.37512234,0.0,0.0,0.0
290,1778446561670,291.0,0.1504587159999999,-0.3673802233333333,0.3710142733333333,0.0,0.0,0.0
291,1778446561680,292.0,0.076253824,-0.41865444,0.24923548,0.0,0.0,0.0
292,1778446561690,293.0,0.076253824,-0.41865444,0.2492354799999999,0.0,0.0,0.0
293,1778446561700,294.0,0.076253824,-0.41865444,0.2492354799999999,0.0,0.0,0.0
294,1778446561710,295.0,0.076253824,-0.41865444,0.24923548,0.0,0.0,0.0
295,1778446561720,296.0,0.076253824,-0.41865444,0.2492354799999999,0.0,0.0,0.0
296,1778446561730,297.0,0.076253824,-0.41865444,0.2492354799999999,0.0,0.0,0.0
297,1778446561740,298.0,0.228922016,-0.6312729475000001,0.1509212605,0.0,0.0,0.0
298,1778446561750,299.0,0.51120794,-0.7215137500000001,0.118149854,0.0,0.0,0.0
299,1778446561760,300.0,0.51120794,-0.72151375,0.118149854,0.0,0.0,0.0
300,1778446561770,301.0,0.51120794,-0.7215137500000001,0.118149854,0.0,0.0,0.0
301,1778446561780,302.0,0.51120794,-0.7215137500000001,0.118149854,0.0,0.0,0.0
302,1778446561790,303.0,0.51120794,-0.72151375,0.118149854,0.0,0.0,0.0
303,1778446561800,304.0,0.51120794,-0.7215137500000001,0.118149854,0.0,0.0,0.0
304,1778446561810,305.0,0.51120794,-0.7215137500000001,0.118149854,0.0,0.0,0.0
305,1778446561820,306.0,0.51120794,-0.72151375,0.118149854,0.0,0.0,0.0
306,1778446561830,307.0,0.51120794,-0.7215137500000001,0.118149854,0.0,0.0,0.0
307,1778446561840,308.0,0.6246636,-0.6266055,0.37298164,0.0,0.0,0.0
308,1778446561850,309.0,0.6246636,-0.6266055,0.37298164,0.0,0.0,0.0
309,1778446561860,310.0,0.6246636,-0.6266055,0.37298164,0.0,0.0,0.0
310,1778446561870,311.0,0.6246636,-0.6266055,0.37298164,0.0,0.0,0.0
311,1778446561880,312.0,0.6246636,-0.6266055,0.37298164,0.0,0.0,0.0
312,1778446561890,313.0,0.6246636,-0.6266055,0.37298164,0.0,0.0,0.0
313,1778446561900,314.0,0.5834595,-0.68478213,0.5810894725,0.0,0.0,0.0
314,1778446561910,315.0,0.5697248,-0.7041743400000001,0.65045875,0.0,0.0,0.0
315,1778446561920,316.0,0.5697248,-0.70417434,0.65045875,0.0,0.0,0.0
316,1778446561930,317.0,0.5697248,-0.7041743400000001,0.65045875,0.0,0.0,0.0
317,1778446561940,318.0,0.5697248,-0.7041743400000001,0.65045875,0.0,0.0,0.0
318,1778446561950,319.0,0.5697248,-0.70417434,0.65045875,0.0,0.0,0.0
319,1778446561960,320.0,0.3744852333333333,-0.7194648466666665,0.81450565,0.0,0.0,0.0
320,1778446561970,321.0,0.27686545,-0.7271101,0.8965291,0.0,0.0,0.0
321,1778446561980,322.0,0.27686545,-0.7271101,0.8965291,0.0,0.0,0.0
322,1778446561990,323.0,0.27686545,-0.7271101,0.8965291,0.0,0.0,0.0
323,1778446562000,324.0,0.27686545,-0.7271101,0.8965291,0.0,0.0,0.0
324,1778446562010,325.0,0.11651376,-0.6670795,0.90264523,0.0,0.0,0.0
325,1778446562020,326.0,-0.0259938833333333,-0.63982669,0.88766052,0.0,0.0,0.0
326,1778446562030,327.0,-0.47155964,-0.61977065,0.98726296,0.0,0.0,0.0
327,1778446562040,328.0,-0.47155964,-0.61977065,0.98726296,0.0,0.0,0.0
328,1778446562050,329.0,-0.47155964,-0.61977065,0.98726296,0.0,0.0,0.0
329,1778446562060,330.0,-0.47155964,-0.61977065,0.98726296,0.0,0.0,0.0
330,1778446562070,331.0,-0.47155964,-0.61977065,0.98726296,0.0,0.0,0.0
331,1778446562080,332.0,-0.42018348,-0.62412335,1.103939853333333,0.0,0.0,0.0
332,1778446562090,333.0,-0.3944954,-0.6262997,1.1622783,0.0,0.0,0.0
333,1778446562100,334.0,-0.3944954,-0.6262997,1.1622783,0.0,0.0,0.0
334,1778446562110,335.0,-0.3436595333333334,-0.6316717666666666,1.2731243666666667,0.0,0.0,0.0
335,1778446562120,336.0,-0.3182416,-0.6343578,1.3285474,0.0,0.0,0.0
336,1778446562130,337.0,-0.3182416,-0.6343578,1.3285474,0.0,0.0,0.0
337,1778446562140,338.0,-0.3182416,-0.6343578,1.3285474,0.0,0.0,0.0
338,1778446562150,339.0,-0.3182416,-0.6343578,1.3285474,0.0,0.0,0.0
339,1778446562160,340.0,-0.3182416,-0.6343578,1.3285474,0.0,0.0,0.0
340,1778446562170,341.0,-0.3182416,-0.6343578,1.3285474,0.0,0.0,0.0
341,1778446562180,342.0,-0.3182416,-0.6343578,1.3285474,0.0,0.0,0.0
342,1778446562190,343.0,-0.3866106,-0.5491386666666666,1.388894,0.0,0.0,0.0
343,1778446562200,344.0,-0.4207951,-0.5065291,1.4190673,0.0,0.0,0.0
344,1778446562210,345.0,-0.420259935,-0.5063226749999999,1.41985475,0.0,0.0,0.0
345,1778446562220,346.0,-0.41865444,-0.5057034,1.4222171,0.0,0.0,0.0
346,1778446562230,347.0,-0.41865444,-0.5057034,1.4222171,0.0,0.0,0.0
347,1778446562240,348.0,-0.41865444,-0.5057034,1.4222171,0.0,0.0,0.0
348,1778446562250,349.0,-0.41865444,-0.5057034,1.4222171,0.0,0.0,0.0
349,1778446562260,350.0,-0.41865444,-0.5057034,1.4222171,0.0,0.0,0.0
350,1778446562270,351.0,-0.41865444,-0.5057034,1.4222171,0.0,0.0,0.0
351,1778446562280,352.0,-0.41865444,-0.5057034,1.4222171,0.0,0.0,0.0
352,1778446562290,353.0,-0.41865444,-0.5057034,1.4222171,0.0,0.0,0.0
353,1778446562300,354.0,-0.41865444,-0.5057034,1.4222171,0.0,0.0,0.0
354,1778446562310,355.0,-0.41865444,-0.5057034,1.4222171,0.0,0.0,0.0
355,1778446562320,356.0,-0.41668196,-0.5078440666666667,1.4403618333333332,0.0,0.0,0.0
356,1778446562330,357.0,-0.4127370000000001,-0.5121254,1.4766513,0.0,0.0,0.0
357,1778446562340,358.0,-0.4127370000000001,-0.5121254,1.4766513,0.0,0.0,0.0
358,1778446562350,359.0,-0.4127370000000001,-0.5121254,1.4766513,0.0,0.0,0.0
359,1778446562360,360.0,-0.412737,-0.5121254,1.4766513,0.0,0.0,0.0
360,1778446562370,361.0,-0.4127370000000001,-0.5121254,1.4766513,0.0,0.0,0.0
361,1778446562380,362.0,-0.4127370000000001,-0.5121254,1.4766513,0.0,0.0,0.0
362,1778446562390,363.0,-0.4127370000000001,-0.5121254,1.4766513,0.0,0.0,0.0
363,1778446562400,364.0,-0.4127370000000001,-0.5121254,1.4766513,0.0,0.0,0.0
364,1778446562410,365.0,-0.4771636,-0.4767049,1.4785932000000002,0.0,0.0,0.0
365,1778446562420,366.0,-0.5415902,-0.4412844,1.4805351,0.0,0.0,0.0
366,1778446562430,367.0,-0.5415902,-0.4412844,1.4805351,0.0,0.0,0.0
367,1778446562440,368.0,-0.5415902,-0.4412844,1.4805351,0.0,0.0,0.0
368,1778446562450,369.0,-0.5415902,-0.4412844,1.4805351,0.0,0.0,0.0
369,1778446562460,370.0,-0.5415902,-0.4412844,1.4805351,0.0,0.0,0.0
370,1778446562470,371.0,-0.5415902,-0.4412844,1.4805351,0.0,0.0,0.0
371,1778446562480,372.0,-0.600917425,-0.4165902075,1.463027475,0.0,0.0,0.0
372,1778446562490,373.0,-0.7788991,-0.34250763,1.4105046,0.0,0.0,0.0
373,1778446562500,374.0,-0.7788991,-0.34250763,1.4105046,0.0,0.0,0.0
374,1778446562510,375.0,-0.7788991,-0.34250763,1.4105046,0.0,0.0,0.0
375,1778446562520,376.0,-0.7788991,-0.34250763,1.4105046,0.0,0.0,0.0
376,1778446562530,377.0,-0.7788991,-0.34250763,1.4105046,0.0,0.0,0.0
377,1778446562540,378.0,-0.7788991,-0.34250763,1.4105046,0.0,0.0,0.0
378,1778446562550,379.0,-0.7788991,-0.34250763,1.4105046,0.0,0.0,0.0
379,1778446562560,380.0,-0.7788991,-0.34250763,1.4105046,0.0,0.0,0.0
380,1778446562570,381.0,-0.7788991,-0.34250763,1.4105046,0.0,0.0,0.0
381,1778446562580,382.0,-0.7788991,-0.34250763,1.4105046,0.0,0.0,0.0
382,1778446562590,383.0,-0.7788991,-0.34250763,1.4105046,0.0,0.0,0.0
383,1778446562600,384.0,-0.7788991,-0.34250763,1.4105046,0.0,0.0,0.0
384,1778446562610,385.0,-0.7788991,-0.34250763,1.4105046,0.0,0.0,0.0
385,1778446562620,386.0,-0.7788991,-0.34250763,1.4105046,0.0,0.0,0.0
386,1778446562630,387.0,-1.1530123,-0.11406728,1.357997,0.0,0.0,0.0
387,1778446562640,388.0,-1.1530123,-0.11406728,1.357997,0.0,0.0,0.0
388,1778446562650,389.0,-1.1530123,-0.11406728,1.357997,0.0,0.0,0.0
389,1778446562660,390.0,-1.1530123,-0.11406728,1.357997,0.0,0.0,0.0
390,1778446562670,391.0,-1.1530123,-0.11406728,1.357997,0.0,0.0,0.0
391,1778446562680,392.0,-1.1530123,-0.11406728,1.357997,0.0,0.0,0.0
392,1778446562690,393.0,-1.1530123,-0.11406728,1.357997,0.0,0.0,0.0
393,1778446562700,394.0,-1.1530123,-0.11406728,1.357997,0.0,0.0,0.0
394,1778446562710,395.0,-1.1530123,-0.11406728,1.357997,0.0,0.0,0.0
395,1778446562720,396.0,-1.1530123,-0.11406728,1.357997,0.0,0.0,0.0
396,1778446562730,397.0,-1.1530123,-0.11406728,1.357997,0.0,0.0,0.0
397,1778446562740,398.0,-1.1530123,-0.11406728,1.357997,0.0,0.0,0.0
398,1778446562750,399.0,-1.1530123,-0.11406728,1.357997,0.0,0.0,0.0
399,1778446562760,400.0,-1.1530123,-0.11406728,1.357997,0.0,0.0,0.0
400,1778446562770,401.0,-1.1702370000000002,-0.074770643,1.3614144,0.0,0.0,0.0
401,1778446562780,402.0,-1.1874617,-0.035474006,1.3648318,0.0,0.0,0.0
402,1778446562790,403.0,-1.1874617,-0.035474006,1.3648318,0.0,0.0,0.0
403,1778446562800,404.0,-1.0302752333333334,0.0428848113333333,1.4177064,0.0,0.0,0.0
404,1778446562810,405.0,-0.951682,0.08206422,1.4441437,0.0,0.0,0.0
405,1778446562820,406.0,-0.951682,0.08206422,1.4441437,0.0,0.0,0.0
406,1778446562830,407.0,-0.951682,0.08206422,1.4441437,0.0,0.0,0.0
407,1778446562840,408.0,-0.9182416,0.17655963,1.5081499,0.0,0.0,0.0
408,1778446562850,409.0,-0.9182416,0.17655963,1.5081499,0.0,0.0,0.0
409,1778446562860,410.0,-0.9182416,0.17655963,1.5081499,0.0,0.0,0.0
410,1778446562870,411.0,-0.9182416,0.17655963,1.5081499,0.0,0.0,0.0
411,1778446562880,412.0,-0.9182416,0.17655963,1.5081499,0.0,0.0,0.0
412,1778446562890,413.0,-0.9182416,0.17655963,1.5081499,0.0,0.0,0.0
413,1778446562900,414.0,-0.9182416,0.17655963,1.5081499,0.0,0.0,0.0
414,1778446562910,415.0,-0.9746534666666666,0.2273241699999999,1.5362844333333332,0.0,0.0,0.0
415,1778446562920,416.0,-1.0028594,0.25270644,1.5503517,0.0,0.0,0.0
416,1778446562930,417.0,-1.1932721,0.28879207,1.5774771,0.0,0.0,0.0
417,1778446562940,418.0,-1.1932721,0.28879207,1.5774771,0.0,0.0,0.0
418,1778446562950,419.0,-1.1932721,0.28879207,1.5774771,0.0,0.0,0.0
419,1778446562960,420.0,-1.1932721,0.28879207,1.5774771,0.0,0.0,0.0
420,1778446562970,421.0,-1.1932721,0.28879207,1.5774771,0.0,0.0,0.0
421,1778446562980,422.0,-1.1932721,0.28879207,1.5774771,0.0,0.0,0.0
422,1778446562990,423.0,-1.1932721,0.28879207,1.5774771,0.0,0.0,0.0
423,1778446563000,424.0,-1.3653363999999997,0.34006116,1.4990826000000002,0.0,0.0,0.0
424,1778446563010,425.0,-1.3653363999999997,0.34006116,1.4990826000000002,0.0,0.0,0.0
425,1778446563020,426.0,-1.3653363999999997,0.34006116,1.4990826000000002,0.0,0.0,0.0
426,1778446563030,427.0,-1.3653363999999997,0.34006116,1.4990826000000002,0.0,0.0,0.0
427,1778446563040,428.0,-1.3653364,0.34006116,1.4990826,0.0,0.0,0.0
428,1778446563050,429.0,-1.3653363999999997,0.34006116,1.4990826000000002,0.0,0.0,0.0
429,1778446563060,430.0,-1.3653363999999997,0.34006116,1.4990826000000002,0.0,0.0,0.0
430,1778446563070,431.0,-1.3653364,0.34006116,1.4990826,0.0,0.0,0.0
431,1778446563080,432.0,-1.3653363999999997,0.34006116,1.4990826000000002,0.0,0.0,0.0
432,1778446563090,433.0,-1.3632976999999995,0.3390774733333333,1.4563710666666667,0.0,0.0,0.0
433,1778446563100,434.0,-1.3592202999999998,0.3371101,1.370948,0.0,0.0,0.0
434,1778446563110,435.0,-1.3592203,0.3371101,1.370948,0.0,0.0,0.0
435,1778446563120,436.0,-1.3592202999999998,0.3371101,1.370948,0.0,0.0,0.0
436,1778446563130,437.0,-1.2687004,0.33986238,1.2172325,0.0,0.0,0.0
437,1778446563140,438.0,-1.2687004,0.33986238,1.2172325,0.0,0.0,0.0
438,1778446563150,439.0,-1.2687004,0.33986238,1.2172325,0.0,0.0,0.0
439,1778446563160,440.0,-1.2687004,0.33986238,1.2172325,0.0,0.0,0.0
440,1778446563170,441.0,-1.2687004,0.33986238,1.2172325,0.0,0.0,0.0
441,1778446563180,442.0,-1.2687004,0.33986238,1.2172325,0.0,0.0,0.0
442,1778446563190,443.0,-1.2687004,0.33986238,1.2172325,0.0,0.0,0.0
443,1778446563200,444.0,-1.2687004,0.33986238,1.2172325,0.0,0.0,0.0
444,1778446563210,445.0,-1.223787,0.4169877666666666,1.0932059666666667,0.0,0.0,0.0
445,1778446563220,446.0,-1.2013303,0.45555046,1.0311927,0.0,0.0,0.0
446,1778446563230,447.0,-1.3177371,0.47206426,1.0649388,0.0,0.0,0.0
447,1778446563240,448.0,-1.3177371,0.47206426,1.0649388,0.0,0.0,0.0
448,1778446563250,449.0,-1.3177371,0.47206426,1.0649388,0.0,0.0,0.0
449,1778446563260,450.0,-1.3177371,0.47206426,1.0649388,0.0,0.0,0.0
450,1778446563270,451.0,-1.3177371,0.47206426,1.0649388,0.0,0.0,0.0
451,1778446563280,452.0,-1.3177371,0.47206426,1.0649388,0.0,0.0,0.0
452,1778446563290,453.0,-1.3177371,0.47206426,1.0649388,0.0,0.0,0.0
453,1778446563300,454.0,-1.3177371,0.47206426,1.0649388,0.0,0.0,0.0
454,1778446563310,455.0,-1.3177371,0.47206426,1.0649388,0.0,0.0,0.0
455,1778446563320,456.0,-1.4155237500000002,0.482545885,1.112106225,0.0,0.0,0.0
456,1778446563330,457.0,-1.4481193,0.48603976,1.1278287,0.0,0.0,0.0
457,1778446563340,458.0,-1.4481193,0.48603976,1.1278287,0.0,0.0,0.0
458,1778446563350,459.0,-1.4481193,0.48603976,1.1278287,0.0,0.0,0.0
459,1778446563360,460.0,-1.4481193,0.48603976,1.1278287,0.0,0.0,0.0
460,1778446563370,461.0,-1.4481193,0.48603976,1.1278287,0.0,0.0,0.0
461,1778446563380,462.0,-1.4481193,0.48603976,1.1278287,0.0,0.0,0.0
462,1778446563390,463.0,-1.4481193,0.48603976,1.1278287,0.0,0.0,0.0
463,1778446563400,464.0,-1.4481193,0.48603976,1.1278287,0.0,0.0,0.0
464,1778446563410,465.0,-1.6662538,0.6187615,1.2655505,0.0,0.0,0.0
465,1778446563420,466.0,-1.6662538,0.6187615,1.2655505,0.0,0.0,0.0
466,1778446563430,467.0,-1.6662538,0.6187615,1.2655505,0.0,0.0,0.0
467,1778446563440,468.0,-1.6662538,0.6187615,1.2655505,0.0,0.0,0.0
468,1778446563450,469.0,-1.7490367,0.6729816,1.2933792,0.0,0.0,0.0
469,1778446563460,470.0,-1.7490367000000002,0.6729816,1.2933792,0.0,0.0,0.0
470,1778446563470,471.0,-1.7490367000000002,0.6729816,1.2933792,0.0,0.0,0.0
471,1778446563480,472.0,-1.7490367000000002,0.6729816,1.2933792,0.0,0.0,0.0
472,1778446563490,473.0,-1.7490367,0.6729816,1.2933792,0.0,0.0,0.0
473,1778446563500,474.0,-1.7490367000000002,0.6729816,1.2933792,0.0,0.0,0.0
474,1778446563510,475.0,-1.7490367000000002,0.6729816,1.2933792,0.0,0.0,0.0
475,1778446563520,476.0,-1.7490367,0.6729816,1.2933792,0.0,0.0,0.0
476,1778446563530,477.0,-1.7490367000000002,0.6729816,1.2933792,0.0,0.0,0.0
477,1778446563540,478.0,-1.7490367000000002,0.6729816,1.2933792,0.0,0.0,0.0
478,1778446563550,479.0,-1.7490367000000002,0.6729816,1.2933792,0.0,0.0,0.0
479,1778446563560,480.0,-1.7490367,0.6729816,1.2933792,0.0,0.0,0.0
480,1778446563570,481.0,-2.0506575,0.858211,1.4024465,0.0,0.0,0.0
481,1778446563580,482.0,-2.0506575,0.858211,1.4024465,0.0,0.0,0.0
482,1778446563590,483.0,-2.0506575,0.858211,1.4024465,0.0,0.0,0.0
483,1778446563600,484.0,-2.0506575,0.858211,1.4024465,0.0,0.0,0.0
484,1778446563610,485.0,-2.1656423,0.94903666,1.5386391,0.0,0.0,0.0
485,1778446563620,486.0,-2.1656423,0.94903666,1.5386391,0.0,0.0,0.0
486,1778446563630,487.0,-2.1656423,0.94903666,1.5386391,0.0,0.0,0.0
487,1778446563640,488.0,-2.1656423,0.94903666,1.5386391,0.0,0.0,0.0
488,1778446563650,489.0,-2.2346635,1.0481192,1.5803211,0.0,0.0,0.0
489,1778446563660,490.0,-2.2346635,1.0481192,1.5803211,0.0,0.0,0.0
490,1778446563670,491.0,-2.2346635,1.0481192,1.5803211,0.0,0.0,0.0
491,1778446563680,492.0,-2.2346635,1.0481192,1.5803211,0.0,0.0,0.0
492,1778446563690,493.0,-2.2346635,1.0481192,1.5803211,0.0,0.0,0.0
493,1778446563700,494.0,-2.2346635,1.0481192,1.5803211,0.0,0.0,0.0
494,1778446563710,495.0,-2.2346635,1.0481192,1.5803211,0.0,0.0,0.0
495,1778446563720,496.0,-2.2346635,1.0481192,1.5803211,0.0,0.0,0.0
496,1778446563730,497.0,-2.2346635,1.0481192,1.5803211,0.0,0.0,0.0
497,1778446563740,498.0,-2.236012875,1.073933425,1.54036315,0.0,0.0,0.0
498,1778446563750,499.0,-2.240061,1.1513761,1.4204893,0.0,0.0,0.0
499,1778446563760,500.0,-2.2314985,1.1862385,1.3877676,0.0,0.0,0.0
500,1778446563770,501.0,-2.2314985,1.1862385,1.3877676,0.0,0.0,0.0
501,1778446563780,502.0,-2.2314985,1.1862385,1.3877676,0.0,0.0,0.0
502,1778446563790,503.0,-2.2314985,1.1862385,1.3877676,0.0,0.0,0.0
503,1778446563800,504.0,-2.2314985,1.1862385,1.3877676,0.0,0.0,0.0
504,1778446563810,505.0,-2.2314985,1.1862385,1.3877676,0.0,0.0,0.0
505,1778446563820,506.0,-2.4790063,1.2497401,1.3880734,0.0,0.0,0.0
506,1778446563830,507.0,-2.4790063,1.2497401,1.3880734,0.0,0.0,0.0
507,1778446563840,508.0,-2.4790063,1.2497401,1.3880734,0.0,0.0,0.0
508,1778446563850,509.0,-2.4790063,1.2497401,1.3880734,0.0,0.0,0.0
509,1778446563860,510.0,-2.4790063,1.2497401,1.3880734,0.0,0.0,0.0
510,1778446563870,511.0,-2.49852455,1.22237005,1.45590975,0.0,0.0,0.0
511,1778446563880,512.0,-2.5180428,1.195,1.5237461,0.0,0.0,0.0
512,1778446563890,513.0,-2.541146766666667,1.2179357666666668,1.4994851666666669,0.0,0.0,0.0
513,1778446563900,514.0,-2.5873547,1.2638073,1.4509633,0.0,0.0,0.0
514,1778446563910,515.0,-2.588272125,1.261873075,1.468065725,0.0,0.0,0.0
515,1778446563920,516.0,-2.5910244,1.2560704,1.519373,0.0,0.0,0.0
516,1778446563930,517.0,-2.5910244,1.2560704,1.519373,0.0,0.0,0.0
517,1778446563940,518.0,-2.5910244,1.2560704,1.519373,0.0,0.0,0.0
518,1778446563950,519.0,-2.5910244,1.2560704,1.519373,0.0,0.0,0.0
519,1778446563960,520.0,-2.5910244,1.2560704,1.519373,0.0,0.0,0.0
520,1778446563970,521.0,-2.5910244,1.2560704,1.519373,0.0,0.0,0.0
521,1778446563980,522.0,-2.5910244,1.2560704,1.519373,0.0,0.0,0.0
522,1778446563990,523.0,-2.5910244,1.2560704,1.519373,0.0,0.0,0.0
523,1778446564000,524.0,-2.5910244,1.2560704,1.519373,0.0,0.0,0.0
524,1778446564010,525.0,-2.4164143499999997,1.155531325,1.5176873,0.0,0.0,0.0
525,1778446564020,526.0,-2.358211,1.1220183,1.5171254,0.0,0.0,0.0
526,1778446564030,527.0,-2.358211,1.1220183,1.5171254,0.0,0.0,0.0
527,1778446564040,528.0,-2.35873855,1.07354355,1.5168157249999998,0.0,0.0,0.0
528,1778446564050,529.0,-2.3589144,1.0573853,1.5167125,0.0,0.0,0.0
529,1778446564060,530.0,-2.3589144,1.0573853,1.5167125,0.0,0.0,0.0
530,1778446564070,531.0,-2.3589144,1.0573853,1.5167125,0.0,0.0,0.0
531,1778446564080,532.0,-2.3589144,1.0573853,1.5167125,0.0,0.0,0.0
532,1778446564090,533.0,-2.3589144,1.0573853,1.5167125,0.0,0.0,0.0
533,1778446564100,534.0,-2.3589144,1.0573853,1.5167125,0.0,0.0,0.0
534,1778446564110,535.0,-2.3589144,1.0573853,1.5167125,0.0,0.0,0.0
535,1778446564120,536.0,-2.3589144,1.0573853,1.5167125,0.0,0.0,0.0
536,1778446564130,537.0,-2.4863455,0.99001527,1.5825688,0.0,0.0,0.0
537,1778446564140,538.0,-2.4863455,0.99001527,1.5825688,0.0,0.0,0.0
538,1778446564150,539.0,-2.4863455,0.99001527,1.5825688,0.0,0.0,0.0
539,1778446564160,540.0,-2.4863455,0.99001527,1.5825688,0.0,0.0,0.0
540,1778446564170,541.0,-2.4863455,0.99001527,1.5825688,0.0,0.0,0.0
541,1778446564180,542.0,-2.4863455,0.99001527,1.5825688,0.0,0.0,0.0
542,1778446564190,543.0,-2.4863455,0.99001527,1.5825688,0.0,0.0,0.0
543,1778446564200,544.0,-2.4863455,0.99001527,1.5825688,0.0,0.0,0.0
544,1778446564210,545.0,-2.4863455,0.99001527,1.5825688,0.0,0.0,0.0
545,1778446564220,546.0,-2.4863455,0.99001527,1.5825688,0.0,0.0,0.0
546,1778446564230,547.0,-2.4863455,0.99001527,1.5825688,0.0,0.0,0.0
547,1778446564240,548.0,-2.4863455,0.99001527,1.5825688,0.0,0.0,0.0
548,1778446564250,549.0,-2.5132568333333336,0.96317023,1.6172273,0.0,0.0,0.0
549,1778446564260,550.0,-2.5670795,0.90948015,1.6865443000000002,0.0,0.0,0.0
550,1778446564270,551.0,-2.5670795,0.90948015,1.6865443,0.0,0.0,0.0
551,1778446564280,552.0,-2.5670795,0.90948015,1.6865443000000002,0.0,0.0,0.0
552,1778446564290,553.0,-2.648425,0.8062233,1.7516819,0.0,0.0,0.0
553,1778446564300,554.0,-2.648425,0.8062233,1.7516819,0.0,0.0,0.0
554,1778446564310,555.0,-2.648425,0.8062233,1.7516819,0.0,0.0,0.0
555,1778446564320,556.0,-2.6828287,0.599181975,1.7901338,0.0,0.0,0.0
556,1778446564330,557.0,-2.6942966,0.5301682,1.8029511000000005,0.0,0.0,0.0
557,1778446564340,558.0,-2.6915443,0.4915596424999999,1.806850175,0.0,0.0,0.0
558,1778446564350,559.0,-2.4928695333333333,0.0938175333333333,1.9125382666666664,0.0,0.0,0.0
559,1778446564360,560.0,-2.5735016,0.20652905,1.8593272999999997,0.0,0.0,0.0
560,1778446564370,561.0,-2.5735016,0.20652905,1.8593273,0.0,0.0,0.0
561,1778446564380,562.0,-2.5735016,0.20652905,1.8593272999999997,0.0,0.0,0.0
562,1778446564390,563.0,-2.5735016,0.20652905,1.8593272999999997,0.0,0.0,0.0
563,1778446564400,564.0,-2.5735016,0.20652905,1.8593273,0.0,0.0,0.0
564,1778446564410,565.0,-2.5735016,0.20652905,1.8593272999999997,0.0,0.0,0.0
565,1778446564420,566.0,-2.5035704,0.1011238499999999,1.907847925,0.0,0.0,0.0
566,1778446564430,567.0,-2.2937768,-0.21509175,2.0534098,0.0,0.0,0.0
567,1778446564440,568.0,-2.2260906666666664,-0.3541946966666667,2.0621763333333334,0.0,0.0,0.0
568,1778446564450,569.0,-2.1922476,-0.42374617,2.0665596,0.0,0.0,0.0
569,1778446564460,570.0,-2.1922476,-0.42374617,2.0665596,0.0,0.0,0.0
570,1778446564470,571.0,-2.1922476,-0.42374617,2.0665596,0.0,0.0,0.0
571,1778446564480,572.0,-2.1922476,-0.42374617,2.0665596,0.0,0.0,0.0
572,1778446564490,573.0,-2.1922476,-0.42374617,2.0665596,0.0,0.0,0.0
573,1778446564500,574.0,-2.0956116,-0.5219113,2.0331347,0.0,0.0,0.0
574,1778446564510,575.0,-2.0956116,-0.5219113,2.0331347,0.0,0.0,0.0
575,1778446564520,576.0,-2.0956116,-0.5219113,2.0331347,0.0,0.0,0.0
576,1778446564530,577.0,-2.0956116,-0.5219113,2.0331347,0.0,0.0,0.0
577,1778446564540,578.0,-2.0956116,-0.5219113,2.0331347,0.0,0.0,0.0
578,1778446564550,579.0,-2.0956116,-0.5219113,2.0331347,0.0,0.0,0.0
579,1778446564560,580.0,-2.0956116,-0.5219113,2.0331347,0.0,0.0,0.0
580,1778446564570,581.0,-2.0956116,-0.5219113,2.0331347,0.0,0.0,0.0
581,1778446564580,582.0,-2.0335856,-0.5628899,1.96784415,0.0,0.0,0.0
582,1778446564590,583.0,-1.9715596,-0.6038685,1.9025536,0.0,0.0,0.0
583,1778446564600,584.0,-1.9715596,-0.6038685,1.9025536,0.0,0.0,0.0
584,1778446564610,585.0,-1.2698050749999998,-0.684074895,1.3127944,0.0,0.0,0.0
585,1778446564620,586.0,-1.0358869,-0.71081036,1.116208,0.0,0.0,0.0
586,1778446564630,587.0,-1.36901375,-0.70555808,1.3574389,0.0,0.0,0.0
587,1778446564640,588.0,-1.7021406,-0.7003058000000001,1.5986698,0.0,0.0,0.0
588,1778446564650,589.0,-1.7021406,-0.7003058000000001,1.5986698,0.0,0.0,0.0
589,1778446564660,590.0,-1.7021406,-0.7003058,1.5986698,0.0,0.0,0.0
590,1778446564670,591.0,-1.6909275666666663,-0.70136085,1.5869470333333335,0.0,0.0,0.0
591,1778446564680,592.0,-1.6685015000000003,-0.7034709500000002,1.5635015,0.0,0.0,0.0
592,1778446564690,593.0,-1.6685015,-0.70347095,1.5635015,0.0,0.0,0.0
593,1778446564700,594.0,-1.6685015000000003,-0.7034709500000002,1.5635015,0.0,0.0,0.0
594,1778446564710,595.0,-1.6685015,-0.70347095,1.5635015,0.0,0.0,0.0
595,1778446564720,596.0,-1.6685015000000003,-0.7034709500000002,1.5635015,0.0,0.0,0.0
596,1778446564730,597.0,-1.6685015000000003,-0.7034709500000002,1.5635015,0.0,0.0,0.0
597,1778446564740,598.0,-1.5268578000000002,-0.7294113125,1.427519125,0.0,0.0,0.0
598,1778446564750,599.0,-1.3216056,-0.77695715,1.2216055,0.0,0.0,0.0
599,1778446564760,600.0,-1.284044425,-0.77846327,1.204889125,0.0,0.0,0.0
600,1778446564770,601.0,-1.1713609,-0.78298163,1.15474,0.0,0.0,0.0
601,1778446564780,602.0,-1.1713609,-0.78298163,1.15474,0.0,0.0,0.0
602,1778446564790,603.0,-1.1713609,-0.78298163,1.15474,0.0,0.0,0.0
603,1778446564800,604.0,-1.1713609,-0.78298163,1.15474,0.0,0.0,0.0
604,1778446564810,605.0,-1.1713609,-0.78298163,1.15474,0.0,0.0,0.0
605,1778446564820,606.0,-1.1713609,-0.78298163,1.15474,0.0,0.0,0.0
606,1778446564830,607.0,-1.0943884,-0.7488226,1.1215137,0.0,0.0,0.0
607,1778446564840,608.0,-1.0943884,-0.7488226,1.1215137,0.0,0.0,0.0
608,1778446564850,609.0,-1.0943884,-0.7488226,1.1215137,0.0,0.0,0.0
609,1778446564860,610.0,-1.0943884,-0.7488226,1.1215137,0.0,0.0,0.0
610,1778446564870,611.0,-1.0943884,-0.7488226,1.1215137,0.0,0.0,0.0
611,1778446564880,612.0,-1.0885283,-0.72777521,1.130305775,0.0,0.0,0.0
612,1778446564890,613.0,-1.070948,-0.66463304,1.156682,0.0,0.0,0.0
613,1778446564900,614.0,-1.070948,-0.66463304,1.156682,0.0,0.0,0.0
614,1778446564910,615.0,-1.070948,-0.66463304,1.156682,0.0,0.0,0.0
615,1778446564920,616.0,-1.070948,-0.66463304,1.156682,0.0,0.0,0.0
616,1778446564930,617.0,-1.070948,-0.66463304,1.156682,0.0,0.0,0.0
617,1778446564940,618.0,-1.070948,-0.66463304,1.156682,0.0,0.0,0.0
618,1778446564950,619.0,-1.070948,-0.66463304,1.156682,0.0,0.0,0.0
619,1778446564960,620.0,-1.070948,-0.66463304,1.156682,0.0,0.0,0.0
620,1778446564970,621.0,-1.070948,-0.66463304,1.156682,0.0,0.0,0.0
621,1778446564980,622.0,-1.070948,-0.66463304,1.156682,0.0,0.0,0.0
622,1778446564990,623.0,-1.106422,-0.6519878,1.1610551,0.0,0.0,0.0
623,1778446565000,624.0,-1.106422,-0.6519878,1.1610551,0.0,0.0,0.0
624,1778446565010,625.0,-1.106422,-0.6519878,1.1610551,0.0,0.0,0.0
625,1778446565020,626.0,-1.106422,-0.6519878,1.1610551,0.0,0.0,0.0
626,1778446565030,627.0,-1.106422,-0.6519878,1.1610551,0.0,0.0,0.0
627,1778446565040,628.0,-1.106422,-0.6519878,1.1610551,0.0,0.0,0.0
628,1778446565050,629.0,-0.943986985,-0.6176338125,1.087584125,0.0,0.0,0.0
629,1778446565060,630.0,-0.45668194,-0.51457185,0.8671712,0.0,0.0,0.0
630,1778446565070,631.0,-0.45668194,-0.51457185,0.8671712,0.0,0.0,0.0
631,1778446565080,632.0,-0.45668194,-0.51457185,0.8671712,0.0,0.0,0.0
632,1778446565090,633.0,-0.45668194,-0.51457185,0.8671712,0.0,0.0,0.0
633,1778446565100,634.0,-1.0775688,-0.6488226,1.1581041,0.0,0.0,0.0
634,1778446565110,635.0,-1.0775688,-0.6488226,1.1581041,0.0,0.0,0.0
635,1778446565120,636.0,-0.97584105,-0.6558563,1.0898012,0.0,0.0,0.0
636,1778446565130,637.0,-0.97584105,-0.6558563,1.0898012,0.0,0.0,0.0
637,1778446565140,638.0,-0.97584105,-0.6558563,1.0898012,0.0,0.0,0.0
638,1778446565150,639.0,-0.97584105,-0.6558563,1.0898012,0.0,0.0,0.0
639,1778446565160,640.0,-0.97584105,-0.6558563,1.0898012,0.0,0.0,0.0
640,1778446565170,641.0,-0.8616208125,-0.663195725,1.010145275,0.0,0.0,0.0
641,1778446565180,642.0,-0.8235474000000002,-0.6656422,0.9835933,0.0,0.0,0.0
642,1778446565190,643.0,-0.8235474000000002,-0.6656422,0.9835933,0.0,0.0,0.0
643,1778446565200,644.0,-0.8235474,-0.6656422,0.9835933,0.0,0.0,0.0
644,1778446565210,645.0,-0.8235474000000002,-0.6656422,0.9835933,0.0,0.0,0.0
645,1778446565220,646.0,-0.55259943,-0.69714063,0.82129973,0.0,0.0,0.0
646,1778446565230,647.0,-0.55259943,-0.69714063,0.82129973,0.0,0.0,0.0
647,1778446565240,648.0,-0.52240064,-0.69872321,0.8131957475,0.0,0.0,0.0
648,1778446565250,649.0,-0.49220185,-0.70030579,0.805091765,0.0,0.0,0.0
649,1778446565260,650.0,-0.46200306,-0.70188837,0.7969877825,0.0,0.0,0.0
650,1778446565270,651.0,-0.43180427,-0.70347095,0.7888838,0.0,0.0,0.0
651,1778446565280,652.0,-0.43180427,-0.70347095,0.7888838,0.0,0.0,0.0
652,1778446565290,653.0,-0.43180427,-0.7034709500000002,0.7888838000000001,0.0,0.0,0.0
653,1778446565300,654.0,-0.43180427,-0.7034709500000002,0.7888838000000001,0.0,0.0,0.0
654,1778446565310,655.0,-0.43180427,-0.7034709500000002,0.7888838000000001,0.0,0.0,0.0
655,1778446565320,656.0,-0.43180427,-0.7034709500000002,0.7888838000000001,0.0,0.0,0.0
656,1778446565330,657.0,-0.43180427,-0.70347095,0.7888838,0.0,0.0,0.0
657,1778446565340,658.0,-0.43180427,-0.7034709500000002,0.7888838000000001,0.0,0.0,0.0
658,1778446565350,659.0,-0.36738533,-0.67197245,0.78206426,0.0,0.0,0.0
659,1778446565360,660.0,-0.3540022925,-0.5923050125,0.834426665,0.0,0.0,0.0
660,1778446565370,661.0,-0.34954128,-0.5657492,0.8518808,0.0,0.0,0.0
661,1778446565380,662.0,-0.34954128,-0.5657492,0.8518808,0.0,0.0,0.0
662,1778446565390,663.0,-0.34954128,-0.5657492,0.8518808,0.0,0.0,0.0
663,1778446565400,664.0,-0.34954128,-0.5657492,0.8518808,0.0,0.0,0.0
664,1778446565410,665.0,-0.34954128,-0.5657492,0.8518808,0.0,0.0,0.0
665,1778446565420,666.0,-0.34954128,-0.5657492,0.8518808,0.0,0.0,0.0
666,1778446565430,667.0,-0.349185785,-0.55935395,0.8524694825,0.0,0.0,0.0
667,1778446565440,668.0,-0.3481193,-0.5401682,0.85423553,0.0,0.0,0.0
668,1778446565450,669.0,-0.3481193,-0.5401682,0.85423553,0.0,0.0,0.0
669,1778446565460,670.0,-0.3481193,-0.5401682,0.85423553,0.0,0.0,0.0
670,1778446565470,671.0,-0.3481193,-0.5401682,0.85423553,0.0,0.0,0.0
671,1778446565480,672.0,-0.3481193,-0.5401682,0.85423553,0.0,0.0,0.0
672,1778446565490,673.0,-0.3481193,-0.5401682,0.85423553,0.0,0.0,0.0
673,1778446565500,674.0,-0.3481193,-0.5401682,0.85423553,0.0,0.0,0.0
674,1778446565510,675.0,-0.3481193,-0.5401682,0.85423553,0.0,0.0,0.0
675,1778446565520,676.0,-0.3765902333333333,-0.5245311,0.8829103100000001,0.0,0.0,0.0
676,1778446565530,677.0,-0.3908257,-0.51671255,0.8972477,0.0,0.0,0.0
677,1778446565540,678.0,-0.3908257,-0.51671255,0.8972477,0.0,0.0,0.0
678,1778446565550,679.0,-0.3908257,-0.51671255,0.8972477,0.0,0.0,0.0
679,1778446565560,680.0,-0.3908257,-0.51671255,0.8972477,0.0,0.0,0.0
680,1778446565570,681.0,-0.3908257,-0.51671255,0.8972477,0.0,0.0,0.0
681,1778446565580,682.0,-0.3908257,-0.51671255,0.8972477,0.0,0.0,0.0
682,1778446565590,683.0,-0.3908257,-0.51671255,0.8972477,0.0,0.0,0.0
683,1778446565600,684.0,-0.3908257,-0.51671255,0.8972477,0.0,0.0,0.0
684,1778446565610,685.0,-0.3908257,-0.51671255,0.8972477,0.0,0.0,0.0
685,1778446565620,686.0,-0.3908257,-0.51671255,0.8972477,0.0,0.0,0.0
686,1778446565630,687.0,-0.3908257,-0.51671255,0.8972477,0.0,0.0,0.0
687,1778446565640,688.0,-0.50916921,-0.51335371,0.65059632,0.0,0.0,0.0
688,1778446565650,689.0,-0.52527523,-0.49724773,0.52772176,0.0,0.0,0.0
689,1778446565660,690.0,-0.52527523,-0.49724773,0.52772176,0.0,0.0,0.0
690,1778446565670,691.0,-0.52527523,-0.49724773,0.52772176,0.0,0.0,0.0
691,1778446565680,692.0,-0.52527523,-0.49724773,0.52772176,0.0,0.0,0.0
692,1778446565690,693.0,-0.52527523,-0.49724773,0.52772176,0.0,0.0,0.0
693,1778446565700,694.0,-0.52527523,-0.49724773,0.52772176,0.0,0.0,0.0
694,1778446565710,695.0,-0.52527523,-0.49724773,0.52772176,0.0,0.0,0.0
695,1778446565720,696.0,-0.52527523,-0.49724773,0.52772176,0.0,0.0,0.0
696,1778446565730,697.0,-0.5243080975,-0.4885818175,0.506903705,0.0,0.0,0.0
697,1778446565740,698.0,-0.5214067,-0.46258408,0.44444954,0.0,0.0,0.0
698,1778446565750,699.0,-0.5214067,-0.46258408,0.44444954,0.0,0.0,0.0
699,1778446565760,700.0,-0.5214067,-0.46258408,0.44444954,0.0,0.0,0.0
700,1778446565770,701.0,-0.5214067,-0.46258408,0.44444954,0.0,0.0,0.0
701,1778446565780,702.0,-0.5214067,-0.46258408,0.44444954,0.0,0.0,0.0
702,1778446565790,703.0,-0.3948814975,-0.43674694,0.2711238575,0.0,0.0,0.0
703,1778446565800,704.0,-0.35270643,-0.42813456,0.21334863,0.0,0.0,0.0
704,1778446565810,705.0,-0.35270643,-0.42813456,0.21334863,0.0,0.0,0.0
705,1778446565820,706.0,-0.28899084,-0.4320565899999999,0.14525994,0.0,0.0,0.0
706,1778446565830,707.0,-0.22527525,-0.43597862,0.07717125,0.0,0.0,0.0
707,1778446565840,708.0,-0.22527525,-0.43597862,0.07717125,0.0,0.0,0.0
708,1778446565850,709.0,-0.22527525,-0.43597862,0.07717125,0.0,0.0,0.0
709,1778446565860,710.0,-0.22527525,-0.43597862,0.07717125,0.0,0.0,0.0
710,1778446565870,711.0,-0.22527525,-0.43597862,0.07717125,0.0,0.0,0.0
711,1778446565880,712.0,-0.22527525,-0.43597862,0.07717125,0.0,0.0,0.0
712,1778446565890,713.0,-0.22527525,-0.43597862,0.07717125,0.0,0.0,0.0
713,1778446565900,714.0,-0.22527525,-0.43597862,0.07717125,0.0,0.0,0.0
714,1778446565910,715.0,-0.22527525,-0.43597862,0.07717125,0.0,0.0,0.0
715,1778446565920,716.0,-0.22527525,-0.43597862,0.07717125,0.0,0.0,0.0
716,1778446565930,717.0,-0.22527525,-0.43597862,0.07717125,0.0,0.0,0.0
717,1778446565940,718.0,-0.22527525,-0.43597862,0.07717125,0.0,0.0,0.0
718,1778446565950,719.0,-0.06055046,-0.44597858,-0.14240062,0.0,0.0,0.0
719,1778446565960,720.0,-0.06055046,-0.44597858,-0.14240062,0.0,0.0,0.0
720,1778446565970,721.0,-0.035779817,-0.44903669,-0.2177828849999999,0.0,0.0,0.0
721,1778446565980,722.0,0.033027524,-0.4579358,-0.30233945,0.0,0.0,0.0
722,1778446565990,723.0,0.055045873,-0.4608562999999999,-0.3069266,0.0,0.0,0.0
723,1778446566000,724.0,0.055045873,-0.4608562999999999,-0.3069266,0.0,0.0,0.0
724,1778446566010,725.0,0.055045873,-0.4608562999999999,-0.3069266,0.0,0.0,0.0
725,1778446566020,726.0,0.055045873,-0.4608563,-0.3069266,0.0,0.0,0.0
726,1778446566030,727.0,0.079918451,-0.48280328,-0.3069266,0.0,0.0,0.0
727,1778446566040,728.0,0.09235474,-0.49377677,-0.3069266,0.0,0.0,0.0
728,1778446566050,729.0,0.09235474,-0.49377677,-0.3069266,0.0,0.0,0.0
729,1778446566060,730.0,0.09235474,-0.49377677,-0.3069266,0.0,0.0,0.0
730,1778446566070,731.0,0.09235474,-0.49377677,-0.3069266,0.0,0.0,0.0
731,1778446566080,732.0,0.0957492333333333,-0.4963659566666666,-0.2343476066666666,0.0,0.0,0.0
732,1778446566090,733.0,0.09744648,-0.49766055,-0.1980581099999999,0.0,0.0,0.0
733,1778446566100,734.0,0.09744648,-0.49766055,-0.19805811,0.0,0.0,0.0
734,1778446566110,735.0,0.09744648,-0.49766055,-0.1980581099999999,0.0,0.0,0.0
735,1778446566120,736.0,0.09744648,-0.49766055,-0.1980581099999999,0.0,0.0,0.0
736,1778446566130,737.0,0.09744648,-0.49766055,-0.19805811,0.0,0.0,0.0
737,1778446566140,738.0,0.092895002,-0.4996279333333333,-0.1621763533333333,0.0,0.0,0.0
738,1778446566150,739.0,0.083792046,-0.5035627,-0.09041284,0.0,0.0,0.0
739,1778446566160,740.0,0.083792046,-0.5035627,-0.09041284,0.0,0.0,0.0
740,1778446566170,741.0,0.083792046,-0.5035627,-0.09041284,0.0,0.0,0.0
741,1778446566180,742.0,0.083792046,-0.5035627,-0.09041284,0.0,0.0,0.0
742,1778446566190,743.0,0.083792046,-0.5035627,-0.09041284,0.0,0.0,0.0
743,1778446566200,744.0,0.26666668,-0.59897554,0.20163609,0.0,0.0,0.0
744,1778446566210,745.0,0.26666668,-0.59897554,0.2016360899999999,0.0,0.0,0.0
745,1778446566220,746.0,0.26666668,-0.59897554,0.2016360899999999,0.0,0.0,0.0
746,1778446566230,747.0,0.26666668,-0.59897554,0.2016360899999999,0.0,0.0,0.0
747,1778446566240,748.0,0.26666668,-0.59897554,0.2016360899999999,0.0,0.0,0.0
748,1778446566250,749.0,0.3643730899999999,-0.61788992,0.27375383,0.0,0.0,0.0
749,1778446566260,750.0,0.4620795,-0.6368043,0.3458715700000001,0.0,0.0,0.0
750,1778446566270,751.0,0.4620795,-0.6368043,0.3458715700000001,0.0,0.0,0.0
751,1778446566280,752.0,0.4620795,-0.6368043,0.34587157,0.0,0.0,0.0
752,1778446566290,753.0,0.4620795,-0.6368043,0.3458715700000001,0.0,0.0,0.0
753,1778446566300,754.0,0.60267582,-0.66264147,0.4167431275,0.0,0.0,0.0
754,1778446566310,755.0,0.64954126,-0.6712538599999999,0.44036698,0.0,0.0,0.0
755,1778446566320,756.0,0.78769622,-0.6798879133333333,0.44036698,0.0,0.0,0.0
756,1778446566330,757.0,0.8567737,-0.68420494,0.44036698,0.0,0.0,0.0
757,1778446566340,758.0,0.8567737000000001,-0.68420494,0.44036698,0.0,0.0,0.0
758,1778446566350,759.0,0.8567737000000001,-0.68420494,0.44036698,0.0,0.0,0.0
759,1778446566360,760.0,0.8735626999999999,-0.6884148933333334,0.1733639153333333,0.0,0.0,0.0
760,1778446566370,761.0,0.8819572,-0.69051987,0.039862383,0.0,0.0,0.0
761,1778446566380,762.0,0.8819572,-0.69051987,0.039862383,0.0,0.0,0.0
762,1778446566390,763.0,0.8819572,-0.69051987,0.039862383,0.0,0.0,0.0
763,1778446566400,764.0,0.8819572,-0.69051987,0.039862383,0.0,0.0,0.0
764,1778446566410,765.0,0.8819572,-0.69051987,0.039862383,0.0,0.0,0.0
765,1778446566420,766.0,0.8819572,-0.69051987,0.039862383,0.0,0.0,0.0
766,1778446566430,767.0,0.8819572,-0.69051987,0.039862383,0.0,0.0,0.0
767,1778446566440,768.0,0.8819572,-0.69051987,0.039862383,0.0,0.0,0.0
768,1778446566450,769.0,0.8819572,-0.69051987,0.039862383,0.0,0.0,0.0
769,1778446566460,770.0,0.8819572,-0.69051987,0.039862383,0.0,0.0,0.0
770,1778446566470,771.0,0.8706422,-0.62171257,-0.10214068,0.0,0.0,0.0
771,1778446566480,772.0,0.8706422000000001,-0.62171257,-0.10214068,0.0,0.0,0.0
772,1778446566490,773.0,0.8706422000000001,-0.62171257,-0.10214068,0.0,0.0,0.0
773,1778446566500,774.0,0.8706422000000001,-0.62171257,-0.10214068,0.0,0.0,0.0
774,1778446566510,775.0,0.8706422000000001,-0.62171257,-0.10214068,0.0,0.0,0.0
775,1778446566520,776.0,0.8706422,-0.62171257,-0.10214068,0.0,0.0,0.0
776,1778446566530,777.0,0.8706422,-0.62171257,-0.10214068,0.0,0.0,0.0
777,1778446566540,778.0,0.8706422,-0.62171257,-0.10214068,0.0,0.0,0.0
778,1778446566550,779.0,0.84918195,-0.587156,-0.1087156,0.0,0.0,0.0
779,1778446566560,780.0,0.8277217,-0.55259943,-0.11529052,0.0,0.0,0.0
780,1778446566570,781.0,0.8277217,-0.55259943,-0.11529052,0.0,0.0,0.0
781,1778446566580,782.0,0.8277217,-0.55259943,-0.11529052,0.0,0.0,0.0
782,1778446566590,783.0,0.8277217,-0.55259943,-0.11529052,0.0,0.0,0.0
783,1778446566600,784.0,0.8277217,-0.55259943,-0.11529052,0.0,0.0,0.0
784,1778446566610,785.0,0.8277217,-0.55259943,-0.11529052,0.0,0.0,0.0
785,1778446566620,786.0,0.8277217,-0.55259943,-0.11529052,0.0,0.0,0.0
786,1778446566630,787.0,0.8277217,-0.55259943,-0.11529052,0.0,0.0,0.0
787,1778446566640,788.0,0.8277217,-0.55259943,-0.11529052,0.0,0.0,0.0
788,1778446566650,789.0,0.8277217,-0.55259943,-0.11529052,0.0,0.0,0.0
789,1778446566660,790.0,0.8277217,-0.55259943,-0.11529052,0.0,0.0,0.0
790,1778446566670,791.0,0.8277217,-0.55259943,-0.11529052,0.0,0.0,0.0
791,1778446566680,792.0,0.8277217,-0.55259943,-0.11529052,0.0,0.0,0.0
792,1778446566690,793.0,0.8277217,-0.55259943,-0.11529052,0.0,0.0,0.0
793,1778446566700,794.0,0.8277217,-0.55259943,-0.11529052,0.0,0.0,0.0
794,1778446566710,795.0,0.8277217,-0.55259943,-0.11529052,0.0,0.0,0.0
795,1778446566720,796.0,0.7847757266666666,-0.5004077766666667,-0.1227624933333333,0.0,0.0,0.0
796,1778446566730,797.0,0.76330274,-0.47431195,-0.12649848,0.0,0.0,0.0
797,1778446566740,798.0,0.76330274,-0.47431195,-0.12649848,0.0,0.0,0.0
798,1778446566750,799.0,0.76330274,-0.47431195,-0.12649848,0.0,0.0,0.0
799,1778446566760,800.0,0.76330274,-0.47431195,-0.12649848,0.0,0.0,0.0
800,1778446566770,801.0,0.814266,-0.40469417,-0.19143732,0.0,0.0,0.0
801,1778446566780,802.0,0.814266,-0.40469417,-0.19143732,0.0,0.0,0.0
802,1778446566790,803.0,0.814266,-0.40469417,-0.19143732,0.0,0.0,0.0
803,1778446566800,804.0,0.814266,-0.40469417,-0.19143732,0.0,0.0,0.0
804,1778446566810,805.0,0.814266,-0.40469417,-0.19143732,0.0,0.0,0.0
805,1778446566820,806.0,0.814266,-0.40469417,-0.19143732,0.0,0.0,0.0
806,1778446566830,807.0,0.814266,-0.40469417,-0.19143732,0.0,0.0,0.0
807,1778446566840,808.0,1.0014933666666668,-0.40584606,-0.27937309,0.0,0.0,0.0
808,1778446566850,809.0,1.3759480999999998,-0.4081498399999999,-0.45524463,0.0,0.0,0.0
809,1778446566860,810.0,1.5165189666666663,-0.4040061133333333,-0.53815492,0.0,0.0,0.0
810,1778446566870,811.0,1.8266106333333332,-0.34801224,-0.7942915666666667,0.0,0.0,0.0
811,1778446566880,812.0,1.8410856,-0.32415903,-0.8394496,0.0,0.0,0.0
812,1778446566890,813.0,1.8410856,-0.32415903,-0.8394496,0.0,0.0,0.0
813,1778446566900,814.0,1.8410856,-0.32415903,-0.8394496,0.0,0.0,0.0
814,1778446566910,815.0,1.8410856,-0.32415903,-0.8394496,0.0,0.0,0.0
815,1778446566920,816.0,1.8410856,-0.32415903,-0.8394496,0.0,0.0,0.0
816,1778446566930,817.0,1.8410856,-0.32415903,-0.8394496,0.0,0.0,0.0
817,1778446566940,818.0,1.8410856,-0.32415903,-0.8394496,0.0,0.0,0.0
818,1778446566950,819.0,1.8410856,-0.32415903,-0.8394496,0.0,0.0,0.0
819,1778446566960,820.0,1.7668653999999997,-0.26850152,-0.96319574,0.0,0.0,0.0
820,1778446566970,821.0,1.7668653999999997,-0.26850152,-0.96319574,0.0,0.0,0.0
821,1778446566980,822.0,1.7668653999999997,-0.26850152,-0.96319574,0.0,0.0,0.0
822,1778446566990,823.0,1.7668654,-0.26850152,-0.96319574,0.0,0.0,0.0
823,1778446567000,824.0,1.7668653999999997,-0.26850152,-0.96319574,0.0,0.0,0.0
824,1778446567010,825.0,1.7668653999999997,-0.26850152,-0.96319574,0.0,0.0,0.0
825,1778446567020,826.0,1.4286392,-0.13842508,-0.97247714,0.0,0.0,0.0
826,1778446567030,827.0,1.4286392,-0.13842508,-0.97247714,0.0,0.0,0.0
827,1778446567040,828.0,1.4286392,-0.13842508,-0.97247714,0.0,0.0,0.0
828,1778446567050,829.0,1.3376147000000005,-0.02905199,-0.88654435,0.0,0.0,0.0
829,1778446567060,830.0,1.3376147000000005,-0.02905199,-0.88654435,0.0,0.0,0.0
830,1778446567070,831.0,1.3376147000000005,-0.02905199,-0.88654435,0.0,0.0,0.0
831,1778446567080,832.0,1.3376147000000005,-0.02905199,-0.88654435,0.0,0.0,0.0
832,1778446567090,833.0,1.2683028,0.034449544,-0.8089755,0.0,0.0,0.0
833,1778446567100,834.0,1.2683028,0.034449544,-0.8089755,0.0,0.0,0.0
834,1778446567110,835.0,1.2683028,0.034449544,-0.8089755,0.0,0.0,0.0
835,1778446567120,836.0,1.2683028,0.034449544,-0.8089755,0.0,0.0,0.0
836,1778446567130,837.0,1.2683028,0.034449544,-0.8089755,0.0,0.0,0.0
837,1778446567140,838.0,1.2559327666666666,0.0586442426666666,-0.7944648133333333,0.0,0.0,0.0
838,1778446567150,839.0,1.2311927,0.10703364,-0.76544344,0.0,0.0,0.0
839,1778446567160,840.0,1.2311927,0.10703364,-0.76544344,0.0,0.0,0.0
840,1778446567170,841.0,1.2311927,0.10703364,-0.76544344,0.0,0.0,0.0
841,1778446567180,842.0,1.2311927,0.10703364,-0.76544344,0.0,0.0,0.0
842,1778446567190,843.0,1.2311927,0.10703364,-0.76544344,0.0,0.0,0.0
843,1778446567200,844.0,1.2311927,0.10703364,-0.76544344,0.0,0.0,0.0
844,1778446567210,845.0,1.2311927,0.10703364,-0.76544344,0.0,0.0,0.0
845,1778446567220,846.0,1.1979663,0.16992354,-0.6849083,0.0,0.0,0.0
846,1778446567230,847.0,1.1979663,0.16992354,-0.6849083,0.0,0.0,0.0
847,1778446567240,848.0,1.2056116,0.18490826,-0.6512385666666667,0.0,0.0,0.0
848,1778446567250,849.0,1.2209022,0.2148777,-0.5838991,0.0,0.0,0.0
849,1778446567260,850.0,1.2209022,0.2148777,-0.5838991,0.0,0.0,0.0
850,1778446567270,851.0,1.23282885,0.241563465,-0.6245642499999999,0.0,0.0,0.0
851,1778446567280,852.0,1.2368044,0.25045872,-0.6381193,0.0,0.0,0.0
852,1778446567290,853.0,1.2424005,0.2617737,-0.7545413,0.0,0.0,0.0
853,1778446567300,854.0,1.2424005,0.2617737,-0.7545413,0.0,0.0,0.0
854,1778446567310,855.0,1.2424005,0.2617737,-0.7545413,0.0,0.0,0.0
855,1778446567320,856.0,1.2539296,0.30152905,-0.9777829,0.0,0.0,0.0
856,1778446567330,857.0,1.2539296,0.30152905,-0.9777829,0.0,0.0,0.0
857,1778446567340,858.0,1.2539296,0.30152905,-0.9777829,0.0,0.0,0.0
858,1778446567350,859.0,1.2539296,0.30152905,-0.9777829,0.0,0.0,0.0
859,1778446567360,860.0,1.2539296,0.30152905,-0.9777829,0.0,0.0,0.0
860,1778446567370,861.0,1.2539296,0.30152905,-0.9777829,0.0,0.0,0.0
861,1778446567380,862.0,1.08756878,0.402293595,-1.0356269,0.0,0.0,0.0
862,1778446567390,863.0,0.92120796,0.50305814,-1.0934709,0.0,0.0,0.0
863,1778446567400,864.0,0.92120796,0.50305814,-1.0934709,0.0,0.0,0.0
864,1778446567410,865.0,0.8520107400000001,0.53402141,-1.049743875,0.0,0.0,0.0
865,1778446567420,866.0,0.72282875,0.58368504,-0.99714065,0.0,0.0,0.0
866,1778446567430,867.0,0.72282875,0.58368504,-0.99714065,0.0,0.0,0.0
867,1778446567440,868.0,0.72282875,0.58368504,-0.99714065,0.0,0.0,0.0
868,1778446567450,869.0,0.72282875,0.58368504,-0.99714065,0.0,0.0,0.0
869,1778446567460,870.0,0.72282875,0.58368504,-0.99714065,0.0,0.0,0.0
870,1778446567470,871.0,0.72282875,0.58368504,-0.99714065,0.0,0.0,0.0
871,1778446567480,872.0,0.72282875,0.58368504,-0.99714065,0.0,0.0,0.0
872,1778446567490,873.0,0.72282875,0.58368504,-0.99714065,0.0,0.0,0.0
873,1778446567500,874.0,0.72282875,0.58368504,-0.99714065,0.0,0.0,0.0
874,1778446567510,875.0,0.6661518833333333,0.5929307133333334,-0.9554892833333334,0.0,0.0,0.0
875,1778446567520,876.0,0.6051324833333332,0.6103975566666667,-0.847263,0.0,0.0,0.0
876,1778446567530,877.0,0.588792,0.61681956,-0.8035627,0.0,0.0,0.0
877,1778446567540,878.0,0.588792,0.61681956,-0.8035627,0.0,0.0,0.0
878,1778446567550,879.0,0.588792,0.61681956,-0.8035627,0.0,0.0,0.0
879,1778446567560,880.0,0.588792,0.61681956,-0.8035627,0.0,0.0,0.0
880,1778446567570,881.0,0.588792,0.61681956,-0.8035627,0.0,0.0,0.0
881,1778446567580,882.0,0.59099895,0.6196737866666667,-0.76965342,0.0,0.0,0.0
882,1778446567590,883.0,0.59541285,0.62538224,-0.70183486,0.0,0.0,0.0
883,1778446567600,884.0,0.59541285,0.62538224,-0.70183486,0.0,0.0,0.0
884,1778446567610,885.0,0.59541285,0.62538224,-0.70183486,0.0,0.0,0.0
885,1778446567620,886.0,0.59541285,0.62538224,-0.70183486,0.0,0.0,0.0
886,1778446567630,887.0,0.5950051133333333,0.62619776,-0.60564219,0.0,0.0,0.0
887,1778446567640,888.0,0.59418964,0.6278288,-0.41325685,0.0,0.0,0.0
888,1778446567650,889.0,0.59418964,0.6278288,-0.41325685,0.0,0.0,0.0
889,1778446567660,890.0,0.58710247,0.6189067500000001,-0.33894494,0.0,0.0,0.0
890,1778446567670,891.0,0.5800153,0.6099847,-0.26463303,0.0,0.0,0.0
891,1778446567680,892.0,0.5800153,0.6099847,-0.26463303,0.0,0.0,0.0
892,1778446567690,893.0,0.5800153,0.6099847,-0.26463303,0.0,0.0,0.0
893,1778446567700,894.0,0.5800153,0.6099847,-0.26463303,0.0,0.0,0.0
894,1778446567710,895.0,0.5800153,0.6099847,-0.26463303,0.0,0.0,0.0
895,1778446567720,896.0,0.5800153,0.6099847,-0.26463303,0.0,0.0,0.0
896,1778446567730,897.0,0.6729816,0.57044345,-0.25882262,0.0,0.0,0.0
897,1778446567740,898.0,0.6729816,0.57044345,-0.25882262,0.0,0.0,0.0
898,1778446567750,899.0,0.6729816,0.57044345,-0.25882262,0.0,0.0,0.0
899,1778446567760,900.0,0.6729816,0.57044345,-0.25882262,0.0,0.0,0.0
900,1778446567770,901.0,0.6729816,0.57044345,-0.25882262,0.0,0.0,0.0
901,1778446567780,902.0,0.6729816,0.57044345,-0.25882262,0.0,0.0,0.0
902,1778446567790,903.0,0.6729816,0.57044345,-0.25882262,0.0,0.0,0.0
903,1778446567800,904.0,0.6729816,0.57044345,-0.25882262,0.0,0.0,0.0
904,1778446567810,905.0,0.6729816,0.57044345,-0.25882262,0.0,0.0,0.0
905,1778446567820,906.0,0.6729816,0.57044345,-0.25882262,0.0,0.0,0.0
906,1778446567830,907.0,0.7984352466666667,0.51614171,-0.27587666,0.0,0.0,0.0
907,1778446567840,908.0,0.8611620700000001,0.48899084,-0.28440368,0.0,0.0,0.0
908,1778446567850,909.0,0.8611620700000001,0.48899084,-0.28440368,0.0,0.0,0.0
909,1778446567860,910.0,0.919365435,0.45040521,-0.37446484,0.0,0.0,0.0
910,1778446567870,911.0,0.9775688,0.41181958,-0.464526,0.0,0.0,0.0
911,1778446567880,912.0,0.9775688,0.41181958,-0.464526,0.0,0.0,0.0
912,1778446567890,913.0,0.9775688,0.41181958,-0.464526,0.0,0.0,0.0
913,1778446567900,914.0,0.9775688,0.41181958,-0.464526,0.0,0.0,0.0
914,1778446567910,915.0,1.0052217,0.386131505,-0.51304664,0.0,0.0,0.0
915,1778446567920,916.0,1.0881804,0.30906728,-0.65860856,0.0,0.0,0.0
916,1778446567930,917.0,1.1420030666666667,0.2584454599999999,-0.8216462533333333,0.0,0.0,0.0
917,1778446567940,918.0,1.1689144,0.23313455,-0.9031651000000002,0.0,0.0,0.0
918,1778446567950,919.0,1.1689144,0.23313455,-0.9031651000000002,0.0,0.0,0.0
919,1778446567960,920.0,1.1689144,0.23313455,-0.9031651000000002,0.0,0.0,0.0
920,1778446567970,921.0,1.1689144,0.23313455,-0.9031651000000002,0.0,0.0,0.0
921,1778446567980,922.0,1.1689144,0.23313455,-0.9031651000000002,0.0,0.0,0.0
922,1778446567990,923.0,1.173448,0.19862385,-0.940474,0.0,0.0,0.0
923,1778446568000,924.0,1.1779816,0.16411315,-0.9777829,0.0,0.0,0.0
924,1778446568010,925.0,1.1779816,0.16411315,-0.9777829,0.0,0.0,0.0
925,1778446568020,926.0,1.1779816,0.16411315,-0.9777829,0.0,0.0,0.0
926,1778446568030,927.0,1.1779816,0.16411315,-0.9777829,0.0,0.0,0.0
927,1778446568040,928.0,1.1779816,0.16411315,-0.9777829,0.0,0.0,0.0
928,1778446568050,929.0,1.1779816,0.16411315,-0.9777829,0.0,0.0,0.0
929,1778446568060,930.0,1.1779816,0.16411315,-0.9777829,0.0,0.0,0.0
930,1778446568070,931.0,1.1779816,0.16411315,-0.9777829,0.0,0.0,0.0
931,1778446568080,932.0,1.1779816,0.16411315,-0.9777829,0.0,0.0,0.0
932,1778446568090,933.0,1.1779816,0.16411315,-0.9777829,0.0,0.0,0.0
933,1778446568100,934.0,1.2010907333333334,0.045050968,-0.9242966333333332,0.0,0.0,0.0
934,1778446568110,935.0,1.2126453,-0.014480123,-0.8975535,0.0,0.0,0.0
935,1778446568120,936.0,1.2126453,-0.014480123,-0.8975535,0.0,0.0,0.0
936,1778446568130,937.0,1.2126453,-0.014480123,-0.8975535,0.0,0.0,0.0
937,1778446568140,938.0,1.2126453,-0.014480123,-0.8975535,0.0,0.0,0.0
938,1778446568150,939.0,1.2126453,-0.014480123,-0.8975535,0.0,0.0,0.0
939,1778446568160,940.0,1.2126453,-0.014480123,-0.8975535,0.0,0.0,0.0
940,1778446568170,941.0,1.2800153,-0.111116216,-0.7874617599999999,0.0,0.0,0.0
941,1778446568180,942.0,1.2800153,-0.111116216,-0.7874617599999999,0.0,0.0,0.0
942,1778446568190,943.0,1.2800153,-0.111116216,-0.78746176,0.0,0.0,0.0
943,1778446568200,944.0,1.2800153,-0.111116216,-0.7874617599999999,0.0,0.0,0.0
944,1778446568210,945.0,1.2800153,-0.111116216,-0.7874617599999999,0.0,0.0,0.0
945,1778446568220,946.0,1.2800153,-0.111116216,-0.7874617599999999,0.0,0.0,0.0
946,1778446568230,947.0,1.3351631333333334,-0.1777472006666667,-0.7585117066666666,0.0,0.0,0.0
947,1778446568240,948.0,1.4454588,-0.31100917,-0.7006116,0.0,0.0,0.0
948,1778446568250,949.0,1.5874618,-0.43986237,-0.66931194,0.0,0.0,0.0
949,1778446568260,950.0,1.618312966666667,-0.4762181466666666,-0.6651019433333333,0.0,0.0,0.0
950,1778446568270,951.0,1.6800153,-0.5489297,-0.65668195,0.0,0.0,0.0
951,1778446568280,952.0,1.6800153,-0.5489297,-0.65668195,0.0,0.0,0.0
952,1778446568290,953.0,1.6800153,-0.5489297,-0.65668195,0.0,0.0,0.0
953,1778446568300,954.0,1.6800153,-0.5489297,-0.65668195,0.0,0.0,0.0
954,1778446568310,955.0,1.69301225,-0.59727449,-0.6426911375,0.0,0.0,0.0
955,1778446568320,956.0,1.7320031,-0.74230886,-0.6007187,0.0,0.0,0.0
956,1778446568330,957.0,1.7320031,-0.74230886,-0.6007187,0.0,0.0,0.0
957,1778446568340,958.0,1.7320031,-0.74230886,-0.6007187,0.0,0.0,0.0
958,1778446568350,959.0,1.7320031,-0.74230886,-0.6007187,0.0,0.0,0.0
959,1778446568360,960.0,1.7320031,-0.74230886,-0.6007187,0.0,0.0,0.0
960,1778446568370,961.0,1.7320031,-0.74230886,-0.6007187,0.0,0.0,0.0
961,1778446568380,962.0,1.7320031,-0.74230886,-0.6007187,0.0,0.0,0.0
962,1778446568390,963.0,1.7320031,-0.74230886,-0.6007187,0.0,0.0,0.0
963,1778446568400,964.0,1.7320031,-0.74230886,-0.6007187,0.0,0.0,0.0
964,1778446568410,965.0,1.7320031,-0.74230886,-0.6007187,0.0,0.0,0.0
965,1778446568420,966.0,1.7320031,-0.74230886,-0.6007187,0.0,0.0,0.0
966,1778446568430,967.0,1.7320031,-0.74230886,-0.6007187,0.0,0.0,0.0
967,1778446568440,968.0,1.7320031,-0.74230886,-0.6007187,0.0,0.0,0.0
968,1778446568450,969.0,1.73577985,-0.7781345550000001,-0.5963303,0.0,0.0,0.0
969,1778446568460,970.0,1.7395566,-0.81396025,-0.5919419,0.0,0.0,0.0
970,1778446568470,971.0,1.7395566,-0.81396025,-0.5919419,0.0,0.0,0.0
971,1778446568480,972.0,1.7395566,-0.81396025,-0.5919419,0.0,0.0,0.0
972,1778446568490,973.0,1.7152957333333332,-0.83706935,-0.5942558666666667,0.0,0.0,0.0
973,1778446568500,974.0,1.7031653,-0.8486239000000001,-0.59541285,0.0,0.0,0.0
974,1778446568510,975.0,1.7031653,-0.8486239,-0.59541285,0.0,0.0,0.0
975,1778446568520,976.0,1.7031653,-0.8486239000000001,-0.59541285,0.0,0.0,0.0
976,1778446568530,977.0,1.7031653,-0.8486239000000001,-0.59541285,0.0,0.0,0.0
977,1778446568540,978.0,1.7031653,-0.8486239,-0.59541285,0.0,0.0,0.0
978,1778446568550,979.0,1.4850153,-0.8889909,-0.66931194,0.0,0.0,0.0
979,1778446568560,980.0,1.4850153,-0.8889909,-0.66931194,0.0,0.0,0.0
980,1778446568570,981.0,1.4850153,-0.8889909,-0.66931194,0.0,0.0,0.0
981,1778446568580,982.0,1.4850153,-0.8889909,-0.66931194,0.0,0.0,0.0
982,1778446568590,983.0,1.3834506,-0.8989500666666667,-0.66999493,0.0,0.0,0.0
983,1778446568600,984.0,1.2828747,-0.90744644,-0.6671713,0.0,0.0,0.0
984,1778446568610,985.0,1.2047911000000002,-0.9130122466666668,-0.64189094,0.0,0.0,0.0
985,1778446568620,986.0,0.9101988,-0.9441438,-0.5160092,0.0,0.0,0.0
986,1778446568630,987.0,0.9101988,-0.9441438,-0.5160092,0.0,0.0,0.0
987,1778446568640,988.0,0.8255199000000001,-0.9504638666666666,-0.4566463,0.0,0.0,0.0
988,1778446568650,989.0,0.6561621,-0.963104,-0.3379205,0.0,0.0,0.0
989,1778446568660,990.0,0.6561621,-0.963104,-0.3379205,0.0,0.0,0.0
990,1778446568670,991.0,0.5148777,-0.9626911,-0.2490367,0.0,0.0,0.0
991,1778446568680,992.0,0.5148777,-0.9626911,-0.2490367,0.0,0.0,0.0
992,1778446568690,993.0,0.3449898333333333,-0.9538532333333332,-0.1491386333333333,0.0,0.0,0.0
993,1778446568700,994.0,0.2600459,-0.9494343,-0.0991896,0.0,0.0,0.0
994,1778446568710,995.0,0.2600459,-0.9494343,-0.0991896,0.0,0.0,0.0
995,1778446568720,996.0,0.2600459,-0.9494343,-0.0991896,0.0,0.0,0.0
996,1778446568730,997.0,0.2600459,-0.9494343,-0.0991896,0.0,0.0,0.0
997,1778446568740,998.0,0.2600459,-0.9494343,-0.0991896,0.0,0.0,0.0
998,1778446568750,999.0,0.2600459,-0.9494343,-0.0991896,0.0,0.0,0.0
999,1778446568760,1000.0,0.2600459,-0.9494343,-0.0991896,0.0,0.0,0.0
1000,1778446568770,1001.0,0.2600459,-0.9494343,-0.0991896,0.0,0.0,0.0
