id,timestamp,acc_x,acc_y,acc_z,gyro_x,gyro_y,gyro_z
0,0.0,,,,,,
1,0.01,-0.009518232,0.057841565,1.0294335,0.13622294,-0.037873644,-0.06780604
2,0.02,-0.009518232,0.057841565,1.0294335,0.13622294,-0.037873644,-0.06780604
3,0.03,-0.009518232,0.057841565,1.0294335,0.13622294,-0.037873644,-0.06780604
4,0.04,-0.009518232,0.057841565,1.0294335,0.13622294,-0.037873644,-0.06780604
5,0.05,-0.009518232,0.057841565,1.0294335,0.13622294,-0.037873644,-0.06780604
6,0.06,-0.009518232,0.057841565,1.0294335,0.13622294,-0.037873644,-0.06780604
7,0.07,-0.005276863491727222,0.05520899446011248,1.0244607685456966,0.13622294,-0.037873644,-0.06780604
8,0.08,-0.0024405725,0.05344854,1.0211354,0.14069399525328674,-0.08470206043137492,-0.06545285403832786
9,0.09,-0.0024405725,0.05344854,1.0211354,0.14782938,-0.15943582,-0.06169739
10,0.1,-0.0024405725,0.05344854,1.0211354,0.14782938,-0.15943582,-0.06169739
11,0.11,-0.0024405725,0.05344854,1.0211354,0.14782938,-0.15943582,-0.06169739
12,0.12,-0.0024405725,0.05344854,1.0211354,-0.025788719369677297,0.01940689677879944,-0.10831706690194176
13,0.13,-0.0024405725,0.05344854,1.0211354,-0.1160644,0.112399206,-0.13255776
14,0.14,-0.0024405725,0.05344854,1.0211354,-0.1160644,0.112399206,-0.13255776
15,0.15,-0.0024405725,0.05344854,1.0211354,-0.1160644,0.112399206,-0.13255776
16,0.16,-0.0024405725,0.05344854,1.0211354,-0.1160644,0.112399206,-0.13255776
17,0.17,-0.0024405725,0.05344854,1.0211354,-0.1160644,0.112399206,-0.13255776
18,0.18,0.01300596895765902,0.06426112190799704,1.0188184876692639,-0.1160644,0.112399206,-0.13255776
19,0.19,0.017084008,0.06711575,1.0182068,-0.1160644,0.112399206,-0.13255776
20,0.2,0.017084008,0.06711575,1.0182068,-0.1506130709394498,-0.011128599550739745,-0.07747543961566816
21,0.21,0.017084008,0.06711575,1.0182068,-0.18081611,-0.11911872,-0.029321533
22,0.22,0.017084008,0.06711575,1.0182068,-0.18081611,-0.11911872,-0.029321533
23,0.23,0.017084008,0.06711575,1.0182068,-0.18081611,-0.11911872,-0.029321533
24,0.24,0.017084008,0.06711575,1.0182068,-0.18081611,-0.11911872,-0.029321533
25,0.25,0.017084008,0.06711575,1.0182068,-0.18081611,-0.11911872,-0.029321533
26,0.26,0.017084008,0.06711575,1.0182068,-0.18081611,-0.11911872,-0.029321533
27,0.27,0.017084008,0.06711575,1.0182068,-0.18081611,-0.11911872,-0.029321533
28,0.28,0.017084008,0.06711575,1.0182068,-0.18081611,-0.11911872,-0.029321533
29,0.29,0.017084008,0.06711575,1.0182068,-0.18081611,-0.11911872,-0.029321533
30,0.3,0.017084008,0.06711575,1.0182068,-0.18081611,-0.11911872,-0.029321533
31,0.31,0.017084008,0.06711575,1.0182068,-0.18081611,-0.11911872,-0.029321533
32,0.32,0.017084008,0.06711575,1.0182068,-0.18081611,-0.11911872,-0.029321533
33,0.33,0.017084008,0.06711575,1.0182068,-0.18081611,-0.11911872,-0.029321533
34,0.34,0.017084008,0.06711575,1.0182068,-0.18081611,-0.11911872,-0.029321533
35,0.35,0.017084008,0.06711575,1.0182068,-0.18081611,-0.11911872,-0.029321533
36,0.36,0.017084008,0.06711575,1.0182068,-0.18081611,-0.11911872,-0.029321533
37,0.37,0.017084008,0.06711575,1.0182068,-0.18081611,-0.11911872,-0.029321533
38,0.38,0.017084008,0.06711575,1.0182068,-0.18081611,-0.11911872,-0.029321533
39,0.39,0.013433134955141507,0.07021898933939821,1.0039684268757056,-0.11753557235444108,-0.14744647378144432,-0.025666339024003487
40,0.4,0.007321717,0.07541369,0.98013395,-0.01160644,-0.19486602,-0.019547688
41,0.41,0.007321717,0.07541369,0.98013395,-0.01160644,-0.19486602,-0.019547688
42,0.42,0.007321717,0.07541369,0.98013395,0.00982136041152933,0.07974815604323236,-0.046050491585866146
43,0.43,0.007321717,0.07541369,0.98013395,0.01160644,0.10262536,-0.048258353
44,0.44,0.007321717,0.07541369,0.98013395,-0.056204865266905046,-0.09402742774088285,-0.02452439615658323
45,0.45,0.016811570595600303,0.19733195002422538,0.9376932074933202,-0.04820468658905406,-0.059544372078197065,-0.020330605826620968
46,0.46,0.024893839,0.30116665,0.9015475,-0.07496843070670343,0.014778525331403227,-0.04223962803812965
47,0.47,0.024893839,0.30116665,0.9015475,-0.15332718,-0.051923547,-0.05681047
48,0.48,0.01697939050825557,0.2654026144494043,0.9113163759947029,-0.15332718,-0.051923547,-0.05681047
49,0.49,-0.0291709948244299,0.05685693708053664,0.9682802177447671,-0.15332718,-0.051923547,-0.05681047
50,0.5,-0.033435844,0.037584815,0.97354436,-0.15332718,-0.051923547,-0.05681047
51,0.51,-0.033435844,0.037584815,0.97354436,-0.15332718,-0.051923547,-0.05681047
52,0.52,-0.033435844,0.037584815,0.97354436,-0.15332718,-0.051923547,-0.05681047
53,0.53,-0.033435844,0.037584815,0.97354436,-0.15332718,-0.051923547,-0.05681047
54,0.54,-0.033435844,0.037584815,0.97354436,-0.15332718,-0.051923547,-0.05681047
55,0.55,-0.033435844,0.037584815,0.97354436,-0.15332718,-0.051923547,-0.05681047
56,0.56,-0.01859967357083369,0.047688759547940336,0.9890199743732652,-0.15332718,-0.051923547,-0.05681047
57,0.57,-0.0051252022,0.05686534,1.0030752,-0.15332718,-0.051923547,-0.05681047
58,0.58,-0.0051252022,0.05686534,1.0030752,-0.15332718,-0.051923547,-0.05681047
59,0.59,-0.0051252022,0.05686534,1.0030752,-0.13638672200511984,-0.05040649116312244,-0.04745529174138639
60,0.6,-0.0051252022,0.05686534,1.0030752,-0.039284173094366305,-0.04171074110457804,0.006168503713281424
61,0.61,-0.0051252022,0.05686534,1.0030752,-0.030543262,-0.040927973,0.010995574
62,0.62,-0.0051252022,0.05686534,1.0030752,-0.030543262,-0.040927973,0.010995574
63,0.63,-0.0051252022,0.05686534,1.0030752,-0.009305610260736298,0.03140315978628996,-0.01886025430003767
64,0.64,-3.4098363871125896e-05,0.04703424270397151,1.0064985524593866,0.01160644,0.10262536,-0.048258353
65,0.65,0.009030119,0.029530926,1.0125935,0.01160644,0.10262536,-0.048258353
66,0.66,0.009338214254711385,0.03230378348661621,1.0142998814271933,0.01160644,0.10262536,-0.048258353
67,0.67,0.011885192674971684,0.05522659087449558,1.028406287174552,0.01160644,0.10262536,-0.048258353
68,0.68,0.012202863,0.058085624,1.0301657,0.01160644,0.10262536,-0.048258353
69,0.69,0.012202863,0.058085624,1.0301657,0.01160644,0.10262536,-0.048258353
70,0.7,0.012202863,0.058085624,1.0301657,0.01160644,0.10262536,-0.048258353
71,0.71,0.012202863,0.058085624,1.0301657,0.01160644,0.10262536,-0.048258353
72,0.72,0.012202863,0.058085624,1.0301657,0.01160644,0.10262536,-0.048258353
73,0.73,0.012202863,0.058085624,1.0301657,0.01160644,0.10262536,-0.048258353
74,0.74,0.012202863,0.058085624,1.0301657,0.01160644,0.10262536,-0.048258353
75,0.75,0.012202863,0.058085624,1.0301657,0.01160644,0.10262536,-0.048258353
76,0.76,0.012202863,0.058085624,1.0301657,0.01160644,0.10262536,-0.048258353
77,0.77,0.012202863,0.058085624,1.0301657,0.01160644,0.10262536,-0.048258353
78,0.78,0.012202863,0.058085624,1.0301657,0.01160644,0.10262536,-0.048258353
79,0.79,0.012202863,0.058085624,1.0301657,0.01160644,0.10262536,-0.048258353
80,0.8,0.012202863,0.058085624,1.0301657,0.01160644,0.10262536,-0.048258353
81,0.81,0.012202863,0.058085624,1.0301657,0.01160644,0.10262536,-0.048258353
82,0.82,0.012202863,0.058085624,1.0301657,0.01160644,0.10262536,-0.048258353
83,0.83,-0.02303937036210014,0.049803699871083844,0.9825886552505564,0.01160644,0.10262536,-0.048258353
84,0.84,-0.036608588,0.046614934,0.9642702,0.01160644,0.10262536,-0.048258353
85,0.85,-0.036608588,0.046614934,0.9642702,0.01160644,0.10262536,-0.048258353
86,0.86,-0.036608588,0.046614934,0.9642702,0.01160644,0.10262536,-0.048258353
87,0.87,-0.036608588,0.046614934,0.9642702,0.01160644,0.10262536,-0.048258353
88,0.88,-0.036608588,0.046614934,0.9642702,0.01160644,0.10262536,-0.048258353
89,0.89,-0.036608588,0.046614934,0.9642702,0.01160644,0.10262536,-0.048258353
90,0.9,0.007015665659944171,0.03615953372764595,0.9929323410824028,0.01160644,0.10262536,-0.048258353
91,0.91,0.022453265,0.032459613,1.0030752,-0.009219647296259443,0.05715507039753929,-0.0246554549165585
92,0.92,0.022453265,0.032459613,1.0030752,-0.025045475,0.022602014,-0.0067195175
93,0.93,0.022453265,0.032459613,1.0030752,-0.025045475,0.022602014,-0.0067195175
94,0.94,0.022453265,0.032459613,1.0030752,-0.025045475,0.022602014,-0.0067195175
95,0.95,0.022453265,0.032459613,1.0030752,-0.025045475,0.022602014,-0.0067195175
96,0.96,0.022453265,0.032459613,1.0030752,-0.025045475,0.022602014,-0.0067195175
97,0.97,0.022453265,0.032459613,1.0030752,-0.013685906471935962,0.06667714191211875,-0.05397532446608645
98,0.98,0.022453265,0.032459613,1.0030752,-0.009773844,0.081855945,-0.070249505
99,0.99,0.022453265,0.032459613,1.0030752,-0.016883194857305057,-0.042049876959401204,-0.31907677004232154
100,1.0,0.022453265,0.032459613,1.0030752,-0.01799106852971126,-0.25137100640448495,-0.7090144789618936
101,1.01,0.018767650877110596,0.032382829526469176,1.0012707950182296,0.059864793,-0.018325957,-0.061086524
102,1.02,-0.018553538821905805,0.0316053063008021,0.9829990665157039,0.059864793,-0.018325957,-0.061086524
103,1.03,0.007818961007261368,0.040551638161804085,0.9916311238218829,0.059864793,-0.018325957,-0.061086524
104,1.04,0.024161667,0.04515059,0.9974619,0.059864793,-0.018325957,-0.061086524
105,1.05,0.024161667,0.04515059,0.9974619,0.059864793,-0.018325957,-0.061086524
106,1.06,0.024161667,0.04515059,0.9974619,0.059864793,-0.018325957,-0.061086524
107,1.07,0.024161667,0.04515059,0.9974619,0.059864793,-0.018325957,-0.061086524
108,1.08,0.024161667,0.04515059,0.9974619,-0.08917741351202997,0.018181856069695843,0.10827961172604296
109,1.09,0.024161667,0.04515059,0.9974619,-0.18203785,0.040927973,0.21380283
110,1.1,0.024161667,0.04515059,0.9974619,-0.18203785,0.040927973,0.21380283
111,1.11,0.024161667,0.04515059,0.9974619,-0.18203785,0.040927973,0.21380283
112,1.12,0.024161667,0.04515059,0.9974619,-0.18203785,0.040927973,0.21380283
113,1.13,0.024161667,0.04515059,0.9974619,-0.18203785,0.040927973,0.21380283
114,1.14,0.024161667,0.04515059,0.9974619,-0.18203785,0.040927973,0.21380283
115,1.15,0.024161667,0.04515059,0.9974619,-0.18203785,0.040927973,0.21380283
116,1.16,0.024161667,0.04515059,0.9974619,-0.18203785,0.040927973,0.21380283
117,1.17,-0.019855911833346243,0.10803284952100814,0.9468106065050385,-0.18203785,0.040927973,0.21380283
118,1.18,-0.1313028,0.2672427,0.818568,-0.18203785,0.040927973,0.21380283
119,1.19,-0.1313028,0.2672427,0.818568,-0.18203785,0.040927973,0.21380283
120,1.2,-0.1313028,0.2672427,0.818568,-0.18203785,0.040927973,0.21380283
121,1.21,-0.1313028,0.2672427,0.818568,-0.18203785,0.040927973,0.21380283
122,1.22,-0.1313028,0.2672427,0.818568,-0.18203785,0.040927973,0.21380283
123,1.23,-0.1313028,0.2672427,0.818568,-0.18203785,0.040927973,0.21380283
124,1.24,-0.1313028,0.2672427,0.818568,-0.18203785,0.040927973,0.21380283
125,1.25,-0.1313028,0.2672427,0.818568,-0.18203785,0.040927973,0.21380283
126,1.26,-0.051055441350596135,0.11132902477395944,0.9281972904757811,-0.18203785,0.040927973,0.21380283
127,1.27,-0.007321717,0.026358182,0.98794377,-0.18203785,0.040927973,0.21380283
128,1.28,-0.007321717,0.026358182,0.98794377,-0.18203785,0.040927973,0.21380283
129,1.29,-0.007321717,0.026358182,0.98794377,-0.13943544542186506,-0.018306873377713223,0.14712715309008567
130,1.3,-0.007321717,0.026358182,0.98794377,-0.0036651916,-0.20708331,-0.06536258
131,1.31,-0.007321717,0.026358182,0.98794377,-0.0036651916,-0.20708331,-0.06536258
132,1.32,-0.007321717,0.026358182,0.98794377,-0.0036651916,-0.20708331,-0.06536258
133,1.33,-0.007321717,0.026358182,0.98794377,-0.0036651916,-0.20708331,-0.06536258
134,1.34,-0.014981542554694674,0.036986190143489445,0.9824861265105117,-0.0036651916,-0.20708331,-0.06536258
135,1.35,-0.026846299,0.05344854,0.97403246,-0.0036651916,-0.20708331,-0.06536258
136,1.36,-0.026846299,0.05344854,0.97403246,-0.0036651916,-0.20708331,-0.06536258
137,1.37,-0.026846299,0.05344854,0.97403246,-0.0036651916,-0.20708331,-0.06536258
138,1.38,-0.026846299,0.05344854,0.97403246,-0.2021841879697504,-0.39177688609317196,-0.9395550887786139
139,1.39,-0.026846299,0.05344854,0.97403246,-0.34574974,-0.52534413,-1.5717562
140,1.4,-0.026846299,0.05344854,0.97403246,-0.26282395806145925,-0.4279912010573322,-1.2832132976261665
141,1.41,-0.026846299,0.05344854,0.97403246,0.0720821,-0.03481932,-0.11789699
142,1.42,-0.026846299,0.05344854,0.97403246,0.0720821,-0.03481932,-0.11789699
143,1.43,-0.026846299,0.05344854,0.97403246,0.0720821,-0.03481932,-0.11789699
144,1.44,0.005134639440865864,0.048245897178771195,0.988722233717775,0.0720821,-0.03481932,-0.11789699
145,1.45,0.024161667,0.04515059,0.9974619,0.03966586793387826,-0.09476714699623381,-0.12877640765483472
146,1.46,0.024161667,0.04515059,0.9974619,-0.017104227,-0.19975294,-0.14782938
147,1.47,0.024161667,0.04515059,0.9974619,-0.017104227,-0.19975294,-0.14782938
148,1.48,0.024161667,0.04515059,0.9974619,-0.017104227,-0.19975294,-0.14782938
149,1.49,0.024161667,0.04515059,0.9974619,-0.017104227,-0.19975294,-0.14782938
150,1.5,0.024161667,0.04515059,0.9974619,-0.014797128299294578,-0.197702186345402,-0.0939970789418664
151,1.51,0.024161667,0.04515059,0.9974619,-0.01160644,-0.19486602,-0.019547688
152,1.52,0.01689112717777925,0.04526785737464957,1.000041788488645,-0.01160644,-0.19486602,-0.019547688
153,1.53,-0.0061014313,0.045638707,1.0082005,-0.01160644,-0.19486602,-0.019547688
154,1.54,-0.0061014313,0.045638707,1.0082005,-0.01160644,-0.19486602,-0.019547688
155,1.55,0.03050667579353169,0.06519892220271428,1.0074827153349668,-0.01160644,-0.19486602,-0.019547688
156,1.56,0.04368625,0.07224095,1.0072243,-0.003425980720568804,-0.15789034128866078,-0.09906174836500416
157,1.57,0.04368625,0.07224095,1.0072243,0.0036651916,-0.12583824,-0.16798794
158,1.58,0.041710303131387745,0.06783623514052511,0.9926516954282584,0.0036651916,-0.12583824,-0.16798794
159,1.59,0.03262918187461874,0.04759290250047482,0.9256784426323095,0.0036651916,-0.12583824,-0.16798794
160,1.6,0.0319715,0.04612682,0.92082804,0.0036651916,-0.12583824,-0.16798794
161,1.61,0.0319715,0.04612682,0.92082804,0.0036651916,-0.12583824,-0.16798794
162,1.62,0.0319715,0.04612682,0.92082804,0.0036651916,-0.12583824,-0.16798794
163,1.63,0.00885475341016008,0.04174680540240862,0.9669398467760798,0.10933630452740142,-0.04544292564628849,-0.2760952743901828
164,1.64,-0.014399378,0.03734076,1.0133257,0.21563543,0.035430185,-0.3848451
165,1.65,-0.014399378,0.03734076,1.0133257,0.21563543,0.035430185,-0.3848451
166,1.66,-0.014399378,0.03734076,1.0133257,0.04224555432745737,-0.13978006206172033,-0.20826957886636624
167,1.67,-0.015392769367698645,0.029517794329932033,0.9933336666712534,-0.017104227,-0.19975294,-0.14782938
168,1.68,-0.016351834,0.021965152,0.97403246,-0.017104227,-0.19975294,-0.14782938
169,1.69,-0.016351834,0.021965152,0.97403246,-0.017104227,-0.19975294,-0.14782938
170,1.7,-0.016351834,0.021965152,0.97403246,-0.017104227,-0.19975294,-0.14782938
171,1.71,-0.016351834,0.021965152,0.97403246,-0.017104227,-0.19975294,-0.14782938
172,1.72,-0.016351834,0.021965152,0.97403246,-0.017104227,-0.19975294,-0.14782938
173,1.73,-0.016351834,0.021965152,0.97403246,-0.017104227,-0.19975294,-0.14782938
174,1.74,-0.016351834,0.021965152,0.97403246,-0.017104227,-0.19975294,-0.14782938
175,1.75,-0.016351834,0.021965152,0.97403246,-0.017104227,-0.19975294,-0.14782938
176,1.76,-0.016351834,0.021965152,0.97403246,-0.017104227,-0.19975294,-0.14782938
177,1.77,-0.016351834,0.021965152,0.97403246,-0.017104227,-0.19975294,-0.14782938
178,1.78,-0.010979589676980773,0.02483034942882695,0.9808373267617289,-0.017104227,-0.19975294,-0.14782938
179,1.79,-0.0053692595,0.027822526,0.98794377,-0.017104227,-0.19975294,-0.14782938
180,1.8,-0.0053692595,0.027822526,0.98794377,-0.017104227,-0.19975294,-0.14782938
181,1.81,-0.004991101595079299,0.02736135782096306,0.9870859954580163,-0.017104227,-0.19975294,-0.14782938
182,1.82,0.003609238996385627,0.01687313753506141,0.9675778664046392,-0.017104227,-0.19975294,-0.14782938
183,1.83,-0.01209168309607101,0.020677199290683543,0.9722491410669948,-0.025868013908464084,-0.10091689087281672,-0.012477562183245272
184,1.84,-0.011002890411517939,0.020895363282303587,0.9717146232863693,-0.028099801,-0.07574729,0.021991149
185,1.85,-0.009030119,0.020500809,0.97085977,-0.028099801,-0.07574729,0.021991149
186,1.86,-0.009030119,0.020500809,0.97085977,-0.028099801,-0.07574729,0.021991149
187,1.87,-0.009030119,0.020500809,0.97085977,-0.028099801,-0.07574729,0.021991149
188,1.88,-0.009030119,0.020500809,0.97085977,-0.028099801,-0.07574729,0.021991149
189,1.89,-0.009030119,0.020500809,0.97085977,-0.028099801,-0.07574729,0.021991149
190,1.9,-0.009030119,0.020500809,0.97085977,0.021527619732082445,-0.11808676887620842,-0.027289226962962775
191,1.91,-0.009030119,0.020500809,0.97085977,0.059253927,-0.15027285,-0.064751714
192,1.92,-0.009030119,0.020500809,0.97085977,0.059253927,-0.15027285,-0.064751714
193,1.93,-0.009030119,0.020500809,0.97085977,0.059253927,-0.15027285,-0.064751714
194,1.94,-0.009030119,0.020500809,0.97085977,0.059253927,-0.15027285,-0.064751714
195,1.95,-0.042287728503886256,0.05089518001985969,1.0210765354005642,0.059253927,-0.15027285,-0.064751714
196,1.96,-0.045882765,0.05418071,1.0265048,0.020743328159416468,-0.07237641176172624,-0.05249834118574516
197,1.97,-0.0887463903708815,0.1967898793293751,0.9681401938113093,0.005497787,-0.04153884,-0.047647487
198,1.98,-0.12349297,0.31239328,0.92082804,0.005497787,-0.04153884,-0.047647487
199,1.99,-0.12349297,0.31239328,0.92082804,0.008816024685671487,-0.037888777767170534,-0.047647487
200,2.0,-0.12349297,0.31239328,0.92082804,0.023423241338515043,-0.021820836021607344,-0.047647487
201,2.01,-0.041138804166744945,0.07775404068157499,0.9913600813638916,0.023823744,-0.021380283,-0.047647487
202,2.02,-0.02318544,0.026602242,1.0067362,0.023823744,-0.021380283,-0.047647487
203,2.03,-0.02318544,0.026602242,1.0067362,0.023823744,-0.021380283,-0.047647487
204,2.04,-0.024499297949808367,0.03395984996430537,1.0384001975318229,0.023823744,-0.021380283,-0.047647487
205,2.05,-0.025626011,0.040269446,1.065554,0.015141254619349249,-0.04688509546312624,-0.04620040568331912
206,2.06,-0.025626011,0.040269446,1.065554,-0.005497787,-0.10751228,-0.042760566
207,2.07,-0.025626011,0.040269446,1.065554,-0.005497787,-0.10751228,-0.042760566
208,2.08,-0.025626011,0.040269446,1.065554,-0.005497787,-0.10751228,-0.042760566
209,2.09,-0.025626011,0.040269446,1.065554,-0.005497787,-0.10751228,-0.042760566
210,2.1,-0.024683425672790242,0.03512806813649347,1.0437031436412163,-0.02716002749249802,-0.08542108655152446,-0.03825653608712105
211,2.11,-0.022139514505418685,0.026610121648632808,1.0033194,-0.07230401682195,-0.036108843751667695,0.003731191743657663
212,2.12,-0.017752497540182287,0.03199418417309469,1.0033194,-0.10025442759625229,0.010308807936156647,0.18790444651065144
213,2.13,-0.017572122,0.032215554,1.0033194,-0.10140363,0.012217305,0.19547687
214,2.14,-0.017572122,0.032215554,1.0033194,-0.10140363,0.012217305,0.19547687
215,2.15,-0.017572122,0.032215554,1.0033194,-0.10140363,0.012217305,0.19547687
216,2.16,-0.017572122,0.032215554,1.0033194,-0.10140363,0.012217305,0.19547687
217,2.17,-0.017572122,0.032215554,1.0033194,-0.10140363,0.012217305,0.19547687
218,2.18,-0.017572122,0.032215554,1.0033194,-0.10140363,0.012217305,0.19547687
219,2.19,-0.017572122,0.032215554,1.0033194,-0.10140363,0.012217305,0.19547687
220,2.2,-0.017572122,0.032215554,1.0033194,-0.10140363,0.012217305,0.19547687
221,2.21,-0.017572122,0.032215554,1.0033194,-0.08129460880452523,0.012851373131694202,0.18116504535451133
222,2.22,-0.017572122,0.032215554,1.0033194,0.031521440467386,0.014272462097334815,0.09473772015021094
223,2.23,-0.017572122,0.032215554,1.0033194,-0.016054424953795696,-0.025050446412343948,0.019975645689862008
224,2.24,-0.017572122,0.032215554,1.0033194,-0.02565634,-0.032986723,0.004886922
225,2.25,-0.03780968470732773,0.038232127877902894,1.0023622184797676,-0.02565634,-0.032986723,0.004886922
226,2.26,-0.053692598,0.042954076,1.001611,-0.02565634,-0.032986723,0.004886922
227,2.27,-0.053692598,0.042954076,1.001611,-0.016800288807140937,-0.04471500763167299,-0.0048068638234009115
228,2.28,-0.053692598,0.042954076,1.001611,0.019424288085581255,-0.09268809848308351,-0.044458090119892234
229,2.29,-0.03841733626413618,0.04051003552425162,0.9722824575438119,0.019547688,-0.09285152,-0.044593163
230,2.3,-0.0353883,0.04002539,0.9664667,0.019547688,-0.09285152,-0.044593163
231,2.31,-0.0353883,0.04002539,0.9664667,0.04692743571012083,-0.03636277615410594,-0.04257570823334876
232,2.32,-0.0353883,0.04002539,0.9664667,0.077579886,0.02687807,-0.040317107
233,2.33,-0.0353883,0.04002539,0.9664667,0.077579886,0.02687807,-0.040317107
234,2.34,-0.0353883,0.04002539,0.9664667,0.06796272486917597,0.0220307105099132,-0.031902090566155776
235,2.35,-0.0353883,0.04002539,0.9664667,-0.05811654535883281,-0.04151730940254828,0.0784172767090053
236,2.36,-0.02699371347286956,0.03079134344431732,0.9941688781905454,-0.07391469,-0.049480084,0.092240654
237,2.37,-0.02318544,0.026602242,1.0067362,-0.07391469,-0.049480084,0.092240654
238,2.38,-0.02318544,0.026602242,1.0067362,-0.07447310605544984,-0.05934541227207909,0.0927990688366
239,2.39,-0.02318544,0.026602242,1.0067362,-0.06628024945433396,-0.07154110945390586,0.0956275396255245
240,2.4,-0.02318544,0.026602242,1.0067362,-0.001520798305123933,-0.0009823022493442293,0.10625968412626367
241,2.41,-0.02318544,0.026602242,1.0067362,0.0061086523,0.007330383,0.10751228
242,2.42,-0.02318544,0.026602242,1.0067362,0.0061086523,0.007330383,0.10751228
243,2.43,-0.02318544,0.026602242,1.0067362,0.0061086523,0.007330383,0.10751228
244,2.44,-0.02318544,0.026602242,1.0067362,0.0061086523,0.007330383,0.10751228
245,2.45,-0.023530019656895346,0.03565976532226027,1.005398900400607,0.0061086523,0.007330383,0.10751228
246,2.46,-0.03223752558070599,0.26454280123400664,0.9716054249280811,0.0061086523,0.007330383,0.10751228
247,2.47,-0.033435844,0.29604146,0.9669548,0.0061086523,0.007330383,0.10751228
248,2.48,-0.05106263956078498,0.29093575901478774,0.9419125869402101,0.0061086523,0.007330383,0.10751228
249,2.49,-0.06882414,0.28579104,0.916679,0.0061086523,0.007330383,0.10751228
250,2.5,-0.06882414,0.28579104,0.916679,0.0061086523,0.007330383,0.10751228
251,2.51,-0.06882414,0.28579104,0.916679,0.0061086523,0.007330383,0.10751228
252,2.52,-0.06882414,0.28579104,0.916679,0.0061086523,0.007330383,0.10751228
253,2.53,-0.06882414,0.28579104,0.916679,0.0061086523,0.007330383,0.10751228
254,2.54,-0.06882414,0.28579104,0.916679,0.0061086523,0.007330383,0.10751228
255,2.55,-0.06882414,0.28579104,0.916679,-0.015313144978575877,-0.02296306771486598,0.10902695372238637
256,2.56,-0.06882414,0.28579104,0.916679,-0.054367006,-0.07819075,0.11178834
257,2.57,-0.06882414,0.28579104,0.916679,-0.054367006,-0.07819075,0.11178834
258,2.58,-0.06882414,0.28579104,0.916679,-0.054367006,-0.07819075,0.11178834
259,2.59,-0.06882414,0.28579104,0.916679,-0.054367006,-0.07819075,0.11178834
260,2.6,-0.06882414,0.28579104,0.916679,-0.054367006,-0.07819075,0.11178834
261,2.61,-0.06882414,0.28579104,0.916679,-0.054367006,-0.07819075,0.11178834
262,2.62,-0.06882414,0.28579104,0.916679,-0.054367006,-0.07819075,0.11178834
263,2.63,-0.06882414,0.28579104,0.916679,-0.054367006,-0.07819075,0.11178834
264,2.64,-0.06882414,0.28579104,0.916679,-0.054367006,-0.07819075,0.11178834
265,2.65,-0.06882414,0.28579104,0.916679,-0.054367006,-0.07819075,0.11178834
266,2.66,-0.06882414,0.28579104,0.916679,-0.054367006,-0.07819075,0.11178834
267,2.67,-0.06882414,0.28579104,0.916679,-0.054367006,-0.07819075,0.11178834
268,2.68,-0.06882414,0.28579104,0.916679,-0.04421500942127063,-0.025362767079472517,0.11084833914843586
269,2.69,-0.06882414,0.28579104,0.916679,-0.021380283,0.093462385,0.10873401
270,2.7,-0.06882414,0.28579104,0.916679,-0.021380283,0.093462385,0.10873401
271,2.71,-0.06882414,0.28579104,0.916679,-0.021380283,0.093462385,0.10873401
272,2.72,-0.06882414,0.28579104,0.916679,-0.021380283,0.093462385,0.10873401
273,2.73,-0.06882414,0.28579104,0.916679,-0.021380283,0.093462385,0.10873401
274,2.74,-0.06882414,0.28579104,0.916679,-0.021380283,0.093462385,0.10873401
275,2.75,-0.06882414,0.28579104,0.916679,-0.021380283,0.093462385,0.10873401
276,2.76,-0.06882414,0.28579104,0.916679,-0.029500708265559443,0.020378568909282403,0.14811806658920504
277,2.77,-0.06882414,0.28579104,0.916679,-0.03359759,-0.016493361,0.16798794
278,2.78,-0.06882414,0.28579104,0.916679,-0.03359759,-0.016493361,0.16798794
279,2.79,-0.06882414,0.28579104,0.916679,-0.03359759,-0.016493361,0.16798794
280,2.8,-0.06882414,0.28579104,0.916679,-0.03359759,-0.016493361,0.16798794
281,2.81,-0.06882414,0.28579104,0.916679,-0.03359759,-0.016493361,0.16798794
282,2.82,-0.03601569677884498,0.19056652948049072,0.9434414323584353,-0.028479111784048675,-0.007146576070641608,0.15574810142151996
283,2.83,0.021232981,0.024405725,0.9901402,-0.019547688,0.009162978,0.13439035
284,2.84,0.021232981,0.024405725,0.9901402,-0.019547688,0.009162978,0.13439035
285,2.85,0.021232981,0.024405725,0.9901402,-0.019547688,0.009162978,0.13439035
286,2.86,0.021232981,0.024405725,0.9901402,-0.019547688,0.009162978,0.13439035
287,2.87,0.021232981,0.024405725,0.9901402,-0.019547688,0.009162978,0.13439035
288,2.88,0.021232981,0.024405725,0.9901402,-0.019547688,0.009162978,0.13439035
289,2.89,0.021232981,0.024405725,0.9901402,-0.019547688,0.009162978,0.13439035
290,2.9,0.021232981,0.024405725,0.9901402,-0.011298402899194513,0.015349941825604115,0.11660283163893957
291,2.91,0.021232981,0.024405725,0.9901402,0.0,0.023823744,0.092240654
292,2.92,0.021232981,0.024405725,0.9901402,0.0,0.023823744,0.092240654
293,2.93,0.021232981,0.024405725,0.9901402,0.0,0.023823744,0.092240654
294,2.94,0.021232981,0.024405725,0.9901402,0.0,0.023823744,0.092240654
295,2.95,0.021232981,0.024405725,0.9901402,0.0,0.023823744,0.092240654
296,2.96,0.021232981,0.024405725,0.9901402,0.0,0.023823744,0.092240654
297,2.97,0.021232981,0.024405725,0.9901402,-0.0015760399386193986,-0.004194743351750104,0.1276139951630888
298,2.98,0.021232981,0.024405725,0.9901402,-0.005497787,-0.07391469,0.21563543
299,2.99,0.021232981,0.024405725,0.9901402,-0.005497787,-0.07391469,0.21563543
300,3.0,0.021232981,0.024405725,0.9901402,-0.021681163237857376,-0.019970106745641487,0.19444291943033176
301,3.01,0.021232981,0.024405725,0.9901402,-0.031154128,0.01160644,0.18203785
302,3.02,0.021232981,0.024405725,0.9901402,-0.031154128,0.01160644,0.18203785
303,3.03,0.021232981,0.024405725,0.9901402,-0.031154128,0.01160644,0.18203785
304,3.04,0.021232981,0.024405725,0.9901402,-0.031154128,0.01160644,0.18203785
305,3.05,0.008377692381328301,0.0226788954084947,0.9838085059108921,-0.031154128,0.01160644,0.18203785
306,3.06,-0.007133563983369,0.02059529407627102,0.9761686517502984,-0.031154128,0.01160644,0.18203785
307,3.07,-0.011470691,0.020012695,0.97403246,-0.031154128,0.01160644,0.18203785
308,3.08,-0.011470691,0.020012695,0.97403246,-0.031154128,0.01160644,0.18203785
309,3.09,-0.011470691,0.020012695,0.97403246,-0.031154128,0.01160644,0.18203785
310,3.1,-0.011470691,0.022174404508526434,0.9758270818112449,-0.031154128,0.01160644,0.18203785
311,3.11,-0.011685064897577424,0.03373376759191812,0.983127426382306,-0.031154128,0.01160644,0.18203785
312,3.12,-0.01344243778987107,0.040177467930303745,0.9696543128819242,-0.031154128,0.01160644,0.18203785
313,3.13,-0.013667206,0.041001618,0.9679311,-0.031154128,0.01160644,0.18203785
314,3.14,-0.013667206,0.041001618,0.9679311,-0.031154128,0.01160644,0.18203785
315,3.15,-0.021901024027589543,0.036531829735017764,0.9868688737038905,-0.031154128,0.01160644,0.18203785
316,3.16,-0.030751213,0.03172744,1.0072243,-0.031154128,0.01160644,0.18203785
317,3.17,-0.023600480373977096,0.032642068698661666,0.9956667194811761,-0.031154128,0.01160644,0.18203785
318,3.18,-0.00976229,0.03441207,0.97330034,-0.031154128,0.01160644,0.18203785
319,3.19,-0.00976229,0.03441207,0.97330034,-0.031154128,0.01160644,0.18203785
320,3.2,-0.00976229,0.03441207,0.97330034,-0.031154128,0.01160644,0.18203785
321,3.21,-0.056803534810859216,0.23734183145074084,0.9477195096594114,-0.031154128,0.01160644,0.18203785
322,3.22,-0.03999385076531202,0.1654709119230694,0.9640765833411772,-0.031154128,0.01160644,0.18203785
323,3.23,-0.010738519,0.039781332,0.98574716,-0.031154128,0.01160644,0.18203785
324,3.24,-0.010738519,0.039781332,0.98574716,-0.031154128,0.01160644,0.18203785
325,3.25,-0.010738519,0.039781332,0.98574716,-0.031154128,0.01160644,0.18203785
326,3.26,-0.010738519,0.039781332,0.98574716,-0.031154128,0.01160644,0.18203785
327,3.27,-0.010738519,0.039781332,0.98574716,-0.031154128,0.01160644,0.18203785
328,3.28,-0.01573351371221299,0.03608503606032108,0.9844484960204908,-0.031154128,0.01160644,0.18203785
329,3.29,-0.022941383,0.030751213,0.9825745,-0.031154128,0.01160644,0.18203785
330,3.3,-0.022941383,0.030751213,0.9825745,-0.030089173746651775,0.010988766536370403,0.18352878568098097
331,3.31,-0.022941383,0.030751213,0.9825745,-0.0048988856537268595,-0.0036216004791756315,0.2187951825368572
332,3.32,-0.04979760681580769,0.19346835501297432,0.9759394349729017,0.038930329953429224,0.005753706083021775,0.22835711933381436
333,3.33,-0.06443111,0.28213018,0.9723241,0.06047566,0.012217305,0.2302962
334,3.34,-0.04793311456451803,0.20737363233597103,0.9726187104024915,0.06047566,0.012217305,0.2302962
335,3.35,-0.00976229,0.03441207,0.97330034,0.06047566,0.012217305,0.2302962
336,3.36,-0.00976229,0.03441207,0.97330034,0.06047566,0.012217305,0.2302962
337,3.37,-0.00976229,0.03441207,0.97330034,0.06047566,0.012217305,0.2302962
338,3.38,-0.00976229,0.03441207,0.97330034,0.06047566,0.012217305,0.2302962
339,3.39,-0.00976229,0.03441207,0.97330034,0.06047566,0.012217305,0.2302962
340,3.4,-0.00976229,0.03441207,0.97330034,0.03456481397425558,0.016578536421963917,0.22952656912214958
341,3.41,-0.00976229,0.03441207,0.97330034,-0.0624119364488612,0.03290135547329972,0.2266460648929528
342,3.42,-0.00976229,0.03441207,0.97330034,-0.05854536066870592,0.007837597000135747,0.22280396506008282
343,3.43,-0.00976229,0.03441207,0.97330034,-0.0580322,0.004886922,0.22235495
344,3.44,-0.00976229,0.03441207,0.97330034,-0.030076679657767145,-0.0017136866607175437,0.20837718951107936
345,3.45,-0.00976229,0.03441207,0.97330034,-0.014049901,-0.005497787,0.2003638
346,3.46,-0.00976229,0.03441207,0.97330034,-0.014049901,-0.005497787,0.2003638
347,3.47,-0.008699627864821641,0.03426026159006214,0.976298555552004,-0.014049901,-0.005497787,0.2003638
348,3.48,-0.003235371869604616,0.033479655989592405,0.9917155133626263,-0.014049901,-0.005497787,0.2003638
349,3.49,-0.002928687,0.033435844,0.9925808,-0.014049901,-0.005497787,0.2003638
350,3.5,-0.002928687,0.033435844,0.9925808,-0.014049901,-0.005497787,0.2003638
351,3.51,-0.002928687,0.033435844,0.9925808,-0.014049901,-0.005497787,0.2003638
352,3.52,-0.002928687,0.033435844,0.9925808,-0.014049901,-0.005497787,0.2003638
353,3.53,-0.002928687,0.033435844,0.9925808,-0.014049901,-0.005497787,0.2003638
354,3.54,-0.002928687,0.033435844,0.9925808,-0.014049901,-0.005497787,0.2003638
355,3.55,-0.002928687,0.033435844,0.9925808,-0.07806455507585566,0.03480773835164219,0.19325105936449236
356,3.56,-0.002928687,0.033435844,0.9925808,-0.096516706,0.04642576,0.19120082
357,3.57,-0.002928687,0.033435844,0.9925808,-0.061821248007009194,0.024850431887339427,0.18974303057525277
358,3.58,-0.002928687,0.033435844,0.9925808,-0.03989818627050776,-0.09932902704642951,-0.01671712501773863
359,3.59,-0.0059633020117645765,0.04946777438252198,0.9776940122387174,-0.08306036087621396,-0.3282537402196809,-0.48577215720438993
360,3.6,-0.037685525048347525,0.21705689831742567,0.822075589529117,-0.10203632474842148,-0.01764719385860409,0.11946118498644022
361,3.61,-0.018776639755664844,0.1007010431677467,0.9943134854719742,-0.10445796,0.021991149,0.1966986
362,3.62,-0.008542004,0.03929322,1.0799533,-0.10445796,0.021991149,0.1966986
363,3.63,-0.008542004,0.03929322,1.0799533,-0.10445796,0.021991149,0.1966986
364,3.64,-0.008542004,0.03929322,1.0799533,-0.10445796,0.021991149,0.1966986
365,3.65,-0.008898729845060512,0.039277931618545654,1.0795863803485053,-0.10445796,0.021991149,0.1966986
366,3.66,-0.01854800521485982,0.03886438770336762,1.0696613670507944,-0.10445796,0.021991149,0.1966986
367,3.67,-0.025626011,0.038561042,1.0623811,-0.10445796,0.021991149,0.1966986
368,3.68,-0.025626011,0.038561042,1.0623811,-0.10445796,0.021991149,0.1966986
369,3.69,-0.025626011,0.038561042,1.0623811,-0.10445796,0.021991149,0.1966986
370,3.7,-0.025626011,0.038561042,1.0623811,-0.10445796,0.021991149,0.1966986
371,3.71,-0.025626011,0.038561042,1.0623811,-0.06016844529215749,0.005735955293164563,0.10081651857284506
372,3.72,-0.025626011,0.038561042,1.0623811,0.01038471,-0.020158553,-0.051923547
373,3.73,-0.025626011,0.038561042,1.0623811,0.01038471,-0.020158553,-0.051923547
374,3.74,-0.025626011,0.038561042,1.0623811,0.01038471,-0.020158553,-0.051923547
375,3.75,-0.04529854830083369,0.25081737743246657,0.9704379749974141,0.01038471,-0.020158553,-0.051923547
376,3.76,-0.04881145,0.28871974,0.9540198,0.01038471,-0.020158553,-0.051923547
377,3.77,-0.04881145,0.28871974,0.9540198,0.01038471,-0.020158553,-0.051923547
378,3.78,-0.04881145,0.28871974,0.9540198,0.021417242659143174,-0.025250490633850563,-0.19265906506312222
379,3.79,-0.04881145,0.28871974,0.9540198,0.05059895778924139,-0.03871897317381466,-0.564913009256185
380,3.8,-0.04881145,0.28871974,0.9540198,0.0580322,-0.0421497,-0.6597345
381,3.81,-0.04881145,0.28871974,0.9540198,0.0580322,-0.0421497,-0.6597345
382,3.82,-0.04881145,0.28871974,0.9540198,0.0580322,-0.0421497,-0.6597345
383,3.83,-0.04881145,0.28871974,0.9540198,0.0580322,-0.0421497,-0.6597345
384,3.84,-0.04881145,0.28871974,0.9540198,0.07439805974414619,-0.043393184533404044,-0.6101555698464179
385,3.85,-0.04881145,0.28871974,0.9540198,0.2674682157573894,-0.05806273178711597,-0.02526654297169996
386,3.86,-0.04881145,0.28871974,0.9540198,0.30726522,-0.061086524,0.095294975
387,3.87,-0.04881145,0.28871974,0.9540198,0.30726522,-0.061086524,0.095294975
388,3.88,-0.04881145,0.28871974,0.9540198,0.3078487946838767,0.06467489703566218,0.04890039078649541
389,3.89,-0.04881145,0.28871974,0.9540198,0.30848694,0.20219639,-0.0018325958
390,3.9,-0.04881145,0.28871974,0.9540198,0.30848694,0.20219639,-0.0018325958
391,3.91,-0.04881145,0.28871974,0.9540198,0.30848694,0.20219639,-0.0018325958
392,3.92,-0.04881145,0.28871974,0.9540198,0.30848694,0.20219639,-0.0018325958
393,3.93,-0.04881145,0.28871974,0.9540198,0.30848694,0.20219639,-0.0018325958
394,3.94,-0.04881145,0.28871974,0.9540198,0.30848694,0.20219639,-0.0018325958
395,3.95,-0.04881145,0.28871974,0.9540198,0.30848694,0.20219639,-0.0018325958
396,3.96,-0.04881145,0.28871974,0.9540198,0.3041354150830851,0.2106434699982978,-4.079153090213965e-05
397,3.97,-0.04881145,0.28871974,0.9540198,0.29810223,0.22235495,0.002443461
398,3.98,-0.04881145,0.28871974,0.9540198,0.29810223,0.22235495,0.002443461
399,3.99,-0.0422186924735315,0.14746990138496777,0.9581403198829114,0.29810223,0.22235495,0.002443461
400,4.0,-0.03904916,0.079562664,0.9601213,0.29810223,0.22235495,0.002443461
401,4.01,-0.03904916,0.079562664,0.9601213,0.29810223,0.22235495,0.002443461
402,4.02,-0.03904916,0.079562664,0.9601213,0.2033251571451455,0.18904359536534598,0.05917032398030297
403,4.03,-0.03904916,0.079562664,0.9601213,-0.11728613,0.076358154,0.2510656
404,4.04,-0.03904916,0.079562664,0.9601213,-0.11728613,0.076358154,0.2510656
405,4.05,-0.03904916,0.079562664,0.9601213,-0.11728613,0.076358154,0.2510656
406,4.06,-0.03904916,0.079562664,0.9601213,-0.11728613,0.076358154,0.2510656
407,4.07,-0.03904916,0.079562664,0.9601213,-0.11728613,0.076358154,0.2510656
408,4.08,-0.03904916,0.079562664,0.9601213,-0.11728613,0.076358154,0.2510656
409,4.09,-0.03904916,0.079562664,0.9601213,-0.11728613,0.076358154,0.2510656
410,4.1,-0.03904916,0.079562664,0.9601213,-0.11728613,0.076358154,0.2510656
411,4.11,-0.03904916,0.079562664,0.9601213,-0.11728613,0.076358154,0.2510656
412,4.12,-0.03904916,0.079562664,0.9601213,-0.07403074363462636,0.08848583781336308,0.25874648287129226
413,4.13,-0.03904916,0.079562664,0.9601213,-0.0001802985613106904,-0.0617018971181311,0.26064858476385777
414,4.14,-0.03904916,0.079562664,0.9601213,0.057421334,-0.23579398,0.258396
415,4.15,-0.03244576717562976,0.07815027158953039,0.9559574898917776,0.057421334,-0.23579398,0.258396
416,4.16,0.04499268536816955,0.06158704635662833,0.9071281956118763,0.057421334,-0.23579398,0.258396
417,4.17,0.04881145,0.060770255,0.90472025,0.057421334,-0.23579398,0.258396
418,4.18,0.04881145,0.060770255,0.90472025,0.057421334,-0.23579398,0.258396
419,4.19,0.04881145,0.060770255,0.90472025,-0.01984968904284206,-0.07783836781583664,0.2574650217010344
420,4.2,0.04881145,0.060770255,0.90472025,-0.09468412,0.07513642,0.2565634
421,4.21,0.04529768304123019,0.058325895444548165,0.9105765265258112,-0.09468412,0.07513642,0.2565634
422,4.22,0.015213404293126228,0.03739770211537236,0.960716976218629,-0.09468412,0.07513642,0.2565634
423,4.23,0.01513155,0.03734076,0.9608534,-0.09468412,0.07513642,0.2565634
424,4.24,0.01513155,0.03734076,0.9608534,-0.09468412,0.07513642,0.2565634
425,4.25,0.01513155,0.03734076,0.9608534,-0.09468412,0.07513642,0.2565634
426,4.26,0.01513155,0.03734076,0.9608534,-0.09468412,0.07513642,0.2565634
427,4.27,0.01513155,0.03734076,0.9608534,-0.09468412,0.07513642,0.2565634
428,4.28,0.01513155,0.03734076,0.9608534,-0.09468412,0.07513642,0.2565634
429,4.29,0.028765711725652093,0.06141095173129484,0.9537838024754005,-0.09468412,0.07513642,0.2565634
430,4.3,0.034900185,0.07224095,0.95060295,-0.09468412,0.07513642,0.2565634
431,4.31,0.034900185,0.07224095,0.95060295,-0.09468412,0.07513642,0.2565634
432,4.32,0.034900185,0.07224095,0.95060295,-0.09468412,0.07513642,0.2565634
433,4.33,0.034900185,0.07224095,0.95060295,-0.09468412,0.07513642,0.2565634
434,4.34,0.034900185,0.07224095,0.95060295,-0.09468412,0.07513642,0.2565634
435,4.35,0.034900185,0.07224095,0.95060295,-0.09468412,0.07513642,0.2565634
436,4.36,0.034900185,0.07224095,0.95060295,-0.09468412,0.07513642,0.2565634
437,4.37,0.034900185,0.07224095,0.95060295,-0.09468412,0.07513642,0.2565634
438,4.38,0.034900185,0.07224095,0.95060295,-0.09468412,0.07513642,0.2565634
439,4.39,0.034900185,0.07224095,0.95060295,-0.09468412,0.07513642,0.2565634
440,4.4,0.034900185,0.07224095,0.95060295,-0.09468412,0.07513642,0.2565634
441,4.41,0.034900185,0.07224095,0.95060295,-0.09468412,0.07513642,0.2565634
442,4.42,0.034900185,0.07224095,0.95060295,-0.09468412,0.07513642,0.2565634
443,4.43,0.034900185,0.07224095,0.95060295,-0.16171355683560484,0.026812873685927635,0.1988869074682252
444,4.44,0.034900185,0.07224095,0.95060295,-0.27916466867662015,-0.10151380482055383,0.08017668986425297
445,4.45,0.034900185,0.07224095,0.95060295,-0.11405119070425868,-0.26073247142455575,0.10349938443870019
446,4.46,0.034900185,0.07224095,0.95060295,0.34310240861685537,-0.3319383316501177,-0.5499191334709016
447,4.47,0.034900185,0.07224095,0.95060295,0.3494149,-0.33292156,-0.5589417
448,4.48,0.020867177946763904,0.08424508571746517,1.0238113327961242,0.02144947942663736,-0.06293194883965042,0.01700792068561897
449,4.49,0.014643434,0.08956901,1.0562798,-0.05658220762884609,-0.04876476999125892,-0.01467927669168474
450,4.5,0.014643434,0.08956901,1.0562798,0.0012217305,-0.13927728,-0.26083946
451,4.51,0.014643434,0.08956901,1.0562798,0.0012217305,-0.13927728,-0.26083946
452,4.52,0.014643434,0.08956901,1.0562798,0.0012217305,-0.13927728,-0.26083946
453,4.53,0.014643434,0.08956901,1.0562798,-0.012929049003837881,-0.12924868385461843,-0.24305869766821853
454,4.54,0.014643434,0.08956901,1.0562798,-0.27977628,0.059864793,0.092240654
455,4.55,0.014643434,0.08956901,1.0562798,-0.27977628,0.059864793,0.092240654
456,4.56,0.014643434,0.08956901,1.0562798,-0.27977628,0.059864793,0.092240654
457,4.57,0.014643434,0.08956901,1.0562798,-0.27977628,0.059864793,0.092240654
458,4.58,0.014643434,0.08956901,1.0562798,-0.2612893815592323,0.028047204289684654,0.032629836325541846
459,4.59,0.014643434,0.08956901,1.0562798,-0.18997909,-0.09468412,-0.19730948
460,4.6,0.014643434,0.08956901,1.0562798,-0.18997909,-0.09468412,-0.19730948
461,4.61,0.014643434,0.08956901,1.0562798,-0.18997909,-0.09468412,-0.19730948
462,4.62,0.020935988848128417,0.09086747586202859,1.0542821413235415,-0.18997909,-0.09468412,-0.19730948
463,4.63,0.030019043,0.09274176,1.0513986,-0.162380222810492,-0.08445350371088324,-0.20361439401047474
464,4.64,0.030019043,0.09274176,1.0513986,-0.06342075187269998,-0.04777024535876388,-0.22622151590792874
465,4.65,0.030019043,0.09274176,1.0513986,-0.048258353,-0.0421497,-0.22968534
466,4.66,0.030019043,0.09853345540950291,1.0459846492022098,-0.014853623461524053,-0.007169275740109656,-0.12222294772136756
467,4.67,0.030019043,0.10396838,1.0409042,0.03170770232164526,0.03418559095244957,-0.13318263303212546
468,4.68,0.030019043,0.10396838,1.0409042,0.05681047,0.048258353,-0.31764993
469,4.69,0.030019043,0.10396838,1.0409042,0.05681047,0.048258353,-0.31764993
470,4.7,0.030019043,0.10396838,1.0409042,0.05681047,0.048258353,-0.31764993
471,4.71,-0.003528496312223183,0.06779538619277199,0.9939376062356854,0.05681047,0.048258353,-0.31764993
472,4.72,-0.026114125,0.04344219,0.9623177,0.05681047,0.048258353,-0.31764993
473,4.73,-0.026114125,0.04344219,0.9623177,0.05681047,0.048258353,-0.31764993
474,4.74,-0.026114125,0.04344219,0.9623177,0.05681047,0.048258353,-0.31764993
475,4.75,-0.026114125,0.04344219,0.9623177,0.05681047,0.048258353,-0.31764993
476,4.76,-0.026114125,0.04344219,0.9623177,0.05681047,0.048258353,-0.31764993
477,4.77,-0.026114125,0.04344219,0.9623177,0.05681047,0.048258353,-0.31764993
478,4.78,-0.026114125,0.04344219,0.9623177,0.05681047,0.048258353,-0.31764993
479,4.79,-0.026114125,0.04344219,0.9623177,0.05681047,0.048258353,-0.31764993
480,4.8,-0.026114125,0.04344219,0.9623177,0.05681047,0.048258353,-0.31764993
481,4.81,-0.026114125,0.04344219,0.9623177,0.05681047,0.048258353,-0.31764993
482,4.82,-0.026114125,0.04344219,0.9623177,0.05681047,0.048258353,-0.31764993
483,4.83,-0.026114125,0.04344219,0.9623177,0.05681047,0.048258353,-0.31764993
484,4.84,-0.026114125,0.04344219,0.9623177,0.10389306035978739,0.04782037631565007,-0.34633746233418045
485,4.85,-0.026114125,0.04344219,0.9623177,0.1881465,0.047036625,-0.39767328
486,4.86,-0.026114125,0.04344219,0.9623177,0.1881465,0.047036625,-0.39767328
487,4.87,-0.026114125,0.04344219,0.9623177,0.1881465,0.047036625,-0.39767328
488,4.88,-0.026114125,0.04344219,0.9623177,0.1881465,0.047036625,-0.39767328
489,4.89,-0.026114125,0.04344219,0.9623177,0.1881465,0.047036625,-0.39767328
490,4.9,-0.026114125,0.04344219,0.9623177,0.1881465,0.047036625,-0.39767328
491,4.91,-0.026114125,0.04344219,0.9623177,0.1881465,0.047036625,-0.39767328
492,4.92,-0.026114125,0.04344219,0.9623177,0.1881465,0.047036625,-0.39767328
493,4.93,-0.026114125,0.04344219,0.9623177,0.09413307109389604,-0.0446146585199141,-0.32161217149648347
494,4.94,-0.026114125,0.04344219,0.9623177,0.06658431,-0.07147124,-0.29932398
495,4.95,-0.026114125,0.04344219,0.9623177,0.08383194892929315,-0.041679860120737475,-0.35524813461629245
496,4.96,-0.026114125,0.04344219,0.9623177,0.106901415,-0.0018325958,-0.43004912
497,4.97,-0.026114125,0.04344219,0.9623177,0.106901415,-0.0018325958,-0.43004912
498,4.98,-0.026114125,0.04344219,0.9623177,0.106901415,-0.0018325958,-0.43004912
499,4.99,-0.026114125,0.04344219,0.9623177,0.106901415,-0.0018325958,-0.43004912
500,5.0,-0.026114125,0.04344219,0.9623177,0.106901415,-0.0018325958,-0.43004912
501,5.01,-0.026114125,0.04344219,0.9623177,0.106901415,-0.0018325958,-0.43004912
502,5.02,-0.026114125,0.04344219,0.9623177,0.106901415,-0.0018325958,-0.43004912
503,5.03,-0.02857065312493627,0.04589871682617856,0.9743626062729998,0.106901415,-0.0018325958,-0.43004912
504,5.04,-0.033679903,0.051007964,0.9994144,0.106901415,-0.0018325958,-0.43004912
505,5.05,-0.033679903,0.051007964,0.9994144,0.106901415,-0.0018325958,-0.43004912
506,5.06,-0.033679903,0.051007964,0.9994144,0.106901415,-0.0018325958,-0.43004912
507,5.07,-0.033679903,0.051007964,0.9994144,0.106901415,-0.0018325958,-0.43004912
508,5.08,-0.033679903,0.051007964,0.9994144,0.20451107925441714,-0.034611962075598024,-0.3641261923423095
509,5.09,-0.033679903,0.051007964,0.9994144,0.2706133,-0.05681047,-0.31948254
510,5.1,-0.03453855043716031,0.051279115578616814,1.0080912853276411,0.2706133,-0.05681047,-0.31948254
511,5.11,-0.03789953404978513,0.05234047787101752,1.0420550149478824,0.2706133,-0.05681047,-0.31948254
512,5.12,-0.038316987,0.052472305,1.0462735,0.2706133,-0.05681047,-0.31948254
513,5.13,-0.038316987,0.052472305,1.0462735,0.2706133,-0.05681047,-0.31948254
514,5.14,-0.038316987,0.052472305,1.0462735,0.2706133,-0.05681047,-0.31948254
515,5.15,-0.038316987,0.052472305,1.0462735,0.2706133,-0.05681047,-0.31948254
516,5.16,-0.038316987,0.052472305,1.0462735,0.2706133,-0.05681047,-0.31948254
517,5.17,-0.03901937567948439,0.05245332169876426,1.0430652905890931,0.25160735663404554,-0.05286673650304814,-0.2947748119130358
518,5.18,-0.04620888693442929,0.052259012391287184,1.0102266951765542,0.057066288801515,-0.012499462384034408,-0.04187140621500264
519,5.19,-0.047347106,0.05222825,1.0050278,0.026267206,-0.0061086523,-0.0018325958
520,5.2,-0.047347106,0.05222825,1.0050278,0.026267206,-0.0061086523,-0.0018325958
521,5.21,-0.047347106,0.05222825,1.0050278,0.026267206,-0.0061086523,-0.0018325958
522,5.22,-0.04750025441589026,0.05284084397731613,1.0013713764524899,0.026267206,-0.0061086523,-0.0018325958
523,5.23,-0.04905562893854558,0.05906234525443266,0.9642367577443907,0.026267206,-0.0061086523,-0.0018325958
524,5.24,-0.049299564,0.060038086,0.9584128,0.026267206,-0.0061086523,-0.0018325958
525,5.25,-0.08139701316985794,0.06840590017850524,0.9597866566707844,0.026267206,-0.0061086523,-0.0018325958
526,5.26,-0.11202228,0.076389916,0.9610975,0.05097405369623259,-0.03604195190087834,-0.08498064226578012
527,5.27,-0.10141880964138197,0.07430398851019658,0.9565779678053478,0.08979719,-0.08307768,-0.21563543
528,5.28,-0.067359805,0.06760386,0.94206095,0.07555413138189275,-0.0862802599868651,-0.22246198690606478
529,5.29,-0.067359805,0.06760386,0.94206095,-0.007404794082690213,-0.10493373895850566,-0.2622233781026153
530,5.3,-0.067359805,0.06760386,0.94206095,0.06408745584123184,0.08354995315742429,-0.03452390968662534
531,5.31,-0.067359805,0.06760386,0.94206095,0.081855945,0.12705997,0.018325957
532,5.32,-0.067359805,0.06760386,0.94206095,0.081855945,0.12705997,0.018325957
533,5.33,-0.067359805,0.06760386,0.94206095,0.081855945,0.12705997,0.018325957
534,5.34,-0.067359805,0.06760386,0.94206095,0.081855945,0.12705997,0.018325957
535,5.35,-0.067359805,0.06760386,0.94206095,0.0761948653320175,-0.026166480905366832,-0.1330134644662105
536,5.36,0.08244917756832186,0.04545191372318635,0.9141391802442445,0.07269296,-0.12095132,-0.226631
537,5.37,0.28749946,0.01513155,0.8759214,0.07269296,-0.12095132,-0.226631
538,5.38,0.28749946,0.01513155,0.8759214,0.07269296,-0.12095132,-0.226631
539,5.39,0.28749946,0.01513155,0.8759214,0.07269296,-0.12095132,-0.226631
540,5.4,0.28749946,0.01513155,0.8759214,-0.014900849197892859,-0.06747835307118548,-0.2541313806100179
541,5.41,0.025527831989797533,0.05928233620559193,0.9447719356973353,-0.032375857,-0.05681047,-0.25961772
542,5.42,-0.12666571,0.084931925,0.98477095,-0.032375857,-0.05681047,-0.25961772
543,5.43,-0.12666571,0.084931925,0.98477095,-0.032375857,-0.05681047,-0.25961772
544,5.44,-0.12666571,0.084931925,0.98477095,-0.032375857,-0.05681047,-0.25961772
545,5.45,-0.12666571,0.084931925,0.98477095,-0.032375857,-0.05681047,-0.25961772
546,5.46,-0.12666571,0.084931925,0.98477095,-0.032375857,-0.05681047,-0.25961772
547,5.47,-0.12666571,0.084931925,0.98477095,-0.032375857,-0.05681047,-0.25961772
548,5.48,-0.1211730120331213,0.08704450147403305,0.9785740736286473,-0.032375857,-0.05681047,-0.25961772
549,5.49,-0.107629254,0.09225364,0.96329397,-0.032375857,-0.05681047,-0.25961772
550,5.5,-0.107629254,0.09225364,0.96329397,-0.032375857,-0.05681047,-0.25961772
551,5.51,-0.107629254,0.09225364,0.96329397,-0.07243789695550665,0.09453501953914781,0.08090961552290328
552,5.52,-0.107629254,0.09225364,0.96329397,-0.076358154,0.10934488,0.1142318
553,5.53,-0.107629254,0.09225364,0.96329397,-0.06829125837403888,0.1100463490350852,0.11528400642343
554,5.54,-0.107629254,0.09225364,0.96329397,-0.062308256,0.11056661,0.1160644
555,5.55,-0.107629254,0.09225364,0.96329397,-0.062308256,0.11056661,0.1160644
556,5.56,-0.107629254,0.09225364,0.96329397,-0.062308256,0.11056661,0.1160644
557,5.57,-0.107629254,0.09225364,0.96329397,-0.062308256,0.11056661,0.1160644
558,5.58,-0.107629254,0.09225364,0.96329397,0.04985788281777527,0.05062597456430752,-0.045359888126935144
559,5.59,-0.107629254,0.09225364,0.96329397,0.053145275,0.04886922,-0.05009095
560,5.6,-0.107629254,0.09225364,0.96329397,0.005941500594015956,-0.008411766516227106,-0.07130613019119524
561,5.61,-0.107629254,0.09225364,0.96329397,-0.0012217305,-0.017104227,-0.07452556
562,5.62,-0.107629254,0.09225364,0.96329397,-0.0012217305,-0.017104227,-0.07452556
563,5.63,-0.107629254,0.09225364,0.96329397,-0.04616609794354583,0.058533857209800644,0.038383462686096576
564,5.64,-0.107629254,0.09225364,0.96329397,-0.076358154,0.10934488,0.1142318
565,5.65,-0.107629254,0.09225364,0.96329397,-0.07100580539864527,0.09772263720833128,0.10857360403724732
566,5.66,-0.107629254,0.09225364,0.96329397,-0.05497787,0.06291912,0.09162979
567,5.67,-0.107629254,0.09225364,0.96329397,-0.05497787,0.06291912,0.09162979
568,5.68,-0.107629254,0.09225364,0.96329397,-0.05497787,0.06291912,0.09162979
569,5.69,-0.107629254,0.09225364,0.96329397,-0.05497787,0.06291912,0.09162979
570,5.7,-0.09527446562380706,0.0892374482199022,0.9669482081625989,-0.05497787,0.06291912,0.09162979
571,5.71,-0.05805780184996975,0.08015169199815933,0.9779559687899703,-0.05497787,0.06291912,0.09162979
572,5.72,-0.055645052,0.079562664,0.9786696,-0.05497787,0.06291912,0.09162979
573,5.73,-0.0533460330132243,0.079562664,0.9803938483438339,-0.05497787,0.06291912,0.09162979
574,5.74,-0.051740136,0.079562664,0.98159826,-0.05497787,0.06291912,0.09162979
575,5.75,-0.051740136,0.079562664,0.98159826,-0.05061014516771753,0.06302311341109709,0.09240974066834805
576,5.76,-0.051740136,0.079562664,0.98159826,-0.006835794546591344,0.06406535948072242,0.10022658704362836
577,5.77,-0.051740136,0.079562664,0.98159826,-0.0036651916,0.06414085,0.100792766
578,5.78,-0.051740136,0.079562664,0.98159826,-0.0036651916,0.06414085,0.100792766
579,5.79,-0.051740136,0.079562664,0.98159826,-0.0036651916,0.06414085,0.100792766
580,5.8,-0.051740136,0.079562664,0.98159826,-0.0036651916,0.06414085,0.100792766
581,5.81,-0.051740136,0.079562664,0.98159826,-0.0036651916,0.06414085,0.100792766
582,5.82,-0.051740136,0.079562664,0.98159826,-0.0036651916,0.06414085,0.100792766
583,5.83,-0.051740136,0.079562664,0.98159826,-0.0036651916,0.06414085,0.100792766
584,5.84,-0.051740136,0.079562664,0.98159826,-0.0036651916,0.06414085,0.100792766
585,5.85,-0.051740136,0.079562664,0.98159826,-0.0036651916,0.06414085,0.100792766
586,5.86,-0.051740136,0.079562664,0.98159826,-0.0036651916,0.06414085,0.100792766
587,5.87,-0.051740136,0.079562664,0.98159826,-0.0036651916,0.06414085,0.100792766
588,5.88,-0.051740136,0.079562664,0.98159826,-0.0036651916,0.06414085,0.100792766
589,5.89,-0.051740136,0.079562664,0.98159826,-0.0036651916,0.06414085,0.100792766
590,5.9,-0.051740136,0.079562664,0.98159826,-0.0036651916,0.06414085,0.100792766
591,5.91,-0.029518662342204034,0.08095150389340804,1.04320332374351,-0.0036651916,0.06414085,0.100792766
592,5.92,0.002928687,0.08297946,1.1331578,-0.0036651916,0.06414085,0.100792766
593,5.93,0.002928687,0.08297946,1.1331578,-0.0036651916,0.06414085,0.100792766
594,5.94,0.002928687,0.08297946,1.1331578,-0.0036651916,0.06414085,0.100792766
595,5.95,0.002928687,0.08297946,1.1331578,-0.0036651916,0.06414085,0.100792766
596,5.96,0.002928687,0.08297946,1.1331578,-0.0036651916,0.06414085,0.100792766
597,5.97,0.002928687,0.08297946,1.1331578,0.015517830638055032,0.07799525405155382,0.09972704243248427
598,5.98,0.002928687,0.08297946,1.1331578,0.029321533,0.087964594,0.09896017
599,5.99,0.002928687,0.08297946,1.1331578,0.029321533,0.087964594,0.09896017
600,6.0,0.002928687,0.08297946,1.1331578,0.014524786156655187,0.091608568631634,0.0701396416260617
601,6.01,0.002928687,0.08297946,1.1331578,-0.04738867600618121,0.1068559123799986,-0.05045299349057865
602,6.02,0.002928687,0.08297946,1.1331578,-0.052534413,0.108123146,-0.06047566
603,6.03,-0.022775003972202338,0.07840641756735037,1.1331578,-0.052534413,0.108123146,-0.06047566
604,6.04,-0.036852647,0.07590181,1.1331578,-0.052534413,0.108123146,-0.06047566
605,6.05,-0.036852647,0.07590181,1.1331578,-0.052534413,0.108123146,-0.06047566
606,6.06,-0.036852647,0.07590181,1.1331578,-0.052534413,0.108123146,-0.06047566
607,6.07,-0.03797790696437115,0.0763706679582817,1.1318684343711496,-0.052534413,0.108123146,-0.06047566
608,6.08,-0.048567392,0.08078295,1.1197346,-0.04337903500836265,0.09071579272200689,-0.060017216895426315
609,6.09,-0.048567392,0.08078295,1.1197346,0.31877992202182553,-0.5978662531063991,-0.04188259954137045
610,6.1,-0.048567392,0.08078295,1.1197346,0.3622431,-0.6805039,-0.03970624
611,6.11,-0.048567392,0.08078295,1.1197346,0.3622431,-0.6805039,-0.03970624
612,6.12,-0.048567392,0.08078295,1.1197346,0.34582949724059864,-0.7356875293054033,-0.031499442789692245
613,6.13,-0.039681938649775594,0.08086021568441394,1.0773162141339332,0.3268129,-0.7996226,-0.021991149
614,6.14,-0.020500809,0.08102701,0.98574716,0.3268129,-0.7996226,-0.021991149
615,6.15,-0.020500809,0.08102701,0.98574716,0.3268129,-0.7996226,-0.021991149
616,6.16,-0.05007210235579039,0.06537161744334084,0.9805287639204925,0.3268129,-0.7996226,-0.021991149
617,6.17,-0.057841565,0.061258372,0.9791577,0.3268129,-0.7996226,-0.021991149
618,6.18,-0.057841565,0.061258372,0.9791577,0.38705659534857156,-0.8087004106763664,-0.056445593798292844
619,6.19,-0.057841565,0.061258372,0.9791577,0.50518554,-0.82650065,-0.124005646
620,6.2,-0.057841565,0.061258372,0.9791577,0.50518554,-0.82650065,-0.124005646
621,6.21,-0.057841565,0.061258372,0.9791577,0.50518554,-0.82650065,-0.124005646
622,6.22,-0.057841565,0.061258372,0.9791577,0.50518554,-0.82650065,-0.124005646
623,6.23,-0.057841565,0.061258372,0.9791577,0.50518554,-0.82650065,-0.124005646
624,6.24,-0.057841565,0.061258372,0.9791577,0.50518554,-0.82650065,-0.124005646
625,6.25,-0.057841565,0.061258372,0.9791577,0.4296854196880969,-0.7125086559912784,-0.10941664825196376
626,6.26,-0.057841565,0.061258372,0.9791577,-0.012406520315658061,-0.04502704711406703,-0.023990581505379787
627,6.27,-0.057841565,0.061258372,0.9791577,-0.054367006,0.018325957,-0.015882496
628,6.28,-0.057841565,0.061258372,0.9791577,-0.054367006,0.018325957,-0.015882496
629,6.29,-0.057841565,0.061258372,0.9791577,-0.054367006,0.018325957,-0.015882496
630,6.3,-0.057841565,0.061258372,0.9791577,-0.054367006,0.018325957,-0.015882496
631,6.31,-0.057841565,0.061258372,0.9791577,-0.054367006,0.018325957,-0.015882496
632,6.32,-0.057841565,0.061258372,0.9791577,-0.054367006,0.018325957,-0.015882496
633,6.33,-0.057841565,0.061258372,0.9791577,-0.054367006,0.018325957,-0.015882496
634,6.34,-0.057841565,0.061258372,0.9791577,-0.054367006,0.018325957,-0.015882496
635,6.35,-0.057841565,0.061258372,0.9791577,-0.054367006,0.018325957,-0.015882496
636,6.36,-0.057841565,0.061258372,0.9791577,-0.054367006,0.018325957,-0.015882496
637,6.37,-0.057841565,0.061258372,0.9791577,-0.054367006,0.018325957,-0.015882496
638,6.38,-0.057841565,0.061258372,0.9791577,-0.054367006,0.018325957,-0.015882496
639,6.39,-0.057841565,0.061258372,0.9791577,-0.054367006,0.018325957,-0.015882496
640,6.4,-0.057841565,0.061258372,0.9791577,-0.03354409682984453,-0.4111038737767257,-0.27497411740379374
641,6.41,-0.057841565,0.061258372,0.9791577,-0.017104227,-0.7501425,-0.47952923
642,6.42,0.04655068158667433,0.08414690284203553,1.0366724776388945,-0.017104227,-0.7501425,-0.47952923
643,6.43,0.2894519,0.13740423,1.1704986,-0.017104227,-0.7501425,-0.47952923
644,6.44,0.2894519,0.13740423,1.1704986,-0.017104227,-0.7501425,-0.47952923
645,6.45,0.2894519,0.13740423,1.1704986,-0.017104227,-0.7501425,-0.47952923
646,6.46,0.2894519,0.13740423,1.1704986,-0.017104227,-0.7501425,-0.47952923
647,6.47,0.2894519,0.13740423,1.1704986,-0.017104227,-0.7501425,-0.47952923
648,6.48,0.2894519,0.13740423,1.1704986,-0.017104227,-0.7501425,-0.47952923
649,6.49,0.2894519,0.13740423,1.1704986,-0.017104227,-0.7501425,-0.47952923
650,6.5,0.2894519,0.13740423,1.1704986,-0.017104227,-0.7501425,-0.47952923
651,6.51,0.2894519,0.13740423,1.1704986,-0.017104227,-0.7501425,-0.47952923
652,6.52,0.2894519,0.13740423,1.1704986,-0.017104227,-0.7501425,-0.47952923
653,6.53,0.2894519,0.13740423,1.1704986,-0.017104227,-0.7501425,-0.47952923
654,6.54,0.2894519,0.13740423,1.1704986,-0.017104227,-0.7501425,-0.47952923
655,6.55,0.2894519,0.13740423,1.1704986,-0.017104227,-0.7501425,-0.47952923
656,6.56,0.2894519,0.13740423,1.1704986,-0.017104227,-0.7501425,-0.47952923
657,6.57,0.2894519,0.13740423,1.1704986,-0.017104227,-0.7501425,-0.47952923
658,6.58,0.28432914724319375,0.1352403093100173,1.1548212103316893,-0.017104227,-0.7501425,-0.47952923
659,6.59,0.23930621839751334,0.11622200960321555,1.0170355249724747,-0.017104227,-0.7501425,-0.47952923
660,6.6,0.24837053772966453,0.05737929494879474,1.0026159882182983,-0.017104227,-0.7501425,-0.47952923
661,6.61,0.25601605,0.029774986,1.0052718,-0.017104227,-0.7501425,-0.47952923
662,6.62,0.25601605,0.029774986,1.0052718,-0.017104227,-0.7501425,-0.47952923
663,6.63,0.25601605,0.029774986,1.0052718,-0.017104227,-0.7501425,-0.47952923
664,6.64,0.25601605,0.029774986,1.0052718,-0.017104227,-0.7501425,-0.47952923
665,6.65,0.25601605,0.029774986,1.0052718,-0.017104227,-0.7501425,-0.47952923
666,6.66,0.25601605,0.029774986,1.0052718,-0.017104227,-0.7501425,-0.47952923
667,6.67,0.25601605,0.029774986,1.0052718,-0.017104227,-0.7501425,-0.47952923
668,6.68,0.25601605,0.029774986,1.0052718,-0.017104227,-0.7501425,-0.47952923
669,6.69,0.25601605,0.029774986,1.0052718,-0.01275131574669643,-0.74802684026396,-0.49392545090108975
670,6.7,0.25601605,0.029774986,1.0052718,0.19383681996143612,-0.6476181309594576,-1.177166680535958
671,6.71,0.25601605,0.029774986,1.0052718,0.20158553,-0.643852,-1.2027937
672,6.72,0.25601605,0.029774986,1.0052718,0.20158553,-0.643852,-1.2027937
673,6.73,0.25601605,0.029774986,1.0052718,0.20158553,-0.643852,-1.2027937
674,6.74,0.25601605,0.029774986,1.0052718,0.20158553,-0.643852,-1.2027937
675,6.75,0.25601605,0.029774986,1.0052718,0.20158553,-0.643852,-1.2027937
676,6.76,0.25601605,0.029774986,1.0052718,0.20158553,-0.643852,-1.2027937
677,6.77,0.25601605,0.029774986,1.0052718,0.1931526405544167,-0.5786792862282087,-1.2643225558628193
678,6.78,0.25601605,0.029774986,1.0052718,0.15210545,-0.26145032,-1.563815
679,6.79,0.25601605,0.029774986,1.0052718,0.15210545,-0.26145032,-1.563815
680,6.8,0.25601605,0.029774986,1.0052718,0.15210545,-0.26145032,-1.563815
681,6.81,0.25601605,0.029774986,1.0052718,0.15210545,-0.26145032,-1.563815
682,6.82,0.25601605,0.029774986,1.0052718,0.15210545,-0.26145032,-1.563815
683,6.83,0.25601605,0.029774986,1.0052718,0.15210545,-0.26145032,-1.563815
684,6.84,0.25601605,0.029774986,1.0052718,0.15210545,-0.26145032,-1.563815
685,6.85,0.1441045438841137,0.13720106862566137,1.1113521883129,-0.015735975287910143,-0.00603946569948774,-0.13519823976129966
686,6.86,0.1342315,0.1466784,1.1207108,-0.030543262,0.016493361,-0.009162978
687,6.87,0.1342315,0.1466784,1.1207108,-0.030543262,0.016493361,-0.009162978
688,6.88,0.1342315,0.1466784,1.1207108,-0.030543262,0.016493361,-0.009162978
689,6.89,0.1342315,0.1466784,1.1207108,-0.030543262,0.016493361,-0.009162978
690,6.9,0.1342315,0.1466784,1.1207108,-0.030543262,0.016493361,-0.009162978
691,6.91,0.1342315,0.1466784,1.1207108,-0.030543262,0.016493361,-0.009162978
692,6.92,0.1342315,0.1466784,1.1207108,-0.030543262,0.016493361,-0.009162978
693,6.93,0.1342315,0.1466784,1.1207108,-0.030543262,0.016493361,-0.009162978
694,6.94,0.1342315,0.1466784,1.1207108,-0.030543262,0.016493361,-0.009162978
695,6.95,0.1342315,0.1466784,1.1207108,-0.030543262,0.016493361,-0.009162978
696,6.96,0.1342315,0.1466784,1.1207108,-0.03128316138042475,0.011863282687718888,-0.012630165550450007
697,6.97,0.1342315,0.1466784,1.1207108,-0.30876554075427187,-1.7245419377646578,-1.3129197409815776
698,6.98,0.1342315,0.1466784,1.1207108,-0.22301730782815057,-1.2562824061814781,-1.6459263052041564
699,6.99,0.18867942621680908,0.13731748274973882,1.0933150995724312,-0.12156218,-0.66950834,-1.6878207
700,7.0,0.2889638,0.12007617,1.0428566,-0.12156218,-0.66950834,-1.6878207
701,7.01,0.2889638,0.12007617,1.0428566,-0.12156218,-0.66950834,-1.6878207
702,7.02,0.2889638,0.12007617,1.0428566,-0.12156218,-0.66950834,-1.6878207
703,7.03,0.11398778434753867,0.21202906743146166,0.9804686014510388,-0.34990428389522227,-1.1603230217826437,-1.7128899977583163
704,7.04,-0.064919226,0.30604777,0.916679,-0.5833763,-1.6621643,-1.7385225
705,7.05,-0.064919226,0.30604777,0.916679,-0.5303624953803059,-1.7669938625593016,-1.7012331407961643
706,7.06,-0.052712901820115274,0.29963313727937935,0.9210311858260584,-0.36713,-2.08977,-1.5864171
707,7.07,0.22870700062836208,0.15174215160043567,1.0213719348146322,-0.36713,-2.08977,-1.5864171
708,7.08,0.2889638,0.12007617,1.0428566,-0.36713,-2.08977,-1.5864171
709,7.09,0.2889638,0.12007617,1.0428566,-0.36713,-2.08977,-1.5864171
710,7.1,0.2889638,0.12007617,1.0428566,-0.36713,-2.08977,-1.5864171
711,7.11,0.2889638,0.12007617,1.0428566,-0.36713,-2.08977,-1.5864171
712,7.12,0.2889638,0.12007617,1.0428566,-0.36713,-2.08977,-1.5864171
713,7.13,0.1808869496250018,-0.009153860002209694,1.0512113032798094,-0.36713,-2.08977,-1.5864171
714,7.14,0.14057697,-0.05735345,1.0543274,-0.10045241081953782,-0.9934669992569458,-0.6477119218686228
715,7.15,0.14057697,-0.05735345,1.0543274,0.04862175905545594,-0.06370423496361803,0.003909883710276857
716,7.16,0.14057697,-0.05735345,1.0543274,-0.044593163,0.06536258,-0.11911872
717,7.17,0.14057697,-0.05735345,1.0543274,-0.044593163,0.06536258,-0.11911872
718,7.18,0.14057697,-0.05735345,1.0543274,-0.044593163,0.06536258,-0.11911872
719,7.19,0.14057697,-0.05735345,1.0543274,-0.044593163,0.06536258,-0.11911872
720,7.2,0.14057697,-0.05735345,1.0543274,-0.044593163,0.06536258,-0.11911872
721,7.21,0.01720653516342852,0.1756092095347258,0.975458923048031,-0.044593163,0.06536258,-0.11911872
722,7.22,-0.049543623,0.30165476,0.93278676,0.24781011320455512,0.30352781707778737,-0.4250212257434562
723,7.23,-0.049543623,0.30165476,0.93278676,0.6963864,0.66889745,-0.8943067
724,7.24,-0.049543623,0.30165476,0.93278676,0.6963864,0.66889745,-0.8943067
725,7.25,-0.049543623,0.30165476,0.93278676,0.6963864,0.66889745,-0.8943067
726,7.26,-0.049543623,0.30165476,0.93278676,0.6963864,0.66889745,-0.8943067
727,7.27,-0.016986974386257955,0.2439076305348001,0.9171450285371701,0.6963864,0.66889745,-0.8943067
728,7.28,0.037828874,0.1466784,0.89080894,0.6963864,0.66889745,-0.8943067
729,7.29,0.037828874,0.1466784,0.89080894,0.6963864,0.66889745,-0.8943067
730,7.3,0.037828874,0.1466784,0.89080894,0.6963864,0.66889745,-0.8943067
731,7.31,0.037828874,0.1466784,0.89080894,0.6963864,0.66889745,-0.8943067
732,7.32,0.037828874,0.1466784,0.89080894,0.6963864,0.66889745,-0.8943067
733,7.33,0.037828874,0.1466784,0.89080894,0.6963864,0.66889745,-0.8943067
734,7.34,0.037828874,0.1466784,0.89080894,0.6963864,0.66889745,-0.8943067
735,7.35,0.037828874,0.1466784,0.89080894,0.6963864,0.66889745,-0.8943067
736,7.36,0.037828874,0.1466784,0.89080894,0.6963864,0.66889745,-0.8943067
737,7.37,0.037828874,0.1466784,0.89080894,0.3507113252476785,0.6743889483994112,-0.8182928638564507
738,7.38,0.037828874,0.1466784,0.89080894,0.024975891304771475,0.517584355726126,-0.7245438526178999
739,7.39,0.037828874,0.1466784,0.89080894,0.1881465,0.06841691,-0.6994407
740,7.4,0.037828874,0.1466784,0.89080894,0.1881465,0.06841691,-0.6994407
741,7.41,0.037828874,0.1466784,0.89080894,0.1881465,0.06841691,-0.6994407
742,7.42,0.037828874,0.1466784,0.89080894,0.1881465,0.06841691,-0.6994407
743,7.43,0.037828874,0.1466784,0.89080894,0.1881465,0.06841691,-0.6994407
744,7.44,0.037828874,0.1466784,0.89080894,0.2387767901298842,0.06632317541280465,-0.806792161792504
745,7.45,0.037828874,0.1466784,0.89080894,0.4976638335309917,0.05561731622149608,-1.3557106545949842
746,7.46,0.037828874,0.1466784,0.89080894,0.14813822840395469,-0.02291901789296753,-0.8040251079385062
747,7.47,-0.028588830859663877,0.19511127343567602,0.885287280378934,0.5093699942044813,0.32942412045791986,-0.9199545713208008
748,7.48,-0.064919226,0.22160399,0.88226694,0.75625116,0.5326745,-1.0622946
749,7.49,-0.064919226,0.22160399,0.88226694,0.75625116,0.5326745,-1.0622946
750,7.5,-0.064919226,0.22160399,0.88226694,0.75625116,0.5326745,-1.0622946
751,7.51,-0.064919226,0.22160399,0.88226694,0.75625116,0.5326745,-1.0622946
752,7.52,-0.064919226,0.22160399,0.88226694,0.75625116,0.5326745,-1.0622946
753,7.53,-0.064919226,0.22160399,0.88226694,0.75625116,0.5326745,-1.0622946
754,7.54,-0.064919226,0.22160399,0.88226694,0.75625116,0.5326745,-1.0622946
755,7.55,-0.064919226,0.22160399,0.88226694,0.75625116,0.5326745,-1.0622946
756,7.56,-0.064919226,0.22160399,0.88226694,0.75625116,0.5326745,-1.0622946
757,7.57,-0.064919226,0.22160399,0.88226694,0.75625116,0.5326745,-1.0622946
758,7.58,-0.12595672918085984,0.273201017560339,0.8378316330639121,0.75625116,0.5326745,-1.0622946
759,7.59,-0.1564407,0.29897013,0.8156393,0.75625116,0.5326745,-1.0622946
760,7.6,-0.1564407,0.29897013,0.8156393,0.75625116,0.5326745,-1.0622946
761,7.61,-0.1564407,0.29897013,0.8156393,0.75625116,0.5326745,-1.0622946
762,7.62,-0.02304705391433539,0.2760676969152012,1.068090725288469,0.75625116,0.5326745,-1.0622946
763,7.63,0.029774986,0.26699865,1.168058,0.75625116,0.5326745,-1.0622946
764,7.64,0.029774986,0.26699865,1.168058,0.75625116,0.5326745,-1.0622946
765,7.65,0.029774986,0.26699865,1.168058,0.75625116,0.5326745,-1.0622946
766,7.66,0.025012850310971294,0.26851448364302083,1.1551532802906712,0.75625116,0.5326745,-1.0622946
767,7.67,-0.051938671352398234,0.2930088939320259,0.9466254509472232,0.75625116,0.5326745,-1.0622946
768,7.68,-0.05686534,0.2945771,0.93327487,0.75625116,0.5326745,-1.0622946
769,7.69,-0.05686534,0.2945771,0.93327487,0.75625116,0.5326745,-1.0622946
770,7.7,-0.05686534,0.2945771,0.93327487,0.75625116,0.5326745,-1.0622946
771,7.71,-0.05686534,0.2945771,0.93327487,0.75625116,0.5326745,-1.0622946
772,7.72,-0.05686534,0.2945771,0.93327487,0.75625116,0.5326745,-1.0622946
773,7.73,-0.05686534,0.2945771,0.93327487,0.75625116,0.5326745,-1.0622946
774,7.74,-0.05686534,0.2945771,0.93327487,0.75625116,0.5326745,-1.0622946
775,7.75,-0.05686534,0.2945771,0.93327487,0.75625116,0.5326745,-1.0622946
776,7.76,-0.05686534,0.2945771,0.93327487,0.75625116,0.5326745,-1.0622946
777,7.77,-0.05686534,0.2945771,0.93327487,1.112784369835469,-0.3413530502900741,-0.32254043504426133
778,7.78,-0.05686534,0.2945771,0.93327487,1.278541,-0.7476991,0.021380283
779,7.79,-0.05686534,0.2945771,0.93327487,1.0422510792384918,-0.45296918192508634,-0.42058807600141457
780,7.8,-0.05686534,0.2945771,0.93327487,0.7079928,-0.03604105,-1.0458013
781,7.81,-0.05686534,0.2945771,0.93327487,0.7079928,-0.03604105,-1.0458013
782,7.82,-0.05686534,0.2945771,0.93327487,0.7079928,-0.03604105,-1.0458013
783,7.83,-0.05686534,0.2945771,0.93327487,0.5967027277840998,-0.2042382168155666,-0.9787977938122724
784,7.84,-0.05686534,0.2945771,0.93327487,0.41172317,-0.48380527,-0.86742866
785,7.85,-0.05686534,0.2945771,0.93327487,0.41172317,-0.48380527,-0.86742866
786,7.86,-0.05686534,0.2945771,0.93327487,0.41172317,-0.48380527,-0.86742866
787,7.87,-0.05686534,0.2945771,0.93327487,0.41172317,-0.48380527,-0.86742866
788,7.88,-0.02964387438388164,0.3887179937894875,0.8664972497752231,0.41172317,-0.48380527,-0.86742866
789,7.89,-0.034006284440844546,0.3847543817775765,0.8812160757513915,0.20132115355441849,-0.17174488809163763,-0.7700830484144643
790,7.9,-0.05759751,0.3141017,0.94303715,-0.0066123893218992535,-0.024944217034420773,-0.8156710526255992
791,7.91,-0.05759751,0.3141017,0.94303715,-0.007941248,-0.21563543,-0.9841039
792,7.92,-0.05759751,0.3141017,0.94303715,-0.007941248,-0.21563543,-0.9841039
793,7.93,-0.05759751,0.3141017,0.94303715,0.035964202797636034,-0.13803062017853915,-0.9595515090254456
794,7.94,-0.05759751,0.3141017,0.94303715,0.2706133,0.27672195,-0.82833326
795,7.95,-0.05759751,0.3141017,0.94303715,0.2706133,0.27672195,-0.82833326
796,7.96,-0.05759751,0.3141017,0.94303715,0.2706133,0.27672195,-0.82833326
797,7.97,-0.05759751,0.3141017,0.94303715,0.2706133,0.27672195,-0.82833326
798,7.98,-0.05759751,0.3141017,0.94303715,0.2706133,0.27672195,-0.82833326
799,7.99,-0.05759751,0.3141017,0.94303715,0.2706133,0.27672195,-0.82833326
800,8.0,-0.05759751,0.3141017,0.94303715,0.2706133,0.27672195,-0.82833326
801,8.01,-0.13821286972507787,0.33129753259181305,0.8356026512879051,0.2706133,0.27672195,-0.82833326
802,8.02,-0.18231077,0.34070393,0.77683425,0.1287949814316906,0.18323414274826014,-0.995537323996347
803,8.03,-0.18231077,0.34070393,0.77683425,-0.055823109491544405,-0.0010756662527507657,-1.2267562958481657
804,8.04,-0.18231077,0.34070393,0.77683425,0.10338284720445282,-0.24615636915100267,-1.1148296335142072
805,8.05,-0.18231077,0.34070393,0.77683425,0.11728613,-0.267559,-1.1050552
806,8.06,-0.18231077,0.34070393,0.77683425,0.13701382889289715,0.03681126092105462,-1.275558914182762
807,8.07,-0.18231077,0.34070393,0.77683425,0.15149458,0.2602286,-1.400714
808,8.08,-0.18231077,0.34070393,0.77683425,0.15149458,0.2602286,-1.400714
809,8.09,-0.17195420144042017,0.33285114862961546,0.8024790743681776,0.15149458,0.2602286,-1.400714
810,8.1,-0.12142869484802205,0.29454060642487934,0.9275897937363904,0.15149458,0.2602286,-1.400714
811,8.11,-0.11568313,0.29018408,0.9418169,0.15149458,0.2602286,-1.400714
812,8.12,-0.11568313,0.29018408,0.9418169,0.15149458,0.2602286,-1.400714
813,8.13,-0.11568313,0.29018408,0.9418169,0.15149458,0.2602286,-1.400714
814,8.14,-0.11568313,0.29018408,0.9418169,0.15149458,0.2602286,-1.400714
815,8.15,-0.11568313,0.29018408,0.9418169,0.15149458,0.2602286,-1.400714
816,8.16,-0.11568313,0.29018408,0.9418169,0.15149458,0.2602286,-1.400714
817,8.17,-0.11568313,0.29018408,0.9418169,0.15149458,0.2602286,-1.400714
818,8.18,-0.11568313,0.29018408,0.9418169,0.15149458,0.2602286,-1.400714
819,8.19,-0.11568313,0.29018408,0.9418169,0.15149458,0.2602286,-1.400714
820,8.2,-0.11568313,0.29018408,0.9418169,0.15149458,0.2602286,-1.400714
821,8.21,-0.11568313,0.29018408,0.9418169,0.15149458,0.2602286,-1.400714
822,8.22,-0.11568313,0.29018408,0.9418169,0.15149458,0.2602286,-1.400714
823,8.23,-0.11568313,0.29018408,0.9418169,0.15149458,0.2602286,-1.400714
824,8.24,-0.11568313,0.29018408,0.9418169,0.15149458,0.2602286,-1.400714
825,8.25,-0.11568313,0.29018408,0.9418169,0.15149458,0.2602286,-1.400714
826,8.26,-0.13329550233556947,0.3613451737190213,0.9402157865076347,0.15149458,0.2602286,-1.400714
827,8.27,-0.1398448,0.38780698,0.9396204,0.15149458,0.2602286,-1.400714
828,8.28,-0.16824143677732625,0.35234218760786096,0.9466885759383654,0.15149458,0.2602286,-1.400714
829,8.29,-0.19573392,0.3180066,0.9535317,0.15149458,0.2602286,-1.400714
830,8.3,-0.19573392,0.3180066,0.9535317,0.15149458,0.2602286,-1.400714
831,8.31,-0.19573392,0.3180066,0.9535317,0.15149458,0.2602286,-1.400714
832,8.32,-0.19573392,0.3180066,0.9535317,0.15149458,0.2602286,-1.400714
833,8.33,-0.19573392,0.3180066,0.9535317,0.15149458,0.2602286,-1.400714
834,8.34,-0.1874570786184899,0.31146859290106993,1.0294143022413018,0.15149458,0.2602286,-1.400714
835,8.35,-0.1666911,0.29506522,1.2197981,0.13429080282454753,0.1768163451660949,-1.2302402099438132
836,8.36,-0.1666911,0.29506522,1.2197981,0.05400298719141735,-0.21245792113886305,-0.43466095506706637
837,8.37,-0.1666911,0.29506522,1.2197981,0.050701816,-0.2284636,-0.40194935
838,8.38,-0.1666911,0.29506522,1.2197981,0.004963531865922251,-0.12879510253024504,-0.17428191363493284
839,8.39,-0.1666911,0.29506522,1.2197981,-0.03158512932883182,-0.11969774803876419,-0.1722904779263195
840,8.4,-0.17548050140865484,0.29713530922971293,1.1802966897670935,-0.032375857,-0.24740042,-0.49846604
841,8.41,-0.22241531856792307,0.3081894476155504,0.9693617943612347,-0.032375857,-0.24740042,-0.49846604
842,8.42,-0.22990192,0.3099527,0.93571544,-0.032375857,-0.24740042,-0.49846604
843,8.43,-0.22990192,0.3099527,0.93571544,0.18368107509118362,-0.2676557483455718,-0.5952415529151264
844,8.44,-0.22990192,0.3099527,0.93571544,0.31948254,-0.28038713,-0.6560693
845,8.45,-0.22990192,0.3099527,0.93571544,0.31948254,-0.28038713,-0.6560693
846,8.46,-0.22990192,0.3099527,0.93571544,0.31948254,-0.28038713,-0.6560693
847,8.47,-0.22990192,0.3099527,0.93571544,0.31948254,-0.28038713,-0.6560693
848,8.48,-0.22990192,0.3099527,0.93571544,0.31948254,-0.28038713,-0.6560693
849,8.49,-0.22990192,0.3099527,0.93571544,0.31948254,-0.28038713,-0.6560693
850,8.5,-0.22990192,0.3099527,0.93571544,0.31948254,-0.28038713,-0.6560693
851,8.51,-0.22990192,0.3099527,0.93571544,0.31948254,-0.28038713,-0.6560693
852,8.52,-0.22990192,0.3099527,0.93571544,0.31948254,-0.28038713,-0.6560693
853,8.53,-0.14099004760286496,0.18417791258389593,0.9666998693488029,0.31948254,-0.28038713,-0.6560693
854,8.54,-0.052716363,0.059305906,0.9974619,0.31948254,-0.28038713,-0.6560693
855,8.55,-0.052716363,0.059305906,0.9974619,0.31948254,-0.28038713,-0.6560693
856,8.56,-0.052716363,0.059305906,0.9974619,0.31948254,-0.28038713,-0.6560693
857,8.57,-0.052716363,0.059305906,0.9974619,0.31948254,-0.28038713,-0.6560693
858,8.58,-0.04780318871633101,0.19788632499411457,0.9840229664361992,0.31948254,-0.28038713,-0.6560693
859,8.59,-0.044418417,0.2933568,0.97476465,0.31948254,-0.28038713,-0.6560693
860,8.6,-0.044418417,0.2933568,0.97476465,0.23442292393294428,-0.2698741476918403,-0.5804800593405733
861,8.61,-0.044418417,0.2933568,0.97476465,-0.19784243084032835,-0.21644811266742564,-0.19634230465178298
862,8.62,-0.044418417,0.2933568,0.97476465,-0.27855456,-0.20647246,-0.12461651
863,8.63,-0.044418417,0.2933568,0.97476465,0.0018214741064126432,-0.524187487564735,-0.3733210426234168
864,8.64,-0.1028548930506323,0.2986439045129993,0.9218008133116024,0.23518312,-0.788627,-0.58032197
865,8.65,-0.19817449,0.30726805,0.835408,0.23518312,-0.788627,-0.58032197
866,8.66,-0.19817449,0.30726805,0.835408,0.23518312,-0.788627,-0.58032197
867,8.67,-0.19817449,0.30726805,0.835408,0.23518312,-0.788627,-0.58032197
868,8.68,-0.19817449,0.30726805,0.835408,0.23518312,-0.788627,-0.58032197
869,8.69,-0.1856645199925083,0.3523039693647619,0.9073403083211924,0.23518312,-0.788627,-0.58032197
870,8.7,-0.18353106,0.35998443,0.9196077,0.23518312,-0.788627,-0.58032197
871,8.71,-0.18353106,0.35998443,0.9196077,0.23518312,-0.788627,-0.58032197
872,8.72,-0.18353106,0.35998443,0.9196077,0.23518312,-0.788627,-0.58032197
873,8.73,-0.18353106,0.35998443,0.9196077,0.1709446952698402,-0.7458895046736821,-0.5622576677625345
874,8.74,-0.18353106,0.35998443,0.9196077,-0.18917073205274262,-0.5063065532426193,-0.4609906465543542
875,8.75,-0.18353106,0.35998443,0.9196077,-0.21013765,-0.49235737,-0.4550946
876,8.76,-0.18353106,0.35998443,0.9196077,-0.21013765,-0.49235737,-0.4550946
877,8.77,-0.18353106,0.35998443,0.9196077,-0.21013765,-0.49235737,-0.4550946
878,8.78,-0.18353106,0.35998443,0.9196077,-0.08161101211464739,-0.7080664086949453,-0.4032645057730676
879,8.79,-0.18353106,0.35998443,0.9196077,0.051923547,-0.93218035,-0.3494149
880,8.8,-0.17389053708650462,0.342427714091208,0.9246238930758431,0.051923547,-0.93218035,-0.3494149
881,8.81,-0.153512,0.3053156,0.93522733,-0.00016157325995212982,-0.9686289327358011,-0.3551409611182972
882,8.82,-0.153512,0.3053156,0.93522733,-0.23064827569283577,-1.129920940917768,-0.3804798859109935
883,8.83,-0.153512,0.3053156,0.93522733,-0.23701571,-1.1343768,-0.3811799
884,8.84,-0.153512,0.3053156,0.93522733,-0.23701571,-1.1343768,-0.3811799
885,8.85,-0.1692184911892741,0.30600221954858536,0.9001237917251693,-0.23701571,-1.1343768,-0.3811799
886,8.86,-0.17767128690890951,0.30173661618709846,0.8551367964645101,-0.23701571,-1.1343768,-0.3811799
887,8.87,-0.06707090064421228,0.2718984141468348,0.9615598026561907,-0.23701571,-1.1343768,-0.3811799
888,8.88,-0.062478654,0.2706595,0.9659786,-0.23701571,-1.1343768,-0.3811799
889,8.89,-0.062478654,0.2706595,0.9659786,-0.23701571,-1.1343768,-0.3811799
890,8.9,-0.062478654,0.2706595,0.9659786,-0.23701571,-1.1343768,-0.3811799
891,8.91,-0.062478654,0.2706595,0.9659786,-0.23701571,-1.1343768,-0.3811799
892,8.92,-0.062478654,0.2706595,0.9659786,-0.23701571,-1.1343768,-0.3811799
893,8.93,-0.062478654,0.2706595,0.9659786,-0.23701571,-1.1343768,-0.3811799
894,8.94,-0.062478654,0.2706595,0.9659786,0.021155665221498293,-0.687127953974083,-0.3418749616019374
895,8.95,-0.062478654,0.2706595,0.9659786,0.1441642,-0.47403142,-0.3231477
896,8.96,-0.062478654,0.2706595,0.9659786,0.13036346874187008,-0.3561501819427699,-0.3425070613050101
897,8.97,-0.062478654,0.2706595,0.9659786,0.12268739806919747,-0.12225802069949576,-0.36768263317911826
898,8.98,-0.062478654,0.2706595,0.9659786,0.33669208777639376,-0.34960594869734374,-0.2044848059050907
899,8.99,-0.062478654,0.2706595,0.9659786,0.3549127,-0.36896262,-0.19058995
900,9.0,-0.062478654,0.2706595,0.9659786,0.2223430461598041,-0.5421214856028247,-0.2609664460675437
901,9.01,-0.062478654,0.2706595,0.9659786,0.10751228,-0.6921103,-0.321926
902,9.02,-0.062478654,0.2706595,0.9659786,0.10751228,-0.6921103,-0.321926
903,9.03,-0.05765414811143511,0.27374718307285045,0.9609008060248424,0.10751228,-0.6921103,-0.321926
904,9.04,0.031054224733722657,0.3305205288994796,0.8675352155201604,0.10751228,-0.6921103,-0.321926
905,9.05,-0.023715302918644057,0.14531469683043138,0.9609197475823015,0.10751228,-0.6921103,-0.321926
906,9.06,0.0037199744498912168,0.20161936378104045,0.9580766080857301,0.10751228,-0.6921103,-0.321926
907,9.07,0.05051985,0.3219115,0.9200958,0.1810041357366399,-0.5557162190578859,-0.28613313173729327
908,9.08,0.05051985,0.3219115,0.9200958,0.31948254,-0.29871312,-0.21868975
909,9.09,0.05051985,0.3219115,0.9200958,0.31948254,-0.29871312,-0.21868975
910,9.1,0.05051985,0.3219115,0.9200958,0.31948254,-0.29871312,-0.21868975
911,9.11,0.023921279231072304,0.29510182967587256,0.8888530969690016,0.31948254,-0.29871312,-0.21868975
912,9.12,0.019768637,0.29091623,0.8839754,0.31948254,-0.29871312,-0.21868975
913,9.13,0.019768637,0.29091623,0.8839754,0.2439595184128542,-0.37328415300385326,-0.2136125797173778
914,9.14,0.019768637,0.29091623,0.8839754,0.08746384953022664,-0.21974908465600734,-0.16244237219340021
915,9.15,0.019768637,0.29091623,0.8839754,-0.035430185,0.09590584,-0.096516706
916,9.16,0.019768637,0.29091623,0.8839754,-0.035430185,0.09590584,-0.096516706
917,9.17,0.019768637,0.29091623,0.8839754,-0.035430185,0.09590584,-0.096516706
918,9.18,0.019768637,0.29091623,0.8839754,-0.035430185,0.09590584,-0.096516706
919,9.19,0.019768637,0.29091623,0.8839754,-0.035430185,0.09590584,-0.096516706
920,9.2,-0.016852445172919183,0.29402429955535697,0.916272174630415,-0.035430185,0.09590584,-0.096516706
921,9.21,-0.04637088,0.29652956,0.942305,-0.009523065963546013,-0.008507697925012239,-0.13223712919140357
922,9.22,-0.0364107014090726,0.2999430223952426,0.9374140677474829,0.08552113,-0.3915646,-0.26328292
923,9.23,0.04027236962887193,0.3262231515063983,0.8997589492234872,0.08552113,-0.3915646,-0.26328292
924,9.24,0.04905551,0.32923323,0.895446,0.08552113,-0.3915646,-0.26328292
925,9.25,0.04905551,0.32923323,0.895446,0.08552113,-0.3915646,-0.26328292
926,9.26,0.04905551,0.32923323,0.895446,0.08552113,-0.3915646,-0.26328292
927,9.27,-0.04305420953887015,0.3469584569038331,0.8963681363120943,0.08552113,-0.3915646,-0.26328292
928,9.28,-0.17035197,0.37145513,0.89764255,0.08552113,-0.3915646,-0.26328292
929,9.29,-0.17035197,0.37145513,0.89764255,0.08552113,-0.3915646,-0.26328292
930,9.3,-0.17035197,0.37145513,0.89764255,0.08552113,-0.3915646,-0.26328292
931,9.31,-0.17035197,0.37145513,0.89764255,0.08552113,-0.3915646,-0.26328292
932,9.32,-0.17035197,0.37145513,0.89764255,-0.12875695155546255,-0.26366507156176533,-0.39711403107980575
933,9.33,-0.17035197,0.37145513,0.89764255,-0.267559,-0.18081611,-0.48380527
934,9.34,-0.12463195666373597,0.36994004680737363,0.9201906232645867,-0.267559,-0.18081611,-0.48380527
935,9.35,-0.04515059,0.36730617,0.95938903,-0.267559,-0.18081611,-0.48380527
936,9.36,-0.04515059,0.36730617,0.95938903,-0.267559,-0.18081611,-0.48380527
937,9.37,-0.04515059,0.36730617,0.95938903,-0.267559,-0.18081611,-0.48380527
938,9.38,-0.04515059,0.36730617,0.95938903,-0.267559,-0.18081611,-0.48380527
939,9.39,-0.04515059,0.36730617,0.95938903,-0.29659342851500187,-0.18109262612503044,-0.4945895029895821
940,9.4,-0.04515059,0.36730617,0.95938903,-0.34098662095287824,-0.15140684145092187,-0.5115165337977946
941,9.41,-0.04515059,0.36730617,0.95938903,-0.35796702,-0.096516706,-0.5186246
942,9.42,-0.04515059,0.36730617,0.95938903,-0.35796702,-0.096516706,-0.5186246
943,9.43,-0.04515059,0.36730617,0.95938903,-0.35796702,-0.096516706,-0.5186246
944,9.44,-0.04515059,0.36730617,0.95938903,-0.35796702,-0.096516706,-0.5186246
945,9.45,-0.04515059,0.36730617,0.95938903,-0.35796702,-0.096516706,-0.5186246
946,9.46,-0.04515059,0.36730617,0.95938903,-0.35796702,-0.096516706,-0.5186246
947,9.47,-0.04515059,0.36730617,0.95938903,-0.35796702,-0.096516706,-0.5186246
948,9.48,-0.04515059,0.36730617,0.95938903,-0.35796702,-0.096516706,-0.5186246
949,9.49,-0.04515059,0.36730617,0.95938903,-0.35796702,-0.096516706,-0.5186246
950,9.5,-0.04515059,0.36730617,0.95938903,-0.35796702,-0.096516706,-0.5186246
951,9.51,-0.04515059,0.36730617,0.95938903,-0.35796702,-0.096516706,-0.5186246
952,9.52,-0.06842689613534524,0.34310218489678174,0.960232373573834,-0.35796702,-0.096516706,-0.5186246
953,9.53,-0.11251039,0.29726174,0.9618296,-0.35796702,-0.096516706,-0.5186246
954,9.54,-0.11251039,0.29726174,0.9618296,-0.35796702,-0.096516706,-0.5186246
955,9.55,-0.11251039,0.29726174,0.9618296,-0.35796702,-0.096516706,-0.5186246
956,9.56,-0.11251039,0.29726174,0.9618296,-0.35796702,-0.096516706,-0.5186246
957,9.57,-0.12200771056519377,0.31212223956662816,0.9461869640581242,-0.21925392681958566,-0.054846844909503575,-0.29741076474500555
958,9.58,-0.13325526,0.32972133,0.9276616,-0.05497787,-0.005497787,-0.035430185
959,9.59,-0.13325526,0.32972133,0.9276616,-0.05497787,-0.005497787,-0.035430185
960,9.6,-0.13325526,0.32972133,0.9276616,-0.05497787,-0.005497787,-0.035430185
961,9.61,-0.13325526,0.32972133,0.9276616,-0.05497787,-0.005497787,-0.035430185
962,9.62,-0.13325526,0.32972133,0.9276616,-0.05497787,-0.005497787,-0.035430185
963,9.63,-0.13325526,0.32972133,0.9276616,-0.05497787,-0.005497787,-0.035430185
964,9.64,-0.13325526,0.32972133,0.9276616,-0.05497787,-0.005497787,-0.035430185
965,9.65,-0.13325526,0.32972133,0.9276616,-0.05497787,-0.005497787,-0.035430185
966,9.66,-0.13325526,0.32972133,0.9276616,-0.05497787,-0.005497787,-0.035430185
967,9.67,-0.13325526,0.32972133,0.9276616,-0.05497787,-0.005497787,-0.035430185
968,9.68,-0.09501004200601505,0.31115141057488177,0.9395994211964743,-0.05497787,-0.005497787,-0.035430185
969,9.69,-0.04881145,0.28871974,0.9540198,-0.05073358956549772,-0.03352772410048969,-0.008372895601614739
970,9.7,-0.04881145,0.28871974,0.9540198,-0.025719675363586367,-0.19872379267715135,0.15109081703283656
971,9.71,-0.08339238179324544,0.30365705132934795,0.9311022665471724,-0.02565634,-0.19914207,0.15149458
972,9.72,-0.09005712,0.3065359,0.9266854,-0.02565634,-0.19914207,0.15149458
973,9.73,-0.06981324555155176,0.3162529565500809,0.9578031066523821,-0.02565634,-0.19914207,0.15149458
974,9.74,-0.047347106,0.3270367,0.99233675,-0.02565634,-0.19914207,0.15149458
975,9.75,-0.055200687918376304,0.3260146600965442,0.9914760979264948,-0.02565634,-0.19914207,0.15149458
976,9.76,-0.0825279735120155,0.3224583750001244,0.988481377141269,-0.02565634,-0.19914207,0.15149458
977,9.77,-0.08297946,0.32239962,0.9884319,-0.015849287601884133,0.004844616669937443,-0.012283194647175913
978,9.78,-0.06144505190430037,0.325202038641564,0.9907917955447202,0.010557426127440546,0.0258129414981916,-0.009340782245387196
979,9.79,-0.047347106,0.3270367,0.99233675,0.026267206,0.0067195175,0.018936822
980,9.8,-0.047347106,0.3270367,0.99233675,0.07277090102155144,-0.033257343492814645,0.02852310963100239
981,9.81,-0.047347106,0.3270367,0.99233675,0.16554448,-0.11301007,0.047647487
982,9.82,-0.047944143558635015,0.3272252389828094,0.9925174302412768,0.16554448,-0.11301007,0.047647487
983,9.83,-0.06268939770006796,0.3318816549433863,0.9969797559985596,0.16554448,-0.11301007,0.047647487
984,9.84,-0.02887468452177958,0.12678308347969336,1.0084535739741631,0.16554448,-0.11301007,0.047647487
985,9.85,-0.0134231495,0.04075756,1.0128375,0.16554448,-0.11301007,0.047647487
986,9.86,-0.0134231495,0.04075756,1.0128375,0.16554448,-0.11301007,0.047647487
987,9.87,-0.0134231495,0.04075756,1.0128375,0.16554448,-0.11301007,0.047647487
988,9.88,-0.0134231495,0.04075756,1.0128375,0.16554448,-0.11301007,0.047647487
989,9.89,-0.0134231495,0.04075756,1.0128375,0.16554448,-0.11301007,0.047647487
990,9.9,-0.05369903627545926,0.1822864710765276,0.9569301343620724,0.16554448,-0.11301007,0.047647487
991,9.91,-0.08322352,0.2860351,0.9159469,0.16554448,-0.11301007,0.047647487
992,9.92,-0.08322352,0.2860351,0.9159469,0.16554448,-0.11301007,0.047647487
993,9.93,-0.08322352,0.2860351,0.9159469,0.1653444488108201,-0.11306890271591905,0.04756119904126474
994,9.94,-0.08322352,0.2860351,0.9159469,0.11732523996766371,-0.12719220260784878,0.02684703177491798
995,9.95,-0.08322352,0.2860351,0.9159469,0.08435777832185841,-0.11932246677627907,0.011845060514061263
996,9.96,-0.08322352,0.2860351,0.9159469,0.06963864,-0.10995574,0.004886922
997,9.97,-0.08322352,0.2860351,0.9159469,0.07877627632053252,-0.11505357937614764,-0.04503342807004944
998,9.98,-0.08322352,0.2860351,0.9159469,0.12767084,-0.1423316,-0.31215215
999,9.99,-0.08322352,0.2860351,0.9159469,0.12767084,-0.1423316,-0.31215215
