id,timestamp,acc_x,acc_y,acc_z,gyro_x,gyro_y,gyro_z
0,0.0,,,,,,
1,0.01,0.04344219,0.60819066,0.77195305,0.0,0.015882496,-0.002443461
2,0.02,0.04344219,0.60819066,0.77195305,-0.007989534204492279,0.012408785822445,0.0041565884510853255
3,0.03,0.04344219,0.60819066,0.77195305,-0.014049901,0.009773844,0.009162978
4,0.04,0.04344219,0.60819066,0.77195305,-0.014049901,0.009773844,0.009162978
5,0.05,0.04344219,0.60819066,0.77195305,-0.014049901,0.009773844,0.009162978
6,0.06,0.04344219,0.60819066,0.77195305,-0.014049901,0.009773844,0.009162978
7,0.07,0.04344219,0.60819066,0.77195305,-0.014049901,0.009773844,0.009162978
8,0.08,0.04344219,0.60819066,0.77195305,-0.014049901,0.009773844,0.009162978
9,0.09,0.04344219,0.60819066,0.77195305,-0.014049901,0.009773844,0.009162978
10,0.1,0.04344219,0.60819066,0.77195305,-0.014049901,0.009773844,0.009162978
11,0.11,0.04344219,0.60819066,0.77195305,-0.014049901,0.009773844,0.009162978
12,0.12,0.04344219,0.60819066,0.77195305,-0.014049901,0.009773844,0.009162978
13,0.13,0.04344219,0.60819066,0.77195305,-0.014049901,0.009773844,0.009162978
14,0.14,0.04344219,0.60819066,0.77195305,-0.014049901,0.009773844,0.009162978
15,0.15,0.04275125972357432,0.6083967252620117,0.7718560777321883,-0.013928541705534352,0.004949812082240724,0.005673898371029816
16,0.16,0.031834467656470584,0.6116525843470588,0.7703239027500001,-0.012011048395,-0.07127054642294121,-0.049454032933529436
17,0.17,0.029530926,0.6123396,0.7700006,-0.01160644,-0.08735373,-0.061086524
18,0.18,0.029530926,0.6123396,0.7700006,-0.01160644,-0.08735373,-0.061086524
19,0.19,0.029530926,0.6123396,0.7700006,-0.01160644,-0.08735373,-0.061086524
20,0.2,0.029530926,0.6123396,0.7700006,-0.01160644,-0.08735373,-0.061086524
21,0.21,0.029530926,0.6123396,0.7700006,-0.01160644,-0.08735373,-0.061086524
22,0.22,0.029530926,0.6123396,0.7700006,-0.01160644,-0.08735373,-0.061086524
23,0.23,0.029530926,0.6123396,0.7700006,-0.01160644,-0.08735373,-0.061086524
24,0.24,0.03223661601617555,0.6126778243015119,0.7723681054405446,-0.01160644,-0.08735373,-0.061086524
25,0.25,0.0353883,0.6130718,0.77512586,-0.01160644,-0.08735373,-0.061086524
26,0.26,0.0353883,0.6130718,0.77512586,-0.01160644,-0.08735373,-0.061086524
27,0.27,0.0353883,0.6130718,0.77512586,-0.01160644,-0.08735373,-0.061086524
28,0.28,0.0353883,0.6130718,0.77512586,-0.01160644,-0.08735373,-0.061086524
29,0.29,0.0353883,0.6130718,0.77512586,-0.01160644,-0.08735373,-0.061086524
30,0.3,0.0401859735799293,0.6147012022553767,0.7731343576394947,-0.01160644,-0.08735373,-0.061086524
31,0.31,0.048323333,0.61746484,0.76975656,-0.003045840337526323,-0.07165929714643822,-0.05160871725466587
32,0.32,0.048323333,0.61746484,0.76975656,0.03929465640161322,0.005964947562939984,-0.0047317388399252145
33,0.33,0.048323333,0.61746484,0.76975656,0.03970624,0.0067195175,-0.004276057
34,0.34,0.048323333,0.61746484,0.76975656,0.03970624,0.0067195175,-0.004276057
35,0.35,0.048323333,0.61746484,0.76975656,0.018014374974924453,-0.0022984487668371934,-0.0028136839435911106
36,0.36,0.047025461230311975,0.616890372543384,0.7686501787483169,-0.014660766,-0.015882496,-0.00061086525
37,0.37,0.0351693360166761,0.6116425828496174,0.7585433292425846,-0.014660766,-0.015882496,-0.00061086525
38,0.38,0.0381704761147806,0.6143473581189282,0.7790026959483549,-0.014660766,-0.015882496,-0.00061086525
39,0.39,0.04075756,0.61624455,0.7909895,-0.014660766,-0.015882496,-0.00061086525
40,0.4,0.04075756,0.61624455,0.7909895,-0.014660766,-0.015882496,-0.00061086525
41,0.41,0.04075756,0.61624455,0.7909895,-0.014660766,-0.015882496,-0.00061086525
42,0.42,0.04075756,0.61624455,0.7909895,-0.014660766,-0.015882496,-0.00061086525
43,0.43,0.04075756,0.61624455,0.7909895,-0.014660766,-0.015882496,-0.00061086525
44,0.44,0.04075756,0.61624455,0.7909895,-0.02885534409892753,-0.006419444395096717,-0.00027289911137384553
45,0.45,0.04075756,0.61624455,0.7909895,-0.040746238446366094,0.005298470810522515,-0.005364132015259742
46,0.46,0.04075756,0.61624455,0.7909895,-0.04153884,0.01282817,-0.015271631
47,0.47,0.04075756,0.61624455,0.7909895,-0.04153884,0.01282817,-0.015271631
48,0.48,0.04075756,0.61624455,0.7909895,-0.04153884,0.01282817,-0.015271631
49,0.49,0.04075756,0.61624455,0.7909895,-0.04153884,0.01282817,-0.015271631
50,0.5,0.04075756,0.61624455,0.7909895,-0.04153884,0.01282817,-0.015271631
51,0.51,0.04075756,0.61624455,0.7909895,-0.04153884,0.01282817,-0.015271631
52,0.52,0.04075756,0.61624455,0.7909895,-0.04153884,0.01282817,-0.015271631
53,0.53,0.04075756,0.61624455,0.7909895,-0.04153884,0.01282817,-0.015271631
54,0.54,0.04075756,0.61624455,0.7909895,-0.04153884,0.01282817,-0.015271631
55,0.55,0.04075756,0.61624455,0.7909895,-0.04153884,0.01282817,-0.015271631
56,0.56,0.04075756,0.61624455,0.7909895,-0.04153884,0.01282817,-0.015271631
57,0.57,0.04075756,0.61624455,0.7909895,-0.04153884,0.01282817,-0.015271631
58,0.58,0.04075756,0.61624455,0.7909895,0.002930732731449382,-0.09371351111452347,-0.11810751533478908
59,0.59,0.04366778862008008,0.6255043688293609,0.802101308612035,0.017104227,-0.12767084,-0.15088372
60,0.6,0.04612682,0.63332856,0.81149036,0.017104227,-0.12767084,-0.15088372
61,0.61,0.04612682,0.63332856,0.81149036,0.017104227,-0.12767084,-0.15088372
62,0.62,0.04612682,0.63332856,0.81149036,0.017104227,-0.12767084,-0.15088372
63,0.63,0.04612682,0.63332856,0.81149036,0.01889613993420163,-0.018065544081252265,-0.11504547402736796
64,0.64,0.04612682,0.63332856,0.81149036,0.02076942,0.096516706,-0.077579886
65,0.65,0.04612682,0.63332856,0.81149036,0.02076942,0.096516706,-0.077579886
66,0.66,0.04612682,0.63332856,0.81149036,0.02076942,0.096516706,-0.077579886
67,0.67,0.04612682,0.63332856,0.81149036,0.02076942,0.096516706,-0.077579886
68,0.68,0.04612682,0.63332856,0.81149036,0.02076942,0.096516706,-0.077579886
69,0.69,0.04612682,0.63332856,0.81149036,0.02076942,0.096516706,-0.077579886
70,0.7,0.04612682,0.63332856,0.81149036,0.02076942,0.096516706,-0.077579886
71,0.71,0.04612682,0.63332856,0.81149036,0.02076942,0.096516706,-0.077579886
72,0.72,0.04612682,0.63332856,0.81149036,0.02076942,0.096516706,-0.077579886
73,0.73,0.04612682,0.63332856,0.81149036,0.02076942,0.096516706,-0.077579886
74,0.74,0.04612682,0.63332856,0.81149036,0.02076942,0.096516706,-0.077579886
75,0.75,0.04612682,0.63332856,0.81149036,0.02076942,0.096516706,-0.077579886
76,0.76,0.04612682,0.63332856,0.81149036,0.02076942,0.096516706,-0.077579886
77,0.77,0.04612682,0.63332856,0.81149036,0.02076942,0.096516706,-0.077579886
78,0.78,0.03142736230136572,0.6209882697877576,0.719301189107102,0.02076942,0.096516706,-0.077579886
79,0.79,0.026358182,0.61673266,0.6875093,0.02076942,0.096516706,-0.077579886
80,0.8,0.026358182,0.61673266,0.6875093,0.02076942,0.096516706,-0.077579886
81,0.81,0.033592190190674685,0.6163458166426062,0.6993080794626626,0.02076942,0.096516706,-0.077579886
82,0.82,0.07199689,0.6142921,0.76194674,0.02076942,0.096516706,-0.077579886
83,0.83,0.07199689,0.6142921,0.76194674,0.02076942,0.096516706,-0.077579886
84,0.84,0.07199689,0.6142921,0.76194674,0.02076942,0.096516706,-0.077579886
85,0.85,0.07199689,0.6142921,0.76194674,0.02076942,0.096516706,-0.077579886
86,0.86,0.03807291587142398,0.6107439105689112,0.7661872206764598,0.02076942,0.096516706,-0.077579886
87,0.87,-0.023673553,0.6042857,0.7739055,0.022110223575921444,0.10232685551185877,-0.07471950447223112
88,0.88,-0.023673553,0.6042857,0.7739055,0.029381220206207696,0.13383451127952173,-0.0592080419260132
89,0.89,-0.023673553,0.6042857,0.7739055,0.029932396,0.13622294,-0.0580322
90,0.9,-0.011596022871200932,0.6142757584578642,0.7733090659247223,0.029932396,0.13622294,-0.0580322
91,0.91,-0.0039049159,0.62063754,0.77292925,0.029932396,0.13622294,-0.0580322
92,0.92,-0.0039049159,0.62063754,0.77292925,0.02424195475192341,0.07380590988562702,-0.026201290939051044
93,0.93,-0.0039049159,0.62063754,0.77292925,0.01038471,-0.07819075,0.05131268
94,0.94,-0.0039049159,0.62063754,0.77292925,0.01038471,-0.07819075,0.05131268
95,0.95,-0.0039049159,0.62063754,0.77292925,0.01038471,-0.07819075,0.05131268
96,0.96,-0.0039049159,0.62063754,0.77292925,0.01038471,-0.07819075,0.05131268
97,0.97,-0.0039049159,0.62063754,0.77292925,0.01038471,-0.07819075,0.05131268
98,0.98,-0.0039049159,0.62063754,0.77292925,0.01038471,-0.07819075,0.05131268
99,0.99,-0.0039049159,0.62063754,0.77292925,0.01038471,-0.07819075,0.05131268
100,1.0,-0.0039049159,0.62063754,0.77292925,0.01038471,-0.07819075,0.05131268
101,1.01,-0.0039049159,0.62063754,0.77292925,0.01038471,-0.07819075,0.05131268
102,1.02,0.012940224158503356,0.6115569624759165,0.7789830132851069,0.01038471,-0.07819075,0.05131268
103,1.03,0.027334413,0.6037976,0.78415596,0.01038471,-0.07819075,0.05131268
104,1.04,0.027334413,0.6037976,0.78415596,0.002794923306453837,-0.06843245349875489,0.046072113275529715
105,1.05,0.027334413,0.6037976,0.78415596,-0.038616823929049075,-0.01518878217103746,0.017478289321413737
106,1.06,0.027334413,0.6037976,0.78415596,-0.040927973,-0.012217305,0.015882496
107,1.07,0.027334413,0.6037976,0.78415596,-0.040927973,-0.012217305,0.015882496
108,1.08,0.027334413,0.6037976,0.78415596,-0.040927973,-0.012217305,0.015882496
109,1.09,0.027334413,0.6037976,0.78415596,-0.040927973,-0.012217305,0.015882496
110,1.1,0.02205595348428754,0.6182357830994542,0.7560559354165146,-0.040927973,-0.012217305,0.015882496
111,1.11,0.019036464,0.626495,0.7399816,-0.040927973,-0.012217305,0.015882496
112,1.12,0.019036464,0.626495,0.7399816,-0.040927973,-0.012217305,0.015882496
113,1.13,0.019036464,0.626495,0.7399816,-0.040927973,-0.012217305,0.015882496
114,1.14,0.019036464,0.626495,0.7399816,-0.040927973,-0.012217305,0.015882496
115,1.15,0.019036464,0.626495,0.7399816,-0.040927973,-0.012217305,0.015882496
116,1.16,0.019036464,0.626495,0.7399816,-0.02395138281082961,-0.004321216514870219,0.013382068141284809
117,1.17,0.018935390673445882,0.6273469029832709,0.7420319449793591,0.037873644,0.02443461,0.004276057
118,1.18,0.017574749471976917,0.6388151541847595,0.7696335284163832,0.037873644,0.02443461,0.004276057
119,1.19,0.017328065,0.64089435,0.7746377,0.037873644,0.02443461,0.004276057
120,1.2,0.018061096034791505,0.635922485955229,0.7785259475105946,0.03404460893062211,0.043180928316130726,0.017039508493608677
121,1.21,0.022531355422023225,0.6056024573844081,0.8022377333820612,0.0106939196002659,0.1575020163073817,0.09487514729300724
122,1.22,0.022941383,0.6028214,0.80441266,0.008552114,0.16798794,0.1020145
123,1.23,0.022941383,0.6028214,0.80441266,0.008552114,0.16798794,0.1020145
124,1.24,0.022941383,0.6028214,0.80441266,0.008552114,0.16798794,0.1020145
125,1.25,0.02119188365428107,0.6113501734124175,0.7767487337135751,0.008552114,0.16798794,0.1020145
126,1.26,0.019036464,0.6218578,0.7426662,0.008552114,0.16798794,0.1020145
127,1.27,0.019036464,0.6218578,0.7426662,0.008552114,0.16798794,0.1020145
128,1.28,0.019036464,0.6218578,0.7426662,0.008552114,0.16798794,0.1020145
129,1.29,0.019036464,0.6218578,0.7426662,0.008552114,0.16798794,0.1020145
130,1.3,0.019036464,0.6218578,0.7426662,0.008552114,0.16798794,0.1020145
131,1.31,0.019036464,0.6218578,0.7426662,0.00683235112152466,0.15811158800710517,0.09710089167236592
132,1.32,0.019036464,0.6218578,0.7426662,-0.01050192500828341,0.05856332193928766,0.047574387401937326
133,1.33,0.019036464,0.6218578,0.7426662,-0.01282817,0.04520403,0.040927973
134,1.34,0.019036464,0.6218578,0.7426662,-0.01282817,0.04520403,0.040927973
135,1.35,0.019036464,0.6218578,0.7426662,-0.01282817,0.04520403,0.040927973
136,1.36,0.019036464,0.6218578,0.7426662,-0.01282817,0.04520403,0.040927973
137,1.37,0.019036464,0.6218578,0.7426662,-0.01282817,0.04520403,0.040927973
138,1.38,0.019036464,0.6218578,0.7426662,-0.01282817,0.04520403,0.040927973
139,1.39,0.019036464,0.6218578,0.7426662,0.09944788830000083,0.2495096435426846,0.03402575259043769
140,1.4,0.019036464,0.6218578,0.7426662,0.1567550547365698,0.03496720110172029,0.046308570454790296
141,1.41,0.019036464,0.6218578,0.7426662,0.16554448,-0.08552113,0.052534413
142,1.42,0.013751694499680939,0.6201372030192869,0.7576601823138613,0.16554448,-0.08552113,0.052534413
143,1.43,0.008542004,0.61844105,0.77244115,0.16554448,-0.08552113,0.052534413
144,1.44,0.008542004,0.61844105,0.77244115,0.16554448,-0.08552113,0.052534413
145,1.45,0.008542004,0.61844105,0.77244115,0.16554448,-0.08552113,0.052534413
146,1.46,0.014845934348889256,0.6672965646884707,0.6741392575626989,0.16554448,-0.08552113,0.052534413
147,1.47,0.05095372066803698,0.6907970160293935,0.6752032856137974,0.16554448,-0.08552113,0.052534413
148,1.48,0.073461235,0.6984919,0.69117016,0.16554448,-0.08552113,0.052534413
149,1.49,0.073461235,0.6984919,0.69117016,0.013736342861093718,-0.04329498725959948,0.0342020861775377
150,1.5,0.073461235,0.6984919,0.69117016,-0.2734518861261192,0.03828794112371233,0.0063395074691556755
151,1.51,0.073461235,0.6984919,0.69117016,-0.19155767047569455,0.027927828532265324,0.06603349115120506
152,1.52,0.073461235,0.6984919,0.69117016,-0.18325958,0.02687807,0.0720821
153,1.53,0.073461235,0.6984919,0.69117016,-0.18325958,0.02687807,0.0720821
154,1.54,0.073461235,0.6984919,0.69117016,-0.18325958,0.02687807,0.0720821
155,1.55,0.073461235,0.6984919,0.69117016,-0.18325958,0.02687807,0.0720821
156,1.56,0.073461235,0.6984919,0.69117016,-0.18325958,0.02687807,0.0720821
157,1.57,0.073461235,0.6984919,0.69117016,-0.18325958,0.02687807,0.0720821
158,1.58,0.073461235,0.6984919,0.69117016,-0.18325958,0.02687807,0.0720821
159,1.59,0.048048547432545524,0.6898037934712777,0.6731423500774653,-0.18325958,0.02687807,0.0720821
160,1.6,0.016351834,0.6789673,0.65065664,-0.18325958,0.02687807,0.0720821
161,1.61,0.016351834,0.6789673,0.65065664,-0.13797670611062435,-5.641753336512837e-05,0.0720821
162,1.62,0.016351834,0.6789673,0.65065664,0.051923547,-0.11301007,0.0720821
163,1.63,0.016351834,0.6789673,0.65065664,0.045005099653359325,-0.10863593819288019,0.07110619802104386
164,1.64,0.016351834,0.6789673,0.65065664,-0.14360519712414654,0.010611380887373578,0.04450121677968948
165,1.65,0.016351834,0.6789673,0.65065664,-0.19058995,0.040317107,0.037873644
166,1.66,0.016351834,0.6789673,0.65065664,-0.19058995,0.040317107,0.037873644
167,1.67,0.016351834,0.6789673,0.65065664,-0.19058995,0.040317107,0.037873644
168,1.68,0.016351834,0.6789673,0.65065664,-0.19233335152988412,0.04369494490002302,0.042667995085634854
169,1.69,0.016351834,0.6789673,0.65065664,-0.2003638,0.059253927,0.064751714
170,1.7,0.016351834,0.6789673,0.65065664,-0.2003638,0.059253927,0.064751714
171,1.71,0.016351834,0.6789673,0.65065664,-0.2003638,0.059253927,0.064751714
172,1.72,0.016351834,0.6789673,0.65065664,-0.2003638,0.059253927,0.064751714
173,1.73,0.01403811731566748,0.6713650757515988,0.6892461191421313,-0.2003638,0.059253927,0.064751714
174,1.74,0.009518232,0.656514,0.76463133,-0.2003638,0.059253927,0.064751714
175,1.75,0.009518232,0.656514,0.76463133,-0.2003638,0.059253927,0.064751714
176,1.76,0.009518232,0.656514,0.76463133,-0.2003638,0.059253927,0.064751714
177,1.77,0.009518232,0.656514,0.76463133,-0.2003638,0.059253927,0.064751714
178,1.78,0.009518232,0.656514,0.76463133,-0.2003638,0.059253927,0.064751714
179,1.79,0.009518232,0.656514,0.76463133,-0.2003638,0.059253927,0.064751714
180,1.8,0.009518232,0.656514,0.76463133,-0.2003638,0.059253927,0.064751714
181,1.81,0.009518232,0.656514,0.76463133,-0.2003638,0.059253927,0.064751714
182,1.82,0.009518232,0.656514,0.76463133,-0.2003638,0.059253927,0.064751714
183,1.83,0.009518232,0.656514,0.76463133,-0.2003638,0.059253927,0.064751714
184,1.84,0.009518232,0.656514,0.76463133,-0.2003638,0.059253927,0.064751714
185,1.85,0.009518232,0.656514,0.76463133,-0.2003638,0.059253927,0.064751714
186,1.86,0.009518232,0.656514,0.76463133,-0.2003638,0.059253927,0.064751714
187,1.87,0.009518232,0.656514,0.76463133,-0.19533738388370808,0.058711862771535075,0.06105581961177734
188,1.88,0.009518232,0.656514,0.76463133,-0.14580745017739422,0.0533704018420651,0.024636748886441143
189,1.89,0.009518232,0.656514,0.76463133,-0.13805555,0.052534413,0.018936822
190,1.9,0.009518232,0.656514,0.76463133,-0.2758154138377545,0.20924895869541807,0.09509399515011559
191,1.91,-0.0009945381866645498,0.6420964623619232,0.7356961976042018,-0.3866777,0.33536503,0.1563815
192,1.92,-0.016107777,0.6213697,0.69409883,-0.3866777,0.33536503,0.1563815
193,1.93,-0.011249634160375641,0.6190424494210488,0.7028842121101769,-0.3866777,0.33536503,0.1563815
194,1.94,0.020649897980683538,0.6037612592431798,0.7605707784065159,-0.3866777,0.33536503,0.1563815
195,1.95,0.024649782,0.60184515,0.7678041,-0.3866777,0.33536503,0.1563815
196,1.96,0.024649782,0.60184515,0.7678041,-0.3866777,0.33536503,0.1563815
197,1.97,0.024649782,0.60184515,0.7678041,-0.3866777,0.33536503,0.1563815
198,1.98,0.025426210812961116,0.6209107748663676,0.7660786987102884,-0.3866777,0.33536503,0.1563815
199,1.99,0.026846299,0.6557818,0.76292294,-0.3866777,0.33536503,0.1563815
200,2.0,0.026846299,0.6557818,0.76292294,-0.3866777,0.33536503,0.1563815
201,2.01,0.026846299,0.6557818,0.76292294,-0.3866777,0.33536503,0.1563815
202,2.02,0.026846299,0.6557818,0.76292294,-0.1963090711371903,0.19748120455132037,0.10804803428403165
203,2.03,0.026846299,0.6557818,0.76292294,0.005497787,0.05131268,0.05681047
204,2.04,0.018759723398076154,0.6506648730223172,0.7681312492313055,0.005497787,0.05131268,0.05681047
205,2.05,-0.01586006069593717,0.6287585784530728,0.790428764268419,0.005497787,0.05131268,0.05681047
206,2.06,-0.016351834,0.6284474,0.7907455,0.005497787,0.05131268,0.05681047
207,2.07,-0.016351834,0.6284474,0.7907455,0.005497787,0.05131268,0.05681047
208,2.08,-0.0038411478750983758,0.6309495367123675,0.7801114117638206,-0.002330646170920007,0.1368383177346875,0.15094738425473778
209,2.09,0.022697324,0.63625723,0.7575537,-0.018936822,0.3182608,0.35063666
210,2.1,0.022697324,0.63625723,0.7575537,-0.018936822,0.3182608,0.35063666
211,2.11,0.022697324,0.63625723,0.7575537,0.016083269680649857,0.06392737178987049,0.13001006764977308
212,2.12,0.014929020449731436,0.6318182151343257,0.7732136280296147,0.029932396,-0.036651913,0.042760566
213,2.13,0.007321717,0.6274712,0.788549,0.029932396,-0.036651913,0.042760566
214,2.14,0.007321717,0.6274712,0.788549,0.029932396,-0.036651913,0.042760566
215,2.15,0.007321717,0.6274712,0.788549,0.029932396,-0.036651913,0.042760566
216,2.16,0.011556165128262652,0.6426767017530293,0.7069396079689846,0.029932396,-0.036651913,0.042760566
217,2.17,0.012690976,0.6467517,0.6850687,0.029932396,-0.036651913,0.042760566
218,2.18,0.012690976,0.6467517,0.6850687,0.029932396,-0.036651913,0.042760566
219,2.19,0.012690976,0.6467517,0.6850687,0.029932396,-0.036651913,0.042760566
220,2.2,0.012690976,0.6467517,0.6850687,0.029932396,-0.036651913,0.042760566
221,2.21,0.012394517896317831,0.6456594862366383,0.6893439375528558,0.029932396,-0.036651913,0.042760566
222,2.22,0.008822289899321092,0.6324986498967783,0.7408592211306553,0.029932396,-0.036651913,0.042760566
223,2.23,0.008053889,0.6296677,0.75194037,0.029932396,-0.036651913,0.042760566
224,2.24,0.008053889,0.6296677,0.75194037,0.029932396,-0.036651913,0.042760566
225,2.25,0.008053889,0.6296677,0.75194037,0.029932396,-0.036651913,0.042760566
226,2.26,0.008053889,0.6296677,0.75194037,0.029932396,-0.036651913,0.042760566
227,2.27,0.008053889,0.6296677,0.75194037,0.029932396,-0.036651913,0.042760566
228,2.28,0.008053889,0.6296677,0.75194037,0.029932396,-0.036651913,0.042760566
229,2.29,0.008053889,0.6296677,0.75194037,0.0009043692450017396,-0.018351635970556425,0.020674024285578803
230,2.3,0.008053889,0.6296677,0.75194037,-0.026267206,-0.0012217305,0.0
231,2.31,0.008053889,0.6296677,0.75194037,-0.026267206,-0.0012217305,0.0
232,2.32,0.008877038579015213,0.6306760611643898,0.7526194693091202,-0.03790795452563447,0.002177780192940536,-0.0014937244586224474
233,2.33,0.016562533632445576,0.6400908199622501,0.7589600111912833,-0.1465940517948856,0.033917968465812486,-0.015440171411392634
234,2.34,0.017816179,0.64162654,0.75999427,-0.16432275,0.039095376,-0.017715093
235,2.35,0.017816179,0.64162654,0.75999427,-0.16432275,0.039095376,-0.017715093
236,2.36,0.02009787217439211,0.6396979575381325,0.7604560364465728,-0.16432275,0.039095376,-0.017715093
237,2.37,0.03771772033275648,0.6248049252407285,0.764021921099494,-0.16432275,0.039095376,-0.017715093
238,2.38,0.038316987,0.6242984,0.7641432,-0.16432275,0.039095376,-0.017715093
239,2.39,0.038316987,0.6242984,0.7641432,-0.07482709795353013,0.028740507063107924,0.002624828277387567
240,2.4,0.038316987,0.6242984,0.7641432,-0.016493361,0.021991149,0.015882496
241,2.41,0.038316987,0.6242984,0.7641432,-0.016493361,0.021991149,0.015882496
242,2.42,0.038316987,0.6242984,0.7641432,-0.016493361,0.021991149,0.015882496
243,2.43,0.038316987,0.6242984,0.7641432,-0.016493361,0.021991149,0.015882496
244,2.44,0.038316987,0.6242984,0.7641432,-0.016493361,0.021991149,0.015882496
245,2.45,0.038316987,0.6242984,0.7641432,-0.016493361,0.021991149,0.015882496
246,2.46,0.02505118170333674,0.6290253435439916,0.7639907239963902,-0.010386921349159778,0.010923226722844402,0.01282927601838648
247,2.47,0.017084008,0.63186425,0.76389915,-0.0067195175,0.004276057,0.010995574
248,2.48,0.017084008,0.63186425,0.76389915,-0.0067195175,0.004276057,0.010995574
249,2.49,0.014608858805385668,0.6303946106251497,0.765600827688965,-0.0067195175,0.004276057,0.010995574
250,2.5,0.010568162068630113,0.6274261826094825,0.7658178184514115,-0.0067195175,0.004276057,0.010995574
251,2.51,0.018792408,0.6286915,0.7438865,-0.0067195175,0.004276057,0.010995574
252,2.52,0.018792408,0.6286915,0.7438865,-0.0067195175,0.004276057,0.010995574
253,2.53,0.018792408,0.6286915,0.7438865,-0.003522768154423663,-0.004115411037883919,0.002204513087068349
254,2.54,0.018792408,0.6286915,0.7438865,-0.0018325958,-0.008552114,-0.002443461
255,2.55,0.018792408,0.6286915,0.7438865,-0.0018325958,-0.008552114,-0.002443461
256,2.56,0.018792408,0.6286915,0.7438865,-0.0018325958,-0.008552114,-0.002443461
257,2.57,0.018792408,0.6286915,0.7438865,-0.0018325958,-0.008552114,-0.002443461
258,2.58,0.018792408,0.6286915,0.7438865,-0.0018325958,-0.008552114,-0.002443461
259,2.59,0.018792408,0.6286915,0.7438865,-0.0018325958,-0.008552114,-0.002443461
260,2.6,0.018792408,0.6286915,0.7438865,-0.0018325958,-0.008552114,-0.002443461
261,2.61,0.018792408,0.6286915,0.7438865,-0.0018325958,-0.008552114,-0.002443461
262,2.62,0.018792408,0.6286915,0.7438865,-0.0018325958,-0.008552114,-0.002443461
263,2.63,0.018792408,0.6286915,0.7438865,-0.0018325958,-0.008552114,-0.002443461
264,2.64,0.018792408,0.6286915,0.7438865,-0.0018325958,-0.008552114,-0.002443461
265,2.65,0.018792408,0.6286915,0.7438865,-0.0018325958,-0.008552114,-0.002443461
266,2.66,0.018792408,0.6286915,0.7438865,-0.0018325958,-0.008552114,-0.002443461
267,2.67,0.018792408,0.6286915,0.7438865,-0.0018325958,-0.008552114,-0.002443461
268,2.68,0.018792408,0.6286915,0.7438865,-0.0018325958,-0.008552114,-0.002443461
269,2.69,0.018792408,0.6286915,0.7438865,-0.0018325958,-0.008552114,-0.002443461
270,2.7,0.018792408,0.6286915,0.7438865,0.002564635196591871,-0.008169745932127437,-0.0055024042910909576
271,2.71,0.018792408,0.6286915,0.7438865,0.012217305,-0.007330383,-0.012217305
272,2.72,0.018792408,0.6286915,0.7438865,0.012217305,-0.007330383,-0.012217305
273,2.73,0.018792408,0.6286915,0.7438865,0.012217305,-0.007330383,-0.012217305
274,2.74,0.018792408,0.6286915,0.7438865,-0.015243185064687253,-0.012202405676414884,0.005942051391571842
275,2.75,0.018792408,0.6286915,0.7438865,-0.02565634,-0.014049901,0.01282817
276,2.76,0.018792408,0.6286915,0.7438865,-0.038704940845902286,-0.011653219300943603,0.008567402428448787
277,2.77,0.018792408,0.6286915,0.7438865,-0.055588737,-0.008552114,0.0030543262
278,2.78,0.018792408,0.6286915,0.7438865,-0.05483125748313167,-0.009414799109613308,0.0034120248777743927
279,2.79,0.018792408,0.6286915,0.7438865,-0.03803116353076292,-0.02854824175732043,0.011345402955233948
280,2.8,0.018792408,0.6286915,0.7438865,-0.03359759,-0.03359759,0.013439035
281,2.81,0.018792408,0.6286915,0.7438865,-0.03359759,-0.03359759,0.013439035
282,2.82,0.018792408,0.6286915,0.7438865,-0.03359759,-0.03359759,0.013439035
283,2.83,0.018792408,0.6286915,0.7438865,-0.03359759,-0.03359759,0.013439035
284,2.84,0.018792408,0.6286915,0.7438865,-0.03359759,-0.03359759,0.013439035
285,2.85,0.018792408,0.6286915,0.7438865,-0.03359759,-0.03359759,0.013439035
286,2.86,0.018792408,0.6286915,0.7438865,-0.03359759,-0.03359759,0.013439035
287,2.87,0.018792408,0.6286915,0.7438865,-0.03359759,-0.03359759,0.013439035
288,2.88,0.018792408,0.6286915,0.7438865,-0.03359759,-0.03359759,0.013439035
289,2.89,0.018792408,0.6286915,0.7438865,-0.03359759,-0.03359759,0.013439035
290,2.9,0.027857360905928434,0.6370971719881315,0.7658072329334658,-0.03359759,-0.03359759,0.013439035
291,2.91,0.032215554,0.6411384,0.77634615,-0.03359759,-0.03359759,0.013439035
292,2.92,0.032215554,0.6411384,0.77634615,-0.03375432546060492,-0.025290593268791985,0.005445510088031688
293,2.93,0.032215554,0.6411384,0.77634615,-0.034208454,-0.0012217305,-0.017715093
294,2.94,0.032215554,0.6411384,0.77634615,-0.034208454,-0.0012217305,-0.017715093
295,2.95,0.023100803431336355,0.6338167167328933,0.78052993839766,-0.034208454,-0.0012217305,-0.017715093
296,2.96,0.017328065,0.6291796,0.7831797,-0.034208454,-0.0012217305,-0.017715093
297,2.97,0.017328065,0.6291796,0.7831797,-0.034208454,-0.0012217305,-0.017715093
298,2.98,0.017328065,0.6291796,0.7831797,-0.034208454,-0.0012217305,-0.017715093
299,2.99,0.017328065,0.6291796,0.7831797,-0.034208454,-0.0012217305,-0.017715093
300,3.0,0.017328065,0.6291796,0.7831797,-0.034208454,-0.0012217305,-0.017715093
301,3.01,0.017328065,0.6291796,0.7831797,-0.034208454,-0.0012217305,-0.017715093
302,3.02,0.016382398544544246,0.6288643743178328,0.7764969827007853,-0.034208454,-0.0012217305,-0.017715093
303,3.03,0.014283858584326509,0.6291155208320649,0.7583502019071983,-0.034208454,-0.0012217305,-0.017715093
304,3.04,0.017392128145456903,0.6349435123293796,0.7635954101745582,-0.034208454,-0.0012217305,-0.017715093
305,3.05,0.017572122,0.635281,0.76389915,-0.034208454,-0.0012217305,-0.017715093
306,3.06,0.017572122,0.635281,0.76389915,-0.034208454,-0.0012217305,-0.017715093
307,3.07,0.017572122,0.635281,0.76389915,-0.025401376243304255,0.0057505398412606564,-0.0037705529182029437
308,3.08,0.017572122,0.635281,0.76389915,-0.019547688,0.01038471,0.005497787
309,3.09,0.017572122,0.635281,0.76389915,0.0483898114079114,0.009778124904578685,0.0015549853692507802
310,3.1,0.017572122,0.635281,0.76389915,0.25411993,0.007941248,-0.01038471
311,3.11,0.017572122,0.635281,0.76389915,0.25411993,0.007941248,-0.01038471
312,3.12,0.017572122,0.635281,0.76389915,0.25411993,0.007941248,-0.01038471
313,3.13,0.017572122,0.635281,0.76389915,0.25411993,0.007941248,-0.01038471
314,3.14,0.017572122,0.635281,0.76389915,0.25411993,0.007941248,-0.01038471
315,3.15,0.017572122,0.635281,0.76389915,0.19852278312686353,0.009806924221251123,-0.007524006365730172
316,3.16,0.017572122,0.635281,0.76389915,-0.018936822,0.017104227,0.0036651916
317,3.17,0.017572122,0.635281,0.76389915,-0.018936822,0.017104227,0.0036651916
318,3.18,0.017572122,0.635281,0.76389915,-0.036271368707379306,-0.08394349905527644,-0.08089357131707497
319,3.19,0.017572122,0.635281,0.76389915,-0.043982297,-0.12889257,-0.118507855
320,3.2,0.017572122,0.635281,0.76389915,-0.043982297,-0.12889257,-0.118507855
321,3.21,0.017572122,0.635281,0.76389915,-0.043982297,-0.12889257,-0.118507855
322,3.22,0.017572122,0.635281,0.76389915,-0.043982297,-0.12889257,-0.118507855
323,3.23,0.017572122,0.635281,0.76389915,-0.04479809305547844,-0.11567667451556833,-0.10235509489106497
324,3.24,0.017572122,0.635281,0.76389915,-0.04964817875266219,-0.03710528987345243,-0.006323408726021397
325,3.25,0.017572122,0.635281,0.76389915,-0.05009095,-0.029932396,0.002443461
326,3.26,0.017572122,0.635281,0.76389915,-0.05009095,-0.029932396,0.002443461
327,3.27,0.017572122,0.635281,0.76389915,-0.05009095,-0.029932396,0.002443461
328,3.28,0.017572122,0.635281,0.76389915,-0.05009095,-0.029932396,0.002443461
329,3.29,0.017572122,0.635281,0.76389915,-0.05009095,-0.029932396,0.002443461
330,3.3,0.017572122,0.635281,0.76389915,-0.05009095,-0.029932396,0.002443461
331,3.31,0.016165049609332214,0.625572198659484,0.7508134168935461,-0.05009095,-0.029932396,0.002443461
332,3.32,0.01254923311635201,0.6280228063938237,0.7463665192883301,-0.05009095,-0.029932396,0.002443461
333,3.33,0.005857374,0.65285313,0.7597502,-0.05009095,-0.029932396,0.002443461
334,3.34,0.005857374,0.65285313,0.7597502,-0.05009095,-0.029932396,0.002443461
335,3.35,0.005857374,0.65285313,0.7597502,-0.05009095,-0.029932396,0.002443461
336,3.36,0.005857374,0.65285313,0.7597502,-0.06332305580742977,0.01170033521680088,-0.02498895856876196
337,3.37,0.005857374,0.65285313,0.7597502,-0.06135804331812049,0.03255271924840919,-0.0318945223858466
338,3.38,0.00727331227565646,0.6486482214718449,0.762968242734274,-0.028710667,-0.0061086523,0.009773844
339,3.39,0.019481866405025184,0.612392507322705,0.7907149670000546,-0.028710667,-0.0061086523,0.009773844
340,3.4,0.021965152,0.6050179,0.7963588,-0.028710667,-0.0061086523,0.009773844
341,3.41,0.021965152,0.6050179,0.7963588,-0.028710667,-0.0061086523,0.009773844
342,3.42,0.021965152,0.6050179,0.7963588,-0.028710667,-0.0061086523,0.009773844
343,3.43,0.021965152,0.6050179,0.7963588,-0.028710667,-0.0061086523,0.009773844
344,3.44,0.021965152,0.6050179,0.7963588,-0.028710667,-0.0061086523,0.009773844
345,3.45,0.021965152,0.6050179,0.7963588,-0.028710667,-0.0061086523,0.009773844
346,3.46,0.021965152,0.6050179,0.7963588,-0.028710667,-0.0061086523,0.009773844
347,3.47,0.012433009464364092,0.5895161392986007,0.8030986841216772,-0.10799821008348465,-8.376355510675917e-05,-0.017940646049168667
348,3.48,-0.0021965152,0.5657247,0.81344277,-0.22968534,0.009162978,-0.06047566
349,3.49,-0.0021965152,0.5657247,0.81344277,-0.19904182809981733,0.005284052762518666,-0.04942072270012233
350,3.5,-0.0021965152,0.5657247,0.81344277,-0.04800915046447292,-0.013834006122913054,0.005065746962038539
351,3.51,-0.0021965152,0.5657247,0.81344277,-0.036651913,-0.015271631,0.009162978
352,3.52,-0.0021965152,0.5657247,0.81344277,-0.036651913,-0.015271631,0.009162978
353,3.53,-0.0021965152,0.5657247,0.81344277,-0.036651913,-0.015271631,0.009162978
354,3.54,-0.0021965152,0.5657247,0.81344277,-0.036651913,-0.015271631,0.009162978
355,3.55,-0.0021965152,0.5657247,0.81344277,-0.036651913,-0.015271631,0.009162978
356,3.56,-0.0021965152,0.5657247,0.81344277,-0.036651913,-0.015271631,0.009162978
357,3.57,-0.0021965152,0.5657247,0.81344277,-0.036651913,-0.015271631,0.009162978
358,3.58,-0.0021965152,0.5657247,0.81344277,-0.036651913,-0.015271631,0.009162978
359,3.59,-0.0021965152,0.5657247,0.81344277,-0.036651913,-0.015271631,0.009162978
360,3.6,0.002152287012150084,0.5703484274186532,0.8152672675695043,-0.036651913,-0.015271631,0.009162978
361,3.61,0.03173706417766806,0.6018035129069674,0.8276792723928111,-0.036651913,-0.015271631,0.009162978
362,3.62,0.04734180584089334,0.5946088756694704,0.7995747943261016,-0.036651913,-0.015271631,0.009162978
363,3.63,0.052472305,0.58280873,0.77659017,-0.036651913,-0.015271631,0.009162978
364,3.64,0.052472305,0.58280873,0.77659017,-0.036651913,-0.015271631,0.009162978
365,3.65,0.052472305,0.58280873,0.77659017,-0.036651913,-0.015271631,0.009162978
366,3.66,0.052472305,0.58280873,0.77659017,-0.036651913,-0.015271631,0.009162978
367,3.67,0.052472305,0.58280873,0.77659017,-0.036651913,-0.015271631,0.009162978
368,3.68,0.052472305,0.58280873,0.77659017,-0.036651913,-0.015271631,0.009162978
369,3.69,0.052472305,0.58280873,0.77659017,0.037338103167906256,-0.07644027155584054,-0.0923395733172444
370,3.7,0.052472305,0.58280873,0.77659017,0.13255776,-0.15515977,-0.22296582
371,3.71,0.049534230573690725,0.5878002886863224,0.7764322110762966,0.09610465207263413,-0.14764774081618032,-0.20833713077185087
372,3.72,0.031179343774828623,0.6189838059644783,0.7754454021181968,-0.13162704304102554,-0.10071821307376609,-0.11694804532390213
373,3.73,0.029774986,0.6213697,0.7753699,-0.14905111,-0.09712757,-0.10995574
374,3.74,0.029774986,0.6213697,0.7753699,-0.14905111,-0.09712757,-0.10995574
375,3.75,0.029774986,0.6213697,0.7753699,-0.14905111,-0.09712757,-0.10995574
376,3.76,0.029774986,0.6213697,0.7753699,-0.10861599280472785,-0.12651484442604483,-0.14729746483700284
377,3.77,0.029774986,0.6213697,0.7753699,-0.03726278,-0.17837265,-0.21319197
378,3.78,0.029774986,0.6213697,0.7753699,-0.03726278,-0.17837265,-0.21319197
379,3.79,0.029774986,0.6213697,0.7753699,-0.03726278,-0.17837265,-0.21319197
380,3.8,0.0017555926062387314,0.6234874819606652,0.7797682624022324,-0.03726278,-0.17837265,-0.21319197
381,3.81,-0.012202863,0.6245425,0.7819594,-0.03726278,-0.17837265,-0.21319197
382,3.82,-0.012202863,0.6245425,0.7819594,-0.03726278,-0.17837265,-0.21319197
383,3.83,-0.012202863,0.6245425,0.7819594,-0.03726278,-0.17837265,-0.21319197
384,3.84,-0.012202863,0.6245425,0.7819594,-0.03726278,-0.17837265,-0.21319197
385,3.85,-0.012202863,0.6245425,0.7819594,-0.03726278,-0.17837265,-0.21319197
386,3.86,-0.007421956402606385,0.6114869595105331,0.7950149781611624,-0.03726278,-0.17837265,-0.21319197
387,3.87,0.003514148340222371,0.6130455959617177,0.7870003901726784,-0.03726278,-0.17837265,-0.21319197
388,3.88,0.014845145149900044,0.6210448732054108,0.7710003222410821,-0.03726278,-0.17837265,-0.21319197
389,3.89,-0.008035892038816378,0.6240036614576076,0.7802710627838293,-0.03726278,-0.17837265,-0.21319197
390,3.9,-0.012202863,0.6245425,0.7819594,-0.03726278,-0.17837265,-0.21319197
391,3.91,-0.012202863,0.6245425,0.7819594,-0.023290408970459933,-0.1968161767854922,-0.22213428837382893
392,3.92,-0.012202863,0.6245425,0.7819594,-0.0067195175,-0.21868975,-0.23273966
393,3.93,-0.012714776021598732,0.6168638055499823,0.7886995906522103,-0.0067195175,-0.21868975,-0.23273966
394,3.94,-0.01504487268665578,0.5819123595521836,0.819379208278493,-0.0067195175,-0.21868975,-0.23273966
395,3.95,-0.01513155,0.5806122,0.82052046,-0.004174594627171166,-0.12758150883637845,-0.20729042210630086
396,3.96,-0.01513155,0.5806122,0.82052046,-0.0036651916,-0.10934488,-0.20219639
397,3.97,-0.01513155,0.5806122,0.82052046,-0.0036651916,-0.10934488,-0.20219639
398,3.98,-0.01513155,0.5806122,0.82052046,-0.02860797423796759,-0.027202482065922993,-0.10448819333967604
399,3.99,-0.01513155,0.5806122,0.82052046,-0.084910266,0.15821409,0.1160644
400,4.0,-0.01513155,0.5806122,0.82052046,-0.084910266,0.15821409,0.1160644
401,4.01,-0.01513155,0.5806122,0.82052046,-0.084910266,0.15821409,0.1160644
402,4.02,-0.01513155,0.5806122,0.82052046,-0.084910266,0.15821409,0.1160644
403,4.03,-0.01513155,0.5806122,0.82052046,-0.084910266,0.15821409,0.1160644
404,4.04,-0.00264336669049663,0.5888612646533472,0.8071157311119134,-0.084910266,0.15821409,0.1160644
405,4.05,0.011470691,0.5981843,0.7919658,-0.084910266,0.15821409,0.1160644
406,4.06,0.011470691,0.5981843,0.7919658,-0.084910266,0.15821409,0.1160644
407,4.07,0.011470691,0.5981843,0.7919658,-0.084910266,0.15821409,0.1160644
408,4.08,0.011470691,0.5981843,0.7919658,-0.084910266,0.15821409,0.1160644
409,4.09,0.011470691,0.5981843,0.7919658,-0.084910266,0.15821409,0.1160644
410,4.1,0.011470691,0.5981843,0.7919658,-0.084910266,0.15821409,0.1160644
411,4.11,0.011470691,0.5981843,0.7919658,-0.084910266,0.15821409,0.1160644
412,4.12,0.011470691,0.5981843,0.7919658,-0.084910266,0.15821409,0.1160644
413,4.13,0.011470691,0.5981843,0.7919658,-0.084910266,0.15821409,0.1160644
414,4.14,0.010030740590999957,0.5975459752443587,0.7909563498349457,-0.084910266,0.15821409,0.1160644
415,4.15,-0.008798493344681519,0.5891990446307882,0.777756469349186,-0.084910266,0.15821409,0.1160644
416,4.16,-0.012202863,0.5876899,0.7753699,-0.084910266,0.15821409,0.1160644
417,4.17,-0.012202863,0.5876899,0.7753699,-0.025993182461740868,-0.043121266765966754,-0.06111072616624509
418,4.18,0.0017360109348815126,0.5888277625739067,0.7880286466316455,0.0,-0.13194689,-0.13927728
419,4.19,0.011714748,0.58964235,0.79709095,-0.006255357762119876,-0.0683054272082735,-0.07454792567103784
420,4.2,0.011714748,0.58964235,0.79709095,-0.005199297506896752,0.0011430155234183035,0.006609629846413318
421,4.21,0.010578409882634195,0.589175636933863,0.7956096545181117,0.018325957,-0.025045475,0.007941248
422,4.22,-0.00031603999672122937,0.5847011041963208,0.7814079841373298,0.018325957,-0.025045475,0.007941248
423,4.23,-0.0019524579,0.584029,0.7792748,0.018325957,-0.025045475,0.007941248
424,4.24,-0.0019524579,0.584029,0.7792748,-0.007256168548197009,-0.07183383459039545,-0.03447122449266103
425,4.25,-0.0019524579,0.584029,0.7792748,-0.028099801,-0.10995574,-0.069027774
426,4.26,-0.0019524579,0.584029,0.7792748,-0.028099801,-0.10995574,-0.069027774
427,4.27,-0.0019524579,0.584029,0.7792748,-0.028099801,-0.10995574,-0.069027774
428,4.28,-0.0019524579,0.584029,0.7792748,-0.028099801,-0.10995574,-0.069027774
429,4.29,-0.0019524579,0.584029,0.7792748,-0.028099801,-0.10995574,-0.069027774
430,4.3,-0.0019524579,0.584029,0.7792748,-0.028099801,-0.10995574,-0.069027774
431,4.31,-0.0019524579,0.584029,0.7792748,-0.028099801,-0.10995574,-0.069027774
432,4.32,-0.001338707616343272,0.5853123036921616,0.7860260471167582,-0.028099801,-0.10995574,-0.069027774
433,4.33,0.00073217176,0.58964235,0.8088057,-0.028099801,-0.10995574,-0.069027774
434,4.34,0.00073217176,0.58964235,0.8088057,-0.028099801,-0.10995574,-0.069027774
435,4.35,0.00073217176,0.58964235,0.8088057,-0.028099801,-0.10995574,-0.069027774
436,4.36,0.008578137956346151,0.5928041592176498,0.8052925893097606,-0.03308260993821449,-0.08152442024597682,-0.03707917438480891
437,4.37,0.017084008,0.5962319,0.801484,-0.03848451,-0.050701816,-0.002443461
438,4.38,0.017084008,0.5962319,0.801484,-0.03717886152426711,-0.046289624075704756,-0.0020832820643962
439,4.39,0.01673141444326235,0.5960509625592202,0.8015257549694977,-0.02076942,0.009162978,0.002443461
440,4.4,0.0009912321728254851,0.5879737069117466,0.803389744875248,-0.02076942,0.009162978,0.002443461
441,4.41,-0.0014643435,0.5867136,0.80368054,-0.02076942,0.009162978,0.002443461
442,4.42,-0.0014643435,0.5867136,0.80368054,-0.02076942,0.009162978,0.002443461
443,4.43,-0.0014643435,0.5867136,0.80368054,-0.02076942,0.009162978,0.002443461
444,4.44,-0.0014643435,0.5867136,0.80368054,-0.06247055586169012,0.10606847674954861,0.07631405219818602
445,4.45,0.014487121503763339,0.5997443879525,0.7930087843606806,-0.084910266,0.15821409,0.1160644
446,4.46,0.033191785,0.61502427,0.7804951,-0.084910266,0.15821409,0.1160644
447,4.47,0.03041839566627589,0.6083520555594937,0.7824244063280159,-0.084910266,0.15821409,0.1160644
448,4.48,0.016973412638311376,0.5760061426288028,0.7917773992599844,-0.084910266,0.15821409,0.1160644
449,4.49,0.016351834,0.57451075,0.7922098,2.4287624612792196e-05,0.06674611404653052,0.14571610949650446
450,4.5,0.016969740919919464,0.5762100033658138,0.7898926909833419,0.018325957,0.047036625,0.15210545
451,4.51,0.017328065,0.5771954,0.788549,0.018325957,0.047036625,0.15210545
452,4.52,0.017328065,0.5771954,0.788549,0.008346127639481185,0.05157916781180176,0.14783821214737652
453,4.53,0.017328065,0.5771954,0.788549,-0.05894953126869422,0.08221029391583601,0.1190635134389733
454,4.54,0.017328065,0.5771954,0.788549,-0.09248207727604549,0.08299440350201409,0.11510366815412412
455,4.55,0.017328065,0.5771954,0.788549,-0.10140363,0.08124508,0.115453534
456,4.56,0.017328065,0.5771954,0.788549,-0.09036049372910676,0.11805553021900919,0.10171096629318471
457,4.57,0.016194408984232272,0.587634485913923,0.7892575236391808,-0.07391469,0.17287487,0.08124508
458,4.58,0.011619435576840191,0.6297623799041792,0.7921168361313966,-0.07391469,0.17287487,0.08124508
459,4.59,0.011470691,0.63113207,0.7922098,-0.07391469,0.17287487,0.08124508
460,4.6,0.011470691,0.63113207,0.7922098,-0.07391469,0.17287487,0.08124508
461,4.61,0.011470691,0.63113207,0.7922098,-0.07391469,0.17287487,0.08124508
462,4.62,0.011470691,0.63113207,0.7922098,-0.07391469,0.17287487,0.08124508
463,4.63,0.011470691,0.63113207,0.7922098,-0.07391469,0.17287487,0.08124508
464,4.64,0.004163819286562081,0.6220538284157718,0.7943686569095317,-0.07391469,0.17287487,0.08124508
465,4.65,-0.020827521107259165,0.5901423411679116,0.8030781001071179,-0.07391469,0.17287487,0.08124508
466,4.66,-0.021431326051869454,0.5830979556453008,0.8129402233452458,-0.07391469,0.17287487,0.08124508
467,4.67,-0.021477038,0.58256465,0.81368685,-0.07391469,0.17287487,0.08124508
468,4.68,-0.021477038,0.58256465,0.81368685,-0.07391469,0.17287487,0.08124508
469,4.69,-0.021477038,0.58256465,0.81368685,-0.07391469,0.17287487,0.08124508
470,4.7,-0.021477038,0.58256465,0.81368685,-0.03638666942169265,0.20097804917026288,0.16881045938573336
471,4.71,-0.021477038,0.58256465,0.81368685,0.05640622037418596,0.26986135870203304,0.38873564675093825
472,4.72,-0.021477038,0.58256465,0.81368685,0.007757382747945983,0.22491404988684402,0.32316549060992056
473,4.73,-0.021477038,0.58256465,0.81368685,0.0036651916,0.22113322,0.31764993
474,4.74,-0.021477038,0.58256465,0.81368685,0.0036651916,0.22113322,0.31764993
475,4.75,-0.0005639600044737682,0.6092784555063491,0.7782720223417235,0.0036651916,0.22113322,0.31764993
476,4.76,-0.009518195665185773,0.6073184980127395,0.7819460440837116,0.0036651916,0.22113322,0.31764993
477,4.77,-0.0047014046536935005,0.5876659437110697,0.8031784532389847,0.009030819586919266,0.22951701012689152,0.32167415200579924
478,4.78,0.06931226,0.5869577,0.7883049,0.02321288,0.25167647,0.3323107
479,4.79,0.06931226,0.5869577,0.7883049,0.02321288,0.25167647,0.3323107
480,4.8,0.0064847847384246204,0.5871751341851755,0.7746089068443518,0.02321288,0.25167647,0.3323107
481,4.81,-0.0012202862,0.5872018,0.77292925,0.02321288,0.25167647,0.3323107
482,4.82,-0.0012202862,0.5872018,0.77292925,0.02321288,0.25167647,0.3323107
483,4.83,-0.0012202862,0.5872018,0.77292925,0.02321288,0.25167647,0.3323107
484,4.84,-0.0012202862,0.5872018,0.77292925,0.02321288,0.25167647,0.3323107
485,4.85,0.005206554269956851,0.5883359404622689,0.7761111749116615,0.02321288,0.25167647,0.3323107
486,4.86,0.048567392,0.5959878,0.7975791,0.02321288,0.25167647,0.3323107
487,4.87,0.048567392,0.5959878,0.7975791,0.02321288,0.25167647,0.3323107
488,4.88,0.048567392,0.5959878,0.7975791,0.022744623410616994,0.276962299764135,0.3051518392790599
489,4.89,0.048567392,0.5959878,0.7975791,0.022602014,0.2846632,0.2968805
490,4.9,0.048567392,0.5959878,0.7975791,0.022602014,0.2846632,0.2968805
491,4.91,0.048567392,0.5959878,0.7975791,0.022602014,0.2846632,0.2968805
492,4.92,0.048567392,0.5959878,0.7975791,0.022602014,0.2846632,0.2968805
493,4.93,0.048567392,0.5959878,0.7975791,0.022602014,0.2846632,0.2968805
494,4.94,0.048567392,0.5959878,0.7975791,0.022602014,0.2846632,0.2968805
495,4.95,0.04420431550707832,0.5792172201213495,0.7919889011204707,0.022602014,0.2846632,0.2968805
496,4.96,0.04075756,0.56596875,0.78757274,0.022602014,0.2846632,0.2968805
497,4.97,0.04075756,0.56596875,0.78757274,0.022602014,0.2846632,0.2968805
498,4.98,0.04075756,0.56596875,0.78757274,0.022602014,0.2846632,0.2968805
499,4.99,0.04075756,0.56596875,0.78757274,0.022602014,0.2846632,0.2968805
500,5.0,0.04075756,0.56596875,0.78757274,0.022602014,0.2846632,0.2968805
501,5.01,0.04075756,0.56596875,0.78757274,0.01816371022344432,0.27203110102465167,0.31497512463673694
502,5.02,0.04075756,0.56596875,0.78757274,0.004883723763571824,0.164523547046763,0.20774169383758004
503,5.03,0.04075756,0.56596875,0.78757274,-0.010995574,0.0061086523,0.01038471
504,5.04,0.04122790623703524,0.5673501269895616,0.7876193514131291,-0.010825879268735076,0.006925308209078766,0.010692281694449442
505,5.05,0.06331549528470307,0.6322199715059375,0.789808236232568,-0.002856967874099631,0.04527569499388848,0.025135933316956377
506,5.06,0.067847915,0.6455314,0.7902574,-0.008037687503502373,0.015231513448858217,0.013615891975288456
507,5.07,0.02703163461767771,0.6110530885301108,0.786327869184076,-0.010995574,-0.0012217305,0.007330383
508,5.08,-0.010738519,0.5791479,0.7826916,-0.010995574,-0.0012217305,0.007330383
509,5.09,-0.010738519,0.5791479,0.7826916,-0.010995574,-0.0012217305,0.007330383
510,5.1,-0.010738519,0.5791479,0.7826916,-0.010995574,-0.0012217305,0.007330383
511,5.11,-0.010738519,0.5791479,0.7826916,-0.022113569082793615,-0.1359718233757714,-0.23237358885922313
512,5.12,-0.010738519,0.5791479,0.7826916,-0.026267206,-0.1863139,-0.321926
513,5.13,-0.010738519,0.5791479,0.7826916,-0.026267206,-0.1863139,-0.321926
514,5.14,-0.010738519,0.5791479,0.7826916,-0.04118131016396658,-0.07857911356896664,-0.2251805469528845
515,5.15,-0.010738519,0.5791479,0.7826916,-0.07269296,0.14905111,-0.02076942
516,5.16,-0.010738519,0.5791479,0.7826916,-0.07269296,0.14905111,-0.02076942
517,5.17,-0.010738519,0.5791479,0.7826916,-0.07269296,0.14905111,-0.02076942
518,5.18,-0.010738519,0.5791479,0.7826916,-0.07269296,0.14905111,-0.02076942
519,5.19,-0.010738519,0.5791479,0.7826916,-0.07269296,0.14905111,-0.02076942
520,5.2,-0.010738519,0.5791479,0.7826916,-0.07269296,0.14905111,-0.02076942
521,5.21,-0.010738519,0.5791479,0.7826916,-0.07269296,0.14905111,-0.02076942
522,5.22,-0.010738519,0.5791479,0.7826916,-0.07269296,0.14905111,-0.02076942
523,5.23,-0.010738519,0.5791479,0.7826916,-0.07269296,0.14905111,-0.02076942
524,5.24,-0.010738519,0.5791479,0.7826916,-0.028490908428934314,0.2044109671080293,0.06591810480820463
525,5.25,-0.010738519,0.5791479,0.7826916,-0.009773844,0.22785273,0.10262536
526,5.26,-0.010738519,0.5791479,0.7826916,-0.009773844,0.22785273,0.10262536
527,5.27,0.004030300614583852,0.5732625737846926,0.7913530149877978,-0.009773844,0.22785273,0.10262536
528,5.28,0.05261073481960502,0.555566063789689,0.8187225441376416,-0.009773844,0.22785273,0.10262536
529,5.29,0.020755045846406067,0.6019962370072207,0.7772892871739976,-0.009773844,0.22785273,0.10262536
530,5.3,0.016839951,0.60770255,0.7721971,-0.009773844,0.22785273,0.10262536
531,5.31,0.016839951,0.60770255,0.7721971,-0.009773844,0.22785273,0.10262536
532,5.32,0.016839951,0.60770255,0.7721971,-0.04722758716620114,0.23338937051666755,0.1091390569208276
533,5.33,0.016839951,0.60770255,0.7721971,-0.08002335,0.23823744,0.11484267
534,5.34,0.016839951,0.60770255,0.7721971,-0.08002335,0.23823744,0.11484267
535,5.35,0.016839951,0.60770255,0.7721971,-0.08002335,0.23823744,0.11484267
536,5.36,0.016839951,0.60770255,0.7721971,-0.013848126432811855,0.1875031060243008,0.1055781391339149
537,5.37,-0.0013062526194191485,0.6059743619931781,0.7926475834066408,0.01160644,0.16798794,0.1020145
538,5.38,-0.013911263,0.6047739,0.80685323,0.01160644,0.16798794,0.1020145
539,5.39,-0.013911263,0.6047739,0.80685323,0.008092264309583293,0.11049602754015075,0.05661135129296314
540,5.4,-0.013911263,0.6047739,0.80685323,-0.005514099227366055,-0.07998062436094286,-0.09352530633420154
541,5.41,-0.013911263,0.6047739,0.80685323,-0.08232551619527756,-0.0020718995425184354,-0.02000580986409455
542,5.42,-0.013911263,0.6047739,0.80685323,-0.089186326,0.004886922,-0.013439035
543,5.43,-0.01863855630845962,0.6135896351823817,0.8057033612851768,-0.089186326,0.004886922,-0.013439035
544,5.44,-0.022941383,0.6216138,0.80465674,-0.089186326,0.004886922,-0.013439035
545,5.45,-0.022941383,0.6216138,0.80465674,-0.05602470687644424,-0.024141795313704164,-0.02347608275877006
546,5.46,-0.022941383,0.6216138,0.80465674,0.116675265,-0.17531833,-0.07574729
547,5.47,-0.022941383,0.6216138,0.80465674,0.116675265,-0.17531833,-0.07574729
548,5.48,-0.022941383,0.6216138,0.80465674,0.052735503377301485,-0.09828510167734104,-0.031665954563169244
549,5.49,-0.03728745175811154,0.6097993944711338,0.8071234809717502,-0.062308256,0.040317107,0.047647487
550,5.5,-0.07687803,0.5771954,0.8139309,-0.054232281768251255,0.03150322673888268,0.03317632568161396
551,5.51,-0.07687803,0.5771954,0.8139309,0.056391790812153605,-0.0892286257585851,-0.1650485267101253
552,5.52,-0.07687803,0.5771954,0.8139309,0.0580322,-0.09101892,-0.16798794
553,5.53,-0.07687803,0.5771954,0.8139309,0.09715165899009333,-0.10762623738180462,-0.13182089191485763
554,5.54,-0.05320481170639206,0.5959741303856906,0.808137462337688,0.122783914,-0.118507855,-0.108123146
555,5.55,-0.019036464,0.6230781,0.7997756,0.122783914,-0.118507855,-0.108123146
556,5.56,-0.019036464,0.6230781,0.7997756,0.122783914,-0.118507855,-0.108123146
557,5.57,-0.019036464,0.6230781,0.7997756,0.122783914,-0.118507855,-0.108123146
558,5.58,0.002959713851459037,0.6182389762746144,0.7867245551199215,0.122783914,-0.118507855,-0.108123146
559,5.59,0.017572122,0.61502427,0.77805454,0.122783914,-0.118507855,-0.108123146
560,5.6,0.014701544849180488,0.6106201036017478,0.7790376125546491,0.10428024222403079,-0.09813413171602708,-0.09011159350494004
561,5.61,0.0015937071654719517,0.5905094794146041,0.7835265897883633,0.01978743347900869,-0.005102158078645649,-0.007865935530047993
562,5.62,-0.00024405724,0.5876899,0.78415596,0.007941248,0.007941248,0.0036651916
563,5.63,-0.00024405724,0.5876899,0.78415596,0.007941248,0.007941248,0.0036651916
564,5.64,-0.00024405724,0.5876899,0.78415596,0.007941248,0.007941248,0.0036651916
565,5.65,-0.00024405724,0.5876899,0.78415596,0.007941248,0.007941248,0.0036651916
566,5.66,-0.00024405724,0.5876899,0.78415596,0.007941248,0.007941248,0.0036651916
567,5.67,-0.00024405724,0.5876899,0.78415596,0.007941248,0.007941248,0.0036651916
568,5.68,-0.01156817315857127,0.5852093646296359,0.7891169865507994,0.007941248,0.007941248,0.0036651916
569,5.69,-0.021205036133429576,0.5851401523043344,0.7930848547056115,0.007941248,0.007941248,0.0036651916
570,5.7,0.019157031745501627,0.6116465787765075,0.7732050039970964,0.007941248,0.007941248,0.0036651916
571,5.71,-0.019262778352978578,0.5855771411201178,0.7788901331710137,0.007941248,0.007941248,0.0036651916
572,5.72,-0.034900185,0.5749989,0.7817154,0.17604874912207152,-0.2825458908789871,-0.19701108070922332
573,5.73,-0.034900185,0.5749989,0.7817154,0.2798203253748645,-0.48454650915992864,-0.32229323527919385
574,5.74,-0.034900185,0.5749989,0.7817154,0.21624629,-0.41050145,-0.24862215
575,5.75,-0.034900185,0.5749989,0.7817154,0.21624629,-0.41050145,-0.24862215
576,5.76,-0.034900185,0.5749989,0.7817154,0.21624629,-0.41050145,-0.24862215
577,5.77,-0.034900185,0.5749989,0.7817154,0.21624629,-0.41050145,-0.24862215
578,5.78,-0.034900185,0.5749989,0.7817154,0.2662637075411857,-0.4888181883736656,-0.31805420779512655
579,5.79,-0.034900185,0.5749989,0.7817154,0.20825475567718363,-0.3689587749620337,-0.23916294844606067
580,5.8,-0.034900185,0.5749989,0.7817154,0.008552114,0.0012217305,0.03481932
581,5.81,-0.034900185,0.5749989,0.7817154,0.008552114,0.0012217305,0.03481932
582,5.82,0.004592361587891724,0.6032991802099776,0.7903493777967832,0.008552114,0.0012217305,0.03481932
583,5.83,0.025381953,0.61819696,0.79489446,0.008552114,0.0012217305,0.03481932
584,5.84,0.025381953,0.61819696,0.79489446,0.008552114,0.0012217305,0.03481932
585,5.85,0.025381953,0.61819696,0.79489446,0.009003834296362676,-0.020751236378256314,0.021138647684378564
586,5.86,0.025381953,0.61819696,0.79489446,0.015767067843575833,-0.34973425511672,-0.18369071840448645
587,5.87,0.025381953,0.61819696,0.79489446,0.017104227,-0.4147775,-0.22418754
588,5.88,0.025381953,0.61819696,0.79489446,0.017104227,-0.4147775,-0.22418754
589,5.89,0.04282788492101172,0.6290624207445726,0.7886965752575383,0.005613056924197789,-0.3686213081119503,-0.22303842659791911
590,5.9,0.08102701,0.65285313,0.77512586,-0.01622662930907697,-0.24049590177646502,-0.18971423969679024
591,5.91,0.08102701,0.65285313,0.77512586,0.007841256777676324,-0.04436821304307991,0.03355381998286606
592,5.92,0.08102701,0.65285313,0.77512586,0.009162978,-0.03359759,0.045814894
593,5.93,0.08102701,0.65285313,0.77512586,0.009162978,-0.03359759,0.045814894
594,5.94,0.08102701,0.65285313,0.77512586,0.009162978,-0.03359759,0.045814894
595,5.95,0.08102701,0.65285313,0.77512586,0.009162978,-0.03359759,0.045814894
596,5.96,0.08102701,0.65285313,0.77512586,0.009162978,-0.03359759,0.045814894
597,5.97,0.08102701,0.65285313,0.77512586,0.009162978,-0.03359759,0.045814894
598,5.98,0.08102701,0.65285313,0.77512586,0.009162978,-0.03359759,0.045814894
599,5.99,0.08102701,0.65285313,0.77512586,0.009162978,-0.03359759,0.045814894
600,6.0,0.08102701,0.65285313,0.77512586,-0.008095784835927416,-0.09260612638448106,-0.009741885404449167
601,6.01,0.08011272708595803,0.6523451943154762,0.7761755912968108,-0.05497787,-0.25289822,-0.16065755
602,6.02,0.06894901288321566,0.6461431219281352,0.7889931776339124,-0.05497787,-0.25289822,-0.16065755
603,6.03,0.067847915,0.6455314,0.7902574,-0.05497787,-0.25289822,-0.16065755
604,6.04,0.067847915,0.6455314,0.7902574,-0.05091568312080176,-0.08350495345661908,-0.052603341906923944
605,6.05,0.067847915,0.6455314,0.7902574,-0.04886922,0.0018325958,0.0018325958
606,6.06,0.06854485374011139,0.6307795311908229,0.7676068968956161,-0.04886922,0.0018325958,0.0018325958
607,6.07,0.0607322377335972,0.6150408265947215,0.751666801452619,-0.04886922,0.0018325958,0.0018325958
608,6.08,0.044418417,0.6160005,0.7687803,-0.03890686811648225,-0.060747810136317804,-0.058222142212839924
609,6.09,0.044418417,0.6160005,0.7687803,-0.011824745764284291,-0.2616980408860328,-0.2655132965496446
610,6.1,0.044418417,0.6160005,0.7687803,-0.054603479310096,-0.20141892285523685,-0.3053753073058841
611,6.11,0.044418417,0.6160005,0.7687803,-0.059253927,-0.19486602,-0.30970868
612,6.12,0.044418417,0.6160005,0.7687803,-0.059253927,-0.19486602,-0.30970868
613,6.13,0.044418417,0.6160005,0.7687803,-0.059253927,-0.19486602,-0.30970868
614,6.14,0.044418417,0.6160005,0.7687803,-0.059253927,-0.19486602,-0.30970868
615,6.15,0.04613587666908085,0.615875593707322,0.7641900081381929,-0.05409544988184576,-0.1693081090192639,-0.26914429046740435
616,6.16,0.057804186828246625,0.6150269884154277,0.733003861453698,-0.01904908923234287,0.004330688858987363,0.00644755428133112
617,6.17,0.057841565,0.61502427,0.73290396,-0.11778802880168109,-0.08475755433647414,-0.15887532040738392
618,6.18,0.057841565,0.61502427,0.73290396,-0.14355333,-0.108123146,-0.20219639
619,6.19,0.057841565,0.61502427,0.73290396,-0.14355333,-0.108123146,-0.20219639
620,6.2,0.057841565,0.61502427,0.73290396,-0.14355333,-0.108123146,-0.20219639
621,6.21,0.056250592291061566,0.614280439042308,0.7354557138652441,-0.14355333,-0.108123146,-0.20219639
622,6.22,0.02798513085787849,0.6010654259064265,0.7807905584290815,-0.14355333,-0.108123146,-0.20219639
623,6.23,0.020256752,0.59745216,0.79318607,-0.14355333,-0.108123146,-0.20219639
624,6.24,0.020256752,0.59745216,0.79318607,-0.14355333,-0.108123146,-0.20219639
625,6.25,0.020256752,0.59745216,0.79318607,-0.14355333,-0.108123146,-0.20219639
626,6.26,0.020256752,0.59745216,0.79318607,-0.14355333,-0.108123146,-0.20219639
627,6.27,0.020256752,0.59745216,0.79318607,-0.14355333,-0.108123146,-0.20219639
628,6.28,0.020256752,0.59745216,0.79318607,-0.14355333,-0.108123146,-0.20219639
629,6.29,0.031897957297471365,0.5904355158264172,0.7914318893544113,-0.14355333,-0.108123146,-0.20219639
630,6.3,0.03942767978165097,0.588858639299163,0.7906143155518447,-0.14355333,-0.108123146,-0.20219639
631,6.31,0.041001618,0.59135073,0.7907455,-0.14355333,-0.108123146,-0.20219639
632,6.32,0.041001618,0.59135073,0.7907455,-0.14355333,-0.108123146,-0.20219639
633,6.33,0.041001618,0.59135073,0.7907455,-0.14355333,-0.108123146,-0.20219639
634,6.34,0.041001618,0.59135073,0.7907455,-0.14355333,-0.108123146,-0.20219639
635,6.35,0.041395670250666546,0.5914820667570423,0.806770360416607,-0.14355333,-0.108123146,-0.20219639
636,6.36,0.041733786,0.59159476,0.82052046,-0.08356757848307228,-0.0663508903910501,-0.13666740296527125
637,6.37,0.041733786,0.59159476,0.82052046,0.04153884,0.02076942,0.0
638,6.38,0.041733786,0.59159476,0.82052046,0.04153884,0.02076942,0.0
639,6.39,0.041733786,0.59159476,0.82052046,0.04153884,0.02076942,0.0
640,6.4,0.041733786,0.59159476,0.82052046,0.04153884,0.02076942,0.0
641,6.41,0.041733786,0.59159476,0.82052046,0.04153884,0.02076942,0.0
642,6.42,0.041733786,0.59159476,0.82052046,0.04153884,0.02076942,0.0
643,6.43,0.04173509766084314,0.5915937763155011,0.8204952106826109,0.04153884,0.02076942,0.0
644,6.44,0.04251302530806197,0.5910103668374884,0.8055201947148014,0.04153884,0.02076942,0.0
645,6.45,0.04271002,0.59086263,0.80172807,0.04153884,0.02076942,0.0
646,6.46,0.04271002,0.59086263,0.80172807,0.006946087354231111,-0.019477915176186644,-0.00266098084709516
647,6.47,0.04271002,0.59086263,0.80172807,-0.021991149,-0.053145275,-0.004886922
648,6.48,0.04271002,0.59086263,0.80172807,-0.021991149,-0.053145275,-0.004886922
649,6.49,0.03994007098215242,0.5947405328992647,0.7954495032556753,-0.021991149,-0.053145275,-0.004886922
650,6.5,0.03904916,0.5959878,0.7934301,-0.021991149,-0.053145275,-0.004886922
651,6.51,0.03904916,0.5959878,0.7934301,-0.0269416122880767,-0.027492876200730727,-0.008037216518296067
652,6.52,0.03904916,0.5959878,0.7934301,-0.035430185,0.016493361,-0.013439035
653,6.53,0.03904916,0.5959878,0.7934301,-0.035430185,0.016493361,-0.013439035
654,6.54,0.0660143124744383,0.5931060288168051,0.7987819728175379,-0.035430185,0.016493361,-0.013439035
655,6.55,0.071020655,0.592571,0.7997756,-0.035430185,0.016493361,-0.013439035
656,6.56,0.071020655,0.592571,0.7997756,-0.035430185,0.016493361,-0.013439035
657,6.57,0.071020655,0.592571,0.7997756,-0.035430185,0.016493361,-0.013439035
658,6.58,0.071020655,0.592571,0.7997756,-0.035430185,0.016493361,-0.013439035
659,6.59,0.071020655,0.592571,0.7997756,-0.035430185,0.016493361,-0.013439035
660,6.6,0.071020655,0.592571,0.7997756,-0.035430185,0.016493361,-0.013439035
661,6.61,0.071020655,0.592571,0.7997756,-0.035430185,0.016493361,-0.013439035
662,6.62,0.071020655,0.592571,0.7997756,-0.035430185,0.016493361,-0.013439035
663,6.63,0.071020655,0.592571,0.7997756,-0.028482647907015164,0.022944645656251223,0.013854859852036919
664,6.64,0.06821138581900754,0.5930091425936367,0.7993245707041935,-0.009773844,0.040317107,0.08735373
665,6.65,0.02577423710650035,0.599627775841476,0.7925112694266423,-0.009773844,0.040317107,0.08735373
666,6.66,0.017816179,0.60086894,0.7912336,-0.009773844,0.040317107,0.08735373
667,6.67,0.017816179,0.60086894,0.7912336,-0.009773844,0.040317107,0.08735373
668,6.68,0.017816179,0.60086894,0.7912336,-0.006618803682902204,0.03190366581008113,0.05748601525638442
669,6.69,0.017816179,0.60086894,0.7912336,-0.00061086525,0.015882496,0.00061086525
670,6.7,0.017816179,0.60086894,0.7912336,-0.00061086525,0.015882496,0.00061086525
671,6.71,0.017816179,0.60086894,0.7912336,-0.00061086525,0.015882496,0.00061086525
672,6.72,0.017816179,0.60086894,0.7912336,-0.00061086525,0.015882496,0.00061086525
673,6.73,0.017816179,0.60086894,0.7912336,-0.00061086525,0.015882496,0.00061086525
674,6.74,0.017816179,0.60086894,0.7912336,0.003528240384827629,0.06141265887990203,0.0032891100725355245
675,6.75,0.017816179,0.60086894,0.7912336,0.009773844,0.1301143,0.007330383
676,6.76,0.017816179,0.60086894,0.7912336,0.009773844,0.1301143,0.007330383
677,6.77,0.017816179,0.60086894,0.7912336,0.009773844,0.1301143,0.007330383
678,6.78,0.017816179,0.60086894,0.7912336,0.009821111616882488,0.13033882118502793,0.009085193254999777
679,6.79,0.017816179,0.60086894,0.7912336,0.014083554740382647,0.15058542645776085,0.16732839225246107
680,6.8,0.017816179,0.60086894,0.7912336,0.014660766,0.15332718,0.18875736
681,6.81,0.017816179,0.60086894,0.7912336,0.014660766,0.15332718,0.18875736
682,6.82,0.017816179,0.60086894,0.7912336,0.04158847150425547,0.15013236481057096,0.2029058144593584
683,6.83,0.024251680350157456,0.5995638419587997,0.7936637837040116,0.08674286,0.14477506,0.226631
684,6.84,0.04833531555776405,0.5945823189695891,0.8023134116923339,0.07547267882807723,0.126118340583551,0.19959779451337806
685,6.85,0.021190290309939637,0.5994834824890705,0.7893064426822095,0.005642494039377098,0.01052107160200033,0.03209971211656671
686,6.86,0.017572122,0.60013676,0.78757274,-0.0036651916,-0.004886922,0.009773844
687,6.87,0.017572122,0.60013676,0.78757274,-0.0036651916,-0.004886922,0.009773844
688,6.88,0.017572122,0.60013676,0.78757274,-0.0036651916,-0.004886922,0.009773844
689,6.89,0.017572122,0.60013676,0.78757274,-0.0036651916,-0.004886922,0.009773844
690,6.9,0.017572122,0.60013676,0.78757274,-0.0036651916,-0.004886922,0.009773844
691,6.91,0.017572122,0.60013676,0.78757274,-0.0036651916,-0.004886922,0.009773844
692,6.92,0.017572122,0.60013676,0.78757274,-0.0036651916,-0.004886922,0.009773844
693,6.93,0.050696263797037316,0.6112843028263046,0.761774152073643,-0.0036651916,-0.004886922,0.009773844
694,6.94,0.06833603,0.61722076,0.7480355,0.05393609299832937,0.05941218587069706,0.10916954612666369
695,6.95,0.0705949051201015,0.6174962333464559,0.7561343879420377,0.12767084,0.14172074,0.23640485
696,6.96,0.07808467488068382,0.6184096224584839,0.7829879335244485,0.12767084,0.14172074,0.23640485
697,6.97,0.07834238,0.61844105,0.7839119,0.12767084,0.14172074,0.23640485
698,6.98,0.07834238,0.61844105,0.7839119,0.039980125930066536,0.148571574101545,0.19495728966693726
699,6.99,0.07834238,0.61844105,0.7839119,-0.028710667,0.15393804,0.16249016
700,7.0,0.07848529268625207,0.6190484280016139,0.7799103198981009,-0.028710667,0.15393804,0.16249016
701,7.01,0.0792536803950045,0.6223140708444301,0.7583953302458569,-0.028710667,0.15393804,0.16249016
702,7.02,0.079318605,0.62259,0.75657743,-0.028710667,0.15393804,0.16249016
703,7.03,0.079318605,0.62259,0.75657743,-0.028710667,0.15393804,0.16249016
704,7.04,0.079318605,0.62259,0.75657743,0.0144866311974084,0.1572210347229693,0.16784662135247952
705,7.05,0.079318605,0.62259,0.75657743,0.124005646,0.16554448,0.18142697
706,7.06,0.079318605,0.62259,0.75657743,0.124005646,0.16554448,0.18142697
707,7.07,0.079318605,0.62259,0.75657743,0.124005646,0.16554448,0.18142697
708,7.08,0.079318605,0.62259,0.75657743,0.124005646,0.16554448,0.18142697
709,7.09,0.061193250910043795,0.6316008988575688,0.7700419909747348,0.06463966385262519,0.16839612202380305,0.1733905323983895
710,7.1,0.04325422917194274,0.635142987201788,0.7816592621623238,-0.015882496,0.172264,0.16249016
711,7.11,0.0605262,0.6125837,0.7643873,-0.015882496,0.172264,0.16249016
712,7.12,0.0605262,0.6125837,0.7643873,-0.015882496,0.172264,0.16249016
713,7.13,0.0605262,0.6125837,0.7643873,-0.015882496,0.172264,0.16249016
714,7.14,0.0605262,0.6125837,0.7643873,-0.015882496,0.172264,0.16249016
715,7.15,0.0605262,0.6125837,0.7643873,-0.021079821983772763,0.1697931403370137,0.14911343449595713
716,7.16,0.0605262,0.6125837,0.7643873,-0.05038135051089413,0.15586290676545098,0.07369801795676602
717,7.17,0.06988867973285506,0.6099677048440187,0.7803586130151569,-0.053145275,0.15454891,0.06658431
718,7.18,0.07519209506994577,0.609983809579238,0.7828871826385108,-0.053145275,0.15454891,0.06658431
719,7.19,0.06876482675148574,0.6167681416541373,0.7502152179791531,-0.053145275,0.15454891,0.06658431
720,7.2,0.06833603,0.61722076,0.7480355,-0.053145275,0.15454891,0.06658431
721,7.21,0.06833603,0.61722076,0.7480355,-0.061157814363216816,0.16292564960026643,0.09317137386882564
722,7.22,0.06054238659352998,0.6117888434312937,0.7461461156267285,-0.06658431,0.1685988,0.111177474
723,7.23,0.05222825,0.60599416,0.74413055,-0.040828846228640525,0.11835453620762737,0.07951091963887169
724,7.24,0.05222825,0.60599416,0.74413055,0.008656219540963664,0.02321288,0.01613171273701796
725,7.25,0.05222825,0.60599416,0.74413055,0.013040467393509012,0.02321288,-0.004815249978296829
726,7.26,0.06919612175023478,0.5971245705657255,0.7900209454981238,0.013439035,0.02321288,-0.0067195175
727,7.27,0.07370529,0.5947675,0.8022162,0.013439035,0.02321288,-0.0067195175
728,7.28,0.07370529,0.5947675,0.8022162,0.013439035,0.02321288,-0.0067195175
729,7.29,0.07370529,0.5947675,0.8022162,-0.012238516659421952,0.0738612639070855,0.021549346703362705
730,7.3,0.07370529,0.5947675,0.8022162,-0.053145275,0.15454891,0.06658431
731,7.31,0.07370529,0.5947675,0.8022162,-0.053145275,0.15454891,0.06658431
732,7.32,0.07370529,0.5947675,0.8022162,-0.053145275,0.15454891,0.06658431
733,7.33,0.07370529,0.5947675,0.8022162,-0.019498839114099914,0.23416299795985304,0.3106394427190913
734,7.34,0.07370529,0.5947675,0.8022162,-0.009773844,0.25717425,0.3811799
735,7.35,0.07370529,0.5947675,0.8022162,-0.012240863681720166,0.17237045841107929,0.20756339784987032
736,7.36,0.07370529,0.5947675,0.8022162,-0.014660766,0.089186326,0.03726278
737,7.37,0.06793663294522721,0.6021843506536334,0.7996752402382221,-0.014660766,0.089186326,0.03726278
738,7.38,0.05352602190474555,0.6203218542970852,0.7927037597550983,-0.014660766,0.089186326,0.03726278
739,7.39,0.05653237854154712,0.6126976044849525,0.7881136257354174,-0.014660766,0.089186326,0.03726278
740,7.4,0.049299859672826574,0.6219642279013493,0.7924079740402731,-0.014660766,0.089186326,0.03726278
741,7.41,0.04881145,0.62259,0.79269797,-0.014660766,0.089186326,0.03726278
742,7.42,0.04881145,0.62259,0.79269797,-0.014660766,0.089186326,0.03726278
743,7.43,0.04881145,0.62259,0.79269797,-0.014660766,0.089186326,0.03726278
744,7.44,0.04881145,0.62259,0.79269797,-0.00872201967933972,0.0748558726140567,0.029774795438897026
745,7.45,0.04881145,0.62259,0.79269797,0.013439035,0.021380283,0.0018325958
746,7.46,0.04881145,0.62259,0.79269797,0.013439035,0.021380283,0.0018325958
747,7.47,0.04881145,0.62259,0.79269797,0.013439035,0.021380283,0.0018325958
748,7.48,0.04881145,0.62259,0.79269797,0.013439035,0.021380283,0.0018325958
749,7.49,0.04881145,0.62259,0.79269797,0.013439035,0.021380283,0.0018325958
750,7.5,0.04881145,0.62259,0.79269797,0.013439035,0.021380283,0.0018325958
751,7.51,0.049098924995437436,0.6146365590235129,0.7906856375719183,0.02591100787074935,0.039368705553196555,-0.023830882885889866
752,7.52,0.044207583454862746,0.6012778197824248,0.7884523072484168,0.04520403,0.06719518,-0.06352998
753,7.53,0.027334413,0.59794027,0.7912336,0.04520403,0.06719518,-0.06352998
754,7.54,0.027334413,0.59794027,0.7912336,0.04520403,0.06719518,-0.06352998
755,7.55,0.027334413,0.59794027,0.7912336,0.026289821239116273,0.027685498835069964,-0.043775144922064683
756,7.56,0.027334413,0.59794027,0.7912336,0.017715093,0.009773844,-0.03481932
757,7.57,0.027334413,0.59794027,0.7912336,0.017715093,0.009773844,-0.03481932
758,7.58,0.027334413,0.59794027,0.7912336,0.017715093,0.009773844,-0.03481932
759,7.59,0.027334413,0.59794027,0.7912336,0.017540277131601438,0.00962400186271311,-0.03496916206778667
760,7.6,0.027334413,0.59794027,0.7912336,0.0135754952822709,0.006225618228422616,-0.038367544125828865
761,7.61,0.027334413,0.59794027,0.7912336,0.013439035,0.0061086523,-0.03848451
762,7.62,0.027334413,0.59794027,0.7912336,0.013439035,0.0061086523,-0.03848451
763,7.63,0.027334413,0.59794027,0.7912336,0.008518691239168453,-0.006915787181178046,-0.013882790722035642
764,7.64,0.027334413,0.59794027,0.7912336,0.0030543262,-0.021380283,0.013439035
765,7.65,0.027334413,0.59794027,0.7912336,0.0030543262,-0.021380283,0.013439035
766,7.66,0.027334413,0.59794027,0.7912336,0.0030543262,-0.021380283,0.013439035
767,7.67,-0.009554020903228181,0.6008822791036115,0.7758445536952009,0.0602650805272341,-0.023646055538577036,-0.06303078840879492
768,7.68,-0.012446919,0.601113,0.7746377,0.01969346788864102,0.005914698592821457,-0.03883874689844977
769,7.69,-0.002460255080187502,0.6014250739966835,0.7858726835630472,0.0036651916,0.016493361,-0.028099801
770,7.7,0.003172744,0.6016011,0.7922098,0.0036651916,0.016493361,-0.028099801
771,7.71,0.003172744,0.6016011,0.7922098,0.0036651916,0.016493361,-0.028099801
772,7.72,0.003172744,0.6016011,0.7922098,0.0036651916,0.016493361,-0.028099801
773,7.73,0.003172744,0.6016011,0.7922098,0.0036651916,0.016493361,-0.028099801
774,7.74,-0.007924218183164649,0.6021055268495948,0.7664850227147265,-0.03799767026568143,0.11581088036856846,0.010196363269142859
775,7.75,-0.012935034,0.6023333,0.75486904,-0.05530959840370948,0.06190032525168181,-0.07817229366873171
776,7.76,-0.012935034,0.6023333,0.75486904,-0.05375614,-0.040317107,-0.18753563
777,7.77,-0.012935034,0.6023333,0.75486904,-0.05375614,-0.040317107,-0.18753563
778,7.78,-0.012935034,0.6023333,0.75486904,-0.05375614,-0.040317107,-0.18753563
779,7.79,-0.012935034,0.6023333,0.75486904,-0.05375614,-0.040317107,-0.18753563
780,7.8,-0.012935034,0.6023333,0.75486904,-0.05375614,-0.040317107,-0.18753563
781,7.81,-0.012935034,0.6023333,0.75486904,-0.057435798473101526,-0.031177308771600527,-0.15168862967700564
782,7.82,-0.012935034,0.6023333,0.75486904,-0.07425803923421291,0.003952681180481265,-0.005373997050826487
783,7.83,-0.012935034,0.6023333,0.75486904,-0.10162939742580332,-0.0444359666933979,-0.04594225733861563
784,7.84,-0.012935034,0.6023333,0.75486904,-0.106901415,-0.05375614,-0.05375614
785,7.85,-0.012935034,0.6023333,0.75486904,-0.106901415,-0.05375614,-0.05375614
786,7.86,-0.012935034,0.6023333,0.75486904,-0.106901415,-0.05375614,-0.05375614
787,7.87,-0.012935034,0.6023333,0.75486904,-0.09119669627170139,-0.042572476478449674,-0.04721250721277266
788,7.88,-0.012935034,0.6023333,0.75486904,-0.026935935233219768,0.003188975319992516,-0.020437190179817124
789,7.89,-0.012935034,0.6023333,0.75486904,-0.026267206,0.0036651916,-0.020158553
790,7.9,-0.017940884905282593,0.60490771965924,0.7919123545143331,-0.026267206,0.0036651916,-0.020158553
791,7.91,-0.021477038,0.6067263,0.8180799,0.051890272125659796,-0.013568289538933695,0.005327581257790452
792,7.92,-0.021477038,0.6067263,0.8180799,0.13447331373982285,-0.030859409327232634,0.035848920192967745
793,7.93,-0.021477038,0.6067263,0.8180799,0.016493361,-0.0018325958,0.009162978
794,7.94,-0.021477038,0.6067263,0.8180799,0.016493361,-0.0018325958,0.009162978
795,7.95,-0.016589861824341603,0.5875535377322454,0.7737193827667337,0.016493361,-0.0018325958,0.009162978
796,7.96,-0.01513155,0.58183247,0.7604824,0.12215246706592885,-0.027828089932746814,0.03306206196432419
797,7.97,-0.01513155,0.58183247,0.7604824,0.1704314,-0.03970624,0.043982297
798,7.98,-0.01513155,0.58183247,0.7604824,0.1704314,-0.03970624,0.043982297
799,7.99,-0.01513155,0.58183247,0.7604824,0.1704314,-0.03970624,0.043982297
800,8.0,-0.01513155,0.58183247,0.7604824,0.1704314,-0.03970624,0.043982297
801,8.01,-0.01513155,0.58183247,0.7604824,0.1704314,-0.03970624,0.043982297
802,8.02,-0.01513155,0.58183247,0.7604824,0.1704314,-0.03970624,0.043982297
803,8.03,-0.01513155,0.58183247,0.7604824,0.1704314,-0.03970624,0.043982297
804,8.04,-0.01513155,0.58183247,0.7604824,0.1572701466214247,-0.05055538166577436,0.04125519038200148
805,8.05,-0.01513155,0.58183247,0.7604824,0.04693528287367309,-0.14150709675256695,0.018393010886827207
806,8.06,-0.01513155,0.58183247,0.7604824,0.03481932,-0.15149458,0.015882496
807,8.07,0.005677340213082025,0.5987208313238628,0.7484192627028482,0.03481932,-0.15149458,0.015882496
808,8.08,0.01854835,0.60916686,0.7409578,0.03481932,-0.15149458,0.015882496
809,8.09,0.01854835,0.60916686,0.7409578,0.03481932,-0.15149458,0.015882496
810,8.1,0.017773318387112984,0.614902099905521,0.7394077397381338,0.008437045374782173,-0.14270048775256838,-0.035330154518908814
811,8.11,0.013912872194523895,0.633388535062834,0.7334154301733679,-0.08979719,-0.10995574,-0.22602014
812,8.12,0.002901634456286545,0.600978102437006,0.730922308839358,-0.08979719,-0.10995574,-0.22602014
813,8.13,0.0019524579,0.5981843,0.7307074,-0.08979719,-0.10995574,-0.22602014
814,8.14,0.0019524579,0.5981843,0.7307074,-0.08979719,-0.10995574,-0.22602014
815,8.15,0.0019524579,0.5981843,0.7307074,-0.08979719,-0.10995574,-0.22602014
816,8.16,0.0019524579,0.5981843,0.7307074,-0.08081853325110534,-0.1282074394467575,-0.16508302251141674
817,8.17,0.0019524579,0.5981843,0.7307074,-0.0549944359355581,-0.1737658782206034,0.027321680880529418
818,8.18,0.0019524579,0.5981843,0.7307074,-0.08577924844362496,-0.024383820864371082,0.03287304285616009
819,8.19,0.0019524579,0.5981843,0.7307074,-0.08979719,-0.004886922,0.03359759
820,8.2,0.0019524579,0.5981843,0.7307074,-0.08979719,-0.004886922,0.03359759
821,8.21,0.0019524579,0.5981843,0.7307074,-0.08979719,-0.004886922,0.03359759
822,8.22,0.0019524579,0.5981843,0.7307074,-0.08979719,-0.004886922,0.03359759
823,8.23,0.0019524579,0.5981843,0.7307074,-0.08979719,-0.004886922,0.03359759
824,8.24,0.0019524579,0.5981843,0.7307074,-0.08979719,-0.004886922,0.03359759
825,8.25,0.016034994509986203,0.6052837640964626,0.7693470827771001,-0.04988828866084905,-0.0010999459142234393,0.019906214238357096
826,8.26,0.031483386,0.6130718,0.8117344,-0.0061086523,0.0030543262,0.004886922
827,8.27,0.028122579761714186,0.6136217462832748,0.7924861473872097,-0.0061086523,0.0030543262,0.004886922
828,8.28,0.018060237,0.6152683,0.73485637,-0.0061086523,0.0030543262,0.004886922
829,8.29,0.018060237,0.6152683,0.73485637,-0.0061086523,0.0030543262,0.004886922
830,8.3,0.018060237,0.6152683,0.73485637,-0.0061086523,0.0030543262,0.004886922
831,8.31,0.024150360868608476,0.6077357727048908,0.7672302013540321,-0.026566803699266797,-0.016601544094273658,-0.025599737006097842
832,8.32,0.03476345952615969,0.6077597579443533,0.8059478413771833,-0.03726278,-0.02687807,-0.04153884
833,8.33,0.041977845,0.61160743,0.82711005,-0.08037466045230209,0.017664060127733836,-0.046851203486990796
834,8.34,0.041977845,0.61160743,0.82711005,-0.16615535,0.10629055,-0.057421334
835,8.35,0.0388362043101858,0.6095988436278302,0.8239684021353177,-0.16615535,0.10629055,-0.057421334
836,8.36,0.014422604962622496,0.5939901767601916,0.7995547470320614,-0.16615535,0.10629055,-0.057421334
837,8.37,0.015423340586674177,0.5986094171240278,0.7981401206337551,-0.16615535,0.10629055,-0.057421334
838,8.38,0.018210770634906673,0.5958485153528917,0.7968553279514464,-0.16615535,0.10629055,-0.057421334
839,8.39,0.019280521,0.5937913,0.79611474,-0.16615535,0.10629055,-0.057421334
840,8.4,0.019280521,0.5937913,0.79611474,-0.08205794407680758,0.06265510527436113,-0.022248519952832568
841,8.41,0.019280521,0.5937913,0.79611474,0.028099801,0.005497787,0.023823744
842,8.42,0.019280521,0.5937913,0.79611474,0.028099801,0.005497787,0.023823744
843,8.43,0.019280521,0.5937913,0.79611474,0.028099801,0.005497787,0.023823744
844,8.44,0.019280521,0.5937913,0.79611474,0.028099801,0.005497787,0.023823744
845,8.45,0.019280521,0.5937913,0.79611474,0.028099801,0.005497787,0.023823744
846,8.46,0.019280521,0.5937913,0.79611474,0.028099801,0.005497787,0.023823744
847,8.47,0.019682983396607002,0.5954743187618887,0.7961513278858271,0.028099801,0.005497787,0.023823744
848,8.48,0.02186227050141332,0.6045876697627595,0.7963494470354604,0.028099801,0.005497787,0.023823744
849,8.49,0.030381900116813222,0.6042349698893794,0.7885292903690775,0.028099801,0.005497787,0.023823744
850,8.5,0.032459613,0.6040417,0.78659654,0.01950356950407518,0.018165917352704855,-0.005584414821546491
851,8.51,0.032459613,0.6040417,0.78659654,0.016493361,0.022602014,-0.015882496
852,8.52,0.032459613,0.6040417,0.78659654,0.016493361,0.022602014,-0.015882496
853,8.53,0.032459613,0.6040417,0.78659654,0.016493361,0.022602014,-0.015882496
854,8.54,0.032459613,0.6040417,0.78659654,0.016493361,0.022602014,-0.015882496
855,8.55,0.032459613,0.6040417,0.78659654,0.016493361,0.022602014,-0.015882496
856,8.56,0.032459613,0.6040417,0.78659654,0.016493361,0.022602014,-0.015882496
857,8.57,0.032459613,0.6040417,0.78659654,0.016493361,0.022602014,-0.015882496
858,8.58,0.032459613,0.6040417,0.78659654,0.016493361,0.022602014,-0.015882496
859,8.59,0.032459613,0.6040417,0.78659654,0.016493361,0.022602014,-0.015882496
860,8.6,0.02948849544054647,0.6050903321419794,0.7885190211208188,0.016493361,0.022602014,-0.015882496
861,8.61,0.020012695,0.60843474,0.7946504,0.016493361,0.022602014,-0.015882496
862,8.62,0.020012695,0.60843474,0.7946504,0.016493361,0.022602014,-0.015882496
863,8.63,0.020012695,0.60843474,0.7946504,0.016493361,0.022602014,-0.015882496
864,8.64,0.020012695,0.60843474,0.7946504,0.00714417571744132,0.02126641637579205,-0.014212998764764737
865,8.65,0.01986570304024447,0.6081775011719325,0.7919494239252403,-0.017715093,0.017715093,-0.009773844
866,8.66,0.01818009235353681,0.6052276492320853,0.760976341154395,-0.017715093,0.017715093,-0.009773844
867,8.67,0.018060237,0.6050179,0.758774,-0.024545682133186503,0.011372402120760195,0.0024236371084271307
868,8.68,0.018060237,0.6050179,0.758774,-0.026267206,0.009773844,0.005497787
869,8.69,0.018060237,0.6050179,0.758774,-0.026267206,0.009773844,0.005497787
870,8.7,0.018060237,0.6050179,0.758774,-0.026267206,0.009773844,0.005497787
871,8.71,0.018060237,0.6050179,0.758774,-0.026267206,0.009773844,0.005497787
872,8.72,0.018060237,0.6050179,0.758774,-0.026267206,0.009773844,0.005497787
873,8.73,0.017437284596394095,0.6079769317341125,0.7734133932899806,-0.026267206,0.009773844,0.005497787
874,8.74,0.017084008,0.609655,0.7817154,-0.026267206,0.009773844,0.005497787
875,8.75,0.017084008,0.609655,0.7817154,-0.026267206,0.009773844,0.005497787
876,8.76,0.017084008,0.609655,0.7817154,-0.026267206,0.009773844,0.005497787
877,8.77,0.017084008,0.609655,0.7817154,-0.026267206,0.009773844,0.005497787
878,8.78,0.017084008,0.609655,0.7817154,-0.026267206,0.009773844,0.005497787
879,8.79,0.017084008,0.609655,0.7817154,-0.026267206,0.009773844,0.005497787
880,8.8,0.017084008,0.609655,0.7817154,-0.026267206,0.009773844,0.005497787
881,8.81,0.017084008,0.609655,0.7817154,-0.026267206,0.009773844,0.005497787
882,8.82,0.017084008,0.609655,0.7817154,-0.02168396785016917,0.01199998816458133,-0.0003949476415724964
883,8.83,0.017084008,0.609655,0.7817154,-0.004886922,0.020158553,-0.021991149
884,8.84,0.017084008,0.609655,0.7817154,-0.004886922,0.020158553,-0.021991149
885,8.85,0.017084008,0.609655,0.7817154,-0.004886922,0.020158553,-0.021991149
886,8.86,0.017084008,0.609655,0.7817154,-0.004886922,0.020158553,-0.021991149
887,8.87,0.017084008,0.609655,0.7817154,-0.007474972987136992,0.01904938840651127,-0.016075604232396817
888,8.88,0.017084008,0.609655,0.7817154,-0.017061312705631194,0.014940957525606962,0.005836028128810306
889,8.89,0.017084008,0.609655,0.7817154,-0.017715093,0.014660766,0.007330383
890,8.9,0.017084008,0.609655,0.7817154,-0.017715093,0.014660766,0.007330383
891,8.91,0.017084008,0.609655,0.7817154,0.004071180556028065,0.040352124973322044,-0.00500147000702851
892,8.92,0.017084008,0.609655,0.7817154,0.047036625,0.09101892,-0.029321533
893,8.93,0.017084008,0.609655,0.7817154,0.047036625,0.09101892,-0.029321533
894,8.94,0.017611821300873666,0.6027934148335461,0.7832988305310767,0.047036625,0.09101892,-0.029321533
895,8.95,0.017816179,0.60013676,0.7839119,-0.01252997700563829,0.03363538981601504,-0.04273181397488281
896,8.96,0.00831238799292327,0.5980578188321602,0.7832436693449446,-0.06963864,-0.021380283,-0.055588737
897,8.97,-0.0134231495,0.5933032,0.7817154,-0.06963864,-0.021380283,-0.055588737
898,8.98,-0.0134231495,0.5933032,0.7817154,-0.06963864,-0.021380283,-0.055588737
899,8.99,-0.0134231495,0.5933032,0.7817154,0.025621196238466086,0.055830314931850124,-0.024002582069482026
900,9.0,-0.0134231495,0.5933032,0.7817154,0.04642576,0.07269296,-0.017104227
901,9.01,-0.0134231495,0.5933032,0.7817154,0.04642576,0.07269296,-0.017104227
902,9.02,-0.0134231495,0.5933032,0.7817154,0.04642576,0.07269296,-0.017104227
903,9.03,-0.0134231495,0.5933032,0.7817154,0.04642576,0.07269296,-0.017104227
904,9.04,-0.01163962137497903,0.595055433449237,0.7811834710041742,0.04642576,0.07269296,-0.017104227
905,9.05,0.00048811449,0.60697037,0.77756643,0.04642576,0.07269296,-0.017104227
906,9.06,0.00048811449,0.60697037,0.77756643,0.04642576,0.07269296,-0.017104227
907,9.07,0.005903686193819668,0.6000075034609254,0.78014528687416,0.04642576,0.07269296,-0.017104227
908,9.08,0.010738519,0.5937913,0.7824476,0.04642576,0.07269296,-0.017104227
909,9.09,0.010738519,0.5937913,0.7824476,0.04642576,0.07269296,-0.017104227
910,9.1,0.010738519,0.5937913,0.7824476,0.04642576,0.07269296,-0.017104227
911,9.11,0.010738519,0.5937913,0.7824476,0.04642576,0.07269296,-0.017104227
912,9.12,0.010738519,0.5937913,0.7824476,0.04642576,0.07269296,-0.017104227
913,9.13,0.010738519,0.5937913,0.7824476,0.04642576,0.07269296,-0.017104227
914,9.14,0.010738519,0.5937913,0.7824476,0.04642576,0.07269296,-0.017104227
915,9.15,0.0105673264271973,0.5952892343544196,0.7840739162018641,0.03999844038729802,0.05726739422718725,-0.013140713390813382
916,9.16,0.009790200044154177,0.6020890872208621,0.7914565567390538,0.010821709402375028,-0.012756754245863323,0.004851603359979759
917,9.17,0.00976229,0.6023333,0.7917217,0.009773844,-0.015271631,0.005497787
918,9.18,0.00976229,0.6023333,0.7917217,0.009773844,-0.015271631,0.005497787
919,9.19,0.00976229,0.6023333,0.7917217,0.0439827634348082,-0.1071895105199978,-0.03674279115790595
920,9.2,0.010136465864986045,0.6028571460883286,0.7897759969086954,0.08002335,-0.204029,-0.08124508
921,9.21,0.011055920446752042,0.6042250629951375,0.7841293951565182,0.08002335,-0.204029,-0.08124508
922,9.22,0.011534017026201562,0.6053545525063132,0.7772390503610106,0.08002335,-0.204029,-0.08124508
923,9.23,0.01405910168415335,0.6090450243038426,0.7836488678514718,0.08002335,-0.204029,-0.08124508
924,9.24,0.014643434,0.60989904,0.78513217,0.08002335,-0.204029,-0.08124508
925,9.25,0.014643434,0.60989904,0.78513217,0.08002335,-0.204029,-0.08124508
926,9.26,0.014643434,0.60989904,0.78513217,0.08002335,-0.204029,-0.08124508
927,9.27,0.014643434,0.60989904,0.78513217,0.07214720084301204,-0.18108875993138102,-0.07000436239141249
928,9.28,0.014643434,0.60989904,0.78513217,0.018667297856876118,-0.02532205352512649,0.006321323577656531
929,9.29,0.014643434,0.60989904,0.78513217,0.017104227,-0.02076942,0.008552114
930,9.3,0.014643434,0.60989904,0.78513217,0.017104227,-0.02076942,0.008552114
931,9.31,0.014643434,0.60989904,0.78513217,0.017104227,-0.02076942,0.008552114
932,9.32,0.012576702583451943,0.6083490002366039,0.7808695381569384,0.017104227,-0.02076942,0.008552114
933,9.33,0.0070740391080662815,0.6042220260574039,0.7695202992746997,0.017104227,-0.02076942,0.008552114
934,9.34,0.006833603,0.6040417,0.7690244,0.0017126013380053702,-0.017883489007293186,0.0066281602410786875
935,9.35,0.006833603,0.6040417,0.7690244,-0.002443461,-0.017104227,0.0061086523
936,9.36,0.00883071745494469,0.6016701203196627,0.7747660869248615,-0.002443461,-0.017104227,0.0061086523
937,9.37,0.018689226642305823,0.609588643371759,0.752110851066733,-0.002443461,-0.017104227,0.0061086523
938,9.38,0.032459613,0.6272271,0.70337296,-0.002443461,-0.017104227,0.0061086523
939,9.39,0.032459613,0.6272271,0.70337296,-0.002443461,-0.017104227,0.0061086523
940,9.4,0.032459613,0.6272271,0.70337296,-0.002443461,-0.017104227,0.0061086523
941,9.41,0.032459613,0.6272271,0.70337296,-0.026112661381810214,-0.010982881647498744,0.007332921303695063
942,9.42,0.032459613,0.6272271,0.70337296,-0.037873644,-0.007941248,0.007941248
943,9.43,0.032459613,0.6272271,0.70337296,-0.037873644,-0.007941248,0.007941248
944,9.44,0.032459613,0.6272271,0.70337296,-0.037873644,-0.007941248,0.007941248
945,9.45,0.032459613,0.6272271,0.70337296,-0.037873644,-0.007941248,0.007941248
946,9.46,0.032459613,0.6272271,0.70337296,-0.037873644,-0.007941248,0.007941248
947,9.47,0.032459613,0.6272271,0.70337296,-0.037873644,-0.007941248,0.007941248
948,9.48,0.032459613,0.6272271,0.70337296,-0.037873644,-0.007941248,0.007941248
949,9.49,0.026803350440958062,0.6217728568294539,0.7255266739683478,-0.037873644,-0.007941248,0.007941248
950,9.5,0.011958805,0.6074585,0.78366786,-0.037873644,-0.007941248,0.007941248
951,9.51,0.011958805,0.6074585,0.78366786,-0.037873644,-0.007941248,0.007941248
952,9.52,0.012903462983829737,0.6087180315063829,0.7819359686978724,-0.037873644,-0.007941248,0.007941248
953,9.53,0.011385589873672388,0.6073733973166078,0.7867363186040583,-0.037873644,-0.007941248,0.007941248
954,9.54,0.009274175,0.605262,0.79269797,-0.037873644,-0.007941248,0.007941248
955,9.55,0.009274175,0.605262,0.79269797,-0.037873644,-0.007941248,0.007941248
956,9.56,0.009274175,0.605262,0.79269797,-0.037873644,-0.007941248,0.007941248
957,9.57,0.009274175,0.605262,0.79269797,-0.037873644,-0.007941248,0.007941248
958,9.58,0.009274175,0.605262,0.79269797,-0.037873644,-0.007941248,0.007941248
959,9.59,0.009274175,0.605262,0.79269797,-0.037873644,-0.007941248,0.007941248
960,9.6,0.009274175,0.605262,0.79269797,-0.037873644,-0.007941248,0.007941248
961,9.61,0.009274175,0.605262,0.79269797,-0.037873644,-0.007941248,0.007941248
962,9.62,0.01293600491768033,0.6050788764331103,0.7791491741729175,-0.037873644,-0.007941248,0.007941248
963,9.63,0.01415532,0.6050179,0.7746377,-0.037873644,-0.007941248,0.007941248
964,9.64,0.01415532,0.6050179,0.7746377,-0.037873644,-0.007941248,0.007941248
965,9.65,0.015131335119856152,0.6045298903571954,0.7760610545152583,-0.037873644,-0.007941248,0.007941248
966,9.66,0.019151233899533725,0.6025199323886443,0.7819234033278247,-0.037873644,-0.007941248,0.007941248
967,9.67,0.020012695,0.6020892,0.7831797,-0.037873644,-0.007941248,0.007941248
968,9.68,0.020012695,0.6020892,0.7831797,-0.037873644,-0.007941248,0.007941248
969,9.69,0.020012695,0.6020892,0.7831797,-0.037873644,-0.007941248,0.007941248
970,9.7,0.020012695,0.6020892,0.7831797,-0.037873644,-0.007941248,0.007941248
971,9.71,0.020012695,0.6020892,0.7831797,-0.037873644,-0.007941248,0.007941248
972,9.72,0.020012695,0.6020892,0.7831797,-0.037873644,-0.007941248,0.007941248
973,9.73,0.020012695,0.6020892,0.7831797,-0.010569424471180346,-0.009731689429661999,0.005255587321002623
974,9.74,0.017282511565640642,0.6028855030161565,0.7885263126243421,-0.00061086525,-0.01038471,0.004276057
975,9.75,0.01415532,0.6037976,0.7946504,-0.00061086525,-0.01038471,0.004276057
976,9.76,0.01415532,0.6037976,0.7946504,-0.00061086525,-0.01038471,0.004276057
977,9.77,0.01415532,0.6037976,0.7946504,-0.00061086525,-0.01038471,0.004276057
978,9.78,0.01415532,0.6037976,0.7946504,-0.00061086525,-0.01038471,0.004276057
979,9.79,0.01415532,0.6037976,0.7946504,-0.024990706641133047,-0.006181288756099513,0.009740503997772218
980,9.8,0.01415532,0.6037976,0.7946504,-0.03417657780842549,-0.011423197094505979,0.005070164498536529
981,9.81,0.01415532,0.6037976,0.7946504,-0.02835710101283371,-0.012297822690310888,0.005200227769632425
982,9.82,0.014046883792053988,0.6041229158068044,0.793457604008181,-0.020158553,0.0,0.019547688
983,9.83,0.0134231495,0.60599416,0.78659654,-0.020158553,0.0,0.019547688
984,9.84,0.0134231495,0.60599416,0.78659654,-0.020158553,0.0,0.019547688
985,9.85,0.0134231495,0.60599416,0.78659654,-0.020158553,0.0,0.019547688
986,9.86,0.0134231495,0.60599416,0.78659654,-0.020158553,0.0,0.019547688
987,9.87,0.0134231495,0.60599416,0.78659654,-0.020158553,0.0,0.019547688
988,9.88,0.014303851098930575,0.6061409372680882,0.7846883513144916,-0.020158553,0.0,0.019547688
989,9.89,0.017816179,0.6067263,0.7770783,-0.02107007297516473,0.0,0.019471727908808453
990,9.9,0.017816179,0.6067263,0.7770783,-0.026910074255091666,0.0,0.018985060537967956
991,9.91,0.017816179,0.6067263,0.7770783,-0.019381122322403386,0.009121290905759968,0.014882915575972712
992,9.92,0.017816179,0.6067263,0.7770783,-0.017715093,0.010995574,0.014049901
993,9.93,0.017816179,0.6067263,0.7770783,-0.011181477588633238,0.006367596892311794,0.010238625328514286
994,9.94,0.015727063211347456,0.6045024133120689,0.7797739250809393,-0.0030543262,0.00061086525,0.005497787
995,9.95,0.0102504045,0.59867245,0.78684056,-0.0030543262,0.00061086525,0.005497787
996,9.96,0.0102504045,0.59867245,0.78684056,-0.0030543262,0.00061086525,0.005497787
997,9.97,0.0102504045,0.59867245,0.78684056,-0.0030543262,0.00061086525,0.005497787
998,9.98,0.0102504045,0.59867245,0.78684056,-0.0030543262,0.00061086525,0.005497787
999,9.99,0.0102504045,0.59867245,0.78684056,-0.0030543262,0.00061086525,0.005497787
