id,timestamp,acc_x,acc_y,acc_z,gyro_x,gyro_y,gyro_z
0,0.0,,,,,,
1,0.01,-0.01415532,0.20574026,0.9813542,0.010995574,-0.004886922,-0.032986723
2,0.02,-0.01415532,0.20574026,0.9813542,0.010995574,-0.004886922,-0.032986723
3,0.03,-0.01415532,0.20574026,0.9813542,0.010995574,-0.004886922,-0.032986723
4,0.04,-0.009224841445026786,0.20931486707362779,0.9737119526235966,0.048017928068505404,0.037997308272470366,0.005269710614903048
5,0.05,-0.0043930304,0.21281794,0.96622264,0.05566583837287205,0.046856138426511366,0.013172551485322816
6,0.06,-0.0043930304,0.21281794,0.96622264,0.010995574,-0.004886922,-0.032986723
7,0.07,-0.0043930304,0.21281794,0.96622264,0.0061286596833930685,-0.004886922,-0.027061783813130586
8,0.08,-0.0043930304,0.21281794,0.96622264,-0.017104227,-0.004886922,0.0012217305
9,0.09,-0.0043930304,0.21281794,0.96622264,-0.017104227,-0.004886922,0.0012217305
10,0.1,-0.0043930304,0.21281794,0.96622264,-0.017104227,-0.004886922,0.0012217305
11,0.11,-0.0043930304,0.21281794,0.96622264,-0.017104227,-0.004886922,0.0012217305
12,0.12,-0.0043930304,0.21281794,0.96622264,-0.017104227,-0.004886922,0.0012217305
13,0.13,-0.0043930304,0.21281794,0.96622264,-0.012357744903541183,-0.007385070493344244,-0.005148547902432531
14,0.14,-0.0043930304,0.21281794,0.96622264,0.0061086523,-0.017104227,-0.029932396
15,0.15,-0.0043930304,0.21281794,0.96622264,0.0061086523,-0.017104227,-0.029932396
16,0.16,-0.0043930304,0.21281794,0.96622264,0.0061086523,-0.017104227,-0.029932396
17,0.17,-0.013182580281066066,0.20961092506425408,0.9577893857123676,0.0061086523,-0.017104227,-0.029932396
18,0.18,-0.022453265,0.20622836,0.9488945,0.0075932826080266115,-0.005392144350037808,-0.023993875524009483
19,0.19,-0.022453265,0.20622836,0.9488945,0.01160644,0.026267206,-0.007941248
20,0.2,-0.022453265,0.20622836,0.9488945,0.01160644,0.026267206,-0.007941248
21,0.21,-0.022453265,0.20622836,0.9488945,0.01160644,0.026267206,-0.007941248
22,0.22,-0.022453265,0.20622836,0.9488945,0.01160644,0.026267206,-0.007941248
23,0.23,-0.022453265,0.20622836,0.9488945,0.01160644,0.026267206,-0.007941248
24,0.24,-0.019848236614211593,0.20743068352611294,0.9494288845615886,0.01160644,0.026267206,-0.007941248
25,0.25,-0.0034168016,0.21501444,0.95279956,0.008037122920310983,0.02180073627453839,-0.007227384584062196
26,0.26,-0.0034168016,0.21501444,0.95279956,-0.18389622201056058,-0.2183753128970329,0.031159284402112117
27,0.27,-0.0034168016,0.21501444,0.95279956,-0.2144137,-0.2565634,0.03726278
28,0.28,-0.0034168016,0.21501444,0.95279956,-0.2144137,-0.2565634,0.03726278
29,0.29,-0.0034168016,0.21501444,0.95279956,-0.2144137,-0.2565634,0.03726278
30,0.3,-0.0034168016,0.21501444,0.95279956,-0.2144137,-0.2565634,0.03726278
31,0.31,-0.0034168016,0.21501444,0.95279956,-0.2144137,-0.2565634,0.03726278
32,0.32,-0.01090679763607482,0.20802377517798684,0.9645338655757425,-0.2144137,-0.2565634,0.03726278
33,0.33,-0.01659565174455065,0.20435776326532085,0.9689061825879539,-0.2144137,-0.2565634,0.03726278
34,0.34,-0.013667206,0.21037734,0.95524013,-0.2144137,-0.2565634,0.03726278
35,0.35,-0.013667206,0.21037734,0.95524013,-0.20081891165770382,-0.2409989123748646,0.035331702085772285
36,0.36,-0.013667206,0.21037734,0.95524013,-0.012283416606625807,-0.02514719731052791,0.008551091650786057
37,0.37,-0.013667206,0.21037734,0.95524013,0.00061086525,-0.01038471,0.0067195175
38,0.38,-0.01755049782999894,0.20607423583566997,0.9630067024790158,0.00061086525,-0.01038471,0.0067195175
39,0.39,-0.022697324,0.200371,0.97330034,0.000155514399247469,-0.010536493554799221,0.005252275931915689
40,0.4,-0.022697324,0.200371,0.97330034,-0.004214360158508793,-0.011993117811252821,-0.008828430380278224
41,0.41,-0.022697324,0.200371,0.97330034,-0.004886922,-0.012217305,-0.010995574
42,0.42,-0.022697324,0.200371,0.97330034,-0.004886922,-0.012217305,-0.010995574
43,0.43,-0.022697324,0.200371,0.97330034,-0.004886922,-0.012217305,-0.010995574
44,0.44,-0.022697324,0.200371,0.97330034,-0.004886922,-0.012217305,-0.010995574
45,0.45,-0.022697324,0.200371,0.97330034,-0.004886922,-0.012217305,-0.010995574
46,0.46,-0.022697324,0.200371,0.97330034,-0.004886922,-0.012217305,-0.010995574
47,0.47,-0.022697324,0.200371,0.97330034,-0.004886922,-0.012217305,-0.010995574
48,0.48,-0.022697324,0.200371,0.97330034,-0.004886922,-0.012217305,-0.010995574
49,0.49,-0.022697324,0.200371,0.97330034,-0.004886922,-0.012217305,-0.010995574
50,0.5,-0.022697324,0.200371,0.97330034,-0.00536063862371134,-0.011043311573953685,-0.011345712384309124
51,0.51,-0.022697324,0.200371,0.97330034,-0.016694988479381452,0.01704616545308435,-0.019723275566632566
52,0.52,-0.0237335338482006,0.2025914440425785,0.9653067535774741,-0.018936822,0.022602014,-0.021380283
53,0.53,-0.01718473034382749,0.20729613549538203,0.9675400919830754,-0.018936822,0.022602014,-0.021380283
54,0.54,-0.0065895454,0.21208574,0.9784255,-0.018936822,0.022602014,-0.021380283
55,0.55,-0.0065895454,0.21208574,0.9784255,-0.018936822,0.022602014,-0.021380283
56,0.56,-0.0065895454,0.21208574,0.9784255,-0.018936822,0.022602014,-0.021380283
57,0.57,-0.0065895454,0.21208574,0.9784255,-0.018936822,0.022602014,-0.021380283
58,0.58,-0.0065895454,0.21208574,0.9784255,-0.018936822,0.022602014,-0.021380283
59,0.59,-0.0065895454,0.21208574,0.9784255,-0.018936822,0.022602014,-0.021380283
60,0.6,-0.0065895454,0.21208574,0.9784255,-0.018936822,0.022602014,-0.021380283
61,0.61,-0.0065895454,0.21208574,0.9784255,-0.018936822,0.022602014,-0.021380283
62,0.62,-0.0065895454,0.21208574,0.9784255,-0.018936822,0.022602014,-0.021380283
63,0.63,-0.0065895454,0.21208574,0.9784255,-0.018936822,0.022602014,-0.021380283
64,0.64,-0.0065895454,0.21208574,0.9784255,-0.018936822,0.022602014,-0.021380283
65,0.65,-0.0945781537486495,0.2672690061166963,0.9464403075186428,-0.018936822,0.022602014,-0.021380283
66,0.66,-0.18987654,0.3270367,0.9117979,-0.018936822,0.022602014,-0.021380283
67,0.67,-0.17834145893369718,0.31929309502399994,0.9143362640378195,-0.018936822,0.022602014,-0.021380283
68,0.68,-0.014643434,0.20940112,0.950359,-0.018936822,0.022602014,-0.021380283
69,0.69,-0.014643434,0.20940112,0.950359,-0.018936822,0.022602014,-0.021380283
70,0.7,-0.014643434,0.20940112,0.950359,-0.018936822,0.022602014,-0.021380283
71,0.71,-0.014643434,0.20940112,0.950359,-0.018936822,0.022602014,-0.021380283
72,0.72,-0.014643434,0.20940112,0.950359,-0.018936822,0.022602014,-0.021380283
73,0.73,-0.014643434,0.20940112,0.950359,-0.018936822,0.022602014,-0.021380283
74,0.74,-0.014643434,0.20940112,0.950359,-0.018936822,0.022602014,-0.021380283
75,0.75,-0.023017082164335737,0.20605164906880571,0.9534990673468964,-0.018936822,0.022602014,-0.021380283
76,0.76,-0.024405725,0.20549619,0.9540198,-0.018936822,0.022602014,-0.021380283
77,0.77,-0.024405725,0.20549619,0.9540198,-0.018936822,0.022602014,-0.021380283
78,0.78,-0.024405725,0.20549619,0.9540198,-0.014916426932120927,0.021983491654604205,-0.017669149054192083
79,0.79,-0.024405725,0.20549619,0.9540198,-0.0030543262,0.020158553,-0.0067195175
80,0.8,-0.024405725,0.20549619,0.9540198,-0.0030543262,0.020158553,-0.0067195175
81,0.81,-0.024405725,0.20549619,0.9540198,-0.0030543262,0.020158553,-0.0067195175
82,0.82,-0.024405725,0.20549619,0.9540198,-0.0030543262,0.020158553,-0.0067195175
83,0.83,-0.02418661350662639,0.204948411827683,0.9562109171782043,0.001607303865706453,0.020295660154799392,-0.00987297341918354
84,0.84,-0.02343234883440593,0.20306275207870905,0.9637535716267177,0.017654398517778235,0.02076763486311609,-0.020728361964178574
85,0.85,-0.023429496,0.20305562,0.9637821,0.017715093,0.02076942,-0.02076942
86,0.86,-0.023429496,0.20305562,0.9637821,0.017715093,0.02076942,-0.02076942
87,0.87,-0.019813194945320578,0.205948657998797,0.9579960121484621,0.017715093,0.02076942,-0.02076942
88,0.88,-0.017328065,0.20793676,0.9540198,0.017715093,0.02076942,-0.02076942
89,0.89,-0.017328065,0.20793676,0.9540198,0.017715093,0.02076942,-0.02076942
90,0.9,-0.017328065,0.20793676,0.9540198,0.017715093,0.02076942,-0.02076942
91,0.91,-0.017328065,0.20793676,0.9540198,0.017715093,0.02076942,-0.02076942
92,0.92,-0.017328065,0.20793676,0.9540198,0.017715093,0.02076942,-0.02076942
93,0.93,-0.017328065,0.20793676,0.9540198,-0.0023925089074301443,0.017336413092697307,0.007185051512341094
94,0.94,-0.017328065,0.20793676,0.9540198,-0.007330383,0.016493361,0.014049901
95,0.95,-0.017328065,0.20793676,0.9540198,-0.007330383,0.016493361,0.014049901
96,0.96,-0.01840208839769553,0.2064496541173494,0.9640990856168713,-0.007330383,0.016493361,0.014049901
97,0.97,-0.020500809,0.20354374,0.98379475,-0.007330383,0.016493361,0.014049901
98,0.98,-0.020969733682459947,0.20377820138054414,0.9802192034392005,-0.007330383,0.016493361,0.014049901
99,0.99,-0.024405725,0.20549619,0.9540198,-0.007330383,0.016493361,0.014049901
100,1.0,-0.024405725,0.20549619,0.9540198,-0.007330383,0.016493361,0.014049901
101,1.01,-0.024405725,0.20549619,0.9540198,-0.004111671356811003,0.01925225703826665,-0.0015838410841123845
102,1.02,-0.024405725,0.20549619,0.9540198,-0.012620822103036966,0.019839669921556388,-0.014372714253750706
103,1.03,-0.024405725,0.20549619,0.9540198,-0.021380283,0.019547688,-0.021380283
104,1.04,-0.024405725,0.20549619,0.9540198,-0.018380874960818163,0.019294725862671433,-0.02087435878450067
105,1.05,-0.024405725,0.20549619,0.9540198,0.021938945613677818,0.015894258885190436,-0.014073425624772925
106,1.06,-0.024405725,0.20549619,0.9540198,0.029321533,0.015271631,-0.01282817
107,1.07,-0.024405725,0.20549619,0.9540198,0.012731421485875286,0.020715261095245,-0.008939862861856376
108,1.08,-0.024405725,0.20549619,0.9540198,-0.009773844,0.028099801,-0.0036651916
109,1.09,-0.024405725,0.20549619,0.9540198,-0.009773844,0.028099801,-0.0036651916
110,1.1,-0.024405725,0.20549619,0.9540198,-0.009773844,0.028099801,-0.0036651916
111,1.11,-0.019944384493161025,0.20728073241789868,0.9523468243298999,-0.009773844,0.028099801,-0.0036651916
112,1.12,-0.014643434,0.20940112,0.950359,-0.009773844,0.028099801,-0.0036651916
113,1.13,-0.014643434,0.20940112,0.950359,-0.009773844,0.028099801,-0.0036651916
114,1.14,-0.014643434,0.20940112,0.950359,-0.009773844,0.028099801,-0.0036651916
115,1.15,-0.014643434,0.20940112,0.950359,-0.009773844,0.028099801,-0.0036651916
116,1.16,-0.014643434,0.20940112,0.950359,-0.009773844,0.028099801,-0.0036651916
117,1.17,-0.014643434,0.20940112,0.950359,-0.009773844,0.028099801,-0.0036651916
118,1.18,-0.014643434,0.20940112,0.950359,-0.009773844,0.028099801,-0.0036651916
119,1.19,-0.014643434,0.20940112,0.950359,-0.009773844,0.028099801,-0.0036651916
120,1.2,-0.014643434,0.20940112,0.950359,-0.009773844,0.028099801,-0.0036651916
121,1.21,-0.014643434,0.20940112,0.950359,-0.009773844,0.028099801,-0.0036651916
122,1.22,-0.014643434,0.20940112,0.950359,-0.009773844,0.028099801,-0.0036651916
123,1.23,-0.014643434,0.20940112,0.950359,-0.010544914341791656,0.026557660287287625,-0.004080383330719089
124,1.24,-0.014643434,0.20940112,0.950359,-0.023188403656774968,0.0012706811796823797,-0.01088841617350561
125,1.25,-0.014643434,0.20940112,0.950359,-0.02565634,-0.0036651916,-0.012217305
126,1.26,-0.014643434,0.20940112,0.950359,-0.02565634,-0.0036651916,-0.012217305
127,1.27,-0.06387551156248851,0.239776791562204,0.9373722770088108,-0.02565634,-0.0036651916,-0.012217305
128,1.28,-0.17840585,0.3104408,0.9071608,-0.02565634,-0.0036651916,-0.012217305
129,1.29,-0.17840585,0.3104408,0.9071608,-0.02565634,-0.0036651916,-0.012217305
130,1.3,-0.17840585,0.3104408,0.9071608,-0.02565634,-0.0036651916,-0.012217305
131,1.31,-0.17840585,0.3104408,0.9071608,-0.02565634,-0.0036651916,-0.012217305
132,1.32,-0.17840585,0.3104408,0.9071608,-0.02565634,-0.0036651916,-0.012217305
133,1.33,-0.11978571268725483,0.27359649209757453,0.9251694862576981,-0.02565634,-0.0036651916,-0.012217305
134,1.34,-0.022697324,0.21257387,0.954996,-0.02565634,-0.0036651916,-0.012217305
135,1.35,-0.022697324,0.21257387,0.954996,-0.02565634,-0.0036651916,-0.012217305
136,1.36,-0.022697324,0.21257387,0.954996,-0.02565634,-0.0036651916,-0.012217305
137,1.37,-0.022697324,0.21257387,0.954996,-0.030314717895702625,0.006009898732538393,-0.009350611542065434
138,1.38,-0.022697324,0.21257387,0.954996,-0.03359759,0.01282817,-0.007330383
139,1.39,-0.022697324,0.21257387,0.954996,-0.03359759,0.01282817,-0.007330383
140,1.4,-0.022697324,0.21257387,0.954996,-0.03359759,0.01282817,-0.007330383
141,1.41,-0.022697324,0.21257387,0.954996,-0.03359759,0.01282817,-0.007330383
142,1.42,-0.022697324,0.21257387,0.954996,-0.03359759,0.01282817,-0.007330383
143,1.43,-0.022697324,0.21257387,0.954996,-0.03359759,0.01282817,-0.007330383
144,1.44,-0.022697324,0.21257387,0.954996,-0.03359759,0.01282817,-0.007330383
145,1.45,-0.022697324,0.21257387,0.954996,-0.03359759,0.01282817,-0.007330383
146,1.46,-0.022697324,0.21257387,0.954996,-0.03359759,0.01282817,-0.007330383
147,1.47,-0.022697324,0.21257387,0.954996,-0.03359759,0.01282817,-0.007330383
148,1.48,-0.022697324,0.21257387,0.954996,-0.03359759,0.01282817,-0.007330383
149,1.49,-0.022580420574401582,0.21117102793481926,0.9591265913235875,-0.03359759,0.01282817,-0.007330383
150,1.5,-0.02199738747364824,0.20417462594794197,0.9797271122664793,-0.03359759,0.01282817,-0.007330383
151,1.51,-0.021965152,0.2037878,0.9808661,-0.03359759,0.01282817,-0.007330383
152,1.52,-0.021965152,0.2037878,0.9808661,-0.026757234318954864,0.01659036514866779,-0.015196790325535491
153,1.53,-0.021965152,0.2037878,0.9808661,-0.021380283,0.019547688,-0.021380283
154,1.54,-0.021965152,0.2037878,0.9808661,-0.021380283,0.019547688,-0.021380283
155,1.55,-0.021965152,0.2037878,0.9808661,-0.021380283,0.019547688,-0.021380283
156,1.56,-0.021965152,0.2037878,0.9808661,-0.021380283,0.019547688,-0.021380283
157,1.57,-0.021965152,0.2037878,0.9808661,-0.021380283,0.019547688,-0.021380283
158,1.58,-0.01346805872322651,0.21360666588662505,0.973501954453474,-0.021380283,0.019547688,-0.021380283
159,1.59,-0.010982576,0.21647878,0.97134787,-0.021380283,0.019547688,-0.021380283
160,1.6,-0.010982576,0.21647878,0.97134787,-0.021380283,0.019547688,-0.021380283
161,1.61,-0.02036422053269646,0.2168022852809874,0.9685980867099854,-0.021380283,0.019547688,-0.021380283
162,1.62,-0.03929322,0.21745501,0.96304995,-0.021380283,0.019547688,-0.021380283
163,1.63,-0.03929322,0.21745501,0.96304995,-0.021380283,0.019547688,-0.021380283
164,1.64,-0.03929322,0.21745501,0.96304995,-0.021380283,0.019547688,-0.021380283
165,1.65,-0.03929322,0.21745501,0.96304995,-0.021380283,0.019547688,-0.021380283
166,1.66,-0.03929322,0.21745501,0.96304995,-0.021380283,0.019547688,-0.021380283
167,1.67,-0.03929322,0.21745501,0.96304995,-0.021380283,0.019547688,-0.021380283
168,1.68,-0.03929322,0.21745501,0.96304995,-0.014072962216578404,0.017758140038093027,-0.014669478374769968
169,1.69,-0.03653788975273634,0.21541846208990933,0.9651264257626437,0.008552114,0.012217305,0.0061086523
170,1.7,-0.022453265,0.20500809,0.9757409,0.0079142158264592,0.010401748713988714,0.0061577213831665025
171,1.71,-0.022453265,0.20500809,0.9757409,0.001317394334090258,-0.00837381958978029,0.006665169116786515
172,1.72,-0.022453265,0.20500809,0.9757409,0.00061086525,-0.01038471,0.0067195175
173,1.73,-0.022453265,0.20500809,0.9757409,0.00061086525,-0.01038471,0.0067195175
174,1.74,-0.022453265,0.20500809,0.9757409,0.00061086525,-0.01038471,0.0067195175
175,1.75,-0.022453265,0.20500809,0.9757409,0.00061086525,-0.01038471,0.0067195175
176,1.76,-0.022453265,0.20500809,0.9757409,0.000457578055538575,-0.009311699550942933,0.007485953472307125
177,1.77,-0.022453265,0.20500809,0.9757409,-0.0004939230349956381,-0.0026511913720334854,0.01224345892497819
178,1.78,-0.022453265,0.20500809,0.9757409,-0.00061086525,-0.0018325958,0.01282817
179,1.79,-0.022453265,0.20500809,0.9757409,-0.00061086525,-0.0018325958,0.01282817
180,1.8,-0.022453265,0.20500809,0.9757409,-0.00061086525,-0.0018325958,0.01282817
181,1.81,-0.022453265,0.20500809,0.9757409,-0.00061086525,-0.0018325958,0.01282817
182,1.82,-0.022453265,0.20500809,0.9757409,-0.00061086525,-0.0018325958,0.01282817
183,1.83,-0.022453265,0.20500809,0.9757409,-0.00061086525,-0.0018325958,0.01282817
184,1.84,-0.022453265,0.20500809,0.9757409,-0.00061086525,-0.0018325958,0.01282817
185,1.85,-0.022453265,0.20500809,0.9757409,0.04376566170456049,0.0010536823951132902,0.004169335532782669
186,1.86,-0.022453265,0.20500809,0.9757409,0.07452556,0.0030543262,-0.0018325958
187,1.87,-0.022453265,0.20500809,0.9757409,0.056648589229167795,0.006607512945866075,-0.008272746788242897
188,1.88,-0.022453265,0.20500809,0.9757409,-0.02362205254300595,0.022537184604161903,-0.036974649338728564
189,1.89,-0.022453265,0.20500809,0.9757409,-0.007854601472464605,0.017469075413795516,-0.014449718579494276
190,1.9,-0.022453265,0.20500809,0.9757409,-0.0067195175,0.017104227,-0.01282817
191,1.91,-0.022453265,0.20500809,0.9757409,-0.0067195175,0.017104227,-0.01282817
192,1.92,-0.022453265,0.20500809,0.9757409,-0.0067195175,0.017104227,-0.01282817
193,1.93,-0.02568630616231403,0.20945351259432266,0.9547261825353935,-0.0067195175,0.017104227,-0.01282817
194,1.94,-0.026358182,0.21037734,0.950359,-0.0067195175,0.017104227,-0.01282817
195,1.95,-0.026358182,0.21037734,0.950359,-0.0067195175,0.017104227,-0.01282817
196,1.96,-0.026358182,0.21037734,0.950359,-0.0067195175,0.017104227,-0.01282817
197,1.97,-0.026358182,0.21037734,0.950359,-0.0067195175,0.017104227,-0.01282817
198,1.98,-0.026358182,0.21037734,0.950359,-0.0067195175,0.017104227,-0.01282817
199,1.99,-0.026358182,0.21037734,0.950359,-0.0067195175,0.017104227,-0.01282817
200,2.0,-0.026358182,0.21037734,0.950359,-0.0067195175,0.017104227,-0.01282817
201,2.01,-0.026358182,0.21037734,0.950359,-0.0067195175,0.017104227,-0.01282817
202,2.02,-0.026358182,0.21037734,0.950359,-0.0067195175,0.017104227,-0.01282817
203,2.03,-0.02704001431092526,0.21187737240268054,0.9530044990541393,-0.0067195175,0.017104227,-0.01282817
204,2.04,-0.03236642159748909,0.2235954787342464,0.9736708787677143,-0.0067195175,0.017104227,-0.01282817
205,2.05,-0.032459613,0.2238005,0.97403246,0.0033111950900753372,0.002296984046606469,-0.011395210812811684
206,2.06,-0.032459613,0.2238005,0.97403246,0.0061086523,-0.0018325958,-0.010995574
207,2.07,-0.032459613,0.2238005,0.97403246,0.0061086523,-0.0018325958,-0.010995574
208,2.08,-0.032459613,0.2238005,0.97403246,0.0061086523,-0.0018325958,-0.010995574
209,2.09,-0.032459613,0.2238005,0.97403246,0.0061086523,-0.0018325958,-0.010995574
210,2.1,-0.032459613,0.2238005,0.97403246,0.0061086523,-0.0018325958,-0.010995574
211,2.11,-0.032459613,0.2238005,0.97403246,0.0061086523,-0.0018325958,-0.010995574
212,2.12,-0.027397089572141466,0.22036180490053092,0.9725041336722009,0.0061086523,-0.0018325958,-0.010995574
213,2.13,-0.01952458,0.21501444,0.9701275,0.0061086523,-0.0018325958,-0.010995574
214,2.14,-0.01952458,0.21501444,0.9701275,0.0061086523,-0.0018325958,-0.010995574
215,2.15,-0.019202959430013326,0.21501444,0.9699345301354864,0.0061086523,-0.0018325958,-0.010995574
216,2.16,-0.01514174061023501,0.21501444,0.9674978301276309,0.0061086523,-0.0018325958,-0.010995574
217,2.17,-0.014643434,0.21501444,0.96719885,0.0061086523,-0.0018325958,-0.010995574
218,2.18,-0.014643434,0.21501444,0.96719885,0.0061086523,-0.0018325958,-0.010995574
219,2.19,-0.014643434,0.21501444,0.96719885,0.0061086523,-0.0018325958,-0.010995574
220,2.2,-0.014643434,0.21501444,0.96719885,0.0061086523,-0.0018325958,-0.010995574
221,2.21,-0.014643434,0.21501444,0.96719885,0.0061086523,-0.0018325958,-0.010995574
222,2.22,-0.014643434,0.21501444,0.96719885,0.0061086523,-0.0018325958,-0.010995574
223,2.23,-0.014643434,0.21501444,0.96719885,0.0061086523,-0.0018325958,-0.010995574
224,2.24,-0.015997808899071937,0.21516493384166682,0.9699076096637622,0.0061086523,-0.0018325958,-0.010995574
225,2.25,-0.016839951,0.21525851,0.9715919,0.0061086523,-0.0018325958,-0.010995574
226,2.26,-0.016839951,0.21525851,0.9715919,0.005051835472401698,-0.0026972641313617587,-0.011379871039655796
227,2.27,-0.016839951,0.21525851,0.9715919,0.0009555461626280175,-0.006048773635905068,-0.012869430832999726
228,2.28,-0.016839951,0.21525851,0.9715919,0.0069352741251610716,0.026463198479874522,-0.01671996554842121
229,2.29,-0.016839951,0.21525851,0.9715919,0.013439035,0.055588737,-0.019547688
230,2.3,-0.016839951,0.21525851,0.9715919,0.013439035,0.055588737,-0.019547688
231,2.31,-0.016839951,0.21525851,0.9715919,0.013439035,0.055588737,-0.019547688
232,2.32,-0.016839951,0.21525851,0.9715919,0.013439035,0.055588737,-0.019547688
233,2.33,-0.016839951,0.21525851,0.9715919,-0.0004011970503047806,0.016917499957670116,0.009761039400337164
234,2.34,-0.018744045404592544,0.21335440340503709,0.9800413382725923,-0.007330383,-0.002443461,0.02443461
235,2.35,-0.020744866,0.21135357,0.98892,-0.007330383,-0.002443461,0.02443461
236,2.36,-0.020744866,0.21135357,0.98892,-0.007330383,-0.002443461,0.02443461
237,2.37,-0.020744866,0.21135357,0.98892,-0.007330383,-0.002443461,0.02443461
238,2.38,-0.020744866,0.21135357,0.98892,-0.007330383,-0.002443461,0.02443461
239,2.39,-0.020744866,0.21135357,0.98892,-0.007330383,-0.002443461,0.02443461
240,2.4,-0.020744866,0.21135357,0.98892,-0.007330383,-0.002443461,0.02443461
241,2.41,-0.020744866,0.21135357,0.98892,-0.007330383,-0.002443461,0.02443461
242,2.42,-0.02220614662012859,0.20992094214822862,0.9877738963097711,-0.007330383,-0.002443461,0.02443461
243,2.43,-0.0321130032057743,0.2002083390570771,0.9800038042857088,-0.007330383,-0.002443461,0.02443461
244,2.44,-0.033191785,0.19915071,0.9791577,-0.007330383,-0.002443461,0.02443461
245,2.45,-0.027650737086333997,0.2069733610073866,0.9527562177925974,-0.007330383,-0.002443461,0.02443461
246,2.46,-0.024893839,0.21086545,0.9396204,-0.0011318923521874303,0.008974810599481502,0.004860429428530947
247,2.47,-0.024893839,0.21086545,0.9396204,0.004276057,0.018936822,-0.012217305
248,2.48,-0.024893839,0.21086545,0.9396204,0.01890683235577843,0.01787276591531851,-0.006631009521178663
249,2.49,-0.024893839,0.21086545,0.9396204,0.07147124,0.014049901,0.013439035
250,2.5,-0.024893839,0.21086545,0.9396204,0.07147124,0.014049901,0.013439035
251,2.51,-0.024893839,0.21086545,0.9396204,0.07147124,0.014049901,0.013439035
252,2.52,-0.024893839,0.21086545,0.9396204,0.07147124,0.014049901,0.013439035
253,2.53,-0.026918183977339083,0.21073892701329058,0.9527786661995343,-0.04664975153783286,0.027667066269324882,-0.02487903421705878
254,2.54,-0.028798755,0.21062139,0.9650024,-0.1563815,0.040317107,-0.06047566
255,2.55,-0.028798755,0.21062139,0.9650024,-0.1563815,0.040317107,-0.06047566
256,2.56,-0.028798755,0.21062139,0.9650024,-0.1563815,0.040317107,-0.06047566
257,2.57,-0.028798755,0.21062139,0.9650024,-0.1563815,0.040317107,-0.06047566
258,2.58,-0.028798755,0.21062139,0.9650024,-0.1563815,0.040317107,-0.06047566
259,2.59,-0.02624570677086155,0.22161914834994742,0.9485057061473776,-0.1563815,0.040317107,-0.06047566
260,2.6,-0.025626011,0.22428861,0.9445015,-0.04991296648121209,0.037359647668347186,-0.024616465452415057
261,2.61,-0.025626011,0.22428861,0.9445015,0.019547688,0.035430185,-0.0012217305
262,2.62,-0.025626011,0.22428861,0.9445015,0.019547688,0.035430185,-0.0012217305
263,2.63,-0.025626011,0.22428861,0.9445015,0.019547688,0.035430185,-0.0012217305
264,2.64,-0.025626011,0.22428861,0.9445015,0.019547688,0.035430185,-0.0012217305
265,2.65,-0.025626011,0.22428861,0.9445015,0.019547688,0.035430185,-0.0012217305
266,2.66,-0.025626011,0.22428861,0.9445015,0.019547688,0.035430185,-0.0012217305
267,2.67,-0.025626011,0.22428861,0.9445015,0.020622166437632376,-0.003609214650803928,-0.01948787068237601
268,2.68,-0.025626011,0.22428861,0.9445015,0.017578186540784285,-0.026084665224496786,-0.03288280427340903
269,2.69,-0.024999569814576284,0.22507166174915252,0.9459110042711864,0.018619793557626992,-0.019067485202033895,-0.03281361121559323
270,2.7,-0.02265933995266525,0.22790445188989372,0.9512767997113937,0.0421497,-0.019547688,-0.029932396
271,2.71,-0.01723671770379095,0.22147764320062785,0.9777873865832564,0.0421497,-0.019547688,-0.029932396
272,2.72,-0.016107777,0.22013964,0.98330665,0.0421497,-0.019547688,-0.029932396
273,2.73,-0.019434257756944937,0.22284240164849864,0.9646991496900592,0.0421497,-0.019547688,-0.029932396
274,2.74,-0.02391761,0.22648512,0.9396204,0.0421497,-0.019547688,-0.029932396
275,2.75,-0.02391761,0.22648512,0.9396204,0.0421497,-0.019547688,-0.029932396
276,2.76,-0.02391761,0.22648512,0.9396204,0.0421497,-0.019547688,-0.029932396
277,2.77,-0.02391761,0.22648512,0.9396204,0.0421497,-0.019547688,-0.029932396
278,2.78,-0.02391761,0.22648512,0.9396204,0.0421497,-0.019547688,-0.029932396
279,2.79,-0.02391761,0.22648512,0.9396204,0.0421497,-0.019547688,-0.029932396
280,2.8,-0.02391761,0.22648512,0.9396204,0.0421497,-0.019547688,-0.029932396
281,2.81,-0.02391761,0.22648512,0.9396204,0.0421497,-0.019547688,-0.029932396
282,2.82,-0.02391761,0.22648512,0.9396204,0.0421497,-0.019547688,-0.029932396
283,2.83,-0.021670890194432187,0.22011941887064976,0.9671426825214435,0.0421497,-0.019547688,-0.029932396
284,2.84,-0.020988923,0.21818718,0.97549677,0.0421497,-0.019547688,-0.029932396
285,2.85,-0.020988923,0.21818718,0.97549677,0.0421497,-0.019547688,-0.029932396
286,2.86,-0.020988923,0.21818718,0.97549677,0.0421497,-0.019547688,-0.029932396
287,2.87,-0.020988923,0.21818718,0.97549677,0.0421497,-0.019547688,-0.029932396
288,2.88,-0.020988923,0.21818718,0.97549677,0.04008978140061572,0.005514665075577258,-0.021349399025787207
289,2.89,-0.020988923,0.21818718,0.97549677,0.03848451,0.025045475,-0.014660766
290,2.9,-0.020988923,0.21818718,0.97549677,0.03848451,0.025045475,-0.014660766
291,2.91,-0.020988923,0.21818718,0.97549677,0.03848451,0.025045475,-0.014660766
292,2.92,-0.020988923,0.21818718,0.97549677,0.03848451,0.025045475,-0.014660766
293,2.93,-0.020988923,0.21818718,0.97549677,0.05044926495887871,-0.009413021318574143,-0.009396273191323076
294,2.94,-0.12432915282305221,0.2790973007525392,0.9613041352659859,-0.00026936437521921965,-0.009315842031015957,-0.01201166293310061
295,2.95,-0.19158493,0.31873876,0.9520673,-0.069478772529151,-0.22204311181251418,0.07768684576562708
296,2.96,-0.19158493,0.31873876,0.9520673,-0.12034045,-0.5491679,0.21563543
297,2.97,-0.19158493,0.31873876,0.9520673,-0.12034045,-0.5491679,0.21563543
298,2.98,-0.19158493,0.31873876,0.9520673,-0.12034045,-0.5491679,0.21563543
299,2.99,-0.19158493,0.31873876,0.9520673,-0.12034045,-0.5491679,0.21563543
300,3.0,-0.19158493,0.31873876,0.9520673,-0.05831914035188371,-0.27436575840714644,0.09890814192942352
301,3.01,-0.19158493,0.31873876,0.9520673,-0.0012217305,-0.021380283,-0.008552114
302,3.02,-0.19158493,0.31873876,0.9520673,-0.0012217305,-0.021380283,-0.008552114
303,3.03,-0.17565033537796154,0.31024030871484015,0.9544228489923745,-0.0012217305,-0.021380283,-0.008552114
304,3.04,-0.04174344882422838,0.2388232956613416,0.9742177819150739,-0.0012217305,-0.021380283,-0.008552114
305,3.05,-0.02318544,0.22892569,0.97696114,-0.0012217305,-0.021380283,-0.008552114
306,3.06,-0.02318544,0.22892569,0.97696114,-0.0012217305,-0.021380283,-0.008552114
307,3.07,-0.02318544,0.22892569,0.97696114,-0.0012217305,-0.021380283,-0.008552114
308,3.08,-0.02318544,0.22892569,0.97696114,-0.0012217305,-0.021380283,-0.008552114
309,3.09,-0.02318544,0.22892569,0.97696114,-0.0012217305,-0.021380283,-0.008552114
310,3.1,-0.02444284649653027,0.22865624643418478,0.9739972718162377,-0.0012217305,-0.021380283,-0.008552114
311,3.11,-0.026602242,0.22819352,0.9689073,-0.0012217305,-0.021380283,-0.008552114
312,3.12,-0.026602242,0.22819352,0.9689073,-0.0012108156152435114,-0.021349464500689325,-0.00853156833309218
313,3.13,-0.026602242,0.22819352,0.9689073,0.007858190881046794,0.004257143053117073,0.008539503951648025
314,3.14,-0.026602242,0.22819352,0.9689073,0.009162978,0.007941248,0.010995574
315,3.15,-0.026602242,0.22819352,0.9689073,0.009162978,0.007941248,0.010995574
316,3.16,-0.026602242,0.22819352,0.9689073,0.009162978,0.007941248,0.010995574
317,3.17,-0.027037940979411375,0.22784496338721072,0.9736999802043924,0.009162978,0.007941248,0.010995574
318,3.18,-0.027822526,0.2272173,0.9823304,0.009162978,0.007941248,0.010995574
319,3.19,-0.027822526,0.2272173,0.9823304,0.009162978,0.007941248,0.010995574
320,3.2,-0.027822526,0.2272173,0.9823304,0.009162978,0.007941248,0.010995574
321,3.21,-0.027822526,0.2272173,0.9823304,0.009162978,0.007941248,0.010995574
322,3.22,-0.027822526,0.2272173,0.9823304,0.009162978,0.007941248,0.010995574
323,3.23,-0.027822526,0.2272173,0.9823304,0.009162978,0.007941248,0.010995574
324,3.24,-0.027822526,0.2272173,0.9823304,0.009162978,0.007941248,0.010995574
325,3.25,-0.027822526,0.2272173,0.9823304,0.009162978,0.007941248,0.010995574
326,3.26,-0.027822526,0.2272173,0.9823304,0.009162978,0.007941248,0.010995574
327,3.27,-0.027822526,0.2272173,0.9823304,0.009162978,0.007941248,0.010995574
328,3.28,-0.027822526,0.2272173,0.9823304,0.025153900599582366,0.000875491930071144,-0.0009046469031506493
329,3.29,-0.027822526,0.2272173,0.9823304,0.04431494076281464,0.007140591821776357,0.01209893905338143
330,3.3,-0.027822526,0.2272173,0.9823304,0.05298753145968361,0.01923768244136996,0.03267001176365435
331,3.31,-0.027822526,0.2272173,0.9823304,0.037873644,0.005497787,-0.0012217305
332,3.32,-0.027822526,0.2272173,0.9823304,0.037873644,0.005497787,-0.0012217305
333,3.33,-0.027822526,0.2272173,0.9823304,0.037873644,0.005497787,-0.0012217305
334,3.34,-0.027822526,0.2272173,0.9823304,0.014939279141049863,0.007614805083181483,0.012538888773482719
335,3.35,-0.027822526,0.2272173,0.9823304,-0.0018325958,0.009162978,0.022602014
336,3.36,-0.027822526,0.2272173,0.9823304,-0.0018325958,0.009162978,0.022602014
337,3.37,-0.027822526,0.2272173,0.9823304,-0.0018325958,0.009162978,0.022602014
338,3.38,-0.027822526,0.2272173,0.9823304,-0.0018325958,0.009162978,0.022602014
339,3.39,-0.027822526,0.2272173,0.9823304,-0.0018325958,0.009162978,0.022602014
340,3.4,-0.027822526,0.2272173,0.9823304,-0.0018325958,0.009162978,0.022602014
341,3.41,-0.027822526,0.2272173,0.9823304,-0.0018325958,0.009162978,0.022602014
342,3.42,-0.027822526,0.2272173,0.9823304,-0.0018325958,0.009162978,0.022602014
343,3.43,-0.027822526,0.2272173,0.9823304,-0.0018325958,0.009162978,0.022602014
344,3.44,-0.027822526,0.2272173,0.9823304,-0.0018325958,0.009162978,0.022602014
345,3.45,-0.027822526,0.2272173,0.9823304,-0.0018325958,0.009162978,0.022602014
346,3.46,-0.027822526,0.2272173,0.9823304,-0.0018325958,0.009162978,0.022602014
347,3.47,-0.027822526,0.2272173,0.9823304,-0.0018325958,0.009162978,0.022602014
348,3.48,-0.027822526,0.2272173,0.9823304,-0.0018325958,0.009162978,0.022602014
349,3.49,-0.027822526,0.2272173,0.9823304,0.003416115676838578,-0.0036672064268447537,0.020269253672466802
350,3.5,-0.027822526,0.2272173,0.9823304,0.009162978,-0.017715093,0.017715093
351,3.51,-0.027822526,0.2272173,0.9823304,0.009162978,-0.017715093,0.017715093
352,3.52,-0.027822526,0.2272173,0.9823304,0.009162978,-0.017715093,0.017715093
353,3.53,-0.027822526,0.2272173,0.9823304,0.002918369758734021,-0.021461858081060433,-0.001018733768310617
354,3.54,-0.027822526,0.2272173,0.9823304,0.0014453217822004926,-0.012372966337743317,0.0064860264933850244
355,3.55,-0.027822526,0.2272173,0.9823304,0.002443461,-0.004886922,0.017715093
356,3.56,-0.029229257436426792,0.22669903066712108,0.976925600777173,0.002443461,-0.004886922,0.017715093
357,3.57,-0.032459613,0.2255089,0.96451426,0.002443461,-0.004886922,0.017715093
358,3.58,-0.032459613,0.2255089,0.96451426,0.002443461,-0.004886922,0.017715093
359,3.59,-0.032459613,0.2255089,0.96451426,0.002443461,-0.004886922,0.017715093
360,3.6,-0.032459613,0.2255089,0.96451426,0.0009251667426855731,-0.016274129240543386,0.000634282139184922
361,3.61,-0.032459613,0.2255089,0.96451426,0.0,-0.02321288,-0.009773844
362,3.62,-0.032459613,0.2255089,0.96451426,0.0,-0.02321288,-0.009773844
363,3.63,-0.032459613,0.2255089,0.96451426,0.0,-0.02321288,-0.009773844
364,3.64,-0.03310715599555705,0.2252295676396794,0.9648697742441994,0.0,-0.02321288,-0.009773844
365,3.65,-0.04450662621429778,0.22031214756957884,0.9711283147069895,0.0,-0.02321288,-0.009773844
366,3.66,-0.04490653,0.22013964,0.97134787,0.0,-0.02321288,-0.009773844
367,3.67,-0.04490653,0.22013964,0.97134787,0.0,-0.02321288,-0.009773844
368,3.68,-0.04490653,0.22013964,0.97134787,0.0,-0.02321288,-0.009773844
369,3.69,-0.04490653,0.22013964,0.97134787,0.0,-0.02321288,-0.009773844
370,3.7,-0.04490653,0.22013964,0.97134787,0.0,-0.02321288,-0.009773844
371,3.71,-0.04490653,0.22013964,0.97134787,0.0,-0.02321288,-0.009773844
372,3.72,-0.04490653,0.22013964,0.97134787,0.0,-0.02321288,-0.009773844
373,3.73,-0.06198905729369383,0.28136024768647505,0.9540678627350767,0.0,-0.02321288,-0.009773844
374,3.74,-0.08712844,0.37145513,0.92863786,0.0,-0.02321288,-0.009773844
375,3.75,-0.08712844,0.37145513,0.92863786,0.0,-0.02321288,-0.009773844
376,3.76,-0.08712844,0.37145513,0.92863786,0.0,-0.02321288,-0.009773844
377,3.77,-0.08712844,0.37145513,0.92863786,0.0,-0.02321288,-0.009773844
378,3.78,-0.08712844,0.37145513,0.92863786,0.0,-0.02321288,-0.009773844
379,3.79,-0.08712844,0.37145513,0.92863786,0.0,-0.02321288,-0.009773844
380,3.8,-0.08712844,0.37145513,0.92863786,0.011023786260688223,-0.017917139539699548,-0.008801157029034381
381,3.81,-0.08712844,0.37145513,0.92863786,0.0598012261378449,0.0055151600168055325,-0.004497265505414886
382,3.82,-0.08712844,0.37145513,0.92863786,0.062308256,0.0067195175,-0.004276057
383,3.83,-0.08712844,0.37145513,0.92863786,0.062308256,0.0067195175,-0.004276057
384,3.84,-0.08712844,0.37145513,0.92863786,0.062308256,0.0067195175,-0.004276057
385,3.85,-0.08712844,0.37145513,0.92863786,0.062308256,0.0067195175,-0.004276057
386,3.86,-0.08712844,0.37145513,0.92863786,0.062308256,0.0067195175,-0.004276057
387,3.87,-0.08712844,0.37145513,0.92863786,0.062308256,0.0067195175,-0.004276057
388,3.88,-0.08712844,0.37145513,0.92863786,0.062308256,0.0067195175,-0.004276057
389,3.89,-0.08712844,0.37145513,0.92863786,0.062308256,0.0067195175,-0.004276057
390,3.9,-0.08712844,0.37145513,0.92863786,0.062308256,0.0067195175,-0.004276057
391,3.91,-0.08712844,0.37145513,0.92863786,0.062308256,0.0067195175,-0.004276057
392,3.92,-0.08712844,0.37145513,0.92863786,0.062308256,0.0067195175,-0.004276057
393,3.93,-0.08712844,0.37145513,0.92863786,0.075347592916413,-0.043965649747458736,-0.0362434631784417
394,3.94,-0.08712844,0.37145513,0.92863786,0.0819257142090773,-0.11512600530394544,-0.07897452696720092
395,3.95,-0.08712844,0.37145513,0.92863786,-0.007941248,0.009773844,0.01038471
396,3.96,-0.08712844,0.37145513,0.92863786,-0.007941248,0.009773844,0.01038471
397,3.97,-0.04820353511636146,0.27106985288689356,0.9448565709511172,-0.007941248,0.009773844,0.01038471
398,3.98,-0.031483386,0.22794947,0.9518233,-0.007941248,0.009773844,0.01038471
399,3.99,-0.031483386,0.22794947,0.9518233,-0.007941248,0.009773844,0.01038471
400,4.0,-0.031483386,0.22794947,0.9518233,-0.003206171308078607,0.007707628670128295,0.01348403271293752
401,4.01,-0.031483386,0.22794947,0.9518233,0.023498617059855023,-0.003945370150554812,0.03096352935427733
402,4.02,-0.031483386,0.22794947,0.9518233,0.02565634,-0.004886922,0.032375857
403,4.03,-0.031483386,0.22794947,0.9518233,0.02565634,-0.004886922,0.032375857
404,4.04,-0.031483386,0.22794947,0.9518233,0.017444860882763674,-0.013893060288730977,0.012509375761321356
405,4.05,-0.031483386,0.22794947,0.9518233,0.0067195175,-0.02565634,-0.013439035
406,4.06,-0.031483386,0.22794947,0.9518233,0.0067195175,-0.02565634,-0.013439035
407,4.07,-0.031483386,0.22794947,0.9518233,0.0067195175,-0.02565634,-0.013439035
408,4.08,-0.031483386,0.22794947,0.9518233,0.0067195175,-0.02565634,-0.013439035
409,4.09,-0.0372140125841407,0.22008651941656562,0.9486247411017658,0.0067195175,-0.02565634,-0.013439035
410,4.1,-0.041977845,0.2135501,0.9459658,0.0067195175,-0.02565634,-0.013439035
411,4.11,-0.041977845,0.2135501,0.9459658,0.0067195175,-0.02565634,-0.013439035
412,4.12,-0.041977845,0.2135501,0.9459658,-0.03154636853670104,0.06271087552222535,0.010661113455845207
413,4.13,-0.041977845,0.2135501,0.9459658,-0.3672139000693246,0.8378661946570733,0.2220670987761514
414,4.14,-0.041977845,0.2135501,0.9459658,-0.3744604,0.8546005,0.226631
415,4.15,-0.041977845,0.2135501,0.9459658,-0.3744604,0.8546005,0.226631
416,4.16,-0.041977845,0.2135501,0.9459658,-0.3744604,0.8546005,0.226631
417,4.17,-0.041977845,0.2135501,0.9459658,-0.3744604,0.8546005,0.226631
418,4.18,-0.041977845,0.2135501,0.9459658,-0.3744604,0.8546005,0.226631
419,4.19,-0.041977845,0.2135501,0.9459658,-0.3744604,0.8546005,0.226631
420,4.2,-0.041977845,0.2135501,0.9459658,-0.12345302806239233,0.2579719536861109,0.07023742837935538
421,4.21,-0.041977845,0.2135501,0.9459658,-0.019547688,0.010995574,0.005497787
422,4.22,-0.041977845,0.2135501,0.9459658,-0.01696804877341087,0.016584792148321162,-0.004820769554445952
423,4.23,-0.041977845,0.2135501,0.9459658,-0.012217305,0.02687807,-0.023823744
424,4.24,-0.041977845,0.2135501,0.9459658,-0.012217305,0.02687807,-0.023823744
425,4.25,-0.041977845,0.2135501,0.9459658,-0.012217305,0.02687807,-0.023823744
426,4.26,-0.041977845,0.2135501,0.9459658,-0.012217305,0.02687807,-0.023823744
427,4.27,-0.041977845,0.2135501,0.9459658,-0.012217305,0.02687807,-0.023823744
428,4.28,-0.04013709057116707,0.21532005885931205,0.9516296950379599,-0.012217305,0.02687807,-0.023823744
429,4.29,-0.03670538887170457,0.21861977702396207,0.9621888429193358,-0.012217305,0.02687807,-0.023823744
430,4.3,-0.08313790854723434,0.3084537081369267,0.9363229122265738,-0.012217305,0.02687807,-0.023823744
431,4.31,-0.11592719,0.36974674,0.91619086,-0.012217305,0.02687807,-0.023823744
432,4.32,-0.11592719,0.36974674,0.91619086,-0.012217305,0.02687807,-0.023823744
433,4.33,-0.11592719,0.36974674,0.91619086,-0.012519871983078945,0.025751848523723173,-0.02252942974923106
434,4.34,-0.11592719,0.36974674,0.91619086,-0.021288201774663833,-0.006885821396078402,0.014979534676438047
435,4.35,-0.11592719,0.36974674,0.91619086,-0.02321288,-0.014049901,0.02321288
436,4.36,-0.11592719,0.36974674,0.91619086,-0.02321288,-0.014049901,0.02321288
437,4.37,-0.11592719,0.36974674,0.91619086,-0.02321288,-0.014049901,0.02321288
438,4.38,-0.11592719,0.36974674,0.91619086,-0.02321288,-0.014049901,0.02321288
439,4.39,-0.11592719,0.36974674,0.91619086,-0.02321288,-0.014049901,0.02321288
440,4.4,-0.11592719,0.36974674,0.91619086,-0.02321288,-0.014049901,0.02321288
441,4.41,-0.11592719,0.36974674,0.91619086,-0.03202800949785787,-0.014657840690828487,0.020173180053040765
442,4.42,-0.11592719,0.36974674,0.91619086,-0.03645189445160603,-0.026579618668160727,0.0006134118434263071
443,4.43,-0.11592719,0.36974674,0.91619086,-0.029321533,-0.044593163,-0.02565634
444,4.44,-0.11592719,0.36974674,0.91619086,-0.029321533,-0.044593163,-0.02565634
445,4.45,-0.11592719,0.36974674,0.91619086,-0.029321533,-0.044593163,-0.02565634
446,4.46,-0.11592719,0.36974674,0.91619086,-0.029321533,-0.044593163,-0.02565634
447,4.47,-0.05825182915163456,0.26599644117755106,0.9588346831360672,-0.029321533,-0.044593163,-0.02565634
448,4.48,-0.023896906534009485,0.2224570980430876,0.9653076356420155,-0.029321533,-0.044593163,-0.02565634
449,4.49,-0.017084008,0.23136626,0.9484064,-0.029321533,-0.044593163,-0.02565634
450,4.5,-0.017084008,0.23136626,0.9484064,-0.029321533,-0.044593163,-0.02565634
451,4.51,-0.017084008,0.23136626,0.9484064,-0.031598610069149206,-0.008159914983103405,-0.013511924180749167
452,4.52,-0.017084008,0.23136626,0.9484064,-0.032986723,0.014049901,-0.0061086523
453,4.53,-0.017084008,0.23136626,0.9484064,-0.032986723,0.014049901,-0.0061086523
454,4.54,-0.017084008,0.23136626,0.9484064,-0.032986723,0.014049901,-0.0061086523
455,4.55,-0.017084008,0.23136626,0.9484064,-0.032986723,0.014049901,-0.0061086523
456,4.56,-0.017084008,0.23136626,0.9484064,-0.032986723,0.014049901,-0.0061086523
457,4.57,-0.017084008,0.23136626,0.9484064,-0.032986723,0.014049901,-0.0061086523
458,4.58,-0.017084008,0.23136626,0.9484064,-0.032986723,0.014049901,-0.0061086523
459,4.59,-0.017084008,0.23136626,0.9484064,-0.032986723,0.014049901,-0.0061086523
460,4.6,-0.019529109006699404,0.22904763272808495,0.948701506935767,-0.032986723,0.014049901,-0.0061086523
461,4.61,-0.030621649008003494,0.21852885837423927,0.950040300499178,-0.032986723,0.014049901,-0.0061086523
462,4.62,-0.031239327,0.21794313,0.95011485,-0.023667812799894484,0.024840217439931197,0.005662602676929465
463,4.63,-0.031239327,0.21794313,0.95011485,-0.021380283,0.027488936,0.008552114
464,4.64,-0.031239327,0.21794313,0.95011485,-0.01874090318452481,0.015611725966216874,-0.0059644762813306955
465,4.65,-0.031239327,0.21794313,0.95011485,-0.015271631,0.0,-0.025045475
466,4.66,-0.031239327,0.21794313,0.95011485,-0.015271631,0.0,-0.025045475
467,4.67,-0.031239327,0.21794313,0.95011485,-0.015271631,0.0,-0.025045475
468,4.68,-0.031239327,0.21794313,0.95011485,-0.015271631,0.0,-0.025045475
469,4.69,-0.035595959621183546,0.2167899011545626,0.960365735152052,-0.015271631,0.0,-0.025045475
470,4.7,-0.039537273,0.21684363675773036,0.963901096083317,-0.026888547018402622,-0.03823021416237562,-0.01723045891403144
471,4.71,-0.039537273,0.21891935,0.9530435,-0.04886922,-0.11056661,-0.002443461
472,4.72,-0.039537273,0.21891935,0.9530435,-0.04886922,-0.11056661,-0.002443461
473,4.73,-0.039537273,0.21891935,0.9530435,-0.04886922,-0.11056661,-0.002443461
474,4.74,-0.039537273,0.21891935,0.9530435,-0.04886922,-0.11056661,-0.002443461
475,4.75,-0.10569654434936136,0.2740520655353675,0.9304161315788393,-0.04886922,-0.11056661,-0.002443461
476,4.76,-0.18011424,0.3360668,0.90496427,-0.04886922,-0.11056661,-0.002443461
477,4.77,-0.18011424,0.3360668,0.90496427,-0.04886922,-0.11056661,-0.002443461
478,4.78,-0.18011424,0.3360668,0.90496427,-0.04886922,-0.11056661,-0.002443461
479,4.79,-0.18011424,0.3360668,0.90496427,-0.04886922,-0.11056661,-0.002443461
480,4.8,-0.18011424,0.3360668,0.90496427,-0.04886922,-0.11056661,-0.002443461
481,4.81,-0.18011424,0.3360668,0.90496427,-0.04886922,-0.11056661,-0.002443461
482,4.82,-0.18011424,0.3360668,0.90496427,-0.02074466432422776,-0.03291838044971861,-0.0015263559236161227
483,4.83,-0.18011424,0.3360668,0.90496427,0.007330383,0.044593163,-0.00061086525
484,4.84,-0.18011424,0.3360668,0.90496427,0.007706876082787611,0.04330232949783094,-0.0013100666973240266
485,4.85,-0.18011424,0.3360668,0.90496427,0.015565728867300293,0.016357689804181223,-0.015905079175514897
486,4.86,-0.18011424,0.3360668,0.90496427,0.015882496,0.015271631,-0.016493361
487,4.87,-0.05887534811935125,0.24021724672801364,0.940981665506384,0.015882496,0.015271631,-0.016493361
488,4.88,-0.029774986,0.21721096,0.94962674,0.015882496,0.015271631,-0.016493361
489,4.89,-0.029774986,0.21721096,0.94962674,0.015882496,0.015271631,-0.016493361
490,4.9,-0.029774986,0.21721096,0.94962674,0.015882496,0.015271631,-0.016493361
491,4.91,-0.029774986,0.21721096,0.94962674,0.015882496,0.015271631,-0.016493361
492,4.92,-0.029774986,0.21721096,0.94962674,0.015882496,0.015271631,-0.016493361
493,4.93,-0.029774986,0.21721096,0.94962674,0.015882496,0.015271631,-0.016493361
494,4.94,-0.029774986,0.21721096,0.94962674,0.015882496,0.015271631,-0.016493361
495,4.95,-0.029774986,0.21721096,0.94962674,0.015882496,0.015271631,-0.016493361
496,4.96,-0.029774986,0.21721096,0.94962674,0.015882496,0.015271631,-0.016493361
497,4.97,-0.029774986,0.21721096,0.94962674,0.015882496,0.015271631,-0.016493361
498,4.98,-0.029774986,0.21721096,0.94962674,0.012564823258727284,0.014124398351814076,-0.017206505639720163
499,4.99,-0.029774986,0.21721096,0.94962674,-0.03935959257981095,-0.0038307737623292587,-0.02836782916786569
500,5.0,-0.029774986,0.21721096,0.94962674,-0.049480084,-0.007330383,-0.030543262
501,5.01,-0.029774986,0.21721096,0.94962674,-0.02508104718462652,0.014969812322082783,-0.017687855437761822
502,5.02,-0.029774986,0.21721096,0.94962674,0.007330383,0.044593163,-0.00061086525
503,5.03,-0.029774986,0.21721096,0.94962674,0.007330383,0.044593163,-0.00061086525
504,5.04,-0.029774986,0.21721096,0.94962674,0.007330383,0.044593163,-0.00061086525
505,5.05,-0.029774986,0.21721096,0.94962674,0.007330383,0.044593163,-0.00061086525
506,5.06,-0.029774986,0.21721096,0.94962674,0.007330383,0.044593163,-0.00061086525
507,5.07,-0.029774986,0.21721096,0.94962674,0.007330383,0.044593163,-0.00061086525
508,5.08,-0.029774986,0.21721096,0.94962674,0.007330383,0.044593163,-0.00061086525
509,5.09,-0.029774986,0.21721096,0.94962674,0.007330383,0.044593163,-0.00061086525
510,5.1,-0.029774986,0.21721096,0.94962674,0.007330383,0.044593163,-0.00061086525
511,5.11,-0.029774986,0.21721096,0.94962674,0.007330383,0.044593163,-0.00061086525
512,5.12,-0.029774986,0.21721096,0.94962674,0.007330383,0.044593163,-0.00061086525
513,5.13,-0.029774986,0.21721096,0.94962674,0.007330383,0.044593163,-0.00061086525
514,5.14,-0.029774986,0.21721096,0.94962674,0.007330383,0.044593163,-0.00061086525
515,5.15,-0.029774986,0.21721096,0.94962674,0.007330383,0.044593163,-0.00061086525
516,5.16,-0.017337845721282445,0.19668967768717427,1.0123306199581334,-0.2837318190860248,-0.6158741863652679,-0.016175689409306287
517,5.17,-0.00048811449,0.16888762,1.0972813,-0.6780604,-1.5106697,-0.03726278
518,5.18,-0.00048811449,0.16888762,1.0972813,-0.6780604,-1.5106697,-0.03726278
519,5.19,-0.00048811449,0.16888762,1.0972813,-0.6780604,-1.5106697,-0.03726278
520,5.2,-0.00048811449,0.16888762,1.0972813,-0.6780604,-1.5106697,-0.03726278
521,5.21,0.18970802122571934,0.21005259719846442,1.137050901437052,-0.6780604,-1.5106697,-0.03726278
522,5.22,0.3321619,0.24088451,1.1668377,-0.6780604,-1.5106697,-0.03726278
523,5.23,0.3321619,0.24088451,1.1668377,-0.6780604,-1.5106697,-0.03726278
524,5.24,0.3321619,0.24088451,1.1668377,-0.6780604,-1.5106697,-0.03726278
525,5.25,0.23457092948554725,0.18353185095390118,1.0928932694059272,-0.6780604,-1.5106697,-0.03726278
526,5.26,0.14985114,0.13374338,1.0287013,-0.6780604,-1.5106697,-0.03726278
527,5.27,0.14985114,0.13374338,1.0287013,-0.6780604,-1.5106697,-0.03726278
528,5.28,0.14985114,0.13374338,1.0287013,-0.4467588039287169,-1.6432065428541032,-0.20858182299910505
529,5.29,0.14985114,0.13374338,1.0287013,1.9730969489743986,-3.029794647301414,-2.000905692893536
530,5.3,0.14985114,0.13374338,1.0287013,2.3677137,-3.2559118,-2.293188
531,5.31,0.14985114,0.13374338,1.0287013,2.3677137,-3.2559118,-2.293188
532,5.32,0.14985114,0.13374338,1.0287013,2.3677137,-3.2559118,-2.293188
533,5.33,0.14985114,0.13374338,1.0287013,2.3677137,-3.2559118,-2.293188
534,5.34,0.14985114,0.13374338,1.0287013,2.2268053198293933,-3.143585573283285,-2.2314428703713
535,5.35,0.14985114,0.13374338,1.0287013,-0.2888269484616841,-1.138229467693114,-1.1291092808735865
536,5.36,0.14985114,0.13374338,1.0287013,-0.7703011,-0.75441855,-0.91813046
537,5.37,0.14985114,0.13374338,1.0287013,-0.7703011,-0.75441855,-0.91813046
538,5.38,0.07296475552843305,0.18099647048090056,0.9991824285980401,-0.7703011,-0.75441855,-0.91813046
539,5.39,-0.17816179,0.33533466,0.9027678,-0.7703011,-0.75441855,-0.91813046
540,5.4,-0.17816179,0.33533466,0.9027678,-0.7703011,-0.75441855,-0.91813046
541,5.41,-0.17816179,0.33533466,0.9027678,-0.7703011,-0.75441855,-0.91813046
542,5.42,-0.17816179,0.33533466,0.9027678,-0.7703011,-0.75441855,-0.91813046
543,5.43,-0.17816179,0.33533466,0.9027678,-0.7703011,-0.75441855,-0.91813046
544,5.44,-0.1774892065311304,0.3365357076734888,0.8993568225600874,-0.7703011,-0.75441855,-0.91813046
545,5.45,-0.17477401432860307,0.3413842884502379,0.8855868448896381,-0.7703011,-0.75441855,-0.91813046
546,5.46,-0.174745,0.3414361,0.8854397,-0.7703011,-0.75441855,-0.91813046
547,5.47,-0.174745,0.3414361,0.8854397,-0.7703011,-0.75441855,-0.91813046
548,5.48,-0.174745,0.3414361,0.8854397,-0.7703011,-0.75441855,-0.91813046
549,5.49,-0.174745,0.3414361,0.8854397,-0.7703011,-0.75441855,-0.91813046
550,5.5,-0.174745,0.3414361,0.8854397,-0.7703011,-0.75441855,-0.91813046
551,5.51,0.15906323528175423,0.2772063933696001,0.6555160216305286,-0.7703011,-0.75441855,-0.91813046
552,5.52,0.26284966,0.25723633,0.584029,-0.7703011,-0.75441855,-0.91813046
553,5.53,0.26284966,0.25723633,0.584029,-0.7703011,-0.75441855,-0.91813046
554,5.54,0.23079875218254914,0.20968202286794455,0.7057465082922931,-0.7703011,-0.75441855,-0.91813046
555,5.55,0.0340363068323824,-0.08225672069368183,1.452977591727658,-0.7703011,-0.75441855,-0.91813046
556,5.56,0.0156196635,-0.10958171,1.5229172,1.2251157701294155,0.5444461894936298,-0.26755992439686005
557,5.57,0.0156196635,-0.10958171,1.5229172,1.9071213,0.98837996,-0.04520403
558,5.58,0.0156196635,-0.10958171,1.5229172,1.9071213,0.98837996,-0.04520403
559,5.59,0.0156196635,-0.10958171,1.5229172,1.9071213,0.98837996,-0.04520403
560,5.6,0.0156196635,-0.10958171,1.5229172,1.9071213,0.98837996,-0.04520403
561,5.61,0.0156196635,-0.10958171,1.5229172,1.9071213,0.98837996,-0.04520403
562,5.62,0.0156196635,-0.10958171,1.5229172,1.9071213,0.98837996,-0.04520403
563,5.63,0.0156196635,-0.10958171,1.5229172,1.9071213,0.98837996,-0.04520403
564,5.64,0.0156196635,-0.10958171,1.5229172,1.9071213,0.98837996,-0.04520403
565,5.65,0.0156196635,-0.10958171,1.5229172,1.9071213,0.98837996,-0.04520403
566,5.66,0.0873788003889573,-0.010555229005260765,1.4171580426119046,1.9071213,0.98837996,-0.04520403
567,5.67,0.3277689,0.32117933,1.0628693,1.9071213,0.98837996,-0.04520403
568,5.68,0.3277689,0.32117933,1.0628693,1.9071213,0.98837996,-0.04520403
569,5.69,0.3277689,0.32117933,1.0628693,1.9071213,0.98837996,-0.04520403
570,5.7,0.3277689,0.32117933,1.0628693,1.9071213,0.98837996,-0.04520403
571,5.71,0.3277689,0.32117933,1.0628693,1.9071213,0.98837996,-0.04520403
572,5.72,0.3277689,0.32117933,1.0628693,1.9071213,0.98837996,-0.04520403
573,5.73,0.3277689,0.32117933,1.0628693,1.9071213,0.98837996,-0.04520403
574,5.74,0.3277689,0.32117933,1.0628693,1.9071213,0.98837996,-0.04520403
575,5.75,0.3277689,0.32117933,1.0628693,1.9071213,0.98837996,-0.04520403
576,5.76,0.3277689,0.32117933,1.0628693,1.9071213,0.98837996,-0.04520403
577,5.77,0.28811827313902166,0.2869273638103103,1.0282544116823984,1.9071213,0.98837996,-0.04520403
578,5.78,0.114462845,0.13691612,0.8766537,1.9071213,0.98837996,-0.04520403
579,5.79,0.114462845,0.13691612,0.8766537,1.9071213,0.98837996,-0.04520403
580,5.8,0.114462845,0.13691612,0.8766537,0.3188860226955875,0.30130639084193356,-0.4617631402940991
581,5.81,0.114462845,0.13691612,0.8766537,-1.0158689,-0.2761111,-0.81183994
582,5.82,0.114462845,0.13691612,0.8766537,-1.0158689,-0.2761111,-0.81183994
583,5.83,0.114462845,0.13691612,0.8766537,-1.0158689,-0.2761111,-0.81183994
584,5.84,0.114462845,0.13691612,0.8766537,-1.0158689,-0.2761111,-0.81183994
585,5.85,0.114462845,0.13691612,0.8766537,-0.7084710576448018,-0.5507683326905299,-0.8864157513443683
586,5.86,0.114462845,0.13691612,0.8766537,-0.39645153,-0.829555,-0.9621128
587,5.87,0.114462845,0.13691612,0.8766537,-0.36378079273077446,-0.7432497972736049,-0.8866978382017116
588,5.88,0.114462845,0.13691612,0.8766537,-0.11107169281478096,-0.07567655216049692,-0.3033609223802141
589,5.89,0.114462845,0.13691612,0.8766537,-0.10323623,-0.05497787,-0.28527406
590,5.9,0.114462845,0.13691612,0.8766537,-0.10323623,-0.05497787,-0.28527406
591,5.91,0.114462845,0.13691612,0.8766537,-0.10323623,-0.05497787,-0.28527406
592,5.92,0.114462845,0.13691612,0.8766537,-0.10323623,-0.05497787,-0.28527406
593,5.93,0.10500305250539232,0.105075838979254,0.9429299167805537,-0.10323623,-0.05497787,-0.28527406
594,5.94,0.07443746,0.0021965152,1.1570754,-0.10323623,-0.05497787,-0.28527406
595,5.95,0.07443746,0.0021965152,1.1570754,-0.10323623,-0.05497787,-0.28527406
596,5.96,0.07443746,0.0021965152,1.1570754,-0.10323623,-0.05497787,-0.28527406
597,5.97,0.07443746,0.0021965152,1.1570754,-0.10323623,-0.05497787,-0.28527406
598,5.98,0.07443746,0.0021965152,1.1570754,-0.10323623,-0.05497787,-0.28527406
599,5.99,0.07443746,0.0021965152,1.1570754,-0.10323623,-0.05497787,-0.28527406
600,6.0,0.07443746,0.0021965152,1.1570754,-0.3958047382071244,-0.12723734331193984,-0.45180037880677504
601,6.01,0.07443746,0.0021965152,1.1570754,-1.6052678411512882,-0.4259542740729847,-1.1402115803408939
602,6.02,0.07443746,0.0021965152,1.1570754,-1.6218473,-0.43004912,-1.1496484
603,6.03,0.14640948025565284,0.06745530779777481,0.9662948740680803,0.486724656403922,-0.39566174868695675,-0.4802666842757755
604,6.04,0.18694785,0.10421244,0.8588374,1.6743816,-0.376293,-0.10323623
605,6.05,0.18694785,0.10421244,0.8588374,1.6743816,-0.376293,-0.10323623
606,6.06,0.18694785,0.10421244,0.8588374,1.6743816,-0.376293,-0.10323623
607,6.07,0.18694785,0.10421244,0.8588374,1.6743816,-0.376293,-0.10323623
608,6.08,0.18694785,0.10421244,0.8588374,1.6743816,-0.376293,-0.10323623
609,6.09,0.18694785,0.10421244,0.8588374,1.6743816,-0.376293,-0.10323623
610,6.1,0.18694785,0.10421244,0.8588374,1.6743816,-0.376293,-0.10323623
611,6.11,0.18694785,0.10421244,0.8588374,1.6743816,-0.376293,-0.10323623
612,6.12,0.18694785,0.10421244,0.8588374,1.6743816,-0.376293,-0.10323623
613,6.13,0.18694785,0.10421244,0.8588374,1.6743816,-0.376293,-0.10323623
614,6.14,0.18694785,0.10421244,0.8588374,0.8645155361042901,-0.48251886870354305,0.17125144310947618
615,6.15,0.18694785,0.10421244,0.8588374,0.51007247,-0.5290093,0.29138273
616,6.16,0.18694785,0.10421244,0.8588374,0.51007247,-0.5290093,0.29138273
617,6.17,0.18694785,0.10421244,0.8588374,0.51007247,-0.5290093,0.29138273
618,6.18,0.18694785,0.10421244,0.8588374,0.51007247,-0.5290093,0.29138273
619,6.19,0.18694785,0.10421244,0.8588374,0.51007247,-0.5290093,0.29138273
620,6.2,0.18694785,0.10421244,0.8588374,0.6482252396367609,0.27544834518922573,0.6644489313803232
621,6.21,0.15032575457393624,0.13261461095361257,0.8641836970593676,0.8240572,1.2993103,1.1392636
622,6.22,0.053204484,0.20793676,0.878362,0.6958192330207218,1.2838412530614924,1.4076452538350857
623,6.23,0.053204484,0.20793676,0.878362,-0.7847389408062287,1.1052449728364584,4.5062178579605
624,6.24,0.053204484,0.20793676,0.878362,-0.5029560519012016,1.509520016237542,2.7251220307204855
625,6.25,0.053204484,0.20793676,0.878362,-0.21746802,1.7391334,1.4996742
626,6.26,0.053204484,0.20793676,0.878362,-0.21746802,1.7391334,1.4996742
627,6.27,0.05128915025446842,0.21853409819728456,0.8964190564433049,-0.21746802,1.7391334,1.4996742
628,6.28,0.020929176292138953,0.3865126097700881,1.1826416350064461,-0.21746802,1.7391334,1.4996742
629,6.29,0.016107777,0.4131889,1.228096,-0.21746802,1.7391334,1.4996742
630,6.3,0.016107777,0.4131889,1.228096,-0.21746802,1.7391334,1.4996742
631,6.31,0.016107777,0.4131889,1.228096,-0.21746802,1.7391334,1.4996742
632,6.32,0.016107777,0.4131889,1.228096,-0.21746802,1.7391334,1.4996742
633,6.33,0.016107777,0.4131889,1.228096,-0.21746802,1.7391334,1.4996742
634,6.34,0.016107777,0.4131889,1.228096,-0.21746802,1.7391334,1.4996742
635,6.35,0.016107777,0.4131889,1.228096,0.08271370487036933,1.3718719742459384,1.3547820039238048
636,6.36,0.016107777,0.4131889,1.228096,0.32925636,1.070236,1.2357804
637,6.37,0.013476123783926543,0.40781117575440634,1.1939989353809568,0.32925636,1.070236,1.2357804
638,6.38,-0.010147206034046946,0.35953743180218384,0.8879228162324643,0.32925636,1.070236,1.2357804
639,6.39,-0.011958805,0.35583547,0.8644508,0.32925636,1.070236,1.2357804
640,6.4,-0.011958805,0.35583547,0.8644508,0.32925636,1.070236,1.2357804
641,6.41,-0.03079767752287379,0.34511978058724785,0.8261681231257113,0.32925636,1.070236,1.2357804
642,6.42,-0.065163285,0.32557237,0.7563334,0.32925636,1.070236,1.2357804
643,6.43,-0.065163285,0.32557237,0.7563334,0.32925636,1.070236,1.2357804
644,6.44,-0.065163285,0.32557237,0.7563334,0.32925636,1.070236,1.2357804
645,6.45,-0.065163285,0.32557237,0.7563334,0.32925636,1.070236,1.2357804
646,6.46,-0.065163285,0.32557237,0.7563334,0.32925636,1.070236,1.2357804
647,6.47,-0.065163285,0.32557237,0.7563334,0.32925636,1.070236,1.2357804
648,6.48,-0.06554943581063405,0.32549996654789126,0.755335844769283,0.32925636,1.070236,1.2357804
649,6.49,-0.07487955407440158,0.3237505651423352,0.7312330641433715,0.32925636,1.070236,1.2357804
650,6.5,-0.07687803,0.32337585,0.72607034,0.1705521200118833,0.3026337495650709,0.3529381852937156
651,6.51,-0.07687803,0.32337585,0.72607034,0.18469282930171527,-0.06602878315772913,-0.04445397104021765
652,6.52,-0.07687803,0.32337585,0.72607034,0.29871312,-0.020158553,0.039095376
653,6.53,-0.07687803,0.32337585,0.72607034,0.28046762641754747,-0.028899417486945203,0.023820080216780264
654,6.54,-0.08002939636359632,0.3202411586755052,0.7421273025724844,0.16737708,-0.08307768,-0.07086037
655,6.55,-0.11600439076856701,0.2844565212043741,0.9254284716713184,0.16737708,-0.08307768,-0.07086037
656,6.56,-0.12843843476167574,0.27222417242392577,0.9337648660955438,0.16737708,-0.08307768,-0.07086037
657,6.57,-0.11614858204887188,0.28486699510165253,0.9613474736179882,0.16737708,-0.08307768,-0.07086037
658,6.58,-0.1044565,0.2967736,0.993313,0.16737708,-0.08307768,-0.07086037
659,6.59,-0.1044565,0.2967736,0.993313,0.16737708,-0.08307768,-0.07086037
660,6.6,-0.1044565,0.2967736,0.993313,0.16737708,-0.08307768,-0.07086037
661,6.61,-0.1044565,0.2967736,0.993313,0.16737708,-0.08307768,-0.07086037
662,6.62,-0.1044565,0.2967736,0.993313,0.28207642935046284,0.05682470708061697,-0.10172118424074394
663,6.63,-0.1044565,0.2967736,0.993313,0.3036,0.08307768,-0.10751228
664,6.64,-0.1044565,0.2967736,0.993313,0.3036,0.08307768,-0.10751228
665,6.65,-0.1044565,0.2967736,0.993313,0.3036,0.08307768,-0.10751228
666,6.66,-0.1044565,0.2967736,0.993313,0.3036,0.08307768,-0.10751228
667,6.67,-0.1044565,0.2967736,0.993313,0.24849597611275645,0.06916436959006603,-0.09213441219263262
668,6.68,-0.1044565,0.2967736,0.993313,-0.06414085,-0.009773844,-0.004886922
669,6.69,-0.1044565,0.2967736,0.993313,-0.06414085,-0.009773844,-0.004886922
670,6.7,-0.1044565,0.2967736,0.993313,-0.06414085,-0.009773844,-0.004886922
671,6.71,-0.134624378949677,0.29787346991608077,0.9578028589550068,-0.06414085,-0.009773844,-0.004886922
672,6.72,-0.1513155,0.298482,0.938156,-0.06414085,-0.009773844,-0.004886922
673,6.73,-0.11278231323962726,0.2807511506575108,0.9435311149293869,-0.06414085,-0.009773844,-0.004886922
674,6.74,-0.016595893,0.23649146,0.95694846,-0.058289774001346224,0.010369204576586494,0.004705006088020799
675,6.75,-0.016595893,0.23649146,0.95694846,0.01038471,0.24678956,0.11728613
676,6.76,-0.016595893,0.23649146,0.95694846,0.01038471,0.24678956,0.11728613
677,6.77,-0.016595893,0.23649146,0.95694846,0.01038471,0.24678956,0.11728613
678,6.78,-0.10105018371094897,0.2683824135994802,0.9517803546962055,0.01038471,0.24678956,0.11728613
679,6.79,-0.18011424,0.29823795,0.9469421,0.01038471,0.24678956,0.11728613
680,6.8,-0.18011424,0.29823795,0.9469421,0.01038471,0.24678956,0.11728613
681,6.81,-0.18011424,0.29823795,0.9469421,0.01038471,0.24678956,0.11728613
682,6.82,-0.18011424,0.29823795,0.9469421,0.01038471,0.24678956,0.11728613
683,6.83,-0.18011424,0.29823795,0.9469421,0.01038471,0.24678956,0.11728613
684,6.84,-0.18011424,0.29823795,0.9469421,0.01038471,0.24678956,0.11728613
685,6.85,-0.18011424,0.29823795,0.9469421,0.04982332217490714,0.16392243628203196,0.07002117791623845
686,6.86,-0.1800153076042953,0.29812802496574786,0.948030360406417,0.15992083695188788,-0.07969348087390221,-0.06530257991497673
687,6.87,-0.17825810630748629,0.2961755764137481,0.967359646671041,0.0274857547916365,-0.01958456457122215,0.03341286991546463
688,6.88,-0.17791773,0.29579738,0.9711038,0.0018325958,-0.007941248,0.052534413
689,6.89,-0.17791773,0.29579738,0.9711038,0.031227021036298177,0.0745343713443997,0.0873511106286387
690,6.9,-0.1566321125130115,0.3160693990274905,0.9524535551202165,0.064751714,0.1685988,0.12705997
691,6.91,-0.1010397,0.36901456,0.90374404,0.064751714,0.1685988,0.12705997
692,6.92,-0.1010397,0.36901456,0.90374404,0.064751714,0.1685988,0.12705997
693,6.93,-0.1010397,0.36901456,0.90374404,0.064751714,0.1685988,0.12705997
694,6.94,-0.1010397,0.36901456,0.90374404,0.064751714,0.1685988,0.12705997
695,6.95,-0.1010397,0.36901456,0.90374404,0.064751714,0.1685988,0.12705997
696,6.96,-0.1010397,0.36901456,0.90374404,0.064751714,0.1685988,0.12705997
697,6.97,-0.1010397,0.36901456,0.90374404,0.064751714,0.1685988,0.12705997
698,6.98,-0.1010397,0.36901456,0.90374404,0.064751714,0.1685988,0.12705997
699,6.99,-0.1010397,0.36901456,0.90374404,0.064751714,0.1685988,0.12705997
700,7.0,-0.1010397,0.36901456,0.90374404,0.064751714,0.1685988,0.12705997
701,7.01,-0.1010397,0.36901456,0.90374404,0.064751714,0.1685988,0.12705997
702,7.02,-0.1010397,0.36901456,0.90374404,0.064751714,0.1685988,0.12705997
703,7.03,-0.1010397,0.36901456,0.90374404,0.064751714,0.1685988,0.12705997
704,7.04,-0.1010397,0.36901456,0.90374404,0.064751714,0.1685988,0.12705997
705,7.05,-0.1010397,0.36901456,0.90374404,0.064751714,0.1685988,0.12705997
706,7.06,-0.1010397,0.36901456,0.90374404,0.064751714,0.1685988,0.12705997
707,7.07,-0.1262834117671958,0.347377092770975,0.9166663786371306,0.064751714,0.1685988,0.12705997
708,7.08,-0.16254212,0.3162982,0.93522733,0.06320557215988941,0.10598003227404973,0.08750449210465237
709,7.09,-0.16254212,0.3162982,0.93522733,0.057464266110531896,-0.12654294887921688,-0.05937731306630358
710,7.1,-0.1685322090439709,0.3180372448288322,0.9126196442996966,0.057421334,-0.1282817,-0.06047566
711,7.11,-0.1701079,0.3184947,0.9066727,0.057421334,-0.1282817,-0.06047566
712,7.12,-0.1701079,0.3184947,0.9066727,0.03787940294915482,-0.05103000691527665,-0.008872750263601493
713,7.13,-0.1701079,0.3184947,0.9066727,0.018325957,0.026267206,0.042760566
714,7.14,-0.1701079,0.3184947,0.9066727,0.018325957,0.026267206,0.042760566
715,7.15,-0.17106041367372862,0.3188289157445494,0.9083771985854345,0.018325957,0.026267206,0.042760566
716,7.16,-0.18394959909046826,0.32335144263261845,0.9314420625513622,0.018325957,0.026267206,0.042760566
717,7.17,-0.18401916,0.32337585,0.93156654,0.018325957,0.026267206,0.042760566
718,7.18,-0.18401916,0.32337585,0.93156654,0.018325957,0.026267206,0.042760566
719,7.19,-0.18401916,0.32337585,0.93156654,0.033598344469651646,0.05299388573212879,0.05206717658328683
720,7.2,-0.18401916,0.32337585,0.93156654,0.057421334,0.09468412,0.06658431
721,7.21,-0.18401916,0.32337585,0.93156654,0.057421334,0.09468412,0.06658431
722,7.22,-0.18401916,0.32337585,0.93156654,0.057421334,0.09468412,0.06658431
723,7.23,-0.18401916,0.32337585,0.93156654,0.057421334,0.09468412,0.06658431
724,7.24,-0.18401916,0.32337585,0.93156654,0.057421334,0.09468412,0.06658431
725,7.25,-0.179166963048519,0.32563577820534717,0.9152152862587049,0.057421334,0.09468412,0.06658431
726,7.26,-0.16620298,0.3316738,0.8715284,0.057421334,0.09468412,0.06658431
727,7.27,-0.16620298,0.3316738,0.8715284,0.057421334,0.09468412,0.06658431
728,7.28,-0.16620298,0.3316738,0.8715284,0.057421334,0.09468412,0.06658431
729,7.29,-0.16620298,0.3316738,0.8715284,0.04577956374602357,0.03681767691938884,0.035767864438374423
730,7.3,-0.16620298,0.3316738,0.8715284,0.036651913,-0.008552114,0.01160644
731,7.31,-0.16620298,0.3316738,0.8715284,0.036651913,-0.008552114,0.01160644
732,7.32,-0.16620298,0.3316738,0.8715284,0.041892553490083397,0.0008061720751296885,0.01806365683573358
733,7.33,-0.16620298,0.3316738,0.8715284,0.06807181307899082,0.047554847343289325,0.05032023999277487
734,7.34,-0.16620298,0.3316738,0.8715284,0.07086037,0.052534413,0.05375614
735,7.35,-0.16620298,0.3316738,0.8715284,0.07086037,0.052534413,0.05375614
736,7.36,-0.16620298,0.3316738,0.8715284,0.07086037,0.052534413,0.05375614
737,7.37,-0.16969948152351863,0.3275112972116908,0.8763568972309239,0.07086037,0.052534413,0.05375614
738,7.38,-0.17645338,0.31947094,0.8856837,0.07086037,0.052534413,0.05375614
739,7.39,-0.17645338,0.31947094,0.8856837,0.07086037,0.052534413,0.05375614
740,7.4,-0.17645338,0.31947094,0.8856837,0.07086037,0.052534413,0.05375614
741,7.41,-0.17645338,0.31947094,0.8856837,0.07086037,0.052534413,0.05375614
742,7.42,-0.17645338,0.31947094,0.8856837,0.07086037,0.052534413,0.05375614
743,7.43,-0.17645338,0.31947094,0.8856837,0.03726508804340575,0.024721925550979015,0.05072705848501328
744,7.44,-0.1747037365222069,0.32007426312083287,0.8816414380569019,-0.0036651916,-0.009162978,0.047036625
745,7.45,-0.16937573,0.3219115,0.86933196,-0.0036651916,-0.009162978,0.047036625
746,7.46,-0.16937573,0.3219115,0.86933196,-0.0036651916,-0.009162978,0.047036625
747,7.47,-0.16937573,0.3219115,0.86933196,-0.0036651916,-0.009162978,0.047036625
748,7.48,-0.17336802343404517,0.32053485214889216,0.8785554938335767,-0.0036651916,-0.009162978,0.047036625
749,7.49,-0.17645338,0.31947094,0.8856837,-0.0036651916,-0.009162978,0.047036625
750,7.5,-0.17645338,0.31947094,0.8856837,-0.0036651916,-0.009162978,0.047036625
751,7.51,-0.17645338,0.31947094,0.8856837,-0.0036651916,-0.009162978,0.047036625
752,7.52,-0.17645338,0.31947094,0.8856837,-0.0036651916,-0.009162978,0.047036625
753,7.53,-0.17645338,0.31947094,0.8856837,-0.0036651916,-0.009162978,0.047036625
754,7.54,-0.17645338,0.31947094,0.8856837,0.0005931076153848597,0.00487363825348846,0.033157723598246536
755,7.55,-0.17645338,0.31947094,0.8856837,0.013698492669646642,0.16844171466495145,0.023161559415627607
756,7.56,-0.17645338,0.31947094,0.8856837,0.021518204452753827,1.2757128550210115,0.29163831797683293
757,7.57,-0.17645338,0.31947094,0.8856837,0.021991149,1.3426818,0.30787608
758,7.58,-0.17645338,0.31947094,0.8856837,0.021991149,1.3426818,0.30787608
759,7.59,-0.17645338,0.31947094,0.8856837,0.021991149,1.3426818,0.30787608
760,7.6,-0.17645338,0.31947094,0.8856837,0.021991149,1.3426818,0.30787608
761,7.61,-0.17645338,0.31947094,0.8856837,0.021991149,1.3426818,0.30787608
762,7.62,-0.17645338,0.31947094,0.8856837,0.021991149,1.3426818,0.30787608
763,7.63,-0.17645338,0.31947094,0.8856837,0.021991149,1.3426818,0.30787608
764,7.64,-0.17645338,0.31947094,0.8856837,-0.05971371043317402,0.3141083964652869,0.09907477247710295
765,7.65,-0.16295359178378907,0.32281247271272046,0.8912974736429771,-0.07926632601026863,-0.0017275284620912343,0.025539875261680625
766,7.66,-0.15413475494114046,0.32605467073903704,0.9022844638777103,-0.0720821,0.031154128,0.02443461
767,7.67,-0.15888128,0.3270367,0.91521466,-0.0720821,0.031154128,0.02443461
768,7.68,-0.15888128,0.3270367,0.91521466,-0.0720821,0.031154128,0.02443461
769,7.69,-0.15888128,0.3270367,0.91521466,-0.0720821,0.031154128,0.02443461
770,7.7,-0.16804060441980223,0.33043874244356447,0.9116818221463762,-0.0720821,0.031154128,0.02443461
771,7.71,-0.17596528,0.3333822,0.9086252,-0.0720821,0.031154128,0.02443461
772,7.72,-0.17596528,0.3333822,0.9086252,-0.0720821,0.031154128,0.02443461
773,7.73,-0.17596528,0.3333822,0.9086252,-0.0720821,0.031154128,0.02443461
774,7.74,-0.17596528,0.3333822,0.9086252,-0.02996970833437344,-0.03265252612323453,0.0474050057071973
775,7.75,-0.1607966489867576,0.3332627606118259,0.9212855989677322,0.004536778933825608,-0.029385015558309944,0.028124380431329702
776,7.76,-0.14497001,0.33313814,0.9344952,0.021380283,0.0030543262,-0.002443461
777,7.77,-0.14497001,0.33313814,0.9344952,0.021380283,0.0030543262,-0.002443461
778,7.78,-0.14497001,0.33313814,0.9344952,0.021380283,0.0030543262,-0.002443461
779,7.79,-0.14497001,0.33313814,0.9344952,0.021380283,0.0030543262,-0.002443461
780,7.8,-0.14497001,0.33313814,0.9344952,0.003775845539673111,-0.03278327849394381,0.017047167015290833
781,7.81,-0.14497001,0.33313814,0.9344952,-0.01282817,-0.06658431,0.035430185
782,7.82,-0.14497001,0.33313814,0.9344952,-0.01282817,-0.06658431,0.035430185
783,7.83,-0.14497001,0.33313814,0.9344952,-0.01282817,-0.06658431,0.035430185
784,7.84,-0.14497001,0.33313814,0.9344952,-0.03183714262581521,-0.07323744769620061,0.019747782000237874
785,7.85,-0.07228290086043546,0.2706632740844602,0.9471103123634135,-0.03726278,-0.07513642,0.015271631
786,7.86,-0.026846299,0.23161033,0.954996,-0.03726278,-0.07513642,0.015271631
787,7.87,-0.026846299,0.23161033,0.954996,-0.03726278,-0.07513642,0.015271631
788,7.88,-0.026846299,0.23161033,0.954996,-0.024534277670245432,-0.05191018503462096,0.01015398565810244
789,7.89,-0.026846299,0.23161033,0.954996,0.021168001002136085,0.03148469013593115,-0.00822115758361839
790,7.9,-0.026846299,0.23161033,0.954996,0.021991149,0.032986723,-0.008552114
791,7.91,-0.026846299,0.23161033,0.954996,0.021991149,0.032986723,-0.008552114
792,7.92,-0.08501940015934031,0.2699731311213158,0.9428373151373146,0.021991149,0.032986723,-0.008552114
793,7.93,-0.16229807,0.32093528,0.9266854,0.021991149,0.032986723,-0.008552114
794,7.94,-0.16229807,0.32093528,0.9266854,0.021991149,0.032986723,-0.008552114
795,7.95,-0.16229807,0.32093528,0.9266854,0.021991149,0.032986723,-0.008552114
796,7.96,-0.16229807,0.32093528,0.9266854,0.021991149,0.032986723,-0.008552114
797,7.97,-0.16229807,0.32093528,0.9266854,0.02956803168786778,0.03921660453551767,-0.011414491689923674
798,7.98,-0.16229807,0.32093528,0.9266854,0.04382853011951808,0.09424536386238408,-0.02289291001239237
799,7.99,-0.16229807,0.32093528,0.9266854,0.020455899446907604,0.2541141507147483,-0.03925375270758824
800,8.0,-0.16229807,0.32093528,0.9266854,0.018936822,0.26450464,-0.040317107
801,8.01,-0.16229807,0.32093528,0.9266854,0.018936822,0.26450464,-0.040317107
802,8.02,-0.16229807,0.32093528,0.9266854,0.018936822,0.26450464,-0.040317107
803,8.03,-0.16229807,0.32093528,0.9266854,0.018936822,0.26450464,-0.040317107
804,8.04,-0.16229807,0.32093528,0.9266854,0.018936822,0.26450464,-0.040317107
805,8.05,-0.16229807,0.32093528,0.9266854,0.018936822,0.26450464,-0.040317107
806,8.06,-0.16229807,0.32093528,0.9266854,0.018936822,0.26450464,-0.040317107
807,8.07,-0.16229807,0.32093528,0.9266854,0.030218899473481418,0.20140859059615746,0.006900473434624902
808,8.08,-0.16229807,0.32093528,0.9266854,0.035430185,0.172264,0.028710667
809,8.09,-0.16229807,0.32093528,0.9266854,0.035430185,0.172264,0.028710667
810,8.1,-0.16229807,0.32093528,0.9266854,0.035430185,0.172264,0.028710667
811,8.11,-0.16229807,0.32093528,0.9266854,0.035430185,0.172264,0.028710667
812,8.12,-0.16229807,0.32093528,0.9266854,0.004361890560523208,0.12777984912065582,0.002232006821867822
813,8.13,-0.16229807,0.32093528,0.9266854,-0.018325957,0.095294975,-0.017104227
814,8.14,-0.16229807,0.32093528,0.9266854,-0.018325957,0.095294975,-0.017104227
815,8.15,-0.16229807,0.32093528,0.9266854,-0.018325957,0.095294975,-0.017104227
816,8.16,-0.16229807,0.32093528,0.9266854,-0.018325957,0.095294975,-0.017104227
817,8.17,-0.16229807,0.32093528,0.9266854,-0.018325957,0.095294975,-0.017104227
818,8.18,-0.16229807,0.32093528,0.9266854,-0.018325957,0.095294975,-0.017104227
819,8.19,-0.16229807,0.32093528,0.9266854,-0.018325957,0.095294975,-0.017104227
820,8.2,-0.16229807,0.32093528,0.9266854,-0.018325957,0.095294975,-0.017104227
821,8.21,-0.16229807,0.32093528,0.9266854,-0.018325957,0.095294975,-0.017104227
822,8.22,-0.16229807,0.32093528,0.9266854,-0.018325957,0.095294975,-0.017104227
823,8.23,-0.16229807,0.32093528,0.9266854,-0.018325957,0.095294975,-0.017104227
824,8.24,-0.16229807,0.32093528,0.9266854,-0.017829344967067007,0.07096098972209568,-0.017600838761944716
825,8.25,-0.16229807,0.32093528,0.9266854,-0.016145892801721348,0.008320966813142972,-0.013811665204394492
826,8.26,-0.16229807,0.32093528,0.9266854,-0.011994974960898429,0.042047182657587785,0.04741438335281117
827,8.27,-0.16229807,0.32093528,0.9266854,-0.04898384421325238,-0.11124159707959043,0.012685200205734295
828,8.28,-0.16229807,0.32093528,0.9266854,-0.07086037,-0.20280726,-0.010995574
829,8.29,-0.16229807,0.32093528,0.9266854,-0.07086037,-0.20280726,-0.010995574
830,8.3,-0.16229807,0.32093528,0.9266854,-0.07086037,-0.20280726,-0.010995574
831,8.31,-0.16229807,0.32093528,0.9266854,-0.07086037,-0.20280726,-0.010995574
832,8.32,-0.1791122263181462,0.32459052876880934,0.8795325980247796,-0.07086037,-0.20280726,-0.010995574
833,8.33,-0.18164985773928485,0.32323186507771956,0.8951209541360665,-0.07086037,-0.20280726,-0.010995574
834,8.34,-0.17889395,0.32093528,0.9230245,-0.07086037,-0.20280726,-0.010995574
835,8.35,-0.17889395,0.32093528,0.9230245,-0.07086037,-0.20280726,-0.010995574
836,8.36,-0.17889395,0.32093528,0.9230245,-0.06575463001358789,-0.19401020830546734,-0.010374605658379903
837,8.37,-0.17889395,0.32093528,0.9230245,0.006339152887211374,-0.06979457321230295,-0.0016064433688451276
838,8.38,-0.17889395,0.32093528,0.9230245,0.019547688,-0.047036625,0.0
839,8.39,-0.17889395,0.32093528,0.9230245,0.015246884709970517,0.07272421128351993,0.13696405106837115
840,8.4,-0.17889395,0.32093528,0.9230245,0.01160644,0.1740966,0.25289822
841,8.41,-0.17889395,0.32093528,0.9230245,0.01160644,0.1740966,0.25289822
842,8.42,-0.17889395,0.32093528,0.9230245,0.01160644,0.1740966,0.25289822
843,8.43,-0.17889395,0.32093528,0.9230245,0.01160644,0.1740966,0.25289822
844,8.44,-0.17889395,0.32093528,0.9230245,0.01160644,0.1740966,0.25289822
845,8.45,-0.17889395,0.32093528,0.9230245,0.01160644,0.1740966,0.25289822
846,8.46,-0.17889395,0.32093528,0.9230245,0.01160644,0.1740966,0.25289822
847,8.47,-0.17889395,0.32093528,0.9230245,0.01160644,0.1740966,0.25289822
848,8.48,-0.17889395,0.32093528,0.9230245,0.01147725175637863,0.14309145875201443,0.19644302542375094
849,8.49,-0.17889395,0.32093528,0.9230245,0.010995574,0.027488936,-0.014049901
850,8.5,-0.17889395,0.32093528,0.9230245,0.010995574,0.027488936,-0.014049901
851,8.51,-0.17889395,0.32093528,0.9230245,0.010995574,0.027488936,-0.014049901
852,8.52,-0.17889395,0.32093528,0.9230245,0.010995574,0.027488936,-0.014049901
853,8.53,-0.17889395,0.32093528,0.9230245,0.010995574,0.027488936,-0.014049901
854,8.54,-0.17889395,0.32093528,0.9230245,0.005013444701314968,0.021724338591642404,-0.016660284752243328
855,8.55,-0.17889395,0.32093528,0.9230245,-0.022602014,-0.004886922,-0.028710667
856,8.56,-0.17889395,0.32093528,0.9230245,-0.022602014,-0.004886922,-0.028710667
857,8.57,-0.17889395,0.32093528,0.9230245,-0.022602014,-0.004886922,-0.028710667
858,8.58,-0.17889395,0.32093528,0.9230245,-0.022602014,-0.004886922,-0.028710667
859,8.59,-0.17889395,0.32093528,0.9230245,-0.022602014,-0.004886922,-0.028710667
860,8.6,-0.17764866757660674,0.32342584727651574,0.9190514552678356,-0.022602014,-0.004886922,-0.028710667
861,8.61,-0.17257763493048792,0.33207317895048805,0.9075835540988588,-0.022602014,-0.004886922,-0.028710667
862,8.62,-0.1628625178974122,0.33931192620095596,0.9150127102781468,-0.022602014,-0.004886922,-0.028710667
863,8.63,-0.16593167156972288,0.33403901710613904,0.926233771812953,-0.022602014,-0.004886922,-0.028710667
864,8.64,-0.16815543,0.33094162,0.93107843,-0.022602014,-0.004886922,-0.028710667
865,8.65,-0.16815543,0.33094162,0.93107843,-0.022602014,-0.004886922,-0.028710667
866,8.66,-0.16815543,0.33094162,0.93107843,-0.022602014,-0.004886922,-0.028710667
867,8.67,-0.16815543,0.33094162,0.93107843,-0.022602014,-0.004886922,-0.028710667
868,8.68,-0.16815543,0.33094162,0.93107843,-0.022602014,-0.004886922,-0.028710667
869,8.69,-0.16815543,0.33094162,0.93107843,-0.022602014,-0.004886922,-0.028710667
870,8.7,-0.16815543,0.33094162,0.93107843,-0.004843249640168436,-0.025250305215299106,-0.03344633785773365
871,8.71,-0.16815543,0.33094162,0.93107843,0.02321288,-0.057421334,-0.040927973
872,8.72,-0.16780472168009555,0.3313667228807873,0.9304832861410791,0.02321288,-0.057421334,-0.040927973
873,8.73,-0.16069126582672646,0.33998913188563884,0.9184119170672249,0.02321288,-0.057421334,-0.040927973
874,8.74,-0.1604566343170241,0.34159162670427023,0.9216721500000757,0.02321288,-0.057421334,-0.040927973
875,8.75,-0.16058967,0.34192422,0.9232686,0.02321288,-0.057421334,-0.040927973
876,8.76,-0.16058967,0.34192422,0.9232686,0.02321288,-0.057421334,-0.040927973
877,8.77,-0.16215402898675907,0.33998440798510815,0.9238317526210195,0.02321288,-0.057421334,-0.040927973
878,8.78,-0.1666911,0.33435842,0.92546505,0.02321288,-0.057421334,-0.040927973
879,8.79,-0.1670466479504879,0.33370658343967846,0.9229959728557613,0.02321288,-0.057421334,-0.040927973
880,8.8,-0.1706304471577394,0.3271362984895549,0.898108537279144,0.02321288,-0.057421334,-0.040927973
881,8.81,-0.17108414,0.32630453,0.8949579,-3.2365012876198,1.3247376914077071,0.8001126384129317
882,8.82,-0.17108414,0.32630453,0.8949579,-4.723821,1.9553796,1.1838568
883,8.83,-0.17108414,0.32630453,0.8949579,-4.723821,1.9553796,1.1838568
884,8.84,-0.17108414,0.32630453,0.8949579,-4.723821,1.9553796,1.1838568
885,8.85,-0.17108414,0.32630453,0.8949579,-4.723821,1.9553796,1.1838568
886,8.86,-0.17108414,0.32630453,0.8949579,-4.723821,1.9553796,1.1838568
887,8.87,-0.17108414,0.32630453,0.8949579,-4.723821,1.9553796,1.1838568
888,8.88,-0.12796998293224796,0.29984655853264325,0.9084610534547328,-4.723821,1.9553796,1.1838568
889,8.89,-0.017572122,0.23209843,0.94303715,-3.960338889123939,1.6365077663871868,0.9904282232968268
890,8.9,-0.017572122,0.23209843,0.94303715,-0.21566999645997428,0.072529489664395,0.04171447635453452
891,8.91,-0.017572122,0.23209843,0.94303715,0.016493361,-0.02443461,-0.017104227
892,8.92,-0.017572122,0.23209843,0.94303715,0.016493361,-0.02443461,-0.017104227
893,8.93,-0.017572122,0.23209843,0.94303715,0.016493361,-0.02443461,-0.017104227
894,8.94,-0.017572122,0.23209843,0.94303715,0.016493361,-0.02443461,-0.017104227
895,8.95,-0.017572122,0.23209843,0.94303715,0.016493361,-0.02443461,-0.017104227
896,8.96,-0.017572122,0.23209843,0.94303715,-0.015192110910900813,-0.015062850506907406,-0.0059473702797032575
897,8.97,-0.017572122,0.23209843,0.94303715,-0.02687807,-0.01160644,-0.0018325958
898,8.98,-0.017572122,0.23209843,0.94303715,-0.02687807,-0.01160644,-0.0018325958
899,8.99,-0.017572122,0.23209843,0.94303715,-0.009340392525123817,-0.023775440415855418,0.0004938308181589115
900,9.0,-0.0462644356450851,0.24597788339281698,0.9360162792948189,0.032986723,-0.053145275,0.0061086523
901,9.01,-0.1819247737026124,0.3116014285211053,0.9028208491491497,0.032986723,-0.053145275,0.0061086523
902,9.02,-0.1901206,0.31556603,0.90081537,0.032986723,-0.053145275,0.0061086523
903,9.03,-0.1901206,0.31556603,0.90081537,0.032986723,-0.053145275,0.0061086523
904,9.04,-0.1901206,0.31556603,0.90081537,0.032986723,-0.053145275,0.0061086523
905,9.05,-0.1901206,0.31556603,0.90081537,0.03795362611476987,-0.05141464679614336,0.01022754750903788
906,9.06,-0.1901206,0.31556603,0.90081537,0.17590026630712952,-0.0033496170124442397,0.12462232072327413
907,9.07,-0.18098550605679345,0.3216044623586741,0.9084020887423525,0.20830505,0.007941248,0.15149458
908,9.08,-0.17572121,0.32508424,0.9127741,0.20830505,0.007941248,0.15149458
909,9.09,-0.17572121,0.32508424,0.9127741,0.20830505,0.007941248,0.15149458
910,9.1,-0.17572121,0.32508424,0.9127741,0.20830505,0.007941248,0.15149458
911,9.11,-0.17572121,0.32508424,0.9127741,0.20830505,0.007941248,0.15149458
912,9.12,-0.17572121,0.32508424,0.9127741,0.20830505,0.007941248,0.15149458
913,9.13,-0.17572121,0.32508424,0.9127741,0.20830505,0.007941248,0.15149458
914,9.14,-0.17572121,0.32508424,0.9127741,0.20830505,0.007941248,0.15149458
915,9.15,-0.17572121,0.32508424,0.9127741,0.18860571421550162,0.013219183197408745,0.13707317953460188
916,9.16,-0.17572121,0.32508424,0.9127741,0.04642576,0.05131268,0.032986723
917,9.17,-0.17572121,0.32508424,0.9127741,0.04642576,0.05131268,0.032986723
918,9.18,-0.18189148120778348,0.326781080225386,0.8867047419121218,0.04642576,0.05131268,0.032986723
919,9.19,-0.17847674243382358,0.3312183766319832,0.8971840072265728,0.04642576,0.05131268,0.032986723
920,9.2,-0.1696198,0.3355787,0.92961407,0.04642576,0.05131268,0.032986723
921,9.21,-0.1696198,0.3355787,0.92961407,0.04642576,0.05131268,0.032986723
922,9.22,-0.1696198,0.3355787,0.92961407,0.04642576,0.05131268,0.032986723
923,9.23,-0.1696198,0.3355787,0.92961407,0.04642576,0.05131268,0.032986723
924,9.24,-0.1696198,0.3355787,0.92961407,0.04642576,0.05131268,0.032986723
925,9.25,-0.1696198,0.3355787,0.92961407,0.013729193478528082,0.04332018657816701,0.01457976770784359
926,9.26,-0.1696198,0.3355787,0.92961407,-0.03604105,0.031154128,-0.013439035
927,9.27,-0.1696198,0.3355787,0.92961407,-0.03604105,0.031154128,-0.013439035
928,9.28,-0.1696198,0.3355787,0.92961407,-0.03604105,0.031154128,-0.013439035
929,9.29,-0.1696198,0.3355787,0.92961407,-0.03604105,0.031154128,-0.013439035
930,9.3,-0.1696198,0.3355787,0.92961407,-0.03604105,0.031154128,-0.013439035
931,9.31,-0.1696198,0.3355787,0.92961407,-0.03604105,0.031154128,-0.013439035
932,9.32,-0.1696198,0.3355787,0.92961407,-0.03604105,0.031154128,-0.013439035
933,9.33,-0.1696198,0.3355787,0.92961407,-0.03604105,0.031154128,-0.013439035
934,9.34,-0.1696198,0.3355787,0.92961407,-0.03604105,0.031154128,-0.013439035
935,9.35,0.3653695629154956,0.24453336655775232,0.6498964164882846,-0.03604105,0.031154128,-0.013439035
936,9.36,0.24260528167561554,0.2681025249005909,0.6981053339611134,-0.03604105,0.031154128,-0.013439035
937,9.37,-0.16034561,0.3392396,0.89349353,-0.03604105,0.031154128,-0.013439035
938,9.38,-0.16034561,0.3392396,0.89349353,-0.016885644847395468,0.03694904009562449,-0.004746666197785425
939,9.39,-0.16034561,0.3392396,0.89349353,0.036651913,0.053145275,0.019547688
940,9.4,-0.16034561,0.3392396,0.89349353,0.036651913,0.053145275,0.019547688
941,9.41,-0.16034561,0.3392396,0.89349353,0.036651913,0.053145275,0.019547688
942,9.42,-0.16034561,0.3392396,0.89349353,0.036651913,0.053145275,0.019547688
943,9.43,-0.16034561,0.3392396,0.89349353,0.023203020753722717,0.03390825184299951,0.01699410098104373
944,9.44,-0.16034561,0.3392396,0.89349353,0.2870766477409758,-0.08601778569290389,-0.24532531013212305
945,9.45,-0.16034561,0.3392396,0.89349353,2.653575449433521,-0.6417073638003647,-2.2713437927997244
946,9.46,-0.16034561,0.3392396,0.89349353,3.5888333,-0.86132,-3.0720413
947,9.47,-0.16034561,0.3392396,0.89349353,3.5888333,-0.86132,-3.0720413
948,9.48,-0.15886191630846785,0.34010109298379027,0.8975617300977214,3.5888333,-0.86132,-3.0720413
949,9.49,-0.15285968791051832,0.3435862312447749,0.914019484346086,3.5888333,-0.86132,-3.0720413
950,9.5,-0.15277983,0.3436326,0.91423845,3.5888333,-0.86132,-3.0720413
951,9.51,-0.15277983,0.3436326,0.91423845,3.5888333,-0.86132,-3.0720413
952,9.52,-0.15277983,0.3436326,0.91423845,3.5888333,-0.86132,-3.0720413
953,9.53,-0.15277983,0.3436326,0.91423845,3.5888333,-0.86132,-3.0720413
954,9.54,-0.15277983,0.3436326,0.91423845,3.5888333,-0.86132,-3.0720413
955,9.55,-0.15277983,0.3436326,0.91423845,3.2489591037712575,-0.781992993462697,-2.7835742277813247
956,9.56,-0.15277983,0.3436326,0.91423845,0.03626708912685865,-0.03214718793848063,-0.0568127681350613
957,9.57,-0.15277983,0.3436326,0.91423845,-0.017715093,-0.019547688,-0.010995574
958,9.58,-0.15277983,0.3436326,0.91423845,-0.017715093,-0.019547688,-0.010995574
959,9.59,-0.15277983,0.3436326,0.91423845,-0.017715093,-0.019547688,-0.010995574
960,9.6,-0.15277983,0.3436326,0.91423845,-0.017715093,-0.019547688,-0.010995574
961,9.61,-0.15404777695079583,0.3429751467381719,0.9153185586593545,-0.017715093,-0.019547688,-0.010995574
962,9.62,-0.15927423887039027,0.34026513238410067,0.9197707534247567,-0.017715093,-0.019547688,-0.010995574
963,9.63,-0.15936938,0.3402158,0.9198518,-0.017715093,-0.019547688,-0.010995574
964,9.64,-0.15936938,0.3402158,0.9198518,-0.017715093,-0.019547688,-0.010995574
965,9.65,-0.282460132657253,0.42640538433282466,0.7189165326785594,-0.017715093,-0.019547688,-0.010995574
966,9.66,-0.38975942,0.5015376,0.5437595,-0.017715093,-0.019547688,-0.010995574
967,9.67,-0.38975942,0.5015376,0.5437595,-0.017715093,-0.019547688,-0.010995574
968,9.68,-0.38975942,0.5015376,0.5437595,-0.017715093,-0.019547688,-0.010995574
969,9.69,-0.38975942,0.5015376,0.5437595,-0.017715093,-0.019547688,-0.010995574
970,9.7,-0.38975942,0.5015376,0.5437595,0.0035142751214655016,-0.024501206938734053,0.009172324991372483
971,9.71,-0.2954339397493518,0.4206249020066002,0.7084201893786245,0.018936822,-0.028099801,0.023823744
972,9.72,-0.1786499,0.32044718,0.912286,0.018936822,-0.028099801,0.023823744
973,9.73,-0.18044683444378978,0.3197087139836528,0.9116952288006764,0.017211695966142505,-0.029578480425893398,0.02437824899903675
974,9.74,-0.19481124122971852,0.31380553465896727,0.906972698241021,0.0034213141339247367,-0.0413988074572568,0.02881087334909163
975,9.75,-0.19646609,0.31312546,0.90642864,0.0018325958,-0.042760566,0.029321533
976,9.76,-0.009549824885386742,0.19397242183059157,0.9686800068312861,-0.004659597753354024,0.006742407868205701,0.03337915372175567
977,9.77,0.084931925,0.13374338,1.0001466,-0.007941248,0.03176499,0.035430185
978,9.78,0.084931925,0.13374338,1.0001466,-0.007941248,0.03176499,0.035430185
979,9.79,0.084931925,0.13374338,1.0001466,-0.007941248,0.03176499,0.035430185
980,9.8,0.084931925,0.13374338,1.0001466,-0.007941248,0.03176499,0.035430185
981,9.81,0.084931925,0.13374338,1.0001466,-0.007941248,0.03176499,0.035430185
982,9.82,0.084931925,0.13374338,1.0001466,-0.007941248,0.03176499,0.035430185
983,9.83,0.020942099214218312,0.1808142709147884,0.9846778497846221,-0.007941248,0.03176499,0.035430185
984,9.84,-0.17352471,0.32386398,0.9376679,-0.007941248,0.03176499,0.035430185
985,9.85,-0.17352471,0.32386398,0.9376679,-0.007941248,0.03176499,0.035430185
986,9.86,-0.18649286064391812,0.31753429231867114,0.9245454091580307,-0.007941248,0.03176499,0.035430185
987,9.87,-0.18601812783625749,0.32060069345251435,0.9071245958649652,-0.007941248,0.03176499,0.035430185
988,9.88,-0.17547716,0.32947728,0.8942258,-0.007941248,0.03176499,0.035430185
989,9.89,-0.17544997883795166,0.3294500988379516,0.8947452597606045,-0.008493072724615885,0.03050259652310273,0.0352412039280614
990,9.9,-0.17369754928950767,0.32769766928950766,0.9282359777840687,-0.044070431457811504,-0.05088669900236157,0.023057176844418648
991,9.91,-0.17328064,0.32728076,0.93620354,-0.052534413,-0.070249505,0.020158553
992,9.92,-0.17328064,0.32728076,0.93620354,-0.018914073717591403,-0.0022177602988877002,0.007105951229305014
993,9.93,-0.17328064,0.32728076,0.93620354,-0.00061086525,0.03481932,0.0
994,9.94,-0.17328064,0.32728076,0.93620354,-0.00061086525,0.03481932,0.0
995,9.95,-0.17641178315934755,0.32573663571379646,0.9302415245772412,-0.00061086525,0.03481932,0.0
996,9.96,-0.19096870780612582,0.3185578835023487,0.9025236577039444,-0.00061086525,0.03481932,0.0
997,9.97,-0.19109683,0.3184947,0.9022797,-0.0390871375855489,-0.012144368126155023,-0.011316551299900468
998,9.98,-0.19109683,0.3184947,0.9022797,-0.0421497,-0.015882496,-0.012217305
999,9.99,-0.19109683,0.3184947,0.9022797,-0.0421497,-0.015882496,-0.012217305
