id,timestamp,acc_x,acc_y,acc_z,gyro_x,gyro_y,gyro_z
0,0.0,,,,,,
1,0.01,-0.25552794,-0.12837411,0.95694846,0.021966610347408138,-0.03312657258581365,0.0070097033133563
2,0.02,-0.25552794,-0.12837411,0.95694846,0.031154128,-0.013439035,0.01038471
3,0.03,-0.25552794,-0.12837411,0.95694846,0.031154128,-0.013439035,0.01038471
4,0.04,-0.25505952203463333,-0.1276166685051378,0.9576610530900748,0.031154128,-0.013439035,0.01038471
5,0.05,-0.2363332329480383,-0.09733587347228709,0.986148910500506,0.031154128,-0.013439035,0.01038471
6,0.06,-0.23258655,-0.09127741,0.99184865,0.031154128,-0.013439035,0.01038471
7,0.07,-0.23258655,-0.09127741,0.99184865,0.031154128,-0.013439035,0.01038471
8,0.08,-0.23258655,-0.09127741,0.99184865,0.031154128,-0.013439035,0.01038471
9,0.09,-0.23258655,-0.09127741,0.99184865,0.031154128,-0.013439035,0.01038471
10,0.1,-0.23258655,-0.09127741,0.99184865,0.031154128,-0.013439035,0.01038471
11,0.11,-0.23258655,-0.09127741,0.99184865,-0.02645993719884461,-0.044195417360263736,-0.015173409404289556
12,0.12,-0.0162001918067627,0.2365479403318511,0.9345063012402766,-0.05009095,-0.05681047,-0.02565634
13,0.13,0.10909359,0.42636803,0.90130347,-0.05009095,-0.05681047,-0.02565634
14,0.14,0.10909359,0.42636803,0.90130347,-0.05009095,-0.05681047,-0.02565634
15,0.15,0.10909359,0.42636803,0.90130347,-0.05009095,-0.05681047,-0.02565634
16,0.16,0.10909359,0.42636803,0.90130347,-0.05009095,-0.05681047,-0.02565634
17,0.17,0.10909359,0.42636803,0.90130347,-0.05009095,-0.05681047,-0.02565634
18,0.18,0.10909359,0.42636803,0.90130347,-0.05009095,-0.05681047,-0.02565634
19,0.19,0.10909359,0.42636803,0.90130347,-0.024284222799820187,-0.04420718384633169,-0.014053315494295051
20,0.2,0.10909359,0.42636803,0.90130347,0.028710667,-0.018325957,0.009773844
21,0.21,0.10909359,0.42636803,0.90130347,0.028710667,-0.018325957,0.009773844
22,0.22,0.10909359,0.42636803,0.90130347,0.028710667,-0.018325957,0.009773844
23,0.23,-0.201728739754678,0.03935750839602899,0.8089831207124354,0.028710667,-0.018325957,0.009773844
24,0.24,-0.36584184,-0.16498269,0.7602383,0.028710667,-0.018325957,0.009773844
25,0.25,-0.36584184,-0.16498269,0.7602383,0.028710667,-0.018325957,0.009773844
26,0.26,-0.36584184,-0.16498269,0.7602383,0.028710667,-0.018325957,0.009773844
27,0.27,-0.36584184,-0.16498269,0.7602383,0.028710667,-0.018325957,0.009773844
28,0.28,-0.36584184,-0.16498269,0.7602383,0.028710667,-0.018325957,0.009773844
29,0.29,-0.32170440340298856,-0.11414084373797546,0.8827336579756764,0.028710667,-0.018325957,0.009773844
30,0.3,-0.28871974,-0.07614586,0.97427654,0.028710667,-0.018325957,0.009773844
31,0.31,-0.28871974,-0.07614586,0.97427654,-0.25243704066929984,-0.16798304009226392,0.09606455584614941
32,0.32,-0.28871974,-0.07614586,0.97427654,-0.7654142,-0.44104472,0.25350907
33,0.33,-0.28871974,-0.07614586,0.97427654,-0.7654142,-0.44104472,0.25350907
34,0.34,-0.28871974,-0.07614586,0.97427654,-0.7654142,-0.44104472,0.25350907
35,0.35,-0.28871974,-0.07614586,0.97427654,-0.7654142,-0.44104472,0.25350907
36,0.36,-0.28871974,-0.07614586,0.97427654,-0.7654142,-0.44104472,0.25350907
37,0.37,-0.28871974,-0.07614586,0.97427654,-0.7654142,-0.44104472,0.25350907
38,0.38,-0.28871974,-0.07614586,0.97427654,-0.4633614820334464,-0.2806154948225173,0.18246516261192522
39,0.39,-0.28871974,-0.07614586,0.97427654,0.029321533,-0.018936822,0.06658431
40,0.4,-0.28871974,-0.07614586,0.97427654,0.029321533,-0.018936822,0.06658431
41,0.41,-0.28871974,-0.07614586,0.97427654,0.029321533,-0.018936822,0.06658431
42,0.42,-0.28871974,-0.07614586,0.97427654,-0.009029859636023213,-0.028990100338164945,0.06323321783014647
43,0.43,-0.28871974,-0.07614586,0.97427654,-0.096516706,-0.051923547,0.055588737
44,0.44,-0.28871974,-0.07614586,0.97427654,-0.096516706,-0.051923547,0.055588737
45,0.45,-0.28871974,-0.07614586,0.97427654,-0.096516706,-0.051923547,0.055588737
46,0.46,-0.28871974,-0.07614586,0.97427654,-0.096516706,-0.051923547,0.055588737
47,0.47,-0.27788232322007933,-0.07686835642555953,0.9635113734547047,-0.096516706,-0.051923547,0.055588737
48,0.48,-0.25211114,-0.07858644,0.937912,-0.096516706,-0.051923547,0.055588737
49,0.49,-0.25211114,-0.07858644,0.937912,-0.096516706,-0.051923547,0.055588737
50,0.5,-0.25211114,-0.07858644,0.937912,-0.096516706,-0.051923547,0.055588737
51,0.51,-0.25211114,-0.07858644,0.937912,-0.096516706,-0.051923547,0.055588737
52,0.52,-0.25211114,-0.07858644,0.937912,-0.096516706,-0.051923547,0.055588737
53,0.53,-0.25211114,-0.07858644,0.937912,-0.096516706,-0.051923547,0.055588737
54,0.54,-0.25139083709864074,-0.0788951406411193,0.9413420118082618,-0.096516706,-0.051923547,0.055588737
55,0.55,-0.24730991849039408,-0.08064410234645761,0.9607749461868784,-0.096516706,-0.051923547,0.055588737
56,0.56,-0.25687270711693416,-0.08136452360180203,0.9508800408200444,-0.096516706,-0.051923547,0.055588737
57,0.57,-0.25504489543321457,-0.07975994057051518,0.9419214509330982,-0.096516706,-0.051923547,0.055588737
58,0.58,-0.22808902065935563,0.018319816717595045,0.8977388106482627,-0.07886257841792152,-0.029919850264056292,0.05865902022164805
59,0.59,-0.19475769,0.15277983,0.84199744,0.026198725230540638,-0.01599055823945383,-0.020739029069060694
60,0.6,-0.19475769,0.15277983,0.84199744,0.24801129,-0.06169739,-0.2510656
61,0.61,-0.19475769,0.15277983,0.84199744,0.24801129,-0.06169739,-0.2510656
62,0.62,-0.19475769,0.15277983,0.84199744,0.24801129,-0.06169739,-0.2510656
63,0.63,-0.19475769,0.15277983,0.84199744,0.9059692785619005,0.06373273229903556,-0.36714348820365944
64,0.64,-0.19475769,0.15277983,0.84199744,0.13887521787529247,-0.009173134503832706,-0.049721543539635454
65,0.65,-0.23301732733702124,0.007636093175085208,0.9210977641922126,-0.09162979,-0.032986723,0.040927973
66,0.66,-0.2562601,-0.08053889,0.9691513,-0.09162979,-0.032986723,0.040927973
67,0.67,-0.2562601,-0.08053889,0.9691513,-0.09162979,-0.032986723,0.040927973
68,0.68,-0.2562601,-0.08053889,0.9691513,-0.09162979,-0.032986723,0.040927973
69,0.69,-0.2562601,-0.08053889,0.9691513,-0.09162979,-0.032986723,0.040927973
70,0.7,-0.2562601,-0.08053889,0.9691513,-0.09162979,-0.032986723,0.040927973
71,0.71,-0.17739244890130737,0.023800619553280673,0.9574412664551507,-0.0700858627672934,-0.014949947670622772,0.034790458604494576
72,0.72,0.1132925734486163,0.4083680847174389,0.9142812215535561,0.009319278401520541,0.05152877163572011,0.012169225635378714
73,0.73,0.12837411,0.4283205,0.91204196,0.013439035,0.05497787,0.010995574
74,0.74,0.12837411,0.4283205,0.91204196,0.013439035,0.05497787,0.010995574
75,0.75,-0.08772941968229919,0.1352177776446616,0.9409868753456516,0.013439035,0.05497787,0.010995574
76,0.76,-0.24698594,-0.08078295,0.9623177,0.013439035,0.05497787,0.010995574
77,0.77,-0.24698594,-0.08078295,0.9623177,0.013439035,0.05497787,0.010995574
78,0.78,-0.24698594,-0.08078295,0.9623177,0.013439035,0.05497787,0.010995574
79,0.79,-0.24698594,-0.08078295,0.9623177,0.013439035,0.05497787,0.010995574
80,0.8,-0.24698594,-0.08078295,0.9623177,0.013439035,0.05497787,0.010995574
81,0.81,-0.24698594,-0.08078295,0.9623177,0.013439035,0.05497787,0.010995574
82,0.82,-0.24698594,-0.08078295,0.9623177,0.013439035,0.05497787,0.010995574
83,0.83,-0.24698594,-0.08078295,0.9623177,0.013439035,0.05497787,0.010995574
84,0.84,-0.24698594,-0.08078295,0.9623177,0.013439035,0.05497787,0.010995574
85,0.85,-0.24698594,-0.08078295,0.9623177,0.013439035,0.05497787,0.010995574
86,0.86,-0.24698594,-0.08078295,0.9623177,0.013439035,0.05497787,0.010995574
87,0.87,-0.24698594,-0.08078295,0.9623177,0.013439035,0.05497787,0.010995574
88,0.88,-0.24698594,-0.08078295,0.9623177,0.013439035,0.05497787,0.010995574
89,0.89,-0.24698594,-0.08078295,0.9623177,0.013439035,0.05497787,0.010995574
90,0.9,-0.24698594,-0.08078295,0.9623177,0.013439035,0.05497787,0.010995574
91,0.91,-0.24698594,-0.08078295,0.9623177,0.013439035,0.05497787,0.010995574
92,0.92,-0.24698594,-0.08078295,0.9623177,0.013439035,0.05497787,0.010995574
93,0.93,-0.24698594,-0.08078295,0.9623177,0.013439035,0.05497787,0.010995574
94,0.94,-0.24698594,-0.08078295,0.9623177,0.013439035,0.05497787,0.010995574
95,0.95,-0.24698594,-0.08078295,0.9623177,0.013439035,0.05497787,0.010995574
96,0.96,-0.24698594,-0.08078295,0.9623177,0.013439035,0.05497787,0.010995574
97,0.97,-0.24698594,-0.08078295,0.9623177,0.013439035,0.05497787,0.010995574
98,0.98,-0.24698594,-0.08078295,0.9623177,0.013439035,0.05497787,0.010995574
99,0.99,-0.03267832493811481,0.25299499559583527,0.9108962036883037,0.013439035,0.05497787,0.010995574
100,1.0,-0.10521717028239447,0.1619881115325783,0.9010794543903515,0.013439035,0.05497787,0.010995574
101,1.01,-0.27895743,-0.08932495,0.9188756,0.013439035,0.05497787,0.010995574
102,1.02,-0.27895743,-0.08932495,0.9188756,0.027668995058440858,0.03878116790094953,0.021407739905658595
103,1.03,-0.27895743,-0.08932495,0.9188756,0.08857546,-0.030543262,0.065973446
104,1.04,-0.27895743,-0.08932495,0.9188756,0.08857546,-0.030543262,0.065973446
105,1.05,-0.27895743,-0.08932495,0.9188756,0.08857546,-0.030543262,0.065973446
106,1.06,-0.27895743,-0.08932495,0.9188756,0.08857546,-0.030543262,0.065973446
107,1.07,-0.27895743,-0.08932495,0.9188756,0.08857546,-0.030543262,0.065973446
108,1.08,-0.28573743891334047,-0.08847744869710694,0.9285665789801395,0.08857546,-0.030543262,0.065973446
109,1.09,-0.32386398,-0.08371163,0.9830626,0.08857546,-0.030543262,0.065973446
110,1.1,-0.32386398,-0.08371163,0.9830626,0.08857546,-0.030543262,0.065973446
111,1.11,-0.32386398,-0.08371163,0.9830626,0.941042363155755,0.6107894502553012,1.8472328045886137
112,1.12,-0.32386398,-0.08371163,0.9830626,1.1392636,0.75991637,2.261423
113,1.13,-0.32386398,-0.08371163,0.9830626,1.1392636,0.75991637,2.261423
114,1.14,-0.30374857184358106,-0.08509609355973459,0.9598525187993272,1.1392636,0.75991637,2.261423
115,1.15,-0.26358184,-0.08786061,0.9135063,1.1392636,0.75991637,2.261423
116,1.16,-0.26358184,-0.08786061,0.9135063,1.1392636,0.75991637,2.261423
117,1.17,-0.26358184,-0.08786061,0.9135063,-0.018108233868238097,0.07450239454332891,0.7104116719357874
118,1.18,-0.3136393515883522,-0.09178361181044069,0.8628210366243446,-0.24190263,-0.0580322,0.41050145
119,1.19,-0.3414361,-0.09396204,0.8346757,-0.24190263,-0.0580322,0.41050145
120,1.2,-0.3414361,-0.09396204,0.8346757,-0.24190263,-0.0580322,0.41050145
121,1.21,-0.3414361,-0.09396204,0.8346757,-0.24190263,-0.0580322,0.41050145
122,1.22,-0.3414361,-0.09396204,0.8346757,-0.24190263,-0.0580322,0.41050145
123,1.23,-0.3414361,-0.09396204,0.8346757,-0.24190263,-0.0580322,0.41050145
124,1.24,-0.3414361,-0.09396204,0.8346757,-0.24190263,-0.0580322,0.41050145
125,1.25,-0.30251967574895267,-0.09688077256627935,0.9630999548415144,-0.24190263,-0.0580322,0.41050145
126,1.26,-0.28427913983906444,-0.09629083382580193,1.0136975172100848,-0.24190263,-0.0580322,0.41050145
127,1.27,-0.32996538,-0.08859278,0.84199744,-0.24190263,-0.0580322,0.41050145
128,1.28,-0.32996538,-0.08859278,0.84199744,-0.24190263,-0.0580322,0.41050145
129,1.29,-0.32996538,-0.08859278,0.84199744,-0.24190263,-0.0580322,0.41050145
130,1.3,-0.32996538,-0.08859278,0.84199744,-0.24190263,-0.0580322,0.41050145
131,1.31,-0.32996538,-0.08859278,0.84199744,-0.24190263,-0.0580322,0.41050145
132,1.32,-0.32996538,-0.08859278,0.84199744,-0.24190263,-0.0580322,0.41050145
133,1.33,-0.32996538,-0.08859278,0.84199744,-0.24190263,-0.0580322,0.41050145
134,1.34,-0.2817373636719391,-0.1032019967828511,0.8367169835157332,-0.24190263,-0.0580322,0.41050145
135,1.35,-0.2630937,-0.10884953,0.8346757,-0.24190263,-0.0580322,0.41050145
136,1.36,-0.2630937,-0.10884953,0.8346757,-0.24190263,-0.0580322,0.41050145
137,1.37,-0.2649739358485529,-0.10187097516383993,0.8500249122342072,-0.24190263,-0.0580322,0.41050145
138,1.38,-0.2849976016803654,-0.02755250594850418,1.0134871166145147,-0.24190263,-0.0580322,0.41050145
139,1.39,-0.2884757,-0.014643434,1.0418804,-0.24190263,-0.0580322,0.41050145
140,1.4,-0.2884757,-0.014643434,1.0418804,-0.24190263,-0.0580322,0.41050145
141,1.41,-0.2884757,-0.014643434,1.0418804,-0.04596561424906074,0.10349853639178593,0.32024084202620967
142,1.42,-0.2884757,-0.014643434,1.0418804,0.2938262,0.38362336,0.16371189
143,1.43,-0.2884757,-0.014643434,1.0418804,0.2938262,0.38362336,0.16371189
144,1.44,-0.2884757,-0.014643434,1.0418804,0.2938262,0.38362336,0.16371189
145,1.45,-0.2884757,-0.014643434,1.0418804,0.2938262,0.38362336,0.16371189
146,1.46,-0.2884757,-0.014643434,1.0418804,0.2938262,0.38362336,0.16371189
147,1.47,-0.26740371302972527,-0.06505087300057026,0.959796103597148,0.14525159423280565,0.2088500005963151,0.12786094086388924
148,1.48,-0.2511349,-0.10396838,0.8964222,0.030543262,0.07391469,0.1001819
149,1.49,-0.2511349,-0.10396838,0.8964222,0.030543262,0.07391469,0.1001819
150,1.5,-0.2511349,-0.10396838,0.8964222,0.029073509672998026,0.08838609946360736,0.12584603727093147
151,1.51,-0.2511349,-0.10396838,0.8964222,0.022746961988111224,0.1506782696184167,0.23631729508293584
152,1.52,-0.2511349,-0.10396838,0.8964222,0.022602014,0.15210545,0.23884831
153,1.53,-0.2511349,-0.10396838,0.8964222,0.022602014,0.15210545,0.23884831
154,1.54,-0.2511349,-0.10396838,0.8964222,0.022602014,0.15210545,0.23884831
155,1.55,-0.2511349,-0.10396838,0.8964222,0.022602014,0.15210545,0.23884831
156,1.56,-0.2511349,-0.10396838,0.8964222,0.022602014,0.15210545,0.23884831
157,1.57,-0.24544442720530998,-0.115483751439664,0.8920311360892395,0.022602014,0.15210545,0.23884831
158,1.58,-0.22147445467801444,-0.16398993836105943,0.8735346622277452,0.022602014,0.15210545,0.23884831
159,1.59,-0.22013964,-0.1666911,0.87250465,0.022602014,0.15210545,0.23884831
160,1.6,-0.22013964,-0.1666911,0.87250465,0.022602014,0.15210545,0.23884831
161,1.61,-0.2510673966088163,-0.15638184779706124,0.8923177419118412,0.022602014,0.15210545,0.23884831
162,1.62,-0.26699865,-0.15107143,0.9025237,0.022602014,0.15210545,0.23884831
163,1.63,-0.26699865,-0.15107143,0.9025237,0.022602014,0.15210545,0.23884831
164,1.64,-0.26699865,-0.15107143,0.9025237,0.020869241989635905,0.1505074490920674,0.23901196070317518
165,1.65,-0.26699865,-0.15107143,0.9025237,-0.06319401069567933,0.07298244677703397,0.2469512685468265
166,1.66,-0.26699865,-0.15107143,0.9025237,-0.08735373,0.050701816,0.24923302
167,1.67,-0.26699865,-0.15107143,0.9025237,-0.08735373,0.050701816,0.24923302
168,1.68,-0.26699865,-0.15107143,0.9025237,-0.06824870349131346,0.023125692987677228,0.17335362234060733
169,1.69,-0.26699865,-0.15107143,0.9025237,-0.022602014,-0.042760566,-0.007941248
170,1.7,-0.26699865,-0.15107143,0.9025237,-0.022602014,-0.042760566,-0.007941248
171,1.71,-0.26699865,-0.15107143,0.9025237,-0.022602014,-0.042760566,-0.007941248
172,1.72,-0.013752736165323038,0.21707159737023535,0.9023663435681271,-0.06830010884325192,-0.021487316520061705,0.17918456241151598
173,1.73,0.12568948,0.41977844,0.9022797,-0.093462385,-0.009773844,0.28221974
174,1.74,0.12568948,0.41977844,0.9022797,-0.093462385,-0.009773844,0.28221974
175,1.75,0.12568948,0.41977844,0.9022797,-0.093462385,-0.009773844,0.28221974
176,1.76,0.12568948,0.41977844,0.9022797,-0.093462385,-0.009773844,0.28221974
177,1.77,0.12568948,0.41977844,0.9022797,-0.20618654023657637,0.07704193233803712,0.1490416137585418
178,1.78,0.12568948,0.41977844,0.9022797,-0.24495697,0.106901415,0.10323623
179,1.79,0.12568948,0.41977844,0.9022797,-0.24495697,0.106901415,0.10323623
180,1.8,0.12568948,0.41977844,0.9022797,-0.24495697,0.106901415,0.10323623
181,1.81,0.12568948,0.41977844,0.9022797,-0.24495697,0.106901415,0.10323623
182,1.82,0.12568948,0.41977844,0.9022797,-0.24495697,0.106901415,0.10323623
183,1.83,0.12568948,0.41977844,0.9022797,-0.24495697,0.106901415,0.10323623
184,1.84,-0.08027669464968255,0.1296607450858114,0.9210490752905083,-0.24495697,0.106901415,0.10323623
185,1.85,-0.27871338,-0.14985114,0.9391323,-0.24495697,0.106901415,0.10323623
186,1.86,-0.2717269755983939,-0.15164684318107355,0.9318372569046783,-0.24495697,0.106901415,0.10323623
187,1.87,-0.21794313,-0.16547081,0.8756774,-0.24495697,0.106901415,0.10323623
188,1.88,-0.21794313,-0.16547081,0.8756774,-0.24495697,0.106901415,0.10323623
189,1.89,-0.26716646830176605,-0.14931643545142154,0.9425755733110848,-0.24495697,0.106901415,0.10323623
190,1.9,-0.28115395,-0.14472595,0.9615856,-0.23669127904922596,0.051651801112406824,0.11193695641702842
191,1.91,-0.28115395,-0.14472595,0.9615856,-0.23335053,0.029321533,0.115453534
192,1.92,-0.28115395,-0.14472595,0.9615856,-0.23335053,0.029321533,0.115453534
193,1.93,-0.28191700048203244,-0.14409755040070057,0.9684081995239263,-0.23335053,0.029321533,0.115453534
194,1.94,-0.2853029,-0.14130914,0.99868226,-0.23335053,0.029321533,0.115453534
195,1.95,-0.2853029,-0.14130914,0.99868226,-0.23335053,0.029321533,0.115453534
196,1.96,-0.2853029,-0.14130914,0.99868226,-0.23335053,0.029321533,0.115453534
197,1.97,-0.2853029,-0.14130914,0.99868226,-0.23335053,0.029321533,0.115453534
198,1.98,-0.2853029,-0.14130914,0.99868226,-0.23335053,0.029321533,0.115453534
199,1.99,-0.28754929897451076,-0.14174594022672674,0.997434262274226,-0.23335053,0.029321533,0.115453534
200,2.0,-0.18980307175616118,-0.3146048521642832,0.8933527482856629,-0.23335053,0.029321533,0.115453534
201,2.01,0.23649146,-1.0160104,0.48274526,-0.23335053,0.029321533,0.115453534
202,2.02,0.23649146,-1.0160104,0.48274526,-0.23335053,0.029321533,0.115453534
203,2.03,0.23649146,-1.0160104,0.48274526,-0.23335053,0.029321533,0.115453534
204,2.04,0.23649146,-1.0160104,0.48274526,-0.23335053,0.029321533,0.115453534
205,2.05,0.010713031304395222,-0.6155954850369276,0.6569510411223712,-0.23335053,0.029321533,0.115453534
206,2.06,-0.27529657,-0.10836142,0.8776299,-0.23335053,0.029321533,0.115453534
207,2.07,-0.27529657,-0.10836142,0.8776299,-0.23335053,0.029321533,0.115453534
208,2.08,-0.27529657,-0.10836142,0.8776299,-0.2240545107517431,0.0216435925639516,0.11145592845154992
209,2.09,-0.27529657,-0.10836142,0.8776299,-0.08145843305404904,-0.09613200167035657,0.050134748259457615
210,2.1,-0.27529657,-0.10836142,0.8776299,-0.054367006,-0.118507855,0.03848451
211,2.11,-0.27529657,-0.10836142,0.8776299,0.4080632818515057,-0.09394000917382832,-0.12596156866711739
212,2.12,-0.27529657,-0.10836142,0.8776299,0.6585127,-0.080634214,-0.21502456
213,2.13,-0.27529657,-0.10836142,0.8776299,0.3310331866431449,-0.022344977345056413,-0.11142869242390963
214,2.14,-0.2855816134738786,-0.10656932694394367,0.8776299,-0.096516706,0.05375614,0.023823744
215,2.15,-0.30751213,-0.102748096,0.8776299,-0.096516706,0.05375614,0.023823744
216,2.16,-0.30751213,-0.102748096,0.8776299,-0.096516706,0.05375614,0.023823744
217,2.17,-0.30751213,-0.102748096,0.8776299,-0.096516706,0.05375614,0.023823744
218,2.18,-0.30751213,-0.102748096,0.8776299,-0.096516706,0.05375614,0.023823744
219,2.19,-0.30751213,-0.102748096,0.8776299,-0.096516706,0.05375614,0.023823744
220,2.2,-0.30751213,-0.102748096,0.8776299,-0.096516706,0.05375614,0.023823744
221,2.21,-0.30751213,-0.102748096,0.8776299,-0.096516706,0.05375614,0.023823744
222,2.22,-0.30751213,-0.102748096,0.8776299,-0.096516706,0.05375614,0.023823744
223,2.23,-0.30751213,-0.102748096,0.8776299,-0.096516706,0.05375614,0.023823744
224,2.24,-0.2957051764134453,-0.11525644799900424,0.9406392384998329,-0.096516706,0.05375614,0.023823744
225,2.25,-0.3063332547766062,-0.1291259383560267,1.0353507123928545,-0.096516706,0.05375614,0.023823744
226,2.26,-0.36974674,-0.12983845,1.1060674,-0.096516706,0.05375614,0.023823744
227,2.27,-0.36974674,-0.12983845,1.1060674,-0.096516706,0.05375614,0.023823744
228,2.28,-0.32186970399163095,-0.10485914169856532,1.074362907440913,-0.096516706,0.05375614,0.023823744
229,2.29,-0.2967736,-0.09176553,1.0577441,-0.096516706,0.05375614,0.023823744
230,2.3,-0.31912658824462875,0.02282291315837751,0.9995479444458821,-0.096516706,0.05375614,0.023823744
231,2.31,-0.36632994,0.26480213,0.8766537,-0.096516706,0.05375614,0.023823744
232,2.32,-0.36632994,0.26480213,0.8766537,-0.096516706,0.05375614,0.023823744
233,2.33,-0.36632994,0.26480213,0.8766537,-0.096516706,0.05375614,0.023823744
234,2.34,-0.11868762825769565,0.330600802959997,0.8886170353698093,-0.096516706,0.05375614,0.023823744
235,2.35,-0.02845341718116692,0.21890968613540265,0.9229122884355166,-0.096516706,0.05375614,0.023823744
236,2.36,-0.3619369,-0.14008886,0.9664667,-0.096516706,0.05375614,0.023823744
237,2.37,-0.3619369,-0.14008886,0.9664667,-0.096516706,0.05375614,0.023823744
238,2.38,-0.3619369,-0.14008886,0.9664667,-0.096516706,0.05375614,0.023823744
239,2.39,-0.3619369,-0.14008886,0.9664667,-0.096516706,0.05375614,0.023823744
240,2.4,-0.3619369,-0.14008886,0.9664667,-0.096516706,0.05375614,0.023823744
241,2.41,-0.3619369,-0.14008886,0.9664667,-0.096516706,0.05375614,0.023823744
242,2.42,-0.3549544019465054,-0.14418436207889465,0.9631097395161711,-0.096516706,0.05375614,0.023823744
243,2.43,-0.33655494,-0.15497635,0.95426387,-0.096516706,0.05375614,0.023823744
244,2.44,-0.33655494,-0.15497635,0.95426387,-0.096516706,0.05375614,0.023823744
245,2.45,-0.33655494,-0.15497635,0.95426387,-0.096516706,0.05375614,0.023823744
246,2.46,-0.33655494,-0.15497635,0.95426387,-0.096516706,0.05375614,0.023823744
247,2.47,-0.33655494,-0.15497635,0.95426387,-0.096516706,0.05375614,0.023823744
248,2.48,-0.33655494,-0.15497635,0.95426387,-0.0940125308317475,0.05455292338922208,0.021319568440441982
249,2.49,-0.33655494,-0.15497635,0.95426387,-0.07003201994364332,0.06218308959442189,-0.0026609461948866454
250,2.5,-0.33655494,-0.15497635,0.95426387,-0.06963864,0.062308256,-0.0030543262
251,2.51,-0.33655494,-0.15497635,0.95426387,-0.06963864,0.062308256,-0.0030543262
252,2.52,-0.33655494,-0.15497635,0.95426387,-0.06963864,0.062308256,-0.0030543262
253,2.53,-0.33655494,-0.15497635,0.95426387,-0.06963864,0.062308256,-0.0030543262
254,2.54,-0.33655494,-0.15497635,0.95426387,-0.06963864,0.062308256,-0.0030543262
255,2.55,-0.33655494,-0.15497635,0.95426387,-0.06963864,0.062308256,-0.0030543262
256,2.56,-0.36341446200000016,-0.14052777561899435,0.9414824268480446,-0.06963864,0.062308256,-0.0030543262
257,2.57,-0.37194324,-0.13593988,0.9374239,-0.056303380666660297,0.06599673230205264,-0.0067428019446879725
258,2.58,-0.37194324,-0.13593988,0.9374239,-0.040927973,0.070249505,-0.010995574
259,2.59,-0.37194324,-0.13593988,0.9374239,-0.040927973,0.070249505,-0.010995574
260,2.6,-0.37194324,-0.13593988,0.9374239,-0.040927973,0.070249505,-0.010995574
261,2.61,-0.37194324,-0.13593988,0.9374239,-0.040927973,0.070249505,-0.010995574
262,2.62,-0.37194324,-0.13593988,0.9374239,-0.040927973,0.070249505,-0.010995574
263,2.63,-0.37194324,-0.13593988,0.9374239,-0.040927973,0.070249505,-0.010995574
264,2.64,-0.37194324,-0.13593988,0.9374239,-0.040927973,0.070249505,-0.010995574
265,2.65,-0.37194324,-0.13593988,0.9374239,-0.040927973,0.070249505,-0.010995574
266,2.66,-0.37194324,-0.13593988,0.9374239,-0.09711969181910825,-0.3268076694454624,-0.061150164056151105
267,2.67,-0.37194324,-0.13593988,0.9374239,-0.11484267,-0.45204028,-0.07696902
268,2.68,-0.37194324,-0.13593988,0.9374239,-0.11484267,-0.45204028,-0.07696902
269,2.69,-0.37194324,-0.13593988,0.9374239,-0.11484267,-0.45204028,-0.07696902
270,2.7,-0.37194324,-0.13593988,0.9374239,-0.11484267,-0.45204028,-0.07696902
271,2.71,-0.20894894651787496,0.06279877997874324,0.8310078405217395,-0.11484267,-0.45204028,-0.07696902
272,2.72,-0.17718557,0.10152781,0.8102701,-0.11484267,-0.45204028,-0.07696902
273,2.73,-0.17718557,0.10152781,0.8102701,-0.11484267,-0.45204028,-0.07696902
274,2.74,-0.17718557,0.10152781,0.8102701,-0.11484267,-0.45204028,-0.07696902
275,2.75,-0.17718557,0.10152781,0.8102701,-0.11484267,-0.45204028,-0.07696902
276,2.76,-0.17718557,0.10152781,0.8102701,-0.11484267,-0.45204028,-0.07696902
277,2.77,-0.17718557,0.10152781,0.8102701,-0.11484267,-0.45204028,-0.07696902
278,2.78,-0.17718557,0.10152781,0.8102701,-0.11484267,-0.45204028,-0.07696902
279,2.79,-0.17718557,0.10152781,0.8102701,-0.11484267,-0.45204028,-0.07696902
280,2.8,-0.24436143633551136,-0.02248062461081129,0.8330698408309215,-0.039959821649389056,-0.23574298667208943,-0.05247202989031494
281,2.81,-0.3226348776694237,-0.17011659865245157,0.8619579808888467,0.04326207176883436,0.005147945024066152,-0.014704020762597874
282,2.82,-0.31388389850486537,-0.16797746297537572,0.8693477136263226,0.015517850798704063,-0.07273056799478436,0.023261757063150288
283,2.83,-0.31361356,-0.16791138,0.869576,0.014660766,-0.07513642,0.02443461
284,2.84,-0.31361356,-0.16791138,0.869576,0.014660766,-0.07513642,0.02443461
285,2.85,-0.31361356,-0.16791138,0.869576,0.014660766,-0.07513642,0.02443461
286,2.86,-0.31361356,-0.16791138,0.869576,0.029228152738248137,-0.06366460265299258,0.04992753843142504
287,2.87,-0.31361356,-0.16791138,0.869576,0.06352998,-0.036651913,0.10995574
288,2.88,-0.31361356,-0.16791138,0.869576,0.06352998,-0.036651913,0.10995574
289,2.89,-0.31361356,-0.16791138,0.869576,0.06352998,-0.036651913,0.10995574
290,2.9,-0.31361356,-0.16791138,0.869576,-0.018291332481416733,0.015981680259466627,0.0692843304091827
291,2.91,-0.31361356,-0.16791138,0.869576,-0.10563199773874833,0.07302963886346701,0.029967801844271048
292,2.92,-0.31361356,-0.16791138,0.869576,-0.1423316,0.09712757,0.014049901
293,2.93,-0.31361356,-0.16791138,0.869576,-0.1423316,0.09712757,0.014049901
294,2.94,-0.31361356,-0.16791138,0.869576,-0.17157652527083264,0.11851095835983991,0.008284772158805548
295,2.95,-0.31361356,-0.16791138,0.869576,-0.3036024381597246,0.21504604411303363,-0.017741842412164317
296,2.96,-0.31361356,-0.16791138,0.869576,-0.312763,0.22174409,-0.019547688
297,2.97,-0.31361356,-0.16791138,0.869576,-0.312763,0.22174409,-0.019547688
298,2.98,-0.31361356,-0.16791138,0.869576,-0.312763,0.22174409,-0.019547688
299,2.99,-0.31361356,-0.16791138,0.869576,-0.312763,0.22174409,-0.019547688
300,3.0,-0.31361356,-0.16791138,0.869576,-0.312763,0.22174409,-0.019547688
301,3.01,-0.31361356,-0.16791138,0.869576,-0.312763,0.22174409,-0.019547688
302,3.02,-0.31361356,-0.16791138,0.869576,-0.312763,0.22174409,-0.019547688
303,3.03,-0.31361356,-0.16791138,0.869576,-0.312763,0.22174409,-0.019547688
304,3.04,-0.31361356,-0.16791138,0.869576,-0.312763,0.22174409,-0.019547688
305,3.05,-0.31361356,-0.16791138,0.869576,-0.27197241513439935,0.18683831155477662,0.00729670811018533
306,3.06,-0.31361356,-0.16791138,0.869576,-0.027007904862427556,-0.02278547664706937,0.16850852618891932
307,3.07,-0.31361356,-0.16791138,0.869576,-0.0036651916,-0.042760566,0.18387043
308,3.08,-0.31361356,-0.16791138,0.869576,-0.0036651916,-0.042760566,0.18387043
309,3.09,-0.31361356,-0.16791138,0.869576,-0.0036651916,-0.042760566,0.18387043
310,3.1,-0.31361356,-0.16791138,0.869576,-0.01674065409462988,-0.05969436090398352,0.12792460399382427
311,3.11,-0.31361356,-0.16791138,0.869576,-0.040927973,-0.09101892,0.02443461
312,3.12,-0.31361356,-0.16791138,0.869576,-0.040927973,-0.09101892,0.02443461
313,3.13,-0.31361356,-0.16791138,0.869576,-0.040927973,-0.09101892,0.02443461
314,3.14,-0.31361356,-0.16791138,0.869576,-0.040927973,-0.09101892,0.02443461
315,3.15,-0.31361356,-0.16791138,0.869576,-0.040927973,-0.09101892,0.02443461
316,3.16,-0.31361356,-0.16791138,0.869576,-0.035564511345988356,-0.06860369883118451,0.007990033990385718
317,3.17,-0.31361356,-0.16791138,0.869576,0.023823744,0.17959438,-0.1740966
318,3.18,-0.31361356,-0.16791138,0.869576,0.023823744,0.17959438,-0.1740966
319,3.19,-0.3299630426966014,-0.14404354134028596,0.8884316249850286,0.023823744,0.17959438,-0.1740966
320,3.2,-0.34844282321834863,-0.11677759308665049,0.9123947158347281,0.023823744,0.17959438,-0.1740966
321,3.21,-0.35144243,-0.11177822,0.92156017,0.023823744,0.17959438,-0.1740966
322,3.22,-0.35144243,-0.11177822,0.92156017,0.023823744,0.17959438,-0.1740966
323,3.23,-0.35144243,-0.11177822,0.92156017,0.023823744,0.17959438,-0.1740966
324,3.24,-0.35144243,-0.11177822,0.92156017,0.023823744,0.17959438,-0.1740966
325,3.25,-0.35086750035060177,-0.11867748572797165,0.9023955447228595,0.023823744,0.17959438,-0.1740966
326,3.26,-0.3566589128731716,-0.13710443361392977,0.9380695796628826,0.023823744,0.17959438,-0.1740966
327,3.27,-0.3607166,-0.1483868,0.9659786,0.023823744,0.17959438,-0.1740966
328,3.28,-0.3607166,-0.1483868,0.9659786,0.023823744,0.17959438,-0.1740966
329,3.29,-0.3529683944173596,-0.13676447782276543,0.9610096284187639,0.023823744,0.17959438,-0.1740966
330,3.3,-0.33744180808471846,-0.12138882026985542,0.9365722690945527,0.023823744,0.17959438,-0.1740966
331,3.31,-0.33460248,-0.1444819,0.8847075,0.015824360078378504,0.16488892562256233,-0.1611155632110365
332,3.32,-0.33460248,-0.1444819,0.8847075,-0.06794552132695587,0.01089279526058743,-0.0251776056152557
333,3.33,-0.33460248,-0.1444819,0.8847075,-2.5345948103560536,3.3110370829101563,-0.17105337293296852
334,3.34,-0.33460248,-0.1444819,0.8847075,-3.49476,4.6083674,-0.23457226
335,3.35,-0.33460248,-0.1444819,0.8847075,-3.49476,4.6083674,-0.23457226
336,3.36,-0.33460248,-0.1444819,0.8847075,-3.49476,4.6083674,-0.23457226
337,3.37,-0.33460248,-0.1444819,0.8847075,-3.49476,4.6083674,-0.23457226
338,3.38,-0.33460248,-0.1444819,0.8847075,-3.49476,4.6083674,-0.23457226
339,3.39,-0.3561489062200003,-0.15556292280230014,0.9269795602260005,-3.49476,4.6083674,-0.23457226
340,3.4,-0.36022848,-0.15766099,0.9349833,-1.2133298652522715,1.528134086647205,-0.14581635155962977
341,3.41,-0.36022848,-0.15766099,0.9349833,-0.040317107,-0.055588737,-0.1001819
342,3.42,-0.36022848,-0.15766099,0.9349833,-0.040317107,-0.055588737,-0.1001819
343,3.43,-0.3602818749697677,-0.15870217878378703,0.9347163295267225,-0.040317107,-0.055588737,-0.1001819
344,3.44,-0.36068945667598096,-0.1666499218545758,0.9326784543957796,-0.040317107,-0.055588737,-0.1001819
345,3.45,-0.3376812221905225,-0.15392877638949432,0.9553742541904807,-0.040317107,-0.055588737,-0.1001819
346,3.46,-0.33313814,-0.1513155,0.95987713,-0.040317107,-0.055588737,-0.1001819
347,3.47,-0.35348199915103123,-0.1437999294983409,0.9846266832402087,-0.040317107,-0.055588737,-0.1001819
348,3.48,-0.37145513,-0.13716017,1.0064921,-0.03265372790806664,-0.04733586748086928,-0.0712968578088867
349,3.49,-0.37145513,-0.13716017,1.0064921,-0.016493361,-0.029932396,-0.01038471
350,3.5,-0.37145513,-0.13716017,1.0064921,-0.014648550106135704,-0.03142014704768416,-0.006933128142197914
351,3.51,-0.37145513,-0.13716017,1.0064921,0.0004346813000600676,-0.04358404601514169,0.021287112778867214
352,3.52,-0.37145513,-0.13716017,1.0064921,-0.01876841492354264,0.0025226946259427523,-0.07173370876552142
353,3.53,-0.37145513,-0.13716017,1.0064921,-0.02687807,0.02076942,-0.10873401
354,3.54,-0.37145513,-0.13716017,1.0064921,-0.02687807,0.02076942,-0.10873401
355,3.55,-0.37145513,-0.13716017,1.0064921,-0.02687807,0.02076942,-0.10873401
356,3.56,-0.37145513,-0.13716017,1.0064921,-0.02687807,0.02076942,-0.10873401
357,3.57,-0.37145513,-0.13716017,1.0064921,-0.02687807,0.02076942,-0.10873401
358,3.58,-0.37145513,-0.13716017,1.0064921,-0.02687807,0.02076942,-0.10873401
359,3.59,-0.37145513,-0.13716017,1.0064921,-0.02687807,0.02076942,-0.10873401
360,3.6,-0.37145513,-0.13716017,1.0064921,-0.02687807,0.02076942,-0.10873401
361,3.61,-0.37145513,-0.13716017,1.0064921,-0.02687807,0.02076942,-0.10873401
362,3.62,-0.37145513,-0.13716017,1.0064921,-0.02687807,0.02076942,-0.10873401
363,3.63,-0.37145513,-0.13716017,1.0064921,-0.02687807,0.02076942,-0.10873401
364,3.64,-0.37145513,-0.13716017,1.0064921,-0.02687807,0.02076942,-0.10873401
365,3.65,-0.37145513,-0.13716017,1.0064921,0.07850814930701425,-0.06762793374895296,-0.038292368625315494
366,3.66,-0.37145513,-0.13716017,1.0064921,0.4392121,-0.37018433,0.20280726
367,3.67,-0.37145513,-0.13716017,1.0064921,0.4392121,-0.37018433,0.20280726
368,3.68,-0.37145513,-0.13716017,1.0064921,0.4249243034549726,-0.3086368509813882,0.13026914334258782
369,3.69,-0.37145513,-0.13716017,1.0064921,0.3821046974852105,-0.2763613779915321,0.18640722630049947
370,3.7,-0.42001447404354,-0.12622189284596405,0.946994505965159,0.3707952,-0.26939157,0.204029
371,3.71,-0.4429639,-0.1210524,0.9188756,0.3707952,-0.26939157,0.204029
372,3.72,-0.4429639,-0.1210524,0.9188756,0.3707952,-0.26939157,0.204029
373,3.73,-0.4429639,-0.1210524,0.9188756,0.3707952,-0.26939157,0.204029
374,3.74,-0.41413526756541147,-0.10097017869205234,0.9219636957217338,0.3707952,-0.26939157,0.204029
375,3.75,-0.0762827955207624,0.13438014978545862,0.9581541315970926,0.3707952,-0.26939157,0.204029
376,3.76,-0.07614586,0.13447554,0.9581688,0.3707952,-0.26939157,0.204029
377,3.77,-0.28089071308704994,-0.08524149859626931,0.7901057768717037,0.008694928342335893,-0.34621491410947386,-0.017540771172804625
378,3.78,-0.3431445,-0.15204766,0.7390053,-0.10140363,-0.36957347,-0.084910266
379,3.79,-0.3431445,-0.15204766,0.7390053,-0.10140363,-0.36957347,-0.084910266
380,3.8,-0.3431445,-0.15204766,0.7390053,-0.10140363,-0.36957347,-0.084910266
381,3.81,-0.3431445,-0.15204766,0.7390053,-0.10140363,-0.36957347,-0.084910266
382,3.82,-0.3431445,-0.15204766,0.7390053,-0.10140363,-0.36957347,-0.084910266
383,3.83,-0.3431445,-0.15204766,0.7390053,-0.10140363,-0.36957347,-0.084910266
384,3.84,-0.3431445,-0.15204766,0.7390053,-0.10140363,-0.36957347,-0.084910266
385,3.85,-0.3431445,-0.15204766,0.7390053,-0.10140363,-0.36957347,-0.084910266
386,3.86,-0.3431445,-0.15204766,0.7390053,-0.10140363,-0.36957347,-0.084910266
387,3.87,-0.35112124512831633,-0.15430613607775004,0.7487119494903659,-0.07350008677499734,-0.29247790513818167,-0.05303768510780799
388,3.88,-0.383658,-0.16351835,0.7883049,0.040317107,0.021991149,0.07696902
389,3.89,-0.383658,-0.16351835,0.7883049,0.040317107,0.021991149,0.07696902
390,3.9,-0.383658,-0.16351835,0.7883049,0.040317107,0.021991149,0.07696902
391,3.91,-0.383658,-0.16351835,0.7883049,0.040317107,0.021991149,0.07696902
392,3.92,-0.383658,-0.16351835,0.7883049,0.040317107,0.021991149,0.07696902
393,3.93,-0.383658,-0.16351835,0.7883049,0.040317107,0.021991149,0.07696902
394,3.94,-0.383658,-0.16351835,0.7883049,0.040317107,0.021991149,0.07696902
395,3.95,-0.383658,-0.16351835,0.7883049,-0.03037358950089977,0.017614016039813347,0.07543702409091277
396,3.96,-0.3828915988809907,-0.16286885919516772,0.7959429195291583,-0.35430184,-0.002443461,0.06841691
397,3.97,-0.3714554471289691,-0.15317723007123496,0.90991659239289,-0.35430184,-0.002443461,0.06841691
398,3.98,-0.4012267140560479,-0.1367845333679071,0.9754035163017828,-0.35430184,-0.002443461,0.06841691
399,3.99,-0.42026657,-0.12813005,1.001367,-0.35430184,-0.002443461,0.06841691
400,4.0,-0.42026657,-0.12813005,1.001367,-0.2785096764147608,-0.020089728014743607,-0.22578397184316598
401,4.01,-0.42026657,-0.12813005,1.001367,-0.034208454,-0.07696902,-1.174083
402,4.02,-0.42026657,-0.12813005,1.001367,-0.034208454,-0.07696902,-1.174083
403,4.03,-0.42026657,-0.12813005,1.001367,-0.034208454,-0.07696902,-1.174083
404,4.04,-0.42026657,-0.12813005,1.001367,-0.034208454,-0.07696902,-1.174083
405,4.05,-0.08428795016099155,0.20194385475322274,0.9514720764752104,2.133172005550903,-1.8493734311533712,-1.8838576635099737
406,4.06,0.13520771,0.41758195,0.9188756,3.549127,-3.0072896,-2.3475552
407,4.07,0.008536526914281535,0.2924576321716824,0.9392140022669668,3.549127,-3.0072896,-2.3475552
408,4.08,-0.40440285,-0.11543907,1.0055158,3.549127,-3.0072896,-2.3475552
409,4.09,-0.40440285,-0.11543907,1.0055158,3.549127,-3.0072896,-2.3475552
410,4.1,-0.40440285,-0.11543907,1.0055158,3.549127,-3.0072896,-2.3475552
411,4.11,-0.40440285,-0.11543907,1.0055158,3.549127,-3.0072896,-2.3475552
412,4.12,-0.40440285,-0.11543907,1.0055158,3.549127,-3.0072896,-2.3475552
413,4.13,-0.40440285,-0.11543907,1.0055158,3.549127,-3.0072896,-2.3475552
414,4.14,-0.40440285,-0.11543907,1.0055158,3.549127,-3.0072896,-2.3475552
415,4.15,-0.40440285,-0.11543907,1.0055158,3.549127,-3.0072896,-2.3475552
416,4.16,-0.40440285,-0.11543907,1.0055158,3.549127,-3.0072896,-2.3475552
417,4.17,-0.40440285,-0.11543907,1.0055158,1.4101904693343357,-1.1604431792475416,-0.9032500726155067
418,4.18,-0.39195678876271495,-0.11039336800836101,0.9674207487571268,-0.01160644,0.06719518,0.05681047
419,4.19,-0.36990500745841376,-0.10145345402874992,0.8999243960742892,-0.01160644,0.06719518,0.05681047
420,4.2,-0.3682824,-0.10079564,0.8949579,-0.01160644,0.06719518,0.05681047
421,4.21,-0.3682824,-0.10079564,0.8949579,-0.01160644,0.06719518,0.05681047
422,4.22,-0.33778397236904173,-0.10506386942149736,0.9305782077699775,-0.01160644,0.06719518,0.05681047
423,4.23,-0.2723679,-0.114218794,1.0069802,-0.01160644,0.06719518,0.05681047
424,4.24,-0.2723679,-0.114218794,1.0069802,-0.01160644,0.06719518,0.05681047
425,4.25,-0.2723679,-0.114218794,1.0069802,-0.01160644,0.06719518,0.05681047
426,4.26,-0.2723679,-0.114218794,1.0069802,-0.01160644,0.06719518,0.05681047
427,4.27,-0.2723679,-0.114218794,1.0069802,-0.01160644,0.06719518,0.05681047
428,4.28,-0.2723679,-0.114218794,1.0069802,-0.01160644,0.06719518,0.05681047
429,4.29,-0.2723679,-0.114218794,1.0069802,-0.01160644,0.06719518,0.05681047
430,4.3,-0.2723679,-0.114218794,1.0069802,-0.01160644,0.06719518,0.05681047
431,4.31,-0.2723679,-0.114218794,1.0069802,-0.01160644,0.06719518,0.05681047
432,4.32,-0.2723679,-0.114218794,1.0069802,-0.01160644,0.06719518,0.05681047
433,4.33,-0.2723679,-0.114218794,1.0069802,-0.01160644,0.06719518,0.05681047
434,4.34,-0.2723679,-0.114218794,1.0069802,-0.02702147536958882,0.06068178382729749,0.06788324160987294
435,4.35,-0.2723679,-0.114218794,1.0069802,-0.09605079360080201,0.03151446202805856,0.11746768023317851
436,4.36,-0.2723679,-0.114218794,1.0069802,-0.0983493,0.030543262,0.11911872
437,4.37,-0.2723679,-0.114218794,1.0069802,-0.0983493,0.030543262,0.11911872
438,4.38,-0.2723679,-0.114218794,1.0069802,-0.0983493,0.030543262,0.11911872
439,4.39,-0.3010270156135514,-0.10745766640888806,0.9692389644890436,-0.0983493,0.030543262,0.11911872
440,4.4,-0.34168017,-0.09786696,0.91570276,-0.0983493,0.030543262,0.11911872
441,4.41,-0.34168017,-0.09786696,0.91570276,-0.0983493,0.030543262,0.11911872
442,4.42,-0.34168017,-0.09786696,0.91570276,-0.0983493,0.030543262,0.11911872
443,4.43,-0.34168017,-0.09786696,0.91570276,-0.09135922111098096,0.03125240073364312,0.11628216705549989
444,4.44,-0.34168017,-0.09786696,0.91570276,-0.059058438620682795,0.03452929307699494,0.103174606878111
445,4.45,-0.34168017,-0.09786696,0.91570276,-0.056199603,0.03481932,0.1020145
446,4.46,-0.34168017,-0.09786696,0.91570276,-0.04923001049833453,0.035151205150249366,0.023025801642434902
447,4.47,-0.34168017,-0.09786696,0.91570276,-0.04337143,0.035430185,-0.04337143
448,4.48,-0.34168017,-0.09786696,0.91570276,-0.03134314227270157,0.02665545025640978,-0.03706150884181082
449,4.49,-0.34168017,-0.09786696,0.91570276,0.029935596410228322,-0.01804789319156574,-0.0049152866588293475
450,4.5,-0.33812282650101705,-0.11097286546214567,0.9417273721973614,0.29123945791244144,-0.1285944239745834,-5.8456717515441624e-05
451,4.51,-0.33704305,-0.11495096,0.94962674,0.37018433,-0.16187929,0.0012217305
452,4.52,-0.33704305,-0.11495096,0.94962674,0.37018433,-0.16187929,0.0012217305
453,4.53,-0.12786846497887305,-0.015554663262927764,0.9680434856549405,0.37018433,-0.16187929,0.0012217305
454,4.54,0.04388830606898089,0.0635049959879645,0.9710035382363658,0.37018433,-0.16187929,0.0012217305
455,4.55,-0.32801294,-0.11836776,0.91375035,0.3021157449551905,-0.10710843449193981,0.02176080056116228
456,4.56,-0.328045098457949,-0.11842622997799239,0.9137298856574368,0.054367006,0.092240654,0.096516706
457,4.57,-0.33023034809843976,-0.1223994148424547,0.9123392811296926,0.054367006,0.092240654,0.096516706
458,4.58,-0.33069757,-0.12324891,0.91204196,0.054367006,0.092240654,0.096516706
459,4.59,-0.33069757,-0.12324891,0.91204196,0.054367006,0.092240654,0.096516706
460,4.6,-0.33069757,-0.12324891,0.91204196,0.054367006,0.092240654,0.096516706
461,4.61,-0.33069757,-0.12324891,0.91204196,0.054367006,0.092240654,0.096516706
462,4.62,-0.33069757,-0.12324891,0.91204196,0.054367006,0.092240654,0.096516706
463,4.63,-0.0873007797335317,0.12710892255528475,0.9038806932388924,0.054367006,0.092240654,0.096516706
464,4.64,0.16425052,0.38585448,0.895446,0.054367006,0.092240654,0.096516706
465,4.65,0.16425052,0.38585448,0.895446,0.054367006,0.092240654,0.096516706
466,4.66,0.16425052,0.38585448,0.895446,0.054367006,0.092240654,0.096516706
467,4.67,0.16425052,0.38585448,0.895446,0.054367006,0.092240654,0.096516706
468,4.68,0.34433300841640413,0.4267867854731568,0.5985400308681378,0.054367006,0.092240654,0.096516706
469,4.69,0.6130718,0.48787045,0.15546446,0.054367006,0.092240654,0.096516706
470,4.7,0.6130718,0.48787045,0.15546446,0.054367006,0.092240654,0.096516706
471,4.71,0.6130718,0.48787045,0.15546446,0.054367006,0.092240654,0.096516706
472,4.72,0.6130718,0.48787045,0.15546446,0.054367006,0.092240654,0.096516706
473,4.73,0.6130718,0.48787045,0.15546446,0.054367006,0.092240654,0.096516706
474,4.74,0.16830697573859654,-0.26972295823314635,0.012513081402638128,0.054367006,0.092240654,0.096516706
475,4.75,-0.28872891854784083,-0.7379544651185437,0.19589437298899237,0.054367006,0.092240654,0.096516706
476,4.76,-0.32093528,-0.12202863,0.899595,0.054367006,0.092240654,0.096516706
477,4.77,-0.32093528,-0.12202863,0.899595,0.054367006,0.092240654,0.096516706
478,4.78,-0.32093528,-0.12202863,0.899595,0.054367006,0.092240654,0.096516706
479,4.79,-0.32093528,-0.12202863,0.899595,-0.06116952620329456,0.03722325402435273,-0.028922959387765197
480,4.8,-0.32093528,-0.12202863,0.899595,-0.07391469,0.031154128,-0.042760566
481,4.81,-0.32093528,-0.12202863,0.899595,-0.07391469,0.031154128,-0.042760566
482,4.82,-0.32093528,-0.12202863,0.899595,-0.07391469,0.031154128,-0.042760566
483,4.83,-0.32093528,-0.12202863,0.899595,-0.029098423163249867,-0.022421682976522223,-0.11324432956985306
484,4.84,-0.3165249831786065,-0.12482294168456269,0.8897644109910595,0.06047566,-0.12950343,-0.25411993
485,4.85,-0.28915020131237595,-0.1421672783423829,0.8287457901057467,0.06047566,-0.12950343,-0.25411993
486,4.86,-0.2889638,-0.14228538,0.8283303,-0.027132700065403966,-0.029310445737770748,-0.30300637080070153
487,4.87,-0.2889638,-0.14228538,0.8283303,-0.05009095,-0.0030543262,-0.31581733
488,4.88,-0.2889638,-0.14228538,0.8283303,-0.023066013101487776,-0.02708926922118054,-0.29937236868231504
489,4.89,-0.2889638,-0.14228538,0.8283303,0.09066556114226039,-0.12823777206220427,-0.23016549704144834
490,4.9,-0.2889638,-0.14228538,0.8283303,0.093462385,-0.13072516,-0.2284636
491,4.91,-0.2889638,-0.14228538,0.8283303,0.093462385,-0.13072516,-0.2284636
492,4.92,-0.2889638,-0.14228538,0.8283303,0.093462385,-0.13072516,-0.2284636
493,4.93,-0.2889638,-0.14228538,0.8283303,0.093462385,-0.13072516,-0.2284636
494,4.94,-0.2889638,-0.14228538,0.8283303,0.093462385,-0.13072516,-0.2284636
495,4.95,-0.2889638,-0.14228538,0.8283303,0.093462385,-0.13072516,-0.2284636
496,4.96,-0.2889638,-0.14228538,0.8283303,0.08607718437089866,0.11626875386719422,0.06325180302081089
497,4.97,1.3707064129721573,-0.15346362723698395,0.7903482703570422,0.08246681,0.23701571,0.20586158
498,4.98,2.3413348351644543,-0.030737124404797582,0.834526672916612,0.08246681,0.23701571,0.20586158
499,4.99,0.21530152260219926,0.3551385607402271,1.0740174350836107,0.08246681,0.23701571,0.20586158
500,5.0,0.14960709,0.36706212,1.0814177,-0.21773667733934696,0.03186098059028975,0.11222444587845135
501,5.01,0.14960709,0.36706212,1.0814177,-0.30726522,-0.029321533,0.0842994
502,5.02,0.14960709,0.36706212,1.0814177,-0.30726522,-0.029321533,0.0842994
503,5.03,0.14960709,0.36706212,1.0814177,-0.30726522,-0.029321533,0.0842994
504,5.04,0.14960709,0.36706212,1.0814177,-0.30726522,-0.029321533,0.0842994
505,5.05,0.14960709,0.36706212,1.0814177,-0.30726522,-0.029321533,0.0842994
506,5.06,0.14960709,0.36706212,1.0814177,-0.30726522,-0.029321533,0.0842994
507,5.07,0.14960709,0.36706212,1.0814177,-0.20131002640180545,-0.004622518578986475,-0.0485025507857929
508,5.08,0.14960709,0.36706212,1.0814177,0.054367006,0.05497787,-0.36896262
509,5.09,0.14960709,0.36706212,1.0814177,0.054367006,0.05497787,-0.36896262
510,5.1,-0.205147689777464,0.02572389100074666,1.0589405938489307,0.054367006,0.05497787,-0.36896262
511,5.11,-0.34729347,-0.111046046,1.0499343,-1.241778141222818,1.9278643486349347,0.054216101974461264
512,5.12,-0.34729347,-0.111046046,1.0499343,-1.4180069835676916,2.2435981018950657,0.17957717387206046
513,5.13,-0.34729347,-0.111046046,1.0499343,0.24801129,-0.06169739,-0.2510656
514,5.14,-0.34729347,-0.111046046,1.0499343,0.24801129,-0.06169739,-0.2510656
515,5.15,-0.34729347,-0.111046046,1.0499343,0.24801129,-0.06169739,-0.2510656
516,5.16,-0.34729347,-0.111046046,1.0499343,0.24801129,-0.06169739,-0.2510656
517,5.17,-0.34729347,-0.111046046,1.0499343,0.24801129,-0.06169739,-0.2510656
518,5.18,-0.37413778070956305,-0.11898591694088236,1.0379615043956922,0.24801129,-0.06169739,-0.2510656
519,5.19,-0.39927766,-0.12642166,1.0267489,0.24801129,-0.06169739,-0.2510656
520,5.2,-0.39927766,-0.12642166,1.0267489,0.24801129,-0.06169739,-0.2510656
521,5.21,-0.39927766,-0.12642166,1.0267489,0.24801129,-0.06169739,-0.2510656
522,5.22,-0.39927766,-0.12642166,1.0267489,0.24801129,-0.06169739,-0.2510656
523,5.23,-0.39927766,-0.12642166,1.0267489,0.24801129,-0.06169739,-0.2510656
524,5.24,-0.39927766,-0.12642166,1.0267489,0.24801129,-0.06169739,-0.2510656
525,5.25,-0.39927766,-0.12642166,1.0267489,0.24801129,-0.06169739,-0.2510656
526,5.26,-0.39927766,-0.12642166,1.0267489,0.24801129,-0.06169739,-0.2510656
527,5.27,-0.39927766,-0.12642166,1.0267489,0.24801129,-0.06169739,-0.2510656
528,5.28,-0.39927766,-0.12642166,1.0267489,0.24801129,-0.06169739,-0.2510656
529,5.29,-0.39927766,-0.12642166,1.0267489,0.061452990979155124,-0.040920594830807955,-0.1510772856927854
530,5.3,-0.39927766,-0.12642166,1.0267489,-0.015271631,-0.032375857,-0.10995574
531,5.31,-0.3937050233719765,-0.13620108115704938,0.9894887400212627,-0.015271631,-0.032375857,-0.10995574
532,5.32,-0.3782477380571018,-0.16332707431416085,0.8861371378778635,-0.015271631,-0.032375857,-0.10995574
533,5.33,-0.3743838,-0.1701079,0.8603018,-0.015271631,-0.032375857,-0.10995574
534,5.34,-0.33070541516172225,-0.1133259930962113,0.8372282199327062,-0.015271631,-0.032375857,-0.10995574
535,5.35,-0.26211748,-0.024161667,0.8009959,0.11835288746853466,0.17691317011171323,-0.17335568306700314
536,5.36,-0.26163484740730875,-0.029239789120477394,0.8124951152809582,0.81000733,1.260215,-0.5015204
537,5.37,-0.2571744869881898,-0.07617042590844873,0.9187677654642126,0.81000733,1.260215,-0.5015204
538,5.38,-0.25650415,-0.08322352,0.93473923,0.81000733,1.260215,-0.5015204
539,5.39,-0.25650415,-0.08322352,0.93473923,0.81000733,1.260215,-0.5015204
540,5.4,-0.25650415,-0.08322352,0.93473923,0.81000733,1.260215,-0.5015204
541,5.41,-0.27838346957545185,-0.10465054887142583,0.9247324024156273,0.81000733,1.260215,-0.5015204
542,5.42,-0.35095432,-0.17572121,0.89154106,0.81000733,1.260215,-0.5015204
543,5.43,-0.35095432,-0.17572121,0.89154106,0.81000733,1.260215,-0.5015204
544,5.44,-0.35095432,-0.17572121,0.89154106,0.81000733,1.260215,-0.5015204
545,5.45,-0.35095432,-0.17572121,0.89154106,0.81000733,1.260215,-0.5015204
546,5.46,-0.35095432,-0.17572121,0.89154106,0.33318602548424475,0.47648729920857497,-0.2441882514939219
547,5.47,-0.35095432,-0.17572121,0.89154106,-0.003299546052789294,0.027377450821171677,-0.06402493013212754
548,5.48,-0.35095432,-0.17572121,0.89154106,-0.04886922,0.061086524,-0.040927973
549,5.49,-0.34552763952464777,-0.1694151056735135,0.9154785220461689,-0.0410309468258529,0.05528834944362611,-0.04490079623553386
550,5.5,-0.2914883143067293,-0.10661840627230047,1.1538497145790299,0.03702321448482003,-0.002450344025665102,-0.08446249289953052
551,5.51,-0.28920785,-0.10396838,1.163909,0.040317107,-0.004886922,-0.086132
552,5.52,-0.28920785,-0.10396838,1.163909,0.040317107,-0.004886922,-0.086132
553,5.53,-0.28920785,-0.10396838,1.163909,0.040317107,-0.004886922,-0.086132
554,5.54,-0.28920785,-0.10396838,1.163909,0.040317107,-0.004886922,-0.086132
555,5.55,-0.28920785,-0.10396838,1.163909,0.040317107,-0.004886922,-0.086132
556,5.56,-0.28920785,-0.10396838,1.163909,0.040317107,-0.004886922,-0.086132
557,5.57,-0.28920785,-0.10396838,1.163909,0.040317107,-0.004886922,-0.086132
558,5.58,-0.28920785,-0.10396838,1.163909,0.040317107,-0.004886922,-0.086132
559,5.59,-0.28920785,-0.10396838,1.163909,0.040317107,-0.004886922,-0.086132
560,5.6,-0.28920785,-0.10396838,1.163909,0.040317107,-0.004886922,-0.086132
561,5.61,-0.28920785,-0.10396838,1.163909,0.03983429248575097,0.003707175768753058,-0.08164182548380702
562,5.62,-0.28920785,-0.10396838,1.163909,0.034962164298234524,0.09043105160446734,-0.036331038045615244
563,5.63,-0.34416240164273965,-0.1370154051955539,0.9986739653077112,0.034208454,0.103847094,-0.029321533
564,5.64,-0.36144876,-0.14741059,0.94669807,0.034208454,0.103847094,-0.029321533
565,5.65,-0.36144876,-0.14741059,0.94669807,0.034208454,0.103847094,-0.029321533
566,5.66,-0.36144876,-0.14741059,0.94669807,0.03694944156511704,0.10696185210537247,-0.02620677367088432
567,5.67,-0.36144876,-0.14741059,0.94669807,0.04718893544657371,0.11859763877148859,-0.014570982433236653
568,5.68,-0.36144876,-0.14741059,0.94669807,0.047647487,0.11911872,-0.014049901
569,5.69,-0.36144876,-0.14741059,0.94669807,0.047647487,0.11911872,-0.014049901
570,5.7,-0.36144876,-0.14741059,0.94669807,0.02326019986432243,0.09676370776659547,-0.02334029700910497
571,5.71,-0.36144876,-0.14741059,0.94669807,-0.0036651916,0.0720821,-0.03359759
572,5.72,-0.36144876,-0.14741059,0.94669807,-0.0036651916,0.0720821,-0.03359759
573,5.73,-0.36144876,-0.14741059,0.94669807,-0.0036651916,0.0720821,-0.03359759
574,5.74,-0.36144876,-0.14741059,0.94669807,-0.0036651916,0.0720821,-0.03359759
575,5.75,-0.36144876,-0.14741059,0.94669807,-0.0036651916,0.0720821,-0.03359759
576,5.76,-0.36144876,-0.14741059,0.94669807,-0.0036651916,0.0720821,-0.03359759
577,5.77,-0.36144876,-0.14741059,0.94669807,-0.0036651916,0.0720821,-0.03359759
578,5.78,-0.36144876,-0.14741059,0.94669807,-0.0036651916,0.0720821,-0.03359759
579,5.79,-0.36290262327941447,-0.15839510238371335,0.918105983691907,-0.0036651916,0.0720821,-0.03359759
580,5.8,-0.35437424884748653,-0.15486240638030885,0.9003248938101275,0.09074458670333323,0.06286363651552525,0.029978013957388472
581,5.81,-0.34582913,-0.14643435,0.8973985,0.1777618,0.054367006,0.08857546
582,5.82,-0.34582913,-0.14643435,0.8973985,0.1777618,0.054367006,0.08857546
583,5.83,-0.34582913,-0.14643435,0.8973985,0.15896710908689682,0.04581171728557371,0.087969180491051
584,5.84,-0.34582913,-0.14643435,0.8973985,0.02317675252500773,-0.015999658618029246,0.08358885249965244
585,5.85,-0.33742753383266705,-0.14497321097483137,0.887901040209268,0.007330383,-0.02321288,0.08307768
586,5.86,-0.33460248,-0.1444819,0.8847075,0.007330383,-0.02321288,0.08307768
587,5.87,-0.33460248,-0.1444819,0.8847075,0.007330383,-0.02321288,0.08307768
588,5.88,-0.3420415667506867,-0.14468027396684696,0.8927417330359729,0.001620328922045725,0.003847810632170074,0.08953252121347108
589,5.89,-0.35290676,-0.14497001,0.90447617,-0.0067195175,0.04337143,0.09896017
590,5.9,-0.32259853718781817,-0.10790071564721021,0.9177651568719228,-0.0067195175,0.04337143,0.09896017
591,5.91,-0.19583916880738234,0.04713576958607982,0.9733442514542615,-0.0067195175,0.04337143,0.09896017
592,5.92,-0.19426957,0.04905551,0.97403246,-0.0067195175,0.04337143,0.09896017
593,5.93,-0.19426957,0.04905551,0.97403246,-0.0067195175,0.04337143,0.09896017
594,5.94,-0.19426957,0.04905551,0.97403246,-0.0067195175,0.04337143,0.09896017
595,5.95,-0.2604842559784742,-0.029207417822718434,0.9583393566144965,-0.0067195175,0.04337143,0.09896017
596,5.96,-0.3566410102113087,-0.14288053196471615,0.9337437296230028,-0.0067195175,0.04337143,0.09896017
597,5.97,-0.36291313,-0.15033926,0.92814976,-0.0067195175,0.04337143,0.09896017
598,5.98,-0.36291313,-0.15033926,0.92814976,-0.0067195175,0.04337143,0.09896017
599,5.99,-0.36291313,-0.15033926,0.92814976,-0.0067195175,0.04337143,0.09896017
600,6.0,-0.36291313,-0.15033926,0.92814976,-0.0067195175,0.04337143,0.09896017
601,6.01,-0.36291313,-0.15033926,0.92814976,-0.0067195175,0.04337143,0.09896017
602,6.02,-0.36291313,-0.15033926,0.92814976,-0.0067195175,0.04337143,0.09896017
603,6.03,-0.36291313,-0.15033926,0.92814976,-0.0067195175,0.04337143,0.09896017
604,6.04,-0.36291313,-0.15033926,0.92814976,-0.0067195175,0.04337143,0.09896017
605,6.05,-0.36291313,-0.15033926,0.92814976,-0.012303624409288082,-0.07063740686040909,0.021248021232072287
606,6.06,-0.36291313,-0.15033926,0.92814976,-0.0720883368566874,-0.036573648882680054,0.028088249875321415
607,6.07,-0.36191562575570224,-0.15042994625739137,0.9184468246317882,-0.1142318,0.014049901,0.050701816
608,6.08,-0.36022848,-0.15058333,0.9020356,-0.1142318,0.014049901,0.050701816
609,6.09,-0.36022848,-0.15058333,0.9020356,-0.1142318,0.014049901,0.050701816
610,6.1,-0.36022848,-0.15058333,0.9020356,-0.1142318,0.014049901,0.050701816
611,6.11,-0.016731366242112362,0.09542008275130812,0.928169530415406,-0.1142318,0.014049901,0.050701816
612,6.12,0.17547716,0.23307467,0.94279313,-0.1142318,0.014049901,0.050701816
613,6.13,0.17547716,0.23307467,0.94279313,-0.1142318,0.014049901,0.050701816
614,6.14,0.17547716,0.23307467,0.94279313,-0.1142318,0.014049901,0.050701816
615,6.15,0.17547716,0.23307467,0.94279313,-0.1142318,0.014049901,0.050701816
616,6.16,0.17547716,0.23307467,0.94279313,-0.1142318,0.014049901,0.050701816
617,6.17,0.17547716,0.23307467,0.94279313,-0.1142318,0.014049901,0.050701816
618,6.18,0.17547716,0.23307467,0.94279313,-0.1142318,0.014049901,0.050701816
619,6.19,0.17547716,0.23307467,0.94279313,-0.1142318,0.014049901,0.050701816
620,6.2,0.17547716,0.23307467,0.94279313,-0.1142318,0.014049901,0.050701816
621,6.21,0.17547716,0.23307467,0.94279313,-0.1142318,0.014049901,0.050701816
622,6.22,0.17547716,0.23307467,0.94279313,-0.1142318,0.014049901,0.050701816
623,6.23,0.17547716,0.23307467,0.94279313,-0.1142318,0.014049901,0.050701816
624,6.24,0.17547716,0.23307467,0.94279313,-0.1142318,0.014049901,0.050701816
625,6.25,0.17547716,0.23307467,0.94279313,-0.1142318,0.014049901,0.050701816
626,6.26,0.17547716,0.23307467,0.94279313,-0.1142318,0.014049901,0.050701816
627,6.27,0.17547716,0.23307467,0.94279313,-0.1142318,0.014049901,0.050701816
628,6.28,0.17547716,0.23307467,0.94279313,-0.1142318,0.014049901,0.050701816
629,6.29,0.17547716,0.23307467,0.94279313,-0.1142318,0.014049901,0.050701816
630,6.3,0.17547716,0.23307467,0.94279313,-0.1142318,0.014049901,0.050701816
631,6.31,0.17547716,0.23307467,0.94279313,-0.1142318,0.014049901,0.050701816
632,6.32,0.17547716,0.23307467,0.94279313,-0.1142318,0.014049901,0.050701816
633,6.33,0.17547716,0.23307467,0.94279313,-0.1142318,0.014049901,0.050701816
634,6.34,0.17547716,0.23307467,0.94279313,-0.1142318,0.014049901,0.050701816
635,6.35,0.17547716,0.23307467,0.94279313,-0.1142318,0.014049901,0.050701816
636,6.36,0.17547716,0.23307467,0.94279313,-0.1142318,0.014049901,0.050701816
637,6.37,0.17547716,0.23307467,0.94279313,-0.1142318,0.014049901,0.050701816
638,6.38,0.17547716,0.23307467,0.94279313,-0.1142318,0.014049901,0.050701816
639,6.39,0.17547716,0.23307467,0.94279313,-0.1142318,0.014049901,0.050701816
640,6.4,0.17547716,0.23307467,0.94279313,-0.1142318,0.014049901,0.050701816
641,6.41,0.17547716,0.23307467,0.94279313,-0.1142318,0.014049901,0.050701816
642,6.42,0.17547716,0.23307467,0.94279313,-0.1142318,0.014049901,0.050701816
643,6.43,0.17547716,0.23307467,0.94279313,-0.1142318,0.014049901,0.050701816
644,6.44,0.17547716,0.23307467,0.94279313,-0.1142318,0.014049901,0.050701816
645,6.45,0.17547716,0.23307467,0.94279313,-0.1142318,0.014049901,0.050701816
646,6.46,0.17547716,0.23307467,0.94279313,-0.1142318,0.014049901,0.050701816
647,6.47,0.17547716,0.23307467,0.94279313,-0.1142318,0.014049901,0.050701816
648,6.48,0.17547716,0.23307467,0.94279313,-0.1142318,0.014049901,0.050701816
649,6.49,0.17547716,0.23307467,0.94279313,-0.1142318,0.014049901,0.050701816
650,6.5,0.17547716,0.23307467,0.94279313,-0.1142318,0.014049901,0.050701816
651,6.51,0.17547716,0.23307467,0.94279313,-0.1142318,0.014049901,0.050701816
652,6.52,0.17547716,0.23307467,0.94279313,-0.1142318,0.014049901,0.050701816
653,6.53,0.17547716,0.23307467,0.94279313,-0.1142318,0.014049901,0.050701816
654,6.54,0.17547716,0.23307467,0.94279313,-0.1142318,0.014049901,0.050701816
655,6.55,0.17547716,0.23307467,0.94279313,-0.1142318,0.014049901,0.050701816
656,6.56,0.17547716,0.23307467,0.94279313,-0.1142318,0.014049901,0.050701816
657,6.57,0.17547716,0.23307467,0.94279313,-0.1142318,0.014049901,0.050701816
658,6.58,0.17547716,0.23307467,0.94279313,-0.1142318,0.014049901,0.050701816
659,6.59,0.17547716,0.23307467,0.94279313,-0.1142318,0.014049901,0.050701816
660,6.6,0.17547716,0.23307467,0.94279313,-0.1142318,0.014049901,0.050701816
661,6.61,0.17547716,0.23307467,0.94279313,-0.1142318,0.014049901,0.050701816
662,6.62,0.17547716,0.23307467,0.94279313,-0.1142318,0.014049901,0.050701816
663,6.63,0.17547716,0.23307467,0.94279313,-0.1142318,0.014049901,0.050701816
664,6.64,0.17547716,0.23307467,0.94279313,-0.1142318,0.014049901,0.050701816
665,6.65,0.17547716,0.23307467,0.94279313,-0.1142318,0.014049901,0.050701816
666,6.66,0.17547716,0.23307467,0.94279313,-0.1142318,0.014049901,0.050701816
667,6.67,0.17547716,0.23307467,0.94279313,-0.1142318,0.014049901,0.050701816
668,6.68,0.17547716,0.23307467,0.94279313,-0.1142318,0.014049901,0.050701816
669,6.69,0.17547716,0.23307467,0.94279313,-0.1142318,0.014049901,0.050701816
670,6.7,0.17547716,0.23307467,0.94279313,-0.1142318,0.014049901,0.050701816
671,6.71,0.17547716,0.23307467,0.94279313,-0.1142318,0.014049901,0.050701816
672,6.72,0.17547716,0.23307467,0.94279313,-0.1142318,0.014049901,0.050701816
673,6.73,0.17547716,0.23307467,0.94279313,-0.1142318,0.014049901,0.050701816
674,6.74,0.17547716,0.23307467,0.94279313,-0.1142318,0.014049901,0.050701816
675,6.75,0.17547716,0.23307467,0.94279313,-0.1142318,0.014049901,0.050701816
676,6.76,0.17547716,0.23307467,0.94279313,-0.1142318,0.014049901,0.050701816
677,6.77,0.17547716,0.23307467,0.94279313,-0.1142318,0.014049901,0.050701816
678,6.78,0.17547716,0.23307467,0.94279313,-0.1142318,0.014049901,0.050701816
679,6.79,0.17547716,0.23307467,0.94279313,-0.1142318,0.014049901,0.050701816
680,6.8,0.17547716,0.23307467,0.94279313,-0.1142318,0.014049901,0.050701816
681,6.81,0.17547716,0.23307467,0.94279313,-0.1142318,0.014049901,0.050701816
682,6.82,0.17547716,0.23307467,0.94279313,-0.1142318,0.014049901,0.050701816
683,6.83,0.17547716,0.23307467,0.94279313,-0.1142318,0.014049901,0.050701816
684,6.84,0.17547716,0.23307467,0.94279313,-0.1142318,0.014049901,0.050701816
685,6.85,0.17547716,0.23307467,0.94279313,-0.1142318,0.014049901,0.050701816
686,6.86,0.17547716,0.23307467,0.94279313,-0.1142318,0.014049901,0.050701816
687,6.87,0.17547716,0.23307467,0.94279313,-0.1142318,0.014049901,0.050701816
688,6.88,0.17547716,0.23307467,0.94279313,-0.1142318,0.014049901,0.050701816
689,6.89,0.17547716,0.23307467,0.94279313,-0.1142318,0.014049901,0.050701816
690,6.9,0.17547716,0.23307467,0.94279313,-0.1142318,0.014049901,0.050701816
691,6.91,0.17547716,0.23307467,0.94279313,-0.1142318,0.014049901,0.050701816
692,6.92,0.17547716,0.23307467,0.94279313,-0.1142318,0.014049901,0.050701816
693,6.93,0.17547716,0.23307467,0.94279313,-0.1142318,0.014049901,0.050701816
694,6.94,0.17547716,0.23307467,0.94279313,-0.1142318,0.014049901,0.050701816
695,6.95,0.17547716,0.23307467,0.94279313,-0.1142318,0.014049901,0.050701816
696,6.96,0.17547716,0.23307467,0.94279313,-0.1142318,0.014049901,0.050701816
697,6.97,0.17547716,0.23307467,0.94279313,-0.1142318,0.014049901,0.050701816
698,6.98,0.17547716,0.23307467,0.94279313,-0.1142318,0.014049901,0.050701816
699,6.99,0.17547716,0.23307467,0.94279313,-0.1142318,0.014049901,0.050701816
700,7.0,0.17547716,0.23307467,0.94279313,-0.1142318,0.014049901,0.050701816
701,7.01,0.17547716,0.23307467,0.94279313,-0.1142318,0.014049901,0.050701816
702,7.02,0.17547716,0.23307467,0.94279313,-0.1142318,0.014049901,0.050701816
703,7.03,0.17547716,0.23307467,0.94279313,-0.1142318,0.014049901,0.050701816
704,7.04,0.17547716,0.23307467,0.94279313,-0.1142318,0.014049901,0.050701816
705,7.05,0.17547716,0.23307467,0.94279313,-0.1142318,0.014049901,0.050701816
706,7.06,0.17547716,0.23307467,0.94279313,-0.1142318,0.014049901,0.050701816
707,7.07,0.17547716,0.23307467,0.94279313,-0.1142318,0.014049901,0.050701816
708,7.08,0.17547716,0.23307467,0.94279313,-0.1142318,0.014049901,0.050701816
709,7.09,0.17547716,0.23307467,0.94279313,-0.1142318,0.014049901,0.050701816
710,7.1,0.17547716,0.23307467,0.94279313,-0.1142318,0.014049901,0.050701816
711,7.11,0.17547716,0.23307467,0.94279313,-0.1142318,0.014049901,0.050701816
712,7.12,0.17547716,0.23307467,0.94279313,-0.1142318,0.014049901,0.050701816
713,7.13,0.17547716,0.23307467,0.94279313,-0.1142318,0.014049901,0.050701816
714,7.14,0.17547716,0.23307467,0.94279313,-0.1142318,0.014049901,0.050701816
715,7.15,0.17547716,0.23307467,0.94279313,-0.1142318,0.014049901,0.050701816
716,7.16,0.17547716,0.23307467,0.94279313,-0.1142318,0.014049901,0.050701816
717,7.17,0.17547716,0.23307467,0.94279313,-0.1142318,0.014049901,0.050701816
718,7.18,0.17547716,0.23307467,0.94279313,-0.1142318,0.014049901,0.050701816
719,7.19,0.17547716,0.23307467,0.94279313,-0.1142318,0.014049901,0.050701816
720,7.2,0.17547716,0.23307467,0.94279313,-0.1142318,0.014049901,0.050701816
721,7.21,0.17547716,0.23307467,0.94279313,-0.1142318,0.014049901,0.050701816
722,7.22,0.17547716,0.23307467,0.94279313,-0.1142318,0.014049901,0.050701816
723,7.23,0.17547716,0.23307467,0.94279313,-0.1142318,0.014049901,0.050701816
724,7.24,0.17547716,0.23307467,0.94279313,-0.1142318,0.014049901,0.050701816
725,7.25,0.17547716,0.23307467,0.94279313,-0.1142318,0.014049901,0.050701816
726,7.26,0.17547716,0.23307467,0.94279313,-0.1142318,0.014049901,0.050701816
727,7.27,0.17547716,0.23307467,0.94279313,-0.1142318,0.014049901,0.050701816
728,7.28,0.17547716,0.23307467,0.94279313,-0.1142318,0.014049901,0.050701816
729,7.29,0.17547716,0.23307467,0.94279313,-0.1142318,0.014049901,0.050701816
730,7.3,0.17547716,0.23307467,0.94279313,-0.1142318,0.014049901,0.050701816
731,7.31,0.17547716,0.23307467,0.94279313,-0.1142318,0.014049901,0.050701816
732,7.32,0.17547716,0.23307467,0.94279313,-0.1142318,0.014049901,0.050701816
733,7.33,0.17547716,0.23307467,0.94279313,-0.1142318,0.014049901,0.050701816
734,7.34,0.17547716,0.23307467,0.94279313,-0.1142318,0.014049901,0.050701816
735,7.35,0.17547716,0.23307467,0.94279313,-0.1142318,0.014049901,0.050701816
736,7.36,0.17547716,0.23307467,0.94279313,-0.1142318,0.014049901,0.050701816
737,7.37,0.17547716,0.23307467,0.94279313,-0.1142318,0.014049901,0.050701816
738,7.38,0.17547716,0.23307467,0.94279313,-0.1142318,0.014049901,0.050701816
739,7.39,0.17547716,0.23307467,0.94279313,-0.1142318,0.014049901,0.050701816
740,7.4,0.17547716,0.23307467,0.94279313,-0.1142318,0.014049901,0.050701816
741,7.41,0.17547716,0.23307467,0.94279313,-0.1142318,0.014049901,0.050701816
742,7.42,0.17547716,0.23307467,0.94279313,-0.1142318,0.014049901,0.050701816
743,7.43,0.17547716,0.23307467,0.94279313,-0.1142318,0.014049901,0.050701816
744,7.44,0.17547716,0.23307467,0.94279313,-0.1142318,0.014049901,0.050701816
745,7.45,0.17547716,0.23307467,0.94279313,-0.1142318,0.014049901,0.050701816
746,7.46,0.17547716,0.23307467,0.94279313,-0.1142318,0.014049901,0.050701816
747,7.47,0.17547716,0.23307467,0.94279313,-0.1142318,0.014049901,0.050701816
748,7.48,0.17547716,0.23307467,0.94279313,-0.1142318,0.014049901,0.050701816
749,7.49,0.17547716,0.23307467,0.94279313,-0.1142318,0.014049901,0.050701816
750,7.5,0.17547716,0.23307467,0.94279313,-0.1142318,0.014049901,0.050701816
751,7.51,0.17547716,0.23307467,0.94279313,-0.1142318,0.014049901,0.050701816
752,7.52,0.17547716,0.23307467,0.94279313,-0.1142318,0.014049901,0.050701816
753,7.53,0.17547716,0.23307467,0.94279313,-0.1142318,0.014049901,0.050701816
754,7.54,0.17547716,0.23307467,0.94279313,-0.1142318,0.014049901,0.050701816
755,7.55,0.17547716,0.23307467,0.94279313,-0.1142318,0.014049901,0.050701816
756,7.56,0.17547716,0.23307467,0.94279313,-0.1142318,0.014049901,0.050701816
757,7.57,0.17547716,0.23307467,0.94279313,-0.1142318,0.014049901,0.050701816
758,7.58,0.17547716,0.23307467,0.94279313,-0.1142318,0.014049901,0.050701816
759,7.59,0.17547716,0.23307467,0.94279313,-0.1142318,0.014049901,0.050701816
760,7.6,0.17547716,0.23307467,0.94279313,-0.1142318,0.014049901,0.050701816
761,7.61,0.17547716,0.23307467,0.94279313,-0.1142318,0.014049901,0.050701816
762,7.62,0.17547716,0.23307467,0.94279313,-0.1142318,0.014049901,0.050701816
763,7.63,0.17547716,0.23307467,0.94279313,-0.1142318,0.014049901,0.050701816
764,7.64,0.17547716,0.23307467,0.94279313,-0.1142318,0.014049901,0.050701816
765,7.65,0.17547716,0.23307467,0.94279313,-0.1142318,0.014049901,0.050701816
766,7.66,0.17547716,0.23307467,0.94279313,-0.1142318,0.014049901,0.050701816
767,7.67,0.17547716,0.23307467,0.94279313,-0.1142318,0.014049901,0.050701816
768,7.68,0.17547716,0.23307467,0.94279313,-0.1142318,0.014049901,0.050701816
769,7.69,0.17547716,0.23307467,0.94279313,-0.1142318,0.014049901,0.050701816
770,7.7,0.17547716,0.23307467,0.94279313,-0.1142318,0.014049901,0.050701816
771,7.71,0.17547716,0.23307467,0.94279313,-0.1142318,0.014049901,0.050701816
772,7.72,0.17547716,0.23307467,0.94279313,-0.1142318,0.014049901,0.050701816
773,7.73,0.17547716,0.23307467,0.94279313,-0.1142318,0.014049901,0.050701816
774,7.74,0.17547716,0.23307467,0.94279313,-0.1142318,0.014049901,0.050701816
775,7.75,0.17547716,0.23307467,0.94279313,-0.1142318,0.014049901,0.050701816
776,7.76,0.17547716,0.23307467,0.94279313,-0.1142318,0.014049901,0.050701816
777,7.77,0.17547716,0.23307467,0.94279313,-0.1142318,0.014049901,0.050701816
778,7.78,0.17547716,0.23307467,0.94279313,-0.1142318,0.014049901,0.050701816
779,7.79,0.17547716,0.23307467,0.94279313,-0.1142318,0.014049901,0.050701816
780,7.8,0.17547716,0.23307467,0.94279313,-0.1142318,0.014049901,0.050701816
781,7.81,0.17547716,0.23307467,0.94279313,-0.1142318,0.014049901,0.050701816
782,7.82,0.17547716,0.23307467,0.94279313,-0.1142318,0.014049901,0.050701816
783,7.83,0.17547716,0.23307467,0.94279313,-0.1142318,0.014049901,0.050701816
784,7.84,0.17547716,0.23307467,0.94279313,-0.1142318,0.014049901,0.050701816
785,7.85,0.17547716,0.23307467,0.94279313,-0.1142318,0.014049901,0.050701816
786,7.86,0.17547716,0.23307467,0.94279313,-0.1142318,0.014049901,0.050701816
787,7.87,0.17547716,0.23307467,0.94279313,-0.1142318,0.014049901,0.050701816
788,7.88,0.17547716,0.23307467,0.94279313,-0.1142318,0.014049901,0.050701816
789,7.89,0.17547716,0.23307467,0.94279313,-0.1142318,0.014049901,0.050701816
790,7.9,0.17547716,0.23307467,0.94279313,-0.1142318,0.014049901,0.050701816
791,7.91,0.17547716,0.23307467,0.94279313,-0.1142318,0.014049901,0.050701816
792,7.92,0.17547716,0.23307467,0.94279313,-0.1142318,0.014049901,0.050701816
793,7.93,0.17547716,0.23307467,0.94279313,-0.1142318,0.014049901,0.050701816
794,7.94,0.17547716,0.23307467,0.94279313,-0.1142318,0.014049901,0.050701816
795,7.95,0.17547716,0.23307467,0.94279313,-0.1142318,0.014049901,0.050701816
796,7.96,0.17547716,0.23307467,0.94279313,-0.1142318,0.014049901,0.050701816
797,7.97,0.17547716,0.23307467,0.94279313,-0.1142318,0.014049901,0.050701816
798,7.98,0.17547716,0.23307467,0.94279313,-0.1142318,0.014049901,0.050701816
799,7.99,0.17547716,0.23307467,0.94279313,-0.1142318,0.014049901,0.050701816
800,8.0,0.17547716,0.23307467,0.94279313,-0.1142318,0.014049901,0.050701816
801,8.01,0.17547716,0.23307467,0.94279313,-0.1142318,0.014049901,0.050701816
802,8.02,0.17547716,0.23307467,0.94279313,-0.1142318,0.014049901,0.050701816
803,8.03,0.17547716,0.23307467,0.94279313,-0.1142318,0.014049901,0.050701816
804,8.04,0.17547716,0.23307467,0.94279313,-0.1142318,0.014049901,0.050701816
805,8.05,0.17547716,0.23307467,0.94279313,-0.1142318,0.014049901,0.050701816
806,8.06,0.17547716,0.23307467,0.94279313,-0.1142318,0.014049901,0.050701816
807,8.07,0.17547716,0.23307467,0.94279313,-0.1142318,0.014049901,0.050701816
808,8.08,0.17547716,0.23307467,0.94279313,-0.1142318,0.014049901,0.050701816
809,8.09,0.17547716,0.23307467,0.94279313,-0.1142318,0.014049901,0.050701816
810,8.1,0.17547716,0.23307467,0.94279313,-0.1142318,0.014049901,0.050701816
811,8.11,0.17547716,0.23307467,0.94279313,-0.1142318,0.014049901,0.050701816
812,8.12,0.17547716,0.23307467,0.94279313,-0.1142318,0.014049901,0.050701816
813,8.13,0.17547716,0.23307467,0.94279313,-0.1142318,0.014049901,0.050701816
814,8.14,0.17547716,0.23307467,0.94279313,-0.1142318,0.014049901,0.050701816
815,8.15,0.17547716,0.23307467,0.94279313,-0.1142318,0.014049901,0.050701816
816,8.16,0.17547716,0.23307467,0.94279313,-0.1142318,0.014049901,0.050701816
817,8.17,0.17547716,0.23307467,0.94279313,-0.1142318,0.014049901,0.050701816
818,8.18,0.17547716,0.23307467,0.94279313,-0.1142318,0.014049901,0.050701816
819,8.19,0.17547716,0.23307467,0.94279313,-0.1142318,0.014049901,0.050701816
820,8.2,0.17547716,0.23307467,0.94279313,-0.1142318,0.014049901,0.050701816
821,8.21,0.17547716,0.23307467,0.94279313,-0.1142318,0.014049901,0.050701816
822,8.22,0.17547716,0.23307467,0.94279313,-0.1142318,0.014049901,0.050701816
823,8.23,0.17547716,0.23307467,0.94279313,-0.1142318,0.014049901,0.050701816
824,8.24,0.17547716,0.23307467,0.94279313,-0.1142318,0.014049901,0.050701816
825,8.25,0.17547716,0.23307467,0.94279313,-0.1142318,0.014049901,0.050701816
826,8.26,0.17547716,0.23307467,0.94279313,-0.1142318,0.014049901,0.050701816
827,8.27,0.17547716,0.23307467,0.94279313,-0.1142318,0.014049901,0.050701816
828,8.28,0.17547716,0.23307467,0.94279313,-0.1142318,0.014049901,0.050701816
829,8.29,0.17547716,0.23307467,0.94279313,-0.1142318,0.014049901,0.050701816
830,8.3,0.17547716,0.23307467,0.94279313,-0.1142318,0.014049901,0.050701816
831,8.31,0.17547716,0.23307467,0.94279313,-0.1142318,0.014049901,0.050701816
832,8.32,0.17547716,0.23307467,0.94279313,-0.1142318,0.014049901,0.050701816
833,8.33,0.17547716,0.23307467,0.94279313,-0.1142318,0.014049901,0.050701816
834,8.34,0.17547716,0.23307467,0.94279313,-0.1142318,0.014049901,0.050701816
835,8.35,0.17547716,0.23307467,0.94279313,-0.1142318,0.014049901,0.050701816
836,8.36,0.17547716,0.23307467,0.94279313,-0.1142318,0.014049901,0.050701816
837,8.37,0.17547716,0.23307467,0.94279313,-0.1142318,0.014049901,0.050701816
838,8.38,0.17547716,0.23307467,0.94279313,-0.1142318,0.014049901,0.050701816
839,8.39,0.17547716,0.23307467,0.94279313,-0.1142318,0.014049901,0.050701816
840,8.4,0.17547716,0.23307467,0.94279313,-0.1142318,0.014049901,0.050701816
841,8.41,0.17547716,0.23307467,0.94279313,-0.1142318,0.014049901,0.050701816
842,8.42,0.17547716,0.23307467,0.94279313,-0.1142318,0.014049901,0.050701816
843,8.43,0.17547716,0.23307467,0.94279313,-0.1142318,0.014049901,0.050701816
844,8.44,0.17547716,0.23307467,0.94279313,-0.1142318,0.014049901,0.050701816
845,8.45,0.17547716,0.23307467,0.94279313,-0.1142318,0.014049901,0.050701816
846,8.46,0.17547716,0.23307467,0.94279313,-0.1142318,0.014049901,0.050701816
847,8.47,0.17547716,0.23307467,0.94279313,-0.1142318,0.014049901,0.050701816
848,8.48,0.17547716,0.23307467,0.94279313,-0.1142318,0.014049901,0.050701816
849,8.49,0.17547716,0.23307467,0.94279313,-0.1142318,0.014049901,0.050701816
850,8.5,0.17547716,0.23307467,0.94279313,-0.1142318,0.014049901,0.050701816
851,8.51,0.17547716,0.23307467,0.94279313,-0.1142318,0.014049901,0.050701816
852,8.52,0.17547716,0.23307467,0.94279313,-0.1142318,0.014049901,0.050701816
853,8.53,0.17547716,0.23307467,0.94279313,-0.1142318,0.014049901,0.050701816
854,8.54,0.17547716,0.23307467,0.94279313,-0.1142318,0.014049901,0.050701816
855,8.55,0.17547716,0.23307467,0.94279313,-0.1142318,0.014049901,0.050701816
856,8.56,0.17547716,0.23307467,0.94279313,-0.1142318,0.014049901,0.050701816
857,8.57,0.17547716,0.23307467,0.94279313,-0.1142318,0.014049901,0.050701816
858,8.58,0.17547716,0.23307467,0.94279313,-0.1142318,0.014049901,0.050701816
859,8.59,0.17547716,0.23307467,0.94279313,-0.1142318,0.014049901,0.050701816
860,8.6,0.17547716,0.23307467,0.94279313,-0.1142318,0.014049901,0.050701816
861,8.61,0.17547716,0.23307467,0.94279313,-0.1142318,0.014049901,0.050701816
862,8.62,0.17547716,0.23307467,0.94279313,-0.1142318,0.014049901,0.050701816
863,8.63,0.17547716,0.23307467,0.94279313,-0.1142318,0.014049901,0.050701816
864,8.64,0.17547716,0.23307467,0.94279313,-0.1142318,0.014049901,0.050701816
865,8.65,0.17547716,0.23307467,0.94279313,-0.1142318,0.014049901,0.050701816
866,8.66,0.17547716,0.23307467,0.94279313,-0.1142318,0.014049901,0.050701816
867,8.67,0.17547716,0.23307467,0.94279313,-0.1142318,0.014049901,0.050701816
868,8.68,0.17547716,0.23307467,0.94279313,-0.1142318,0.014049901,0.050701816
869,8.69,0.17547716,0.23307467,0.94279313,-0.1142318,0.014049901,0.050701816
870,8.7,0.17547716,0.23307467,0.94279313,-0.1142318,0.014049901,0.050701816
871,8.71,0.17547716,0.23307467,0.94279313,-0.1142318,0.014049901,0.050701816
872,8.72,0.17547716,0.23307467,0.94279313,-0.1142318,0.014049901,0.050701816
873,8.73,0.17547716,0.23307467,0.94279313,-0.1142318,0.014049901,0.050701816
874,8.74,0.17547716,0.23307467,0.94279313,-0.1142318,0.014049901,0.050701816
875,8.75,0.17547716,0.23307467,0.94279313,-0.1142318,0.014049901,0.050701816
876,8.76,0.17547716,0.23307467,0.94279313,-0.1142318,0.014049901,0.050701816
877,8.77,0.17547716,0.23307467,0.94279313,-0.1142318,0.014049901,0.050701816
878,8.78,0.17547716,0.23307467,0.94279313,-0.1142318,0.014049901,0.050701816
879,8.79,0.17547716,0.23307467,0.94279313,-0.1142318,0.014049901,0.050701816
880,8.8,0.17547716,0.23307467,0.94279313,-0.1142318,0.014049901,0.050701816
881,8.81,0.17547716,0.23307467,0.94279313,-0.1142318,0.014049901,0.050701816
882,8.82,0.17547716,0.23307467,0.94279313,-0.1142318,0.014049901,0.050701816
883,8.83,0.17547716,0.23307467,0.94279313,-0.1142318,0.014049901,0.050701816
884,8.84,0.17547716,0.23307467,0.94279313,-0.1142318,0.014049901,0.050701816
885,8.85,0.17547716,0.23307467,0.94279313,-0.1142318,0.014049901,0.050701816
886,8.86,0.17547716,0.23307467,0.94279313,-0.1142318,0.014049901,0.050701816
887,8.87,0.17547716,0.23307467,0.94279313,-0.1142318,0.014049901,0.050701816
888,8.88,0.17547716,0.23307467,0.94279313,-0.1142318,0.014049901,0.050701816
889,8.89,0.17547716,0.23307467,0.94279313,-0.1142318,0.014049901,0.050701816
890,8.9,0.17547716,0.23307467,0.94279313,-0.1142318,0.014049901,0.050701816
891,8.91,0.17547716,0.23307467,0.94279313,-0.1142318,0.014049901,0.050701816
892,8.92,0.17547716,0.23307467,0.94279313,-0.1142318,0.014049901,0.050701816
893,8.93,0.17547716,0.23307467,0.94279313,-0.1142318,0.014049901,0.050701816
894,8.94,0.17547716,0.23307467,0.94279313,-0.1142318,0.014049901,0.050701816
895,8.95,0.17547716,0.23307467,0.94279313,-0.1142318,0.014049901,0.050701816
896,8.96,0.17547716,0.23307467,0.94279313,-0.1142318,0.014049901,0.050701816
897,8.97,0.17547716,0.23307467,0.94279313,-0.1142318,0.014049901,0.050701816
898,8.98,0.17547716,0.23307467,0.94279313,-0.1142318,0.014049901,0.050701816
899,8.99,0.17547716,0.23307467,0.94279313,-0.1142318,0.014049901,0.050701816
900,9.0,0.17547716,0.23307467,0.94279313,-0.1142318,0.014049901,0.050701816
901,9.01,0.17547716,0.23307467,0.94279313,-0.1142318,0.014049901,0.050701816
902,9.02,0.17547716,0.23307467,0.94279313,-0.1142318,0.014049901,0.050701816
903,9.03,0.17547716,0.23307467,0.94279313,-0.1142318,0.014049901,0.050701816
904,9.04,0.17547716,0.23307467,0.94279313,-0.1142318,0.014049901,0.050701816
905,9.05,0.17547716,0.23307467,0.94279313,-0.1142318,0.014049901,0.050701816
906,9.06,0.17547716,0.23307467,0.94279313,-0.1142318,0.014049901,0.050701816
907,9.07,0.17547716,0.23307467,0.94279313,-0.1142318,0.014049901,0.050701816
908,9.08,0.17547716,0.23307467,0.94279313,-0.1142318,0.014049901,0.050701816
909,9.09,0.17547716,0.23307467,0.94279313,-0.1142318,0.014049901,0.050701816
910,9.1,0.17547716,0.23307467,0.94279313,-0.1142318,0.014049901,0.050701816
911,9.11,0.17547716,0.23307467,0.94279313,-0.1142318,0.014049901,0.050701816
912,9.12,0.17547716,0.23307467,0.94279313,-0.1142318,0.014049901,0.050701816
913,9.13,0.17547716,0.23307467,0.94279313,-0.1142318,0.014049901,0.050701816
914,9.14,0.17547716,0.23307467,0.94279313,-0.1142318,0.014049901,0.050701816
915,9.15,0.17547716,0.23307467,0.94279313,-0.1142318,0.014049901,0.050701816
916,9.16,0.17547716,0.23307467,0.94279313,-0.1142318,0.014049901,0.050701816
917,9.17,0.17547716,0.23307467,0.94279313,-0.1142318,0.014049901,0.050701816
918,9.18,0.17547716,0.23307467,0.94279313,-0.1142318,0.014049901,0.050701816
919,9.19,0.17547716,0.23307467,0.94279313,-0.1142318,0.014049901,0.050701816
920,9.2,0.17547716,0.23307467,0.94279313,-0.1142318,0.014049901,0.050701816
921,9.21,0.17547716,0.23307467,0.94279313,-0.1142318,0.014049901,0.050701816
922,9.22,0.17547716,0.23307467,0.94279313,-0.1142318,0.014049901,0.050701816
923,9.23,0.17547716,0.23307467,0.94279313,-0.1142318,0.014049901,0.050701816
924,9.24,0.17547716,0.23307467,0.94279313,-0.1142318,0.014049901,0.050701816
925,9.25,0.17547716,0.23307467,0.94279313,-0.1142318,0.014049901,0.050701816
926,9.26,0.17547716,0.23307467,0.94279313,-0.1142318,0.014049901,0.050701816
927,9.27,0.17547716,0.23307467,0.94279313,-0.1142318,0.014049901,0.050701816
928,9.28,0.17547716,0.23307467,0.94279313,-0.1142318,0.014049901,0.050701816
929,9.29,0.17547716,0.23307467,0.94279313,-0.1142318,0.014049901,0.050701816
930,9.3,0.17547716,0.23307467,0.94279313,-0.1142318,0.014049901,0.050701816
931,9.31,0.17547716,0.23307467,0.94279313,-0.1142318,0.014049901,0.050701816
932,9.32,0.17547716,0.23307467,0.94279313,-0.1142318,0.014049901,0.050701816
933,9.33,0.17547716,0.23307467,0.94279313,-0.1142318,0.014049901,0.050701816
934,9.34,0.17547716,0.23307467,0.94279313,-0.1142318,0.014049901,0.050701816
935,9.35,0.17547716,0.23307467,0.94279313,-0.1142318,0.014049901,0.050701816
936,9.36,0.17547716,0.23307467,0.94279313,-0.1142318,0.014049901,0.050701816
937,9.37,0.17547716,0.23307467,0.94279313,-0.1142318,0.014049901,0.050701816
938,9.38,0.17547716,0.23307467,0.94279313,-0.1142318,0.014049901,0.050701816
939,9.39,0.17547716,0.23307467,0.94279313,-0.1142318,0.014049901,0.050701816
940,9.4,0.17547716,0.23307467,0.94279313,-0.1142318,0.014049901,0.050701816
941,9.41,0.17547716,0.23307467,0.94279313,-0.1142318,0.014049901,0.050701816
942,9.42,0.17547716,0.23307467,0.94279313,-0.1142318,0.014049901,0.050701816
943,9.43,0.17547716,0.23307467,0.94279313,-0.1142318,0.014049901,0.050701816
944,9.44,0.17547716,0.23307467,0.94279313,-0.1142318,0.014049901,0.050701816
945,9.45,0.17547716,0.23307467,0.94279313,-0.1142318,0.014049901,0.050701816
946,9.46,0.17547716,0.23307467,0.94279313,-0.1142318,0.014049901,0.050701816
947,9.47,0.17547716,0.23307467,0.94279313,-0.1142318,0.014049901,0.050701816
948,9.48,0.17547716,0.23307467,0.94279313,-0.1142318,0.014049901,0.050701816
949,9.49,0.17547716,0.23307467,0.94279313,-0.1142318,0.014049901,0.050701816
950,9.5,0.17547716,0.23307467,0.94279313,-0.1142318,0.014049901,0.050701816
951,9.51,0.17547716,0.23307467,0.94279313,-0.1142318,0.014049901,0.050701816
952,9.52,0.17547716,0.23307467,0.94279313,-0.1142318,0.014049901,0.050701816
953,9.53,0.17547716,0.23307467,0.94279313,-0.1142318,0.014049901,0.050701816
954,9.54,0.17547716,0.23307467,0.94279313,-0.1142318,0.014049901,0.050701816
955,9.55,0.17547716,0.23307467,0.94279313,-0.1142318,0.014049901,0.050701816
956,9.56,0.17547716,0.23307467,0.94279313,-0.1142318,0.014049901,0.050701816
957,9.57,0.17547716,0.23307467,0.94279313,-0.1142318,0.014049901,0.050701816
958,9.58,0.17547716,0.23307467,0.94279313,-0.1142318,0.014049901,0.050701816
959,9.59,0.17547716,0.23307467,0.94279313,-0.1142318,0.014049901,0.050701816
960,9.6,0.17547716,0.23307467,0.94279313,-0.1142318,0.014049901,0.050701816
961,9.61,0.17547716,0.23307467,0.94279313,-0.1142318,0.014049901,0.050701816
962,9.62,0.17547716,0.23307467,0.94279313,-0.1142318,0.014049901,0.050701816
963,9.63,0.17547716,0.23307467,0.94279313,-0.1142318,0.014049901,0.050701816
964,9.64,0.17547716,0.23307467,0.94279313,-0.1142318,0.014049901,0.050701816
965,9.65,0.17547716,0.23307467,0.94279313,-0.1142318,0.014049901,0.050701816
966,9.66,0.17547716,0.23307467,0.94279313,-0.1142318,0.014049901,0.050701816
967,9.67,0.17547716,0.23307467,0.94279313,-0.1142318,0.014049901,0.050701816
968,9.68,0.17547716,0.23307467,0.94279313,-0.1142318,0.014049901,0.050701816
969,9.69,0.17547716,0.23307467,0.94279313,-0.1142318,0.014049901,0.050701816
970,9.7,0.17547716,0.23307467,0.94279313,-0.1142318,0.014049901,0.050701816
971,9.71,0.17547716,0.23307467,0.94279313,-0.1142318,0.014049901,0.050701816
972,9.72,0.17547716,0.23307467,0.94279313,-0.1142318,0.014049901,0.050701816
973,9.73,0.17547716,0.23307467,0.94279313,-0.1142318,0.014049901,0.050701816
974,9.74,0.17547716,0.23307467,0.94279313,-0.1142318,0.014049901,0.050701816
975,9.75,0.17547716,0.23307467,0.94279313,-0.1142318,0.014049901,0.050701816
976,9.76,0.17547716,0.23307467,0.94279313,-0.1142318,0.014049901,0.050701816
977,9.77,0.17547716,0.23307467,0.94279313,-0.1142318,0.014049901,0.050701816
978,9.78,0.17547716,0.23307467,0.94279313,-0.1142318,0.014049901,0.050701816
979,9.79,0.17547716,0.23307467,0.94279313,-0.1142318,0.014049901,0.050701816
980,9.8,0.17547716,0.23307467,0.94279313,-0.1142318,0.014049901,0.050701816
981,9.81,0.17547716,0.23307467,0.94279313,-0.1142318,0.014049901,0.050701816
982,9.82,0.17547716,0.23307467,0.94279313,-0.1142318,0.014049901,0.050701816
983,9.83,0.17547716,0.23307467,0.94279313,-0.1142318,0.014049901,0.050701816
984,9.84,0.17547716,0.23307467,0.94279313,-0.1142318,0.014049901,0.050701816
985,9.85,0.17547716,0.23307467,0.94279313,-0.1142318,0.014049901,0.050701816
986,9.86,0.17547716,0.23307467,0.94279313,-0.1142318,0.014049901,0.050701816
987,9.87,0.17547716,0.23307467,0.94279313,-0.1142318,0.014049901,0.050701816
988,9.88,0.17547716,0.23307467,0.94279313,-0.1142318,0.014049901,0.050701816
989,9.89,0.17547716,0.23307467,0.94279313,-0.1142318,0.014049901,0.050701816
990,9.9,0.17547716,0.23307467,0.94279313,-0.1142318,0.014049901,0.050701816
991,9.91,0.17547716,0.23307467,0.94279313,-0.1142318,0.014049901,0.050701816
992,9.92,0.17547716,0.23307467,0.94279313,-0.1142318,0.014049901,0.050701816
993,9.93,0.17547716,0.23307467,0.94279313,-0.1142318,0.014049901,0.050701816
994,9.94,0.17547716,0.23307467,0.94279313,-0.1142318,0.014049901,0.050701816
995,9.95,0.17547716,0.23307467,0.94279313,-0.1142318,0.014049901,0.050701816
996,9.96,0.17547716,0.23307467,0.94279313,-0.1142318,0.014049901,0.050701816
997,9.97,0.17547716,0.23307467,0.94279313,-0.1142318,0.014049901,0.050701816
998,9.98,0.17547716,0.23307467,0.94279313,-0.1142318,0.014049901,0.050701816
999,9.99,0.17547716,0.23307467,0.94279313,-0.1142318,0.014049901,0.050701816
