id,timestamp,acc_x,acc_y,acc_z,gyro_x,gyro_y,gyro_z
0,0.0,,,,,,
1,0.01,0.47993797117874065,0.5176638691345865,0.6321051836112782,0.13194689,0.0,-0.40561453
2,0.02,0.13343121279884376,0.44360480993420937,0.8661377248244937,0.13194689,0.0,-0.40561453
3,0.03,-0.15180361,0.36022848,1.0648217,0.13194689,0.0,-0.40561453
4,0.04,-0.14977090247238387,0.3529615510017427,1.0556575778830637,0.13194689,0.0,-0.40561453
5,0.05,-0.12640078352499523,0.26941338051276587,0.9502973029730984,0.13194689,0.0,-0.40561453
6,0.06,-0.122516744,0.25552794,0.93278676,0.21720208268994715,0.06495633348990154,-0.028461816846627026
7,0.07,-0.122516744,0.25552794,0.93278676,0.2602286,0.09773844,0.16187929
8,0.08,-0.122516744,0.25552794,0.93278676,0.2602286,0.09773844,0.16187929
9,0.09,-0.122516744,0.25552794,0.93278676,0.2602286,0.09773844,0.16187929
10,0.1,-0.122516744,0.25552794,0.93278676,0.2602286,0.09773844,0.16187929
11,0.11,-0.122516744,0.25552794,0.93278676,0.2602286,0.09773844,0.16187929
12,0.12,-0.2194205750487335,0.1731596779009301,0.9909290159459709,0.2602286,0.09773844,0.16187929
13,0.13,-0.07564456199448148,0.2803702232994864,0.9290018636801125,0.2602286,0.09773844,0.16187929
14,0.14,-0.0001811869156522313,0.5499972671552973,0.7244904288084014,0.2602286,0.09773844,0.16187929
15,0.15,-0.011958805,0.78659654,0.532777,0.2602286,0.09773844,0.16187929
16,0.16,-0.011958805,0.78659654,0.532777,0.2602286,0.09773844,0.16187929
17,0.17,-0.011958805,0.78659654,0.532777,0.2602286,0.09773844,0.16187929
18,0.18,-0.011958805,0.78659654,0.532777,0.9383025276615102,-1.2325733049453451,-0.09111880328262276
19,0.19,-0.011958805,0.78659654,0.532777,1.1099422,-1.5693128,-0.15515977
20,0.2,-0.011958805,0.78659654,0.532777,1.1099422,-1.5693128,-0.15515977
21,0.21,-0.011958805,0.78659654,0.532777,1.1099422,-1.5693128,-0.15515977
22,0.22,-0.011958805,0.78659654,0.532777,1.1099422,-1.5693128,-0.15515977
23,0.23,-0.011958805,0.78659654,0.532777,1.1099422,-1.5693128,-0.15515977
24,0.24,-0.011958805,0.78659654,0.532777,1.1099422,-1.5693128,-0.15515977
25,0.25,0.02187262152420168,0.6483416777184753,0.7029593209632023,1.1099422,-1.5693128,-0.15515977
26,0.26,0.044418417,0.55620646,0.8163715,1.1099422,-1.5693128,-0.15515977
27,0.27,0.044418417,0.55620646,0.8163715,1.1099422,-1.5693128,-0.15515977
28,0.28,0.044418417,0.55620646,0.8163715,1.1099422,-1.5693128,-0.15515977
29,0.29,0.044418417,0.55620646,0.8163715,1.1099422,-1.5693128,-0.15515977
30,0.3,0.044418417,0.55620646,0.8163715,1.1099422,-1.5693128,-0.15515977
31,0.31,0.044418417,0.55620646,0.8163715,1.1099422,-1.5693128,-0.15515977
32,0.32,0.04874725329660785,0.4919721411621867,0.930247788408782,1.1099422,-1.5693128,-0.15515977
33,0.33,0.059549972,0.3316738,1.2144289,1.1099422,-1.5693128,-0.15515977
34,0.34,0.059549972,0.3316738,1.2144289,1.1099422,-1.5693128,-0.15515977
35,0.35,0.059549972,0.3316738,1.2144289,1.1099422,-1.5693128,-0.15515977
36,0.36,0.059549972,0.3316738,1.2144289,1.1099422,-1.5693128,-0.15515977
37,0.37,0.059549972,0.3316738,1.2144289,1.1099422,-1.5693128,-0.15515977
38,0.38,0.059549972,0.3316738,1.2144289,1.1099422,-1.5693128,-0.15515977
39,0.39,0.059549972,0.3316738,1.2144289,0.9290889630477506,-1.1059983576490777,0.0028804377155040983
40,0.4,0.060771358088848364,0.3323659192646696,1.2018384407211786,0.37384954,0.31642818,0.48808134
41,0.41,0.08413569521372662,0.3456057195031098,0.9609909823840691,0.37384954,0.31642818,0.48808134
42,0.42,0.15423645710295716,0.20927220369079214,1.2412050467230074,0.37384954,0.31642818,0.48808134
43,0.43,0.17450093,0.16620298,1.343047,0.37384954,0.31642818,0.48808134
44,0.44,0.17450093,0.16620298,1.343047,0.44705195812488946,0.3273539203218239,0.43591095254395257
45,0.45,0.17450093,0.16620298,1.343047,0.5375614,0.3408628,0.37140608
46,0.46,0.17450093,0.16620298,1.343047,0.5375614,0.3408628,0.37140608
47,0.47,0.17450093,0.16620298,1.343047,0.5375614,0.3408628,0.37140608
48,0.48,0.17450093,0.16620298,1.343047,0.5375614,0.3408628,0.37140608
49,0.49,0.17450093,0.16620298,1.343047,0.03431004129103303,0.5205192858296261,0.6139689621052069
50,0.5,0.17450093,0.16620298,1.343047,-0.039095376,0.5467244,0.64934975
51,0.51,0.17450093,0.16620298,1.343047,-0.22382725259343283,1.1609284423369428,0.6669992896199143
52,0.52,0.17450093,0.16620298,1.343047,-0.42271876,1.822211,0.68600166
53,0.53,0.17450093,0.16620298,1.343047,-0.42271876,1.822211,0.68600166
54,0.54,0.17450093,0.16620298,1.343047,-0.42271876,1.822211,0.68600166
55,0.55,0.17450093,0.16620298,1.343047,-0.42271876,1.822211,0.68600166
56,0.56,0.17450093,0.16620298,1.343047,-0.4004904662808758,3.00586684910031,1.0427655334234436
57,0.57,0.17450093,0.16620298,1.343047,-0.38606682,3.7739255,1.2742649
58,0.58,0.17450093,0.16620298,1.343047,-0.38606682,3.7739255,1.2742649
59,0.59,0.17450093,0.16620298,1.343047,-0.38606682,3.7739255,1.2742649
60,0.6,0.17450093,0.16620298,1.343047,-0.38606682,3.7739255,1.2742649
61,0.61,0.17450093,0.16620298,1.343047,-0.38606682,3.7739255,1.2742649
62,0.62,0.14572017938752552,0.21852471445070876,1.2514649907228665,-0.38606682,3.7739255,1.2742649
63,0.63,0.082003236,0.33435842,1.048714,-0.38606682,3.7739255,1.2742649
64,0.64,0.082003236,0.33435842,1.048714,-0.38606682,3.7739255,1.2742649
65,0.65,-0.1420761892978605,0.5494608934829747,0.6349093768436034,-0.38606682,3.7739255,1.2742649
66,0.66,-0.23478307,0.6384538,0.46370876,-0.38606682,3.7739255,1.2742649
67,0.67,-0.23478307,0.6384538,0.46370876,-0.38606682,3.7739255,1.2742649
68,0.68,-0.23478307,0.6384538,0.46370876,-0.38606682,3.7739255,1.2742649
69,0.69,-0.23478307,0.6384538,0.46370876,-0.38606682,3.7739255,1.2742649
70,0.7,-0.23478307,0.6384538,0.46370876,-0.38606682,3.7739255,1.2742649
71,0.71,-0.23478307,0.6384538,0.46370876,-0.38606682,3.7739255,1.2742649
72,0.72,-0.23478307,0.6384538,0.46370876,-0.38606682,3.7739255,1.2742649
73,0.73,-0.36006692822996417,0.27875899338542204,0.43358587033674534,-0.38606682,3.7739255,1.2742649
74,0.74,-0.45809543,-0.0026846298,0.41001618,-0.38606682,3.7739255,1.2742649
75,0.75,-0.45809543,-0.0026846298,0.41001618,-0.38606682,3.7739255,1.2742649
76,0.76,-0.45809543,-0.0026846298,0.41001618,-0.38606682,3.7739255,1.2742649
77,0.77,-0.45809543,-0.0026846298,0.41001618,-0.38606682,3.7739255,1.2742649
78,0.78,-0.45809543,-0.0026846298,0.41001618,-0.38606682,3.7739255,1.2742649
79,0.79,-0.45809543,-0.0026846298,0.41001618,0.7493477723511731,1.4383003857612924,0.35553021256068074
80,0.8,-0.45809543,-0.0026846298,0.41001618,1.9474384,-1.0262536,-0.61391956
81,0.81,-0.45809543,-0.0026846298,0.41001618,1.8733013964710892,-1.6882056381793522,-0.5346031195639039
82,0.82,-0.45809543,-0.0026846298,0.41001618,1.5195532275367785,-4.84674065149379,-0.15614102593862456
83,0.83,-0.45809543,-0.0026846298,0.41001618,1.5015068,-5.007873,-0.13683382
84,0.84,-0.45809543,-0.0026846298,0.41001618,1.5015068,-5.007873,-0.13683382
85,0.85,-0.45809543,-0.0026846298,0.41001618,1.5015068,-5.007873,-0.13683382
86,0.86,-0.45809543,-0.0026846298,0.41001618,1.5015068,-5.007873,-0.13683382
87,0.87,-0.45809543,-0.0026846298,0.41001618,1.5015068,-5.007873,-0.13683382
88,0.88,-0.45809543,-0.0026846298,0.41001618,1.5015068,-5.007873,-0.13683382
89,0.89,-0.45809543,-0.0026846298,0.41001618,1.5015068,-5.007873,-0.13683382
90,0.9,-0.45809543,-0.0026846298,0.41001618,1.5015068,-5.007873,-0.13683382
91,0.91,-0.45809543,-0.0026846298,0.41001618,1.5015068,-5.007873,-0.13683382
92,0.92,-0.45809543,-0.0026846298,0.41001618,1.5015068,-5.007873,-0.13683382
93,0.93,-0.45809543,-0.0026846298,0.41001618,1.5015068,-5.007873,-0.13683382
94,0.94,-0.45809543,-0.0026846298,0.41001618,1.5015068,-5.007873,-0.13683382
95,0.95,-0.45809543,-0.0026846298,0.41001618,1.5015068,-5.007873,-0.13683382
96,0.96,-0.29343738999901076,0.20419122365662024,0.42463333931524866,1.5015068,-5.007873,-0.13683382
97,0.97,0.009274175,0.5845171,0.4515059,1.1011132474352119,-5.14011647702702,-0.1936142399198798
98,0.98,0.009274175,0.5845171,0.4515059,-0.5015204,-5.6694403,-0.42088616
99,0.99,0.009274175,0.5845171,0.4515059,-0.5015204,-5.6694403,-0.42088616
100,1.0,0.009274175,0.5845171,0.4515059,-0.5015204,-5.6694403,-0.42088616
101,1.01,0.009274175,0.5845171,0.4515059,-0.5015204,-5.6694403,-0.42088616
102,1.02,-0.003859181748534087,0.5400528970231747,0.5535676699988098,-0.5015204,-5.6694403,-0.42088616
103,1.03,-0.048323333,0.38951537,0.8991069,-0.5015204,-5.6694403,-0.42088616
104,1.04,-0.048323333,0.38951537,0.8991069,-0.5015204,-5.6694403,-0.42088616
105,1.05,-0.048323333,0.38951537,0.8991069,-0.12187186401190377,-1.887642664509292,0.41184816707989064
106,1.06,-0.048323333,0.38951537,0.8991069,0.019547688,-0.47891834,0.72204274
107,1.07,-0.048323333,0.38951537,0.8991069,0.019547688,-0.47891834,0.72204274
108,1.08,-0.048323333,0.38951537,0.8991069,0.019547688,-0.47891834,0.72204274
109,1.09,-0.048323333,0.38951537,0.8991069,0.019547688,-0.47891834,0.72204274
110,1.1,-0.048323333,0.38951537,0.8991069,0.019547688,-0.47891834,0.72204274
111,1.11,-0.039094816142271054,0.39579861651298076,1.0813210730123575,0.019547688,-0.47891834,0.72204274
112,1.12,-0.08535778697579836,0.13142739309564946,1.0194570297637522,0.019547688,-0.47891834,0.72204274
113,1.13,-0.06892318660566261,0.23661271117545937,0.7894246771198208,0.019547688,-0.47891834,0.72204274
114,1.14,-0.024161667,0.49812084,0.60306543,-0.030981743870474532,-0.16540173127094643,0.4247189505742551
115,1.15,-0.024161667,0.49812084,0.60306543,0.15879507371932045,0.14100565168725945,-0.281668093642921
116,1.16,-0.024161667,0.49812084,0.60306543,1.1658739787098198,-1.24584029831623,-0.49008343354727846
117,1.17,-0.024161667,0.49812084,0.60306543,0.3994013216173876,-1.258179799905531,-0.08193077472971803
118,1.18,-0.02362838594944699,0.43092735916486824,0.9337000819385988,0.3109304,-1.2596041,-0.03481932
119,1.19,-0.023429496,0.4058672,1.057012,0.46391498990849556,-1.3931744408904256,-0.255365651585696
120,1.2,-0.023429496,0.4058672,1.057012,0.5516113,-1.4697418,-0.3817908
121,1.21,-0.08479528465716123,0.36449699859749124,0.9021692272678387,0.5516113,-1.4697418,-0.3817908
122,1.22,-0.17547716,0.30336314,0.6733539,0.4166151576274262,-1.1084635619544818,-0.29095087696492733
123,1.23,-0.17547716,0.30336314,0.6733539,-0.0030543262,0.014660766,-0.008552114
124,1.24,-0.17547716,0.30336314,0.6733539,-0.0030543262,0.014660766,-0.008552114
125,1.25,0.4319952159531981,0.5090350993716849,0.5837619773225429,0.01205783399677457,0.0507349547075078,-0.021226828972854914
126,1.26,0.5857374,0.5610876,0.5610876,0.015882496,0.059864793,-0.02443461
127,1.27,0.32667919811144464,0.5702932651911575,0.6406895234580272,0.015882496,0.059864793,-0.02443461
128,1.28,0.0019524579,0.58183247,0.7404697,0.015882496,0.059864793,-0.02443461
129,1.29,0.15047928882135336,0.5751802162064283,0.7027937215495997,0.07007176744010345,-0.17127211176347545,-0.03381934409080266
130,1.3,0.60135704,0.5549862,0.58842206,0.23457226,-0.8729264,-0.062308256
131,1.31,0.60135704,0.5549862,0.58842206,0.23457226,-0.8729264,-0.062308256
132,1.32,0.60135704,0.5549862,0.58842206,0.23457226,-0.8729264,-0.062308256
133,1.33,0.60135704,0.5549862,0.58842206,0.23457226,-0.8729264,-0.062308256
134,1.34,0.60135704,0.5549862,0.58842206,0.23457226,-0.8729264,-0.062308256
135,1.35,0.60135704,0.5549862,0.58842206,0.23457226,-0.8729264,-0.062308256
136,1.36,0.60135704,0.5549862,0.58842206,0.23457226,-0.8729264,-0.062308256
137,1.37,0.60135704,0.5549862,0.58842206,0.22093083412335374,-0.9120143361883933,-0.08792965259179253
138,1.38,0.60135704,0.5549862,0.58842206,0.14403218360602657,-1.132358570843563,-0.23236109546985015
139,1.39,0.60135704,0.5549862,0.58842206,0.13927728,-1.1459832,-0.24129178
140,1.4,0.60135704,0.5549862,0.58842206,0.13927728,-1.1459832,-0.24129178
141,1.41,0.60135704,0.5549862,0.58842206,0.13927728,-1.1459832,-0.24129178
142,1.42,0.60135704,0.5549862,0.58842206,0.13927728,-1.1459832,-0.24129178
143,1.43,0.60135704,0.5549862,0.58842206,0.13927728,-1.1459832,-0.24129178
144,1.44,0.60135704,0.5549862,0.58842206,0.1491393336401252,-1.138099993146537,-0.2403586652721995
145,1.45,0.60135704,0.5549862,0.58842206,0.447205649364734,-0.8998414611358636,-0.21215662143700315
146,1.46,0.60135704,0.5549862,0.58842206,0.5137377,-0.84665924,-0.20586158
147,1.47,0.60135704,0.5549862,0.58842206,0.5137377,-0.84665924,-0.20586158
148,1.48,0.60135704,0.5549862,0.58842206,0.5137377,-0.84665924,-0.20586158
149,1.49,0.599900332568049,0.5574692275155481,0.5872964175677742,0.5137377,-0.84665924,-0.20586158
150,1.5,0.5922610422882002,0.570490763307892,0.5813933040787667,0.5137377,-0.84665924,-0.20586158
151,1.51,0.59061855,0.57329047,0.5801241,0.5137377,-0.84665924,-0.20586158
152,1.52,0.2321887304194537,0.5188013534559459,0.7670037027982237,0.23155172978553096,-0.36495490503188144,-0.08970840434816726
153,1.53,-0.0370967,0.47786412,0.90740484,0.019547688,-0.0030543262,-0.002443461
154,1.54,-0.0370967,0.47786412,0.90740484,0.019547688,-0.0030543262,-0.002443461
155,1.55,-0.0370967,0.47786412,0.90740484,0.019547688,-0.0030543262,-0.002443461
156,1.56,-0.0035886533664521813,0.5567065783483336,0.8513191836980042,0.019547688,-0.0030543262,-0.002443461
157,1.57,0.008542004,0.5852493,0.83101493,0.019547688,-0.0030543262,-0.002443461
158,1.58,0.008542004,0.5852493,0.83101493,0.019547688,-0.0030543262,-0.002443461
159,1.59,0.012055037360330726,0.5822909555593885,0.8319394127955234,0.019547688,-0.0030543262,-0.002443461
160,1.6,0.03546073596274239,0.5625808898592,0.8380988093783948,0.019547688,-0.0030543262,-0.002443461
161,1.61,0.03636453,0.5618198,0.83833665,0.019547688,-0.0030543262,-0.002443461
162,1.62,0.03636453,0.5618198,0.83833665,0.019547688,-0.0030543262,-0.002443461
163,1.63,0.005645626266950851,0.534704786371219,0.857986465862781,0.019547688,-0.0030543262,-0.002443461
164,1.64,-0.03595999930755269,0.4967433892865221,0.8819604179162014,0.019547688,-0.0030543262,-0.002443461
165,1.65,0.049299564,0.5649925,0.81246656,0.019547688,-0.0030543262,-0.002443461
166,1.66,0.049299564,0.5649925,0.81246656,0.019547688,-0.0030543262,-0.002443461
167,1.67,0.049299564,0.5649925,0.81246656,0.019547688,-0.0030543262,-0.002443461
168,1.68,0.09219796697483004,0.5832128153877603,0.8506369089980969,0.019547688,-0.0030543262,-0.002443461
169,1.69,0.14008886,0.6035536,0.8932495,0.019547688,-0.0030543262,-0.002443461
170,1.7,0.14008886,0.6035536,0.8932495,0.019547688,-0.0030543262,-0.002443461
171,1.71,0.14008886,0.6035536,0.8932495,0.019547688,-0.0030543262,-0.002443461
172,1.72,0.14008886,0.6035536,0.8932495,0.03127360131882192,0.11290192913666836,0.03751150087365425
173,1.73,0.14008886,0.6035536,0.8932495,0.03604105,0.1600467,0.05375614
174,1.74,0.14008886,0.6035536,0.8932495,0.03604105,0.1600467,0.05375614
175,1.75,0.14008886,0.6035536,0.8932495,0.03604105,0.1600467,0.05375614
176,1.76,0.14008886,0.6035536,0.8932495,0.036039533618566155,0.1599958506813245,0.05373106916404492
177,1.77,0.14008886,0.6035536,0.8932495,0.028128880989885335,-0.1052746725984073,-0.07705836806138795
178,1.78,0.14008886,0.6035536,0.8932495,0.1178126462142198,0.1284524937730203,-0.11576150789096853
179,1.79,0.19746177053140665,0.5453742336457262,0.8722818751883763,0.16249016,0.26389378,-0.12461651
180,1.8,0.26162934,0.4803047,0.84883106,0.16249016,0.26389378,-0.12461651
181,1.81,0.26162934,0.4803047,0.84883106,0.16249016,0.26389378,-0.12461651
182,1.82,0.26162934,0.4803047,0.84883106,0.16249016,0.26389378,-0.12461651
183,1.83,0.26162934,0.4803047,0.84883106,0.26963107681769205,0.040382583333340015,-0.19965527911214434
184,1.84,0.26162934,0.4803047,0.84883106,0.32559118,-0.076358154,-0.23884831
185,1.85,0.26162934,0.4803047,0.84883106,0.32559118,-0.076358154,-0.23884831
186,1.86,0.26162934,0.4803047,0.84883106,0.32559118,-0.076358154,-0.23884831
187,1.87,0.26162934,0.4803047,0.84883106,0.32559118,-0.076358154,-0.23884831
188,1.88,0.26162934,0.4803047,0.84883106,0.32559118,-0.076358154,-0.23884831
189,1.89,0.26162934,0.4803047,0.84883106,0.32559118,-0.076358154,-0.23884831
190,1.9,0.26162934,0.4803047,0.84883106,0.32559118,-0.076358154,-0.23884831
191,1.91,0.2308543251198085,0.49432754232172016,0.767140777447907,0.32559118,-0.076358154,-0.23884831
192,1.92,0.17401206514936368,0.5018755885638803,0.6599556535875042,0.32559118,-0.076358154,-0.23884831
193,1.93,0.14497001,0.44686884,0.74535084,0.32559118,-0.076358154,-0.23884831
194,1.94,0.14497001,0.44686884,0.74535084,0.32559118,-0.076358154,-0.23884831
195,1.95,0.14497001,0.44686884,0.74535084,0.32559118,-0.076358154,-0.23884831
196,1.96,0.14497001,0.44686884,0.74535084,0.32559118,-0.076358154,-0.23884831
197,1.97,0.14497001,0.44686884,0.74535084,0.32559118,-0.076358154,-0.23884831
198,1.98,0.14497001,0.44686884,0.74535084,0.32559118,-0.076358154,-0.23884831
199,1.99,0.14497001,0.44686884,0.74535084,0.32559118,-0.076358154,-0.23884831
200,2.0,0.14497001,0.44686884,0.74535084,0.32559118,-0.076358154,-0.23884831
201,2.01,0.14497001,0.44686884,0.74535084,0.32559118,-0.076358154,-0.23884831
202,2.02,0.13690432744347575,0.44990271728453984,0.6931089087302885,0.32559118,-0.076358154,-0.23884831
203,2.03,0.11836776,0.45687518,0.5730464,0.32559118,-0.076358154,-0.23884831
204,2.04,0.11836776,0.45687518,0.5730464,0.32559118,-0.076358154,-0.23884831
205,2.05,0.11836776,0.45687518,0.5730464,0.32559118,-0.076358154,-0.23884831
206,2.06,0.11836776,0.45687518,0.5730464,0.32559118,-0.076358154,-0.23884831
207,2.07,0.11836776,0.45687518,0.5730464,0.32559118,-0.076358154,-0.23884831
208,2.08,0.11836776,0.45687518,0.5730464,0.32559118,-0.076358154,-0.23884831
209,2.09,0.12393207711798479,0.4522907463145573,0.6001680651651877,0.32559118,-0.076358154,-0.23884831
210,2.1,0.154590686990921,0.42703115724547897,0.749604650782551,0.32559118,-0.076358154,-0.23884831
211,2.11,0.15717287,0.4249037,0.76219076,0.32559118,-0.076358154,-0.23884831
212,2.12,0.15717287,0.4249037,0.76219076,0.32559118,-0.076358154,-0.23884831
213,2.13,0.39824663020658574,0.5026835517511986,0.6366922838255047,0.32559118,-0.076358154,-0.23884831
214,2.14,0.5603554,0.5549862,0.5523015,0.32559118,-0.076358154,-0.23884831
215,2.15,0.5603554,0.5549862,0.5523015,0.2441011657259779,-0.31848775036346616,-0.0458680412009894
216,2.16,0.5664654338914494,0.5606262233077816,0.5532053548839594,0.09162979,-0.7715228,0.31520647
217,2.17,0.5981760020323708,0.5898974755782602,0.5578962866196095,0.09162979,-0.7715228,0.31520647
218,2.18,0.3422555103188637,0.5908110291263351,0.7221033974249906,0.09162979,-0.7715228,0.31520647
219,2.19,0.24754487641833586,0.37134066860155635,0.7493859647582508,-0.4647247919056176,1.1736878367217376,-0.7794539121177682
220,2.2,0.23185438,0.29384494,0.7477914,-0.66156703,1.8619173,-1.1667526
221,2.21,0.23185438,0.29384494,0.7477914,-0.66156703,1.8619173,-1.1667526
222,2.22,0.17434189136505363,0.40569241715408716,0.6197387300094848,-0.66156703,1.8619173,-1.1667526
223,2.23,0.010982576,0.72338563,0.25601605,-0.66156703,1.8619173,-1.1667526
224,2.24,0.010982576,0.72338563,0.25601605,-0.66156703,1.8619173,-1.1667526
225,2.25,0.010982576,0.72338563,0.25601605,-0.66156703,1.8619173,-1.1667526
226,2.26,0.11841483283043994,0.6606073813663098,0.6251995289902803,-0.66156703,1.8619173,-1.1667526
227,2.27,0.21062139,0.6067263,0.94206095,-0.66156703,1.8619173,-1.1667526
228,2.28,0.21062139,0.6067263,0.94206095,-0.66156703,1.8619173,-1.1667526
229,2.29,0.21062139,0.6067263,0.94206095,-0.66156703,1.8619173,-1.1667526
230,2.3,0.19854640816572844,0.5461762884193713,0.9410109450326952,-0.66156703,1.8619173,-1.1667526
231,2.31,0.20993423193503719,0.5798763902896301,0.7593413634179161,-0.66156703,1.8619173,-1.1667526
232,2.32,0.22355644,0.6284474,0.60648227,-0.4298319162586026,1.325086306029936,-0.7875015263821679
233,2.33,0.1944022095280297,0.5966858964157608,0.6079044275050399,-0.12705997,0.6236934,-0.2919936
234,2.34,0.13349932,0.53033644,0.6108753,-0.17399908535328398,0.652759907470505,-0.3094899425833425
235,2.35,0.13349932,0.53033644,0.6108753,-0.4165969729180493,0.8029858599231148,-0.39991720604755204
236,2.36,0.13349932,0.53033644,0.6108753,-0.43188173,0.81245077,-0.40561453
237,2.37,0.13349932,0.53033644,0.6108753,-0.43188173,0.81245077,-0.40561453
238,2.38,0.13349932,0.53033644,0.6108753,-0.43188173,0.81245077,-0.40561453
239,2.39,0.13349932,0.53033644,0.6108753,-0.43188173,0.81245077,-0.40561453
240,2.4,0.13349932,0.53033644,0.6108753,-0.43188173,0.81245077,-0.40561453
241,2.41,0.13349932,0.53033644,0.6108753,-0.43188173,0.81245077,-0.40561453
242,2.42,0.13349932,0.53033644,0.6108753,-0.43188173,0.81245077,-0.40561453
243,2.43,0.13349932,0.53033644,0.6108753,-0.43188173,0.81245077,-0.40561453
244,2.44,0.13349932,0.53033644,0.6108753,-0.43188173,0.81245077,-0.40561453
245,2.45,0.13349932,0.53033644,0.6108753,-0.43188173,0.81245077,-0.40561453
246,2.46,0.13349932,0.53033644,0.6108753,-0.43188173,0.81245077,-0.40561453
247,2.47,0.13349932,0.53033644,0.6108753,-0.43188173,0.81245077,-0.40561453
248,2.48,0.13349932,0.53033644,0.6108753,-0.39981327132281064,0.7469440924868395,-0.3864379136297415
249,2.49,0.13349932,0.53033644,0.6108753,0.20993170811242626,-0.4985902855512344,-0.021816536842527504
250,2.5,0.09789419134047508,0.5009377051252911,0.6822488586399628,0.29749137,-0.6774496,0.030543262
251,2.51,0.08029483,0.48640612,0.7175283,0.29749137,-0.6774496,0.030543262
252,2.52,0.08029483,0.48640612,0.7175283,0.19850776727255187,-0.6196148820908095,-0.032382030372122145
253,2.53,0.08029483,0.48640612,0.7175283,-0.11622561381082823,-0.43572062273874534,-0.23246254348973971
254,2.54,0.08029483,0.48640612,0.7175283,-0.1301143,-0.42760566,-0.24129178
255,2.55,0.08029483,0.48640612,0.7175283,-0.1301143,-0.42760566,-0.24129178
256,2.56,0.10355141649549011,0.46966137213281084,0.7345056100157745,-0.1301143,-0.42760566,-0.24129178
257,2.57,0.153512,0.43368974,0.77097684,-0.1301143,-0.42760566,-0.24129178
258,2.58,0.153512,0.43368974,0.77097684,-0.1301143,-0.42760566,-0.24129178
259,2.59,0.153512,0.43368974,0.77097684,-0.1301143,-0.42760566,-0.24129178
260,2.6,0.153512,0.43368974,0.77097684,-0.1301143,-0.42760566,-0.24129178
261,2.61,0.153512,0.43368974,0.77097684,-0.1301143,-0.42760566,-0.24129178
262,2.62,0.153512,0.43368974,0.77097684,-0.1301143,-0.42760566,-0.24129178
263,2.63,0.153512,0.43368974,0.77097684,-0.1301143,-0.42760566,-0.24129178
264,2.64,0.153512,0.43368974,0.77097684,-0.1301143,-0.42760566,-0.24129178
265,2.65,0.153512,0.43368974,0.77097684,-0.1301143,-0.42760566,-0.24129178
266,2.66,0.153512,0.43368974,0.77097684,-0.25056401607465206,-0.31365837096562954,-0.3202498248043619
267,2.67,0.153512,0.43368974,0.77097684,-0.36774087,-0.20280726,-0.39706242
268,2.68,0.153512,0.43368974,0.77097684,-0.36774087,-0.20280726,-0.39706242
269,2.69,0.4542287122432851,0.534148214442955,0.6148544717222185,-0.36774087,-0.20280726,-0.39706242
270,2.7,0.59916055,0.58256465,0.53961056,-0.36774087,-0.20280726,-0.39706242
271,2.71,0.59916055,0.58256465,0.53961056,-0.36774087,-0.20280726,-0.39706242
272,2.72,0.59916055,0.58256465,0.53961056,-0.36774087,-0.20280726,-0.39706242
273,2.73,0.59916055,0.58256465,0.53961056,-0.36774087,-0.20280726,-0.39706242
274,2.74,0.5673603059410166,0.5811995236469513,0.5540234144191308,-0.36774087,-0.20280726,-0.39706242
275,2.75,0.13751302831729945,0.5627469656923019,0.748843498924119,-0.36774087,-0.20280726,-0.39706242
276,2.76,0.1858637111198834,0.5287368394947611,0.7647617557348174,-0.36774087,-0.20280726,-0.39706242
277,2.77,0.24186075,0.51520485,0.7560893,-0.36774087,-0.20280726,-0.39706242
278,2.78,0.24186075,0.51520485,0.7560893,-0.36774087,-0.20280726,-0.39706242
279,2.79,0.24186075,0.51520485,0.7560893,-0.36774087,-0.20280726,-0.39706242
280,2.8,0.24186075,0.51520485,0.7560893,-0.36774087,-0.20280726,-0.39706242
281,2.81,0.24186075,0.51520485,0.7560893,-0.36774087,-0.20280726,-0.39706242
282,2.82,0.24186075,0.51520485,0.7560893,0.35596568552788516,-1.492173111135172,0.2772934225476142
283,2.83,0.24186075,0.51520485,0.7560893,1.0476339,-2.724459,0.92179567
284,2.84,0.24186075,0.51520485,0.7560893,1.0476339,-2.724459,0.92179567
285,2.85,0.24186075,0.51520485,0.7560893,1.0476339,-2.724459,0.92179567
286,2.86,0.24186075,0.51520485,0.7560893,1.0476339,-2.724459,0.92179567
287,2.87,0.1126397780529514,0.31949064865925686,0.839940586773854,1.0476339,-2.724459,0.92179567
288,2.88,-0.10152781,-0.004881145,0.9789136,1.0476339,-2.724459,0.92179567
289,2.89,-0.10152781,-0.004881145,0.9789136,1.0476339,-2.724459,0.92179567
290,2.9,-0.10152781,-0.004881145,0.9789136,1.0476339,-2.724459,0.92179567
291,2.91,-0.10152781,-0.004881145,0.9789136,1.0476339,-2.724459,0.92179567
292,2.92,-0.10152781,-0.004881145,0.9789136,-0.374633331340754,-1.006817528696444,2.581534959712674
293,2.93,-0.10152781,-0.004881145,0.9789136,-1.3231341,0.1386664,3.6884043
294,2.94,-0.10152781,-0.004881145,0.9789136,-1.3231341,0.1386664,3.6884043
295,2.95,-0.10152781,-0.004881145,0.9789136,-1.3231341,0.1386664,3.6884043
296,2.96,-0.10152781,-0.004881145,0.9789136,-1.3231341,0.1386664,3.6884043
297,2.97,-0.11050205790175754,-0.008227474203192552,0.9833246950870295,-1.3231341,0.1386664,3.6884043
298,2.98,-0.11592719,-0.0102504045,0.9859913,-1.3231341,0.1386664,3.6884043
299,2.99,-0.11592719,-0.0102504045,0.9859913,-1.242051029871345,0.11670007515333883,3.428806877574942
300,3.0,-0.11592719,-0.0102504045,0.9859913,-0.46166973822841595,-0.09471408231857331,0.9303201836473559
301,3.01,-0.11592719,-0.0102504045,0.9859913,-0.344528,-0.12644911,0.5552765
302,3.02,-0.11592719,-0.0102504045,0.9859913,-0.344528,-0.12644911,0.5552765
303,3.03,-0.11592719,-0.0102504045,0.9859913,-0.20844647597730917,-0.0833815489841468,0.47572115103461915
304,3.04,0.1556238081984002,0.18991596591916274,0.8999760398528471,-0.06658431,-0.03848451,0.39278635
305,3.05,0.7084982,0.59745216,0.72485006,-0.06658431,-0.03848451,0.39278635
306,3.06,0.7084982,0.59745216,0.72485006,-0.06658431,-0.03848451,0.39278635
307,3.07,0.7084982,0.59745216,0.72485006,-0.06658431,-0.03848451,0.39278635
308,3.08,0.664607933653311,0.5834300564658316,0.661693719262342,-0.06658431,-0.03848451,0.39278635
309,3.09,0.6145361,0.56743306,0.58964235,-0.06658431,-0.03848451,0.39278635
310,3.1,0.6145361,0.56743306,0.58964235,-0.06658431,-0.03848451,0.39278635
311,3.11,0.6627315158419156,0.6108318171152091,0.6232192137810774,-0.06658431,-0.03848451,0.39278635
312,3.12,0.6660322,0.613804,0.62551874,-0.06658431,-0.03848451,0.39278635
313,3.13,0.6660322,0.613804,0.62551874,-0.06658431,-0.03848451,0.39278635
314,3.14,0.6767010631018988,0.6186421849095997,0.6400333252273276,-0.06658431,-0.03848451,0.39278635
315,3.15,0.68702114,0.6233222,0.6540734,0.051863343769544365,-0.003543551908085568,0.30730186865363723
316,3.16,0.68702114,0.6233222,0.6540734,0.26267207,0.058643065,0.15515977
317,3.17,0.68702114,0.6233222,0.6540734,0.26267207,0.058643065,0.15515977
318,3.18,0.68702114,0.6233222,0.6540734,0.26267207,0.058643065,0.15515977
319,3.19,0.68702114,0.6233222,0.6540734,0.26267207,0.058643065,0.15515977
320,3.2,0.68702114,0.6233222,0.6540734,0.26267207,0.058643065,0.15515977
321,3.21,0.68702114,0.6233222,0.6540734,0.26267207,0.058643065,0.15515977
322,3.22,0.6648872805275696,0.6106224482209224,0.629460060932391,0.2660021321468738,0.005816147732550397,0.09945688996934117
323,3.23,0.5976962,0.5720702,0.5547421,0.2761111,-0.15454891,-0.06963864
324,3.24,0.5976962,0.5720702,0.5547421,0.2761111,-0.15454891,-0.06963864
325,3.25,0.5976962,0.5720702,0.5547421,0.2761111,-0.15454891,-0.06963864
326,3.26,0.5976962,0.5720702,0.5547421,0.2761111,-0.15454891,-0.06963864
327,3.27,0.5976962,0.5720702,0.5547421,0.2761111,-0.15454891,-0.06963864
328,3.28,0.5976962,0.5720702,0.5547421,0.2761111,-0.15454891,-0.06963864
329,3.29,0.5976962,0.5720702,0.5547421,0.2726695169527616,-0.13473884165484065,-0.07576633014309118
330,3.3,0.5976962,0.5720702,0.5547421,0.2524810938386443,-0.018532422637123937,-0.11171153315662771
331,3.31,0.5976962,0.5720702,0.5547421,0.2510656,-0.01038471,-0.1142318
332,3.32,0.5976962,0.5720702,0.5547421,0.2510656,-0.01038471,-0.1142318
333,3.33,0.5976962,0.5720702,0.5547421,0.2510656,-0.01038471,-0.1142318
334,3.34,0.5976962,0.5720702,0.5547421,0.2510656,-0.01038471,-0.1142318
335,3.35,0.5976962,0.5720702,0.5547421,0.14967689102218315,-0.28488089723765336,-0.3419634214740837
336,3.36,0.5976962,0.5720702,0.5547421,-0.06414085,-0.86376345,-0.8222246
337,3.37,0.5976962,0.5720702,0.5547421,-0.06414085,-0.86376345,-0.8222246
338,3.38,0.5976962,0.5720702,0.5547421,-0.06201096003960593,-0.8413203945336193,-0.8033020242699512
339,3.39,0.5976962,0.5720702,0.5547421,-0.003181270733942867,-0.2214207730937142,-0.2806415714944107
340,3.4,0.6088627419736095,0.5759935946519716,0.5598727167870241,0.009773844,-0.084910266,-0.16554448
341,3.41,0.6157564,0.5784157,0.5630401,0.009773844,-0.084910266,-0.16554448
342,3.42,0.6157564,0.5784157,0.5630401,0.0484731158375795,-0.11868901230649469,-0.1531766709718512
343,3.43,0.6157564,0.5784157,0.5630401,0.18753563,-0.24007004,-0.10873401
344,3.44,0.6157564,0.5784157,0.5630401,0.18753563,-0.24007004,-0.10873401
345,3.45,0.6157564,0.5784157,0.5630401,0.18753563,-0.24007004,-0.10873401
346,3.46,0.5904630575413932,0.5570898968425525,0.5752735031018333,0.13539938773449997,-0.261172806661845,-0.11659582463243251
347,3.47,0.5850058746620825,0.5485798436655207,0.5792174205545428,0.11056661,-0.27122417,-0.12034045
348,3.48,0.5920829,0.5503491,0.5771954,0.06948258980037965,-0.23082774958924532,-0.11398016356089001
349,3.49,0.5920829,0.5503491,0.5771954,-0.035430185,-0.12767084,-0.09773844
350,3.5,0.5920829,0.5503491,0.5771954,-0.035430185,-0.12767084,-0.09773844
351,3.51,0.5920829,0.5503491,0.5771954,-0.035430185,-0.12767084,-0.09773844
352,3.52,0.5920829,0.5503491,0.5771954,-0.035430185,-0.12767084,-0.09773844
353,3.53,0.5920829,0.5503491,0.5771954,-0.035430185,-0.12767084,-0.09773844
354,3.54,0.5920829,0.5503491,0.5771954,-0.035430185,-0.12767084,-0.09773844
355,3.55,0.5920829,0.5503491,0.5771954,-0.0014108996666192533,-0.15937062873195457,-0.10141097661519802
356,3.56,0.5920829,0.5503491,0.5771954,0.16920229211518223,-0.3183511035234302,-0.11982944683625367
357,3.57,0.5920829,0.5503491,0.5771954,0.17959438,-0.32803464,-0.12095132
358,3.58,0.5920829,0.5503491,0.5771954,0.17959438,-0.32803464,-0.12095132
359,3.59,0.5920829,0.5503491,0.5771954,0.17959438,-0.32803464,-0.12095132
360,3.6,0.5920829,0.5503491,0.5771954,0.17959438,-0.32803464,-0.12095132
361,3.61,0.5920829,0.5503491,0.5771954,0.17959438,-0.32803464,-0.12095132
362,3.62,0.5920829,0.5503491,0.5771954,0.17959438,-0.32803464,-0.12095132
363,3.63,0.5920829,0.5503491,0.5771954,0.17959438,-0.32803464,-0.12095132
364,3.64,0.5901216303696781,0.5540264585832084,0.572108375573951,0.17959438,-0.32803464,-0.12095132
365,3.65,0.5854072448237329,0.5655005307920509,0.5585690684356753,0.17959438,-0.32803464,-0.12095132
366,3.66,0.604095176270161,0.57387119225977,0.5854329534389278,0.17959438,-0.32803464,-0.12095132
367,3.67,0.60770255,0.575487,0.59061855,0.17959438,-0.32803464,-0.12095132
368,3.68,0.60770255,0.575487,0.59061855,0.17959438,-0.32803464,-0.12095132
369,3.69,0.60770255,0.575487,0.59061855,0.17959438,-0.32803464,-0.12095132
370,3.7,0.60770255,0.575487,0.59061855,0.15467511331044834,-0.30224464971091536,-0.1152294249013017
371,3.71,0.60770255,0.575487,0.59061855,-0.13778383781448655,0.0004333385073505904,-0.04807578591746055
372,3.72,0.60770255,0.575487,0.59061855,-0.014020035978892564,-0.02313203800339045,0.0061216981192449265
373,3.73,0.60770255,0.575487,0.59061855,-0.023509354188880956,-0.012226383999874373,-0.016039000046246994
374,3.74,0.60770255,0.575487,0.59061855,-0.1282817,0.040317107,-0.06291912
375,3.75,0.60770255,0.575487,0.59061855,-0.1282817,0.040317107,-0.06291912
376,3.76,0.60770255,0.575487,0.59061855,-0.12846000375503494,0.04063975180600503,-0.06269836298650361
377,3.77,0.60770255,0.575487,0.59061855,-0.13866217761947708,0.059100823512976006,-0.05006710105349739
378,3.78,0.60770255,0.575487,0.59061855,-0.14110987,0.06352998,-0.047036625
379,3.79,0.60770255,0.575487,0.59061855,-0.14110987,0.06352998,-0.047036625
380,3.8,0.60770255,0.575487,0.59061855,-0.09834536340652524,0.05860422721363462,-0.025542421859984978
381,3.81,0.60770255,0.575487,0.59061855,-0.02443461,0.05009095,0.01160644
382,3.82,0.60770255,0.575487,0.59061855,-0.030426860251511367,0.04491731264650747,0.011835651740093772
383,3.83,0.60770255,0.575487,0.59061855,-0.11948010514188967,-0.031970196198500105,0.015242059744694711
384,3.84,0.60770255,0.575487,0.59061855,-0.13622294,-0.04642576,0.015882496
385,3.85,0.60770255,0.575487,0.59061855,-0.13622294,-0.04642576,0.015882496
386,3.86,0.60770255,0.575487,0.59061855,-0.13622294,-0.04642576,0.015882496
387,3.87,0.60770255,0.575487,0.59061855,-0.13622294,-0.04642576,0.015882496
388,3.88,0.60770255,0.575487,0.59061855,-0.13622294,-0.04642576,0.015882496
389,3.89,0.60770255,0.575487,0.59061855,-0.13622294,-0.04642576,0.015882496
390,3.9,0.60770255,0.575487,0.59061855,-0.13622294,-0.04642576,0.015882496
391,3.91,0.60770255,0.575487,0.59061855,-0.13622294,-0.04642576,0.015882496
392,3.92,0.60770255,0.575487,0.59061855,-0.13622294,-0.04642576,0.015882496
393,3.93,0.60770255,0.575487,0.59061855,-0.13622294,-0.04642576,0.015882496
394,3.94,0.60770255,0.575487,0.59061855,-0.13622294,-0.04642576,0.015882496
395,3.95,0.60770255,0.575487,0.59061855,-0.13622294,-0.04642576,0.015882496
396,3.96,0.60770255,0.575487,0.59061855,-0.13622294,-0.04642576,0.015882496
397,3.97,0.60770255,0.575487,0.59061855,-0.13622294,-0.04642576,0.015882496
398,3.98,0.60770255,0.575487,0.59061855,-0.13622294,-0.04642576,0.015882496
399,3.99,0.60770255,0.575487,0.59061855,-0.13622294,-0.04642576,0.015882496
400,4.0,0.60770255,0.575487,0.59061855,-0.13622294,-0.04642576,0.015882496
401,4.01,0.60770255,0.575487,0.59061855,-0.13622294,-0.04642576,0.015882496
402,4.02,0.60770255,0.575487,0.59061855,-0.13622294,-0.04642576,0.015882496
403,4.03,0.60770255,0.575487,0.59061855,-0.13622294,-0.04642576,0.015882496
404,4.04,0.60770255,0.575487,0.59061855,-0.13622294,-0.04642576,0.015882496
405,4.05,0.60770255,0.575487,0.59061855,-0.13622294,-0.04642576,0.015882496
406,4.06,0.60770255,0.575487,0.59061855,-0.13622294,-0.04642576,0.015882496
407,4.07,0.60770255,0.575487,0.59061855,-0.13622294,-0.04642576,0.015882496
408,4.08,0.60770255,0.575487,0.59061855,-0.13622294,-0.04642576,0.015882496
409,4.09,0.60770255,0.575487,0.59061855,-0.13622294,-0.04642576,0.015882496
410,4.1,0.60770255,0.575487,0.59061855,-0.13622294,-0.04642576,0.015882496
411,4.11,0.60770255,0.575487,0.59061855,-0.13622294,-0.04642576,0.015882496
412,4.12,0.60770255,0.575487,0.59061855,-0.13622294,-0.04642576,0.015882496
413,4.13,0.60770255,0.575487,0.59061855,-0.13622294,-0.04642576,0.015882496
414,4.14,0.60770255,0.575487,0.59061855,-0.13622294,-0.04642576,0.015882496
415,4.15,0.60770255,0.575487,0.59061855,-0.13622294,-0.04642576,0.015882496
416,4.16,0.60770255,0.575487,0.59061855,-0.13622294,-0.04642576,0.015882496
417,4.17,0.60770255,0.575487,0.59061855,-0.13622294,-0.04642576,0.015882496
418,4.18,0.60770255,0.575487,0.59061855,-0.13622294,-0.04642576,0.015882496
419,4.19,0.60770255,0.575487,0.59061855,-0.13622294,-0.04642576,0.015882496
420,4.2,0.60770255,0.575487,0.59061855,-0.13622294,-0.04642576,0.015882496
421,4.21,0.60770255,0.575487,0.59061855,-0.13622294,-0.04642576,0.015882496
422,4.22,0.60770255,0.575487,0.59061855,-0.13622294,-0.04642576,0.015882496
423,4.23,0.60770255,0.575487,0.59061855,-0.13622294,-0.04642576,0.015882496
424,4.24,0.60770255,0.575487,0.59061855,-0.13622294,-0.04642576,0.015882496
425,4.25,0.60770255,0.575487,0.59061855,-0.13622294,-0.04642576,0.015882496
426,4.26,0.60770255,0.575487,0.59061855,-0.13622294,-0.04642576,0.015882496
427,4.27,0.60770255,0.575487,0.59061855,-0.13622294,-0.04642576,0.015882496
428,4.28,0.60770255,0.575487,0.59061855,-0.13622294,-0.04642576,0.015882496
429,4.29,0.60770255,0.575487,0.59061855,-0.13622294,-0.04642576,0.015882496
430,4.3,0.60770255,0.575487,0.59061855,-0.13622294,-0.04642576,0.015882496
431,4.31,0.60770255,0.575487,0.59061855,-0.13622294,-0.04642576,0.015882496
432,4.32,0.60770255,0.575487,0.59061855,-0.13622294,-0.04642576,0.015882496
433,4.33,0.60770255,0.575487,0.59061855,-0.13622294,-0.04642576,0.015882496
434,4.34,0.60770255,0.575487,0.59061855,-0.13622294,-0.04642576,0.015882496
435,4.35,0.60770255,0.575487,0.59061855,-0.13622294,-0.04642576,0.015882496
436,4.36,0.60770255,0.575487,0.59061855,-0.13622294,-0.04642576,0.015882496
437,4.37,0.60770255,0.575487,0.59061855,-0.13622294,-0.04642576,0.015882496
438,4.38,0.60770255,0.575487,0.59061855,-0.13622294,-0.04642576,0.015882496
439,4.39,0.60770255,0.575487,0.59061855,-0.13622294,-0.04642576,0.015882496
440,4.4,0.60770255,0.575487,0.59061855,-0.13622294,-0.04642576,0.015882496
441,4.41,0.60770255,0.575487,0.59061855,-0.13622294,-0.04642576,0.015882496
442,4.42,0.60770255,0.575487,0.59061855,-0.13622294,-0.04642576,0.015882496
443,4.43,0.60770255,0.575487,0.59061855,-0.13622294,-0.04642576,0.015882496
444,4.44,0.60770255,0.575487,0.59061855,-0.13622294,-0.04642576,0.015882496
445,4.45,0.60770255,0.575487,0.59061855,-0.13622294,-0.04642576,0.015882496
446,4.46,0.60770255,0.575487,0.59061855,-0.13622294,-0.04642576,0.015882496
447,4.47,0.60770255,0.575487,0.59061855,-0.13622294,-0.04642576,0.015882496
448,4.48,0.60770255,0.575487,0.59061855,-0.13622294,-0.04642576,0.015882496
449,4.49,0.60770255,0.575487,0.59061855,-0.13622294,-0.04642576,0.015882496
450,4.5,0.60770255,0.575487,0.59061855,-0.13622294,-0.04642576,0.015882496
451,4.51,0.60770255,0.575487,0.59061855,-0.13622294,-0.04642576,0.015882496
452,4.52,0.60770255,0.575487,0.59061855,-0.13622294,-0.04642576,0.015882496
453,4.53,0.60770255,0.575487,0.59061855,-0.13622294,-0.04642576,0.015882496
454,4.54,0.60770255,0.575487,0.59061855,-0.13622294,-0.04642576,0.015882496
455,4.55,0.60770255,0.575487,0.59061855,-0.13622294,-0.04642576,0.015882496
456,4.56,0.60770255,0.575487,0.59061855,-0.13622294,-0.04642576,0.015882496
457,4.57,0.60770255,0.575487,0.59061855,-0.13622294,-0.04642576,0.015882496
458,4.58,0.60770255,0.575487,0.59061855,-0.13622294,-0.04642576,0.015882496
459,4.59,0.60770255,0.575487,0.59061855,-0.13622294,-0.04642576,0.015882496
460,4.6,0.60770255,0.575487,0.59061855,-0.13622294,-0.04642576,0.015882496
461,4.61,0.60770255,0.575487,0.59061855,-0.13622294,-0.04642576,0.015882496
462,4.62,0.60770255,0.575487,0.59061855,-0.13622294,-0.04642576,0.015882496
463,4.63,0.60770255,0.575487,0.59061855,-0.13622294,-0.04642576,0.015882496
464,4.64,0.60770255,0.575487,0.59061855,-0.13622294,-0.04642576,0.015882496
465,4.65,0.60770255,0.575487,0.59061855,-0.13622294,-0.04642576,0.015882496
466,4.66,0.60770255,0.575487,0.59061855,-0.13622294,-0.04642576,0.015882496
467,4.67,0.60770255,0.575487,0.59061855,-0.13622294,-0.04642576,0.015882496
468,4.68,0.60770255,0.575487,0.59061855,-0.13622294,-0.04642576,0.015882496
469,4.69,0.60770255,0.575487,0.59061855,-0.13622294,-0.04642576,0.015882496
470,4.7,0.60770255,0.575487,0.59061855,-0.13622294,-0.04642576,0.015882496
471,4.71,0.60770255,0.575487,0.59061855,-0.13622294,-0.04642576,0.015882496
472,4.72,0.60770255,0.575487,0.59061855,-0.13622294,-0.04642576,0.015882496
473,4.73,0.60770255,0.575487,0.59061855,-0.13622294,-0.04642576,0.015882496
474,4.74,0.60770255,0.575487,0.59061855,-0.13622294,-0.04642576,0.015882496
475,4.75,0.60770255,0.575487,0.59061855,-0.13622294,-0.04642576,0.015882496
476,4.76,0.60770255,0.575487,0.59061855,-0.13622294,-0.04642576,0.015882496
477,4.77,0.60770255,0.575487,0.59061855,-0.13622294,-0.04642576,0.015882496
478,4.78,0.60770255,0.575487,0.59061855,-0.13622294,-0.04642576,0.015882496
479,4.79,0.60770255,0.575487,0.59061855,-0.13622294,-0.04642576,0.015882496
480,4.8,0.60770255,0.575487,0.59061855,-0.13622294,-0.04642576,0.015882496
481,4.81,0.60770255,0.575487,0.59061855,-0.13622294,-0.04642576,0.015882496
482,4.82,0.60770255,0.575487,0.59061855,-0.13622294,-0.04642576,0.015882496
483,4.83,0.60770255,0.575487,0.59061855,-0.13622294,-0.04642576,0.015882496
484,4.84,0.60770255,0.575487,0.59061855,-0.13622294,-0.04642576,0.015882496
485,4.85,0.60770255,0.575487,0.59061855,-0.13622294,-0.04642576,0.015882496
486,4.86,0.60770255,0.575487,0.59061855,-0.13622294,-0.04642576,0.015882496
487,4.87,0.60770255,0.575487,0.59061855,-0.13622294,-0.04642576,0.015882496
488,4.88,0.60770255,0.575487,0.59061855,-0.13622294,-0.04642576,0.015882496
489,4.89,0.60770255,0.575487,0.59061855,-0.13622294,-0.04642576,0.015882496
490,4.9,0.60770255,0.575487,0.59061855,-0.13622294,-0.04642576,0.015882496
491,4.91,0.60770255,0.575487,0.59061855,-0.13622294,-0.04642576,0.015882496
492,4.92,0.60770255,0.575487,0.59061855,-0.13622294,-0.04642576,0.015882496
493,4.93,0.60770255,0.575487,0.59061855,-0.13622294,-0.04642576,0.015882496
494,4.94,0.60770255,0.575487,0.59061855,-0.13622294,-0.04642576,0.015882496
495,4.95,0.60770255,0.575487,0.59061855,-0.13622294,-0.04642576,0.015882496
496,4.96,0.60770255,0.575487,0.59061855,-0.13622294,-0.04642576,0.015882496
497,4.97,0.60770255,0.575487,0.59061855,-0.13622294,-0.04642576,0.015882496
498,4.98,0.60770255,0.575487,0.59061855,-0.13622294,-0.04642576,0.015882496
499,4.99,0.60770255,0.575487,0.59061855,-0.13622294,-0.04642576,0.015882496
500,5.0,0.60770255,0.575487,0.59061855,-0.13622294,-0.04642576,0.015882496
501,5.01,0.60770255,0.575487,0.59061855,-0.13622294,-0.04642576,0.015882496
502,5.02,0.60770255,0.575487,0.59061855,-0.13622294,-0.04642576,0.015882496
503,5.03,0.60770255,0.575487,0.59061855,-0.13622294,-0.04642576,0.015882496
504,5.04,0.60770255,0.575487,0.59061855,-0.13622294,-0.04642576,0.015882496
505,5.05,0.60770255,0.575487,0.59061855,-0.13622294,-0.04642576,0.015882496
506,5.06,0.60770255,0.575487,0.59061855,-0.13622294,-0.04642576,0.015882496
507,5.07,0.60770255,0.575487,0.59061855,-0.13622294,-0.04642576,0.015882496
508,5.08,0.60770255,0.575487,0.59061855,-0.13622294,-0.04642576,0.015882496
509,5.09,0.60770255,0.575487,0.59061855,-0.13622294,-0.04642576,0.015882496
510,5.1,0.60770255,0.575487,0.59061855,-0.13622294,-0.04642576,0.015882496
511,5.11,0.60770255,0.575487,0.59061855,-0.13622294,-0.04642576,0.015882496
512,5.12,0.60770255,0.575487,0.59061855,-0.13622294,-0.04642576,0.015882496
513,5.13,0.60770255,0.575487,0.59061855,-0.13622294,-0.04642576,0.015882496
514,5.14,0.60770255,0.575487,0.59061855,-0.13622294,-0.04642576,0.015882496
515,5.15,0.60770255,0.575487,0.59061855,-0.13622294,-0.04642576,0.015882496
516,5.16,0.60770255,0.575487,0.59061855,-0.13622294,-0.04642576,0.015882496
517,5.17,0.60770255,0.575487,0.59061855,-0.13622294,-0.04642576,0.015882496
518,5.18,0.60770255,0.575487,0.59061855,-0.13622294,-0.04642576,0.015882496
519,5.19,0.60770255,0.575487,0.59061855,-0.13622294,-0.04642576,0.015882496
520,5.2,0.60770255,0.575487,0.59061855,-0.13622294,-0.04642576,0.015882496
521,5.21,0.60770255,0.575487,0.59061855,-0.13622294,-0.04642576,0.015882496
522,5.22,0.60770255,0.575487,0.59061855,-0.13622294,-0.04642576,0.015882496
523,5.23,0.60770255,0.575487,0.59061855,-0.13622294,-0.04642576,0.015882496
524,5.24,0.60770255,0.575487,0.59061855,-0.13622294,-0.04642576,0.015882496
525,5.25,0.60770255,0.575487,0.59061855,-0.13622294,-0.04642576,0.015882496
526,5.26,0.60770255,0.575487,0.59061855,-0.13622294,-0.04642576,0.015882496
527,5.27,0.60770255,0.575487,0.59061855,-0.13622294,-0.04642576,0.015882496
528,5.28,0.60770255,0.575487,0.59061855,-0.13622294,-0.04642576,0.015882496
529,5.29,0.60770255,0.575487,0.59061855,-0.13622294,-0.04642576,0.015882496
530,5.3,0.60770255,0.575487,0.59061855,-0.13622294,-0.04642576,0.015882496
531,5.31,0.60770255,0.575487,0.59061855,-0.13622294,-0.04642576,0.015882496
532,5.32,0.60770255,0.575487,0.59061855,-0.13622294,-0.04642576,0.015882496
533,5.33,0.60770255,0.575487,0.59061855,-0.13622294,-0.04642576,0.015882496
534,5.34,0.60770255,0.575487,0.59061855,-0.13622294,-0.04642576,0.015882496
535,5.35,0.60770255,0.575487,0.59061855,-0.13622294,-0.04642576,0.015882496
536,5.36,0.60770255,0.575487,0.59061855,-0.13622294,-0.04642576,0.015882496
537,5.37,0.60770255,0.575487,0.59061855,-0.13622294,-0.04642576,0.015882496
538,5.38,0.60770255,0.575487,0.59061855,-0.13622294,-0.04642576,0.015882496
539,5.39,0.60770255,0.575487,0.59061855,-0.13622294,-0.04642576,0.015882496
540,5.4,0.60770255,0.575487,0.59061855,-0.13622294,-0.04642576,0.015882496
541,5.41,0.60770255,0.575487,0.59061855,-0.13622294,-0.04642576,0.015882496
542,5.42,0.60770255,0.575487,0.59061855,-0.13622294,-0.04642576,0.015882496
543,5.43,0.60770255,0.575487,0.59061855,-0.13622294,-0.04642576,0.015882496
544,5.44,0.60770255,0.575487,0.59061855,-0.13622294,-0.04642576,0.015882496
545,5.45,0.60770255,0.575487,0.59061855,-0.13622294,-0.04642576,0.015882496
546,5.46,0.60770255,0.575487,0.59061855,-0.13622294,-0.04642576,0.015882496
547,5.47,0.60770255,0.575487,0.59061855,-0.13622294,-0.04642576,0.015882496
548,5.48,0.60770255,0.575487,0.59061855,-0.13622294,-0.04642576,0.015882496
549,5.49,0.60770255,0.575487,0.59061855,-0.13622294,-0.04642576,0.015882496
550,5.5,0.60770255,0.575487,0.59061855,-0.13622294,-0.04642576,0.015882496
551,5.51,0.60770255,0.575487,0.59061855,-0.13622294,-0.04642576,0.015882496
552,5.52,0.60770255,0.575487,0.59061855,-0.13622294,-0.04642576,0.015882496
553,5.53,0.60770255,0.575487,0.59061855,-0.13622294,-0.04642576,0.015882496
554,5.54,0.60770255,0.575487,0.59061855,-0.13622294,-0.04642576,0.015882496
555,5.55,0.60770255,0.575487,0.59061855,-0.13622294,-0.04642576,0.015882496
556,5.56,0.60770255,0.575487,0.59061855,-0.13622294,-0.04642576,0.015882496
557,5.57,0.60770255,0.575487,0.59061855,-0.13622294,-0.04642576,0.015882496
558,5.58,0.60770255,0.575487,0.59061855,-0.13622294,-0.04642576,0.015882496
559,5.59,0.60770255,0.575487,0.59061855,-0.13622294,-0.04642576,0.015882496
560,5.6,0.60770255,0.575487,0.59061855,-0.13622294,-0.04642576,0.015882496
561,5.61,0.60770255,0.575487,0.59061855,-0.13622294,-0.04642576,0.015882496
562,5.62,0.60770255,0.575487,0.59061855,-0.13622294,-0.04642576,0.015882496
563,5.63,0.60770255,0.575487,0.59061855,-0.13622294,-0.04642576,0.015882496
564,5.64,0.60770255,0.575487,0.59061855,-0.13622294,-0.04642576,0.015882496
565,5.65,0.60770255,0.575487,0.59061855,-0.13622294,-0.04642576,0.015882496
566,5.66,0.60770255,0.575487,0.59061855,-0.13622294,-0.04642576,0.015882496
567,5.67,0.60770255,0.575487,0.59061855,-0.13622294,-0.04642576,0.015882496
568,5.68,0.60770255,0.575487,0.59061855,-0.13622294,-0.04642576,0.015882496
569,5.69,0.60770255,0.575487,0.59061855,-0.13622294,-0.04642576,0.015882496
570,5.7,0.60770255,0.575487,0.59061855,-0.13622294,-0.04642576,0.015882496
571,5.71,0.60770255,0.575487,0.59061855,-0.13622294,-0.04642576,0.015882496
572,5.72,0.60770255,0.575487,0.59061855,-0.13622294,-0.04642576,0.015882496
573,5.73,0.60770255,0.575487,0.59061855,-0.13622294,-0.04642576,0.015882496
574,5.74,0.60770255,0.575487,0.59061855,-0.13622294,-0.04642576,0.015882496
575,5.75,0.60770255,0.575487,0.59061855,-0.13622294,-0.04642576,0.015882496
576,5.76,0.60770255,0.575487,0.59061855,-0.13622294,-0.04642576,0.015882496
577,5.77,0.60770255,0.575487,0.59061855,-0.13622294,-0.04642576,0.015882496
578,5.78,0.60770255,0.575487,0.59061855,-0.13622294,-0.04642576,0.015882496
579,5.79,0.60770255,0.575487,0.59061855,-0.13622294,-0.04642576,0.015882496
580,5.8,0.60770255,0.575487,0.59061855,-0.13622294,-0.04642576,0.015882496
581,5.81,0.60770255,0.575487,0.59061855,-0.13622294,-0.04642576,0.015882496
582,5.82,0.60770255,0.575487,0.59061855,-0.13622294,-0.04642576,0.015882496
583,5.83,0.60770255,0.575487,0.59061855,-0.13622294,-0.04642576,0.015882496
584,5.84,0.60770255,0.575487,0.59061855,-0.13622294,-0.04642576,0.015882496
585,5.85,0.60770255,0.575487,0.59061855,-0.13622294,-0.04642576,0.015882496
586,5.86,0.60770255,0.575487,0.59061855,-0.13622294,-0.04642576,0.015882496
587,5.87,0.60770255,0.575487,0.59061855,-0.13622294,-0.04642576,0.015882496
588,5.88,0.60770255,0.575487,0.59061855,-0.13622294,-0.04642576,0.015882496
589,5.89,0.60770255,0.575487,0.59061855,-0.13622294,-0.04642576,0.015882496
590,5.9,0.60770255,0.575487,0.59061855,-0.13622294,-0.04642576,0.015882496
591,5.91,0.60770255,0.575487,0.59061855,-0.13622294,-0.04642576,0.015882496
592,5.92,0.60770255,0.575487,0.59061855,-0.13622294,-0.04642576,0.015882496
593,5.93,0.60770255,0.575487,0.59061855,-0.13622294,-0.04642576,0.015882496
594,5.94,0.60770255,0.575487,0.59061855,-0.13622294,-0.04642576,0.015882496
595,5.95,0.60770255,0.575487,0.59061855,-0.13622294,-0.04642576,0.015882496
596,5.96,0.60770255,0.575487,0.59061855,-0.13622294,-0.04642576,0.015882496
597,5.97,0.60770255,0.575487,0.59061855,-0.13622294,-0.04642576,0.015882496
598,5.98,0.60770255,0.575487,0.59061855,-0.13622294,-0.04642576,0.015882496
599,5.99,0.60770255,0.575487,0.59061855,-0.13622294,-0.04642576,0.015882496
600,6.0,0.60770255,0.575487,0.59061855,-0.13622294,-0.04642576,0.015882496
601,6.01,0.60770255,0.575487,0.59061855,-0.13622294,-0.04642576,0.015882496
602,6.02,0.60770255,0.575487,0.59061855,-0.13622294,-0.04642576,0.015882496
603,6.03,0.60770255,0.575487,0.59061855,-0.13622294,-0.04642576,0.015882496
604,6.04,0.60770255,0.575487,0.59061855,-0.13622294,-0.04642576,0.015882496
605,6.05,0.60770255,0.575487,0.59061855,-0.13622294,-0.04642576,0.015882496
606,6.06,0.60770255,0.575487,0.59061855,-0.13622294,-0.04642576,0.015882496
607,6.07,0.60770255,0.575487,0.59061855,-0.13622294,-0.04642576,0.015882496
608,6.08,0.60770255,0.575487,0.59061855,-0.13622294,-0.04642576,0.015882496
609,6.09,0.60770255,0.575487,0.59061855,-0.13622294,-0.04642576,0.015882496
610,6.1,0.60770255,0.575487,0.59061855,-0.13622294,-0.04642576,0.015882496
611,6.11,0.60770255,0.575487,0.59061855,-0.13622294,-0.04642576,0.015882496
612,6.12,0.60770255,0.575487,0.59061855,-0.13622294,-0.04642576,0.015882496
613,6.13,0.60770255,0.575487,0.59061855,-0.13622294,-0.04642576,0.015882496
614,6.14,0.60770255,0.575487,0.59061855,-0.13622294,-0.04642576,0.015882496
615,6.15,0.60770255,0.575487,0.59061855,-0.13622294,-0.04642576,0.015882496
616,6.16,0.60770255,0.575487,0.59061855,-0.13622294,-0.04642576,0.015882496
617,6.17,0.60770255,0.575487,0.59061855,-0.13622294,-0.04642576,0.015882496
618,6.18,0.60770255,0.575487,0.59061855,-0.13622294,-0.04642576,0.015882496
619,6.19,0.60770255,0.575487,0.59061855,-0.13622294,-0.04642576,0.015882496
620,6.2,0.60770255,0.575487,0.59061855,-0.13622294,-0.04642576,0.015882496
621,6.21,0.60770255,0.575487,0.59061855,-0.13622294,-0.04642576,0.015882496
622,6.22,0.60770255,0.575487,0.59061855,-0.13622294,-0.04642576,0.015882496
623,6.23,0.60770255,0.575487,0.59061855,-0.13622294,-0.04642576,0.015882496
624,6.24,0.60770255,0.575487,0.59061855,-0.13622294,-0.04642576,0.015882496
625,6.25,0.60770255,0.575487,0.59061855,-0.13622294,-0.04642576,0.015882496
626,6.26,0.60770255,0.575487,0.59061855,-0.13622294,-0.04642576,0.015882496
627,6.27,0.60770255,0.575487,0.59061855,-0.13622294,-0.04642576,0.015882496
628,6.28,0.60770255,0.575487,0.59061855,-0.13622294,-0.04642576,0.015882496
629,6.29,0.60770255,0.575487,0.59061855,-0.13622294,-0.04642576,0.015882496
630,6.3,0.60770255,0.575487,0.59061855,-0.13622294,-0.04642576,0.015882496
631,6.31,0.60770255,0.575487,0.59061855,-0.13622294,-0.04642576,0.015882496
632,6.32,0.60770255,0.575487,0.59061855,-0.13622294,-0.04642576,0.015882496
633,6.33,0.60770255,0.575487,0.59061855,-0.13622294,-0.04642576,0.015882496
634,6.34,0.60770255,0.575487,0.59061855,-0.13622294,-0.04642576,0.015882496
635,6.35,0.60770255,0.575487,0.59061855,-0.13622294,-0.04642576,0.015882496
636,6.36,0.60770255,0.575487,0.59061855,-0.13622294,-0.04642576,0.015882496
637,6.37,0.60770255,0.575487,0.59061855,-0.13622294,-0.04642576,0.015882496
638,6.38,0.60770255,0.575487,0.59061855,-0.13622294,-0.04642576,0.015882496
639,6.39,0.60770255,0.575487,0.59061855,-0.13622294,-0.04642576,0.015882496
640,6.4,0.60770255,0.575487,0.59061855,-0.13622294,-0.04642576,0.015882496
641,6.41,0.60770255,0.575487,0.59061855,-0.13622294,-0.04642576,0.015882496
642,6.42,0.60770255,0.575487,0.59061855,-0.13622294,-0.04642576,0.015882496
643,6.43,0.60770255,0.575487,0.59061855,-0.13622294,-0.04642576,0.015882496
644,6.44,0.60770255,0.575487,0.59061855,-0.13622294,-0.04642576,0.015882496
645,6.45,0.60770255,0.575487,0.59061855,-0.13622294,-0.04642576,0.015882496
646,6.46,0.60770255,0.575487,0.59061855,-0.13622294,-0.04642576,0.015882496
647,6.47,0.60770255,0.575487,0.59061855,-0.13622294,-0.04642576,0.015882496
648,6.48,0.60770255,0.575487,0.59061855,-0.13622294,-0.04642576,0.015882496
649,6.49,0.60770255,0.575487,0.59061855,-0.13622294,-0.04642576,0.015882496
650,6.5,0.60770255,0.575487,0.59061855,-0.13622294,-0.04642576,0.015882496
651,6.51,0.60770255,0.575487,0.59061855,-0.13622294,-0.04642576,0.015882496
652,6.52,0.60770255,0.575487,0.59061855,-0.13622294,-0.04642576,0.015882496
653,6.53,0.60770255,0.575487,0.59061855,-0.13622294,-0.04642576,0.015882496
654,6.54,0.60770255,0.575487,0.59061855,-0.13622294,-0.04642576,0.015882496
655,6.55,0.60770255,0.575487,0.59061855,-0.13622294,-0.04642576,0.015882496
656,6.56,0.60770255,0.575487,0.59061855,-0.13622294,-0.04642576,0.015882496
657,6.57,0.60770255,0.575487,0.59061855,-0.13622294,-0.04642576,0.015882496
658,6.58,0.60770255,0.575487,0.59061855,-0.13622294,-0.04642576,0.015882496
659,6.59,0.60770255,0.575487,0.59061855,-0.13622294,-0.04642576,0.015882496
660,6.6,0.60770255,0.575487,0.59061855,-0.13622294,-0.04642576,0.015882496
661,6.61,0.60770255,0.575487,0.59061855,-0.13622294,-0.04642576,0.015882496
662,6.62,0.60770255,0.575487,0.59061855,-0.13622294,-0.04642576,0.015882496
663,6.63,0.60770255,0.575487,0.59061855,-0.13622294,-0.04642576,0.015882496
664,6.64,0.60770255,0.575487,0.59061855,-0.13622294,-0.04642576,0.015882496
665,6.65,0.60770255,0.575487,0.59061855,-0.13622294,-0.04642576,0.015882496
666,6.66,0.60770255,0.575487,0.59061855,-0.13622294,-0.04642576,0.015882496
667,6.67,0.60770255,0.575487,0.59061855,-0.13622294,-0.04642576,0.015882496
668,6.68,0.60770255,0.575487,0.59061855,-0.13622294,-0.04642576,0.015882496
669,6.69,0.60770255,0.575487,0.59061855,-0.13622294,-0.04642576,0.015882496
670,6.7,0.60770255,0.575487,0.59061855,-0.13622294,-0.04642576,0.015882496
671,6.71,0.60770255,0.575487,0.59061855,-0.13622294,-0.04642576,0.015882496
672,6.72,0.60770255,0.575487,0.59061855,-0.13622294,-0.04642576,0.015882496
673,6.73,0.60770255,0.575487,0.59061855,-0.13622294,-0.04642576,0.015882496
674,6.74,0.60770255,0.575487,0.59061855,-0.13622294,-0.04642576,0.015882496
675,6.75,0.60770255,0.575487,0.59061855,-0.13622294,-0.04642576,0.015882496
676,6.76,0.60770255,0.575487,0.59061855,-0.13622294,-0.04642576,0.015882496
677,6.77,0.60770255,0.575487,0.59061855,-0.13622294,-0.04642576,0.015882496
678,6.78,0.60770255,0.575487,0.59061855,-0.13622294,-0.04642576,0.015882496
679,6.79,0.60770255,0.575487,0.59061855,-0.13622294,-0.04642576,0.015882496
680,6.8,0.60770255,0.575487,0.59061855,-0.13622294,-0.04642576,0.015882496
681,6.81,0.60770255,0.575487,0.59061855,-0.13622294,-0.04642576,0.015882496
682,6.82,0.60770255,0.575487,0.59061855,-0.13622294,-0.04642576,0.015882496
683,6.83,0.60770255,0.575487,0.59061855,-0.13622294,-0.04642576,0.015882496
684,6.84,0.60770255,0.575487,0.59061855,-0.13622294,-0.04642576,0.015882496
685,6.85,0.60770255,0.575487,0.59061855,-0.13622294,-0.04642576,0.015882496
686,6.86,0.60770255,0.575487,0.59061855,-0.13622294,-0.04642576,0.015882496
687,6.87,0.60770255,0.575487,0.59061855,-0.13622294,-0.04642576,0.015882496
688,6.88,0.60770255,0.575487,0.59061855,-0.13622294,-0.04642576,0.015882496
689,6.89,0.60770255,0.575487,0.59061855,-0.13622294,-0.04642576,0.015882496
690,6.9,0.60770255,0.575487,0.59061855,-0.13622294,-0.04642576,0.015882496
691,6.91,0.60770255,0.575487,0.59061855,-0.13622294,-0.04642576,0.015882496
692,6.92,0.60770255,0.575487,0.59061855,-0.13622294,-0.04642576,0.015882496
693,6.93,0.60770255,0.575487,0.59061855,-0.13622294,-0.04642576,0.015882496
694,6.94,0.60770255,0.575487,0.59061855,-0.13622294,-0.04642576,0.015882496
695,6.95,0.60770255,0.575487,0.59061855,-0.13622294,-0.04642576,0.015882496
696,6.96,0.60770255,0.575487,0.59061855,-0.13622294,-0.04642576,0.015882496
697,6.97,0.60770255,0.575487,0.59061855,-0.13622294,-0.04642576,0.015882496
698,6.98,0.60770255,0.575487,0.59061855,-0.13622294,-0.04642576,0.015882496
699,6.99,0.60770255,0.575487,0.59061855,-0.13622294,-0.04642576,0.015882496
700,7.0,0.60770255,0.575487,0.59061855,-0.13622294,-0.04642576,0.015882496
701,7.01,0.60770255,0.575487,0.59061855,-0.13622294,-0.04642576,0.015882496
702,7.02,0.60770255,0.575487,0.59061855,-0.13622294,-0.04642576,0.015882496
703,7.03,0.60770255,0.575487,0.59061855,-0.13622294,-0.04642576,0.015882496
704,7.04,0.60770255,0.575487,0.59061855,-0.13622294,-0.04642576,0.015882496
705,7.05,0.60770255,0.575487,0.59061855,-0.13622294,-0.04642576,0.015882496
706,7.06,0.60770255,0.575487,0.59061855,-0.13622294,-0.04642576,0.015882496
707,7.07,0.60770255,0.575487,0.59061855,-0.13622294,-0.04642576,0.015882496
708,7.08,0.60770255,0.575487,0.59061855,-0.13622294,-0.04642576,0.015882496
709,7.09,0.60770255,0.575487,0.59061855,-0.13622294,-0.04642576,0.015882496
710,7.1,0.60770255,0.575487,0.59061855,-0.13622294,-0.04642576,0.015882496
711,7.11,0.60770255,0.575487,0.59061855,-0.13622294,-0.04642576,0.015882496
712,7.12,0.60770255,0.575487,0.59061855,-0.13622294,-0.04642576,0.015882496
713,7.13,0.60770255,0.575487,0.59061855,-0.13622294,-0.04642576,0.015882496
714,7.14,0.60770255,0.575487,0.59061855,-0.13622294,-0.04642576,0.015882496
715,7.15,0.60770255,0.575487,0.59061855,-0.13622294,-0.04642576,0.015882496
716,7.16,0.60770255,0.575487,0.59061855,-0.13622294,-0.04642576,0.015882496
717,7.17,0.60770255,0.575487,0.59061855,-0.13622294,-0.04642576,0.015882496
718,7.18,0.60770255,0.575487,0.59061855,-0.13622294,-0.04642576,0.015882496
719,7.19,0.60770255,0.575487,0.59061855,-0.13622294,-0.04642576,0.015882496
720,7.2,0.60770255,0.575487,0.59061855,-0.13622294,-0.04642576,0.015882496
721,7.21,0.60770255,0.575487,0.59061855,-0.13622294,-0.04642576,0.015882496
722,7.22,0.60770255,0.575487,0.59061855,-0.13622294,-0.04642576,0.015882496
723,7.23,0.60770255,0.575487,0.59061855,-0.13622294,-0.04642576,0.015882496
724,7.24,0.60770255,0.575487,0.59061855,-0.13622294,-0.04642576,0.015882496
725,7.25,0.60770255,0.575487,0.59061855,-0.13622294,-0.04642576,0.015882496
726,7.26,0.60770255,0.575487,0.59061855,-0.13622294,-0.04642576,0.015882496
727,7.27,0.60770255,0.575487,0.59061855,-0.13622294,-0.04642576,0.015882496
728,7.28,0.60770255,0.575487,0.59061855,-0.13622294,-0.04642576,0.015882496
729,7.29,0.60770255,0.575487,0.59061855,-0.13622294,-0.04642576,0.015882496
730,7.3,0.60770255,0.575487,0.59061855,-0.13622294,-0.04642576,0.015882496
731,7.31,0.60770255,0.575487,0.59061855,-0.13622294,-0.04642576,0.015882496
732,7.32,0.60770255,0.575487,0.59061855,-0.13622294,-0.04642576,0.015882496
733,7.33,0.60770255,0.575487,0.59061855,-0.13622294,-0.04642576,0.015882496
734,7.34,0.60770255,0.575487,0.59061855,-0.13622294,-0.04642576,0.015882496
735,7.35,0.60770255,0.575487,0.59061855,-0.13622294,-0.04642576,0.015882496
736,7.36,0.60770255,0.575487,0.59061855,-0.13622294,-0.04642576,0.015882496
737,7.37,0.60770255,0.575487,0.59061855,-0.13622294,-0.04642576,0.015882496
738,7.38,0.60770255,0.575487,0.59061855,-0.13622294,-0.04642576,0.015882496
739,7.39,0.60770255,0.575487,0.59061855,-0.13622294,-0.04642576,0.015882496
740,7.4,0.60770255,0.575487,0.59061855,-0.13622294,-0.04642576,0.015882496
741,7.41,0.60770255,0.575487,0.59061855,-0.13622294,-0.04642576,0.015882496
742,7.42,0.60770255,0.575487,0.59061855,-0.13622294,-0.04642576,0.015882496
743,7.43,0.60770255,0.575487,0.59061855,-0.13622294,-0.04642576,0.015882496
744,7.44,0.60770255,0.575487,0.59061855,-0.13622294,-0.04642576,0.015882496
745,7.45,0.60770255,0.575487,0.59061855,-0.13622294,-0.04642576,0.015882496
746,7.46,0.60770255,0.575487,0.59061855,-0.13622294,-0.04642576,0.015882496
747,7.47,0.60770255,0.575487,0.59061855,-0.13622294,-0.04642576,0.015882496
748,7.48,0.60770255,0.575487,0.59061855,-0.13622294,-0.04642576,0.015882496
749,7.49,0.60770255,0.575487,0.59061855,-0.13622294,-0.04642576,0.015882496
750,7.5,0.60770255,0.575487,0.59061855,-0.13622294,-0.04642576,0.015882496
751,7.51,0.60770255,0.575487,0.59061855,-0.13622294,-0.04642576,0.015882496
752,7.52,0.60770255,0.575487,0.59061855,-0.13622294,-0.04642576,0.015882496
753,7.53,0.60770255,0.575487,0.59061855,-0.13622294,-0.04642576,0.015882496
754,7.54,0.60770255,0.575487,0.59061855,-0.13622294,-0.04642576,0.015882496
755,7.55,0.60770255,0.575487,0.59061855,-0.13622294,-0.04642576,0.015882496
756,7.56,0.60770255,0.575487,0.59061855,-0.13622294,-0.04642576,0.015882496
757,7.57,0.60770255,0.575487,0.59061855,-0.13622294,-0.04642576,0.015882496
758,7.58,0.60770255,0.575487,0.59061855,-0.13622294,-0.04642576,0.015882496
759,7.59,0.60770255,0.575487,0.59061855,-0.13622294,-0.04642576,0.015882496
760,7.6,0.60770255,0.575487,0.59061855,-0.13622294,-0.04642576,0.015882496
761,7.61,0.60770255,0.575487,0.59061855,-0.13622294,-0.04642576,0.015882496
762,7.62,0.60770255,0.575487,0.59061855,-0.13622294,-0.04642576,0.015882496
763,7.63,0.60770255,0.575487,0.59061855,-0.13622294,-0.04642576,0.015882496
764,7.64,0.60770255,0.575487,0.59061855,-0.13622294,-0.04642576,0.015882496
765,7.65,0.60770255,0.575487,0.59061855,-0.13622294,-0.04642576,0.015882496
766,7.66,0.60770255,0.575487,0.59061855,-0.13622294,-0.04642576,0.015882496
767,7.67,0.60770255,0.575487,0.59061855,-0.13622294,-0.04642576,0.015882496
768,7.68,0.60770255,0.575487,0.59061855,-0.13622294,-0.04642576,0.015882496
769,7.69,0.60770255,0.575487,0.59061855,-0.13622294,-0.04642576,0.015882496
770,7.7,0.60770255,0.575487,0.59061855,-0.13622294,-0.04642576,0.015882496
771,7.71,0.60770255,0.575487,0.59061855,-0.13622294,-0.04642576,0.015882496
772,7.72,0.60770255,0.575487,0.59061855,-0.13622294,-0.04642576,0.015882496
773,7.73,0.60770255,0.575487,0.59061855,-0.13622294,-0.04642576,0.015882496
774,7.74,0.60770255,0.575487,0.59061855,-0.13622294,-0.04642576,0.015882496
775,7.75,0.60770255,0.575487,0.59061855,-0.13622294,-0.04642576,0.015882496
776,7.76,0.60770255,0.575487,0.59061855,-0.13622294,-0.04642576,0.015882496
777,7.77,0.60770255,0.575487,0.59061855,-0.13622294,-0.04642576,0.015882496
778,7.78,0.60770255,0.575487,0.59061855,-0.13622294,-0.04642576,0.015882496
779,7.79,0.60770255,0.575487,0.59061855,-0.13622294,-0.04642576,0.015882496
780,7.8,0.60770255,0.575487,0.59061855,-0.13622294,-0.04642576,0.015882496
781,7.81,0.60770255,0.575487,0.59061855,-0.13622294,-0.04642576,0.015882496
782,7.82,0.60770255,0.575487,0.59061855,-0.13622294,-0.04642576,0.015882496
783,7.83,0.60770255,0.575487,0.59061855,-0.13622294,-0.04642576,0.015882496
784,7.84,0.60770255,0.575487,0.59061855,-0.13622294,-0.04642576,0.015882496
785,7.85,0.60770255,0.575487,0.59061855,-0.13622294,-0.04642576,0.015882496
786,7.86,0.60770255,0.575487,0.59061855,-0.13622294,-0.04642576,0.015882496
787,7.87,0.60770255,0.575487,0.59061855,-0.13622294,-0.04642576,0.015882496
788,7.88,0.60770255,0.575487,0.59061855,-0.13622294,-0.04642576,0.015882496
789,7.89,0.60770255,0.575487,0.59061855,-0.13622294,-0.04642576,0.015882496
790,7.9,0.60770255,0.575487,0.59061855,-0.13622294,-0.04642576,0.015882496
791,7.91,0.60770255,0.575487,0.59061855,-0.13622294,-0.04642576,0.015882496
792,7.92,0.60770255,0.575487,0.59061855,-0.13622294,-0.04642576,0.015882496
793,7.93,0.60770255,0.575487,0.59061855,-0.13622294,-0.04642576,0.015882496
794,7.94,0.60770255,0.575487,0.59061855,-0.13622294,-0.04642576,0.015882496
795,7.95,0.60770255,0.575487,0.59061855,-0.13622294,-0.04642576,0.015882496
796,7.96,0.60770255,0.575487,0.59061855,-0.13622294,-0.04642576,0.015882496
797,7.97,0.60770255,0.575487,0.59061855,-0.13622294,-0.04642576,0.015882496
798,7.98,0.60770255,0.575487,0.59061855,-0.13622294,-0.04642576,0.015882496
799,7.99,0.60770255,0.575487,0.59061855,-0.13622294,-0.04642576,0.015882496
800,8.0,0.60770255,0.575487,0.59061855,-0.13622294,-0.04642576,0.015882496
801,8.01,0.60770255,0.575487,0.59061855,-0.13622294,-0.04642576,0.015882496
802,8.02,0.60770255,0.575487,0.59061855,-0.13622294,-0.04642576,0.015882496
803,8.03,0.60770255,0.575487,0.59061855,-0.13622294,-0.04642576,0.015882496
804,8.04,0.60770255,0.575487,0.59061855,-0.13622294,-0.04642576,0.015882496
805,8.05,0.60770255,0.575487,0.59061855,-0.13622294,-0.04642576,0.015882496
806,8.06,0.60770255,0.575487,0.59061855,-0.13622294,-0.04642576,0.015882496
807,8.07,0.60770255,0.575487,0.59061855,-0.13622294,-0.04642576,0.015882496
808,8.08,0.60770255,0.575487,0.59061855,-0.13622294,-0.04642576,0.015882496
809,8.09,0.60770255,0.575487,0.59061855,-0.13622294,-0.04642576,0.015882496
810,8.1,0.60770255,0.575487,0.59061855,-0.13622294,-0.04642576,0.015882496
811,8.11,0.60770255,0.575487,0.59061855,-0.13622294,-0.04642576,0.015882496
812,8.12,0.60770255,0.575487,0.59061855,-0.13622294,-0.04642576,0.015882496
813,8.13,0.60770255,0.575487,0.59061855,-0.13622294,-0.04642576,0.015882496
814,8.14,0.60770255,0.575487,0.59061855,-0.13622294,-0.04642576,0.015882496
815,8.15,0.60770255,0.575487,0.59061855,-0.13622294,-0.04642576,0.015882496
816,8.16,0.60770255,0.575487,0.59061855,-0.13622294,-0.04642576,0.015882496
817,8.17,0.60770255,0.575487,0.59061855,-0.13622294,-0.04642576,0.015882496
818,8.18,0.60770255,0.575487,0.59061855,-0.13622294,-0.04642576,0.015882496
819,8.19,0.60770255,0.575487,0.59061855,-0.13622294,-0.04642576,0.015882496
820,8.2,0.60770255,0.575487,0.59061855,-0.13622294,-0.04642576,0.015882496
821,8.21,0.60770255,0.575487,0.59061855,-0.13622294,-0.04642576,0.015882496
822,8.22,0.60770255,0.575487,0.59061855,-0.13622294,-0.04642576,0.015882496
823,8.23,0.60770255,0.575487,0.59061855,-0.13622294,-0.04642576,0.015882496
824,8.24,0.60770255,0.575487,0.59061855,-0.13622294,-0.04642576,0.015882496
825,8.25,0.60770255,0.575487,0.59061855,-0.13622294,-0.04642576,0.015882496
826,8.26,0.60770255,0.575487,0.59061855,-0.13622294,-0.04642576,0.015882496
827,8.27,0.60770255,0.575487,0.59061855,-0.13622294,-0.04642576,0.015882496
828,8.28,0.60770255,0.575487,0.59061855,-0.13622294,-0.04642576,0.015882496
829,8.29,0.60770255,0.575487,0.59061855,-0.13622294,-0.04642576,0.015882496
830,8.3,0.60770255,0.575487,0.59061855,-0.13622294,-0.04642576,0.015882496
831,8.31,0.60770255,0.575487,0.59061855,-0.13622294,-0.04642576,0.015882496
832,8.32,0.60770255,0.575487,0.59061855,-0.13622294,-0.04642576,0.015882496
833,8.33,0.60770255,0.575487,0.59061855,-0.13622294,-0.04642576,0.015882496
834,8.34,0.60770255,0.575487,0.59061855,-0.13622294,-0.04642576,0.015882496
835,8.35,0.60770255,0.575487,0.59061855,-0.13622294,-0.04642576,0.015882496
836,8.36,0.60770255,0.575487,0.59061855,-0.13622294,-0.04642576,0.015882496
837,8.37,0.60770255,0.575487,0.59061855,-0.13622294,-0.04642576,0.015882496
838,8.38,0.60770255,0.575487,0.59061855,-0.13622294,-0.04642576,0.015882496
839,8.39,0.60770255,0.575487,0.59061855,-0.13622294,-0.04642576,0.015882496
840,8.4,0.60770255,0.575487,0.59061855,-0.13622294,-0.04642576,0.015882496
841,8.41,0.60770255,0.575487,0.59061855,-0.13622294,-0.04642576,0.015882496
842,8.42,0.60770255,0.575487,0.59061855,-0.13622294,-0.04642576,0.015882496
843,8.43,0.60770255,0.575487,0.59061855,-0.13622294,-0.04642576,0.015882496
844,8.44,0.60770255,0.575487,0.59061855,-0.13622294,-0.04642576,0.015882496
845,8.45,0.60770255,0.575487,0.59061855,-0.13622294,-0.04642576,0.015882496
846,8.46,0.60770255,0.575487,0.59061855,-0.13622294,-0.04642576,0.015882496
847,8.47,0.60770255,0.575487,0.59061855,-0.13622294,-0.04642576,0.015882496
848,8.48,0.60770255,0.575487,0.59061855,-0.13622294,-0.04642576,0.015882496
849,8.49,0.60770255,0.575487,0.59061855,-0.13622294,-0.04642576,0.015882496
850,8.5,0.60770255,0.575487,0.59061855,-0.13622294,-0.04642576,0.015882496
851,8.51,0.60770255,0.575487,0.59061855,-0.13622294,-0.04642576,0.015882496
852,8.52,0.60770255,0.575487,0.59061855,-0.13622294,-0.04642576,0.015882496
853,8.53,0.60770255,0.575487,0.59061855,-0.13622294,-0.04642576,0.015882496
854,8.54,0.60770255,0.575487,0.59061855,-0.13622294,-0.04642576,0.015882496
855,8.55,0.60770255,0.575487,0.59061855,-0.13622294,-0.04642576,0.015882496
856,8.56,0.60770255,0.575487,0.59061855,-0.13622294,-0.04642576,0.015882496
857,8.57,0.60770255,0.575487,0.59061855,-0.13622294,-0.04642576,0.015882496
858,8.58,0.60770255,0.575487,0.59061855,-0.13622294,-0.04642576,0.015882496
859,8.59,0.60770255,0.575487,0.59061855,-0.13622294,-0.04642576,0.015882496
860,8.6,0.60770255,0.575487,0.59061855,-0.13622294,-0.04642576,0.015882496
861,8.61,0.60770255,0.575487,0.59061855,-0.13622294,-0.04642576,0.015882496
862,8.62,0.60770255,0.575487,0.59061855,-0.13622294,-0.04642576,0.015882496
863,8.63,0.60770255,0.575487,0.59061855,-0.13622294,-0.04642576,0.015882496
864,8.64,0.60770255,0.575487,0.59061855,-0.13622294,-0.04642576,0.015882496
865,8.65,0.60770255,0.575487,0.59061855,-0.13622294,-0.04642576,0.015882496
866,8.66,0.60770255,0.575487,0.59061855,-0.13622294,-0.04642576,0.015882496
867,8.67,0.60770255,0.575487,0.59061855,-0.13622294,-0.04642576,0.015882496
868,8.68,0.60770255,0.575487,0.59061855,-0.13622294,-0.04642576,0.015882496
869,8.69,0.60770255,0.575487,0.59061855,-0.13622294,-0.04642576,0.015882496
870,8.7,0.60770255,0.575487,0.59061855,-0.13622294,-0.04642576,0.015882496
871,8.71,0.60770255,0.575487,0.59061855,-0.13622294,-0.04642576,0.015882496
872,8.72,0.60770255,0.575487,0.59061855,-0.13622294,-0.04642576,0.015882496
873,8.73,0.60770255,0.575487,0.59061855,-0.13622294,-0.04642576,0.015882496
874,8.74,0.60770255,0.575487,0.59061855,-0.13622294,-0.04642576,0.015882496
875,8.75,0.60770255,0.575487,0.59061855,-0.13622294,-0.04642576,0.015882496
876,8.76,0.60770255,0.575487,0.59061855,-0.13622294,-0.04642576,0.015882496
877,8.77,0.60770255,0.575487,0.59061855,-0.13622294,-0.04642576,0.015882496
878,8.78,0.60770255,0.575487,0.59061855,-0.13622294,-0.04642576,0.015882496
879,8.79,0.60770255,0.575487,0.59061855,-0.13622294,-0.04642576,0.015882496
880,8.8,0.60770255,0.575487,0.59061855,-0.13622294,-0.04642576,0.015882496
881,8.81,0.60770255,0.575487,0.59061855,-0.13622294,-0.04642576,0.015882496
882,8.82,0.60770255,0.575487,0.59061855,-0.13622294,-0.04642576,0.015882496
883,8.83,0.60770255,0.575487,0.59061855,-0.13622294,-0.04642576,0.015882496
884,8.84,0.60770255,0.575487,0.59061855,-0.13622294,-0.04642576,0.015882496
885,8.85,0.60770255,0.575487,0.59061855,-0.13622294,-0.04642576,0.015882496
886,8.86,0.60770255,0.575487,0.59061855,-0.13622294,-0.04642576,0.015882496
887,8.87,0.60770255,0.575487,0.59061855,-0.13622294,-0.04642576,0.015882496
888,8.88,0.60770255,0.575487,0.59061855,-0.13622294,-0.04642576,0.015882496
889,8.89,0.60770255,0.575487,0.59061855,-0.13622294,-0.04642576,0.015882496
890,8.9,0.60770255,0.575487,0.59061855,-0.13622294,-0.04642576,0.015882496
891,8.91,0.60770255,0.575487,0.59061855,-0.13622294,-0.04642576,0.015882496
892,8.92,0.60770255,0.575487,0.59061855,-0.13622294,-0.04642576,0.015882496
893,8.93,0.60770255,0.575487,0.59061855,-0.13622294,-0.04642576,0.015882496
894,8.94,0.60770255,0.575487,0.59061855,-0.13622294,-0.04642576,0.015882496
895,8.95,0.60770255,0.575487,0.59061855,-0.13622294,-0.04642576,0.015882496
896,8.96,0.60770255,0.575487,0.59061855,-0.13622294,-0.04642576,0.015882496
897,8.97,0.60770255,0.575487,0.59061855,-0.13622294,-0.04642576,0.015882496
898,8.98,0.60770255,0.575487,0.59061855,-0.13622294,-0.04642576,0.015882496
899,8.99,0.60770255,0.575487,0.59061855,-0.13622294,-0.04642576,0.015882496
900,9.0,0.60770255,0.575487,0.59061855,-0.13622294,-0.04642576,0.015882496
901,9.01,0.60770255,0.575487,0.59061855,-0.13622294,-0.04642576,0.015882496
902,9.02,0.60770255,0.575487,0.59061855,-0.13622294,-0.04642576,0.015882496
903,9.03,0.60770255,0.575487,0.59061855,-0.13622294,-0.04642576,0.015882496
904,9.04,0.60770255,0.575487,0.59061855,-0.13622294,-0.04642576,0.015882496
905,9.05,0.60770255,0.575487,0.59061855,-0.13622294,-0.04642576,0.015882496
906,9.06,0.60770255,0.575487,0.59061855,-0.13622294,-0.04642576,0.015882496
907,9.07,0.60770255,0.575487,0.59061855,-0.13622294,-0.04642576,0.015882496
908,9.08,0.60770255,0.575487,0.59061855,-0.13622294,-0.04642576,0.015882496
909,9.09,0.60770255,0.575487,0.59061855,-0.13622294,-0.04642576,0.015882496
910,9.1,0.60770255,0.575487,0.59061855,-0.13622294,-0.04642576,0.015882496
911,9.11,0.60770255,0.575487,0.59061855,-0.13622294,-0.04642576,0.015882496
912,9.12,0.60770255,0.575487,0.59061855,-0.13622294,-0.04642576,0.015882496
913,9.13,0.60770255,0.575487,0.59061855,-0.13622294,-0.04642576,0.015882496
914,9.14,0.60770255,0.575487,0.59061855,-0.13622294,-0.04642576,0.015882496
915,9.15,0.60770255,0.575487,0.59061855,-0.13622294,-0.04642576,0.015882496
916,9.16,0.60770255,0.575487,0.59061855,-0.13622294,-0.04642576,0.015882496
917,9.17,0.60770255,0.575487,0.59061855,-0.13622294,-0.04642576,0.015882496
918,9.18,0.60770255,0.575487,0.59061855,-0.13622294,-0.04642576,0.015882496
919,9.19,0.60770255,0.575487,0.59061855,-0.13622294,-0.04642576,0.015882496
920,9.2,0.60770255,0.575487,0.59061855,-0.13622294,-0.04642576,0.015882496
921,9.21,0.60770255,0.575487,0.59061855,-0.13622294,-0.04642576,0.015882496
922,9.22,0.60770255,0.575487,0.59061855,-0.13622294,-0.04642576,0.015882496
923,9.23,0.60770255,0.575487,0.59061855,-0.13622294,-0.04642576,0.015882496
924,9.24,0.60770255,0.575487,0.59061855,-0.13622294,-0.04642576,0.015882496
925,9.25,0.60770255,0.575487,0.59061855,-0.13622294,-0.04642576,0.015882496
926,9.26,0.60770255,0.575487,0.59061855,-0.13622294,-0.04642576,0.015882496
927,9.27,0.60770255,0.575487,0.59061855,-0.13622294,-0.04642576,0.015882496
928,9.28,0.60770255,0.575487,0.59061855,-0.13622294,-0.04642576,0.015882496
929,9.29,0.60770255,0.575487,0.59061855,-0.13622294,-0.04642576,0.015882496
930,9.3,0.60770255,0.575487,0.59061855,-0.13622294,-0.04642576,0.015882496
931,9.31,0.60770255,0.575487,0.59061855,-0.13622294,-0.04642576,0.015882496
932,9.32,0.60770255,0.575487,0.59061855,-0.13622294,-0.04642576,0.015882496
933,9.33,0.60770255,0.575487,0.59061855,-0.13622294,-0.04642576,0.015882496
934,9.34,0.60770255,0.575487,0.59061855,-0.13622294,-0.04642576,0.015882496
935,9.35,0.60770255,0.575487,0.59061855,-0.13622294,-0.04642576,0.015882496
936,9.36,0.60770255,0.575487,0.59061855,-0.13622294,-0.04642576,0.015882496
937,9.37,0.60770255,0.575487,0.59061855,-0.13622294,-0.04642576,0.015882496
938,9.38,0.60770255,0.575487,0.59061855,-0.13622294,-0.04642576,0.015882496
939,9.39,0.60770255,0.575487,0.59061855,-0.13622294,-0.04642576,0.015882496
940,9.4,0.60770255,0.575487,0.59061855,-0.13622294,-0.04642576,0.015882496
941,9.41,0.60770255,0.575487,0.59061855,-0.13622294,-0.04642576,0.015882496
942,9.42,0.60770255,0.575487,0.59061855,-0.13622294,-0.04642576,0.015882496
943,9.43,0.60770255,0.575487,0.59061855,-0.13622294,-0.04642576,0.015882496
944,9.44,0.60770255,0.575487,0.59061855,-0.13622294,-0.04642576,0.015882496
945,9.45,0.60770255,0.575487,0.59061855,-0.13622294,-0.04642576,0.015882496
946,9.46,0.60770255,0.575487,0.59061855,-0.13622294,-0.04642576,0.015882496
947,9.47,0.60770255,0.575487,0.59061855,-0.13622294,-0.04642576,0.015882496
948,9.48,0.60770255,0.575487,0.59061855,-0.13622294,-0.04642576,0.015882496
949,9.49,0.60770255,0.575487,0.59061855,-0.13622294,-0.04642576,0.015882496
950,9.5,0.60770255,0.575487,0.59061855,-0.13622294,-0.04642576,0.015882496
951,9.51,0.60770255,0.575487,0.59061855,-0.13622294,-0.04642576,0.015882496
952,9.52,0.60770255,0.575487,0.59061855,-0.13622294,-0.04642576,0.015882496
953,9.53,0.60770255,0.575487,0.59061855,-0.13622294,-0.04642576,0.015882496
954,9.54,0.60770255,0.575487,0.59061855,-0.13622294,-0.04642576,0.015882496
955,9.55,0.60770255,0.575487,0.59061855,-0.13622294,-0.04642576,0.015882496
956,9.56,0.60770255,0.575487,0.59061855,-0.13622294,-0.04642576,0.015882496
957,9.57,0.60770255,0.575487,0.59061855,-0.13622294,-0.04642576,0.015882496
958,9.58,0.60770255,0.575487,0.59061855,-0.13622294,-0.04642576,0.015882496
959,9.59,0.60770255,0.575487,0.59061855,-0.13622294,-0.04642576,0.015882496
960,9.6,0.60770255,0.575487,0.59061855,-0.13622294,-0.04642576,0.015882496
961,9.61,0.60770255,0.575487,0.59061855,-0.13622294,-0.04642576,0.015882496
962,9.62,0.60770255,0.575487,0.59061855,-0.13622294,-0.04642576,0.015882496
963,9.63,0.60770255,0.575487,0.59061855,-0.13622294,-0.04642576,0.015882496
964,9.64,0.60770255,0.575487,0.59061855,-0.13622294,-0.04642576,0.015882496
965,9.65,0.60770255,0.575487,0.59061855,-0.13622294,-0.04642576,0.015882496
966,9.66,0.60770255,0.575487,0.59061855,-0.13622294,-0.04642576,0.015882496
967,9.67,0.60770255,0.575487,0.59061855,-0.13622294,-0.04642576,0.015882496
968,9.68,0.60770255,0.575487,0.59061855,-0.13622294,-0.04642576,0.015882496
969,9.69,0.60770255,0.575487,0.59061855,-0.13622294,-0.04642576,0.015882496
970,9.7,0.60770255,0.575487,0.59061855,-0.13622294,-0.04642576,0.015882496
971,9.71,0.60770255,0.575487,0.59061855,-0.13622294,-0.04642576,0.015882496
972,9.72,0.60770255,0.575487,0.59061855,-0.13622294,-0.04642576,0.015882496
973,9.73,0.60770255,0.575487,0.59061855,-0.13622294,-0.04642576,0.015882496
974,9.74,0.60770255,0.575487,0.59061855,-0.13622294,-0.04642576,0.015882496
975,9.75,0.60770255,0.575487,0.59061855,-0.13622294,-0.04642576,0.015882496
976,9.76,0.60770255,0.575487,0.59061855,-0.13622294,-0.04642576,0.015882496
977,9.77,0.60770255,0.575487,0.59061855,-0.13622294,-0.04642576,0.015882496
978,9.78,0.60770255,0.575487,0.59061855,-0.13622294,-0.04642576,0.015882496
979,9.79,0.60770255,0.575487,0.59061855,-0.13622294,-0.04642576,0.015882496
980,9.8,0.60770255,0.575487,0.59061855,-0.13622294,-0.04642576,0.015882496
981,9.81,0.60770255,0.575487,0.59061855,-0.13622294,-0.04642576,0.015882496
982,9.82,0.60770255,0.575487,0.59061855,-0.13622294,-0.04642576,0.015882496
983,9.83,0.60770255,0.575487,0.59061855,-0.13622294,-0.04642576,0.015882496
984,9.84,0.60770255,0.575487,0.59061855,-0.13622294,-0.04642576,0.015882496
985,9.85,0.60770255,0.575487,0.59061855,-0.13622294,-0.04642576,0.015882496
986,9.86,0.60770255,0.575487,0.59061855,-0.13622294,-0.04642576,0.015882496
987,9.87,0.60770255,0.575487,0.59061855,-0.13622294,-0.04642576,0.015882496
988,9.88,0.60770255,0.575487,0.59061855,-0.13622294,-0.04642576,0.015882496
989,9.89,0.60770255,0.575487,0.59061855,-0.13622294,-0.04642576,0.015882496
990,9.9,0.60770255,0.575487,0.59061855,-0.13622294,-0.04642576,0.015882496
991,9.91,0.60770255,0.575487,0.59061855,-0.13622294,-0.04642576,0.015882496
992,9.92,0.60770255,0.575487,0.59061855,-0.13622294,-0.04642576,0.015882496
993,9.93,0.60770255,0.575487,0.59061855,-0.13622294,-0.04642576,0.015882496
994,9.94,0.60770255,0.575487,0.59061855,-0.13622294,-0.04642576,0.015882496
995,9.95,0.60770255,0.575487,0.59061855,-0.13622294,-0.04642576,0.015882496
996,9.96,0.60770255,0.575487,0.59061855,-0.13622294,-0.04642576,0.015882496
997,9.97,0.60770255,0.575487,0.59061855,-0.13622294,-0.04642576,0.015882496
998,9.98,0.60770255,0.575487,0.59061855,-0.13622294,-0.04642576,0.015882496
999,9.99,0.60770255,0.575487,0.59061855,-0.13622294,-0.04642576,0.015882496
