id,timestamp,acc_x,acc_y,acc_z,gyro_x,gyro_y,gyro_z
0,0.0,,,,,,
1,0.01,0.07297312,0.7175283,0.68336034,0.021380283,-0.0061086523,0.004886922
2,0.02,0.07297312,0.7175283,0.68336034,0.021380283,-0.0061086523,0.004886922
3,0.03,0.07297312,0.7175283,0.68336034,0.021380283,-0.0061086523,0.004886922
4,0.04,0.07297312,0.7175283,0.68336034,0.021380283,-0.0061086523,0.004886922
5,0.05,0.07297312,0.7175283,0.68336034,0.021380283,-0.0061086523,0.004886922
6,0.06,0.07297312,0.7175283,0.68336034,0.028687339228040728,-0.018113102476615857,0.006974652472928109
7,0.07,0.07705148545365874,0.7185922255292884,0.6812324598793675,0.029932396,-0.020158553,0.007330383
8,0.08,0.07858644,0.71899265,0.6804316,0.029932396,-0.020158553,0.007330383
9,0.09,0.07858644,0.71899265,0.6804316,0.029932396,-0.020158553,0.007330383
10,0.1,0.07858644,0.71899265,0.6804316,0.029932396,-0.020158553,0.007330383
11,0.11,0.07858644,0.71899265,0.6804316,0.029932396,-0.020158553,0.007330383
12,0.12,0.07858644,0.71899265,0.6804316,0.029932396,-0.020158553,0.007330383
13,0.13,0.07858644,0.71899265,0.6804316,0.029932396,-0.020158553,0.007330383
14,0.14,0.07858644,0.71899265,0.6804316,0.029932396,-0.020158553,0.007330383
15,0.15,0.07858644,0.71899265,0.6804316,0.029932396,-0.020158553,0.007330383
16,0.16,0.07858644,0.71899265,0.6804316,0.029932396,-0.020158553,0.007330383
17,0.17,0.07858644,0.71899265,0.6804316,0.029932396,-0.020158553,0.007330383
18,0.18,0.07858644,0.71899265,0.6804316,0.029932396,-0.020158553,0.007330383
19,0.19,0.07858644,0.71899265,0.6804316,0.029932396,-0.020158553,0.007330383
20,0.2,0.07858644,0.71899265,0.6804316,0.029932396,-0.020158553,0.007330383
21,0.21,0.07858644,0.71899265,0.6804316,0.029932396,-0.020158553,0.007330383
22,0.22,0.07858644,0.71899265,0.6804316,0.029932396,-0.020158553,0.007330383
23,0.23,0.07858644,0.71899265,0.6804316,0.029932396,-0.020158553,0.007330383
24,0.24,0.0778370945268907,0.71899265,0.6756358012534325,0.029932396,-0.020158553,0.007330383
25,0.25,0.07736614,0.71899265,0.6726217,0.029932396,-0.020158553,0.007330383
26,0.26,0.07736614,0.71899265,0.6726217,0.029932396,-0.020158553,0.007330383
27,0.27,0.07736614,0.71899265,0.6726217,0.02507458820385164,-0.014595579303634096,0.006781920801331892
28,0.28,0.07736614,0.71899265,0.6726217,-0.0025262000165633,0.017011776382787728,0.003665702616589351
29,0.29,0.07736614,0.71899265,0.6726217,-0.007941248,0.02321288,0.0030543262
30,0.3,0.07736614,0.71899265,0.6726217,-0.007941248,0.02321288,0.0030543262
31,0.31,0.07736614,0.71899265,0.6726217,-0.007941248,0.02321288,0.0030543262
32,0.32,0.07736614,0.71899265,0.6726217,-0.007941248,0.02321288,0.0030543262
33,0.33,0.07736614,0.71899265,0.6726217,0.015290378902849441,0.012653048332400952,0.005694283771166204
34,0.34,0.07736614,0.71899265,0.6726217,0.018936822,0.010995574,0.0061086523
35,0.35,0.07736614,0.71899265,0.6726217,0.018936822,0.010995574,0.0061086523
36,0.36,0.07736614,0.71899265,0.6726217,0.018936822,0.010995574,0.0061086523
37,0.37,0.07874305477402077,0.7172159881824522,0.6755087897854103,0.018936822,0.010995574,0.0061086523
38,0.38,0.08474483305190174,0.7094717686382311,0.6880932090154899,0.018936822,0.010995574,0.0061086523
39,0.39,0.084931925,0.70923036,0.6884855,0.018936822,0.010995574,0.0061086523
40,0.4,0.084931925,0.70923036,0.6884855,0.018936822,0.010995574,0.0061086523
41,0.41,0.08139607081469304,0.7094922727400131,0.695688167423548,0.024181325338211004,-0.009982436669916606,0.007419778376016218
42,0.42,0.07834238,0.70971847,0.70190865,0.028710667,-0.028099801,0.008552114
43,0.43,0.07834238,0.70971847,0.70190865,0.028710667,-0.028099801,0.008552114
44,0.44,0.07834238,0.70971847,0.70190865,0.028710667,-0.028099801,0.008552114
45,0.45,0.07834238,0.70971847,0.70190865,0.028710667,-0.028099801,0.008552114
46,0.46,0.07834238,0.70971847,0.70190865,0.028710667,-0.028099801,0.008552114
47,0.47,0.07834238,0.70971847,0.70190865,0.028710667,-0.028099801,0.008552114
48,0.48,0.08817176980760683,0.7095294333531403,0.6992623150831417,0.028710667,-0.028099801,0.008552114
49,0.49,0.091033354,0.7094744,0.6984919,0.028710667,-0.028099801,0.008552114
50,0.5,0.091033354,0.7094744,0.6984919,0.028710667,-0.028099801,0.008552114
51,0.51,0.091033354,0.7094744,0.6984919,0.027665499584474493,-0.02695011689425081,0.007715980067579595
52,0.52,0.091033354,0.7094744,0.6984919,0.022602014,-0.021380283,0.0036651916
53,0.53,0.091033354,0.7094744,0.6984919,0.022602014,-0.021380283,0.0036651916
54,0.54,0.091033354,0.7094744,0.6984919,0.022602014,-0.021380283,0.0036651916
55,0.55,0.08558831112940812,0.7118290035506263,0.6955486003376996,0.022602014,-0.021380283,0.0036651916
56,0.56,0.082003236,0.7133793,0.6936107,0.022602014,-0.021380283,0.0036651916
57,0.57,0.082003236,0.7133793,0.6936107,0.022602014,-0.021380283,0.0036651916
58,0.58,0.082003236,0.7133793,0.6936107,0.022602014,-0.021380283,0.0036651916
59,0.59,0.082003236,0.7133793,0.6936107,0.022602014,-0.021380283,0.0036651916
60,0.6,0.082003236,0.7133793,0.6936107,0.11395910472723261,-0.16773344918116204,-0.12768904650822924
61,0.61,0.0837684115423032,0.7118857063596473,0.6959190215428084,0.14538592,-0.2180789,-0.17287487
62,0.62,0.08517598,0.7145924693101626,0.6884581563841171,0.14538592,-0.2180789,-0.17287487
63,0.63,0.08517598,0.7214332,0.6721336,0.14538592,-0.2180789,-0.17287487
64,0.64,0.08517598,0.7214332,0.6721336,0.12954630310854234,-0.1920298592950561,-0.15178040194854378
65,0.65,0.08517598,0.7214332,0.6721336,0.030307266508216257,-0.028826309509994492,-0.019618449966495033
66,0.66,0.08517598,0.7214332,0.6721336,0.016493361,-0.0061086523,-0.0012217305
67,0.67,0.08517598,0.7214332,0.6721336,0.016493361,-0.0061086523,-0.0012217305
68,0.68,0.08517598,0.7214332,0.6721336,0.016493361,-0.0061086523,-0.0012217305
69,0.69,0.08517598,0.7214332,0.6721336,0.016493361,-0.0061086523,-0.0012217305
70,0.7,0.08517598,0.7214332,0.6721336,0.016493361,-0.0061086523,-0.0012217305
71,0.71,0.08517598,0.7214332,0.6721336,0.016493361,-0.0061086523,-0.0012217305
72,0.72,0.08517598,0.7214332,0.6721336,0.016493361,-0.0061086523,-0.0012217305
73,0.73,0.08517598,0.7214332,0.6721336,0.016493361,-0.0061086523,-0.0012217305
74,0.74,0.08517598,0.7214332,0.6721336,0.016493361,-0.0061086523,-0.0012217305
75,0.75,0.08517598,0.7214332,0.6721336,0.016493361,-0.0061086523,-0.0012217305
76,0.76,0.08517598,0.7214332,0.6721336,0.016493361,-0.0061086523,-0.0012217305
77,0.77,0.08517598,0.7214332,0.6721336,0.016493361,-0.0061086523,-0.0012217305
78,0.78,0.08517598,0.7214332,0.6721336,0.016493361,-0.0061086523,-0.0012217305
79,0.79,0.08517598,0.7214332,0.6721336,0.016493361,-0.0061086523,-0.0012217305
80,0.8,0.08517598,0.7214332,0.6721336,0.016493361,-0.0061086523,-0.0012217305
81,0.81,0.08517598,0.7214332,0.6721336,0.016493361,-0.0061086523,-0.0012217305
82,0.82,0.08517598,0.7214332,0.6721336,0.016493361,-0.0061086523,-0.0012217305
83,0.83,0.08517598,0.7214332,0.6721336,0.016493361,-0.0061086523,-0.0012217305
84,0.84,0.08517598,0.7214332,0.6721336,0.016493361,-0.0061086523,-0.0012217305
85,0.85,0.08517598,0.7214332,0.6721336,0.016493361,-0.0061086523,-0.0012217305
86,0.86,0.08517598,0.7214332,0.6721336,0.016493361,-0.0061086523,-0.0012217305
87,0.87,0.08517598,0.7214332,0.6721336,0.016493361,-0.0061086523,-0.0012217305
88,0.88,0.08517598,0.7214332,0.6721336,0.016493361,-0.0061086523,-0.0012217305
89,0.89,0.08517598,0.7214332,0.6721336,0.016493361,-0.0061086523,-0.0012217305
90,0.9,0.08517598,0.7214332,0.6721336,0.016493361,-0.0061086523,-0.0012217305
91,0.91,0.08517598,0.7214332,0.6721336,0.016493361,-0.0061086523,-0.0012217305
92,0.92,0.08517598,0.7214332,0.6721336,0.016493361,-0.0061086523,-0.0012217305
93,0.93,0.08517598,0.7214332,0.6721336,0.016493361,-0.0061086523,-0.0012217305
94,0.94,0.08517598,0.7214332,0.6721336,0.016493361,-0.0061086523,-0.0012217305
95,0.95,0.08517598,0.7214332,0.6721336,0.016493361,-0.0061086523,-0.0012217305
96,0.96,0.08517598,0.7214332,0.6721336,0.016493361,-0.0061086523,-0.0012217305
97,0.97,0.08517598,0.7214332,0.6721336,0.016493361,-0.0061086523,-0.0012217305
98,0.98,0.08485797289677224,0.7214666734212805,0.672702668735475,0.016493361,-0.0061086523,-0.0012217305
99,0.99,0.0811651489552214,0.7218553799949875,0.6793109193984963,0.016493361,-0.0061086523,-0.0012217305
100,1.0,0.08053889,0.7219213,0.6804316,0.016493361,-0.0061086523,-0.0012217305
101,1.01,0.08053889,0.7219213,0.6804316,0.016493361,-0.0061086523,-0.0012217305
102,1.02,0.0820516309062932,0.7217620689226731,0.6777245738175406,0.016493361,-0.0061086523,-0.0012217305
103,1.03,0.08517598,0.7214332,0.6721336,0.016493361,-0.0061086523,-0.0012217305
104,1.04,0.08517598,0.7214332,0.6721336,0.016493361,-0.0061086523,-0.0012217305
105,1.05,0.08517598,0.7214332,0.6721336,0.016493361,-0.0061086523,-0.0012217305
106,1.06,0.08517598,0.7214332,0.6721336,0.016493361,-0.0061086523,-0.0012217305
107,1.07,0.08535511149510305,0.7209853724855341,0.6718947596375848,0.016493361,-0.0061086523,-0.0012217305
108,1.08,0.08658876897298037,0.7179012372155064,0.6702498942333026,0.016493361,-0.0061086523,-0.0012217305
109,1.09,0.08664032,0.71777236,0.67018116,0.016493361,-0.0061086523,-0.0012217305
110,1.1,0.08664032,0.71777236,0.67018116,0.016493361,-0.0061086523,-0.0012217305
111,1.11,0.08664032,0.71777236,0.67018116,0.016493361,-0.0061086523,-0.0012217305
112,1.12,0.08664032,0.71777236,0.67018116,0.013463968678969837,0.004746669997722074,-0.00197907855959428
113,1.13,0.08664032,0.71777236,0.67018116,0.009162978,0.020158553,-0.0030543262
114,1.14,0.08661857149241617,0.717786858920187,0.6701718392716562,0.009162978,0.020158553,-0.0030543262
115,1.15,0.08346827958907926,0.7198870412290692,0.6688217229511849,0.009162978,0.020158553,-0.0030543262
116,1.16,0.08151512,0.72118914,0.66798466,0.009162978,0.020158553,-0.0030543262
117,1.17,0.08151512,0.72118914,0.66798466,0.006740271092672003,0.020158553,-0.0005559097080149171
118,1.18,0.08151512,0.72118914,0.66798466,-0.008819470423117964,0.020158553,0.015490073690344042
119,1.19,0.008688004194634625,0.7139735650374659,0.6908060702935879,-0.01038471,0.020158553,0.017104227
120,1.2,-0.024405725,0.7106947,0.70117646,-0.01038471,0.020158553,0.017104227
121,1.21,-0.024405725,0.7106947,0.70117646,-0.01038471,0.020158553,0.017104227
122,1.22,-0.024405725,0.7106947,0.70117646,-0.01038471,0.020158553,0.017104227
123,1.23,-0.024405725,0.7106947,0.70117646,-0.01038471,0.020158553,0.017104227
124,1.24,-0.024405725,0.7106947,0.70117646,-0.01038471,0.020158553,0.017104227
125,1.25,-0.024405725,0.7106947,0.70117646,-0.01038471,0.020158553,0.017104227
126,1.26,-0.024405725,0.7106947,0.70117646,-0.01038471,0.020158553,0.017104227
127,1.27,-0.03004234763891246,0.716799088337132,0.6921485088566866,-0.01038471,0.020158553,0.017104227
128,1.28,-0.07681982025683852,0.7674584772268721,0.6172269176032763,-0.01038471,0.020158553,0.017104227
129,1.29,-0.08322352,0.7743936,0.60697037,-0.01038471,0.020158553,0.017104227
130,1.3,-0.008063796787020426,0.7519320762689259,0.642822433320656,-0.01038471,0.020158553,0.017104227
131,1.31,0.08664032,0.7236297,0.6879974,-0.01038471,0.020158553,0.017104227
132,1.32,0.08664032,0.7236297,0.6879974,-0.01085179807382696,0.019691464921075482,0.01718207500805653
133,1.33,0.08664032,0.7236297,0.6879974,-0.02393625372944498,0.00660700912266049,0.019362817498328723
134,1.34,0.08664032,0.7236297,0.6879974,-0.028710667,0.0018325958,0.020158553
135,1.35,0.08664032,0.7236297,0.6879974,-0.028710667,0.0018325958,0.020158553
136,1.36,0.08664032,0.7236297,0.6879974,-0.028710667,0.0018325958,0.020158553
137,1.37,0.08664032,0.7236297,0.6879974,-0.028710667,0.0018325958,0.020158553
138,1.38,0.08664032,0.7236297,0.6879974,-0.028710667,0.0018325958,0.020158553
139,1.39,0.08664032,0.7236297,0.6879974,-0.028710667,0.0018325958,0.020158553
140,1.4,0.08295266207877129,0.7229436232904902,0.6817369350916092,-0.028710667,0.0018325958,0.020158553
141,1.41,0.07614586,0.72167724,0.67018116,-0.02475727683195866,-0.0004136485307567876,0.017103660656925607
142,1.42,0.07614586,0.72167724,0.67018116,-0.003330100744975423,-0.012588179949030456,0.0005462976394873184
143,1.43,0.07614586,0.72167724,0.67018116,-0.0018325958,-0.013439035,-0.00061086525
144,1.44,0.07614586,0.72167724,0.67018116,-0.0018325958,-0.013439035,-0.00061086525
145,1.45,0.07614586,0.72167724,0.67018116,-0.0018325958,-0.013439035,-0.00061086525
146,1.46,0.07614586,0.72167724,0.67018116,-0.0018325958,-0.013439035,-0.00061086525
147,1.47,0.07614586,0.72167724,0.67018116,-0.0018325958,-0.013439035,-0.00061086525
148,1.48,0.0815303298192743,0.7226055769279772,0.6833638852021374,-0.0018325958,-0.013439035,-0.00061086525
149,1.49,0.08322352,0.7228975,0.6875093,-0.0018325958,-0.013439035,-0.00061086525
150,1.5,0.08322352,0.7228975,0.6875093,-0.0018325958,-0.013439035,-0.00061086525
151,1.51,0.08322352,0.7228975,0.6875093,-0.0018325958,-0.013439035,-0.00061086525
152,1.52,0.05443639888729095,0.7149779110211234,0.6806372633463202,-0.0018325958,-0.013439035,-0.00061086525
153,1.53,-0.07395674242107643,0.6796558340795646,0.6499873637020429,-0.0018325958,-0.013439035,-0.00061086525
154,1.54,-0.08444381,0.67677075,0.6474839,0.012022857606516552,0.02097612391922966,0.005199486163197788
155,1.55,0.006106591694079975,0.7015642877732173,0.6685045115927993,0.017104227,0.03359759,0.007330383
156,1.56,0.079562664,0.72167724,0.6855568,0.017104227,0.03359759,0.007330383
157,1.57,0.079562664,0.72167724,0.6855568,0.017104227,0.03359759,0.007330383
158,1.58,0.07908084929106085,0.7219783792313773,0.6851954414771586,0.017104227,0.03359759,0.007330383
159,1.59,0.07442586564331732,0.724887792687936,0.6817042279803702,0.017104227,0.03359759,0.007330383
160,1.6,0.07370529,0.72533816,0.6811638,0.017104227,0.03359759,0.007330383
161,1.61,0.07370529,0.72533816,0.6811638,0.017104227,0.03359759,0.007330383
162,1.62,0.07370529,0.72533816,0.6811638,0.005280133856322526,0.023315769477447755,0.009900837836085617
163,1.63,0.07370529,0.72533816,0.6811638,-0.025045475,-0.0030543262,0.016493361
164,1.64,0.07370529,0.72533816,0.6811638,-0.025045475,-0.0030543262,0.016493361
165,1.65,0.07370529,0.72533816,0.6811638,-0.025045475,-0.0030543262,0.016493361
166,1.66,0.07370529,0.72533816,0.6811638,-0.025045475,-0.0030543262,0.016493361
167,1.67,0.07370529,0.72533816,0.6811638,-0.025045475,-0.0030543262,0.016493361
168,1.68,0.07370529,0.72533816,0.6811638,-0.025045475,-0.0030543262,0.016493361
169,1.69,0.07370529,0.72533816,0.6811638,-0.025045475,-0.0030543262,0.016493361
170,1.7,0.07370529,0.72533816,0.6811638,-0.025045475,-0.0030543262,0.016493361
171,1.71,0.07370529,0.72533816,0.6811638,-0.025045475,-0.0030543262,0.016493361
172,1.72,0.07693907332090384,0.7245648553784194,0.6822885894395603,-0.025045475,-0.0030543262,0.016493361
173,1.73,0.084931925,0.7226535,0.6850687,-0.025045475,-0.0030543262,0.016493361
174,1.74,0.084931925,0.7226535,0.6850687,-0.025045475,-0.0030543262,0.016493361
175,1.75,0.084931925,0.7226535,0.6850687,-0.025045475,-0.0030543262,0.016493361
176,1.76,0.084931925,0.7226535,0.6850687,0.004301253569455831,0.021025041207213494,0.007839838844236504
177,1.77,0.084931925,0.7226535,0.6850687,0.022602014,0.03604105,0.002443461
178,1.78,0.084931925,0.7226535,0.6850687,0.022602014,0.03604105,0.002443461
179,1.79,0.084931925,0.7226535,0.6850687,0.022602014,0.03604105,0.002443461
180,1.8,0.084931925,0.7226535,0.6850687,0.022602014,0.03604105,0.002443461
181,1.81,0.084931925,0.7226535,0.6850687,0.022602014,0.03604105,0.002443461
182,1.82,0.084931925,0.7226535,0.6850687,0.022602014,0.03604105,0.002443461
183,1.83,0.084931925,0.7226535,0.6850687,0.0008856921239966155,0.009981463748795941,-0.0008139872814005077
184,1.84,0.084931925,0.7226535,0.6850687,-0.026267206,-0.022602014,-0.004886922
185,1.85,0.084931925,0.7226535,0.6850687,-0.02531915847023036,-0.019757871721086027,-0.003749265057394916
186,1.86,0.084931925,0.7226535,0.6850687,-0.020158553,-0.004276057,0.002443461
187,1.87,0.084931925,0.7226535,0.6850687,-0.020158553,-0.004276057,0.002443461
188,1.88,0.084931925,0.7226535,0.6850687,-0.020158553,-0.004276057,0.002443461
189,1.89,0.084931925,0.7226535,0.6850687,-0.01689948743295039,-0.0010169913440310073,0.004616171378033075
190,1.9,0.084931925,0.7226535,0.6850687,-0.012656479377023978,-0.0017530132669712722,0.007330383
191,1.91,0.084931925,0.7226535,0.6850687,-0.012217305,-0.014049901,0.007330383
192,1.92,0.084931925,0.7226535,0.6850687,-0.012217305,-0.014049901,0.007330383
193,1.93,0.084931925,0.7226535,0.6850687,-0.012217305,-0.014049901,0.007330383
194,1.94,0.084931925,0.7226535,0.6850687,-0.012217305,-0.014049901,0.007330383
195,1.95,0.084931925,0.7226535,0.6850687,-0.012217305,-0.014049901,0.007330383
196,1.96,0.084931925,0.7226535,0.6850687,-0.012217305,-0.014049901,0.007330383
197,1.97,0.084931925,0.7226535,0.6850687,-0.012217305,-0.014049901,0.007330383
198,1.98,0.084931925,0.7226535,0.6850687,-0.012217305,-0.014049901,0.007330383
199,1.99,0.084931925,0.7226535,0.6850687,-0.012217305,-0.014049901,0.007330383
200,2.0,0.084931925,0.7226535,0.6850687,-0.012217305,-0.014049901,0.007330383
201,2.01,0.084931925,0.7226535,0.6850687,-0.012217305,-0.014049901,0.007330383
202,2.02,0.084931925,0.7226535,0.6850687,-0.012217305,-0.014049901,0.007330383
203,2.03,0.084931925,0.7226535,0.6850687,-0.012217305,-0.014049901,0.007330383
204,2.04,0.084931925,0.7226535,0.6850687,-0.012217305,-0.014049901,0.007330383
205,2.05,0.084931925,0.7226535,0.6850687,-0.012217305,-0.014049901,0.007330383
206,2.06,0.084931925,0.7226535,0.6850687,-0.012217305,-0.014049901,0.007330383
207,2.07,0.084931925,0.7226535,0.6850687,-0.012217305,-0.014049901,0.007330383
208,2.08,0.084931925,0.7226535,0.6850687,-0.012217305,-0.014049901,0.007330383
209,2.09,0.084931925,0.7226535,0.6850687,-0.012217305,-0.014049901,0.007330383
210,2.1,0.084931925,0.7226535,0.6850687,-0.012217305,-0.014049901,0.007330383
211,2.11,0.084931925,0.7226535,0.6850687,-0.012217305,-0.014049901,0.007330383
212,2.12,0.084931925,0.7226535,0.6850687,-0.012217305,-0.014049901,0.007330383
213,2.13,0.084931925,0.7226535,0.6850687,-0.012217305,-0.014049901,0.007330383
214,2.14,0.084931925,0.7226535,0.6850687,-0.012217305,-0.014049901,0.007330383
215,2.15,0.084931925,0.7226535,0.6850687,-0.012217305,-0.014049901,0.007330383
216,2.16,0.084931925,0.7226535,0.6850687,-0.012217305,-0.014049901,0.007330383
217,2.17,0.084931925,0.7226535,0.6850687,-0.012217305,-0.014049901,0.007330383
218,2.18,0.084931925,0.7226535,0.6850687,-0.012217305,-0.014049901,0.007330383
219,2.19,0.084931925,0.7226535,0.6850687,-0.012217305,-0.014049901,0.007330383
220,2.2,0.084931925,0.7226535,0.6850687,-0.012217305,-0.014049901,0.007330383
221,2.21,0.084931925,0.7226535,0.6850687,-0.012217305,-0.014049901,0.007330383
222,2.22,0.084931925,0.7226535,0.6850687,-0.012217305,-0.014049901,0.007330383
223,2.23,0.084931925,0.7226535,0.6850687,-0.012217305,-0.014049901,0.007330383
224,2.24,0.084931925,0.7226535,0.6850687,-0.012217305,-0.014049901,0.007330383
225,2.25,0.084931925,0.7226535,0.6850687,-0.012217305,-0.014049901,0.007330383
226,2.26,0.084931925,0.7226535,0.6850687,-0.012217305,-0.014049901,0.007330383
227,2.27,0.084931925,0.7226535,0.6850687,-0.012217305,-0.014049901,0.007330383
228,2.28,0.084931925,0.7226535,0.6850687,-0.012217305,-0.014049901,0.007330383
229,2.29,0.084931925,0.7226535,0.6850687,-0.012217305,-0.014049901,0.007330383
230,2.3,0.084931925,0.7226535,0.6850687,-0.012217305,-0.014049901,0.007330383
231,2.31,0.084931925,0.7226535,0.6850687,-0.012217305,-0.014049901,0.007330383
232,2.32,0.084931925,0.7226535,0.6850687,-0.012217305,-0.014049901,0.007330383
233,2.33,0.084931925,0.7226535,0.6850687,-0.012217305,-0.014049901,0.007330383
234,2.34,0.084931925,0.7226535,0.6850687,-0.012217305,-0.014049901,0.007330383
235,2.35,0.084931925,0.7226535,0.6850687,-0.012217305,-0.014049901,0.007330383
236,2.36,0.084931925,0.7226535,0.6850687,-0.012217305,-0.014049901,0.007330383
237,2.37,0.084931925,0.7226535,0.6850687,-0.012217305,-0.014049901,0.007330383
238,2.38,0.084931925,0.7226535,0.6850687,-0.012217305,-0.014049901,0.007330383
239,2.39,0.084931925,0.7226535,0.6850687,-0.012217305,-0.014049901,0.007330383
240,2.4,0.084931925,0.7226535,0.6850687,-0.012217305,-0.014049901,0.007330383
241,2.41,0.084931925,0.7226535,0.6850687,-0.012217305,-0.014049901,0.007330383
242,2.42,0.084931925,0.7226535,0.6850687,-0.012217305,-0.014049901,0.007330383
243,2.43,0.084931925,0.7226535,0.6850687,-0.012217305,-0.014049901,0.007330383
244,2.44,0.084931925,0.7226535,0.6850687,-0.012217305,-0.014049901,0.007330383
245,2.45,0.084931925,0.7226535,0.6850687,-0.012217305,-0.014049901,0.007330383
246,2.46,0.084931925,0.7226535,0.6850687,-0.012217305,-0.014049901,0.007330383
247,2.47,0.084931925,0.7226535,0.6850687,-0.012217305,-0.014049901,0.007330383
248,2.48,0.084931925,0.7226535,0.6850687,-0.012217305,-0.014049901,0.007330383
249,2.49,0.084931925,0.7226535,0.6850687,-0.012217305,-0.014049901,0.007330383
250,2.5,0.084931925,0.7226535,0.6850687,-0.012217305,-0.014049901,0.007330383
251,2.51,0.084931925,0.7226535,0.6850687,-0.012217305,-0.014049901,0.007330383
252,2.52,0.084931925,0.7226535,0.6850687,-0.012217305,-0.014049901,0.007330383
253,2.53,0.084931925,0.7226535,0.6850687,-0.012217305,-0.014049901,0.007330383
254,2.54,0.084931925,0.7226535,0.6850687,-0.012217305,-0.014049901,0.007330383
255,2.55,0.084931925,0.7226535,0.6850687,-0.012217305,-0.014049901,0.007330383
256,2.56,0.084931925,0.7226535,0.6850687,-0.012217305,-0.014049901,0.007330383
257,2.57,0.084931925,0.7226535,0.6850687,-0.012217305,-0.014049901,0.007330383
258,2.58,0.084931925,0.7226535,0.6850687,-0.012217305,-0.014049901,0.007330383
259,2.59,0.084931925,0.7226535,0.6850687,-0.012217305,-0.014049901,0.007330383
260,2.6,0.084931925,0.7226535,0.6850687,-0.012217305,-0.014049901,0.007330383
261,2.61,0.084931925,0.7226535,0.6850687,-0.012217305,-0.014049901,0.007330383
262,2.62,0.084931925,0.7226535,0.6850687,-0.012217305,-0.014049901,0.007330383
263,2.63,0.084931925,0.7226535,0.6850687,-0.012217305,-0.014049901,0.007330383
264,2.64,0.084931925,0.7226535,0.6850687,-0.012217305,-0.014049901,0.007330383
265,2.65,0.084931925,0.7226535,0.6850687,-0.012217305,-0.014049901,0.007330383
266,2.66,0.084931925,0.7226535,0.6850687,-0.012217305,-0.014049901,0.007330383
267,2.67,0.084931925,0.7226535,0.6850687,-0.012217305,-0.014049901,0.007330383
268,2.68,0.084931925,0.7226535,0.6850687,-0.012217305,-0.014049901,0.007330383
269,2.69,0.084931925,0.7226535,0.6850687,-0.012217305,-0.014049901,0.007330383
270,2.7,0.084931925,0.7226535,0.6850687,-0.012217305,-0.014049901,0.007330383
271,2.71,0.084931925,0.7226535,0.6850687,-0.012217305,-0.014049901,0.007330383
272,2.72,0.084931925,0.7226535,0.6850687,-0.012217305,-0.014049901,0.007330383
273,2.73,0.084931925,0.7226535,0.6850687,-0.012217305,-0.014049901,0.007330383
274,2.74,0.084931925,0.7226535,0.6850687,-0.012217305,-0.014049901,0.007330383
275,2.75,0.084931925,0.7226535,0.6850687,-0.012217305,-0.014049901,0.007330383
276,2.76,0.084931925,0.7226535,0.6850687,-0.012217305,-0.014049901,0.007330383
277,2.77,0.084931925,0.7226535,0.6850687,-0.012217305,-0.014049901,0.007330383
278,2.78,0.084931925,0.7226535,0.6850687,-0.012217305,-0.014049901,0.007330383
279,2.79,0.084931925,0.7226535,0.6850687,-0.012217305,-0.014049901,0.007330383
280,2.8,0.084931925,0.7226535,0.6850687,-0.012217305,-0.014049901,0.007330383
281,2.81,0.084931925,0.7226535,0.6850687,-0.012217305,-0.014049901,0.007330383
282,2.82,0.084931925,0.7226535,0.6850687,-0.012217305,-0.014049901,0.007330383
283,2.83,0.084931925,0.7226535,0.6850687,-0.012217305,-0.014049901,0.007330383
284,2.84,0.084931925,0.7226535,0.6850687,-0.012217305,-0.014049901,0.007330383
285,2.85,0.084931925,0.7226535,0.6850687,-0.012217305,-0.014049901,0.007330383
286,2.86,0.084931925,0.7226535,0.6850687,-0.012217305,-0.014049901,0.007330383
287,2.87,0.084931925,0.7226535,0.6850687,-0.012217305,-0.014049901,0.007330383
288,2.88,0.084931925,0.7226535,0.6850687,-0.012217305,-0.014049901,0.007330383
289,2.89,0.084931925,0.7226535,0.6850687,-0.012217305,-0.014049901,0.007330383
290,2.9,0.084931925,0.7226535,0.6850687,-0.012217305,-0.014049901,0.007330383
291,2.91,0.084931925,0.7226535,0.6850687,-0.012217305,-0.014049901,0.007330383
292,2.92,0.084931925,0.7226535,0.6850687,-0.012217305,-0.014049901,0.007330383
293,2.93,0.084931925,0.7226535,0.6850687,-0.012217305,-0.014049901,0.007330383
294,2.94,0.084931925,0.7226535,0.6850687,-0.012217305,-0.014049901,0.007330383
295,2.95,0.084931925,0.7226535,0.6850687,-0.012217305,-0.014049901,0.007330383
296,2.96,0.084931925,0.7226535,0.6850687,-0.012217305,-0.014049901,0.007330383
297,2.97,0.084931925,0.7226535,0.6850687,-0.012217305,-0.014049901,0.007330383
298,2.98,0.084931925,0.7226535,0.6850687,-0.012217305,-0.014049901,0.007330383
299,2.99,0.084931925,0.7226535,0.6850687,-0.012217305,-0.014049901,0.007330383
300,3.0,0.084931925,0.7226535,0.6850687,-0.012217305,-0.014049901,0.007330383
301,3.01,0.084931925,0.7226535,0.6850687,-0.012217305,-0.014049901,0.007330383
302,3.02,0.084931925,0.7226535,0.6850687,-0.012217305,-0.014049901,0.007330383
303,3.03,0.084931925,0.7226535,0.6850687,-0.012217305,-0.014049901,0.007330383
304,3.04,0.084931925,0.7226535,0.6850687,-0.012217305,-0.014049901,0.007330383
305,3.05,0.084931925,0.7226535,0.6850687,-0.012217305,-0.014049901,0.007330383
306,3.06,0.084931925,0.7226535,0.6850687,-0.012217305,-0.014049901,0.007330383
307,3.07,0.084931925,0.7226535,0.6850687,-0.012217305,-0.014049901,0.007330383
308,3.08,0.084931925,0.7226535,0.6850687,-0.012217305,-0.014049901,0.007330383
309,3.09,0.084931925,0.7226535,0.6850687,-0.012217305,-0.014049901,0.007330383
310,3.1,0.084931925,0.7226535,0.6850687,-0.012217305,-0.014049901,0.007330383
311,3.11,0.084931925,0.7226535,0.6850687,-0.012217305,-0.014049901,0.007330383
312,3.12,0.084931925,0.7226535,0.6850687,-0.012217305,-0.014049901,0.007330383
313,3.13,0.084931925,0.7226535,0.6850687,-0.012217305,-0.014049901,0.007330383
314,3.14,0.084931925,0.7226535,0.6850687,-0.012217305,-0.014049901,0.007330383
315,3.15,0.084931925,0.7226535,0.6850687,-0.012217305,-0.014049901,0.007330383
316,3.16,0.084931925,0.7226535,0.6850687,-0.012217305,-0.014049901,0.007330383
317,3.17,0.084931925,0.7226535,0.6850687,-0.012217305,-0.014049901,0.007330383
318,3.18,0.084931925,0.7226535,0.6850687,-0.03289247317826367,-0.013545627981245785,0.018424377030015725
319,3.19,0.08384250151689114,0.7186070726528152,0.6830455182106353,-0.03726278,-0.013439035,0.02076942
320,3.2,0.08322352,0.716308,0.681896,-0.03726278,-0.013439035,0.02076942
321,3.21,0.08322352,0.716308,0.681896,-0.03726278,-0.013439035,0.02076942
322,3.22,0.08389799395509259,0.7160082276564338,0.6803971536354261,-0.04148322669260761,-0.012594945630771966,0.021050782867188395
323,3.23,0.087616555,0.7143555,0.6721336,-0.064751714,-0.007941248,0.022602014
324,3.24,0.087616555,0.7143555,0.6721336,-0.064751714,-0.007941248,0.022602014
325,3.25,0.087616555,0.7143555,0.6721336,-0.064751714,-0.007941248,0.022602014
326,3.26,0.087616555,0.7143555,0.6721336,-0.064751714,-0.007941248,0.022602014
327,3.27,0.087616555,0.7143555,0.6721336,-0.064751714,-0.007941248,0.022602014
328,3.28,0.087616555,0.7143555,0.6721336,-0.064751714,-0.007941248,0.022602014
329,3.29,0.087616555,0.7143555,0.6721336,-0.064751714,-0.007941248,0.022602014
330,3.3,0.087616555,0.7143555,0.6721336,-0.064751714,-0.007941248,0.022602014
331,3.31,0.087616555,0.7143555,0.6721336,-0.064751714,-0.007941248,0.022602014
332,3.32,0.087616555,0.7143555,0.6721336,-0.064751714,-0.007941248,0.022602014
333,3.33,0.087616555,0.7143555,0.6721336,-0.064751714,-0.007941248,0.022602014
334,3.34,0.087616555,0.7143555,0.6721336,-0.064751714,-0.007941248,0.022602014
335,3.35,0.087616555,0.7143555,0.6721336,-0.064751714,-0.007941248,0.022602014
336,3.36,0.087616555,0.7143555,0.6721336,-0.064751714,-0.007941248,0.022602014
337,3.37,0.087616555,0.7143555,0.6721336,-0.064751714,-0.007941248,0.022602014
338,3.38,0.087616555,0.7143555,0.6721336,-0.064751714,-0.007941248,0.022602014
339,3.39,0.087616555,0.7143555,0.6721336,-0.064751714,-0.007941248,0.022602014
340,3.4,0.087616555,0.7143555,0.6721336,-0.064751714,-0.007941248,0.022602014
341,3.41,0.087616555,0.7143555,0.6721336,-0.064751714,-0.007941248,0.022602014
342,3.42,0.087616555,0.7143555,0.6721336,-0.064751714,-0.007941248,0.022602014
343,3.43,0.087616555,0.7143555,0.6721336,-0.05718436539584307,-0.012860026048282845,0.015413030317496702
344,3.44,0.08390893179190446,0.7156796647096744,0.677695062844257,-0.052534413,-0.015882496,0.010995574
345,3.45,0.07736614,0.7180164,0.6875093,-0.052534413,-0.015882496,0.010995574
346,3.46,0.07736614,0.7180164,0.6875093,-0.052534413,-0.015882496,0.010995574
347,3.47,0.07736614,0.7180164,0.6875093,-0.052534413,-0.015882496,0.010995574
348,3.48,0.07736614,0.7180164,0.6875093,-0.052534413,-0.015882496,0.010995574
349,3.49,0.07736614,0.7180164,0.6875093,-0.052534413,-0.015882496,0.010995574
350,3.5,0.0774242870393023,0.717551230038887,0.6883039634971873,-0.052534413,-0.015882496,0.010995574
351,3.51,0.0780040026550232,0.7129135684544419,0.696226616896062,-0.052534413,-0.015882496,0.010995574
352,3.52,0.07809832,0.71215904,0.6975156,-0.05050198932117551,-0.009785230619630129,0.01221502727570116
353,3.53,0.07796258760741064,0.7131091333795131,0.6821780120418994,-0.049480084,-0.0067195175,0.01282817
354,3.54,0.07785426,0.7138674,0.66993713,-0.049480084,-0.0067195175,0.01282817
355,3.55,0.07785426,0.7138674,0.66993713,-0.049480084,-0.0067195175,0.01282817
356,3.56,0.07785426,0.7138674,0.66993713,-0.049480084,-0.0067195175,0.01282817
357,3.57,0.07785426,0.7138674,0.66993713,-0.049480084,-0.0067195175,0.01282817
358,3.58,0.07785426,0.7138674,0.66993713,-0.049480084,-0.0067195175,0.01282817
359,3.59,0.07785426,0.7138674,0.66993713,-0.049480084,-0.0067195175,0.01282817
360,3.6,0.07785426,0.7138674,0.66993713,-0.049480084,-0.0067195175,0.01282817
361,3.61,0.07815194451888546,0.7141650897463121,0.6722548202207361,-0.049480084,-0.0067195175,0.01282817
362,3.62,0.08099192270191435,0.7170051178001824,0.6943661133660896,-0.049480084,-0.0067195175,0.01282817
363,3.63,0.08127106,0.71728426,0.6965394,-0.049480084,-0.0067195175,0.01282817
364,3.64,0.08127106,0.71728426,0.6965394,-0.049480084,-0.0067195175,0.01282817
365,3.65,0.08080598012467534,0.717749324630303,0.6907723874406928,-0.049480084,-0.0067195175,0.01282817
366,3.66,0.08005078,0.7185045,0.68140787,-0.049480084,-0.0067195175,0.01282817
367,3.67,0.08005078,0.7185045,0.68140787,-0.049480084,-0.0067195175,0.01282817
368,3.68,0.08005078,0.7185045,0.68140787,-0.049480084,-0.0067195175,0.01282817
369,3.69,0.08005078,0.7185045,0.68140787,-0.049480084,-0.0067195175,0.01282817
370,3.7,0.08005078,0.7185045,0.68140787,-0.049480084,-0.0067195175,0.01282817
371,3.71,0.08014856416447945,0.7183715137734992,0.6815212991692349,-0.03391399734752037,-0.013464821434543486,0.010831011741903922
372,3.72,0.08586204505455125,0.7106011936219685,0.6881489100329174,0.8756048301190041,-0.40758963022031763,-0.10586196817795766
373,3.73,0.08615221,0.71020657,0.6884855,0.92179567,-0.42760566,-0.11178834
374,3.74,0.08615221,0.71020657,0.6884855,0.92179567,-0.42760566,-0.11178834
375,3.75,0.08566227837877868,0.7109006377056433,0.6875464681566155,0.92179567,-0.42760566,-0.11178834
376,3.76,0.08099730185524846,0.7175093345366321,0.6786052989924048,0.92179567,-0.42760566,-0.11178834
377,3.77,0.08029483,0.7185045,0.6772589,0.92179567,-0.42760566,-0.11178834
378,3.78,0.08029483,0.7185045,0.6772589,0.92179567,-0.42760566,-0.11178834
379,3.79,0.07845491735747501,0.7168810724500887,0.6767177427012793,0.92179567,-0.42760566,-0.11178834
380,3.8,0.07614586,0.7148437,0.6760386,0.92179567,-0.42760566,-0.11178834
381,3.81,0.07614586,0.7148437,0.6760386,0.92179567,-0.42760566,-0.11178834
382,3.82,0.07675615300139046,0.7151570910913806,0.6764839491478865,0.8574326509978971,-0.39697233215981137,-0.10386165658180699
383,3.83,0.08372283593492996,0.7187345471049186,0.6815677470957217,0.12270892811164102,-0.047283442109404154,-0.013376119367257572
384,3.84,0.08517598,0.71948075,0.68262815,-0.043594890189695916,0.018005385188297997,-0.005753617221532592
385,3.85,0.08517598,0.71948075,0.68262815,-0.048258353,0.015271631,-0.009773844
386,3.86,0.08517598,0.71948075,0.68262815,-0.048258353,0.015271631,-0.009773844
387,3.87,0.08517598,0.71948075,0.68262815,-0.048258353,0.015271631,-0.009773844
388,3.88,0.08517598,0.71948075,0.68262815,-0.048258353,0.015271631,-0.009773844
389,3.89,0.08517598,0.71948075,0.68262815,-0.048258353,0.015271631,-0.009773844
390,3.9,0.08517598,0.71948075,0.68262815,-0.048258353,0.015271631,-0.009773844
391,3.91,0.08517598,0.71948075,0.68262815,-0.048258353,0.015271631,-0.009773844
392,3.92,0.022038299954067885,0.741974779518341,0.6519281592424246,-0.048258353,0.015271631,-0.009773844
393,3.93,-0.07443746,0.77634615,0.6050179,-0.048258353,0.015271631,-0.009773844
394,3.94,-0.07443746,0.77634615,0.6050179,-0.048258353,0.015271631,-0.009773844
395,3.95,-0.07443746,0.77634615,0.6050179,-0.048258353,0.015271631,-0.009773844
396,3.96,-0.07443746,0.77634615,0.6050179,-0.048258353,0.015271631,-0.009773844
397,3.97,-0.0562015814825417,0.7685426324264951,0.6129044312451802,-0.048258353,0.015271631,-0.009773844
398,3.98,0.08458345004636422,0.7082977439463228,0.6737902037043157,-0.048258353,0.015271631,-0.009773844
399,3.99,0.08639627,0.707522,0.6745742,-0.048258353,0.015271631,-0.009773844
400,4.0,-0.008396418755993907,0.7531053242631185,0.6162137095720747,-0.048258353,0.015271631,-0.009773844
401,4.01,0.026947051029969332,0.7399509483029197,0.6387526195762205,-0.048258353,0.015271631,-0.009773844
402,4.02,0.088836834,0.7133793,0.67750293,-0.048258353,0.015271631,-0.009773844
403,4.03,0.088836834,0.7133793,0.67750293,-0.0461006360238326,0.00972321572018925,-0.01008208917418011
404,4.04,0.088836834,0.7133793,0.67750293,-0.03970624,-0.0067195175,-0.010995574
405,4.05,0.088836834,0.7133793,0.67750293,-0.03970624,-0.0067195175,-0.010995574
406,4.06,0.088836834,0.7133793,0.67750293,-0.03970624,-0.0067195175,-0.010995574
407,4.07,0.088836834,0.7133793,0.67750293,-0.03970624,-0.0067195175,-0.010995574
408,4.08,0.08720057965049428,0.7145610617659526,0.67423040938206,-0.03970624,-0.0067195175,-0.010995574
409,4.09,0.08444381,0.7165521,0.66871685,-0.03970624,-0.0067195175,-0.010995574
410,4.1,0.08444381,0.7165521,0.66871685,-0.03970624,-0.0067195175,-0.010995574
411,4.11,0.08353912389549986,0.7160092690616862,0.6638315568976154,-0.03970624,-0.0067195175,-0.010995574
412,4.12,0.08322352,0.7158199,0.6621273,-0.03970624,-0.0067195175,-0.010995574
413,4.13,0.08322352,0.7158199,0.6621273,-0.03970624,-0.0067195175,-0.010995574
414,4.14,0.08122644390027468,0.7162378898396913,0.670719374689718,-0.03970624,-0.0067195175,-0.010995574
415,4.15,0.07272906,0.7180164,0.7072779,-0.038070008817219995,-0.006781262075318992,-0.010192894546122417
416,4.16,0.07272906,0.7180164,0.7072779,-0.012629428320278411,-0.0077412840179294585,0.0022873903149193374
417,4.17,0.07272906,0.7180164,0.7072779,-0.007330383,-0.007941248,0.004886922
418,4.18,0.07272906,0.7180164,0.7072779,-0.007330383,-0.007941248,0.004886922
419,4.19,0.07272906,0.7180164,0.7072779,-0.007330383,-0.007941248,0.004886922
420,4.2,0.07272906,0.7180164,0.7072779,-0.007330383,-0.007941248,0.004886922
421,4.21,0.07272906,0.7180164,0.7072779,-0.007330383,-0.007941248,0.004886922
422,4.22,0.07272906,0.7180164,0.7072779,-0.007330383,-0.007941248,0.004886922
423,4.23,0.07272906,0.7180164,0.7072779,-0.007330383,-0.007941248,0.004886922
424,4.24,0.07272906,0.7180164,0.7072779,-0.007330383,-0.007941248,0.004886922
425,4.25,0.07272906,0.7180164,0.7072779,-0.007330383,-0.007941248,0.004886922
426,4.26,0.07272906,0.7180164,0.7072779,-0.0015860745459885743,0.001153906934640249,0.011588614804531635
427,4.27,0.07272906,0.7180164,0.7072779,0.0,0.0036651916,0.013439035
428,4.28,0.07272906,0.7180164,0.7072779,0.0,0.0036651916,0.013439035
429,4.29,0.07272906,0.7180164,0.7072779,0.0,0.0036651916,0.013439035
430,4.3,0.07272906,0.7180164,0.7072779,0.0,0.0036651916,0.013439035
431,4.31,0.07272906,0.7180164,0.7072779,0.011340807993554566,0.009173584326806341,0.005338457816281052
432,4.32,0.07272906,0.7180164,0.7072779,0.021380283,0.014049901,-0.0018325958
433,4.33,0.07272906,0.7180164,0.7072779,0.021380283,0.014049901,-0.0018325958
434,4.34,0.07272906,0.7180164,0.7072779,0.021380283,0.014049901,-0.0018325958
435,4.35,0.07272906,0.7180164,0.7072779,-0.002842893080804607,-0.004216757310206696,-0.00024419072530769875
436,4.36,0.07272906,0.7180164,0.7072779,-0.015882496,-0.014049901,0.00061086525
437,4.37,0.07272906,0.7180164,0.7072779,-0.014165434210075016,-0.013363076218443078,0.000782571433677279
438,4.38,0.07272906,0.7180164,0.7072779,-0.0006037992284372787,-0.00793842170777168,0.002138734968842217
439,4.39,0.07272906,0.7180164,0.7072779,0.002443461,-0.0067195175,0.002443461
440,4.4,0.07272906,0.7180164,0.7072779,0.002443461,-0.0067195175,0.002443461
441,4.41,0.07272906,0.7180164,0.7072779,0.002443461,-0.0067195175,0.002443461
442,4.42,0.07272906,0.7180164,0.7072779,0.002443461,-0.0067195175,0.002443461
443,4.43,0.07272906,0.7180164,0.7072779,0.0023598927653254984,-0.006122601564562317,0.002395707723601522
444,4.44,0.07272906,0.7180164,0.7072779,-0.0018192204186777668,0.02372820556622915,7.643074951906025e-06
445,4.45,0.07272906,0.7180164,0.7072779,-0.0018325958,0.023823744,0.0
446,4.46,0.0780881541785211,0.7119658086559693,0.6910277484855664,0.0024943723287015863,0.00045811831501435627,0.0012980904102771053
447,4.47,0.08029483,0.7094744,0.68433654,0.004276057,-0.009162978,0.0018325958
448,4.48,0.08029483,0.7094744,0.68433654,0.004276057,-0.009162978,0.0018325958
449,4.49,0.08029483,0.7094744,0.68433654,0.004276057,-0.009162978,0.0018325958
450,4.5,0.0806579278147637,0.7096272824249741,0.6841263250017248,0.004276057,-0.009162978,0.0018325958
451,4.51,0.08485105175984814,0.7113927983021732,0.6816987214551224,0.004276057,-0.009162978,0.0018325958
452,4.52,0.084931925,0.71142685,0.6816519,0.004276057,-0.009162978,0.0018325958
453,4.53,0.084931925,0.71142685,0.6816519,0.004276057,-0.009162978,0.0018325958
454,4.54,0.08228833110903308,0.7103137641364543,0.6831824051769363,0.004276057,-0.009162978,0.0018325958
455,4.55,0.08029483,0.7094744,0.68433654,-0.0023154586828452186,-0.0002325380374522475,0.003958891049068281
456,4.56,0.08029483,0.7094744,0.68433654,-0.014660766,0.016493361,0.007941248
457,4.57,0.08029483,0.7094744,0.68433654,-0.014660766,0.016493361,0.007941248
458,4.58,0.08029483,0.7094744,0.68433654,-0.014660766,0.016493361,0.007941248
459,4.59,0.08029483,0.7094744,0.68433654,-0.014660766,0.016493361,0.007941248
460,4.6,0.08029483,0.7094744,0.68433654,-0.014660766,0.016493361,0.007941248
461,4.61,0.08029483,0.7094744,0.68433654,-0.014660766,0.016493361,0.007941248
462,4.62,0.08029483,0.7094744,0.68433654,-0.014660766,0.016493361,0.007941248
463,4.63,0.08029483,0.7094744,0.68433654,-0.014660766,0.016493361,0.007941248
464,4.64,0.08029483,0.7094744,0.68433654,-0.014660766,0.016493361,0.007941248
465,4.65,0.08029483,0.7094744,0.68433654,-0.014660766,0.016493361,0.007941248
466,4.66,0.0807511711294143,0.7085617457883199,0.6854773858117487,-0.014660766,0.016493361,0.007941248
467,4.67,0.08127106,0.707522,0.6867771,-0.014660766,0.016493361,0.007941248
468,4.68,0.08127106,0.707522,0.6867771,-0.014660766,0.016493361,0.007941248
469,4.69,0.08127106,0.707522,0.6867771,-0.014660766,0.016493361,0.007941248
470,4.7,0.08127106,0.707522,0.6867771,-0.014660766,0.016493361,0.007941248
471,4.71,0.08127106,0.707522,0.6867771,-0.014660766,0.016493361,0.007941248
472,4.72,0.08127106,0.707522,0.6867771,-0.014660766,0.016493361,0.007941248
473,4.73,0.08127106,0.707522,0.6867771,-0.014660766,0.016493361,0.007941248
474,4.74,0.08127106,0.707522,0.6867771,-0.014660766,0.016493361,0.007941248
475,4.75,0.08127106,0.707522,0.6867771,-0.014660766,0.016493361,0.007941248
476,4.76,0.08127106,0.707522,0.6867771,-0.014660766,0.016493361,0.007941248
477,4.77,0.08127106,0.707522,0.6867771,-0.014660766,0.016493361,0.007941248
478,4.78,0.08127106,0.707522,0.6867771,-0.014660766,0.016493361,0.007941248
479,4.79,0.08127106,0.707522,0.6867771,-0.014660766,0.016493361,0.007941248
480,4.8,0.08127106,0.707522,0.6867771,-0.014660766,0.016493361,0.007941248
481,4.81,0.08127106,0.707522,0.6867771,-0.014660766,0.016493361,0.007941248
482,4.82,0.0803467242844555,0.7084463104663342,0.6878554937722361,-0.014660766,0.016493361,0.007941248
483,4.83,0.07980672,0.7089863,0.6884855,-0.014660766,0.016493361,0.007941248
484,4.84,0.07980672,0.7089863,0.6884855,-0.014660766,0.016493361,0.007941248
485,4.85,0.07980672,0.7089863,0.6884855,-0.014660766,0.016493361,0.007941248
486,4.86,0.07980672,0.7089863,0.6884855,-0.014660766,0.016493361,0.007941248
487,4.87,0.07980672,0.7089863,0.6884855,-0.014660766,0.016493361,0.007941248
488,4.88,0.07980672,0.7089863,0.6884855,-0.014660766,0.016493361,0.007941248
489,4.89,0.07980672,0.7089863,0.6884855,-0.014660766,0.016493361,0.007941248
490,4.9,0.07980672,0.7089863,0.6884855,-0.014660766,0.016493361,0.007941248
491,4.91,0.07980672,0.7089863,0.6884855,-0.014660766,0.016493361,0.007941248
492,4.92,0.07980672,0.7089863,0.6884855,-0.014660766,0.016493361,0.007941248
493,4.93,0.07980672,0.7089863,0.6884855,-0.014660766,0.016493361,0.007941248
494,4.94,0.07980672,0.7089863,0.6884855,-0.014660766,0.016493361,0.007941248
495,4.95,0.026526489592449482,0.7319091789050823,0.6613143448225519,-0.014660766,0.016493361,0.007941248
496,4.96,-0.06711575,0.7721971,0.6135599,-0.014660766,0.016493361,0.007941248
497,4.97,-0.046692172729335214,0.7636461723782936,0.6219792867890662,-0.014660766,0.016493361,0.007941248
498,4.98,0.08444381,0.70874226,0.6760386,-0.014660766,0.016493361,0.007941248
499,4.99,0.08444381,0.70874226,0.6760386,-0.014660766,0.016493361,0.007941248
500,5.0,0.08599491894242851,0.7107586755675285,0.6858105920572669,-0.014660766,0.016493361,0.007941248
501,5.01,0.08688438,0.71191496,0.6914142,-0.014660766,0.016493361,0.007941248
502,5.02,0.08688438,0.71191496,0.6914142,-0.014660766,0.016493361,0.007941248
503,5.03,0.08688438,0.71191496,0.6914142,-0.014660766,0.016493361,0.007941248
504,5.04,0.08688438,0.71191496,0.6914142,-0.014660766,0.016493361,0.007941248
505,5.05,0.08688438,0.71191496,0.6914142,-0.014660766,0.016493361,0.007941248
506,5.06,0.08688438,0.71191496,0.6914142,-0.014660766,0.016493361,0.007941248
507,5.07,0.08688438,0.71191496,0.6914142,-0.014660766,0.016493361,0.007941248
508,5.08,0.08688438,0.71191496,0.6914142,-0.014660766,0.016493361,0.007941248
509,5.09,0.08688438,0.71191496,0.6914142,-0.014660766,0.016493361,0.007941248
510,5.1,0.08688438,0.71191496,0.6914142,-0.014660766,0.016493361,0.007941248
511,5.11,0.08688438,0.71191496,0.6914142,-0.014660766,0.016493361,0.007941248
512,5.12,0.08688438,0.71191496,0.6914142,-0.014660766,0.016493361,0.007941248
513,5.13,0.08688438,0.71191496,0.6914142,-0.009785048468524063,0.017430999217062433,0.006441027282481696
514,5.14,0.0870960782451072,0.7118091119617106,0.6905674113566279,0.0012217305,0.019547688,0.0030543262
515,5.15,0.0878550834527963,0.7114296132452963,0.6875314060755926,0.0012217305,0.019547688,0.0030543262
516,5.16,0.08786061,0.71142685,0.6875093,0.0012217305,0.019547688,0.0030543262
517,5.17,0.08786061,0.71142685,0.6875093,0.0012217305,0.019547688,0.0030543262
518,5.18,0.08786061,0.71142685,0.6875093,0.0012217305,0.019547688,0.0030543262
519,5.19,0.08786061,0.71142685,0.6875093,0.0012217305,0.019547688,0.0030543262
520,5.2,0.08786061,0.71142685,0.6875093,0.0012217305,0.019547688,0.0030543262
521,5.21,0.08786061,0.71142685,0.6875093,0.0012217305,0.019547688,0.0030543262
522,5.22,0.08786061,0.71142685,0.6875093,0.0012217305,0.019547688,0.0030543262
523,5.23,0.08786061,0.71142685,0.6875093,0.0012217305,0.019547688,0.0030543262
524,5.24,0.08786061,0.71142685,0.6875093,0.0012217305,0.019547688,0.0030543262
525,5.25,0.08786061,0.71142685,0.6875093,0.0012217305,0.019547688,0.0030543262
526,5.26,0.08786061,0.71142685,0.6875093,0.0012217305,0.019547688,0.0030543262
527,5.27,0.08786061,0.71142685,0.6875093,0.0012217305,0.019547688,0.0030543262
528,5.28,0.08786061,0.71142685,0.6875093,0.0012217305,0.019547688,0.0030543262
529,5.29,0.08786061,0.71142685,0.6875093,0.0012217305,0.019547688,0.0030543262
530,5.3,0.08786061,0.71142685,0.6875093,0.0012217305,0.019547688,0.0030543262
531,5.31,0.08786061,0.71142685,0.6875093,0.0012217305,0.019547688,0.0030543262
532,5.32,0.08786061,0.71142685,0.6875093,0.0012217305,0.019547688,0.0030543262
533,5.33,0.08786061,0.71142685,0.6875093,0.0012217305,0.019547688,0.0030543262
534,5.34,0.08786061,0.71142685,0.6875093,0.0012217305,0.019547688,0.0030543262
535,5.35,0.08786061,0.71142685,0.6875093,0.0012217305,0.019547688,0.0030543262
536,5.36,0.08786061,0.71142685,0.6875093,0.0012217305,0.019547688,0.0030543262
537,5.37,0.08786061,0.71142685,0.6875093,0.0012217305,0.019547688,0.0030543262
538,5.38,0.08786061,0.71142685,0.6875093,0.0012217305,0.019547688,0.0030543262
539,5.39,0.08786061,0.71142685,0.6875093,0.0012217305,0.019547688,0.0030543262
540,5.4,0.08786061,0.71142685,0.6875093,0.0012217305,0.019547688,0.0030543262
541,5.41,0.08786061,0.71142685,0.6875093,-0.014045795978345757,0.026704340725528932,0.01021097923794495
542,5.42,0.08786061,0.71142685,0.6875093,-0.031054303274720058,0.037873644,0.019417139511692064
543,5.43,0.08786061,0.71142685,0.6875093,-0.0016753712623646673,0.037873644,0.010959568406659842
544,5.44,0.08786061,0.71142685,0.6875093,0.002443461,0.037873644,0.009773844
545,5.45,0.08786061,0.71142685,0.6875093,0.002443461,0.037873644,0.009773844
546,5.46,0.08369147066583127,0.7119902491414387,0.6922418361671433,0.002443461,0.037873644,0.009773844
547,5.47,0.07967429190225808,0.7110439374679441,0.6992785181743624,0.002443461,0.037873644,0.009773844
548,5.48,0.08127106,0.7080101,0.70215267,0.002443461,0.037873644,0.009773844
549,5.49,0.08127106,0.7080101,0.70215267,0.000830182130746633,0.032791815759924896,0.009047868541848152
550,5.5,0.08127106,0.7080101,0.70215267,-0.008732593823927893,0.0026690726767859135,0.0047446195579255775
551,5.51,0.08127106,0.7080101,0.70215267,-0.009773844,-0.00061086525,0.004276057
552,5.52,0.08127106,0.7080101,0.70215267,-0.009773844,-0.00061086525,0.004276057
553,5.53,0.08127106,0.7080101,0.70215267,-0.009773844,-0.00061086525,0.004276057
554,5.54,0.08127106,0.7080101,0.70215267,-0.009773844,-0.00061086525,0.004276057
555,5.55,0.08127106,0.7080101,0.70215267,-0.009773844,-0.00061086525,0.004276057
556,5.56,0.08127106,0.7080101,0.70215267,-0.009773844,-0.00061086525,0.004276057
557,5.57,0.08127106,0.7080101,0.70215267,-0.009773844,-0.00061086525,0.004276057
558,5.58,0.08127106,0.7080101,0.70215267,-0.009773844,-0.00061086525,0.004276057
559,5.59,0.08127106,0.7080101,0.70215267,-0.009773844,-0.00061086525,0.004276057
560,5.6,0.08127106,0.7080101,0.70215267,-0.009773844,-0.00061086525,0.004276057
561,5.61,0.08108351292986714,0.7083664368589195,0.7018150888855116,-0.011886252154615848,-0.004037660847255127,0.003806632938317986
562,5.62,0.07915239469455175,0.712035534998853,0.6983391132511017,-0.033637111311826375,-0.03932238943229512,-0.0010268916001763264
563,5.63,0.08359897165666898,0.7101039750274364,0.6907659051464392,-0.03726278,-0.04520403,-0.0018325958
564,5.64,0.08615221,0.70874226,0.68702114,-0.03726278,-0.04520403,-0.0018325958
565,5.65,0.08615221,0.70874226,0.68702114,-0.022664622352448042,-0.03512434929280623,-0.003918046664912102
566,5.66,0.08615221,0.70874226,0.68702114,0.014049901,-0.009773844,-0.009162978
567,5.67,0.08615221,0.70874226,0.68702114,0.014049901,-0.009773844,-0.009162978
568,5.68,0.08615221,0.70874226,0.68702114,0.014049901,-0.009773844,-0.009162978
569,5.69,0.08615221,0.70874226,0.68702114,-3.856415976932441e-05,-0.013295960289942331,-0.0018252361857446088
570,5.7,0.08615221,0.70874226,0.68702114,-0.015271631,-0.017104227,0.0061086523
571,5.71,0.08615221,0.70874226,0.68702114,-0.015271631,-0.017104227,0.0061086523
572,5.72,0.08615221,0.70874226,0.68702114,-0.015271631,-0.017104227,0.0061086523
573,5.73,0.08553255785096053,0.7093618994542411,0.6961610203062807,-0.015271631,-0.017104227,0.0061086523
574,5.74,0.08517598,0.70971847,0.70142055,-0.031397835605970224,-0.0004966433520080499,-0.01483134481446306
575,5.75,0.08517598,0.70971847,0.70142055,-0.056199603,0.025045475,-0.047036625
576,5.76,0.08517598,0.70971847,0.70142055,-0.056199603,0.025045475,-0.047036625
577,5.77,0.08517598,0.70971847,0.70142055,-0.056199603,0.025045475,-0.047036625
578,5.78,0.08517598,0.70971847,0.70142055,-0.056199603,0.025045475,-0.047036625
579,5.79,0.08517598,0.70971847,0.70142055,-0.023088521462249087,0.02629968253134743,-0.023206679851233095
580,5.8,0.0848223447446495,0.7093648427945479,0.698945106432506,0.02443461,0.028099801,0.010995574
581,5.81,0.0829864528666694,0.7075289927074888,0.6860938800030135,0.02443461,0.028099801,0.010995574
582,5.82,0.08297946,0.707522,0.68604493,0.02443461,0.028099801,0.010995574
583,5.83,0.0820343676482624,0.7043716684960248,0.6827371261310683,0.02443461,0.028099801,0.010995574
584,5.84,0.08151512,0.70264083,0.68091977,0.02443461,0.028099801,0.010995574
585,5.85,0.08151512,0.70264083,0.68091977,0.02443461,0.028099801,0.010995574
586,5.86,0.08151512,0.70264083,0.68091977,0.02443461,0.028099801,0.010995574
587,5.87,0.08151512,0.70264083,0.68091977,0.02443461,0.028099801,0.010995574
588,5.88,0.08151512,0.70264083,0.68091977,0.02443461,0.028099801,0.010995574
589,5.89,0.08151512,0.70264083,0.68091977,0.02443461,0.028099801,0.010995574
590,5.9,0.08134030711699848,0.7032701457779209,0.6838216460941808,0.02443461,0.028099801,0.010995574
591,5.91,0.08029483,0.7070338,0.70117646,0.02443461,0.028099801,0.010995574
592,5.92,0.08029483,0.7070338,0.70117646,0.02443461,0.028099801,0.010995574
593,5.93,0.08029483,0.7070338,0.70117646,0.02443461,0.028099801,0.010995574
594,5.94,0.08029483,0.7070338,0.70117646,0.02443461,0.028099801,0.010995574
595,5.95,0.08216081435503539,0.707328440015949,0.6970516768343584,0.02443461,0.028099801,0.010995574
596,5.96,0.084931925,0.707766,0.6909261,0.01351223499776275,0.01490193139188177,0.009326878005354422
597,5.97,0.084931925,0.707766,0.6909261,-0.019547688,-0.025045475,0.004276057
598,5.98,0.084931925,0.707766,0.6909261,-0.019547688,-0.025045475,0.004276057
599,5.99,0.084931925,0.707766,0.6909261,-0.019547688,-0.025045475,0.004276057
600,6.0,0.084931925,0.707766,0.6909261,-0.019547688,-0.025045475,0.004276057
601,6.01,0.084931925,0.707766,0.6909261,-0.019547688,-0.025045475,0.004276057
602,6.02,0.084931925,0.707766,0.6909261,-0.019547688,-0.025045475,0.004276057
603,6.03,0.084931925,0.707766,0.6909261,-0.019547688,-0.025045475,0.004276057
604,6.04,0.084931925,0.707766,0.6909261,-0.019547688,-0.025045475,0.004276057
605,6.05,0.084931925,0.707766,0.6909261,-0.019547688,-0.025045475,0.004276057
606,6.06,0.084931925,0.707766,0.6909261,-0.019547688,-0.025045475,0.004276057
607,6.07,0.084931925,0.707766,0.6909261,-0.010374605399529542,-0.013451717980827688,0.0027472098582089783
608,6.08,0.084931925,0.707766,0.6909261,0.02443461,0.030543262,-0.0030543262
609,6.09,0.084931925,0.707766,0.6909261,0.02443461,0.030543262,-0.0030543262
610,6.1,0.084931925,0.707766,0.6909261,0.02443461,0.030543262,-0.0030543262
611,6.11,0.084931925,0.707766,0.6909261,0.02443461,0.030543262,-0.0030543262
612,6.12,0.084931925,0.707766,0.6909261,0.02443461,0.030543262,-0.0030543262
613,6.13,0.084931925,0.707766,0.6909261,0.02443461,0.030543262,-0.0030543262
614,6.14,0.084931925,0.707766,0.6909261,0.022475601362506203,0.029292830999795794,-0.0016371709800070443
615,6.15,0.084931925,0.707766,0.6909261,-9.421691896247397e-05,0.014886564530124123,0.01468993201469686
616,6.16,0.084931925,0.707766,0.6909261,-0.004276057,0.012217305,0.017715093
617,6.17,0.084931925,0.707766,0.6909261,-0.004276057,0.012217305,0.017715093
618,6.18,0.084931925,0.707766,0.6909261,-0.006787589028194043,0.007947700099812374,0.014073371106860886
619,6.19,0.084931925,0.707766,0.6909261,-0.016493361,-0.008552114,0.0
620,6.2,0.084931925,0.707766,0.6909261,-0.016493361,-0.008552114,0.0
621,6.21,0.084931925,0.707766,0.6909261,-0.016493361,-0.008552114,0.0
622,6.22,0.084931925,0.707766,0.6909261,-0.016493361,-0.008552114,0.0
623,6.23,0.084931925,0.707766,0.6909261,-0.013209547704862414,-0.0029696308069417595,0.004761529869273844
624,6.24,0.084931925,0.707766,0.6909261,-0.004276057,0.012217305,0.017715093
625,6.25,0.084931925,0.707766,0.6909261,-0.004276057,0.012217305,0.017715093
626,6.26,0.08358903900616368,0.7089596806506223,0.689433991544603,0.05547824756671369,0.22210431047426424,0.14805417007304994
627,6.27,0.082735404,0.70971847,0.6884855,0.05093627859524588,0.20482170252562834,0.13336281292829016
628,6.28,0.082735404,0.70971847,0.6884855,-0.004276057,0.009162978,0.0067195175
629,6.29,0.082735404,0.70971847,0.6884855,-0.004003272960610824,0.008844730031572613,0.006810445506927594
630,6.3,0.082735404,0.70971847,0.6884855,-0.0015849671169147342,0.006023373901222344,0.007616547399842676
631,6.31,0.082735404,0.70971847,0.6884855,-0.0051159204060262035,0.005530501259088749,0.010193775907248643
632,6.32,0.082735404,0.70971847,0.6884855,-0.009162978,0.0061086523,0.012217305
633,6.33,0.08397373137223703,0.70932741286983,0.689723820428988,-0.009162978,0.0061086523,0.012217305
634,6.34,0.0873725,0.7082541,0.69312257,-0.009162978,0.0061086523,0.012217305
635,6.35,0.0873725,0.7082541,0.69312257,-0.009162978,0.0061086523,0.012217305
636,6.36,0.0873725,0.7082541,0.69312257,-0.009162978,0.0061086523,0.012217305
637,6.37,0.0873725,0.7082541,0.69312257,-0.009162978,0.0061086523,0.012217305
638,6.38,0.08506366654729373,0.7072819902069175,0.6948238268655491,-0.009162978,0.0061086523,0.012217305
639,6.39,0.082735404,0.7063017,0.6965394,-0.009162978,0.0061086523,0.012217305
640,6.4,0.082735404,0.7063017,0.6965394,-0.009162978,0.0061086523,0.012217305
641,6.41,0.082735404,0.7063017,0.6965394,-0.009162978,0.0061086523,0.012217305
642,6.42,0.082735404,0.7063017,0.6965394,-0.009162978,0.0061086523,0.012217305
643,6.43,0.082735404,0.7063017,0.6965394,-0.009162978,0.0061086523,0.012217305
644,6.44,0.082735404,0.7063017,0.6965394,-0.009162978,0.0061086523,0.012217305
645,6.45,0.082735404,0.7063017,0.6965394,-0.009130101715966189,0.0060906233692451265,0.012196094493331684
646,6.46,0.082735404,0.7063017,0.6965394,0.008149739089404485,-0.0033854187836595334,0.001047809661237938
647,6.47,0.082735404,0.7063017,0.6965394,0.009773844,-0.004276057,0.0
648,6.48,0.08185379986213424,0.7084427350819531,0.688101174074626,0.009773844,-0.004276057,0.0
649,6.49,0.08102701,0.71045065,0.6801876,0.009773844,-0.004276057,0.0
650,6.5,0.08102701,0.71045065,0.6801876,0.009773844,-0.004276057,0.0
651,6.51,0.08102701,0.71045065,0.6801876,-0.00602908805532884,-0.0007642940282733571,0.004682350309589208
652,6.52,0.08102701,0.71045065,0.6801876,-0.0067195175,-0.00061086525,0.004886922
653,6.53,0.08603707550885589,0.7096156361166659,0.6828595978959723,-0.0067195175,-0.00061086525,0.004886922
654,6.54,0.088348724,0.70923036,0.68409246,-0.0067195175,-0.00061086525,0.004886922
655,6.55,0.088348724,0.70923036,0.68409246,-0.0067195175,-0.00061086525,0.004886922
656,6.56,0.088348724,0.70923036,0.68409246,-0.0067195175,-0.00061086525,0.004886922
657,6.57,0.088348724,0.70923036,0.68409246,-0.0067195175,-0.00061086525,0.004886922
658,6.58,0.07799174598280806,0.7076959916056744,0.6796811999828256,-0.0067195175,-0.00061086525,0.004886922
659,6.59,0.07516963,0.7072779,0.6784792,-0.0067195175,-0.00061086525,0.004886922
660,6.6,0.07834256423467391,0.7082180290187997,0.6901132665132709,-0.0067195175,-0.00061086525,0.004886922
661,6.61,0.08386765472816603,0.70923036,0.6986246858975206,-0.0067195175,-0.00061086525,0.004886922
662,6.62,0.08688438,0.70923036,0.69287854,-0.013938965105463602,-0.050321915797659746,0.053154083009683606
663,6.63,0.08688438,0.70923036,0.69287854,-0.028099801,-0.14782938,0.14782938
664,6.64,0.08688438,0.70923036,0.69287854,-0.02569672847548893,-0.1349757369557045,0.13519927859057224
665,6.65,0.08688438,0.70923036,0.69287854,-0.0035958972138664144,-0.016761994706330798,0.01904142766439708
666,6.66,0.08688438,0.70923036,0.69287854,-0.0018325958,-0.007330383,0.009773844
667,6.67,0.08688438,0.70923036,0.69287854,-0.0018325958,-0.007330383,0.009773844
668,6.68,0.08688438,0.70923036,0.69287854,-0.0018325958,-0.007330383,0.009773844
669,6.69,0.08688438,0.70923036,0.69287854,-0.0018325958,-0.007330383,0.009773844
670,6.7,0.08461263968543249,0.7053968113088482,0.6864892979990498,-0.0018325958,-0.007330383,0.009773844
671,6.71,0.08297946,0.70264083,0.681896,-0.0018325958,-0.007330383,0.009773844
672,6.72,0.08297946,0.70264083,0.681896,-0.0018325958,-0.007330383,0.009773844
673,6.73,0.08297946,0.70264083,0.681896,-0.0018325958,-0.007330383,0.009773844
674,6.74,0.08297946,0.70264083,0.681896,-0.0018325958,-0.007330383,0.009773844
675,6.75,0.08297946,0.70264083,0.681896,-0.0018325958,-0.007330383,0.009773844
676,6.76,0.08297946,0.70264083,0.681896,-0.0018325958,-0.007330383,0.009773844
677,6.77,0.08371659014358535,0.7030708186195926,0.6820188513743817,-0.0018325958,-0.007330383,0.009773844
678,6.78,0.08877915344677065,0.7060239533208128,0.6828625868600396,-0.0018325958,-0.007330383,0.009773844
679,6.79,0.088836834,0.7060576,0.6828722,-0.0018325958,-0.007330383,0.009773844
680,6.8,0.088836834,0.7060576,0.6828722,-0.0018325958,-0.007330383,0.009773844
681,6.81,0.08905630796721971,0.7051797059296606,0.682652733226938,-0.0018325958,-0.007330383,0.009773844
682,6.82,0.08916737204011203,0.7047354505482363,0.6825416727946253,-0.0018325958,-0.007330383,0.009773844
683,6.83,0.088836834,0.7060576,0.6828722,-0.0018325958,-0.007330383,0.009773844
684,6.84,0.088836834,0.7060576,0.6828722,-0.0018325958,-0.007330383,0.009773844
685,6.85,0.088836834,0.7060576,0.6828722,-0.0018325958,-0.007330383,0.009773844
686,6.86,0.088836834,0.7060576,0.6828722,-0.0018325958,-0.007330383,0.009773844
687,6.87,0.088836834,0.7060576,0.6828722,-0.0018325958,-0.007330383,0.009773844
688,6.88,0.088836834,0.7060576,0.6828722,-0.0018325958,-0.007330383,0.009773844
689,6.89,0.088836834,0.7060576,0.6828722,-0.0010067461043404165,-0.0052657588622461084,0.009402211678187182
690,6.9,0.088836834,0.7060576,0.6828722,0.00899991182418126,0.01975088473047405,0.004899216109976602
691,6.91,0.088836834,0.7060576,0.6828722,0.01038471,0.02321288,0.004276057
692,6.92,0.088836834,0.7060576,0.6828722,0.01038471,0.02040888355711765,0.0030298362000452097
693,6.93,0.08629872803014174,0.7071773564121757,0.6849624046284747,0.01038471,0.017715093,0.0018325958
694,6.94,0.08053889,0.70971847,0.6897058,0.01038471,0.017715093,0.0018325958
695,6.95,0.08053889,0.70971847,0.6897058,0.01038471,0.017715093,0.0018325958
696,6.96,0.08053889,0.70971847,0.6897058,0.01038471,0.017715093,0.0018325958
697,6.97,0.08053889,0.70971847,0.6897058,0.01038471,0.017715093,0.0018325958
698,6.98,0.08053889,0.70971847,0.6897058,0.01038471,0.017715093,0.0018325958
699,6.99,0.08053889,0.70971847,0.6897058,0.01038471,0.017715093,0.0018325958
700,7.0,0.08053889,0.70971847,0.6897058,0.007610380651649602,0.01925638725062571,0.00368214829519909
701,7.01,0.08053889,0.70971847,0.6897058,0.004886922,0.02076942,0.005497787
702,7.02,0.08053889,0.70971847,0.6897058,0.004886922,0.02076942,0.005497787
703,7.03,0.08053889,0.70971847,0.6897058,0.004886922,0.02076942,0.005497787
704,7.04,0.08053889,0.70971847,0.6897058,0.004886922,0.02076942,0.005497787
705,7.05,0.08053889,0.70971847,0.6897058,-0.013629132199911048,-0.006292506803950158,0.005141709169134226
706,7.06,0.08053889,0.70971847,0.6897058,-0.020501476070705866,-0.017239235428768637,0.007692623662925481
707,7.07,0.08053889,0.70971847,0.6897058,-0.00303052153973147,0.10322741815549423,0.06756794113139182
708,7.08,0.08053889,0.70971847,0.6897058,0.02443461,0.45142943,0.24678956
709,7.09,0.08053889,0.70971847,0.6897058,0.02443461,0.45142943,0.24678956
710,7.1,0.08053889,0.70971847,0.6897058,0.02443461,0.45142943,0.24678956
711,7.11,0.08053889,0.70971847,0.6897058,0.02443461,0.45142943,0.24678956
712,7.12,0.08053889,0.70971847,0.6897058,0.02443461,0.45142943,0.24678956
713,7.13,0.08053889,0.70971847,0.6897058,0.010388278674027022,0.30871869817272624,0.17393592040663705
714,7.14,0.08053889,0.70971847,0.6897058,-0.021380283,-0.014049901,0.009162978
715,7.15,0.08053889,0.70971847,0.6897058,-0.021380283,-0.014049901,0.009162978
716,7.16,0.08053889,0.70971847,0.6897058,-0.021380283,-0.014049901,0.009162978
717,7.17,0.08053889,0.70971847,0.6897058,0.00597591003181964,0.00588766401767113,0.003599007027340055
718,7.18,0.018884325432104426,0.7078544796197019,0.6864079839713114,0.014660766,0.012217305,0.0018325958
719,7.19,-0.024405725,0.7065457,0.68409246,0.012894818379034594,0.003892122001354745,0.0015803175035358475
720,7.2,-0.024405725,0.7065457,0.68409246,0.01038471,-0.007941248,0.0012217305
721,7.21,-0.008211551807733275,0.706470902342831,0.6846534562205907,0.01038471,-0.007941248,0.0012217305
722,7.22,0.08127106,0.7060576,0.6877533,0.009636144814335846,-0.008006340594262829,0.0012868231209023457
723,7.23,0.08127106,0.7060576,0.6877533,-0.0008896220703300311,-0.008921624241231775,0.0022021071424563675
724,7.24,0.08127106,0.7060576,0.6877533,0.011660302616288813,0.009013770620417668,0.00030501993435269267
725,7.25,0.08224738481935787,0.706708509882253,0.6842819287910271,0.022602014,0.021991149,-0.0012217305
726,7.26,0.08346757,0.707522,0.6799435,0.022602014,0.021991149,-0.0012217305
727,7.27,0.08346757,0.707522,0.6799435,0.022602014,0.021991149,-0.0012217305
728,7.28,0.08346757,0.707522,0.6799435,0.022602014,0.021991149,-0.0012217305
729,7.29,0.08346757,0.707522,0.6799435,0.022602014,0.021991149,-0.0012217305
730,7.3,0.08346757,0.707522,0.6799435,0.022602014,0.021991149,-0.0012217305
731,7.31,0.08346757,0.707522,0.6799435,0.022602014,0.021991149,-0.0012217305
732,7.32,0.08346757,0.707522,0.6799435,0.022602014,0.021991149,-0.0012217305
733,7.33,0.08346757,0.707522,0.6799435,0.022602014,0.021991149,-0.0012217305
734,7.34,0.08346757,0.707522,0.6799435,0.022602014,0.021991149,-0.0012217305
735,7.35,0.08346757,0.707522,0.6799435,0.006733913305896907,0.009698958584274053,0.0014602018612108693
736,7.36,0.08346757,0.707522,0.6799435,-0.02076942,-0.01160644,0.0061086523
737,7.37,0.08346757,0.707522,0.6799435,-0.02076942,-0.01160644,0.0061086523
738,7.38,0.08346757,0.707522,0.6799435,-0.02076942,-0.01160644,0.0061086523
739,7.39,0.08346757,0.707522,0.6799435,-0.02076942,-0.01160644,0.0061086523
740,7.4,0.08346757,0.707522,0.6799435,-0.02076942,-0.01160644,0.0061086523
741,7.41,0.08346757,0.707522,0.6799435,-0.02076942,-0.01160644,0.0061086523
742,7.42,0.08346757,0.707522,0.6799435,-0.02076942,-0.01160644,0.0061086523
743,7.43,0.08349747931639862,0.7075604538349635,0.6803195010089842,-0.02076942,-0.01160644,0.0061086523
744,7.44,0.08498433236489952,0.7094720723079535,0.6990112771431128,-0.02076942,-0.01160644,0.0061086523
745,7.45,0.08517598,0.70971847,0.70142055,-0.02076942,-0.01160644,0.0061086523
746,7.46,0.08517598,0.70971847,0.70142055,-0.02076942,-0.01160644,0.0061086523
747,7.47,0.08517598,0.70971847,0.70142055,-0.02076942,-0.01160644,0.0061086523
748,7.48,0.08517598,0.70971847,0.70142055,-0.02076942,-0.01160644,0.0061086523
749,7.49,0.08517598,0.70971847,0.70142055,-0.009983158270119965,-0.005040889732288843,0.003998296933578212
750,7.5,0.08517598,0.70971847,0.70142055,0.007330383,0.005497787,0.00061086525
751,7.51,0.08517598,0.70971847,0.70142055,0.007330383,0.005497787,0.00061086525
752,7.52,0.08517598,0.70971847,0.70142055,0.007330383,0.005497787,0.00061086525
753,7.53,0.08517598,0.70971847,0.70142055,0.007330383,0.005497787,0.00061086525
754,7.54,0.08517598,0.70971847,0.70142055,0.007330383,0.005497787,0.00061086525
755,7.55,0.08517598,0.70971847,0.70142055,0.007330383,0.005497787,0.00061086525
756,7.56,0.08517598,0.70971847,0.70142055,0.007330383,0.005497787,0.00061086525
757,7.57,0.08517598,0.70971847,0.70142055,0.007330383,0.005497787,0.00061086525
758,7.58,0.08517598,0.70971847,0.70142055,0.007330383,0.005497787,0.00061086525
759,7.59,0.07594501783964647,0.7121648902345451,0.6971819886538996,0.008149194232328441,0.00510618162168218,0.002106085855594767
760,7.6,-0.050155704919333445,0.7455845223800762,0.6392805868371821,0.019334668336344604,-0.00024339303633911548,0.022531735508826436
761,7.61,-0.05901555695087931,0.6950476752172857,0.5554742263409795,0.021380283,-0.0012217305,0.026267206
762,7.62,-0.051252022,0.6640798,0.51544887,0.021380283,-0.0012217305,0.026267206
763,7.63,-0.051252022,0.6640798,0.51544887,0.021380283,-0.0012217305,0.026267206
764,7.64,-0.021490877807959666,0.6742170127157883,0.5522030898660245,0.021380283,-0.0012217305,0.026267206
765,7.65,0.082735404,0.70971847,0.68091977,0.021380283,-0.0012217305,0.026267206
766,7.66,0.082735404,0.70971847,0.68091977,0.021380283,-0.0012217305,0.026267206
767,7.67,0.082735404,0.70971847,0.68091977,0.021380283,-0.0012217305,0.026267206
768,7.68,0.082735404,0.70971847,0.68091977,0.021380283,-0.0012217305,0.026267206
769,7.69,0.082735404,0.70971847,0.68091977,0.0004249968988046358,-0.004168567473979546,0.011860446671427136
770,7.7,0.082735404,0.70971847,0.68091977,-0.017715093,-0.0067195175,-0.00061086525
771,7.71,0.082735404,0.70971847,0.68091977,-0.017715093,-0.0067195175,-0.00061086525
772,7.72,0.082735404,0.70971847,0.68091977,-0.017715093,-0.0067195175,-0.00061086525
773,7.73,0.082735404,0.70971847,0.68091977,-0.017715093,-0.0067195175,-0.00061086525
774,7.74,0.082735404,0.70971847,0.68091977,-0.017715093,-0.0067195175,-0.00061086525
775,7.75,0.08371834232656393,0.7086126894285226,0.6799368276459535,-0.017715093,-0.0067195175,-0.00061086525
776,7.76,0.084687866,0.707522,0.6789673,-0.017715093,-0.0067195175,-0.00061086525
777,7.77,0.084687866,0.707522,0.6789673,-0.017715093,-0.0067195175,-0.00061086525
778,7.78,0.08490784866811536,0.7090618309052382,0.6908462505080838,-0.017715093,-0.0067195175,-0.00061086525
779,7.79,0.084931925,0.70923036,0.69214636,-0.0024408428503868377,0.009863952717303712,0.004626020128780657
780,7.8,0.084931925,0.70923036,0.69214636,0.0036651916,0.016493361,0.0067195175
781,7.81,0.08426969185414185,0.7087888674171979,0.6934708256887326,0.0036651916,0.016493361,0.0067195175
782,7.82,0.0827179294303396,0.7079582211254651,0.6957180970875632,0.0036651916,0.016493361,0.0067195175
783,7.83,0.08255720759434519,0.7097261692238778,0.6881641879178533,0.0036651916,0.016493361,0.0067195175
784,7.84,0.082491346,0.71045065,0.6850687,0.0036651916,0.016493361,0.0067195175
785,7.85,0.082491346,0.71045065,0.6850687,0.0036651916,0.016493361,0.0067195175
786,7.86,0.0825281176956194,0.7100461595401724,0.6867969657767472,0.0036651916,0.016493361,0.0067195175
787,7.87,0.08273104235527486,0.7078139783064328,0.6963344031625732,0.0036651916,0.016493361,0.0067195175
788,7.88,0.082735404,0.707766,0.6965394,0.0036651916,0.016493361,0.0067195175
789,7.89,0.082735404,0.707766,0.6965394,-0.012159173424221036,-0.015571798716706184,0.004220933695912237
790,7.9,0.08372776070964762,0.7062774613777144,0.6890967577144888,0.03447545738255921,0.0091979029509813,0.05676699425313947
791,7.91,0.08551481712411692,0.7062431251107981,0.6871884622561154,0.08674286,0.047647487,0.10873401
792,7.92,0.08712844,0.7089863,0.6975156,0.08674286,0.047647487,0.10873401
793,7.93,0.08712844,0.7089863,0.6975156,0.08674286,0.047647487,0.10873401
794,7.94,0.08712844,0.7089863,0.6975156,0.08674286,0.047647487,0.10873401
795,7.95,0.08712844,0.7089863,0.6975156,0.08674286,0.047647487,0.10873401
796,7.96,0.08712844,0.7089863,0.6975156,0.08674286,0.047647487,0.10873401
797,7.97,0.08712844,0.7089863,0.6975156,0.08674286,0.047647487,0.10873401
798,7.98,0.08712844,0.7089863,0.6975156,0.07162318947732127,0.03652497060464308,0.09370123399063303
799,7.99,0.08712844,0.7089863,0.6975156,-0.007996561319846681,-0.02204588134000875,0.014539067205308832
800,8.0,0.08712844,0.7089863,0.6975156,-0.019547688,-0.030543262,0.0030543262
801,8.01,0.019120812953223376,0.7360505610245748,0.6599263348864762,-0.019547688,-0.030543262,0.0030543262
802,8.02,-0.056377225,0.7660957,0.61819696,-0.019547688,-0.030543262,0.0030543262
803,8.03,-0.056377225,0.7660957,0.61819696,-0.018794028098807064,-0.029670603218303945,0.0028163283448385387
804,8.04,-0.056377225,0.7660957,0.61819696,-0.009556833791723906,-0.018974905175261344,-0.0001006802810889525
805,8.05,-0.056377225,0.7660957,0.61819696,-0.007941248,-0.017104227,-0.00061086525
806,8.06,-0.056377225,0.7660957,0.61819696,-0.007941248,-0.017104227,-0.00061086525
807,8.07,-0.03927810343581727,0.7593174199085828,0.6268441551646906,-0.007941248,-0.017104227,-0.00061086525
808,8.08,0.07656048563320003,0.7133977275339115,0.6854248771931479,-0.007941248,-0.017104227,-0.00061086525
809,8.09,0.09322987,0.7067898,0.69385475,-0.007941248,-0.017104227,-0.00061086525
810,8.1,0.09322987,0.7067898,0.69385475,0.0044721629301508765,-0.004070144735901645,0.005595840596094762
811,8.11,0.09322987,0.7067898,0.69385475,0.016493361,0.008552114,0.01160644
812,8.12,0.09322987,0.7067898,0.69385475,0.016493361,0.008552114,0.01160644
813,8.13,0.09322987,0.7067898,0.69385475,0.016493361,0.008552114,0.01160644
814,8.14,0.09322987,0.7067898,0.69385475,0.016493361,0.008552114,0.01160644
815,8.15,0.09322987,0.7067898,0.69385475,0.016493361,0.008552114,0.01160644
816,8.16,0.09322987,0.7067898,0.69385475,0.016493361,0.008552114,0.01160644
817,8.17,0.09322987,0.7067898,0.69385475,0.016493361,0.008552114,0.01160644
818,8.18,0.09322987,0.7067898,0.69385475,0.016493361,0.008552114,0.01160644
819,8.19,0.09322987,0.7067898,0.69385475,0.016493361,0.008552114,0.01160644
820,8.2,0.09322987,0.7067898,0.69385475,0.016493361,0.008552114,0.01160644
821,8.21,0.09322987,0.7067898,0.69385475,0.016493361,0.008552114,0.01160644
822,8.22,0.08901394578049601,0.7071511541454624,0.6940956651024431,0.016493361,0.008552114,0.01160644
823,8.23,0.07614586,0.7082541,0.694831,0.016493361,0.008552114,0.01160644
824,8.24,0.07614586,0.7082541,0.694831,0.016493361,0.008552114,0.01160644
825,8.25,0.07614586,0.7082541,0.694831,0.016493361,0.008552114,0.01160644
826,8.26,0.07614586,0.7082541,0.694831,0.016493361,0.008552114,0.01160644
827,8.27,0.07614586,0.7082541,0.694831,0.003796201245960769,0.04911248858000544,-0.01625677193908651
828,8.28,0.07614586,0.7082541,0.694831,-0.005497787,0.07880162,-0.036651913
829,8.29,0.07614586,0.7082541,0.694831,-0.005497787,0.07880162,-0.036651913
830,8.3,0.07614586,0.7082541,0.694831,-0.005497787,0.07880162,-0.036651913
831,8.31,0.07614586,0.7082541,0.694831,-0.010472297768692782,0.05658213686544303,-0.018743675861382893
832,8.32,0.07614586,0.7082541,0.694831,-0.014660766,0.037873644,-0.0036651916
833,8.33,0.07614586,0.7082541,0.694831,-0.014660766,0.037873644,-0.0036651916
834,8.34,0.07667178923210094,0.7082743315985814,0.6937386843061695,-0.014660766,0.037873644,-0.0036651916
835,8.35,0.08185805863304085,0.7084738385174792,0.6829671905132706,-0.014660766,0.037873644,-0.0036651916
836,8.36,0.082491346,0.7084982,0.6816519,-0.014660766,0.037873644,-0.0036651916
837,8.37,0.0768814663047453,0.702187069109028,0.7249882440052904,-0.014660766,0.037873644,-0.0036651916
838,8.38,0.09349094540547787,0.7051400115545483,0.7574174619047943,-0.014660766,0.037873644,-0.0036651916
839,8.39,0.11592719,0.7133793,0.7577977,-0.016855634741778647,0.025582382639087648,-0.010030309082773078
840,8.4,0.11592719,0.7133793,0.7577977,0.021422936902114213,0.1163071641741537,-0.03789594598745327
841,8.41,0.11469626936454497,0.7134367429416929,0.7557379616746074,0.17674469105108376,0.535204634023573,-0.1010704267853172
842,8.42,0.08031482411155869,0.7150412097920287,0.6982064048624277,0.11421114590903045,0.48643999903523544,-0.14295069873481564
843,8.43,0.079318605,0.7150877,0.6965394,0.112399206,0.48502702,-0.1441642
844,8.44,0.079318605,0.7150877,0.6965394,0.112399206,0.48502702,-0.1441642
845,8.45,0.07552346298597669,0.7061928362842766,0.7158708963576985,0.112399206,0.48502702,-0.1441642
846,8.46,0.07150877,0.6967834,0.73632073,0.112399206,0.48502702,-0.1441642
847,8.47,0.07150877,0.6967834,0.73632073,0.112399206,0.48502702,-0.1441642
848,8.48,0.07150877,0.6967834,0.73632073,0.112399206,0.48502702,-0.1441642
849,8.49,0.08728903309429378,0.7026793248952707,0.7439507230764817,0.112399206,0.48502702,-0.1441642
850,8.5,0.11592719,0.7133793,0.7577977,0.112399206,0.48502702,-0.1441642
851,8.51,0.11592719,0.7133793,0.7577977,0.112399206,0.48502702,-0.1441642
852,8.52,0.11592719,0.7133793,0.7577977,0.112399206,0.48502702,-0.1441642
853,8.53,0.11592719,0.7133793,0.7577977,0.112399206,0.48502702,-0.1441642
854,8.54,0.11592719,0.7133793,0.7577977,0.173226536611418,0.6156850069661166,-0.09980636335064158
855,8.55,0.10961380646103548,0.7126874252159189,0.7447817650942784,0.28160888,0.84849185,-0.02076942
856,8.56,0.08029483,0.7094744,0.68433654,0.28160888,0.84849185,-0.02076942
857,8.57,0.08029483,0.7094744,0.68433654,0.28160888,0.84849185,-0.02076942
858,8.58,0.08029483,0.7094744,0.68433654,0.28160888,0.84849185,-0.02076942
859,8.59,0.08029483,0.7094744,0.68433654,0.28160888,0.84849185,-0.02076942
860,8.6,0.08029483,0.7094744,0.68433654,0.28160888,0.84849185,-0.02076942
861,8.61,0.08029483,0.7094744,0.68433654,0.28160888,0.84849185,-0.02076942
862,8.62,0.08029483,0.7094744,0.68433654,0.28160888,0.84849185,-0.02076942
863,8.63,0.08029483,0.7094744,0.68433654,0.28160888,0.84849185,-0.02076942
864,8.64,0.08029483,0.7094744,0.68433654,0.28160888,0.84849185,-0.02076942
865,8.65,0.08029483,0.7094744,0.68433654,0.28160888,0.84849185,-0.02076942
866,8.66,0.08029483,0.7094744,0.68433654,0.28160888,0.84849185,-0.02076942
867,8.67,0.08029483,0.7094744,0.68433654,0.28160888,0.84849185,-0.02076942
868,8.68,0.08029483,0.7094744,0.68433654,0.28160888,0.84849185,-0.02076942
869,8.69,0.08029483,0.7094744,0.68433654,0.28160888,0.84849185,-0.02076942
870,8.7,0.08029483,0.7094744,0.68433654,0.03877241609884137,0.8853550476682077,0.20225305450488035
871,8.71,0.08029483,0.7094744,0.68433654,-0.553754550932648,0.9464602630878743,0.4498929756437023
872,8.72,0.08029483,0.7094744,0.68433654,-0.93462384,0.9828822,0.57971114
873,8.73,0.08029483,0.7094744,0.68433654,-0.93462384,0.9828822,0.57971114
874,8.74,0.08029483,0.7094744,0.68433654,-0.93462384,0.9828822,0.57971114
875,8.75,0.08029483,0.7094744,0.68433654,-0.93462384,0.9828822,0.57971114
876,8.76,0.08029483,0.7094744,0.68433654,-0.7741008452364883,0.9591179367335646,0.5266985636475044
877,8.77,0.08029483,0.7094744,0.68433654,-0.10887055365714338,0.8606354245851393,0.30700685109069936
878,8.78,0.08029483,0.7094744,0.68433654,-0.076358154,0.8558222,0.29626966
879,8.79,0.08029483,0.7094744,0.68433654,-0.076358154,0.8558222,0.29626966
880,8.8,0.08029483,0.7094744,0.68433654,-0.076358154,0.8558222,0.29626966
881,8.81,0.08029483,0.7094744,0.68433654,-0.076358154,0.8558222,0.29626966
882,8.82,0.08029483,0.7094744,0.68433654,-0.076358154,0.8558222,0.29626966
883,8.83,0.08029483,0.7094744,0.68433654,-0.076358154,0.8558222,0.29626966
884,8.84,0.08029483,0.7094744,0.68433654,0.56493119029001,-0.3275925859317055,0.5194977690629435
885,8.85,0.08029483,0.7094744,0.68433654,0.820392,-0.79901177,0.6084218
886,8.86,0.08029483,0.7094744,0.68433654,0.6548870123493048,-0.6086414222852108,0.5121279788681988
887,8.87,0.06853718550130675,0.706975727300396,0.6862521869841653,0.18203785,-0.064751714,0.23701571
888,8.88,-0.10718163434245627,0.6696328889453985,0.714881665221258,0.18203785,-0.064751714,0.23701571
889,8.89,-0.16938372778338223,0.7071033016150534,0.657869525221295,0.18203785,-0.064751714,0.23701571
890,8.9,-0.18621568,0.72338563,0.6343048,0.18203785,-0.064751714,0.23701571
891,8.91,-0.16207493033945994,0.7227418804212733,0.6427808753192674,0.18203785,-0.064751714,0.23701571
892,8.92,-0.07689220177680924,0.7204703542094495,0.6726894420933112,0.18203785,-0.064751714,0.23701571
893,8.93,-0.076389916,0.72045696,0.6728658,0.18203785,-0.064751714,0.23701571
894,8.94,-0.0636546468349428,0.7510216332696615,0.6451878622887177,0.18203785,-0.064751714,0.23701571
895,8.95,-0.058085624,0.7643873,0.63308454,0.18203785,-0.064751714,0.23701571
896,8.96,-0.056806595878232294,0.7620119560702175,0.6325972883634002,0.12197435620389295,0.08510211893611867,0.1550000796773028
897,8.97,-0.05296042,0.75486904,0.63113207,-0.058643065,0.5357288,-0.09162979
898,8.98,-0.05296042,0.75486904,0.63113207,-0.058643065,0.5357288,-0.09162979
899,8.99,-0.06153981430846881,0.7414111900915189,0.6753748237760773,-0.058643065,0.5357288,-0.09162979
900,9.0,-0.065407336,0.7353445,0.6953191,-0.058643065,0.5357288,-0.09162979
901,9.01,-0.065407336,0.7353445,0.6953191,0.017609360821512994,0.38024016442973974,-0.11400821965638674
902,9.02,-0.065407336,0.7353445,0.6953191,0.22235495,-0.03726278,-0.1740966
903,9.03,-0.065407336,0.7353445,0.6953191,0.22235495,-0.03726278,-0.1740966
904,9.04,-0.065407336,0.7353445,0.6953191,0.22235495,-0.03726278,-0.1740966
905,9.05,-0.065407336,0.7353445,0.6953191,0.22235495,-0.03726278,-0.1740966
906,9.06,-0.031513058175835516,0.7296954492871346,0.6914454729094385,0.21265940827276172,-0.10688215411539172,-0.18837058990537173
907,9.07,0.08563939161853241,0.7105218676807655,0.6770718038625877,0.17837265,-0.35308012,-0.23884831
908,9.08,-0.049759565164694264,0.7506716878363852,0.6433288591965782,0.17837265,-0.35308012,-0.23884831
909,9.09,-0.06638357,0.7556012,0.63918597,0.17837265,-0.35308012,-0.23884831
910,9.1,-0.06638357,0.7556012,0.63918597,0.17837265,-0.35308012,-0.23884831
911,9.11,-0.06638357,0.7556012,0.63918597,0.013771713267294297,0.2641733849348289,-0.13660907115289414
912,9.12,-0.06638357,0.7556012,0.63918597,-0.009696638771194963,0.16499911645311496,-0.09984015480210787
913,9.13,-0.06638357,0.7556012,0.63918597,0.03604105,-0.18142697,-0.10751228
914,9.14,-0.06265944870524459,0.7499489884134376,0.6411404727989068,0.03994146173897253,-0.15928056546401737,-0.09078678606163389
915,9.15,-0.0355127261784007,0.7077330981697362,0.6565158210323061,0.0720821,0.02321288,0.047036625
916,9.16,-0.071020655,0.75145227,0.6491923,0.0720821,0.02321288,0.047036625
917,9.17,-0.071020655,0.75145227,0.6491923,0.0720821,0.02321288,0.047036625
918,9.18,-0.071020655,0.75145227,0.6491923,0.0720821,0.02321288,0.047036625
919,9.19,-0.071020655,0.75145227,0.6491923,0.0720821,0.02321288,0.047036625
920,9.2,-0.071020655,0.75145227,0.6491923,0.0720821,0.02321288,0.047036625
921,9.21,-0.06786483276999539,0.7468015845367763,0.6511854464405499,0.0720821,0.02321288,0.047036625
922,9.22,-0.04783522,0.71728426,0.6638357,0.0720821,0.02321288,0.047036625
923,9.23,-0.04783522,0.71728426,0.6638357,0.0720821,0.02321288,0.047036625
924,9.24,-0.04783522,0.71728426,0.6638357,0.0720821,0.02321288,0.047036625
925,9.25,-0.04783522,0.71728426,0.6638357,0.0720821,0.02321288,0.047036625
926,9.26,-0.04783522,0.71728426,0.6638357,0.0720821,0.02321288,0.047036625
927,9.27,-0.04742644131673774,0.717211265366125,0.6649160476195016,0.0720821,0.02321288,0.047036625
928,9.28,-0.04199737661184563,0.7162418102388303,0.6792643426021129,0.0720821,0.02321288,0.047036625
929,9.29,-0.041001618,0.716064,0.681896,0.0720821,0.02321288,0.047036625
930,9.3,-0.041001618,0.716064,0.681896,0.0720821,0.02321288,0.047036625
931,9.31,-0.041001618,0.716064,0.681896,0.0720821,0.02321288,0.047036625
932,9.32,-0.041001618,0.716064,0.681896,0.0720821,0.02321288,0.047036625
933,9.33,-0.041001618,0.716064,0.681896,0.0720821,0.02321288,0.047036625
934,9.34,-0.041001618,0.716064,0.681896,0.0720821,0.02321288,0.047036625
935,9.35,-0.041001618,0.716064,0.681896,0.0720821,0.02321288,0.047036625
936,9.36,-0.041001618,0.716064,0.681896,0.0720821,0.02321288,0.047036625
937,9.37,-0.041001618,0.716064,0.681896,0.0720821,0.02321288,0.047036625
938,9.38,-0.041001618,0.716064,0.681896,0.0720821,0.02321288,0.047036625
939,9.39,-0.041001618,0.716064,0.681896,-0.03883942587911909,-0.11608392344853997,0.013133700100485323
940,9.4,-0.041001618,0.716064,0.681896,-0.11178834,-0.20769419,-0.009162978
941,9.41,-0.041001618,0.716064,0.681896,-0.11178834,-0.20769419,-0.009162978
942,9.42,-0.041001618,0.716064,0.681896,-0.11178834,-0.20769419,-0.009162978
943,9.43,-0.041001618,0.716064,0.681896,-0.11178834,-0.20769419,-0.009162978
944,9.44,-0.041001618,0.716064,0.681896,-0.11178834,-0.20769419,-0.009162978
945,9.45,-0.045720763219042955,0.710165070202645,0.6820645359186425,-0.11178834,-0.20769419,-0.009162978
946,9.46,-0.04783522,0.707522,0.68214005,-0.11178834,-0.20769419,-0.009162978
947,9.47,-0.04783522,0.707522,0.68214005,-0.10153091767152443,-0.16983941388462034,-0.004278491401566307
948,9.48,-0.04783522,0.707522,0.68214005,-0.086132,-0.11301007,0.0030543262
949,9.49,-0.04783522,0.707522,0.68214005,-0.086132,-0.11301007,0.0030543262
950,9.5,-0.04783522,0.707522,0.68214005,-0.086132,-0.11301007,0.0030543262
951,9.51,-0.04783522,0.707522,0.68214005,-0.04974429062803827,-0.07735746556399113,-0.004296725686634184
952,9.52,-0.04783522,0.707522,0.68214005,-0.02565634,-0.05375614,-0.009162978
953,9.53,-0.04783522,0.707522,0.68214005,-0.02565634,-0.05375614,-0.009162978
954,9.54,-0.04783522,0.707522,0.68214005,-0.02565634,-0.05375614,-0.009162978
955,9.55,-0.04783522,0.707522,0.68214005,-0.02565634,-0.05375614,-0.009162978
956,9.56,-0.04783522,0.707522,0.68214005,-0.02565634,-0.05375614,-0.009162978
957,9.57,-0.04783522,0.707522,0.68214005,-0.02565634,-0.05375614,-0.009162978
958,9.58,-0.04783522,0.707522,0.68214005,-0.02565634,-0.05375614,-0.009162978
959,9.59,-0.04783522,0.707522,0.68214005,-0.02565634,-0.05375614,-0.009162978
960,9.6,-0.04783522,0.707522,0.68214005,-0.02565634,-0.05375614,-0.009162978
961,9.61,-0.04783522,0.707522,0.68214005,-0.02565634,-0.05375614,-0.009162978
962,9.62,-0.04783522,0.707522,0.68214005,-0.02565634,-0.05375614,-0.009162978
963,9.63,-0.04783522,0.707522,0.68214005,0.2645358348956867,0.9128041362122888,0.397927732746831
964,9.64,-0.0564204743629033,0.7321481115672483,0.6401174762597469,0.44898596,1.5271631,0.65668017
965,9.65,-0.052921370453617056,0.7448366448994774,0.6215855072904389,0.44898596,1.5271631,0.65668017
966,9.66,-0.021721095,0.7080101,0.69165826,0.44898596,1.5271631,0.65668017
967,9.67,-0.021721095,0.7080101,0.69165826,0.44898596,1.5271631,0.65668017
968,9.68,-0.021721095,0.7080101,0.69165826,0.44898596,1.5271631,0.65668017
969,9.69,-0.021721095,0.7080101,0.69165826,0.44898596,1.5271631,0.65668017
970,9.7,-0.021721095,0.7080101,0.69165826,0.44898596,1.5271631,0.65668017
971,9.71,-0.01897197279799432,0.7094533716260618,0.6944073822020057,0.44898596,1.5271631,0.65668017
972,9.72,-0.012050758351101363,0.7129145531931612,0.7017515760657917,0.44898596,1.5271631,0.65668017
973,9.73,-0.013041745504707292,0.7105361973428514,0.7053190651760767,0.44898596,1.5271631,0.65668017
974,9.74,-0.013179091,0.71020657,0.7058135,0.44898596,1.5271631,0.65668017
975,9.75,-0.013179091,0.71020657,0.7058135,0.44898596,1.5271631,0.65668017
976,9.76,-0.013655845632474555,0.7094119897983947,0.696119552518395,0.44898596,1.5271631,0.65668017
977,9.77,-0.013911263,0.7089863,0.6909261,0.44898596,1.5271631,0.65668017
978,9.78,-0.013911263,0.7089863,0.6909261,0.32119062733454884,1.0944920361116395,0.4669758602127062
979,9.79,-0.013911263,0.7089863,0.6909261,-0.002443461,-0.0012217305,-0.013439035
980,9.8,-0.013911263,0.7089863,0.6909261,-0.002443461,-0.0012217305,-0.013439035
981,9.81,-0.013911263,0.7089863,0.6909261,-0.10426753511995528,0.30153519428476866,0.18658870091554175
982,9.82,-0.013911263,0.7089863,0.6909261,-0.13988814,0.40744713,0.2565634
983,9.83,-0.013911263,0.7089863,0.6909261,-0.13988814,0.40744713,0.2565634
984,9.84,-0.013911263,0.7089863,0.6909261,-0.13988814,0.40744713,0.2565634
985,9.85,-0.013911263,0.7089863,0.6909261,-0.13988814,0.40744713,0.2565634
986,9.86,-0.013911263,0.7089863,0.6909261,-0.13988814,0.40744713,0.2565634
987,9.87,-0.023378815194559,0.7051992817083325,0.691241675698336,-0.13988814,0.40744713,0.2565634
988,9.88,-0.028554698,0.70312893,0.6914142,-0.13988814,0.40744713,0.2565634
989,9.89,-0.028554698,0.70312893,0.6914142,-0.09014253692514126,0.23454493058614892,0.15514032573132552
990,9.9,-0.028554698,0.70312893,0.6914142,-0.014049901,-0.029932396,0.0
991,9.91,-0.028554698,0.70312893,0.6914142,-0.014049901,-0.029932396,0.0
992,9.92,-0.028554698,0.70312893,0.6914142,-0.014049901,-0.029932396,0.0
993,9.93,-0.028554698,0.70312893,0.6914142,-0.014049901,-0.029932396,0.0
994,9.94,-0.028554698,0.70312893,0.6914142,-0.014049901,-0.029932396,0.0
995,9.95,-0.028554698,0.70312893,0.6914142,-0.014049901,-0.029932396,0.0
996,9.96,-0.028554698,0.70312893,0.6914142,-0.014049901,-0.029932396,0.0
997,9.97,-0.028554698,0.70312893,0.6914142,-0.015587255623208956,-0.03181138485964138,0.0037579779989142855
998,9.98,-0.028554698,0.70312893,0.6914142,-0.019547688,-0.036651913,0.013439035
999,9.99,-0.028554698,0.70312893,0.6914142,-0.019547688,-0.036651913,0.013439035
