id,timestamp,acc_x,acc_y,acc_z,gyro_x,gyro_y,gyro_z
0,0.0,,,,,,
1,0.01,0.30067852,0.65212095,0.51496077,-0.20891592,-0.115453534,0.26633725
2,0.02,0.30067852,0.65212095,0.51496077,-0.16948374712105752,0.5594847541891282,0.5685605112554409
3,0.03,0.30067852,0.65212095,0.51496077,-0.119729586,1.4110987,0.94989544
4,0.04,0.30126734921133247,0.6503247739718446,0.5219920837382294,-0.119729586,1.4110987,0.94989544
5,0.05,0.3280203358702919,0.5687169454307864,0.8414542283015836,-0.119729586,1.4110987,0.94989544
6,0.06,0.32972133,0.5635282,0.8617661,-0.119729586,1.4110987,0.94989544
7,0.07,0.32972133,0.5635282,0.8617661,-0.119729586,1.4110987,0.94989544
8,0.08,0.32972133,0.5635282,0.8617661,-0.119729586,1.4110987,0.94989544
9,0.09,0.3244177413422528,0.5650966427786576,0.8566403776401607,-0.119729586,1.4110987,0.94989544
10,0.1,0.2602071422083763,0.5840857946574871,0.7945832074939758,-0.119729586,1.4110987,0.94989544
11,0.11,0.24967057,0.5872018,0.7844,-0.119729586,1.4110987,0.94989544
12,0.12,0.24967057,0.5872018,0.7844,-0.119729586,1.4110987,0.94989544
13,0.13,0.24967057,0.5872018,0.7844,-0.119729586,1.4110987,0.94989544
14,0.14,0.24967057,0.5872018,0.7844,-0.14235818479471501,1.1009454564282528,0.8148309881513106
15,0.15,0.24967057,0.5872018,0.7844,-0.21746802,0.07147124,0.36651915
16,0.16,0.24967057,0.5872018,0.7844,-0.21746802,0.07147124,0.36651915
17,0.17,0.24967057,0.5872018,0.7844,-0.21746802,0.07147124,0.36651915
18,0.18,0.24967057,0.5872018,0.7844,-0.21746802,0.07147124,0.36651915
19,0.19,0.2544519012101969,0.5866271179695459,0.7849516945985358,-0.21746802,0.07147124,0.36651915
20,0.2,0.294837172790486,0.5817730953444862,0.7896115550457115,-0.21746802,0.07147124,0.36651915
21,0.21,0.30043447,0.58110034,0.7902574,-0.21746802,0.07147124,0.36651915
22,0.22,0.30043447,0.58110034,0.7902574,-0.44715801696181745,0.4784260206496958,0.07120347401952591
23,0.23,0.30043447,0.58110034,0.7902574,-0.589485,0.7305948,-0.11178834
24,0.24,0.30043447,0.58110034,0.7902574,-0.589485,0.7305948,-0.11178834
25,0.25,0.30043447,0.58110034,0.7902574,-0.589485,0.7305948,-0.11178834
26,0.26,0.30043447,0.58110034,0.7902574,-0.589485,0.7305948,-0.11178834
27,0.27,0.30043447,0.58110034,0.7902574,-0.589485,0.7305948,-0.11178834
28,0.28,0.27418550163887506,0.5842552794450913,0.7872286589600395,-0.589485,0.7305948,-0.11178834
29,0.29,0.24967057,0.5872018,0.7844,-0.589485,0.7305948,-0.11178834
30,0.3,0.24967057,0.5872018,0.7844,-0.589485,0.7305948,-0.11178834
31,0.31,0.24967057,0.5872018,0.7844,-0.589485,0.7305948,-0.11178834
32,0.32,0.24967057,0.5872018,0.7844,-0.589485,0.7305948,-0.11178834
33,0.33,0.12599454357513934,0.5251471671128681,0.8083338007482843,-0.3940472602432338,0.328605719316001,0.032418131604292785
34,0.34,-0.029042812,0.44735694,0.83833665,-0.14905111,-0.17531833,0.21319197
35,0.35,-0.029042812,0.44735694,0.83833665,-0.14905111,-0.17531833,0.21319197
36,0.36,-0.029042812,0.44735694,0.83833665,-0.14905111,-0.17531833,0.21319197
37,0.37,-0.029042812,0.44735694,0.83833665,-0.14905111,-0.17531833,0.21319197
38,0.38,-0.029042812,0.44735694,0.83833665,-0.14905111,-0.17531833,0.21319197
39,0.39,-0.029042812,0.44735694,0.83833665,-0.14905111,-0.17531833,0.21319197
40,0.4,-0.029042812,0.44735694,0.83833665,-0.14905111,-0.17531833,0.21319197
41,0.41,-0.029042812,0.44735694,0.83833665,-0.3018053186230234,0.142075844706789,-0.04741461276415374
42,0.42,-0.029042812,0.44735694,0.83833665,-0.36102137,0.26511553,-0.14844026
43,0.43,-0.029042812,0.44735694,0.83833665,-0.36102137,0.26511553,-0.14844026
44,0.44,-0.029042812,0.44735694,0.83833665,-0.36102137,0.26511553,-0.14844026
45,0.45,-0.029042812,0.44735694,0.83833665,-0.36102137,0.26511553,-0.14844026
46,0.46,-0.029042812,0.44735694,0.83833665,-0.36102137,0.26511553,-0.14844026
47,0.47,-0.029042812,0.44735694,0.83833665,-0.36102137,0.26511553,-0.14844026
48,0.48,-0.029042812,0.44735694,0.83833665,-0.36102137,0.26511553,-0.14844026
49,0.49,0.022737565428528436,0.47918412006713823,0.8011233358573933,-0.36102137,0.26511553,-0.14844026
50,0.5,0.17742962,0.5742667,0.68994987,-0.36102137,0.26511553,-0.14844026
51,0.51,0.17742962,0.5742667,0.68994987,-0.36102137,0.26511553,-0.14844026
52,0.52,0.17742962,0.5742667,0.68994987,-0.36102137,0.26511553,-0.14844026
53,0.53,0.11418937179396241,0.5233721711342301,0.8135328917246547,-0.24309384536820297,0.582321627120952,-0.09199901099202455
54,0.54,0.054912884,0.4756676,0.92937,-0.13255776,0.87964594,-0.039095376
55,0.55,0.054912884,0.4756676,0.92937,-0.13255776,0.87964594,-0.039095376
56,0.56,0.15551630527871288,0.5566312880548462,0.7327724984064691,-0.13255776,0.87964594,-0.039095376
57,0.57,0.17742962,0.5742667,0.68994987,-0.13255776,0.87964594,-0.039095376
58,0.58,0.17742962,0.5742667,0.68994987,-0.13255776,0.87964594,-0.039095376
59,0.59,0.17742962,0.5742667,0.68994987,-0.13255776,0.87964594,-0.039095376
60,0.6,0.17742962,0.5742667,0.68994987,-0.13255776,0.87964594,-0.039095376
61,0.61,0.17742962,0.5742667,0.68994987,-0.13255776,0.87964594,-0.039095376
62,0.62,0.17742962,0.5742667,0.68994987,-0.13255776,0.87964594,-0.039095376
63,0.63,0.17742962,0.5742667,0.68994987,-0.13255776,0.87964594,-0.039095376
64,0.64,0.17742962,0.5742667,0.68994987,-0.13255776,0.87964594,-0.039095376
65,0.65,0.17742962,0.5742667,0.68994987,-0.13255776,0.87964594,-0.039095376
66,0.66,0.17742962,0.5742667,0.68994987,-0.13255776,0.87964594,-0.039095376
67,0.67,0.17742962,0.5742667,0.68994987,-0.13255776,0.87964594,-0.039095376
68,0.68,0.17742962,0.5742667,0.68994987,-0.13255776,0.87964594,-0.039095376
69,0.69,0.17742962,0.5742667,0.68994987,-0.13255776,0.87964594,-0.039095376
70,0.7,0.17742962,0.5742667,0.68994987,-0.13255776,0.87964594,-0.039095376
71,0.71,0.17742962,0.5742667,0.68994987,-0.13255776,0.87964594,-0.039095376
72,0.72,0.17742962,0.5742667,0.68994987,-0.13255776,0.87964594,-0.039095376
73,0.73,0.1817138993216258,0.5774488617305246,0.6937529443304711,-0.13255776,0.87964594,-0.039095376
74,0.74,0.2175890378660876,0.6040952319560143,0.725598631377964,-0.13255776,0.87964594,-0.039095376
75,0.75,0.24478942,0.6242984,0.7497439,-0.13255776,0.87964594,-0.039095376
76,0.76,0.24478942,0.6242984,0.7497439,-0.13255776,0.87964594,-0.039095376
77,0.77,0.24478942,0.6242984,0.7497439,-0.2678401740838627,-0.0299010637205625,0.032021468013169255
78,0.78,0.24478942,0.6242984,0.7497439,-0.28710666,-0.15943582,0.0421497
79,0.79,0.24478942,0.6242984,0.7497439,-0.1676510068056801,-0.14165020297241718,-0.0005888783311655925
80,0.8,0.24478942,0.6242984,0.7497439,-0.012217305,-0.118507855,-0.056199603
81,0.81,0.24478942,0.6242984,0.7497439,-0.012217305,-0.118507855,-0.056199603
82,0.82,0.24478942,0.6242984,0.7497439,-0.012217305,-0.118507855,-0.056199603
83,0.83,0.24478942,0.6242984,0.7497439,-0.053123104017410716,0.2207818587270736,-0.05038558084086681
84,0.84,0.24478942,0.6242984,0.7497439,-0.13255776,0.87964594,-0.039095376
85,0.85,0.24478942,0.6242984,0.7497439,-0.13255776,0.87964594,-0.039095376
86,0.86,0.24478942,0.6242984,0.7497439,-0.13255776,0.87964594,-0.039095376
87,0.87,0.24478942,0.6242984,0.7497439,-0.13255776,0.87964594,-0.039095376
88,0.88,0.24478942,0.6242984,0.7497439,-0.13255776,0.87964594,-0.039095376
89,0.89,0.24478942,0.6242984,0.7497439,-0.13255776,0.87964594,-0.039095376
90,0.9,0.24478942,0.6242984,0.7497439,-0.13255776,0.87964594,-0.039095376
91,0.91,0.24478942,0.6242984,0.7497439,-0.13255776,0.87964594,-0.039095376
92,0.92,0.24478942,0.6242984,0.7497439,-0.13255776,0.87964594,-0.039095376
93,0.93,0.24478942,0.6242984,0.7497439,-0.13255776,0.87964594,-0.039095376
94,0.94,0.24478942,0.6242984,0.7497439,-0.13255776,0.87964594,-0.039095376
95,0.95,0.24478942,0.6242984,0.7497439,-0.24662757172294741,0.11271805679960958,0.020870178738574992
96,0.96,0.24478942,0.6242984,0.7497439,-0.28710666,-0.15943582,0.0421497
97,0.97,0.24478942,0.6242984,0.7497439,-0.28710666,-0.15943582,0.0421497
98,0.98,0.24478942,0.6242984,0.7497439,-0.28710666,-0.15943582,0.0421497
99,0.99,0.24478942,0.6242984,0.7497439,-0.28710666,-0.15943582,0.0421497
100,1.0,0.24478942,0.6242984,0.7497439,-0.28710666,-0.15943582,0.0421497
101,1.01,0.24478942,0.6242984,0.7497439,-0.28710666,-0.15943582,0.0421497
102,1.02,0.24478942,0.6242984,0.7497439,-0.28710666,-0.15943582,0.0421497
103,1.03,0.24478942,0.6242984,0.7497439,-0.28710666,-0.15943582,0.0421497
104,1.04,0.24478942,0.6242984,0.7497439,-0.28710666,-0.15943582,0.0421497
105,1.05,0.24478942,0.6242984,0.7497439,-0.28710666,-0.15943582,0.0421497
106,1.06,0.24478942,0.6242984,0.7497439,-0.28710666,-0.15943582,0.0421497
107,1.07,0.24478942,0.6242984,0.7497439,-0.28710666,-0.15943582,0.0421497
108,1.08,0.18225472004710166,0.5834057372909076,0.7834624121301824,-0.28710666,-0.15943582,0.0421497
109,1.09,-0.003026159553837073,0.4622469483038024,0.8833652755167615,-0.28710666,-0.15943582,0.0421497
110,1.1,-0.010494461,0.45736328,0.88739216,-0.28710666,-0.15943582,0.0421497
111,1.11,-0.010494461,0.45736328,0.88739216,-0.28710666,-0.15943582,0.0421497
112,1.12,-0.010494461,0.45736328,0.88739216,-0.28710666,-0.15943582,0.0421497
113,1.13,-0.010494461,0.45736328,0.88739216,-0.28710666,-0.15943582,0.0421497
114,1.14,-0.010494461,0.45736328,0.88739216,-0.25494698431493684,-0.11703058744070509,0.04371499443372103
115,1.15,-0.010494461,0.45736328,0.88739216,-0.1515326702917576,0.019329868400261623,0.04874843605461228
116,1.16,-0.010494461,0.45736328,0.88739216,-0.214476660724525,-0.06366706784531273,0.045684789554397046
117,1.17,-0.010494461,0.45736328,0.88739216,-0.2774206511572924,-0.14666400409088706,0.04262114305418181
118,1.18,0.16156323861679334,0.5698751731126457,0.7946191933752319,-0.28710666,-0.15943582,0.0421497
119,1.19,0.24478942,0.6242984,0.7497439,-0.28710666,-0.15943582,0.0421497
120,1.2,0.24478942,0.6242984,0.7497439,-0.28710666,-0.15943582,0.0421497
121,1.21,0.24478942,0.6242984,0.7497439,-0.28710666,-0.15943582,0.0421497
122,1.22,0.24478942,0.6242984,0.7497439,-0.28710666,-0.15943582,0.0421497
123,1.23,0.24478942,0.6242984,0.7497439,-0.28710666,-0.15943582,0.0421497
124,1.24,0.24478942,0.6242984,0.7497439,-0.2224706416914041,-0.02372592008864264,0.05502540129495782
125,1.25,0.24478942,0.6242984,0.7497439,-0.1337795,0.16249016,0.07269296
126,1.26,0.24451608971481062,0.6239631152185044,0.7491826613564789,-0.1337795,0.16249016,0.07269296
127,1.27,0.22951124299878825,0.605557190133878,0.7183726842940859,-0.1337795,0.16249016,0.07269296
128,1.28,0.22648512,0.60184515,0.71215904,-0.1337795,0.16249016,0.07269296
129,1.29,0.22648512,0.60184515,0.71215904,-0.1337795,0.16249016,0.07269296
130,1.3,0.22648512,0.60184515,0.71215904,-0.1337795,0.16249016,0.07269296
131,1.31,0.22648512,0.60184515,0.71215904,-0.1337795,0.16249016,0.07269296
132,1.32,0.22648512,0.60184515,0.71215904,-0.1337795,0.16249016,0.07269296
133,1.33,0.22648512,0.60184515,0.71215904,-0.13793177450186614,0.16013981502279573,0.07378978834004048
134,1.34,0.22648512,0.60184515,0.71215904,-0.16432622271334185,0.14519955547299007,0.08076191381128912
135,1.35,0.22648512,0.60184515,0.71215904,-0.16615535,0.1441642,0.08124508
136,1.36,0.22648512,0.60184515,0.71215904,-0.16615535,0.1441642,0.08124508
137,1.37,0.22648512,0.60184515,0.71215904,-0.16615535,0.1441642,0.08124508
138,1.38,0.22648512,0.60184515,0.71215904,-0.16615535,0.1441642,0.08124508
139,1.39,0.22648512,0.60184515,0.71215904,-0.16615535,0.1441642,0.08124508
140,1.4,0.22648512,0.60184515,0.71215904,-0.16615535,0.1441642,0.08124508
141,1.41,0.22944311994411704,0.6216099848366661,0.7371675889887268,-0.16615535,0.1441642,0.08124508
142,1.42,0.23185438,0.6377216,0.7575537,-0.16615535,0.1441642,0.08124508
143,1.43,0.23185438,0.6377216,0.7575537,-0.16615535,0.1441642,0.08124508
144,1.44,0.23185438,0.6377216,0.7575537,-0.16615535,0.1441642,0.08124508
145,1.45,0.23185438,0.6377216,0.7575537,-0.16615535,0.1441642,0.08124508
146,1.46,0.23185438,0.6377216,0.7575537,-0.16615535,0.1441642,0.08124508
147,1.47,0.23185438,0.6377216,0.7575537,-0.16615535,0.1441642,0.08124508
148,1.48,0.23185438,0.6377216,0.7575537,-0.16615535,0.1441642,0.08124508
149,1.49,0.23185438,0.6377216,0.7575537,-0.16615535,0.1441642,0.08124508
150,1.5,0.23185438,0.6377216,0.7575537,-0.16615535,0.1441642,0.08124508
151,1.51,0.23185438,0.6377216,0.7575537,-0.16615535,0.1441642,0.08124508
152,1.52,0.23185438,0.6377216,0.7575537,-0.16615535,0.1441642,0.08124508
153,1.53,0.23185438,0.6377216,0.7575537,-0.16615535,0.1441642,0.08124508
154,1.54,0.23185438,0.6377216,0.7575537,-0.16615535,0.1441642,0.08124508
155,1.55,0.23185438,0.6377216,0.7575537,-0.16615535,0.1441642,0.08124508
156,1.56,0.23655047852649577,0.6386305357105982,0.7564932946598291,-0.16615535,0.1441642,0.08124508
157,1.57,0.23942018,0.63918597,0.7558453,-0.15654722241751803,0.16044463318501676,0.07564033927430953
158,1.58,0.23942018,0.63918597,0.7558453,-0.1441642,0.18142697,0.06841691
159,1.59,0.23942018,0.63918597,0.7558453,-0.1441642,0.18142697,0.06841691
160,1.6,0.23942018,0.63918597,0.7558453,-0.1441642,0.18142697,0.06841691
161,1.61,0.23942018,0.63918597,0.7558453,-0.1441642,0.18142697,0.06841691
162,1.62,0.23736119022825852,0.6315621552707402,0.7482771364160812,-0.1441642,0.18142697,0.06841691
163,1.63,0.23039004,0.6057501,0.7226535,-0.1441642,0.18142697,0.06841691
164,1.64,0.23039004,0.6057501,0.7226535,-0.1441642,0.18142697,0.06841691
165,1.65,0.23039004,0.6057501,0.7226535,-0.1441642,0.18142697,0.06841691
166,1.66,0.23039004,0.6057501,0.7226535,-0.1441642,0.18142697,0.06841691
167,1.67,0.23039004,0.6057501,0.7226535,-0.1441642,0.18142697,0.06841691
168,1.68,0.23039004,0.6057501,0.7226535,-0.1441642,0.18142697,0.06841691
169,1.69,0.23039004,0.6057501,0.7226535,-0.1441642,0.18142697,0.06841691
170,1.7,0.22764760853310906,0.6030076474640618,0.7152832242115003,-0.1441642,0.18142697,0.06841691
171,1.71,0.22648512,0.60184515,0.71215904,-0.1441642,0.18142697,0.06841691
172,1.72,0.22648512,0.60184515,0.71215904,-0.1441642,0.18142697,0.06841691
173,1.73,0.22648512,0.60184515,0.71215904,-0.1441642,0.18142697,0.06841691
174,1.74,0.22648512,0.60184515,0.71215904,-0.1441642,0.18142697,0.06841691
175,1.75,0.22648512,0.60184515,0.71215904,-0.1441642,0.18142697,0.06841691
176,1.76,0.22648512,0.60184515,0.71215904,-0.1441642,0.18142697,0.06841691
177,1.77,0.22648512,0.60184515,0.71215904,-0.1441642,0.18142697,0.06841691
178,1.78,0.22648512,0.60184515,0.71215904,-0.15014504352063798,0.1712927661718453,0.07190573516040055
179,1.79,0.22648512,0.60184515,0.71215904,-0.16615535,0.1441642,0.08124508
180,1.8,0.22648512,0.60184515,0.71215904,-0.16615535,0.1441642,0.08124508
181,1.81,0.22648512,0.60184515,0.71215904,-0.16615535,0.1441642,0.08124508
182,1.82,0.22648512,0.60184515,0.71215904,-0.16615535,0.1441642,0.08124508
183,1.83,0.22648512,0.60184515,0.71215904,-0.16615535,0.1441642,0.08124508
184,1.84,0.22648512,0.60184515,0.71215904,-0.16615535,0.1441642,0.08124508
185,1.85,0.22648512,0.60184515,0.71215904,-0.16615535,0.1441642,0.08124508
186,1.86,0.22648512,0.60184515,0.71215904,-0.16615535,0.1441642,0.08124508
187,1.87,0.22648512,0.60184515,0.71215904,-0.16615535,0.1441642,0.08124508
188,1.88,0.22648512,0.60184515,0.71215904,-0.16615535,0.1441642,0.08124508
189,1.89,0.22648512,0.60184515,0.71215904,-0.16615535,0.1441642,0.08124508
190,1.9,0.22648512,0.60184515,0.71215904,-0.16615535,0.1441642,0.08124508
191,1.91,0.22648512,0.60184515,0.71215904,-0.16615535,0.1441642,0.08124508
192,1.92,0.22648512,0.60184515,0.71215904,-0.16615535,0.1441642,0.08124508
193,1.93,0.22648512,0.60184515,0.71215904,-0.16615535,0.1441642,0.08124508
194,1.94,0.22648512,0.60184515,0.71215904,-0.16615535,0.1441642,0.08124508
195,1.95,0.22662816219596235,0.6017153529080697,0.7128345156677157,-0.16615535,0.1441642,0.08124508
196,1.96,0.23704779496243988,0.592260534188513,0.7620382373593408,-0.16615535,0.1441642,0.08124508
197,1.97,0.23966423,0.58988637,0.7743936,-0.16615535,0.1441642,0.08124508
198,1.98,0.23966423,0.58988637,0.7743936,-0.16615535,0.1441642,0.08124508
199,1.99,0.23966423,0.58988637,0.7743936,-0.16615535,0.1441642,0.08124508
200,2.0,0.23966423,0.58988637,0.7743936,-0.16615535,0.1441642,0.08124508
201,2.01,0.23966423,0.58988637,0.7743936,-0.16615535,0.1441642,0.08124508
202,2.02,0.23966423,0.58988637,0.7743936,-0.16615535,0.1441642,0.08124508
203,2.03,0.23966423,0.58988637,0.7743936,-0.16615535,0.1441642,0.08124508
204,2.04,0.23966423,0.58988637,0.7743936,-0.16615535,0.1441642,0.08124508
205,2.05,0.23966423,0.58988637,0.7743936,-0.16615535,0.1441642,0.08124508
206,2.06,0.23966423,0.58988637,0.7743936,-0.16615535,0.1441642,0.08124508
207,2.07,0.23966423,0.58988637,0.7743936,-0.16615535,0.1441642,0.08124508
208,2.08,0.23966423,0.58988637,0.7743936,-0.16615535,0.1441642,0.08124508
209,2.09,0.23966423,0.58988637,0.7743936,-0.16615535,0.1441642,0.08124508
210,2.1,0.23966423,0.58988637,0.7743936,-0.16615535,0.1441642,0.08124508
211,2.11,0.23966423,0.58988637,0.7743936,-0.16615535,0.1441642,0.08124508
212,2.12,0.23966423,0.58988637,0.7743936,-0.16615535,0.1441642,0.08124508
213,2.13,0.23966423,0.58988637,0.7743936,-0.16615535,0.1441642,0.08124508
214,2.14,0.23477303237321998,0.5970159034947742,0.780445418489537,-0.16615535,0.1441642,0.08124508
215,2.15,0.22526483,0.6108753,0.7922098,-0.16615535,0.1441642,0.08124508
216,2.16,0.22526483,0.6108753,0.7922098,-0.16615535,0.1441642,0.08124508
217,2.17,0.22526483,0.6108753,0.7922098,-0.16615535,0.1441642,0.08124508
218,2.18,0.22526483,0.6108753,0.7922098,-0.16615535,0.1441642,0.08124508
219,2.19,0.22625065143488296,0.6077206719469482,0.7748593605189914,-0.16615535,0.1441642,0.08124508
220,2.2,0.22892569,0.59916055,0.72777873,-0.16615535,0.1441642,0.08124508
221,2.21,0.22892569,0.59916055,0.72777873,-0.16615535,0.1441642,0.08124508
222,2.22,0.22892569,0.59916055,0.72777873,-0.16615535,0.1441642,0.08124508
223,2.23,0.22892569,0.59916055,0.72777873,-0.16615535,0.1441642,0.08124508
224,2.24,0.22892569,0.59916055,0.72777873,-0.16615535,0.1441642,0.08124508
225,2.25,0.22892569,0.59916055,0.72777873,-0.16615535,0.1441642,0.08124508
226,2.26,0.22892569,0.59916055,0.72777873,-0.16615535,0.1441642,0.08124508
227,2.27,0.22892569,0.59916055,0.72777873,-0.16615535,0.1441642,0.08124508
228,2.28,0.22892569,0.59916055,0.72777873,-0.16615535,0.1441642,0.08124508
229,2.29,0.22892569,0.59916055,0.72777873,-0.16615535,0.1441642,0.08124508
230,2.3,0.22892569,0.59916055,0.72777873,-0.16615535,0.1441642,0.08124508
231,2.31,0.22892569,0.59916055,0.72777873,-0.16615535,0.1441642,0.08124508
232,2.32,0.22892569,0.59916055,0.72777873,-0.16615535,0.1441642,0.08124508
233,2.33,0.22734355571646822,0.5429287220160987,0.8003592969210945,-0.16615535,0.1441642,0.08124508
234,2.34,0.2236406764046937,0.42630176608589265,0.9488581485234489,-0.16615535,0.1441642,0.08124508
235,2.35,0.22648512,0.60184515,0.71215904,-0.16615535,0.1441642,0.08124508
236,2.36,0.22648512,0.60184515,0.71215904,-0.16615535,0.1441642,0.08124508
237,2.37,0.22648512,0.60184515,0.71215904,-0.16116836314092398,0.15954074621707268,0.06503736522450879
238,2.38,0.22648512,0.60184515,0.71215904,-0.15882497,0.16676621,0.057421334
239,2.39,0.22648512,0.60184515,0.71215904,-0.15882497,0.16676621,0.057421334
240,2.4,0.22648512,0.60184515,0.71215904,-0.15882497,0.16676621,0.057421334
241,2.41,0.22648512,0.60184515,0.71215904,-0.16449707779687447,0.14985301160607706,0.07134378357213982
242,2.42,0.22648512,0.60184515,0.71215904,-0.18998884049302442,0.07384119107467492,0.1339144880354207
243,2.43,0.22648512,0.60184515,0.71215904,-0.19242255,0.06658431,0.13988814
244,2.44,0.22648512,0.60184515,0.71215904,-0.19242255,0.06658431,0.13988814
245,2.45,0.22648512,0.60184515,0.71215904,-0.19242255,0.06658431,0.13988814
246,2.46,0.22648512,0.60184515,0.71215904,-0.1742049081453171,0.1203899174170713,0.0992161892651413
247,2.47,0.22648512,0.60184515,0.71215904,-0.16615535,0.1441642,0.08124508
248,2.48,0.22648512,0.60184515,0.71215904,-0.16615535,0.1441642,0.08124508
249,2.49,0.22648512,0.60184515,0.71215904,-0.16615535,0.1441642,0.08124508
250,2.5,0.22648512,0.60184515,0.71215904,-0.16615535,0.1441642,0.08124508
251,2.51,0.22648512,0.60184515,0.71215904,-0.16615535,0.1441642,0.08124508
252,2.52,0.22648512,0.60184515,0.71215904,-0.16615535,0.1441642,0.08124508
253,2.53,0.22648512,0.60184515,0.71215904,-0.22417671573942632,-0.0014752957517793143,0.06249069576305496
254,2.54,0.22648512,0.60184515,0.71215904,-0.28710666,-0.15943582,0.0421497
255,2.55,0.22648512,0.60184515,0.71215904,-0.28710666,-0.15943582,0.0421497
256,2.56,0.22648512,0.60184515,0.71215904,-0.28710666,-0.15943582,0.0421497
257,2.57,0.23137342154712146,0.6220360296481522,0.73872593144663,-0.28710666,-0.15943582,0.0421497
258,2.58,0.23209843,0.62503064,0.7426662,-0.28710666,-0.15943582,0.0421497
259,2.59,0.23209843,0.62503064,0.7426662,-0.28710666,-0.15943582,0.0421497
260,2.6,0.23209843,0.62503064,0.7426662,-0.28710666,-0.15943582,0.0421497
261,2.61,0.23209843,0.62503064,0.7426662,-0.23827906401433185,-0.12364364664720504,0.07816281805274045
262,2.62,0.23209843,0.62503064,0.7426662,-0.13218142417411397,-0.05604809883251683,0.11457279936056004
263,2.63,0.23209843,0.62503064,0.7426662,-0.05132652317521338,-0.03808034357101169,0.004402090292613237
264,2.64,0.23209843,0.62503064,0.7426662,-0.047647487,-0.03726278,-0.00061086525
265,2.65,0.23209843,0.62503064,0.7426662,-0.047647487,-0.03726278,-0.00061086525
266,2.66,0.22805529364763436,0.6083306719835515,0.7206926037433465,-0.047647487,-0.03726278,-0.00061086525
267,2.67,0.22648512,0.60184515,0.71215904,-0.10703045255166496,0.07171474096718176,0.030385735823889277
268,2.68,0.22648512,0.60184515,0.71215904,-0.15882497,0.16676621,0.057421334
269,2.69,0.22648512,0.60184515,0.71215904,-0.15882497,0.16676621,0.057421334
270,2.7,0.22648512,0.60184515,0.71215904,-0.15882497,0.16676621,0.057421334
271,2.71,0.22648512,0.60184515,0.71215904,-0.15882497,0.16676621,0.057421334
272,2.72,0.22648512,0.60184515,0.71215904,-0.15882497,0.16676621,0.057421334
273,2.73,0.2416309838670659,0.5999138144724565,0.7287279999986918,-0.15882497,0.16676621,0.057421334
274,2.74,0.26284966,0.5972081,0.75194037,-0.15882497,0.16676621,0.057421334
275,2.75,0.26284966,0.5972081,0.75194037,-0.1513868393062924,0.14629737072961108,0.050989868042993464
276,2.76,0.26284966,0.5972081,0.75194037,-0.08115320283366749,-0.04697713270836166,-0.009738460163525567
277,2.77,0.1621466564324193,0.21972505228273415,0.9353710006859056,-0.077579886,-0.05681047,-0.01282817
278,2.78,0.14252943,0.1461903,0.9711038,-0.077579886,-0.05681047,-0.01282817
279,2.79,0.14252943,0.1461903,0.9711038,-0.077579886,-0.05681047,-0.01282817
280,2.8,0.14252943,0.1461903,0.9711038,-0.077579886,-0.05681047,-0.01282817
281,2.81,0.14252943,0.1461903,0.9711038,-0.077579886,-0.05681047,-0.01282817
282,2.82,0.14252943,0.1461903,0.9711038,-0.077579886,-0.05681047,-0.01282817
283,2.83,0.23917485377818384,0.47522740116030887,0.801605443685661,-0.077579886,-0.05681047,-0.01282817
284,2.84,0.27041543,0.58158845,0.7468152,-0.05348590171936273,-0.017323104256080947,0.010931176279619604
285,2.85,0.27041543,0.58158845,0.7468152,-0.03359759,0.015271631,0.030543262
286,2.86,0.27041543,0.58158845,0.7468152,-0.03359759,0.015271631,0.030543262
287,2.87,0.27041543,0.58158845,0.7468152,-0.03359759,0.015271631,0.030543262
288,2.88,0.27041543,0.58158845,0.7468152,-0.03359759,0.015271631,0.030543262
289,2.89,0.2648684312210687,0.5930403153722402,0.7505728230485219,-0.03359759,0.015271631,0.030543262
290,2.9,0.26284966,0.5972081,0.75194037,-0.03359759,0.015271631,0.030543262
291,2.91,0.26284966,0.5972081,0.75194037,-0.03359759,0.015271631,0.030543262
292,2.92,0.26284966,0.5972081,0.75194037,-0.044330510691894726,-0.0023184346331844526,0.019959409352791557
293,2.93,0.24306828731752986,0.5881477877322249,0.7627167890698454,-0.077579886,-0.05681047,-0.01282817
294,2.94,0.035058974636871756,0.4928748581057497,0.8760352912718561,-0.077579886,-0.05681047,-0.01282817
295,2.95,0.0012202862,0.47737598,0.8944698,-0.077579886,-0.05681047,-0.01282817
296,2.96,0.0012202862,0.47737598,0.8944698,-0.077579886,-0.05681047,-0.01282817
297,2.97,0.0012202862,0.47737598,0.8944698,-0.077579886,-0.05681047,-0.01282817
298,2.98,0.0012202862,0.47737598,0.8944698,-0.077579886,-0.05681047,-0.01282817
299,2.99,0.0012202862,0.47737598,0.8944698,-0.077579886,-0.05681047,-0.01282817
300,3.0,0.0012202862,0.47737598,0.8944698,-0.077579886,-0.05681047,-0.01282817
301,3.01,0.0012202862,0.47737598,0.8944698,-0.09915746971139197,-0.003765570178421427,-0.00563564150748621
302,3.02,0.14027348180708551,0.5459113687307923,0.8205535315317651,-0.106901415,0.015271631,-0.0030543262
303,3.03,0.24088451,0.5954997,0.7670719,-0.106901415,0.015271631,-0.0030543262
304,3.04,0.24088451,0.5954997,0.7670719,-0.106901415,0.015271631,-0.0030543262
305,3.05,0.24088451,0.5954997,0.7670719,-0.106901415,0.015271631,-0.0030543262
306,3.06,0.24088451,0.5954997,0.7670719,-0.106901415,0.015271631,-0.0030543262
307,3.07,0.24045181834181292,0.5935093034798151,0.7696680570408008,-0.106901415,0.015271631,-0.0030543262
308,3.08,0.23966423,0.58988637,0.7743936,-0.106901415,0.015271631,-0.0030543262
309,3.09,0.23966423,0.58988637,0.7743936,-0.106901415,0.015271631,-0.0030543262
310,3.1,0.23966423,0.58988637,0.7743936,-0.106901415,0.015271631,-0.0030543262
311,3.11,0.2522555906443894,0.5938625974398554,0.7621998767625434,-0.106901415,0.015271631,-0.0030543262
312,3.12,0.26284966,0.5972081,0.75194037,-0.106901415,0.015271631,-0.0030543262
313,3.13,0.26284966,0.5972081,0.75194037,-0.106901415,0.015271631,-0.0030543262
314,3.14,0.26284966,0.5972081,0.75194037,-0.106901415,0.015271631,-0.0030543262
315,3.15,0.26284966,0.5972081,0.75194037,-0.106901415,0.015271631,-0.0030543262
316,3.16,0.26284966,0.5972081,0.75194037,-0.106901415,0.015271631,-0.0030543262
317,3.17,0.26284966,0.5972081,0.75194037,-0.106901415,0.015271631,-0.0030543262
318,3.18,0.26284966,0.5972081,0.75194037,-0.106901415,0.015271631,-0.0030543262
319,3.19,0.26284966,0.5972081,0.75194037,-0.106901415,0.015271631,-0.0030543262
320,3.2,0.26284966,0.5972081,0.75194037,-0.106901415,0.015271631,-0.0030543262
321,3.21,0.26284966,0.5972081,0.75194037,-0.106901415,0.015271631,-0.0030543262
322,3.22,0.26284966,0.5972081,0.75194037,-0.106901415,0.015271631,-0.0030543262
323,3.23,0.26284966,0.5972081,0.75194037,-0.106901415,0.015271631,-0.0030543262
324,3.24,0.2378436632205646,0.49049235385056456,0.8056504490200626,-0.07487231049872903,-0.0014775338186330284,-0.000997411250122289
325,3.25,0.16965367227333855,0.1994843277341673,0.9521149085038312,0.012469312602877234,-0.04715159382232994,0.004611683762107895
326,3.26,0.15888128,0.153512,0.9752528,0.026267206,-0.054367006,0.005497787
327,3.27,0.15888128,0.153512,0.9752528,0.026267206,-0.054367006,0.005497787
328,3.28,0.15888128,0.153512,0.9752528,0.026267206,-0.054367006,0.005497787
329,3.29,0.15888128,0.153512,0.9752528,0.026267206,-0.054367006,0.005497787
330,3.3,0.15888128,0.153512,0.9752528,0.026267206,-0.054367006,0.005497787
331,3.31,0.15888128,0.153512,0.9752528,0.026267206,-0.054367006,0.005497787
332,3.32,0.21206543293720978,0.36899134306984804,0.8597024502662561,0.026267206,-0.054367006,0.005497787
333,3.33,0.2677308,0.5945235,0.7387613,0.026267206,-0.054367006,0.005497787
334,3.34,0.2677308,0.5945235,0.7387613,0.026267206,-0.054367006,0.005497787
335,3.35,0.2677308,0.5945235,0.7387613,0.026267206,-0.054367006,0.005497787
336,3.36,0.2677308,0.5945235,0.7387613,0.026267206,-0.054367006,0.005497787
337,3.37,0.2677308,0.5945235,0.7387613,0.026267206,-0.054367006,0.005497787
338,3.38,0.2677308,0.5945235,0.7387613,0.026267206,-0.054367006,0.005497787
339,3.39,0.2677308,0.5945235,0.7387613,0.026267206,-0.054367006,0.005497787
340,3.4,0.2677308,0.5945235,0.7387613,0.026267206,-0.054367006,0.005497787
341,3.41,0.2677308,0.5945235,0.7387613,0.026267206,-0.054367006,0.005497787
342,3.42,0.2677308,0.5945235,0.7387613,0.026267206,-0.054367006,0.005497787
343,3.43,0.2677308,0.5945235,0.7387613,0.026267206,-0.054367006,0.005497787
344,3.44,0.2547036757297806,0.5940024093925478,0.7614806028142199,0.026267206,-0.054367006,0.005497787
345,3.45,0.23722363,0.5933032,0.7919658,0.026267206,-0.054367006,0.005497787
346,3.46,0.23878132461095075,0.5939804532178073,0.7873378663200016,0.04638298927820779,0.1875874383763389,0.003068071544275492
347,3.47,0.25159994308335626,0.5995537219106878,0.7492535616415085,0.21192028349761521,2.178684851411688,-0.016926602125699745
348,3.48,0.25406358,0.60062486,0.74193406,0.24373524,2.561358,-0.02076942
349,3.49,0.25406358,0.60062486,0.74193406,0.24373524,2.561358,-0.02076942
350,3.5,0.25406358,0.60062486,0.74193406,0.24373524,2.561358,-0.02076942
351,3.51,0.25406358,0.60062486,0.74193406,0.24373524,2.561358,-0.02076942
352,3.52,0.25406358,0.60062486,0.74193406,0.24373524,2.561358,-0.02076942
353,3.53,0.25406358,0.60062486,0.74193406,0.24373524,2.561358,-0.02076942
354,3.54,0.25406358,0.60062486,0.74193406,0.24373524,2.561358,-0.02076942
355,3.55,0.2505376211537243,0.5978612620859226,0.7550849744811049,0.24373524,2.561358,-0.02076942
356,3.56,0.24503349,0.5935472,0.77561396,0.24373524,2.561358,-0.02076942
357,3.57,0.24503349,0.5935472,0.77561396,0.24373524,2.561358,-0.02076942
358,3.58,0.24503349,0.5935472,0.77561396,0.24373524,2.561358,-0.02076942
359,3.59,0.24503349,0.5935472,0.77561396,-0.001997089842765471,0.2260535537602762,0.03798037723846046
360,3.6,0.24503349,0.5935472,0.77561396,-0.021991149,0.03604105,0.042760566
361,3.61,0.24503349,0.5935472,0.77561396,-0.021991149,0.03604105,0.042760566
362,3.62,0.24503349,0.5935472,0.77561396,-0.021209217496464927,0.07005506928374132,0.04842956996064646
363,3.63,0.24503349,0.5935472,0.77561396,-0.019547688,0.1423316,0.06047566
364,3.64,0.24503349,0.5935472,0.77561396,-0.019547688,0.1423316,0.06047566
365,3.65,0.24503349,0.5935472,0.77561396,-0.019547688,0.1423316,0.06047566
366,3.66,0.24503349,0.5935472,0.77561396,-0.019547688,0.1423316,0.06047566
367,3.67,0.24503349,0.5935472,0.77561396,-0.019547688,0.1423316,0.06047566
368,3.68,0.2463389991129744,0.592976048225665,0.7715342371265103,-0.019547688,0.1423316,0.06047566
369,3.69,0.2524531943921754,0.590301127424545,0.7524273445850193,-0.019547688,0.1423316,0.06047566
370,3.7,0.25284332,0.59013045,0.7512082,-0.055072106304927856,0.0535205616933547,0.02950565517765525
371,3.71,0.25284332,0.59013045,0.7512082,-0.06079919536421038,0.0013912866282848615,0.01028343210905643
372,3.72,0.25284332,0.59013045,0.7512082,-0.05681047,-0.012217305,0.004886922
373,3.73,0.25284332,0.59013045,0.7512082,-0.05681047,-0.012217305,0.004886922
374,3.74,0.25284332,0.59013045,0.7512082,-0.05681047,-0.012217305,0.004886922
375,3.75,0.25284332,0.59013045,0.7512082,-0.05681047,-0.012217305,0.004886922
376,3.76,0.25284332,0.59013045,0.7512082,-0.05681047,-0.012217305,0.004886922
377,3.77,0.25284332,0.59013045,0.7512082,-0.06452208171593357,0.01409289814902331,0.015320277716981509
378,3.78,0.25284332,0.59013045,0.7512082,-0.06719518,0.02321288,0.018936822
379,3.79,0.25284332,0.59013045,0.7512082,-0.06719518,0.02321288,0.018936822
380,3.8,0.25284332,0.59013045,0.7512082,-0.06719518,0.02321288,0.018936822
381,3.81,0.25284332,0.59013045,0.7512082,-0.06719518,0.02321288,0.018936822
382,3.82,0.25284332,0.59013045,0.7512082,-0.06232531349438468,0.016481006140394147,0.01850712810345122
383,3.83,0.25284332,0.59013045,0.7512082,-0.04642576,-0.005497787,0.017104227
384,3.84,0.25284332,0.59013045,0.7512082,-0.04642576,-0.005497787,0.017104227
385,3.85,0.25284332,0.59013045,0.7512082,-0.04642576,-0.005497787,0.017104227
386,3.86,0.25284332,0.59013045,0.7512082,-0.04772690048546942,0.024753741002146203,0.030115638777183693
387,3.87,0.25284332,0.59013045,0.7512082,-0.04886922,0.05131268,0.04153884
388,3.88,0.19835296216711376,0.5584431186014145,0.780467156196806,-0.04886922,0.05131268,0.04153884
389,3.89,0.02831064,0.4595598,0.8717725,-0.04886922,0.05131268,0.04153884
390,3.9,0.02831064,0.4595598,0.8717725,-0.04886922,0.05131268,0.04153884
391,3.91,0.02831064,0.4595598,0.8717725,-0.04886922,0.05131268,0.04153884
392,3.92,0.02831064,0.4595598,0.8717725,-0.04886922,0.05131268,0.04153884
393,3.93,0.02831064,0.4595598,0.8717725,-0.061909361832927536,0.031317799651199865,0.02545599793167827
394,3.94,0.02831064,0.4595598,0.8717725,-0.06719518,0.02321288,0.018936822
395,3.95,0.02831064,0.4595598,0.8717725,-0.06719518,0.02321288,0.018936822
396,3.96,0.07952785651026395,0.49280900698530417,0.8459679778395574,-0.06719518,0.02321288,0.018936822
397,3.97,0.2111190856297365,0.578235438028606,0.7796690061402106,-0.06719518,0.02321288,0.018936822
398,3.98,0.25162303,0.6045298,0.7592621,-0.06719518,0.02321288,0.018936822
399,3.99,0.25162303,0.6045298,0.7592621,-0.06719518,0.02321288,0.018936822
400,4.0,0.25162303,0.6045298,0.7592621,-0.06719518,0.02321288,0.018936822
401,4.01,0.25162303,0.6045298,0.7592621,-0.06719518,0.02321288,0.018936822
402,4.02,0.25162303,0.6045298,0.7592621,-0.06719518,0.02321288,0.018936822
403,4.03,0.25162303,0.6045298,0.7592621,-1.852199851238781,-0.6938089848180422,0.5003069393615074
404,4.04,0.24447420973523723,0.5924827341889644,0.7597916265714447,-2.4501805,-0.93401295,0.66156703
405,4.05,0.23844394,0.58232063,0.7602383,-2.4501805,-0.93401295,0.66156703
406,4.06,0.23844394,0.58232063,0.7602383,-1.7113694845676768,-0.34951919762014855,0.8573087059955609
407,4.07,0.2387799410735219,0.5825528660777939,0.7597837095500886,0.52412236,1.41904,1.4495832
408,4.08,0.25469909260383305,0.5935558110221472,0.7382459978382837,0.52412236,1.41904,1.4495832
409,4.09,0.23604924579656236,0.5865364296721837,0.7657374661006493,0.52412236,1.41904,1.4495832
410,4.1,0.23331872,0.5854933,0.76975656,0.52412236,1.41904,1.4495832
411,4.11,0.23331872,0.5854933,0.76975656,0.52412236,1.41904,1.4495832
412,4.12,0.2410449145068634,0.5967760109377095,0.7749073730878016,0.52412236,1.41904,1.4495832
413,4.13,0.24869433,0.6079466,0.780007,0.52412236,1.41904,1.4495832
414,4.14,0.2459669999653499,0.6058535358162167,0.7809583916295255,0.52412236,1.41904,1.4495832
415,4.15,0.2277054,0.59183884,0.7873287,0.5135097935178782,1.3930789643814658,1.4248896817763963
416,4.16,0.2277054,0.59183884,0.7873287,0.06596977696688347,0.29828230704389436,0.38354519897751854
417,4.17,0.2277054,0.59183884,0.7873287,-0.03848451,0.042760566,0.14049901
418,4.18,0.2277054,0.59183884,0.7873287,-0.03848451,0.042760566,0.14049901
419,4.19,0.2277054,0.59183884,0.7873287,-0.03848451,0.042760566,0.14049901
420,4.2,0.2277054,0.59183884,0.7873287,-0.03848451,0.042760566,0.14049901
421,4.21,0.2277054,0.59183884,0.7873287,-0.03848451,0.042760566,0.14049901
422,4.22,0.2277054,0.59183884,0.7873287,-0.03848451,0.042760566,0.14049901
423,4.23,0.2277054,0.59183884,0.7873287,-0.03848451,0.042760566,0.14049901
424,4.24,0.2317046977702414,0.5857709590298873,0.7729864071222087,-0.03848451,0.042760566,0.14049901
425,4.25,0.23478307,0.58110034,0.76194674,-0.03848451,0.042760566,0.14049901
426,4.26,0.23478307,0.58110034,0.76194674,-0.04303512638943422,0.03966227465789221,0.12123150822981199
427,4.27,0.23478307,0.58110034,0.76194674,-0.06590151797815447,0.024093670973988474,0.02441424157634729
428,4.28,0.23478307,0.58110034,0.76194674,-0.06719518,0.02321288,0.018936822
429,4.29,0.23478307,0.58110034,0.76194674,-0.04848808799938619,0.08642994023382236,0.03893405649224695
430,4.3,0.23478307,0.58110034,0.76194674,0.005606652804360503,0.16033323348376577,0.015183639142112803
431,4.31,0.23478307,0.58110034,0.76194674,0.09162979,0.2003638,-0.080634214
432,4.32,0.23478307,0.58110034,0.76194674,0.09162979,0.2003638,-0.080634214
433,4.33,0.23478307,0.58110034,0.76194674,0.09162979,0.2003638,-0.080634214
434,4.34,0.23478307,0.58110034,0.76194674,0.09162979,0.2003638,-0.080634214
435,4.35,0.23478307,0.58110034,0.76194674,0.057331243376876596,0.1713288909769736,-0.037506338229466675
436,4.36,0.23478307,0.58110034,0.76194674,-0.03176499,0.09590584,0.07452556
437,4.37,0.23478307,0.58110034,0.76194674,-0.03176499,0.09590584,0.07452556
438,4.38,0.23478307,0.58110034,0.76194674,-0.03176499,0.09590584,0.07452556
439,4.39,0.23478307,0.58110034,0.76194674,-0.03176499,0.09590584,0.07452556
440,4.4,0.23478307,0.58110034,0.76194674,-0.029454042338514477,0.06335998178767706,0.05911923595163941
441,4.41,0.23478307,0.58110034,0.76194674,-0.02443461,-0.007330383,0.02565634
442,4.42,0.23478307,0.58110034,0.76194674,-0.02443461,-0.007330383,0.02565634
443,4.43,0.2474372374368047,0.5987061009278121,0.7599294024251161,-0.02443461,-0.007330383,0.02565634
444,4.44,0.25162303,0.6045298,0.7592621,-0.02443461,-0.007330383,0.02565634
445,4.45,0.25162303,0.6045298,0.7592621,-0.02443461,-0.007330383,0.02565634
446,4.46,0.25162303,0.6045298,0.7592621,-0.02443461,-0.007330383,0.02565634
447,4.47,0.25162303,0.6045298,0.7592621,-0.03404389636555693,0.009554504294313856,0.02565634
448,4.48,0.25162303,0.6045298,0.7592621,-0.06719518,0.06780604,0.02565634
449,4.49,0.25162303,0.6045298,0.7592621,-0.06719518,0.06780604,0.02565634
450,4.5,0.25162303,0.6045298,0.7592621,-0.06719518,0.06780604,0.02565634
451,4.51,0.25162303,0.6045298,0.7592621,-0.06719518,0.06780604,0.02565634
452,4.52,0.25162303,0.6045298,0.7592621,-0.06719518,0.06780604,0.02565634
453,4.53,0.25162303,0.6045298,0.7592621,-0.06719518,0.06780604,0.02565634
454,4.54,0.25162303,0.6045298,0.7592621,-0.06409247294459738,0.06885548527510245,0.03697209417660328
455,4.55,0.25162303,0.6045298,0.7592621,-0.02593093033867114,0.08176306883465095,0.17614947296804045
456,4.56,0.25162303,0.6045298,0.7592621,-0.02565634,0.081855945,0.17715092
457,4.57,0.25162303,0.6045298,0.7592621,-0.02565634,0.081855945,0.17715092
458,4.58,0.25162303,0.6045298,0.7592621,-0.02565634,0.081855945,0.17715092
459,4.59,0.25162303,0.6045298,0.7592621,-0.02565634,0.081855945,0.17715092
460,4.6,0.25162303,0.6045298,0.7592621,-0.02565634,0.081855945,0.17715092
461,4.61,0.25162303,0.6045298,0.7592621,-0.02565634,0.081855945,0.17715092
462,4.62,0.25162303,0.6045298,0.7592621,-0.02565634,0.081855945,0.17715092
463,4.63,0.25162303,0.6045298,0.7592621,-0.02565634,0.081855945,0.17715092
464,4.64,0.2412610299748814,0.6027866563229812,0.7755313986605299,-0.02565634,0.081855945,0.17715092
465,4.65,0.19473421682369177,0.5538656092886924,0.8284192745993145,-0.02565634,0.081855945,0.17715092
466,4.66,0.06163079252788684,0.3537384927722283,0.9501948058278481,-0.02565634,0.081855945,0.17715092
467,4.67,0.05344854,0.3414361,0.9576807,-0.02565634,0.081855945,0.17715092
468,4.68,0.05344854,0.3414361,0.9576807,-0.02565634,0.081855945,0.17715092
469,4.69,0.05344854,0.3414361,0.9576807,-0.02565634,0.081855945,0.17715092
470,4.7,0.05344854,0.3414361,0.9576807,-0.02565634,0.081855945,0.17715092
471,4.71,0.05344854,0.3414361,0.9576807,-0.02000917833358465,0.09231980207037963,0.1859538491677422
472,4.72,0.05344854,0.3414361,0.9576807,-0.004886922,0.12034045,0.20952678
473,4.73,0.05344854,0.3414361,0.9576807,-0.004886922,0.12034045,0.20952678
474,4.74,0.05344854,0.3414361,0.9576807,-0.004886922,0.12034045,0.20952678
475,4.75,0.05344854,0.3414361,0.9576807,-0.004886922,0.12034045,0.20952678
476,4.76,0.05344854,0.3414361,0.9576807,-0.004886922,0.12034045,0.20952678
477,4.77,0.05344854,0.3414361,0.9576807,-0.004886922,0.12034045,0.20952678
478,4.78,0.05344854,0.3414361,0.9576807,-0.004886922,0.12034045,0.20952678
479,4.79,0.05344854,0.3414361,0.9576807,-0.004886922,0.12034045,0.20952678
480,4.8,0.05344854,0.3414361,0.9576807,-0.004886922,0.12034045,0.20952678
481,4.81,0.05344854,0.3414361,0.9576807,-0.004886922,0.12034045,0.20952678
482,4.82,0.1415620768697626,0.47391885281501167,0.8770661491910431,-0.004886922,0.12034045,0.20952678
483,4.83,0.2255089,0.60013676,0.8002637,-0.004886922,0.12034045,0.20952678
484,4.84,0.2255089,0.60013676,0.8002637,-0.004886922,0.12034045,0.20952678
485,4.85,0.22571440047891905,0.599705212109738,0.7996471994052613,-0.004886922,0.12034045,0.20952678
486,4.86,0.22793793644200974,0.5950358202969263,0.7929766006267132,-0.004886922,0.12034045,0.20952678
487,4.87,0.22794947,0.5950116,0.792942,-0.004886922,0.12034045,0.20952678
488,4.88,0.22794947,0.5950116,0.792942,0.07279960386503855,0.19785121255964372,0.27754642995121903
489,4.89,0.22794947,0.5950116,0.792942,0.26511553,0.38973203,0.44593164
490,4.9,0.22794947,0.5950116,0.792942,0.26511553,0.38973203,0.44593164
491,4.91,0.22621543996952154,0.5986530367754284,0.7981440829864148,0.26511553,0.38973203,0.44593164
492,4.92,0.2255089,0.60013676,0.8002637,0.09762343717602866,0.2226188827336326,0.2992813245607982
493,4.93,0.2255089,0.60013676,0.8002637,-0.004886922,0.12034045,0.20952678
494,4.94,0.2255089,0.60013676,0.8002637,-0.004886922,0.12034045,0.20952678
495,4.95,0.2253726920176198,0.597344538218121,0.7877327023536107,-0.004886922,0.12034045,0.20952678
496,4.96,0.22502078,0.59013045,0.75535715,-0.004886922,0.12034045,0.20952678
497,4.97,0.22502078,0.59013045,0.75535715,-0.004886922,0.12034045,0.20952678
498,4.98,0.22502078,0.59013045,0.75535715,-0.004886922,0.12034045,0.20952678
499,4.99,0.22502078,0.59013045,0.75535715,-0.004886922,0.12034045,0.20952678
500,5.0,0.17300980307488653,0.5469784786063294,0.7816484171065544,-0.004886922,0.12034045,0.20952678
501,5.01,0.002928687,0.4058672,0.8676235,-0.004886922,0.12034045,0.20952678
502,5.02,0.002928687,0.4058672,0.8676235,-0.004886922,0.12034045,0.20952678
503,5.03,0.002928687,0.4058672,0.8676235,-0.004886922,0.12034045,0.20952678
504,5.04,0.002928687,0.4058672,0.8676235,-0.018174418978702693,0.16361972629964897,0.2812792676624899
505,5.05,0.1034484985946192,0.4800554383279878,0.8232150529068406,-0.026267206,0.18997909,0.32498032
506,5.06,0.23771177,0.5791479,0.76389915,-0.026267206,0.18997909,0.32498032
507,5.07,0.23771177,0.5791479,0.76389915,-0.026267206,0.18997909,0.32498032
508,5.08,0.23771177,0.5791479,0.76389915,-0.026267206,0.18997909,0.32498032
509,5.09,0.23771177,0.5791479,0.76389915,-0.017725488093550498,0.368500988558382,0.316153870363939
510,5.1,0.23771177,0.5791479,0.76389915,-0.007941248,0.5729916,0.30604348
511,5.11,0.23771177,0.5791479,0.76389915,-0.007941248,0.5729916,0.30604348
512,5.12,0.23771177,0.5791479,0.76389915,-0.007941248,0.5729916,0.30604348
513,5.13,0.23771177,0.5791479,0.76389915,-0.007941248,0.5729916,0.30604348
514,5.14,0.23771177,0.5791479,0.76389915,-0.021213460613600455,0.41742893148932037,0.31715510531483954
515,5.15,0.23771177,0.5791479,0.76389915,-0.02486915696019508,0.21900274584937918,0.29028831398635185
516,5.16,0.23771177,0.5791479,0.76389915,-0.004886922,0.12034045,0.20952678
517,5.17,0.23771177,0.5791479,0.76389915,-0.004886922,0.12034045,0.20952678
518,5.18,0.23771177,0.5791479,0.76389915,-0.004886922,0.12034045,0.20952678
519,5.19,0.23771177,0.5791479,0.76389915,-0.004886922,0.12034045,0.20952678
520,5.2,0.23771177,0.5791479,0.76389915,-0.004886922,0.12034045,0.20952678
521,5.21,0.23859513792258064,0.5877165583524393,0.7790931057766994,-0.004886922,0.12034045,0.20952678
522,5.22,0.24015234,0.6028214,0.80587703,-0.013082597548905023,0.18458008411836146,0.214468291075649
523,5.23,0.24015234,0.6028214,0.80587703,-0.044823627678029415,0.4333737497372087,0.2336062682929795
524,5.24,0.24015234,0.6028214,0.80587703,-0.04642576,0.44593164,0.23457226
525,5.25,0.24015234,0.6028214,0.80587703,-0.04642576,0.44593164,0.23457226
526,5.26,0.24015234,0.6028214,0.80587703,-0.04642576,0.44593164,0.23457226
527,5.27,0.24015234,0.6028214,0.80587703,-0.04642576,0.44593164,0.23457226
528,5.28,0.24015234,0.6028214,0.80587703,-0.04642576,0.44593164,0.23457226
529,5.29,0.24015234,0.6028214,0.80587703,-0.04642576,0.44593164,0.23457226
530,5.3,0.24015234,0.6028214,0.80587703,-0.04642576,0.44593164,0.23457226
531,5.31,0.24015234,0.6028214,0.80587703,-0.04642576,0.44593164,0.23457226
532,5.32,0.24015234,0.6028214,0.80587703,-0.04642576,0.44593164,0.23457226
533,5.33,0.23964153924249007,0.6045163227377097,0.8028818817036747,-0.04642576,0.44593164,0.23457226
534,5.34,0.23492592673791912,0.6201635173409216,0.7752312595157824,-0.04642576,0.44593164,0.23457226
535,5.35,0.23478307,0.62063754,0.7743936,-0.04642576,0.44593164,0.23457226
536,5.36,0.23478307,0.62063754,0.7743936,-0.03945376102582528,0.548420003120934,0.23213205870410797
537,5.37,0.23478307,0.62063754,0.7743936,-0.01851583115024445,0.4415435340680979,0.26059920116280505
538,5.38,0.23478307,0.62063754,0.7743936,0.0012217305,0.21013765,0.29871312
539,5.39,0.23478307,0.62063754,0.7743936,0.0012217305,0.21013765,0.29871312
540,5.4,0.23478307,0.62063754,0.7743936,0.0012217305,0.21013765,0.29871312
541,5.41,0.23478307,0.62063754,0.7743936,0.0012217305,0.21013765,0.29871312
542,5.42,0.23478307,0.62063754,0.7743936,0.0012217305,0.21013765,0.29871312
543,5.43,0.23478307,0.62063754,0.7743936,-0.002949830946751005,0.37533148392870747,0.30205035877741343
544,5.44,0.23478307,0.62063754,0.7743936,-0.007941248,0.5729916,0.30604348
545,5.45,0.23478307,0.62063754,0.7743936,-0.007941248,0.5729916,0.30604348
546,5.46,0.23478307,0.62063754,0.7743936,-0.007941248,0.5729916,0.30604348
547,5.47,0.23478307,0.62063754,0.7743936,-0.007941248,0.5729916,0.30604348
548,5.48,0.23478307,0.62063754,0.7743936,-0.007941248,0.5729916,0.30604348
549,5.49,0.2632214829296266,0.5820320281081593,0.7742462489896806,-0.007941248,0.5729916,0.30604348
550,5.5,0.2818861,0.55669457,0.77414954,-0.007941248,0.5729916,0.30604348
551,5.51,0.2818861,0.55669457,0.77414954,-0.007941248,0.5729916,0.30604348
552,5.52,0.2818861,0.55669457,0.77414954,-0.007941248,0.5729916,0.30604348
553,5.53,0.2818861,0.55669457,0.77414954,-0.23506014174252723,0.21737625547476286,0.5155443939992035
554,5.54,0.2818861,0.55669457,0.77414954,-0.7324274,-0.56138515,0.97433007
555,5.55,0.2818861,0.55669457,0.77414954,-0.7324274,-0.56138515,0.97433007
556,5.56,0.2818861,0.55669457,0.77414954,-0.7324274,-0.56138515,0.97433007
557,5.57,0.2818861,0.55669457,0.77414954,-0.7324274,-0.56138515,0.97433007
558,5.58,0.2818861,0.55669457,0.77414954,-0.38154496057323933,-0.011984888628267727,0.6506661486288826
559,5.59,0.2818861,0.55669457,0.77414954,-0.007941248,0.5729916,0.30604348
560,5.6,0.2818861,0.55669457,0.77414954,-0.007941248,0.5729916,0.30604348
561,5.61,0.2818861,0.55669457,0.77414954,-0.007941248,0.5729916,0.30604348
562,5.62,0.2818861,0.55669457,0.77414954,-0.007941248,0.5729916,0.30604348
563,5.63,0.2818861,0.55669457,0.77414954,-0.007941248,0.5729916,0.30604348
564,5.64,0.2818861,0.55669457,0.77414954,-0.007941248,0.5729916,0.30604348
565,5.65,0.2818861,0.55669457,0.77414954,-0.007941248,0.5729916,0.30604348
566,5.66,0.2818861,0.55669457,0.77414954,-0.007941248,0.5729916,0.30604348
567,5.67,0.22591197097930027,0.5973333399282486,0.7537024032705061,-0.007941248,0.5729916,0.30604348
568,5.68,0.22605304632755938,0.5549392219723969,0.6247502747685264,-0.007941248,0.5729916,0.30604348
569,5.69,0.28980195844233636,0.3800816628770011,0.5031796350842151,-0.007941248,0.5729916,0.30604348
570,5.7,0.1357463441244628,0.21947051201853135,0.9215784801008908,-0.007941248,0.5729916,0.30604348
571,5.71,0.12398108,0.2072046,0.9535317,-0.007941248,0.5729916,0.30604348
572,5.72,0.12398108,0.2072046,0.9535317,-0.007941248,0.5729916,0.30604348
573,5.73,0.12398108,0.2072046,0.9535317,-0.007941248,0.5729916,0.30604348
574,5.74,0.12398108,0.2072046,0.9535317,-0.007941248,0.5729916,0.30604348
575,5.75,0.12398108,0.2072046,0.9535317,-0.007941248,0.5729916,0.30604348
576,5.76,0.12398108,0.2072046,0.9535317,-0.007941248,0.5729916,0.30604348
577,5.77,0.12398108,0.2072046,0.9535317,-0.007941248,0.5729916,0.30604348
578,5.78,0.12398108,0.2072046,0.9535317,-0.007941248,0.5729916,0.30604348
579,5.79,0.12398108,0.2072046,0.9535317,0.032927880488714124,0.47177664635285493,0.22834956339073237
580,5.8,0.12398108,0.2072046,0.9535317,0.18322612189586818,0.09955364821690525,-0.057373657686311974
581,5.81,0.12398108,0.2072046,0.9535317,-0.20869467969141667,-0.2210729430161287,0.4155968574025297
582,5.82,0.12398108,0.2072046,0.9535317,-0.5656612,-0.39584067,0.87109387
583,5.83,0.1372970227986312,0.23190917763037217,0.9330321522775348,-0.5656612,-0.39584067,0.87109387
584,5.84,0.23185863162454337,0.4073458433941186,0.7874570141026296,-0.5656612,-0.39584067,0.87109387
585,5.85,0.23527117,0.413677,0.7822035,-0.5656612,-0.39584067,0.87109387
586,5.86,0.23527117,0.413677,0.7822035,-0.25505929665320465,-0.1574634915478727,0.39042582970530504
587,5.87,0.23527117,0.413677,0.7822035,-0.032375857,0.013439035,0.045814894
588,5.88,0.23580249443766876,0.4212926369691268,0.6825805942738548,-0.032375857,0.013439035,0.045814894
589,5.89,0.23673552,0.43466598,0.50763905,-0.032375857,0.013439035,0.045814894
590,5.9,0.23673552,0.43466598,0.50763905,-0.032375857,0.013439035,0.045814894
591,5.91,0.23673552,0.43466598,0.50763905,-0.032375857,0.013439035,0.045814894
592,5.92,0.23673552,0.43466598,0.50763905,-0.032375857,0.013439035,0.045814894
593,5.93,0.23673552,0.43466598,0.50763905,-0.032375857,0.013439035,0.045814894
594,5.94,0.23673552,0.43466598,0.50763905,-0.1735545298393359,-0.10248516567596778,0.2330675921329179
595,5.95,0.23673552,0.43466598,0.50763905,-0.7919515510082799,-0.5664718203493045,0.9617986699908988
596,5.96,0.23673552,0.43466598,0.50763905,-1.736640459251645,-0.6472007510015021,0.7629167977956605
597,5.97,0.23673552,0.43466598,0.50763905,-1.8118263,-0.6536258,0.7470882
598,5.98,0.23673552,0.43466598,0.50763905,-1.8118263,-0.6536258,0.7470882
599,5.99,0.23673552,0.43466598,0.50763905,-1.8118263,-0.6536258,0.7470882
600,6.0,0.25033585805450115,0.4535926747255113,0.6363510196901025,-1.8118263,-0.6536258,0.7470882
601,6.01,0.30092257,0.52399087,1.1150976,-1.8118263,-0.6536258,0.7470882
602,6.02,0.30092257,0.52399087,1.1150976,-1.8118263,-0.6536258,0.7470882
603,6.03,0.30092257,0.52399087,1.1150976,-1.8118263,-0.6536258,0.7470882
604,6.04,0.30092257,0.52399087,1.1150976,-1.1361436880111924,-0.19417077661920862,0.5818857398526267
605,6.05,0.30092257,0.52399087,1.1150976,-0.007941248,0.5729916,0.30604348
606,6.06,0.3011984935081272,0.5222570300276077,1.104537951776618,-0.007941248,0.5729916,0.30604348
607,6.07,0.3153423519583924,0.4333802709889401,0.5632496404985636,-0.007941248,0.5729916,0.30604348
608,6.08,0.31898284,0.41050428,0.42392743,-0.6495920075587488,-0.3458772855578381,0.7448422942563354
609,6.09,0.31898284,0.41050428,0.42392743,-1.0146471,-0.8686504,0.9944886
610,6.1,0.2585547682454606,0.44724109969206965,0.4845400996204413,-1.0146471,-0.8686504,0.9944886
611,6.11,0.079318605,0.55620646,0.6643238,-1.0146471,-0.8686504,0.9944886
612,6.12,0.079318605,0.55620646,0.6643238,-1.0146471,-0.8686504,0.9944886
613,6.13,0.079318605,0.55620646,0.6643238,-1.0146471,-0.8686504,0.9944886
614,6.14,0.079318605,0.55620646,0.6643238,-1.0146471,-0.8686504,0.9944886
615,6.15,0.079318605,0.55620646,0.6643238,-1.0146471,-0.8686504,0.9944886
616,6.16,0.079318605,0.55620646,0.6643238,-1.0146471,-0.8686504,0.9944886
617,6.17,0.079318605,0.55620646,0.6643238,-1.0146471,-0.8686504,0.9944886
618,6.18,0.079318605,0.55620646,0.6643238,-1.0146471,-0.8686504,0.9944886
619,6.19,0.079318605,0.55620646,0.6643238,-0.8128391936834528,-0.6833565714977056,0.7382401217810656
620,6.2,0.079318605,0.55620646,0.6643238,-0.1408323368562422,-0.06634049143396205,-0.11505020543017579
621,6.21,0.079318605,0.55620646,0.6643238,-0.1337795,-0.059864793,-0.124005646
622,6.22,0.079318605,0.55620646,0.6643238,-0.3741136233826701,-0.3033612190745,0.4627750665263595
623,6.23,0.079318605,0.55620646,0.6643238,-0.5516113,-0.4831944,0.8961393
624,6.24,0.09932531043450901,0.5725384698137332,0.6791246900366278,-0.5516113,-0.4831944,0.8961393
625,6.25,0.17498904,0.6343048,0.73510045,-0.5516113,-0.4831944,0.8961393
626,6.26,0.17498904,0.6343048,0.73510045,-0.5516113,-0.4831944,0.8961393
627,6.27,0.17498904,0.6343048,0.73510045,-0.5516113,-0.4831944,0.8961393
628,6.28,0.17498904,0.6343048,0.73510045,-0.5516113,-0.4831944,0.8961393
629,6.29,0.17498904,0.6343048,0.73510045,-0.5516113,-0.4831944,0.8961393
630,6.3,0.17498904,0.6343048,0.73510045,-0.5516113,-0.4831944,0.8961393
631,6.31,0.17498904,0.6343048,0.73510045,-0.5516113,-0.4831944,0.8961393
632,6.32,0.17498904,0.6343048,0.73510045,-0.2829493709815684,-0.22837798288040156,0.44512897185741157
633,6.33,0.17498904,0.6343048,0.73510045,0.005497787,0.04520403,-0.039095376
634,6.34,0.17498904,0.6343048,0.73510045,0.005497787,0.04520403,-0.039095376
635,6.35,0.17498904,0.6343048,0.73510045,0.005497787,0.04520403,-0.039095376
636,6.36,0.17498904,0.6343048,0.73510045,0.005497787,0.04520403,-0.039095376
637,6.37,0.17498904,0.6343048,0.73510045,-0.5936488079969031,-0.19893884904570922,0.3208908127388171
638,6.38,0.17498904,0.6343048,0.73510045,-1.4636332,-0.5534439,0.8436049
639,6.39,0.17498904,0.6343048,0.73510045,-1.4636332,-0.5534439,0.8436049
640,6.4,0.17498904,0.6343048,0.73510045,-1.4636332,-0.5534439,0.8436049
641,6.41,0.24940117018532074,0.5785145421368276,0.763297126553028,-1.4636332,-0.5534439,0.8436049
642,6.42,0.4050059780588744,0.4567829826192364,0.8674092335531121,-1.4636332,-0.5534439,0.8436049
643,6.43,0.3576958270451704,0.4701937197855085,1.046033023733537,-1.4636332,-0.5534439,0.8436049
644,6.44,0.353883,0.47127452,1.0604287,-1.4636332,-0.5534439,0.8436049
645,6.45,0.353883,0.47127452,1.0604287,-1.2318143252289908,-0.5466776145739096,0.862138653416878
646,6.46,0.353883,0.47127452,1.0604287,-0.9822713,-0.539394,0.88208944
647,6.47,0.353883,0.47127452,1.0604287,-0.9822713,-0.539394,0.88208944
648,6.48,0.353883,0.47127452,1.0604287,-0.9822713,-0.539394,0.88208944
649,6.49,0.3617482632170267,0.4494266422136949,0.8827323997593485,-0.9822713,-0.539394,0.88208944
650,6.5,0.36706212,0.43466598,0.76267886,-0.9822713,-0.539394,0.88208944
651,6.51,0.36706212,0.43466598,0.76267886,-0.988755420015309,-0.6053364018374405,0.9046003785114785
652,6.52,0.36706212,0.43466598,0.76267886,-1.0137428056889122,-0.8594538800866945,0.9913491587828245
653,6.53,0.36706212,0.43466598,0.76267886,-1.0146471,-0.8686504,0.9944886
654,6.54,0.3946311538502202,0.4361428970903337,0.7607096596258733,-1.0146471,-0.8686504,0.9944886
655,6.55,0.4080637,0.4368625,0.7597502,-0.503017228833012,-0.4290387682783689,0.4882600735561685
656,6.56,0.4080637,0.4368625,0.7597502,0.02687807,0.026267206,-0.03604105
657,6.57,0.4080637,0.4368625,0.7597502,-0.04535354232969258,0.1554687656014847,0.0696407988816452
658,6.58,0.4080637,0.4368625,0.7597502,-0.3805515451807135,0.7550414920966395,0.5600679614519707
659,6.59,0.4080637,0.4368625,0.7597502,-0.39522982,0.7812967,0.5815437
660,6.6,0.4080637,0.4368625,0.7597502,-0.39522982,0.7812967,0.5815437
661,6.61,0.4080637,0.4368625,0.7597502,-0.39522982,0.7812967,0.5815437
662,6.62,0.4080637,0.4368625,0.7597502,-0.39522982,0.7812967,0.5815437
663,6.63,0.4080637,0.4368625,0.7597502,-0.39522982,0.7812967,0.5815437
664,6.64,0.4080637,0.4368625,0.7597502,-0.39522982,0.7812967,0.5815437
665,6.65,0.4080637,0.4368625,0.7597502,-0.39522982,0.7812967,0.5815437
666,6.66,0.4080637,0.4368625,0.7597502,-0.39522982,0.7812967,0.5815437
667,6.67,0.4080637,0.4368625,0.7597502,-0.39522982,0.7812967,0.5815437
668,6.68,0.4080637,0.4368625,0.7597502,-0.39522982,0.7812967,0.5815437
669,6.69,0.4080637,0.4368625,0.7597502,-0.39522982,0.7812967,0.5815437
670,6.7,0.4080637,0.4368625,0.7597502,-0.39522982,0.7812967,0.5815437
671,6.71,0.4080637,0.4368625,0.7597502,-0.39522982,0.7812967,0.5815437
672,6.72,0.4080637,0.4368625,0.7597502,-0.39522982,0.7812967,0.5815437
673,6.73,0.4080637,0.4368625,0.7597502,-0.4102078357241105,0.8081959880307833,0.5952990253626665
674,6.74,0.4080637,0.4368625,0.7597502,-0.4251622,0.8350528,0.60903263
675,6.75,0.4080637,0.4368625,0.7597502,-0.4251622,0.8350528,0.60903263
676,6.76,0.4080637,0.4368625,0.7597502,-0.4251622,0.8350528,0.60903263
677,6.77,0.4080637,0.4368625,0.7597502,-0.3418880959463639,1.0575313775137694,0.7080501196500188
678,6.78,0.4080637,0.4368625,0.7597502,0.09016508135709252,1.2846511251531527,1.0849051372374137
679,6.79,0.3818975541175729,0.43168239031562117,0.8023864225133274,0.52412236,1.41904,1.4495832
680,6.8,0.31190515,0.417826,0.916435,0.52412236,1.41904,1.4495832
681,6.81,0.31190515,0.417826,0.916435,0.52412236,1.41904,1.4495832
682,6.82,0.3422258497043327,0.4025549939694676,0.8493752701964938,0.52412236,1.41904,1.4495832
683,6.83,0.24896753236081925,0.41085433909431873,1.0089870278715856,0.52412236,1.41904,1.4495832
684,6.84,0.23331872,0.41245672,1.036023,0.52412236,1.41904,1.4495832
685,6.85,0.23331872,0.41245672,1.036023,0.52412236,1.41904,1.4495832
686,6.86,0.23331872,0.41245672,1.036023,0.52412236,1.41904,1.4495832
687,6.87,0.23331872,0.41245672,1.036023,0.52412236,1.41904,1.4495832
688,6.88,0.25624584002826456,0.4101090671233168,0.9964125194231518,0.52412236,1.41904,1.4495832
689,6.89,0.345341,0.40098605,0.84248555,0.52412236,1.41904,1.4495832
690,6.9,0.345341,0.40098605,0.84248555,0.52412236,1.41904,1.4495832
691,6.91,0.27240270547893486,0.4093957681657509,0.8025393638631306,0.52412236,1.41904,1.4495832
692,6.92,0.23527117,0.413677,0.7822035,0.52412236,1.41904,1.4495832
693,6.93,0.23527117,0.413677,0.7822035,0.52412236,1.41904,1.4495832
694,6.94,0.23527117,0.413677,0.7822035,0.52412236,1.41904,1.4495832
695,6.95,0.23527117,0.413677,0.7822035,0.52412236,1.41904,1.4495832
696,6.96,0.23527117,0.413677,0.7822035,0.52412236,1.41904,1.4495832
697,6.97,0.23527117,0.413677,0.7822035,0.52412236,1.41904,1.4495832
698,6.98,0.23527117,0.413677,0.7822035,0.52412236,1.41904,1.4495832
699,6.99,0.23527117,0.413677,0.7822035,0.52412236,1.41904,1.4495832
700,7.0,0.23527117,0.413677,0.7822035,0.52412236,1.41904,1.4495832
701,7.01,0.23527117,0.413677,0.7822035,0.52412236,1.41904,1.4495832
702,7.02,0.16435156473922732,0.4517767105106145,0.8412793614174487,0.52412236,1.41904,1.4495832
703,7.03,0.113974735,0.47884035,0.88324314,0.52412236,1.41904,1.4495832
704,7.04,0.113974735,0.47884035,0.88324314,0.52412236,1.41904,1.4495832
705,7.05,0.113974735,0.47884035,0.88324314,0.4927587486362323,1.387021272507836,1.380468610660309
706,7.06,0.113974735,0.47884035,0.88324314,-0.06507570390186924,0.817534898174305,0.15119374624716214
707,7.07,0.113974735,0.47884035,0.88324314,-0.1777618,0.70249504,-0.09712757
708,7.08,0.113974735,0.47884035,0.88324314,-0.1777618,0.70249504,-0.09712757
709,7.09,0.113974735,0.47884035,0.88324314,-0.1777618,0.70249504,-0.09712757
710,7.1,0.113974735,0.47884035,0.88324314,-0.1777618,0.70249504,-0.09712757
711,7.11,0.113974735,0.47884035,0.88324314,-0.1777618,0.70249504,-0.09712757
712,7.12,0.113974735,0.47884035,0.88324314,-0.1777618,0.70249504,-0.09712757
713,7.13,0.113974735,0.47884035,0.88324314,-0.1777618,0.70249504,-0.09712757
714,7.14,0.0003750915678029576,0.4751757961985939,0.8390761925334923,-0.1777618,0.70249504,-0.09712757
715,7.15,-0.029774986,0.4742032,0.827354,-0.1777618,0.70249504,-0.09712757
716,7.16,-0.029774986,0.4742032,0.827354,-0.1777618,0.70249504,-0.09712757
717,7.17,-0.029774986,0.4742032,0.827354,0.01659883005253961,0.5652362291217625,0.14119876341479554
718,7.18,-0.029774986,0.4742032,0.827354,0.26511553,0.38973203,0.44593164
719,7.19,-0.029774986,0.4742032,0.827354,0.26511553,0.38973203,0.44593164
720,7.2,-0.029774986,0.4742032,0.827354,0.26511553,0.38973203,0.44593164
721,7.21,-0.029774986,0.4742032,0.827354,0.26511553,0.38973203,0.44593164
722,7.22,-0.029774986,0.4742032,0.827354,0.26511553,0.38973203,0.44593164
723,7.23,-0.029774986,0.4742032,0.827354,0.26511553,0.38973203,0.44593164
724,7.24,-0.029774986,0.4742032,0.827354,0.26511553,0.38973203,0.44593164
725,7.25,-0.029774986,0.4742032,0.827354,0.26511553,0.38973203,0.44593164
726,7.26,-0.029774986,0.4742032,0.827354,0.26511553,0.38973203,0.44593164
727,7.27,-0.029774986,0.4742032,0.827354,0.26511553,0.38973203,0.44593164
728,7.28,-0.029774986,0.4742032,0.827354,0.26511553,0.38973203,0.44593164
729,7.29,-0.029774986,0.4742032,0.827354,0.26511553,0.38973203,0.44593164
730,7.3,-0.029774986,0.4742032,0.827354,0.26511553,0.38973203,0.44593164
731,7.31,-0.029774986,0.4742032,0.827354,0.26511553,0.38973203,0.44593164
732,7.32,-0.029774986,0.4742032,0.827354,0.26511553,0.38973203,0.44593164
733,7.33,-0.029774986,0.4742032,0.827354,0.26511553,0.38973203,0.44593164
734,7.34,-0.029774986,0.4742032,0.827354,0.26511553,0.38973203,0.44593164
735,7.35,-0.029774986,0.4742032,0.827354,0.26511553,0.38973203,0.44593164
736,7.36,-0.029774986,0.4742032,0.827354,0.26511553,0.38973203,0.44593164
737,7.37,-0.029774986,0.4742032,0.827354,0.26511553,0.38973203,0.44593164
738,7.38,-0.029774986,0.4742032,0.827354,0.10589943586720453,0.30932133508026194,0.28598586534898507
739,7.39,-0.029774986,0.4742032,0.827354,-0.40133846,0.053145275,-0.22357668
740,7.4,-0.029774986,0.4742032,0.827354,-0.40133846,0.053145275,-0.22357668
741,7.41,-0.029774986,0.4742032,0.827354,-0.4091463083008267,0.5182004311423885,-0.25139215155447003
742,7.42,-0.029774986,0.4742032,0.827354,-0.4111123,0.63529986,-0.258396
743,7.43,-0.029774986,0.4742032,0.827354,-0.4111123,0.63529986,-0.258396
744,7.44,-0.011365297895266645,0.45609932810763226,0.8455802118096947,-0.2304715955453643,0.5367128949567485,-0.2596206822663423
745,7.45,0.04368625,0.40196228,0.9000831,0.30970868,0.24190263,-0.26328292
746,7.46,0.04368625,0.40196228,0.9000831,0.30970868,0.24190263,-0.26328292
747,7.47,0.04368625,0.40196228,0.9000831,0.30970868,0.24190263,-0.26328292
748,7.48,0.04368625,0.40196228,0.9000831,0.30970868,0.24190263,-0.26328292
749,7.49,0.04368625,0.40196228,0.9000831,0.13519846838566846,-0.026163848270732495,-0.29489554195488304
750,7.5,0.04368625,0.40196228,0.9000831,-0.18936823,-0.52473325,-0.35369098
751,7.51,0.04368625,0.40196228,0.9000831,-0.18936823,-0.52473325,-0.35369098
752,7.52,0.1382342386233015,-0.272741195962004,0.4405835801271462,-0.18936823,-0.52473325,-0.35369098
753,7.53,0.16742326,-0.48103684,0.29872608,-0.18936823,-0.52473325,-0.35369098
754,7.54,0.16742326,-0.48103684,0.29872608,-0.18936823,-0.52473325,-0.35369098
755,7.55,0.14545059336429783,-0.37582046158043386,0.3709547684959883,-0.18936823,-0.52473325,-0.35369098
756,7.56,-0.00330980752800783,0.3365205070254929,0.8599608975531738,-0.18936823,-0.52473325,-0.35369098
757,7.57,-0.01952458,0.41416514,0.9132622,-0.18936823,-0.52473325,-0.35369098
758,7.58,-0.01952458,0.41416514,0.9132622,-0.18936823,-0.52473325,-0.35369098
759,7.59,-0.01952458,0.41416514,0.9132622,-0.18929467293148583,-0.5219146282170245,-0.35211003593992013
760,7.6,-0.01952458,0.41416514,0.9132622,-0.15272275416673692,0.8794789965938683,0.43392125792161046
761,7.61,-0.01952458,0.41416514,0.9132622,-0.14721853,1.0903945,0.5522222
762,7.62,0.11294441510699553,0.26884570211900777,0.9470288167004373,-0.14721853,1.0903945,0.5522222
763,7.63,0.2169669,0.15473229,0.97354436,-0.14721853,1.0903945,0.5522222
764,7.64,0.2169669,0.15473229,0.97354436,-0.14721853,1.0903945,0.5522222
765,7.65,0.2169669,0.15473229,0.97354436,-0.14721853,1.0903945,0.5522222
766,7.66,0.2169669,0.15473229,0.97354436,-0.14721853,1.0903945,0.5522222
767,7.67,0.2169669,0.15473229,0.97354436,0.10548862608015581,0.30824651949853765,0.14076859982155043
768,7.68,0.09304741344634307,0.30012926686085073,0.9122204571204624,0.2125811,-0.02321288,-0.03359759
769,7.69,-0.011866657475938907,0.4007420206496414,0.9310597694668719,0.2125811,-0.02321288,-0.03359759
770,7.7,-0.03441207,0.39293218,1.0277251,0.2125811,-0.02321288,-0.03359759
771,7.71,-0.03441207,0.39293218,1.0277251,0.2125811,-0.02321288,-0.03359759
772,7.72,-0.03441207,0.39293218,1.0277251,0.2125811,-0.02321288,-0.03359759
773,7.73,-0.03441207,0.39293218,1.0277251,0.2125811,-0.02321288,-0.03359759
774,7.74,0.4290488745789261,0.6513163435354123,1.099345183802072,0.10301459607781031,-0.029177818933282147,-0.00691233706676592
775,7.75,0.8673795,0.8956901,1.1670818,-0.00061086525,-0.03481932,0.018325957
776,7.76,0.6502914330698871,0.7647811464740606,1.0991984007838018,-0.00061086525,-0.03481932,0.018325957
777,7.77,0.02757847,0.38927132,0.90447617,-0.002885702376725118,-0.024450294958259972,0.01507241071438533
778,7.78,0.02757847,0.38927132,0.90447617,-0.03876788140096933,0.1391056838340387,-0.03624745254639979
779,7.79,0.02757847,0.38927132,0.90447617,-0.053145275,0.20463985,-0.05681047
780,7.8,0.02757847,0.38927132,0.90447617,-0.053145275,0.20463985,-0.05681047
781,7.81,0.02757847,0.38927132,0.90447617,-0.053145275,0.20463985,-0.05681047
782,7.82,0.02757847,0.38927132,0.90447617,-0.053145275,0.20463985,-0.05681047
783,7.83,0.02757847,0.38927132,0.90447617,-0.053145275,0.20463985,-0.05681047
784,7.84,0.02757847,0.38927132,0.90447617,-0.053145275,0.20463985,-0.05681047
785,7.85,0.02757847,0.38927132,0.90447617,-0.053145275,0.20463985,-0.05681047
786,7.86,0.02757847,0.38927132,0.90447617,-0.053145275,0.20463985,-0.05681047
787,7.87,0.02757847,0.38927132,0.90447617,-0.053145275,0.20463985,-0.05681047
788,7.88,-0.0024746030086337297,-0.17472986531418425,0.30512758897606984,-0.053145275,0.20463985,-0.05681047
789,7.89,-0.01952458,-0.49470404,-0.034900185,-0.053145275,0.20463985,-0.05681047
790,7.9,-0.01952458,-0.49470404,-0.034900185,-0.053145275,0.20463985,-0.05681047
791,7.91,-0.01952458,-0.49470404,-0.034900185,-0.053145275,0.20463985,-0.05681047
792,7.92,-0.01952458,-0.49470404,-0.034900185,-0.053145275,0.20463985,-0.05681047
793,7.93,-0.01952458,-0.49470404,-0.034900185,0.08165259323103721,0.17384167043053594,-0.051007911463839796
794,7.94,-0.012071789254626118,-0.04223123565444229,0.46658420877521817,0.13133603,0.16249016,-0.04886922
795,7.95,-0.0051252022,0.379509,0.9340071,0.13133603,0.16249016,-0.04886922
796,7.96,-0.0051252022,0.379509,0.9340071,0.12560367577196838,0.16145515141669817,-0.04870998761951795
797,7.97,-0.0051252022,0.379509,0.9340071,0.09075759779327627,0.15516349734794124,-0.047742039072326437
798,7.98,-0.0051252022,0.379509,0.9340071,0.08735373,0.15454891,-0.047647487
799,7.99,-0.0051252022,0.379509,0.9340071,0.028259266376374884,0.12142589722348605,-0.031838778485256826
800,8.0,-0.0051252022,0.379509,0.9340071,-0.008552114,0.100792766,-0.021991149
801,8.01,-0.0051252022,0.379509,0.9340071,-0.008552114,0.100792766,-0.021991149
802,8.02,-0.009072552315333679,0.3826780035606542,0.929948542628035,-0.008552114,0.100792766,-0.021991149
803,8.03,-0.022453265,0.39342028,0.91619086,-0.008552114,0.100792766,-0.021991149
804,8.04,-0.022453265,0.39342028,0.91619086,-0.008552114,0.100792766,-0.021991149
805,8.05,-0.022453265,0.39342028,0.91619086,-0.11031553073739621,-0.07517314771199322,-0.0802931070661578
806,8.06,-0.022453265,0.39342028,0.91619086,-0.12583824,-0.1020145,-0.089186326
807,8.07,-0.022453265,0.39342028,0.91619086,-0.12583824,-0.1020145,-0.089186326
808,8.08,-0.022453265,0.39342028,0.91619086,-0.12583824,-0.1020145,-0.089186326
809,8.09,-0.022453265,0.39342028,0.91619086,-0.09079600621210338,-0.0654334849200958,-0.08415031641417098
810,8.1,-0.022453265,0.39342028,0.91619086,0.1498608100645221,0.18579109963642967,-0.049564906106144946
811,8.11,-0.022453265,0.39342028,0.91619086,0.18020524,0.21746802,-0.04520403
812,8.12,-0.022453265,0.39342028,0.91619086,0.18020524,0.21746802,-0.04520403
813,8.13,-0.022453265,0.39342028,0.91619086,0.18020524,0.21746802,-0.04520403
814,8.14,-0.022453265,0.39342028,0.91619086,0.18020524,0.21746802,-0.04520403
815,8.15,-0.022453265,0.39342028,0.91619086,0.18020524,0.21746802,-0.04520403
816,8.16,-0.022453265,0.39342028,0.91619086,0.18020524,0.21746802,-0.04520403
817,8.17,-0.022453265,0.39342028,0.91619086,0.18020524,0.21746802,-0.04520403
818,8.18,-0.022453265,0.39342028,0.91619086,0.18020524,0.21746802,-0.04520403
819,8.19,-0.022453265,0.39342028,0.91619086,0.18020524,0.21746802,-0.04520403
820,8.2,-0.022453265,0.39342028,0.91619086,0.18020524,0.21746802,-0.04520403
821,8.21,-0.022453265,0.39342028,0.91619086,0.18020524,0.21746802,-0.04520403
822,8.22,-0.022453265,0.39342028,0.91619086,0.18020524,0.21746802,-0.04520403
823,8.23,-0.022453265,0.39342028,0.91619086,-0.035451981860304765,-0.14361150692520464,-0.11678962002976422
824,8.24,-0.022453265,0.39342028,0.91619086,-0.112399206,-0.2724459,-0.1423316
825,8.25,-0.022453265,0.39342028,0.91619086,-0.112399206,-0.2724459,-0.1423316
826,8.26,-0.022453265,0.39342028,0.91619086,-0.112399206,-0.2724459,-0.1423316
827,8.27,-0.02247890627995363,0.39346130624124065,0.9161857337948276,-0.112399206,-0.2724459,-0.1423316
828,8.28,-0.023220059924651114,0.39464715766046504,0.9160375623441861,-0.112399206,-0.2724459,-0.1423316
829,8.29,-0.023673553,0.39537275,0.9159469,-0.112399206,-0.2724459,-0.1423316
830,8.3,-0.0038744391239657503,0.3692348873889389,0.921300733043102,-0.112399206,-0.2724459,-0.1423316
831,8.31,0.14829792495772237,0.1683440611392835,0.9624493135385979,-0.112399206,-0.2724459,-0.1423316
832,8.32,0.053678742133470965,0.3210806077557071,0.9373798300280815,-0.112399206,-0.2724459,-0.1423316
833,8.33,0.0024405725,0.40123013,0.9237567,0.0004499587567331018,-0.25687036339740654,-0.146739771099666
834,8.34,0.0024405725,0.40123013,0.9237567,0.12217305,-0.24007004,-0.15149458
835,8.35,0.0024405725,0.40123013,0.9237567,0.12217305,-0.24007004,-0.15149458
836,8.36,0.0024405725,0.40123013,0.9237567,0.12217305,-0.24007004,-0.15149458
837,8.37,0.0024405725,0.40123013,0.9237567,0.12217305,-0.24007004,-0.15149458
838,8.38,0.0024405725,0.40123013,0.9237567,0.12217305,-0.24007004,-0.15149458
839,8.39,0.0024405725,0.40123013,0.9237567,0.11374049903728875,-0.1856946190982581,-0.1250338122024384
840,8.4,0.0024405725,0.40123013,0.9237567,0.045318996577658345,-0.16581951063126474,-0.1085665759726098
841,8.41,0.0024405725,0.40123013,0.9237567,-0.112399206,-0.2724459,-0.1423316
842,8.42,0.0024405725,0.40123013,0.9237567,-0.112399206,-0.2724459,-0.1423316
843,8.43,0.0024405725,0.40123013,0.9237567,-0.112399206,-0.2724459,-0.1423316
844,8.44,0.0024405725,0.40123013,0.9237567,-0.112399206,-0.2724459,-0.1423316
845,8.45,-0.28083117344097785,-0.2870034710169382,0.7425476417671377,-0.112399206,-0.2724459,-0.1423316
846,8.46,-0.6491923,-1.1819692,0.50690687,-0.112399206,-0.2724459,-0.1423316
847,8.47,-0.6491923,-1.1819692,0.50690687,-0.112399206,-0.2724459,-0.1423316
848,8.48,-0.6491923,-1.1819692,0.50690687,-0.112399206,-0.2724459,-0.1423316
849,8.49,-0.6491923,-1.1819692,0.50690687,-0.112399206,-0.2724459,-0.1423316
850,8.5,-0.6491923,-1.1819692,0.50690687,-0.112399206,-0.2724459,-0.1423316
851,8.51,-0.14075812631325024,-0.30703295464410435,0.799952960843758,-0.112399206,-0.2724459,-0.1423316
852,8.52,0.14814276,0.1901206,0.9664667,-0.112399206,-0.2724459,-0.1423316
853,8.53,0.14814276,0.1901206,0.9664667,-0.112399206,-0.2724459,-0.1423316
854,8.54,0.1449970795126116,0.19452644660092092,0.9623403634169777,-0.112399206,-0.2724459,-0.1423316
855,8.55,0.016170135958642116,0.3749617303622122,0.793352021404207,-0.112399206,-0.2724459,-0.1423316
856,8.56,0.005212310201922573,0.42797955267515164,0.8727532057490497,-0.112399206,-0.2724459,-0.1423316
857,8.57,0.017816179,0.43515408,0.9510911,-0.112399206,-0.2724459,-0.1423316
858,8.58,0.017816179,0.43515408,0.9510911,-0.112399206,-0.2724459,-0.1423316
859,8.59,0.017816179,0.43515408,0.9510911,-0.12048382441395411,-0.28827029462662673,-0.17980438086698283
860,8.6,0.017816179,0.43515408,0.9510911,-0.2393655481519386,-0.5209629480085679,-0.7308296185001674
861,8.61,0.017816179,0.43515408,0.9510911,-0.24129178,-0.52473325,-0.73975784
862,8.62,0.017816179,0.43515408,0.9510911,-0.24129178,-0.52473325,-0.73975784
863,8.63,0.017816179,0.43515408,0.9510911,-0.24129178,-0.52473325,-0.73975784
864,8.64,0.017816179,0.43515408,0.9510911,-0.14317157125292448,-0.464286094998678,-0.6318468838475773
865,8.65,0.017816179,0.43515408,0.9510911,0.040317107,-0.35124752,-0.43004912
866,8.66,0.010242776033077794,0.4356809259775384,0.9476666074421976,0.040317107,-0.35124752,-0.43004912
867,8.67,-0.06563714524410162,0.441138303256906,0.9115253498085587,0.03671488613711388,-0.351381839746462,-0.4342618861880874
868,8.68,-0.03639654731227894,0.4461072872653297,0.853044127320378,-0.10439925977100603,-0.3566437093047308,-0.5992936610766093
869,8.69,-0.029042812,0.44735694,0.83833665,-0.13988814,-0.35796702,-0.6407976
870,8.7,-0.029042812,0.44735694,0.83833665,-0.13988814,-0.35796702,-0.6407976
871,8.71,-0.02508617213128987,0.43944364928030194,0.8162560457398689,-0.13988814,-0.35796702,-0.6407976
872,8.72,-0.013911263,0.4170938,0.75389284,-0.13988814,-0.35796702,-0.6407976
873,8.73,-0.01378108631472406,0.41694192777368955,0.7556130321357262,-0.13544293029653776,-0.3555078029576676,-0.6381134075321097
874,8.74,-0.0074610498326600746,0.4095685797055638,0.8391278107683496,0.0803705806770652,-0.23611360120864697,-0.5077967207460774
875,8.75,-0.0036608586,0.40513504,0.88934463,0.21013765,-0.16432275,-0.42943826
876,8.76,-0.0036608586,0.40513504,0.88934463,0.21013765,-0.16432275,-0.42943826
877,8.77,-0.0036608586,0.40513504,0.88934463,0.21013765,-0.16432275,-0.42943826
878,8.78,-0.0036608586,0.40513504,0.88934463,0.21013765,-0.16432275,-0.42943826
879,8.79,-0.0036608586,0.40513504,0.88934463,0.21013765,-0.16432275,-0.42943826
880,8.8,-0.0036608586,0.40513504,0.88934463,0.21013765,-0.16432275,-0.42943826
881,8.81,-0.010960899111682803,0.4227454410641126,0.8736156729482821,0.1707687285269924,-0.15396250734480713,-0.43395909730750926
882,8.82,-0.027334413,0.46224442,0.83833665,0.08246681,-0.13072516,-0.44409904
883,8.83,-0.027334413,0.46224442,0.83833665,0.08246681,-0.13072516,-0.44409904
884,8.84,-0.027334413,0.46224442,0.83833665,0.08246681,-0.13072516,-0.44409904
885,8.85,-0.027334413,0.46224442,0.83833665,0.08246681,-0.13072516,-0.44409904
886,8.86,-0.027334413,0.46224442,0.83833665,0.08246681,-0.13072516,-0.44409904
887,8.87,-0.027334413,0.46224442,0.83833665,0.08246681,-0.13072516,-0.44409904
888,8.88,-0.027334413,0.46224442,0.83833665,0.08246681,-0.13072516,-0.44409904
889,8.89,-0.027334413,0.46224442,0.83833665,0.08246681,-0.13072516,-0.44409904
890,8.9,-0.027334413,0.46224442,0.83833665,0.08246681,-0.13072516,-0.44409904
891,8.91,-0.027334413,0.46224442,0.83833665,0.08246681,-0.13072516,-0.44409904
892,8.92,-0.027334413,0.46224442,0.83833665,0.0821661644778548,-0.2001743026845411,-0.4251583647223979
893,8.93,-0.027334413,0.46224442,0.83833665,0.081855945,-0.27183503,-0.40561453
894,8.94,-0.027334413,0.46224442,0.83833665,0.081855945,-0.27183503,-0.40561453
895,8.95,-0.027334413,0.46224442,0.83833665,0.081855945,-0.27183503,-0.40561453
896,8.96,-0.027334413,0.46224442,0.83833665,0.081855945,-0.27183503,-0.40561453
897,8.97,-0.0012283265885967404,0.41755081100341246,0.8500322140771853,0.081855945,-0.27183503,-0.40561453
898,8.98,-0.03530112353412338,0.4487719140323788,0.8403066649489658,0.081855945,-0.27183503,-0.40561453
899,8.99,-0.06345488,0.47713193,0.83174706,0.081855945,-0.27183503,-0.40561453
900,9.0,-0.06371921285349971,0.4760745970387518,0.8321624515816912,0.081855945,-0.27183503,-0.40561453
901,9.01,-0.06506782293106353,0.4706801488345248,0.8342817540663693,0.081855945,-0.27183503,-0.40561453
902,9.02,-0.065163285,0.4702983,0.83443177,0.081855945,-0.27183503,-0.40561453
903,9.03,-0.065163285,0.4702983,0.83443177,-0.19609447186066362,-0.1480419894227497,-0.031232330064402285
904,9.04,-0.065163285,0.4702983,0.83443177,-0.4269948,-0.04520403,0.27977628
905,9.05,-0.065163285,0.4702983,0.83443177,-0.4269948,-0.04520403,0.27977628
906,9.06,-0.065163285,0.4702983,0.83443177,-0.4269948,-0.04520403,0.27977628
907,9.07,-0.065163285,0.4702983,0.83443177,-0.4269948,-0.04520403,0.27977628
908,9.08,-0.065163285,0.4702983,0.83443177,-0.4269948,-0.04520403,0.27977628
909,9.09,-0.065163285,0.4702983,0.83443177,-0.4269948,-0.04520403,0.27977628
910,9.1,-0.065163285,0.4702983,0.83443177,-0.4269948,-0.04520403,0.27977628
911,9.11,-0.065163285,0.4702983,0.83443177,-0.4269948,-0.04520403,0.27977628
912,9.12,-0.065163285,0.4702983,0.83443177,-0.4269948,-0.04520403,0.27977628
913,9.13,-0.065163285,0.4702983,0.83443177,-0.4269948,-0.04520403,0.27977628
914,9.14,-0.065163285,0.4702983,0.83443177,-0.15229691306849763,0.03342696598740573,0.11026011204283095
915,9.15,-0.065163285,0.4702983,0.83443177,0.2302962,0.14294247,-0.12583824
916,9.16,-0.065163285,0.4702983,0.83443177,0.22260523577804117,0.1368778559574076,-0.12463747684345419
917,9.17,-0.065163285,0.4702983,0.83443177,-0.06968429704063824,-0.09360341454100797,-0.07900334152260838
918,9.18,-0.065163285,0.4702983,0.83443177,0.29100985858284434,0.33567999412699,0.5927364813014406
919,9.19,-0.056402573072561336,0.4830261475283349,0.815257363101002,0.3481932,0.40317106,0.6963864
920,9.2,-0.05222825,0.48909074,0.8061211,0.3481932,0.40317106,0.6963864
921,9.21,-0.05222825,0.48909074,0.8061211,0.3481932,0.40317106,0.6963864
922,9.22,-0.05222825,0.48909074,0.8061211,0.3481932,0.40317106,0.6963864
923,9.23,-0.05222825,0.48909074,0.8061211,0.3481932,0.40317106,0.6963864
924,9.24,-0.05222825,0.48909074,0.8061211,0.3481932,0.40317106,0.6963864
925,9.25,-0.05222825,0.48909074,0.8061211,0.3481932,0.40317106,0.6963864
926,9.26,-0.05222825,0.48909074,0.8061211,0.3481932,0.40317106,0.6963864
927,9.27,-0.05222825,0.48909074,0.8061211,0.3481932,0.40317106,0.6963864
928,9.28,-0.05222825,0.48909074,0.8061211,0.3481932,0.40317106,0.6963864
929,9.29,-0.05222825,0.48909074,0.8061211,0.3481932,0.40317106,0.6963864
930,9.3,-0.05503680408044838,0.4887491584258467,0.8189873149298211,0.3481932,0.40317106,0.6963864
931,9.31,-0.07028849,0.48689422,0.88885653,0.3481932,0.40317106,0.6963864
932,9.32,-0.07028849,0.48689422,0.88885653,0.3481932,0.40317106,0.6963864
933,9.33,-0.06360400493918025,0.4886636455961764,0.8733249330694706,0.3481932,0.40317106,0.6963864
934,9.34,-0.08078567146635016,0.49926423908245715,0.8252608330033996,0.3481932,0.40317106,0.6963864
935,9.35,-0.08859278,0.5034901,0.80685323,0.046934394770140275,0.025513289784745694,0.2970433234575547
936,9.36,-0.08859278,0.5034901,0.80685323,-0.20341812,-0.2883284,-0.03481932
937,9.37,-0.08859278,0.5034901,0.80685323,-0.20341812,-0.2883284,-0.03481932
938,9.38,-0.08859278,0.5034901,0.80685323,-0.20341812,-0.2883284,-0.03481932
939,9.39,-0.08859278,0.5034901,0.80685323,-0.20341812,-0.2883284,-0.03481932
940,9.4,-0.08859278,0.5034901,0.80685323,-0.20341812,-0.2883284,-0.03481932
941,9.41,-0.08859278,0.5034901,0.80685323,-0.20341812,-0.2883284,-0.03481932
942,9.42,-0.08859278,0.5034901,0.80685323,-0.20341812,-0.2883284,-0.03481932
943,9.43,-0.08824980149024862,0.5014322289414918,0.8024776566077634,-0.20341812,-0.2883284,-0.03481932
944,9.44,-0.08081048175747924,0.45679631054487535,0.7075699916854258,-0.20341812,-0.2883284,-0.03481932
945,9.45,-0.0378213009439198,0.42472076205197645,0.7410752699090581,-0.20341812,-0.2883284,-0.03481932
946,9.46,-0.0134231495,0.40733153,0.76219076,-0.20341812,-0.2883284,-0.03481932
947,9.47,-0.0134231495,0.40733153,0.76219076,-0.12204100111851847,-0.22670983197663183,-0.014123603729354997
948,9.48,-0.0134231495,0.40733153,0.76219076,0.38332832026849273,0.15595466063291555,0.11440122279524285
949,9.49,-0.04689451513502813,0.4532451224831078,0.7166276641373783,0.43310347,0.19364429,0.12705997
950,9.5,-0.005516153976651851,0.4928823063634637,0.7672023573160074,0.43310347,0.19364429,0.12705997
951,9.51,0.045882765,0.5132524,0.83174706,0.43310347,0.19364429,0.12705997
952,9.52,0.045882765,0.5132524,0.83174706,0.43310347,0.19364429,0.12705997
953,9.53,0.045882765,0.5132524,0.83174706,0.23254462755552202,0.16367572791424043,0.10362301800278041
954,9.54,0.045882765,0.5132524,0.83174706,0.1142318,0.1459968,0.08979719
955,9.55,0.045882765,0.5132524,0.83174706,0.1142318,0.1459968,0.08979719
956,9.56,0.045882765,0.5132524,0.83174706,0.1142318,0.1459968,0.08979719
957,9.57,0.045882765,0.5132524,0.83174706,0.1142318,0.1459968,0.08979719
958,9.58,0.007184572964079486,0.4828916107053147,0.8597482220289112,0.1142318,0.1459968,0.08979719
959,9.59,-0.01415532,0.46614933,0.8751893,0.1142318,0.1459968,0.08979719
960,9.6,-0.01415532,0.46614933,0.8751893,0.1142318,0.1459968,0.08979719
961,9.61,-0.01415532,0.46614933,0.8751893,0.1142318,0.1459968,0.08979719
962,9.62,-0.01415532,0.46614933,0.8751893,0.1142318,0.1459968,0.08979719
963,9.63,-0.01415532,0.46614933,0.8751893,0.1142318,0.1459968,0.08979719
964,9.64,-0.01415532,0.46614933,0.8751893,0.1142318,0.1459968,0.08979719
965,9.65,-0.01415532,0.46614933,0.8751893,0.1142318,0.1459968,0.08979719
966,9.66,-0.01415532,0.46614933,0.8751893,0.1142318,0.1459968,0.08979719
967,9.67,-0.01415532,0.46614933,0.8751893,0.1142318,0.1459968,0.08979719
968,9.68,-0.02253126748238464,0.46282782562699437,0.8850093808475475,0.1142318,0.1459968,0.08979719
969,9.69,-0.02831064,0.460536,0.8917852,0.06294141235663188,0.0746787347483743,0.05120727964531446
970,9.7,-0.02831064,0.460536,0.8917852,-0.014049901,-0.032375857,-0.0067195175
971,9.71,-0.02831064,0.460536,0.8917852,-0.014049901,-0.032375857,-0.0067195175
972,9.72,-0.02831064,0.460536,0.8917852,-0.014049901,-0.032375857,-0.0067195175
973,9.73,-0.04500664499620743,0.479483187786273,0.8758395518593249,-0.014049901,-0.032375857,-0.0067195175
974,9.74,-0.050031736,0.48518583,0.8710403,-0.014049901,-0.032375857,-0.0067195175
975,9.75,-0.050031736,0.48518583,0.8710403,-0.014049901,-0.032375857,-0.0067195175
976,9.76,-0.050031736,0.48518583,0.8710403,-0.014049901,-0.032375857,-0.0067195175
977,9.77,-0.050031736,0.48518583,0.8710403,-0.014049901,-0.032375857,-0.0067195175
978,9.78,-0.050031736,0.48518583,0.8710403,-0.014049901,-0.032375857,-0.0067195175
979,9.79,-0.050031736,0.48518583,0.8710403,-0.014049901,-0.032375857,-0.0067195175
980,9.8,-0.050031736,0.48518583,0.8710403,-0.014049901,-0.032375857,-0.0067195175
981,9.81,-0.050031736,0.48518583,0.8710403,-0.014049901,-0.032375857,-0.0067195175
982,9.82,-0.050031736,0.48518583,0.8710403,-0.014049901,-0.032375857,-0.0067195175
983,9.83,-0.050031736,0.48518583,0.8710403,-0.014049901,-0.032375857,-0.0067195175
984,9.84,-0.050031736,0.48518583,0.8710403,-0.014049901,-0.032375857,-0.0067195175
985,9.85,-0.050031736,0.48518583,0.8710403,-0.014049901,-0.032375857,-0.0067195175
986,9.86,-0.050031736,0.48518583,0.8710403,-0.012186711571575033,-0.009551787454944942,0.0352022431145205
987,9.87,-0.050031736,0.48518583,0.8710403,-0.01160644,-0.002443461,0.048258353
988,9.88,-0.050031736,0.48518583,0.8710403,-0.01160644,-0.002443461,0.048258353
989,9.89,-0.050031736,0.48518583,0.8710403,-0.01160644,-0.002443461,0.048258353
990,9.9,-0.050031736,0.48518583,0.8710403,-0.01160644,-0.002443461,0.048258353
991,9.91,-0.04674748737884015,0.4845495080702062,0.8746529780249721,-0.01160644,-0.002443461,0.048258353
992,9.92,-0.012923881244433671,0.47799619715782177,0.9118589915465458,-0.01160644,-0.002443461,0.048258353
993,9.93,-0.010982576,0.47762007,0.91399443,-0.01160644,-0.002443461,0.048258353
994,9.94,-0.010982576,0.47762007,0.91399443,-0.01160644,-0.002443461,0.048258353
995,9.95,-0.009367787435278753,0.47646209529514344,0.9094687706467324,-0.01160644,-0.002443461,0.048258353
996,9.96,0.019828324885500393,0.4555253855077235,0.8276427894066468,-0.01160644,-0.002443461,0.048258353
997,9.97,0.026114125,0.4510178,0.810026,0.007685036202800976,-0.08644176191967341,0.06915745413865956
998,9.98,0.026114125,0.4510178,0.810026,0.017715093,-0.1301143,0.08002335
999,9.99,0.026114125,0.4510178,0.810026,0.017715093,-0.1301143,0.08002335
