id,timestamp,acc_x,acc_y,acc_z,gyro_x,gyro_y,gyro_z
0,1778428822350,-0.35250314,0.3478338657142857,0.7934348071428572,0.41294364,0.012336933142857142,-0.014714874685714288
1,1778428822360,-0.37393188,0.37441971,0.8198725275000001,0.2436517,0.075210567,-0.028938889000000002
2,1778428822370,-0.39064272,0.37900588,0.8795431733333333,0.13736427666666665,0.09648841266666668,-0.013871322433333333
3,1778428822380,-0.40316376,0.36874104,0.9102970000000001,0.07627955,0.10056073,0.0028251687
4,1778428822390,-0.4242049711111111,0.33111350333333334,0.9488459944444444,0.09311178555555556,0.061466503188888896,0.03445348200000001
5,1778428822400,-0.43663454,0.29556264888888895,0.9760224155555556,0.24840272777777775,-0.03314694878888889,0.09092291977777778
6,1778428822410,-0.3903505025,0.29023036,0.95751774,0.41285639375,-0.169968255,0.1258345375
7,1778428822420,-0.36087471250000003,0.26522889499999996,0.91638732,0.5964160000000001,-0.24525518125,0.15866757125
8,1778428822430,-0.32913507,0.25674262666666664,0.8676623733333334,0.7328724933333333,-0.23615185666666663,0.16191694555555555
9,1778428822440,-0.29410253124999997,0.25615443250000003,0.84471386875,0.821818635,-0.227769665,0.12988140125
10,1778428822450,-0.26756303444444446,0.2594629844444445,0.8377385444444445,0.90255226,-0.2124645466666667,0.08651124333333332
11,1778428822460,-0.2440996025,0.27083895999999996,0.8165720325,1.015609925,-0.193714935,0.009086353250000002
12,1778428822470,-0.25494373000000004,0.2617022666666667,0.77363252,1.0621870333333332,-0.08920914866666667,0.006897484666666669
13,1778428822480,-0.28016117,0.22763524000000002,0.722077165,1.027063265,0.13308834800000002,0.10666920099999999
14,1778428822490,-0.24355078999999996,0.24062379999999997,0.70211416,0.94734776,0.28564745,0.25693762
15,1778428822500,-0.17107704,0.21671996,0.7350734,0.8911498,0.36933354,0.4146126
16,1778428822510,-0.17107704,0.21671996,0.7350734,0.8911498000000001,0.36933354,0.4146126
17,1778428822520,-0.17684297333333332,0.24850703333333335,0.8130216555555556,0.9259681,0.45301959999999997,0.49219018
18,1778428822530,-0.1384951225,0.21604918,0.7905796375,1.281194875,0.7853205249999999,0.6064186275
19,1778428822540,-0.036061555075,0.1496657475,0.7770423125,1.88095145,1.2821684625,0.65666081
20,1778428822550,-0.0036587503,0.13884957,0.8612393,2.1300244,1.2837719,0.49952032999999996
21,1778428822560,-0.04715722292222222,0.2295391522222222,0.6914935822222223,2.2648180555555557,1.2868261666666667,0.30275965222222223
22,1778428822570,-0.053143346,0.2803212475,0.62168259375,2.3564197125,1.3968550124999999,0.18607935374999998
23,1778428822580,-0.0461269281875,0.29373667375,0.613145525,2.443999825,1.4218996499999998,0.048486006250000005
24,1778428822590,0.007595293944444446,0.31464912777777776,0.6152154577777778,2.4976865999999998,1.2503110555555557,-0.15253365222222223
25,1778428822600,0.04613074,0.32434818,0.56643546,2.4910352,1.0968527,-0.31359372
26,1778428822610,-0.011436982222222222,0.33055449444444446,0.43600783000000004,2.331671888888889,0.865137911111111,-0.59037538
27,1778428822620,-0.01695220925,0.35051587,0.33051470250000003,2.072146625,0.4994440025,-1.0267578875
28,1778428822630,-0.027654053,0.32938913333333336,0.1941881533333333,1.7655352333333334,0.4061201133333333,-1.5470300555555554
29,1778428822640,-0.023621805750000002,0.203350275,0.191268795,1.359593225,0.845412625,-2.0539833874999998
30,1778428822650,-0.00298797925,0.06504952662499999,0.23928227,0.9607863824999999,1.35999415,-2.622825475
31,1778428822660,-0.003983972433333333,-0.029686692333333334,0.21769563666666666,0.8141830333333333,2.0217516333333334,-3.2327056333333335
32,1778428822670,-0.0020868426000000004,-0.07385593777777778,0.22238763777777779,0.8335265211111111,2.5942512000000004,-3.7079448
33,1778428822680,-0.0028998983333333333,-0.07900528888888889,0.2908265888888889,0.7993190877777778,3.239849022222222,-4.448037111111111
34,1778428822690,0.007449621777777778,-0.09177364666666667,0.2868765011111111,0.52504866,3.7669423666666666,-5.2430802
35,1778428822700,-0.20930082666666666,-0.1922165,-0.019523493333333333,0.17747658800000002,4.476772333333333,-5.9795584
36,1778428822710,-0.49430855625000003,-0.2856264175,-0.019902071249999997,-0.287785398,5.149366199999999,-6.614025
37,1778428822720,-0.5632747266666667,-0.26252208666666665,0.20447331777777777,-0.6387510755555555,5.263866133333333,-6.819269622222222
38,1778428822730,-0.7760742899999999,-0.17096271625,0.33471466,-0.99379123,5.399355275,-6.594935975
39,1778428822740,-0.9439981888888889,-0.052675840111111115,0.64414666,-1.2365075666666665,5.222464066666667,-6.064262533333333
40,1778428822750,-0.983136625,-0.04513982925,0.83129087,-1.1245507,4.90533245,-5.5615350999999995
41,1778428822760,-0.9906573888888889,-0.1458689472222222,1.080879411111111,-0.69236991,4.376822333333333,-4.939056266666666
42,1778428822770,-0.98106333125,-0.20260329,1.2012971625,-0.29450473,3.952029,-4.5700536
43,1778428822780,-0.9480049875,-0.21800052749999999,1.3254814,0.67568295,3.053243775,-3.9954753
44,1778428822790,-0.930786,-0.2174517,1.373251,1.6987662,2.205006,-3.5438304
45,1778428822800,-0.96227795,-0.27309138,1.4074221125,2.5554795500000003,1.53141319625,-3.2963607875000003
46,1778428822810,-1.0494591,-0.36807788,1.3760101999999999,3.8364452499999997,0.46661096275,-2.964288925
47,1778428822820,-1.1074731,-0.4180427,1.2963866,4.476976,0.008933641,-2.8126462
48,1778428822830,-1.1348155666666666,-0.45562958888888894,1.1640855111111112,5.062303555555555,-0.2766035153333333,-2.7028973222222223
49,1778428822840,-1.1600410125,-0.51392862125,0.9283811799999999,5.813128,-0.467756295,-2.5314273875
50,1778428822850,-1.180953,-0.51884127,0.7262924,6.233162,-0.35146624,-2.3789446
51,1778428822860,-1.180953,-0.51884127,0.7262924,6.233162,-0.35146624,-2.3789446
52,1778428822870,-0.9889364333333334,-0.4795740477777778,0.48133906111111113,6.242935377777778,0.24248090922222224,-2.2800213111111116
53,1778428822880,-0.8253531,-0.46514907,0.35898435,6.179407,0.7541673,-2.2763224
54,1778428822890,-0.8253531,-0.46514907000000005,0.35898435,6.179407,0.7541673,-2.2763224
55,1778428822900,-0.6743495775,-0.523174605,0.3672165375,5.8793285125,0.7353837375000001,-2.309308
56,1778428822910,-0.587503785,-0.5469831625,0.3710620375,5.6443051,0.49791687250000005,-2.299295775
57,1778428822920,-0.5557031,-0.5457026,0.3890166,5.511751,0.18791188,-2.2591422
58,1778428822930,-0.572723925,-0.57254105,0.3993906825,5.426996,-0.10392038999999999,-2.232723075
59,1778428822940,-0.6237864,-0.6530564,0.43051293,5.172731,-0.9794171999999999,-2.1534657
60,1778428822950,-0.67016107,-0.6325674,0.27846137,5.0438423,-1.2922474,-1.9842609
61,1778428822960,-0.64794560125,-0.5805521625,0.19523623874999999,5.0561354875,-1.3617312625,-1.8226918125
62,1778428822970,-0.61598105,-0.530183365,0.15008497999999998,5.0374284,-1.44404295,-1.57835295
63,1778428822980,-0.6111027,-0.53591543,0.16375956,5.0120783,-1.429688,-1.5218496
64,1778428822990,-0.6111027,-0.53591543,0.16375956,5.0120783,-1.429688,-1.5218496
65,1778428823000,-0.6206425666666666,-0.6088194033333334,0.19804339999999998,4.900768344444445,-1.4231722666666666,-1.5251074666666666
66,1778428823010,-0.633908925,-0.64025078,0.21056106,4.7528498500000005,-1.4059413625,-1.5862176374999999
67,1778428823020,-0.63793355,-0.64769024,0.21330512,4.672447,-1.3960915,-1.6226394
68,1778428823030,-0.71618127,-0.6464744474999999,0.39281637,4.109656275,-0.86575195125,-1.9978618625000002
69,1778428823040,-0.8090106,-0.7345855,0.5998521,3.7457154,-0.49990213,-2.4864538
70,1778428823050,-0.8090106,-0.7345855,0.5998521,3.7457154,-0.49990213,-2.4864538
71,1778428823060,-1.3142975888888888,-0.7487157555555556,0.9454413488888888,3.6474369222222225,0.17725599777777779,-3.310826111111111
72,1778428823070,-1.7017457,-0.8026688,1.2314743,3.563072,0.63383037,-3.8382587
73,1778428823080,-1.9591197125000002,-0.866304375,1.39665925,3.6401247249999997,0.73324576625,-3.8287142375
74,1778428823090,-2.8396812222222225,-1.0984550000000002,1.8223624999999997,4.373539233333333,1.1613987666666667,-3.3577255666666668
75,1778428823100,-3.0495987,-1.1718976,1.884043,4.8300457,1.5323867,-2.9745207
76,1778428823110,-3.0921545375000004,-1.26829805,1.8955451749999999,5.0932444875,1.541329875,-2.9317613875
77,1778428823120,-3.4681140624999998,-1.8226597125000001,1.7957640375,6.580753,1.750840875,-2.78286735
78,1778428823130,-3.5982285,-1.6219239,1.4952701,7.33765,2.1677442,-2.6477175
79,1778428823140,-3.5982285,-1.6219239,1.4952701,7.33765,2.1677442,-2.6477175
80,1778428823150,-3.9305082,-1.3813741714285714,0.29540922285714283,7.579545542857143,2.7251859142857144,-1.9268522142857145
81,1778428823160,-4.11585,-1.1863192,-0.1908343,7.2118154,2.776148,-1.5090218
82,1778428823170,-4.47233775,-0.690318475,-0.8484908375,5.4340973125,2.6897895,-0.23331500000000002
83,1778428823180,-4.578804,-0.5120116,-1.0379264,4.412837,2.6099975,0.5245651
84,1778428823190,-4.556505666666667,-0.4259631844444444,-1.036039408888889,2.740880133333333,2.1125558555555557,1.8272393555555557
85,1778428823200,-4.37269425,-0.49669054,-0.872154505,0.514638805,1.1769500162500002,3.6143069000000003
86,1778428823210,-4.198812,-0.54375124,-0.6669901,-0.69277716,0.52326703,4.7474284
87,1778428823220,-3.712106955555556,-0.6161436833333334,-0.2822319086666667,-1.5763421777777777,-0.08215047155555556,6.1566616777777785
88,1778428823230,-3.28669705,-0.6690138625000001,-0.05305949625,-1.5987399500000001,-0.14805410675,6.756887125
89,1778428823240,-3.0493548,-0.69357705,0.0248795,-1.426481,-0.056427017,7.0125265
90,1778428823250,-2.60817445,-0.6422935624999999,0.090108155,-0.85923302,0.45149248000000003,7.106291499999999
91,1778428823260,-2.4309347,-0.63086,0.10811607,-0.66528904,0.6533775,7.08705
92,1778428823270,-2.1593095555555557,-0.6166315222222223,0.12964171777777778,-0.3182599044444444,1.197455822222222,6.9001987555555555
93,1778428823280,-1.9947268111111112,-0.6414567555555555,0.19496056222222224,-0.13880655666666666,1.7070296777777778,6.6625791
94,1778428823290,-1.9482234000000003,-0.6486659,0.24355078999999996,-0.07276718,1.9289029999999998,6.5409527
95,1778428823300,-1.9459468666666666,-0.69130049,0.3625719633333333,0.03087323666666666,2.2793256333333334,6.431814366666667
96,1778428823310,-1.9717546666666668,-0.7570055511111111,0.513400551111111,0.09840579333333332,2.6883896555555555,6.3749375666666666
97,1778428823320,-1.97805456,-0.838737944,0.613572384,0.114640758,3.0720425000000002,6.46691768
98,1778428823330,-1.930044125,-0.993404,0.738046135,0.15515520375,3.3172823625000003,6.5821084249999995
99,1778428823340,-1.8372718,-1.238619,0.8612392933333334,0.2746691622222222,3.6281442000000004,6.794182755555556
100,1778428823350,-1.7395450375,-1.4528400125,0.95188485375,0.41835400125,3.7518238624999998,6.9929031875000005
101,1778428823360,-1.6013840333333331,-1.6433343444444446,0.9993435277777777,0.5004111733333334,3.6331668,7.125940666666667
102,1778428823370,-1.54047855,-1.7226691250000001,1.0328116999999999,0.4989858575,3.413872525,7.17134675
103,1778428823380,-1.5102303333333333,-1.7765772444444445,1.0660343777777779,0.4892122855555555,3.056051855555556,7.171753755555555
104,1778428823390,-1.52967765,-1.72554275,1.0362342500000001,0.47333027125,2.4042184125,7.1899014999999995
105,1778428823400,-1.5286257333333333,-1.7127320333333333,0.9929542666666666,0.45602292666666666,2.0924063999999998,7.227952166666666
106,1778428823410,-1.492831,-1.7527547,0.958623,0.4580591,2.065122,7.2055545
107,1778428823420,-1.4281625444444446,-1.7759809666666666,0.9294105677777778,0.6368337,2.699995866666667,6.940446566666667
108,1778428823430,-1.440305075,-1.771780275,0.9934497725,0.894662175,3.0908871500000004,6.771089325
109,1778428823440,-1.5385789555555556,-1.7673084888888888,1.0132231044444444,1.2132699333333334,3.0901236,6.760246766666667
110,1778428823450,-1.6236465500000001,-1.70613625,0.95580273,1.3575316499999999,2.7062061,7.0311575
111,1778428823460,-1.6587858,-1.667566833333333,0.8885782833333333,1.3011640333333334,2.3547313777777776,7.3376331666666665
112,1778428823470,-1.6073803999999998,-1.6771709333333333,0.8148849666666667,1.0501737666666666,1.8121462555555554,7.881965888888889
113,1778428823480,-1.5231072,-1.6905254,0.7826676,0.8734352,1.4761888,8.214063
114,1778428823490,-1.1390197333333334,-1.7695815333333333,0.8410179111111111,0.7838443,1.1055401844444444,8.499880666666666
115,1778428823500,-0.8164576849999999,-1.8384075,0.8937716375,0.8744278624999999,0.90695547125,8.446557
116,1778428823510,-0.3880206044444444,-1.8434848444444445,0.8681536322222222,1.2753981666666665,0.7731035533333334,7.9312404999999995
117,1778428823520,-0.03562326374999999,-1.757934175,0.73662453625,1.7900879125,0.9218448625,7.1322526625
118,1778428823530,0.3427232533333333,-1.6334795,0.5615571733333333,2.2241627555555556,1.2843318,6.258181133333333
119,1778428823540,0.72165793,-1.388145,0.390602065,2.4931731,2.1497241999999996,4.973136500000001
120,1778428823550,0.9283129422222223,-1.2165309777777777,0.31930385666666666,2.5468936666666666,2.7635238777777777,4.285899377777778
121,1778428823560,1.3979970124999999,-1.01795185,0.3155786325,2.5339471,3.520007325,3.4128608750000002
122,1778428823570,1.7536389333333333,-0.8479762533333334,0.3383327466666667,2.3686620333333335,3.968521866666667,2.691444033333333
123,1778428823580,2.0615417375,-0.6594172899999999,0.35871758375,2.1802666,4.028537575,2.4028441000000003
124,1778428823590,2.9162778,-0.5465054566666666,0.48785367,1.7637196333333334,3.441157066666667,2.6146806666666667
125,1778428823600,3.43822655,-0.64676029875,0.57823874875,1.5442219,2.760266,2.8256266
126,1778428823610,4.173688666666667,-1.0010746666666668,0.58620289,1.0490877200000002,1.1799193466666666,2.9984965444444445
127,1778428823620,4.649082,-1.2583052,0.51884127,0.42385164,-0.17370969,3.028428
128,1778428823630,5.1774940888888885,-1.7157640222222224,0.36072903777777776,-0.5910541022222222,-1.3571329444444444,2.230050711111111
129,1778428823640,5.41112365,-1.74956865,0.26557190750000004,-1.553308275,-1.6104988,0.8058316562500001
130,1778428823650,5.4861736,-1.6346382,0.30016994,-2.0935264,-1.3905938,-0.24945475
131,1778428823660,5.373953225,-1.6158603125,0.5311437925,-2.23486105,-0.9418596625,-1.43107191875
132,1778428823670,4.9726275,-1.6126550333333334,1.0227324,-1.9513346,-0.45945046444444443,-3.307771955555556
133,1778428823680,4.462028500000001,-1.6662252,1.2739310000000001,-1.5747642,-0.62543123,-4.4906629
134,1778428823690,3.889444366666667,-1.7448578666666668,1.4028664,-1.2231198222222224,-0.9908366666666666,-5.505405311111111
135,1778428823700,3.3932161,-1.8213258,1.466488,-0.94322455,-1.2403253,-6.2346888
136,1778428823710,2.2963648875,-1.9921284125,1.658576175,-0.40560257125000004,-1.5641507875,-7.0791949249999995
137,1778428823720,1.5365225,-2.211074,1.7998307,0.09216158,-1.877439,-7.7569966
138,1778428823730,0.5422402814666667,-2.5702347,2.010405333333333,0.8908273666666666,-2.0362592888888886,-8.639942666666666
139,1778428823740,-0.15734912504999998,-2.876882775,2.013272825,1.701820425,-2.0646638,-9.32549975
140,1778428823750,-0.8094273,-2.9715047,1.858584,2.8245577666666666,-1.9283429333333335,-10.065413999999999
141,1778428823760,-1.2318667875,-3.0590313625000003,1.6960897625,3.3682117,-1.7968072,-10.341568
142,1778428823770,-1.6147436125,-3.16770775,1.4506753749999999,3.983335,-1.6043904,-10.475954
143,1778428823780,-1.8690825999999998,-3.0526983666666663,1.0646250866666667,4.423696311111112,-1.500885611111111,-10.267434222222223
144,1778428823790,-2.008024925,-2.9509115375,0.768333725,4.4965228999999995,-1.518566275,-9.812803
145,1778428823800,-2.0495098,-2.8848636,0.6630875,4.3572497,-1.5488032,-9.445378
146,1778428823810,-1.9989851666666665,-2.7812869555555557,0.7119080666666666,3.906792333333333,-1.7223516888888888,-8.788853333333332
147,1778428823820,-1.9570043,-2.757478,0.7545867,3.5215344,-1.941578,-8.282936
148,1778428823830,-1.9570043,-2.757478,0.7545867,3.1666322,-2.661767,-7.866949
149,1778428823840,-2.118995475,-2.6669392,0.8423891,2.9016009125,-3.8402153125000003,-7.1505302749999995
150,1778428823850,-2.297437477777778,-2.493912511111111,0.8180931444444445,2.5618255888888886,-5.093354611111112,-6.247720311111111
151,1778428823860,-2.3391912,-2.4329164,0.76263595,2.315722,-5.686759,-5.613457
152,1778428823870,-2.355590925,-2.33666835,0.62506695,2.01243625,-6.282191875,-4.7626424499999995
153,1778428823880,-2.2515643,-2.2607265,0.317991105,1.199665825,-7.176081,-3.1904551999999997
154,1778428823890,-2.122646625,-2.2568237,0.159064145,0.86366165,-7.380715,-2.7662218
155,1778428823900,-1.9020926999999999,-2.1868958,-0.023416,0.86366165,-7.3807149999999995,-2.7662218
156,1778428823910,-1.6609581875,-2.17875525,-0.11287244099999999,-1.78046705,-7.247855400000001,-2.4751531
157,1778428823920,-1.5994835,-2.189579,-0.117140986,-2.3232048,-7.0587983,-2.6727622
158,1778428823930,-1.5994835,-2.189579,-0.11714098599999999,-2.3232048,-7.0587983,-2.6727622
159,1778428823940,-1.6942451857142857,-2.023628457142857,0.10452699914285714,-3.8845958285714284,-5.734066814285714,-3.558141685714286
160,1778428823950,-1.694916,-1.9518821,0.20671937,-4.373285,-4.9671807,-3.9243882000000005
161,1778428823960,-1.694916,-1.9518821,0.20671937,-4.373285,-4.9671807,-3.9243882
162,1778428823970,-1.7687693375,-1.465016825,0.44397408625,-4.507289375,-3.2399529375,-4.9719723
163,1778428823980,-1.9928906999999998,-1.0086564,0.7077242,-4.587081,-2.225622,-5.5444317
164,1778428823990,-1.9928907,-1.0086564,0.7077242,-4.587081,-2.225622,-5.5444317
165,1778428824000,-2.4093609571428574,-0.5276614457142857,1.273306,-4.115845371428572,-1.2953779285714284,-5.740862585714287
166,1778428824010,-2.5924988,-0.25797236,1.5279855,-3.2797916,-1.080207,-5.6091814
167,1778428824020,-2.5924988,-0.25797236,1.5279855,-3.2797916,-1.080207,-5.6091814
168,1778428824030,-2.8273677125,0.16121749875,1.48158035,-1.6830082625,-0.886797525,-5.34666965
169,1778428824040,-3.2194562,0.77242315,1.4323092,-0.569386,-0.5047889,-5.3000927
170,1778428824050,-3.2194562,0.77242315,1.4323092,-0.569386,-0.5047889,-5.3000927
171,1778428824060,-3.90578805,0.99763440625,1.6369134,0.1696628275,-1.1158556625,-5.0693354875
172,1778428824070,-4.391872,1.0323163,1.6985748,0.61504686,-1.485886,-4.824777
173,1778428824080,-4.391872,1.0323163,1.6985748,0.61504686,-1.485886,-4.824777
174,1778428824090,-5.509647244444444,0.9908301222222222,1.9555985888888887,0.81893408,-1.6372403333333334,-4.465327222222222
175,1778428824100,-6.4886403999999995,0.85757285,2.308930475,1.0432508,-1.3716575,-3.8229876
176,1778428824110,-6.8497014,0.7148587444444445,2.4360500111111114,1.324257511111111,-1.229381,-3.4291777333333333
177,1778428824120,-7.5100721375,0.30041768675,2.573278975,2.57594295,-0.5594597425,-1.762676025
178,1778428824130,-7.503456,-0.031007906,2.3926396,3.3804288,-0.04359922,-0.8981745000000001
179,1778428824140,-7.242396525,-0.3106736075,1.9752448,4.0098400625,0.5558805375,-0.06420576124999999
180,1778428824150,-6.392801833333333,-0.6097103466666667,1.0797378333333334,4.791358633333333,2.1665224666666667,2.0437422333333335
181,1778428824160,-5.7636595,-0.70113844,0.5805827,4.5699679375,2.87090565,3.1028082125000003
182,1778428824170,-4.742448255555555,-0.6401999422222223,0.04205530444444445,3.3017652,3.432401666666667,4.185856222222222
183,1778428824180,-4.0325904625,-0.59017543625,-0.17186978375,2.315550125,3.648285275,4.683900425
184,1778428824190,-3.4972161500000003,-0.58036923125,-0.1341313025,1.08799529,3.783129775,5.172731025
185,1778428824200,-3.17449165,-0.5976911125,-0.0007736724999999958,0.18653749,3.782060825,5.55329825
186,1778428824210,-2.8853514,-0.6303721,0.23989205,-0.4441623,3.704025,5.917888
187,1778428824220,-2.6155253444444444,-0.7091640177777777,0.5328088499999999,-0.8500364022222222,3.5035313777777777,6.367879177777778
188,1778428824230,-2.366083225,-0.80644187,0.7330458025,-0.9841513,3.3069744,6.698551
189,1778428824240,-2.1578597444444445,-0.917780511111111,0.8118834133333332,-0.9014154444444444,3.2148721888888887,7.043340477777778
190,1778428824250,-1.9726951499999998,-0.97570095,0.818340485,-0.7306497,3.3505736375,7.1843271125
191,1778428824260,-1.8108373,-1.030365,0.825597,-0.5767162,3.540318,7.2666388
192,1778428824270,-1.6665064333333333,-1.1490846444444445,0.8478001466666667,-0.41395931333333336,3.645451666666667,7.342927122222223
193,1778428824280,-1.5699391,-1.2300107,0.90127206,-0.29572642,3.6655416,7.4694405
194,1778428824290,-1.5571742333333334,-1.3255482111111112,1.0306326455555554,-0.38450289111111113,3.304463111111111,7.565004055555556
195,1778428824300,-1.56140215,-1.4907577,1.19961265,-0.36994437,2.8158531499999997,7.6022996
196,1778428824310,-1.5667683,-1.547011,1.2436701,-0.30244574,2.6093867,7.597718199999999
197,1778428824320,-1.6238828,-1.6343789750000002,1.24225995,0.00030542749999999674,2.335956225,7.474403625
198,1778428824330,-1.6752637444444445,-1.7058109333333333,1.2238281555555557,0.26394541777777775,2.3034879666666668,7.300846577777778
199,1778428824340,-1.703864625,-1.759995875,1.237191125,0.4685962225,2.4978308625,7.079109
200,1778428824350,-1.8059962666666667,-1.844450411111111,1.2930801555555556,0.71502218,2.6955841555555557,6.863887444444444
201,1778428824360,-1.909051875,-1.874705425,1.30894835,0.8938985875,2.7530886125,6.8126269375
202,1778428824370,-1.9506626555555557,-1.8623918777777777,1.3052760444444447,1.0731822666666666,2.8374364,6.867959333333333
203,1778428824380,-1.9522823625,-1.900297575,1.3102593,1.162366,2.89282,6.87814
204,1778428824390,-1.9835946777777775,-1.9403639444444447,1.3062178,1.3272268222222223,2.982953833333333,6.842032333333333
205,1778428824400,-2.0079864555555553,-1.9243399222222222,1.2281204888888888,1.444645311111111,3.0402376666666666,6.8904248444444445
206,1778428824410,-1.9773943999999999,-1.889957875,1.090269425,1.4308334,3.2480275,7.056812875
207,1778428824420,-1.8954087111111113,-1.8878100666666668,1.040473988888889,1.3010961555555556,3.505839088888889,7.220554022222221
208,1778428824430,-1.7942206,-1.910386,1.0340238,1.1844328124999999,3.7020398875,7.40285775
209,1778428824440,-1.5804961499999999,-1.9448086249999998,1.03743855,1.072266,3.741439475,7.66063575
210,1778428824450,-1.354271025,-1.9741815125,1.04109735,0.93322190625,3.5563527125,7.8899321250000005
211,1778428824460,-1.2075399,-1.9999642,1.0520736,0.83739525,3.3662264,8.009429
212,1778428824470,-0.9381712166666666,-2.0197994333333336,1.048330038888889,0.8137757777777778,2.8337033777777783,8.110625555555554
213,1778428824480,-0.67503935,-1.9521261,0.99106395,0.8935932,2.3509984,8.138318
214,1778428824490,-0.24517055875,-1.8649334874999999,0.82258606875,1.1377793875,1.758218825,7.937578524999999
215,1778428824500,-0.0092459675,-1.7870211125,0.70514781875,1.37373825,1.46198655,7.6612462
216,1778428824510,0.42030653,-1.701501625,0.49595884999999995,1.79138595,1.6544320875,7.1156070625
217,1778428824520,1.0307004,-1.7528156333333333,0.32620804333333336,2.3955393333333337,2.1842370666666664,6.254643333333333
218,1778428824530,1.74491135,-1.7476706375,0.02248225125,3.1015006499999997,3.0359107749999996,4.815385324999999
219,1778428824540,2.1019826,-1.6607372,-0.20525588,3.3217874,3.6185064,3.9044592
220,1778428824550,2.263756766666667,-1.5537627666666667,-0.3121320255555556,3.144098711111111,4.354797822222222,3.0478988444444446
221,1778428824560,2.922233477777778,-1.1151327777777778,-0.3495325977777778,2.282396888888889,6.378458333333333,1.0021797755555555
222,1778428824570,3.0464277,-1.1304318,-0.22696446,2.007855,6.756505,0.74935687
223,1778428824580,3.6861669888888886,-1.5311055777777778,0.08411059911111113,1.7662224666666666,5.983299977777778,1.0387626855555554
224,1778428824590,4.0145636,-1.6934525,0.19351739,0.9449043,3.7614448,1.6735687
225,1778428824600,4.3799125,-2.09129575,0.29411012875,-0.8245006275,1.5133646062500001,2.2419622875000003
226,1778428824610,4.93983495,-2.348788125,0.5069465,-2.2550953,0.04039228750000004,2.295411225
227,1778428824620,5.462900133333333,-2.384499,0.7371161666666667,-3.4139065444444445,-1.085721611111111,1.7013961933333333
228,1778428824630,5.71198715,-2.32669055,0.963326,-3.851716425,-1.383569075,0.4856045025
229,1778428824640,5.7078024,-2.3606293624999997,1.20542095,-3.8442814,-1.340876475,-1.0069148875
230,1778428824650,5.344123,-2.3843465,1.4227965,-3.4679327,-0.9843040000000001,-3.1834304
231,1778428824660,5.344123,-2.3843465,1.4227965,-3.4679327,-0.984304,-3.1834304
232,1778428824670,4.112943366666666,-2.358172911111111,1.9935851666666666,-2.2215242777777777,-0.7547017866666665,-6.446304933333334
233,1778428824680,3.0022483,-2.424105,2.2915971,-0.75325104775,-1.5022261000000001,-8.640892749999999
234,1778428824690,3.0022483,-2.424105,2.2915971,-0.014736691,-2.161483,-9.483862
235,1778428824700,0.7648122024999999,-2.81452775,1.9455671125,0.786084075,-2.89037655,-10.47457975
236,1778428824710,-0.06540016333333332,-2.9858245333333335,1.7502241333333333,1.187003511111111,-3.1703310777777776,-11.11761477777778
237,1778428824720,-0.61451757,-3.0715816,1.6221678,1.4549618,-3.1993124,-11.593194
238,1778428824730,-1.5412383666666667,-3.2046586,1.4833182666666667,1.6012343,-2.9276891333333332,-11.878459333333332
239,1778428824740,-2.1674323125,-3.2790823375,1.4498598,1.753666075,-2.6392418875000003,-11.8893016875
240,1778428824750,-2.418495,-3.2507079,1.4103568,1.8807987000000002,-2.5548687,-11.7526245
241,1778428824760,-2.6729113625000003,-2.9614990125,1.2182799375,2.094366175,-2.6684097875,-10.9430995
242,1778428824770,-2.6934804000000003,-2.7691403,1.107854225,2.0878758,-2.7985966,-10.485727
243,1778428824780,-2.6837847,-2.6606126,1.0510979,2.0878758,-2.7985966,-10.485727
244,1778428824790,-2.5364131875,-2.3902575625,0.989463225,1.728315975,-3.209009675,-8.5571304625
245,1778428824800,-2.3335813,-2.2151292333333337,0.8849906666666666,1.6287224,-3.5367037999999997,-7.2971558666666665
246,1778428824810,-2.2227821,-2.1739683,0.8031566,1.5668232,-3.6140778,-6.8614182
247,1778428824820,-2.100850811111111,-2.122989722222222,0.742855,1.4701056888888888,-3.561952111111111,-6.436811533333334
248,1778428824830,-1.9428038749999998,-2.0301032,0.7004677,1.3422605,-3.5387908374999997,-5.9748496375
249,1778428824840,-1.8276677000000001,-1.9506626,0.6625996,1.2888113,-3.5505497,-5.682483
250,1778428824850,-1.7661015375,-1.90768375,0.63071893125,1.25185505,-3.555894575,-5.5662693
251,1778428824860,-1.573994311111111,-1.811474322222222,0.5151858611111111,1.0949691666666665,-3.554622,-5.433257133333333
252,1778428824870,-1.5348152,-1.7781221,0.4785645,0.9723925,-3.5432196,-5.462578
253,1778428824880,-1.5049218666666666,-1.6938014555555556,0.3953821466666667,0.7964684755555554,-3.4710038444444447,-5.4392300888888885
254,1778428824890,-1.469171,-1.6636641,0.35166687,0.6828509,-3.4308236,-5.3776703
255,1778428824900,-1.469171,-1.6636641,0.35166687,0.6828509,-3.4308236,-5.3776703
256,1778428824910,-1.4792258555555557,-1.6754534555555556,0.3071419111111111,0.39093376222222226,-3.2914147333333332,-5.341155011111111
257,1778428824920,-1.5025877,-1.6736647,0.29846254,0.21677442,-3.2219138,-5.3007035
258,1778428824930,-1.5025877,-1.6736647,0.29846254,0.21677442,-3.2219138,-5.3007035
259,1778428824940,-1.5358958999999999,-1.6212903666666667,0.3087070422222222,-0.03285849166666667,-3.442293977777778,-5.075911544444445
260,1778428824950,-1.5579872,-1.5514015,0.3006578,-0.2798443975,-3.6194991,-4.943195562500001
261,1778428824960,-1.6597681666666668,-1.4653159,0.2573151533333334,-0.5021928,-3.7044833000000006,-4.8907485
262,1778428824970,-1.7144293,-1.433041,0.23111105,-0.5021928,-3.7044833,-4.8907485
263,1778428824980,-1.749759175,-1.402284625,0.2323916,-1.027273275,-3.43647395,-4.954028624999999
264,1778428824990,-1.7615358,-1.3920325,0.23281845,-1.2023001,-3.3471375,-4.975122
265,1778428825000,-1.7615358,-1.3920325,0.23281845,-1.2023001,-3.3471375,-4.975122
266,1778428825010,-1.7615358,-1.3920325,0.23281845,-1.2023001,-3.3471375,-4.975122
267,1778428825020,-1.7615358,-1.3920325,0.23281845,-1.2023001,-3.3471375,-4.975122
268,1778428825030,-1.7615358,-1.3920325,0.23281845,-1.2023001,-3.3471375,-4.975122
269,1778428825040,-1.7615358,-1.3920325,0.23281845,-1.2023001,-3.3471375,-4.975122
270,1778428825050,-1.7615358,-1.3920325,0.23281845,-1.2023001,-3.3471375,-4.975122
271,1778428825060,-2.5364895222222223,-1.32132036,0.9972803766666666,-1.5622927444444443,-3.349173688888889,-5.377534588888889
272,1778428825070,-4.914372,-1.3491031,2.8250732,-1.6683766,-3.713035,-6.7215343
273,1778428825080,-5.9947705,-0.92663944,2.8865707,-0.5993175,-2.2268436,-7.0611653
274,1778428825090,-7.0841937,-0.6823569,2.9053829,0.21860696,-1.1493092,-6.818048
275,1778428825100,-7.954549466666666,-0.5114526066666667,2.6913561,1.7899351999999997,0.35263702666666663,-5.110501
276,1778428825110,-7.9943386,-0.41592745625,2.3066474375,2.8696077,0.9352834999999999,-3.0255074
277,1778428825120,-7.96343695,-0.3690078075,1.8004632250000001,3.4662528,1.0543987000000001,-0.09456675000000003
278,1778428825130,-7.666415933333332,-0.34300103777777774,1.1281688333333333,3.504295,1.1526432555555557,1.4949299444444444
279,1778428825140,-6.9529057,-0.40828604,0.6291526,3.2857473,1.4034979,2.9734519
280,1778428825150,-5.7440206,-0.5557234866666667,0.2258194188888889,2.2541621666666667,2.1703742111111115,4.242987377777777
281,1778428825160,-4.785199125,-0.70776614375,0.062873335,1.2807749125,2.8166167250000003,4.9305299
282,1778428825170,-4.002257,-0.8804858525,0.17685864,0.37238776,3.372945875,5.212283175
283,1778428825180,-3.218002766666667,-1.0195412133333335,0.5131397,-0.27767251,3.816217388888889,5.3749045
284,1778428825190,-2.9427023,-1.0589337,0.7047972,-0.50524706,3.975852,5.4437943
285,1778428825200,-2.5448335,-1.0971473444444444,0.8689530988888889,-0.49499836,3.846759666666667,5.6385190666666665
286,1778428825210,-2.2864747,-1.1006434,0.8973694,-0.41789588,3.7376218,5.7400556
287,1778428825220,-2.0643009500000002,-1.1203664125000001,0.86376608375,-0.36834091125,3.5500152000000003,5.8370082750000005
288,1778428825230,-1.8531263666666666,-1.1461237666666666,0.74595813,-0.3572862611111111,3.319938,6.060894555555556
289,1778428825240,-1.7555825999999999,-1.1147564,0.68912556875,-0.37819082,3.316137,6.191548
290,1778428825250,-1.6302611666666667,-1.0702081666666665,0.6804055555555555,-0.5537076066666666,3.480047766666667,6.546042766666667
291,1778428825260,-1.6032032374999998,-1.0822964000000002,0.7249927875,-0.6347467,3.5000021,6.6344123
292,1778428825270,-1.576612575,-1.2062099125,0.8653058375,-0.7844042325,3.3366004375,7.0067998875
293,1778428825280,-1.5647627444444445,-1.4222442000000002,1.0509691333333333,-0.78406488,2.8194503555555555,7.487630066666666
294,1778428825290,-1.5585055375,-1.54351615,1.10876135,-0.65032325,2.3594738,7.806169887499999
295,1778428825300,-1.5683231666666666,-1.7642087333333332,1.1719992666666665,-0.42814453,1.8623800000000001,8.086260611111111
296,1778428825310,-1.5772871,-1.8447418,1.1643362,-0.20715357,1.4816864,8.2659855
297,1778428825320,-1.59161725,-1.9109386,1.1374406750000001,-0.017485500000000005,1.308053,8.365858875
298,1778428825330,-1.5741162,-1.9540775,1.1045461,0.3096232,1.1402228,8.425416
299,1778428825340,-1.5744822,-1.9899559999999998,1.074178525,0.48417279999999996,1.1796224,8.352573
300,1778428825350,-1.6301636625,-2.0507637125000002,1.0911078625,0.7798229,1.4629982875,8.04608005
301,1778428825360,-1.7080569222222222,-2.1071317555555553,1.1872372444444443,0.9576642777777779,1.7125951444444445,7.689413344444445
302,1778428825370,-1.7977802,-2.1117390499999997,1.254349025,1.1480110250000002,1.940661725,7.2916837
303,1778428825380,-1.94012085,-2.1069217499999997,1.3137961,1.323400625,2.15583275,6.9791590875
304,1778428825390,-2.1020891500000003,-2.1194224999999998,1.2794192,1.4671787,2.4145265,6.7284827
305,1778428825400,-2.1650996,-2.0954843375,1.1931756125,1.4960413625,3.4458752625,6.2695837625
306,1778428825410,-2.2583330666666668,-2.0314498333333333,1.1799672333333333,1.5804654333333332,4.8594172,5.9783622
307,1778428825420,-2.3855279375,-2.022191175,1.2508961250000001,1.6706672249999999,5.730740175,6.058688500000001
308,1778428825430,-2.4288879624999997,-2.0144506375,1.25485985,1.720146,6.2104077,6.347314
309,1778428825440,-2.3525533750000003,-2.0735507,1.255439175,1.51563615,6.2623298,7.2579345250000005
310,1778428825450,-2.1289700714285713,-2.2492687714285715,1.2320928,1.2093139571428573,5.928283828571429,8.014326771428571
311,1778428825460,-1.943833,-2.3911762,1.1933928,0.7689803,5.298413,8.626461
312,1778428825470,-1.5030043666666666,-2.498052266666667,1.1435219666666667,0.12134649555555556,4.215974377777778,9.330157444444446
313,1778428825480,-1.1944328955555557,-2.533362511111111,1.124787822222222,-0.1918824,3.3796651,9.714992
314,1778428825490,-0.8311325288888889,-2.5344600666666666,1.0332309777777777,-0.20980058088888887,2.4796156555555555,9.770374666666667
315,1778428825500,-0.3490447655555555,-2.4556413999999998,0.9342719333333334,0.069153004,2.0054625,9.484701666666666
316,1778428825510,0.06302959375,-2.3433531625,0.8249147375,0.493335525,1.951809625,8.9352255
317,1778428825520,0.7633778666666667,-2.0637382666666664,0.6375371866666666,1.2244942333333333,2.5706997,7.8675091
318,1778428825530,1.1840968222222221,-1.915067644444444,0.5462683288888889,1.6761649,3.2238991,7.174401300000001
319,1778428825540,1.665935575,-1.7828784,0.4934739225,2.4150609125,4.6028867625,6.0330329625
320,1778428825550,1.8925595666666668,-1.7580327444444446,0.49976492222222224,2.7207137666666665,5.214658722222222,5.436930833333333
321,1778428825560,3.095980875,-1.6371914749999998,0.56954545,3.3491229000000002,6.202008625,4.0744277250000005
322,1778428825570,3.8366940444444446,-1.6400685777777777,0.5626344555555556,3.4371017999999998,5.681337722222222,3.755752055555556
323,1778428825580,4.5777099625,-1.7682662875,0.49468203750000006,2.8841917500000003,3.66829055,3.7846570125000003
324,1778428825590,5.093687844444444,-2.116959611111111,0.3063119155555556,1.7848871277777778,1.6356199033333332,3.894074955555556
325,1778428825600,5.642901575,-2.4076825,0.1257962045,0.15170965625000002,-0.02221957375,3.7292892249999996
326,1778428825610,6.2119629875,-2.5419889125,0.04942742525,-1.622868425,-0.8460998375,2.527227825
327,1778428825620,6.451236655555555,-2.356214711111111,0.2319986411111111,-2.8172444555555556,-0.5981806611111111,1.0371168444444445
328,1778428825630,6.482367525,-2.5206348,0.722511725,-3.5631578875,-0.052303796250000006,-0.74890828125
329,1778428825640,6.1799946,-2.3277273,1.2544025,-3.8791091,0.31008133,-2.9409242
330,1778428825650,5.6843257,-2.369193,1.6102159,-3.6872268,0.28686914,-4.836994
331,1778428825660,4.8016214,-2.295256,1.967005,-3.313116755555556,0.16632861555555556,-5.939844666666667
332,1778428825670,4.8016214,-2.295256,1.967005,-3.266353,0.15126105,-6.077701
333,1778428825680,4.8016214,-2.295256,1.967005,-3.266353,0.15126105,-6.077701
334,1778428825690,4.8016214,-2.295256,1.967005,-3.266353,0.15126105,-6.077701
335,1778428825700,4.8016214,-2.295256,1.967005,-3.266353,0.15126105,-6.077701
336,1778428825710,0.187556685,-2.4736504499999996,2.11369035,0.301987607,-3.34988645,-10.250819
337,1778428825720,-0.24623388,-2.6476545,2.0902743,0.48554719999999996,-3.5719295,-10.466181
338,1778428825730,-0.24623388,-2.6476545,2.0902743,0.4855472,-3.5719295,-10.466181
339,1778428825740,-0.24623388,-2.6476545,2.0902743,0.48554719999999996,-3.5719295,-10.466181
340,1778428825750,-0.24623388,-2.6476545,2.0902743,0.4855472,-3.5719295,-10.466181
341,1778428825760,-0.24623388,-2.6476545,2.0902743,0.4855472,-3.5719295,-10.466181
342,1778428825770,-1.899321985,-3.006593075,1.317466375,2.83317635,-2.1111644625,-10.757926875
343,1778428825780,-2.2309125333333335,-2.8730435222222224,1.024751558888889,3.2348434555555556,-2.075625,-9.873514111111112
344,1778428825790,-2.24132,-2.8019013,0.99545443,3.0328567,-2.4100978,-9.139955
345,1778428825800,-2.24132,-2.8019013,0.99545443,3.0328567,-2.4100978,-9.139955
346,1778428825810,-2.24132,-2.8019013,0.99545443,3.0328567,-2.4100978,-9.139955
347,1778428825820,-2.24132,-2.8019013,0.99545443,3.0328567,-2.4100978,-9.139955
348,1778428825830,-2.24132,-2.8019013,0.99545443,3.0328567,-2.4100978,-9.139955
349,1778428825840,-1.89853305,-2.3265077125,0.60718860875,2.7812638375,-3.09294855,-6.082979375
350,1778428825850,-1.6755449,-2.1436313,0.46474257666666663,2.5621649333333334,-3.075717666666667,-5.211926933333333
351,1778428825860,-1.5792385,-2.1195445,0.44392833,2.392078,-3.0514874,-4.9653482
352,1778428825870,-1.5792385,-2.1195445,0.44392833,2.392078,-3.0514874,-4.9653482
353,1778428825880,-1.5792385,-2.1195445,0.44392833,2.392078,-3.0514874,-4.9653482
354,1778428825890,-1.5792385,-2.1195445,0.44392833,2.392078,-3.0514874,-4.9653482
355,1778428825900,-1.5792385,-2.1195445,0.44392833,2.392078,-3.0514874,-4.9653482
356,1778428825910,-1.25534765,-2.04989865,0.358740445,0.9622466875,-4.6903905749999995,-4.6815335
357,1778428825920,-1.2863555,-1.9982568,0.3006578,0.6046624,-4.956186,-4.785072
358,1778428825930,-1.315282625,-1.983804825,0.2785223375,0.4817294125,-4.9718386875,-4.8217228125
359,1778428825940,-1.324925,-1.9789875,0.27114385,0.40796962,-4.9812303,-4.8437133
360,1778428825950,-1.324925,-1.9789875,0.27114385,0.40796962,-4.9812303,-4.8437133
361,1778428825960,-1.324925,-1.9789875,0.27114385,0.40796962,-4.9812303,-4.8437133
362,1778428825970,-1.324925,-1.9789875,0.27114385,0.40796962,-4.9812303,-4.8437133
363,1778428825980,-1.3976556714285715,-1.8794085142857142,0.16717873190000002,-0.3329335742857143,-4.6147220142857135,-4.896104314285714
364,1778428825990,-1.5598675,-1.5805292333333332,0.0058540002,-1.3981784888888888,-4.138396977777778,-4.9693526
365,1778428826000,-1.645846825,-1.392958525,0.041202861,-2.152244,-4.2278266,-5.012612475
366,1778428826010,-2.0005435333333335,-1.0626534866666666,0.328322,-3.3408764,-4.053556866666667,-5.180773533333333
367,1778428826020,-2.3675365555555556,-0.8534271444444443,0.7297072111111111,-3.9102029555555555,-3.7384785999999997,-5.351675133333334
368,1778428826030,-2.8024233499999998,-0.8036101099999999,1.175251475,-4.1848380625,-3.3262161375,-5.598186
369,1778428826040,-3.2690017,-0.7179992,1.5914342,-4.071526,-2.8419669,-5.850466
370,1778428826050,-3.5122781499999998,-0.65878081375,1.7698669875,-3.4764653125000002,-2.3388578,-5.96225075
371,1778428826060,-4.425113475,-0.6142050225,2.32387035,-1.6132284925000002,-1.100574925,-6.120765825
372,1778428826070,-4.945044666666666,-0.8808441,2.368959333333333,-0.0025197466666666557,-0.53349871,-6.0210961
373,1778428826080,-5.2728686,-1.1523843,2.262571,0.939254025,-0.33543149250000004,-5.937511775
374,1778428826090,-6.165661222222223,-1.650069211111111,2.065361022222222,1.250328,-0.35329878,-5.905442
375,1778428826100,-7.013010666666666,-1.8417436,1.9529390666666666,1.1690852666666667,-0.5163949999999999,-5.511445866666667
376,1778428826110,-7.7433024,-1.83583115,1.7548736,1.3562431,-0.61061818125,-4.820186225
377,1778428826120,-7.992356475,-1.578762125,1.4223313875,1.9098902875,-0.42079742000000003,-3.514118425
378,1778428826130,-7.9944906,-1.240333111111111,0.7728973955555555,2.328685522222222,0.43001101444444445,-1.576350747777778
379,1778428826140,-7.9944906,-1.0535371,0.29285243,2.4232311,1.2452885,-0.011835165
380,1778428826150,-7.579329325,-0.9813720275,-0.21369767750000002,1.863685475,2.2067524625,2.0102219793750002
381,1778428826160,-6.323312722222222,-1.0146289577777778,-0.4739571844444444,0.27460131,3.1365479333333335,4.4688821333333335
382,1778428826170,-5.226089825,-1.124135775,-0.39493919499999997,-0.63177829875,3.3498863875,5.3863841625
383,1778428826180,-4.4182571125,-1.195957825,-0.23856575249999998,-1.5128395625,3.5029037,6.247745725
384,1778428826190,-3.7641827999999995,-1.2565976,-0.03442274,-2.019003,3.6386644999999995,6.8292723
385,1778428826200,-3.0564351,-1.3486559111111112,0.25533670444444445,-2.2820744444444445,3.759340766666666,7.402926033333333
386,1778428826210,-2.6293607,-1.4042587,0.44148916,-2.3836787,3.7638881000000004,7.854885
387,1778428826220,-2.3543242666666666,-1.4879594333333332,0.5734582444444444,-2.3980675666666667,3.5397071777777773,8.241762777777778
388,1778428826230,-1.9895976999999998,-1.5959468,0.653368875,-2.3505401999999997,3.1337992000000003,8.596988125
389,1778428826240,-1.8013043333333334,-1.6508889666666666,0.7174097666666666,-2.320354333333333,2.6460376,8.944713
390,1778428826250,-1.70820565,-1.722882525,0.77007923,-2.3232049375,2.10597235,9.212035
391,1778428826260,-1.6578102,-1.8110813,0.82901174,-2.3170965,1.8024576,9.34604
392,1778428826270,-1.6395164,-1.9731232333333335,0.9508888333333333,-2.029590866666667,1.1029611333333333,9.612572
393,1778428826280,-1.6536636,-2.0536563,1.0101199,-1.7697772,0.659486,9.777908
394,1778428826290,-1.652382975,-2.0785473000000003,1.00975405,-1.6252355125,0.50875943,9.83334275
395,1778428826300,-1.634248411111111,-2.1814788888888885,0.9881437222222222,-0.956883771111111,0.03723623177777778,9.953968666666666
396,1778428826310,-1.6243631,-2.2308314,0.9705749,-0.6225297,-0.07108735,9.92329
397,1778428826320,-1.6220153,-2.24427735,0.9934116125,-0.3488701425,-0.050776679375,9.75171825
398,1778428826330,-1.6606896999999998,-2.272002455555556,1.0577785222222222,0.08177717544444445,0.12336569444444444,9.284344333333333
399,1778428826340,-1.737243075,-2.298304875,1.1534895,0.39392012,0.29725355,8.8866825
400,1778428826350,-1.795390475,-2.2949511,1.22480465,0.6713975,0.40850411249999996,8.5876634375
401,1778428826360,-1.9179778,-2.3047686,1.3166317,1.150149,0.53975993,8.112052
402,1778428826370,-2.0303738124999997,-2.2408624375,1.3436150375,1.6163019,0.781197275,7.7673811
403,1778428826380,-2.066828,-2.223026,1.3434626,1.883853,1.0198859,7.6129894
404,1778428826390,-2.0704054000000003,-2.233514433333333,1.2974334,2.340155833333333,1.5873799333333334,7.387247455555556
405,1778428826400,-2.060974,-2.210456775,1.248914375,2.563725875,2.0324415,7.287255325
406,1778428826410,-2.0478022,-2.186652,1.2331817,2.6700134,2.392536,7.2538114
407,1778428826420,-1.9733572,-2.150450833333333,1.2021738333333334,2.7343558999999997,2.905036766666667,7.355415433333333
408,1778428826430,-1.881832475,-2.1655837625000003,1.1948563374999999,2.7352976125,3.1479249875,7.461040912500001
409,1778428826440,-1.64425745,-2.1687241,1.20333245,2.7650001,3.37813805,7.68812345
410,1778428826450,-1.472159075,-2.18001295,1.216686825,2.8367745624999996,3.2439043,7.7930365375
411,1778428826460,-1.2170985125,-2.222477125,1.1831063625,2.956882425,2.8344839250000002,7.9071887499999995
412,1778428826470,-0.98548814375,-2.2025864375,1.0791749875,3.084625875,2.3804718,7.962394
413,1778428826480,-0.7933084177777778,-2.172691077777778,0.9650359511111112,3.264367788888889,1.8881712666666663,7.9653123
414,1778428826490,-0.60915136,-2.1214957,0.81340116,3.3865373,1.479243,7.9006987
415,1778428826500,-0.20857162525,-1.9688534625,0.37235404,3.375389125,0.9627716150000001,7.6194028750000005
416,1778428826510,0.09230890688888888,-1.9255596333333334,0.15733981288888887,3.2170610444444443,0.9626019333333333,7.273697577777777
417,1778428826520,0.6816175,-1.789052625,-0.103771299,3.0407977,1.1341143,6.8793616
418,1778428826530,1.2907765,-1.5457914,-0.3302022,2.6932256,1.5477343,6.274012
419,1778428826540,2.121305075,-1.460252975,-0.407973495,2.30106165,2.1239158750000002,5.6811658750000005
420,1778428826550,3.1825332333333334,-1.6143726666666667,-0.26967019999999997,1.8948482,2.9125706666666664,4.6871583999999995
421,1778428826560,3.896820525,-1.86128235,-0.1234294475,2.06115135,2.8564745250000003,4.12207365
422,1778428826570,4.5798406,-2.174341825,-0.21506588999999998,2.37176715,2.319692425,3.5144331749999997
423,1778428826580,4.9343734,-2.4067867,-0.33459267,2.411625,1.6466914,3.0865347
424,1778428826590,5.2190203375,-2.8173900875,-0.65655509875,1.4911641125,0.500140715,2.4365265125000004
425,1778428826600,5.490885966666667,-2.805516,-0.9162933,-0.3256579466666667,-0.47221039,1.4516275666666667
426,1778428826610,5.68232835,-2.684394475,-0.94757054,-1.6096875375,-0.6739172425,0.57638210475
427,1778428826620,5.7663426,-2.6752474,-0.85294616,-2.3183181,-0.71553123,-0.014278554
428,1778428826630,5.7241144,-2.7152498,-0.5861928,-3.0578504555555552,-0.7253047499999999,-0.9726299726666667
429,1778428826640,5.373491625,-2.745708975,-0.073632345,-4.0229541125,-0.759512205,-2.8123312375
430,1778428826650,4.961539444444444,-2.7603236,0.34875003111111114,-4.587216655555555,-0.7864573888888889,-4.255204333333334
431,1778428826660,4.36155005,-2.7932269,0.7869285625,-4.8021758375,-0.8591566925,-5.77846225
432,1778428826670,3.400236525,-2.883841975,1.33500935,-4.495377725,-1.027091975,-7.4916884999999995
433,1778428826680,2.4296539333333333,-3.0126046666666664,1.7612918333333334,-4.110603355555556,-1.2403933111111112,-8.55958188888889
434,1778428826690,1.8183987999999998,-3.1240542,2.0160627,-3.4905340000000002,-1.6611991666666668,-9.880734333333333
435,1778428826700,0.8944966400000001,-3.378513577777778,2.2195435888888886,-3.054389,-1.8652221,-10.612173
436,1778428826710,-0.14896868888888892,-3.536026177777778,2.3139697555555556,-2.2514387666666664,-1.7869658111111113,-11.382994444444444
437,1778428826720,-1.4705092,-3.6871054888888892,2.372604511111111,-1.1680163,-1.5775131,-12.301166
438,1778428826730,-1.9433452,-3.7334192,2.3272393,-0.24061443333333335,-1.3510923888888888,-12.443424666666665
439,1778428826740,-1.9433452,-3.7334192,2.3272393,-0.1246892,-1.3227898,-12.461207
440,1778428826750,-2.2393685000000003,-3.709378,1.9893538,0.6636092,-1.2497935500000001,-12.382103
441,1778428826760,-2.580377455555556,-3.5707028555555556,1.3636974444444445,1.683495,-0.9965209400000001,-12.007959
442,1778428826770,-2.54588785,-3.521783225,1.2215042,1.58589305,-0.95040198,-11.850818499999999
443,1778428826780,-2.397704377777778,-3.4648194222222224,1.0471444555555556,1.2915261555555555,-0.8102125555555556,-11.34118511111111
444,1778428826790,-2.3484602,-3.3971188,1.0916185,1.2790378,-0.7955522,-11.03549
445,1778428826800,-2.3484602,-3.3971188,1.0916185,1.2790378,-0.7955522,-11.03549
446,1778428826810,-2.3484602,-3.3971188,1.0916185,1.2790378,-0.7955522,-11.03549
447,1778428826820,-2.2938185428571427,-2.976680642857143,1.1091239714285714,2.125486642857143,-1.8920120714285713,-8.6569488
448,1778428826830,-2.2420514,-2.760161,1.0247549,2.3218305,-2.409487,-7.8663383
449,1778428826840,-2.2420514,-2.760161,1.0247549,2.3218305,-2.409487,-7.8663383
450,1778428826850,-2.022662044444444,-2.594782133333333,0.9321783866666666,2.2360403,-3.5003414444444445,-6.58337241111111
451,1778428826860,-1.8374243,-2.5637167,0.87099594,2.0628312,-4.618387,-5.546875
452,1778428826870,-1.812048242857143,-2.5507455571428572,0.8272128885714286,1.9135117571428573,-4.994494428571429,-5.3858621428571425
453,1778428826880,-1.7486081,-2.534484775,0.6927385699999999,1.205125225,-6.417656925,-4.847531
454,1778428826890,-1.7486081,-2.582986,0.6176885,0.9412393,-6.5853915,-4.857152
455,1778428826900,-1.7535474500000001,-2.5785955,0.581809875,0.80799823375,-6.49275275,-4.911307425
456,1778428826910,-1.8056270333333333,-2.458141377777778,0.3043808866666667,0.3105734111111111,-5.836416555555555,-5.13041271111111
457,1778428826920,-1.7993429000000003,-2.3748336,0.1952248,0.23265645,-5.310477,-5.1650953
458,1778428826930,-1.7993429,-2.3748336,0.1952248,0.23265645000000001,-5.310477,-5.1650953
459,1778428826940,-1.75134465,-2.21338365,0.0845552375,-0.43286165749999994,-4.264382,-5.115005975
460,1778428826950,-1.7151611,-2.135155,0.08933448,-1.06967,-3.717311,-5.0649166
461,1778428826960,-1.7176917125,-2.1209697125,0.10086335499999999,-1.06967,-3.717311,-5.0649166
462,1778428826970,-1.8149838,-1.849864,0.26016763,-2.569987,-3.9379032,-4.8492107
463,1778428826980,-1.8460946625,-1.8041982625,0.30455284374999997,-2.7619458249999997,-3.9631006500000003,-4.8331761875
464,1778428826990,-1.9434022375,-1.675497975,0.43853169999999997,-3.2008492625000002,-4.010594037500001,-4.795762125
465,1778428827000,-2.335129333333333,-1.2670150111111111,0.9152803777777778,-4.065960655555555,-4.0512493888888885,-4.7206615111111105
466,1778428827010,-2.5924988,-1.1257974,1.113815,-4.179035,-4.058851,-4.7197113
467,1778428827020,-2.65439645,-1.08668688,1.15310845,-4.1788823125,-4.00271985,-4.7113885125
468,1778428827030,-3.5867911666666665,-0.6379640411111112,1.733664911111111,-3.8463949,-3.0908532,-4.480666511111111
469,1778428827040,-4.0341077,-0.66747797,2.0846338,-3.4404445,-2.693531,-4.3025026
470,1778428827050,-4.200353733333333,-0.6664175988888889,2.165119522222222,-3.3566905333333334,-2.705612211111111,-4.250037622222222
471,1778428827060,-5.50315645,-0.6440047625,2.7569787249999997,-2.7972985749999997,-2.83814915,-3.81504655
472,1778428827070,-6.6124475625,-0.6048371175,3.173801875,-2.9358083125,-2.63687495,-3.253983275
473,1778428827080,-7.138374000000001,-0.48295498,3.416175,-2.882944611111111,-2.1527275111111113,-2.543177666666667
474,1778428827090,-7.6551113125,-0.366057935,3.9854305500000002,-2.3170965,-1.5512466,-1.4076211
475,1778428827100,-7.67869,-0.2862565266666667,4.066223033333333,-1.0313901222222221,-1.0947994822222222,-0.08954001333333333
476,1778428827110,-7.3455049,-0.2597255175,3.733663025,0.97225885,-0.042682962500000005,1.880798775
477,1778428827120,-6.8114162857142855,-0.37969984000000007,3.306551771428571,1.9656191857142857,0.7845351314285713,3.0238139714285714
478,1778428827130,-5.891542766666666,-0.6451799,2.7178617333333333,2.7065284333333333,1.6571522111111112,4.134205866666666
479,1778428827140,-5.3717155,-0.8016931,2.4136164,2.979713,2.136591,4.769419
480,1778428827150,-4.445427125,-1.006201975,1.9592073,3.0114769999999997,2.4100215375,5.514051625
481,1778428827160,-3.6676938666666663,-1.1169147,1.6035388333333334,2.8901219333333334,2.4405893,6.1880862
482,1778428827170,-3.3034246,-1.1494573,1.4369437,2.8441048,2.4108615,6.4242806
483,1778428827180,-2.72818505,-1.158787125,1.1476889750000001,2.785616175,2.42460555,6.6884721
484,1778428827190,-2.394492711111111,-1.1463948000000002,0.983360171111111,2.7329307,2.4658377,6.7773504
485,1778428827200,-2.12052,-1.1687268,0.87099594,2.6040418,2.504932,6.77002
486,1778428827210,-1.837683425,-1.237374025,0.7697704875,2.220735075,2.541582725,6.56141575
487,1778428827220,-1.7387599333333332,-1.3283499,0.74457596,1.9174495,2.6152916666666663,6.374394833333334
488,1778428827230,-1.6948549499999999,-1.3457378500000001,0.6739608,1.7338136124999999,2.6768854624999996,6.233772475
489,1778428827240,-1.693574275,-1.343958025,0.62793295,1.5772076,2.8457847,6.1616163
490,1778428827250,-1.7107705,-1.3761778,0.6037852,1.3091984375,3.2525325375,6.1955183
491,1778428827260,-1.7196328444444444,-1.4684020888888891,0.6650015533333333,1.0114866,3.6582115,6.3045545
492,1778428827270,-1.714978075,-1.610170125,0.8241563350000001,0.77493611875,3.8545988625,6.546907975
493,1778428827280,-1.7184945333333335,-1.7520940999999999,0.9892954933333333,0.6379196944444445,3.606628822222222,6.893411211111111
494,1778428827290,-1.7096118375,-1.8777124875,1.076926375,0.5949652575000001,3.0995916125000003,7.1981478375
495,1778428827300,-1.7240717,-2.057917375,1.157453225,0.600233795,2.219971625,7.447602425
496,1778428827310,-1.7559257,-2.1468937,1.1748551,0.6400916,1.588661,7.5433526
497,1778428827320,-1.8705969,-2.1756485,1.1174703,0.8842268733333333,0.8926260333333332,7.532154166666667
498,1778428827330,-2.049022,-2.1764073,1.0857645,1.0475267,0.6943043,7.5012045
499,1778428827340,-2.248881,-2.2425394,1.09918,1.2320026,0.7541673,7.5079236
500,1778428827350,-2.3612200625,-2.309986125,1.1083344874999999,1.4880907375,0.9754467250000001,7.5664122874999995
501,1778428827360,-2.520025,-2.3494358,1.1175042,1.7702353,1.226963,7.7119465
502,1778428827370,-2.6787156750000003,-2.3573707500000003,1.1018707,2.018697525,1.756643975,8.231033499999999
503,1778428827380,-2.8238651249999998,-2.4478905,1.17984775,2.094442625,2.02450055,8.871411
504,1778428827390,-2.748498675,-2.6347916500000004,1.2941532375,1.9494426875000002,1.8437374625,9.744617250000001
505,1778428827400,-2.4811736875,-2.782429875,1.3991174625,1.7331264,1.345620125,10.3962385
506,1778428827410,-2.2789135,-2.811414,1.4345044,1.6053066,0.8421293,10.807186
507,1778428827420,-1.8149569,-2.847432377777778,1.5175309555555556,1.6623189777777778,0.08291402888888887,11.09285888888889
508,1778428827430,-1.3490658222222223,-2.8640491333333333,1.5958789333333332,1.9941448555555554,-0.6169811666666667,11.054842222222222
509,1778428827440,-1.000538525,-2.84198755,1.586784675,2.630919225,-1.112753675,10.641952125
510,1778428827450,-0.7347608375,-2.766823,1.4564036,3.473143925,-1.3001884000000001,9.928176875
511,1778428827460,-0.5131973033333332,-2.6704436444444446,1.2655040555555557,4.420302833333334,-1.2217793555555556,8.984604666666666
512,1778428827470,-0.2983558175,-2.4804648875,0.9547736124999999,5.146006325,-0.9604046150000001,7.978734275
513,1778428827480,-0.10848955600000001,-2.321194925,0.66607545,5.468457300000001,-0.7228613475,7.3722392249999995
514,1778428827490,0.0817501995,-2.2445058749999998,0.37572313150000003,5.7487598250000005,-0.34810656749999996,6.62662375
515,1778428827500,0.3852664,-2.1101942666666664,-0.08419190933333333,5.850160533333334,0.22639525333333335,5.706305866666666
516,1778428827510,0.5778996,-1.9909394,-0.32386038,5.7116507875,0.6867449999999999,5.2016698625
517,1778428827520,1.13357985,-1.8304726125,-0.759598475,5.33002405,1.45100085,4.57998015
518,1778428827530,1.70125775,-1.827153075,-0.9489387875,5.0157433,2.0229733,4.2202673
519,1778428827540,2.2420516,-1.9260066,-1.0950436,4.792105,2.2935108888888887,3.8413383999999997
520,1778428827550,2.829018,-2.0765502624999996,-1.30725995,4.4280794,2.2612039375,3.4050631375
521,1778428827560,3.4992513375,-2.3065026874999996,-1.5683651,3.8122978499999998,2.00892385,2.963678275
522,1778428827570,3.8998617,-2.8035273333333333,-1.7735689666666667,2.9465236000000004,1.3341158166666667,2.9671651333333333
523,1778428827580,4.1696983625,-3.1769765875,-1.8833454875,2.2338684,0.85678965,3.0840914
524,1778428827590,4.623471,-3.4757211,-1.9433452,0.75432,-0.00633754,3.1879356
525,1778428827600,5.362782111111111,-3.768465133333333,-2.0455325333333336,-1.087189377777778,-1.0907950044444443,2.615639522222222
526,1778428827610,5.58359575,-3.79040405,-2.16969975,-2.749270825,-1.675095925,1.467407825
527,1778428827620,5.605810937499999,-3.7704030125,-2.147918825,-3.811390875,-1.694108525,0.4685866675
528,1778428827630,5.5293775,-3.7661345,-2.0031352,-4.9285445,-1.573848,-0.69292986
529,1778428827640,5.5293775,-3.7661345000000006,-2.0031352,-4.9285445,-1.573848,-0.69292986
530,1778428827650,4.6348169,-3.849748225,-0.99125829875,-7.0832035375,-0.9049988725,-3.5379415475
531,1778428827660,3.6265225,-3.91596,0.050033405,-9.048338000000001,-0.134080975,-6.524164075
532,1778428827670,2.73437075,-3.9573916875,0.887547963125,-9.613896,0.38277218,-7.9817886
533,1778428827680,2.0278758444444445,-4.021911444444445,1.5630451444444442,-9.45594111111111,0.5019552655555555,-8.697650733333333
534,1778428827690,0.25905472500000004,-4.16173675,3.172296425,-8.28415775,0.601913625,-10.711435875000001
535,1778428827700,-0.5056698,-4.155151,3.7343948,-7.3029839999999995,0.37360945,-11.088634
536,1778428827710,-0.5056698,-4.155151,3.7343948,-7.302984,0.37360945,-11.088634
537,1778428827720,-1.4584540375,-3.971836075,3.4143570625,-4.1480058375,0.26854372225,-11.304645
538,1778428827730,-2.4741383,-3.7688172,2.934897,-0.5486172,0.21112408,-11.538218
539,1778428827740,-2.4741383,-3.7688172,2.934897,-0.5486172,0.21112408,-11.538218
540,1778428827750,-2.4741383,-3.7688172,2.934897,-0.5486172,0.21112408,-11.538218
541,1778428827760,-2.49397555,-3.644015875,1.8602724875,0.19073705249999998,0.52288523,-11.7618645
542,1778428827770,-2.4917307,-3.5279498,1.1462865,0.48737976,0.8195279,-11.872962
543,1778428827780,-2.4917307,-3.5279498,1.1462865,0.48737976,0.8195279,-11.872962
544,1778428827790,-2.4787307375000003,-3.3943330125,1.2225218375,0.61321429625,0.731260495,-11.46338875
545,1778428827800,-2.4538932,-3.1257617,1.3642259,0.95895386,0.48050773,-10.584074
546,1778428827810,-2.4538932,-3.1257617,1.3642259,0.9589538599999999,0.48050773,-10.584074
547,1778428827820,-2.40385975,-2.95663595,1.3255346000000001,1.3486266675,-0.014049487749999992,-9.84269625
548,1778428827830,-2.2852554,-2.6932974,1.2277851,2.0945952,-1.8187977,-7.61528
549,1778428827840,-2.2852554,-2.6932974,1.2277851,2.0945952,-1.8187977,-7.61528
550,1778428827850,-2.176350275,-2.712677275,1.1161361,2.0010592625,-3.139802575,-6.482110625000001
551,1778428827860,-2.0111842,-2.7406478,0.9207854,1.7904696625,-4.7678156875,-5.262372500000001
552,1778428827870,-1.9935536500000002,-2.7498289625,0.8648065325,1.6415565625,-5.0912592624999995,-5.094446850000001
553,1778428827880,-1.9265453375,-2.7469361875000002,0.5753765675,0.9843040375000001,-5.80648485,-4.81118575
554,1778428827890,-1.9221244000000002,-2.6813455,0.4885955799999999,0.72683185,-5.722188,-4.8620386
555,1778428827900,-1.9748409,-2.4875536,0.43295208,0.4098785175,-5.34483725,-4.8903666375
556,1778428827910,-1.9378502555555555,-2.4551296000000002,0.44550023333333333,0.1677030333333333,-5.000438222222223,-4.844188411111111
557,1778428827920,-1.8706275,-2.4077623,0.4656369,-0.12957597,-4.587234,-4.7636924
558,1778428827930,-1.8706275,-2.4077623,0.4656369,-0.12957597,-4.587234,-4.7636924
559,1778428827940,-1.9061080799999999,-1.98141745,0.382339388,-1.3782699969999999,-5.19948599,-4.54897971
560,1778428827950,-1.9848413,-1.7168684,0.36630186,-2.5113459,-5.678207,-4.4429975
561,1778428827960,-2.2724496375,-1.4357202625,0.5745190325,-3.9275857625,-5.9175062,-4.4646064375000005
562,1778428827970,-2.5607896,-1.1018631,0.8341645,-4.9411435875,-5.6236887375,-4.6777919625
563,1778428827980,-3.077540644444445,-0.7020395955555555,1.2695523999999998,-5.4076527,-4.701530211111111,-4.9160817
564,1778428827990,-3.662530775,-0.213804383875,1.8812684625,-5.31918155,-3.84265875,-4.8969811875
565,1778428828000,-4.004129333333334,0.07390336488888888,2.225729533333334,-5.023090233333333,-3.559373,-4.736543777777778
566,1778428828010,-4.5971661,0.45600982999999995,2.6661463750000003,-4.6367886875,-3.5403945125,-4.41894515
567,1778428828020,-4.986846,0.6899183,2.9207497,-4.0611415,-3.6403441,-3.9085062
568,1778428828030,-5.6750948,0.6438561875,3.2040856,-3.415876875,-3.481523925,-3.4954207
569,1778428828040,-6.369928122222222,0.5155890444444444,3.3463538,-2.534015,-2.9722131777777774,-3.025424711111111
570,1778428828050,-6.6937897,0.5569151250000001,3.2996209,-2.1872817,-2.4578108199999997,-2.8642532
571,1778428828060,-7.314885125,0.71114285,3.1449929875,-0.7500440887500001,-0.005268565000000003,-2.0153377875
572,1778428828070,-7.424873999999999,0.7067587200000001,2.9942905333333334,0.12270394000000001,1.4077993,-0.7344674800000001
573,1778428828080,-7.301881625,0.5087872800000001,2.87786615,0.52166355,2.049087125,0.7499963625
574,1778428828090,-7.0749245,0.20769504,2.8267808,0.652461225,2.2594476875,2.00725365
575,1778428828100,-6.315883222222222,-0.54125786,2.836479944444444,0.79036,2.208671,3.8085563000000002
576,1778428828110,-5.516869,-1.098402525,2.683350275,1.199494075,1.776324725,5.5273468
577,1778428828120,-4.78387675,-1.412300375,2.3609685750000002,1.60393215,1.49924825,6.445812849999999
578,1778428828130,-4.272292,-1.5550601,2.0456073,1.8618624000000001,1.4584742,6.8659234
579,1778428828140,-3.6789949999999996,-1.5684757,1.6102159,1.9980813,1.7450379,7.0320735
580,1778428828150,-3.1133104375,-1.458069,1.220379925,1.8780498749999999,2.40994515,6.9092933500000004
581,1778428828160,-2.7031302999999998,-1.32761555,1.009685475,1.6539357250000002,2.906564,6.7596356625
582,1778428828170,-2.360122375,-1.204967375,0.9605438625,1.2135244250000001,3.433419675,6.568745874999999
583,1778428828180,-2.2104223125,-1.1665619125,0.9920739249999999,0.9670476000000001,3.5603232499999997,6.53255315
584,1778428828190,-2.0699921333333333,-1.1560430555555556,1.0378992777777778,0.8667159,3.5287118,6.5641646
585,1778428828200,-1.9418092375,-1.0925409,1.0333529375000001,0.8201387975000001,3.3578273000000003,6.717334625
586,1778428828210,-1.8862687125,-1.01990705,1.0192058125,0.732482235,3.150902775,6.9489986
587,1778428828220,-1.8599219,-1.0344543874999999,1.03994255,0.5667899,2.969939275,7.152257875
588,1778428828230,-1.8336435500000001,-1.1506769000000001,1.1120009,0.37597649,2.7763770625,7.38911365
589,1778428828240,-1.8242527,-1.2109548,1.1477499,0.29313034,2.6942945,7.5280814
590,1778428828250,-1.8335177249999999,-1.4229107875,1.2763244875,0.2699944875,2.5786153124999998,7.780743425
591,1778428828260,-1.7915917666666665,-1.5982334777777778,1.4136259333333332,0.4904340022222223,2.379436688888889,8.099028555555556
592,1778428828270,-1.7527445333333334,-1.8131952333333332,1.5187980333333335,1.0426399333333334,1.8826821000000002,8.525264333333332
593,1778428828280,-1.7177628444444444,-1.9421051,1.5052335000000001,1.3446106222222223,1.5120251777777778,8.666845555555556
594,1778428828290,-1.6921244777777777,-1.9922402888888888,1.425499788888889,1.678811888888889,1.1084587066666667,8.738314444444446
595,1778428828300,-1.700038188888889,-2.0428258333333336,1.342232688888889,1.9641454888888892,0.8198673088888889,8.687274555555556
596,1778428828310,-1.6869684222222223,-2.0857956333333334,1.2368065888888888,2.1782135555555557,0.8223106766666667,8.54160461111111
597,1778428828320,-1.6651278,-2.048778,1.1880267,2.3254955,0.95391434,8.424194
598,1778428828330,-1.6668351,-2.0135358875,1.163455825,2.579913475,1.4157148925,8.108310249999999
599,1778428828340,-1.73044238,-2.0132332400000004,1.22667518,2.64704546,1.75762134,7.60993502
600,1778428828350,-1.8047495555555555,-1.9859457,1.268719011111111,2.6398103444444443,1.828520366666667,7.391794688888889
601,1778428828360,-1.9064832,-1.9718834,1.3154122,2.6260324,1.7957382,7.2440376
602,1778428828370,-2.0141453,-1.9800986777777776,1.3389636666666667,2.6332946333333336,1.7267803777777777,7.211730755555556
603,1778428828380,-2.07054765,-2.00557425,1.30814795,2.70696965,1.6880764,7.2910729750000005
604,1778428828390,-2.0402943375,-2.0168249375,1.2450345875,2.7661453875,1.6931158,7.3662069875
605,1778428828400,-1.9038687374999999,-2.0105137375,1.07329055,2.7371302,1.69044335,7.45653625
606,1778428828410,-1.8034012222222222,-1.9956279333333333,0.987239211111111,2.6425252,1.6717362,7.550072
607,1778428828420,-1.6009127,-1.98043955,0.8618757375,2.4117776500000003,1.5428951875,7.6611698624999995
608,1778428828430,-1.4601462,-1.9706638,0.7689778,2.2338684,1.430986,7.708892299999999
609,1778428828440,-1.20086275,-2.001302025,0.6080995100000001,1.9391346,1.2010784625,7.7015622875
610,1778428828450,-0.9256104249999999,-2.0255145999999997,0.4529609025,1.7012859625,0.9936194749999999,7.630245975
611,1778428828460,-0.6289087,-2.0114284,0.31751853,1.5222313,0.7028561,7.4560018
612,1778428828470,-0.24331706333333333,-1.9230086333333334,0.07386610333333334,1.3134743000000002,0.4489472733333333,7.153632366666667
613,1778428828480,0.28943762,-1.8128345000000001,-0.21970793249999998,1.0729531875,0.29022879999999995,6.7224503625
614,1778428828490,0.7086122125,-1.7369611249999999,-0.3937463,0.91443835,0.640091585,6.0851744875
615,1778428828500,1.2738090499999999,-1.70296525,-0.46313680500000004,0.9695673125,1.5189576125,5.3239920625
616,1778428828510,1.8822507666666668,-1.6974025444444445,-0.40824877444444446,1.5743060666666666,3.0439027666666667,4.388861133333333
617,1778428828520,2.4653573,-1.6651278,-0.31922594,2.3295422875000003,4.1046740625,3.7956521249999997
618,1778428828530,3.5174727875,-1.8003069875,-0.21200551375,3.6620293,4.9679446,3.1494522
619,1778428828540,4.1053749999999996,-2.0392585,-0.2472942411111111,4.123863766666666,4.710574333333334,2.8593336222222216
620,1778428828550,5.1902914125,-2.822523775,-0.68184615,4.600653275,3.3467176999999997,2.197522975
621,1778428828560,5.7124066,-3.4210534,-1.1975393,4.071908,0.6600968,1.520857
622,1778428828570,5.7124066,-3.4210534,-1.1975393,4.071908,0.6600968,1.520857
623,1778428828580,5.69343445,-3.2608382,-1.4363413250000001,2.9709893925,-0.10882627499999992,1.3389772249999998
624,1778428828590,5.5435247,-2.7611368,-1.9865488,-2.5412774,-2.3581758,0.21601087
625,1778428828600,5.5435247,-2.7611368,-1.9865488000000002,-2.5412774,-2.3581758,0.21601087
626,1778428828610,5.34413045,-2.896708675,-1.1924780975,-3.9643606375,-1.50386775625,-1.3635256525000001
627,1778428828620,4.8860474,-3.0828018,-0.07613249,-5.8295445,-0.07230905,-4.3147197
628,1778428828630,4.8860474,-3.0828018,-0.07613249,-5.8295445,-0.07230905,-4.3147197
629,1778428828640,3.500756925,-3.1762333125,0.98958519,-5.4899898,0.6926244575,-7.1660304875
630,1778428828650,1.8193744,-3.1982355,1.9792312,-4.5968547,0.9258154,-9.438659
631,1778428828660,1.36843346675,-3.18969075,2.0302937,-4.044324275,0.6480326024999999,-9.82229025
632,1778428828670,-0.1561947612222222,-3.171705988888889,2.1416698000000003,-2.1799951333333336,-0.2763999033333333,-11.055987555555555
633,1778428828680,-0.75751376,-3.1984792,1.9953299,-1.4564126,-0.5951943,-11.3458
634,1778428828690,-1.21730429,-3.209089675,1.82967995,-0.924001925,-0.7505022299999999,-11.425974250000001
635,1778428828700,-1.5187878222222222,-3.1891969777777778,1.689749688888889,-0.5269660477777778,-0.8464561377777778,-11.367791222222223
636,1778428828710,-1.9465921750000001,-3.1052994,1.4312954125,0.19020256124999999,-1.1067883375,-10.92309475
637,1778428828720,-2.1451862,-3.051062,1.3012649,0.33772218,-1.5579659,-10.478397
638,1778428828730,-2.278486488888889,-3.0438259555555556,1.2249528666666667,0.19709155777777776,-2.0558064666666667,-10.115766
639,1778428828740,-2.40234285,-3.0777254,1.1686885,-0.20730628499999998,-2.817227625,-9.61213975
640,1778428828750,-2.4534054,-3.1730816,1.141408,-0.541287,-3.1919823,-9.447211
641,1778428828760,-2.6348526125,-3.1719914375,1.0714535125,-1.0905150375,-2.960623925,-9.07978575
642,1778428828770,-2.71238005,-3.0229812125,1.0430448087500002,-1.1527451,-2.6819248,-8.846137
643,1778428828780,-2.6698813,-2.6503377,0.96276957,-0.96582586,-2.0875704,-8.391056
644,1778428828790,-2.475069877777778,-2.3605882444444446,0.8332295022222223,-0.6232084288888888,-1.3374331111111113,-7.8564801555555555
645,1778428828800,-2.3033241749999998,-2.197677725,0.753668205,-0.3806342,-0.8267054,-7.4441667
646,1778428828810,-2.151284,-2.0817068,0.70626074,-0.25113457,-0.5414397,-7.1155305
647,1778428828820,-1.864482111111111,-1.939825211111111,0.6796195844444445,-0.14715480422222224,-0.4515773,-6.6392735555555555
648,1778428828830,-1.6260172125,-1.86512785,0.70142431,-0.0953685305,-0.736166375,-6.11343585
649,1778428828840,-1.5299369,-1.8584011,0.73604906,-0.1246892,-1.2048962,-5.7844944
650,1778428828850,-1.4647230111111111,-1.8425466000000001,0.7418759433333334,-0.1358201911111111,-1.4698681555555555,-5.654180311111111
651,1778428828860,-1.327112525,-1.8114470749999998,0.732199725,-0.08078455062499999,-2.3390105125000002,-5.3007797125
652,1778428828870,-1.2802577,-1.811813,0.6957723,0.02069245,-2.870066,-5.143105
653,1778428828880,-1.2686411375,-1.8003909,0.61030620625,0.048562358,-3.114557525,-5.091717425
654,1778428828890,-1.2435443499999999,-1.8018389875,0.4541994825,-0.033367534000000004,-3.2100787625000002,-5.120197975
655,1778428828900,-1.1931489,-1.790074,0.37243026,-0.15523157,-2.9946787,-5.229234
656,1778428828910,-1.1931489,-1.790074,0.37243026,-0.15523157,-2.9946787,-5.229234
657,1778428828920,-1.1931489,-1.7900739999999997,0.37243026,-0.15523157,-2.9946787,-5.229234
658,1778428828930,-0.97329288,-1.9520651857142859,0.34093888857142857,-0.6520249071428571,-2.160523114285714,-5.974293428571428
659,1778428828940,-0.94103056,-2.0839021,0.38828486,-0.77463067,-1.9843373,-6.17055
660,1778428828950,-1.1375054,-2.151284,0.5115238,-1.4930634,-2.4675176,-7.3672
661,1778428828960,-1.5622761666666667,-2.1148557777777777,0.6719768966666666,-1.8522416666666668,-2.6780561333333335,-7.618105333333334
662,1778428828970,-1.9904516,-2.063657,0.86684936,-2.0318308,-2.7833254,-7.743558
663,1778428828980,-2.193958125,-2.0329387375,1.0014151375,-2.6298502125,-2.9869667875,-7.8173083125
664,1778428828990,-2.9590752,-1.9296856999999998,1.5192045,-3.1362426,-3.365463,-7.505862
665,1778428829000,-3.323951575,-1.8025937250000001,1.7467711625,-3.1346391000000002,-3.603493125,-7.084377375
666,1778428829010,-4.3645331333333335,-1.4654107333333333,2.3743255666666667,-3.0719678000000004,-4.020978755555555,-6.2218610000000005
667,1778428829020,-4.8365326,-1.3793488,2.6349707,-2.861972,-4.0936694,-5.661714
668,1778428829030,-4.8365326,-1.3793488,2.6349707,-2.861972,-4.0936694,-5.661714
669,1778428829040,-6.3151855,-1.4420658,3.4627934,-1.7453433,-3.5939198,-3.7344148
670,1778428829050,-6.4749611,-1.3292340333333332,3.4523761666666664,-1.3866911266666666,-3.4077471555555556,-3.2980492555555556
671,1778428829060,-6.7480234375000006,-0.9854271625000001,3.2565619375,-0.006948377500000019,-2.6306137749999996,-1.7267888249999999
672,1778428829070,-6.670542,-0.7885216,2.964929,0.5936672,-2.13766,-1.2585744
673,1778428829080,-6.611646166666667,-0.29057589766666664,2.3620482666666667,0.74902598,-0.6289944533333333,-0.7183818266666667
674,1778428829090,-6.64969855,0.018308993124999996,2.2285064375,0.436679415,0.481576705,-0.2964899825
675,1778428829100,-6.690603828571428,0.14549629428571428,2.3393612571428575,0.05228198142857143,1.3788131714285714,0.37719819428571427
676,1778428829110,-6.510051222222222,0.09129259555555554,2.707827288888889,0.11740993333333333,2.144124866666667,2.115847666666667
677,1778428829120,-5.964052625,-0.21018376375,2.9032067125,0.8295305875,2.28640125,3.7328876
678,1778428829130,-5.326446750000001,-0.5264789125,2.794385575,1.575613725,2.279987375,4.8795339
679,1778428829140,-4.560205333333333,-0.8749020533333334,2.430595744444444,2.688406711111111,2.318691333333333,6.155507777777778
680,1778428829150,-3.845635625,-1.15813165,1.9596874499999999,3.3950889749999997,2.3752795,6.958771675
681,1778428829160,-2.9177313125,-1.42728985,1.2833789625,3.65301915,2.36672775,7.497539175
682,1778428829170,-2.406166777777778,-1.4527846555555555,0.9035147888888889,3.418301233333333,2.2349373666666668,7.724570733333333
683,1778428829180,-2.2092903625,-1.439443775,0.769881075,3.0809609,2.1493423750000002,7.772267875
684,1778428829190,-1.9560745124999999,-1.4241341625,0.64122643,2.5167671250000003,2.1441502875,7.681098825
685,1778428829200,-1.7716074333333334,-1.3967583333333333,0.6480256266666666,1.7910041666666667,2.2422675,7.528285066666667
686,1778428829210,-1.7257713749999999,-1.4232233,0.72658201,1.4874035375,2.27960565,7.4586740375
687,1778428829220,-1.6903628333333334,-1.4567109999999999,0.8444090066666666,1.2594906666666668,2.414187211111111,7.397224411111111
688,1778428829230,-1.690830375,-1.530104575,1.005172955,1.254833,2.5529597375,7.3720099999999995
689,1778428829240,-1.700526,-1.6272901,1.1199434,1.3040825,2.6258798,7.373537
690,1778428829250,-1.7218009555555556,-1.7978657,1.2687732777777778,1.5493801777777778,2.580812711111111,7.415618066666667
691,1778428829260,-1.749987725,-1.920455025,1.3104651999999999,1.85346325,2.3968119,7.534648300000001
692,1778428829270,-1.7766586249999998,-1.944564725,1.2699483500000002,2.124679425,2.22928705,7.719887475
693,1778428829280,-1.7663797625,-1.965301375,1.1983282499999999,2.2189026,2.125137725,7.870919375000001
694,1778428829290,-1.7422358,-2.014843,1.1662875,2.2418094,2.0339687,7.972167500000001
695,1778428829300,-1.725405425,-2.117078375,1.1770923500000001,2.1734709125,1.8602589375,7.9442976625
696,1778428829310,-1.74681675,-2.183454175,1.2109891125,2.0989476125,1.758858325,7.7939530125
697,1778428829320,-1.8439931333333333,-2.2069546,1.2827848444444445,2.1846613444444447,1.7578656555555554,7.564257155555556
698,1778428829330,-2.038045733333333,-2.223026133333333,1.3671630666666668,2.3725306666666666,1.7743586,7.473105133333332
699,1778428829340,-2.2418448888888887,-2.2506157777777775,1.4101669333333335,2.5211702000000002,1.8537687333333333,7.437065466666667
700,1778428829350,-2.3771356,-2.24773025,1.424381825,2.6132809,1.986627975,7.4810464
701,1778428829360,-2.4354369333333334,-2.2809801555555556,1.4380547555555556,2.7025917999999995,2.187902133333333,7.663282466666666
702,1778428829370,-2.4070409,-2.3182858,1.4368623,2.7777261,2.442625533333333,7.809071366666667
703,1778428829380,-2.316796825,-2.3181918,1.4159668,2.8505187999999997,2.76263315,7.9726256375
704,1778428829390,-2.202781,-2.3423622,1.4093809,2.8783123,3.0614138,8.108386
705,1778428829400,-1.964691122222222,-2.402531777777778,1.3784001888888888,2.7484053333333334,3.4692561333333334,8.097799
706,1778428829410,-1.8796524,-2.400445,1.3622746,2.682841,3.616674,8.066849
707,1778428829420,-1.6431649333333334,-2.418423666666667,1.321256,2.6683844666666667,3.9216903,7.9833662
708,1778428829430,-1.4050439,-2.434250375,1.271171775,2.7895867625,4.0422054375,7.87534825
709,1778428829440,-1.1351196099999998,-2.4153848,1.205969725,2.8972486,3.9143092499999996,7.74981915
710,1778428829450,-0.8328433066666666,-2.3472508,1.0642084466666666,2.947745277777778,3.4522881333333335,7.478670888888889
711,1778428829460,-0.64525104,-2.269157,0.92932254,2.919239,3.2269533,7.306955
712,1778428829470,-0.343007815,-2.0941123,0.67942228,2.788670525,3.045989825,6.9902306
713,1778428829480,0.10184537333333332,-1.9726252999999998,0.44230224333333334,2.606688911111111,3.0304642,6.384779111111111
714,1778428829490,0.58265595125,-1.8088517625,0.27458538,2.5929702375000003,3.2765083625,6.027812075
715,1778428829500,0.88587487,-1.6912572,0.17376013,2.6040418,3.4914503,5.7467747
716,1778428829510,1.4115763,-1.5872878,0.1483928,2.4330046,3.8866684,5.262984
717,1778428829520,2.284950388888889,-1.5026148444444445,0.2618987477777778,2.0909301333333334,4.096189033333333,4.832743466666667
718,1778428829530,3.3201861,-1.7087468625,0.38517492375,2.060769625,3.5317662,4.5346245
719,1778428829540,4.0263362625,-1.9645164375,0.39465718125,2.1660643,2.7352976625,4.3444221125
720,1778428829550,4.451245466666666,-2.242214333333333,0.18451279999999998,1.7700656666666665,1.6582636222222222,4.189657122222222
721,1778428829560,5.468699375,-2.75019875,-0.3132957375,0.91680536,0.36979164,3.9127058
722,1778428829570,5.9029475,-2.7726199625,-0.3823089,-0.44540309499999997,-0.4101075675,3.40400365
723,1778428829580,6.264461444444445,-2.759371711111111,-0.3584592311111111,-1.8242783333333332,-1.1774165333333333,2.4469013555555557
724,1778428829590,6.449336422222222,-2.6926129999999997,-0.10978620888888889,-3.0281225111111114,-1.6321499666666668,0.8005153644444444
725,1778428829600,6.3439984,-2.6586308,0.17815064,-3.438612,-1.6587558,-0.51700586
726,1778428829610,6.147713975,-2.6584059375,0.29019605125000003,-3.5337513499999997,-1.4750243375,-1.7744540449999997
727,1778428829620,4.8799699,-2.6487114000000003,0.85645242,-3.6593314,-0.9676075333333335,-4.964279333333334
728,1778428829630,4.2796097,-2.6449714,1.1206752,-3.6328614,-0.8474742,-6.114352
729,1778428829640,3.0141888125,-2.7211762375,1.6355413125,-3.24779845,-1.2460806625,-7.660282475
730,1778428829650,2.185561925,-2.807938225,1.9141742,-2.854641875,-1.866901925,-8.714805
731,1778428829660,1.3549571,-2.9461474,2.1136904,-2.5009613,-2.506001,-9.467979
732,1778428829670,0.5583176325,-3.1597345,2.1905699,-2.1010855,-2.8461664124999997,-10.042805625
733,1778428829680,-0.26887239125,-3.3738971500000003,2.2025903749999998,-1.5327685,-3.1620507,-10.752057
734,1778428829690,-0.8475799,-3.5238032,2.141497,-1.0660049,-3.137006,-11.335416
735,1778428829700,-1.2469553500000001,-3.5858420000000004,2.079458125,-0.7709655950000001,-2.989486475,-11.69917575
736,1778428829710,-1.8766948222222222,-3.6634995333333333,1.8817798111111113,-0.008017363333333341,-2.4420656666666662,-12.311143
737,1778428829720,-2.0773163,-3.7321994,1.7808052,0.23876493,-2.1749218,-12.486253
738,1778428829730,-2.2966393375,-3.6728401875,1.7353184125,0.58030487875,-1.7115176875,-12.557339749999999
739,1778428829740,-2.4413111555555553,-3.4502556777777778,1.6751316777777778,1.4327337222222223,-1.0906338244444445,-12.217275888888889
740,1778428829750,-2.4548688,-3.3615072,1.6536636,1.8740793,-0.86030203,-11.982914
741,1778428829760,-2.4548688,-3.3615072,1.6536636,1.8740793,-0.86030203,-11.982914
742,1778428829770,-2.446850125,-3.0686470375,1.4793469875,3.0756923,-1.2752104499999999,-10.675386125000001
743,1778428829780,-2.4312088,-2.9646852,1.3978864,3.4176905,-1.9116465000000002,-9.772793
744,1778428829790,-2.4312088,-2.9646852,1.3978864,3.4176905,-1.9116465,-9.772793
745,1778428829800,-2.434135825,-2.9083098874999997,1.3055182,3.2930013000000002,-3.177360175,-8.4715258125
746,1778428829810,-2.4312088,-2.8380313,1.1948563,2.9736044,-4.714901,-6.9634295
747,1778428829820,-2.4386332125,-2.847231625,1.0502175025,2.380395325,-5.7919773,-6.1104578875
748,1778428829830,-2.450295475,-2.695309725,0.85342633,2.0801638625,-6.195900125,-5.6614089750000005
749,1778428829840,-2.4343798,-2.49417,0.625006,1.8081079,-6.1723824,-5.1889186
750,1778428829850,-2.4343798,-2.49417,0.625006,1.8081079,-6.1723824,-5.1889186
751,1778428829860,-2.2816003375,-2.1675693000000003,0.3322754925,1.1479538125,-5.4845684125,-4.5771740375
752,1778428829870,-2.1500645,-1.922856,0.16205214,0.5881696,-4.9360275,-4.0703807
753,1778428829880,-2.1500645,-1.922856,0.16205214,0.5881696,-4.9360275,-4.0703807
754,1778428829890,-1.9384934375,-1.8189475124999999,0.2045469925,-0.20785983062500002,-4.845545825,-3.4754154625
755,1778428829900,-1.6773235,-1.7185758,0.28431535,-1.2212363,-4.886549,-2.8065376
756,1778428829910,-1.6106494777777778,-1.6485615666666666,0.3252086688888889,-1.6317257444444444,-4.970710166666667,-2.6921055999999997
757,1778428829920,-1.4894771249999998,-1.3902716,0.3672851575,-2.16881315,-4.868528675,-2.688949575
758,1778428829930,-1.4611218,-1.2326939,0.38633353,-2.3836787,-4.5670757,-2.8273065
759,1778428829940,-1.4611218,-1.2326939,0.38633353,-2.3836787,-4.5670757,-2.8273065
760,1778428829950,-1.4677342625,-1.148489275,0.48388877249999995,-2.4553769375,-4.030265125000001,-3.0866875
761,1778428829960,-1.552026575,-0.954339225,0.692494675,-2.4427782375000002,-2.9626093125,-3.756939825
762,1778428829970,-1.7741584,-0.768078365,0.8688769325,-2.37413425,-2.689331375,-4.0906914125
763,1778428829980,-2.0879064777777776,-0.5929546466666668,1.0550107455555555,-2.4930203333333334,-2.6849790000000002,-4.441164933333334
764,1778428829990,-2.912738525,-0.16467806249999997,1.4756538750000001,-2.808828475,-2.822267,-4.7673574499999996
765,1778428830000,-3.5320086,0.049560820000000005,1.8109706375,-3.0672169,-2.801651,-4.913961
766,1778428830010,-4.808481933333334,0.25557048000000004,2.637989277777778,-2.6602568222222223,-2.187342233333333,-4.6459346
767,1778428830020,-5.5105731250000005,0.26431421499999996,3.0875049,-2.1173397499999997,-1.9863988874999998,-4.418182000000001
768,1778428830030,-6.2764562,0.31976714,3.21769555,-0.8045622,-1.8169652,-3.945157
769,1778428830040,-6.9327330499999995,0.45017868125000005,2.872217875,0.6793385187500001,-0.98537299625,-3.13761695
770,1778428830050,-7.094784277777777,0.5288655444444443,2.478508355555556,1.1152289499999999,0.06927179444444444,-2.277985222222222
771,1778428830060,-7.1805488125,0.5784484,1.965484325,1.4435657,1.2280512,-1.0682955525
772,1778428830070,-7.1056585,0.5476539,1.7790977,1.3431767,1.6674603,-0.10162971
773,1778428830080,-6.764175333333333,0.30115578666666665,1.8244154333333331,0.412109824,1.7946523111111112,1.8785420222222224
774,1778428830090,-6.2706365250000005,-0.019734372500000007,2.0639885374999998,-0.05917582825000001,1.6596529,3.012259725
775,1778428830100,-5.734477422222223,-0.31039072444444443,2.279113311111111,-0.23728870822222226,1.4858265222222222,4.345287444444445
776,1778428830110,-4.9622255,-0.5691833525,2.287812575,0.27663745562500003,1.508057825,5.268633875000001
777,1778428830120,-4.4426217375,-0.6790677975,2.147667125,0.68895936,1.6100407,5.622162
778,1778428830130,-3.706512125,-0.7666072425,1.775385525,1.3770120375000001,2.0181629375,5.826643
779,1778428830140,-3.073126633333333,-0.82471278,1.3761778333333332,1.8634235000000001,2.510157888888889,5.752467488888889
780,1778428830150,-2.6162503,-0.833669075,1.0816103875,2.099329275,2.986126825,5.5287022750000006
781,1778428830160,-2.2818403,-0.8116937,0.86562985,2.0563155,3.437084866666667,5.2395678
782,1778428830170,-2.0253315,-0.8212065,0.7348295,1.9345533,3.632556,5.1084394
783,1778428830180,-1.919018125,-0.8234931624999999,0.6890760312499999,1.803221175,3.805120375,5.0496454
784,1778428830190,-1.8552301,-0.82486516,0.66162395,1.7244219,3.908659,5.014369
785,1778428830200,-1.757861725,-0.8653173025,0.673331975,1.401379125,4.12260805,5.0102455
786,1778428830210,-1.725222675,-0.88701065625,0.68153368125,1.21321905,4.18857955,5.0770568875
787,1778428830220,-1.7239422,-0.9444758,0.7116269,0.8899281,4.157274,5.3625517
788,1778428830230,-1.7254971625,-0.9689398874999999,0.7272794874999999,0.82853795,4.1310075500000005,5.4454837375
789,1778428830240,-1.7309344,-1.1666229333333333,0.8499378,0.36935048888888894,3.9243374000000006,6.079083933333333
790,1778428830250,-1.7171428875,-1.238559225,0.8864312999999999,0.26625305,3.8445199,6.2648497
791,1778428830260,-1.70028215,-1.4083367,0.98412755,0.019699823749999998,3.6175138000000002,6.6646489625
792,1778428830270,-1.7276076555555555,-1.5454526444444445,1.0828172666666669,-0.13670252666666668,3.2992369,6.931691
793,1778428830280,-1.787391,-1.6441507,1.1604335,-0.21081866,3.0137677,7.102321
794,1778428830290,-1.8738898375000002,-1.7411420375,1.2056802,-0.22517357875,2.6325224625,7.35597555
795,1778428830300,-1.9172224,-1.7902705111111112,1.179299811111111,-0.13873867766666667,2.4454760666666666,7.634165266666666
796,1778428830310,-1.946211075,-1.8516477249999999,1.192790625,-0.01015533475,2.3871911,7.89260475
797,1778428830320,-1.9619132375,-1.9404866374999998,1.257699125,0.12125318125000001,2.3457298375,8.039819125000001
798,1778428830330,-1.9726998555555555,-2.0724717333333333,1.3382928555555553,0.2955737333333333,2.2320190555555555,8.092233
799,1778428830340,-2.0299659,-2.1820176,1.4432853,0.53991264,1.9252379,8.041193
800,1778428830350,-2.1538298375,-2.206630275,1.4698380125000001,0.6988856075000001,1.6265907625,7.9389525
801,1778428830360,-2.3267616666666666,-2.220715633333333,1.501510277777778,0.8095677577777778,1.477155888888889,7.773777822222223
802,1778428830370,-2.4199659,-2.1745780999999997,1.54439645,0.9302440249999999,1.78138335,7.674685025
803,1778428830380,-2.4404778,-2.144942,1.612655,1.2546325999999999,2.356801425,7.713855612500001
804,1778428830390,-2.3926396,-2.2157085,1.7080874,1.5878210875,2.6894841625,7.8154088875
805,1778428830400,-2.1939769875,-2.2742446625,1.6435905499999999,2.1472043750000003,3.0543126999999997,8.0712775
806,1778428830410,-1.8420247555555553,-2.2569847999999997,1.4566703222222221,2.617752,3.4605684333333335,8.403637444444445
807,1778428830420,-1.61959905,-2.2689510625000002,1.3568322000000002,2.584265625,3.436855675,8.61844425
808,1778428830430,-1.117992,-2.3496797,1.1531161,2.329618625,3.0982173,8.72175375
809,1778428830440,-0.7409510666666667,-2.3533655666666666,1.0292606333333334,2.0616095,2.6515353,8.723586
810,1778428830450,-0.357711415,-2.3414399,0.858861125,1.8684290749999999,2.191242775,8.55298775
811,1778428830460,0.3497242357142857,-2.277258242857143,0.5181400371428572,1.5573987428571427,1.4007055142857143,7.998346857142857
812,1778428830470,0.6852839,-2.1993356,0.34800813,1.5032951,1.1982533,7.547629
813,1778428830480,0.6852839,-2.1993356,0.34800813,1.5032951,1.1982533,7.547628999999999
814,1778428830490,1.9877683428571429,-1.7806788285714286,-0.32266691000000003,1.9480792857142857,2.740457,4.753188085714286
815,1778428830500,2.2662831,-1.710595225,-0.4522138825,2.157512625,3.4881095,4.0162445
816,1778428830510,2.574693,-1.5841168,-0.59204674,2.3609247,4.317392,3.2465768
817,1778428830520,2.8405689222222223,-1.5098374,-0.6016475711111111,2.2347508333333335,4.601300211111111,2.687617611111111
818,1778428830530,3.810537333333334,-1.3416941,-0.53542759,1.9357750333333332,4.493901366666666,1.7918695000000002
819,1778428830540,4.2010074,-1.4162107,-0.54225725,1.7952801000000003,3.6740935,1.6827315
820,1778428830550,4.332810377777778,-1.5226803555555555,-0.6408639355555557,1.2351077,2.4493192866666664,1.7189751333333332
821,1778428830560,4.5292583,-1.7937328,-0.86465406,0.3212293,0.75599986,1.8158962
822,1778428830570,4.7779617,-1.9938663,-0.9059065,-0.8103313222222223,-0.10624499333333334,1.7795169111111113
823,1778428830580,5.056346925,-2.126015775,-0.829758775,-1.85069535,-0.652461245,1.4698512
824,1778428830590,5.43040065,-2.27207625,-0.48559235749999996,-3.025144725,-0.937803265,0.38347844875000003
825,1778428830600,5.557672,-2.3238246,-0.13201989,-3.7153258,-0.9134457,-0.97453046
826,1778428830610,5.557672,-2.3238246,-0.13201989,-3.7153258,-0.9134457,-0.97453046
827,1778428830620,5.173255833333333,-2.352749011111111,0.36285312999999997,-4.026637222222223,-0.8503248244444445,-3.0738767755555556
828,1778428830630,4.5529485,-2.4524298,0.89419854,-4.2731056,-0.93482536,-5.0655274
829,1778428830640,3.98626905,-2.5338711624999997,1.1466789475,-4.26088865,-1.1559329775,-6.03136285
830,1778428830650,2.3503064555555557,-2.7580403111111114,1.7461215555555556,-4.018925222222222,-1.8793393777777778,-8.158255777777777
831,1778428830660,1.9296857,-2.8316896,1.8855064,-3.935307,-2.041146,-8.47291
832,1778428830670,1.9296857,-2.8316896,1.8855064,-3.935307,-2.041146,-8.47291
833,1778428830680,1.6000865333333334,-2.8735280888888886,1.9370270222222221,-3.838513166666667,-2.1233389,-8.649784111111112
834,1778428830690,-1.0367068,-3.208236,2.349192,-3.0641625,-2.7808821,-10.064777
835,1778428830700,-1.7489435111111111,-3.1286717555555557,2.328526777777778,-2.010646128888889,-2.4033106888888884,-10.199231222222222
836,1778428830710,-2.211318,-3.0869484,2.248881,-0.9823187599999998,-1.9959434,-10.032403
837,1778428830720,-2.211318,-3.0869484,2.248881,-0.98231876,-1.9959434,-10.032403
838,1778428830730,-2.3600309999999998,-3.0381459,1.9499306875,-0.231740185,-1.793600275,-9.7811920625
839,1778428830740,-2.5641931125,-2.7779632875,1.4684393,0.28412032625,-1.80642805,-9.3713126875
840,1778428830750,-2.6308243,-2.6049693,1.2883373,0.24243,-1.909814,-9.070318
841,1778428830760,-2.6308243,-2.6049693,1.2883373,0.24243,-1.909814,-9.070318
842,1778428830770,-2.5684019555555557,-2.169825088888889,1.0165058022222222,-0.15177009111111112,-2.1022986222222224,-7.838561577777777
843,1778428830780,-2.4128847,-1.9323689,0.88026476,-0.39712706,-2.173089,-7.075215
844,1778428830790,-2.4128847,-1.9323689,0.88026476,-0.39712706,-2.173089,-7.075215
845,1778428830800,-2.083238055555556,-1.753750711111111,0.8118393688888889,-0.6190003577777777,-2.3346242333333334,-6.063923088888889
846,1778428830810,-1.8332777,-1.6465899,0.7741305,-0.7648571,-2.4669065,-5.40638
847,1778428830820,-1.6719573,-1.6314672,0.77019733,-0.869312,-2.5450952,-5.11806
848,1778428830830,-1.5429456777777777,-1.5966446444444444,0.7592211111111111,-0.8468463933333333,-2.530434822222222,-4.969607222222222
849,1778428830840,-1.39369405,-1.6071746,0.73591949,-0.67414630625,-2.47797825,-4.927962375
850,1778428830850,-1.3082432625,-1.6547306874999999,0.7070229475,-0.5504497,-2.445527,-4.994058
851,1778428830860,-1.2813451555555555,-1.6635828333333333,0.6797246600000001,-0.4404972355555556,-2.443762377777778,-5.218307111111111
852,1778428830870,-1.29949655,-1.6307886749999998,0.6102414075,-0.40552622250000003,-2.45881295,-5.464563399999999
853,1778428830880,-1.3355013111111111,-1.6266734666666667,0.5614961677777778,-0.4499314222222222,-2.445255533333333,-5.676306688888889
854,1778428830890,-1.3681019124999998,-1.6456752000000001,0.5241731625,-0.5244124,-2.4337682875000004,-5.89001825
855,1778428830900,-1.417650388888889,-1.6689489444444443,0.47626087111111115,-0.6293847555555555,-2.338153722222222,-6.138921888888889
856,1778428830910,-1.5163842,-1.67037185,0.44051349,-0.71385136875,-2.0710012625,-6.3877825
857,1778428830920,-1.5636126,-1.6480382,0.411228255,-0.67865130625,-1.778558225,-6.5352260125
858,1778428830930,-1.5798787875,-1.6252777,0.37497995375,-0.512500885,-1.4419813750000001,-6.60303005
859,1778428830940,-1.5760676,-1.6182652,0.34752026,-0.38002336,-1.265981,-6.5938673
860,1778428830950,-1.553631025,-1.66439205,0.30736930125,-0.2458660325,-1.2392564,-6.5874532875
861,1778428830960,-1.5959162249999999,-1.733348075,0.2322734525,-0.33619506,-1.494743175,-6.644873
862,1778428830970,-1.8380746666666665,-1.7701540666666666,0.13487575333333332,-0.6919626666666666,-1.9823011333333334,-6.507941533333334
863,1778428830980,-2.074618025,-1.7909315000000001,0.054599218375,-1.0999927,-2.5415064,-6.2004053125
864,1778428830990,-2.286231,-1.8259602,-0.048325993,-1.6243956,-2.978186,-5.7209663
865,1778428831000,-2.535402066666667,-1.8404325666666668,-0.08664123566666666,-2.5143321555555556,-3.3662944444444443,-5.1285633
866,1778428831010,-2.9905607,-1.7399694333333333,0.10517890400000002,-4.549564866666667,-3.9529706666666664,-4.180536766666666
867,1778428831020,-3.3599623222222217,-1.661668711111111,0.5151486311111112,-6.301950000000001,-4.231109555555556,-3.602268033333333
868,1778428831030,-4.024167833333333,-1.9455301999999999,1.7709773333333334,-7.931003333333333,-4.703430333333333,-2.854777677777778
869,1778428831040,-4.465887433333333,-2.1389899777777774,2.8554105777777776,-8.909105333333335,-5.418596900000001,-2.0716121
870,1778428831050,-4.735828577777777,-2.0640771777777775,3.492314377777778,-9.230029333333333,-5.9081148,-1.8225900333333334
871,1778428831060,-5.592662475,-1.60802065,5.459545125,-9.08716475,-6.5619216875,-1.48580965
872,1778428831070,-5.8612566,-1.3395599,6.002088,-8.183826,-6.4515395,-1.4369419
873,1778428831080,-6.204650577777778,-0.8692682288888889,6.280366366666667,-5.2174672,-4.5055755,-1.626236588888889
874,1778428831090,-6.513124,-0.07247374,5.9686413,-2.558992,-1.5995035,-1.8602589
875,1778428831100,-6.566434975,0.34993276250000005,5.4485534625,0.5997852,2.482492775,-1.8623205500000002
876,1778428831110,-6.288774074999999,0.888321655,4.51590375,2.67772525,5.054989925,-1.3071367375
877,1778428831120,-6.0579753,1.0999117,3.9838302,3.1849575,5.6044474,-0.5225035
878,1778428831130,-5.5692729125,1.1427381125,3.378101225,3.055457975,5.086219925,0.8822065875
879,1778428831140,-4.8835164,0.8689870000000001,2.815001688888889,2.756753688888889,3.7968485333333337,3.2975061666666665
880,1778428831150,-4.36374525,0.5002883517500001,2.522593875,2.8039416249999998,2.93809905,4.8635180625
881,1778428831160,-3.6810607375,-0.016921725125000002,2.170595375,3.00994995,2.312667775,6.166044875
882,1778428831170,-3.1777463,-0.4190184,1.9179778,3.2087808,2.0455747,6.903185
883,1778428831180,-2.6566298500000003,-0.8104969875,1.6165767375,3.4260895,1.7323437125,7.652312625
884,1778428831190,-2.243210175,-1.14640075,1.3667947249999999,3.517716675,1.460612125,8.123046375
885,1778428831200,-1.9651451666666668,-1.3155747333333334,1.1552402,3.462214322222222,1.1818282,8.300192666666668
886,1778428831210,-1.6954496374999999,-1.4620784375,0.957533,3.2182488125,1.0667683625,8.170998375
887,1778428831220,-1.534437825,-1.5479791125,0.87505104,3.0325512249999997,1.1357941,7.9358225000000004
888,1778428831230,-1.47221235,-1.608264625,0.8556901800000001,2.87632715,1.295377975,7.6435320625
889,1778428831240,-1.449004,-1.6131429222222224,0.85102192,2.7483376222222224,1.5243863222222223,7.3305066666666665
890,1778428831250,-1.4520701999999999,-1.634005375,0.8646884475000001,2.60648535,1.825440725,7.049330375
891,1778428831260,-1.4608170249999999,-1.698757625,0.9325619924999999,2.4940129625000003,2.1688131375,6.779335625
892,1778428831270,-1.4728332222222222,-1.7146224666666665,0.98830624,2.4931391777777776,2.512872888888889,6.5692553333333334
893,1778428831280,-1.5397011250000001,-1.79355735,1.09278475,2.56510025,2.68711705,6.40305375
894,1778428831290,-1.594700525,-1.82214905,1.1279621874999999,2.57754645,2.60343095,6.349909787500001
895,1778428831300,-1.6618008555555557,-1.8360421333333332,1.1380474999999999,2.524767466666667,2.438010155555556,6.321590255555556
896,1778428831310,-1.7562762250000001,-1.8689658,1.1561725999999999,2.491798625,2.3135841,6.3317372
897,1778428831320,-1.8366354375,-1.924441475,1.1759832625,2.4795816875,2.20141715,6.367624875
898,1778428831330,-1.9096541,-1.9679805999999997,1.1890023,2.467823,2.1634684,6.44566
899,1778428831340,-1.9911833,-2.0729258,1.2107109,2.4629362,2.1115463,6.4945283
900,1778428831350,-2.099893925,-2.0928887,1.2167477999999998,2.4290341,2.084516225,6.527055575
901,1778428831360,-2.211683822222222,-2.103716866666667,1.213258411111111,2.360245977777778,2.027520733333333,6.596810777777778
902,1778428831370,-2.3425795750000002,-2.0892263124999997,1.203545875,2.18752045,1.9633394375,6.872108
903,1778428831380,-2.3828762444444447,-2.097839211111111,1.207214788888889,2.035071522222222,1.9428166555555555,7.184989055555556
904,1778428831390,-2.3657782,-2.1432045,1.2129061,1.9400508,1.9466175,7.410188
905,1778428831400,-2.3047686,-2.2281482,1.2326939,1.8539977875,2.030532625,7.5710701375
906,1778428831410,-2.292538888888889,-2.235387777777778,1.2498019444444444,1.8520210333333336,2.043131355555556,7.638441533333333
907,1778428831420,-2.15224445,-2.3112477,1.3936179499999999,1.981283125,1.85619305,8.12703655
908,1778428831430,-2.062262075,-2.3187558999999998,1.382938975,2.15598545,1.076694625,8.652727625
909,1778428831440,-1.9196852,-2.2874506,1.3300471,2.259524,0.4646257,9.0283985
910,1778428831450,-1.684895111111111,-2.2913058,1.1871458333333333,2.3847476666666667,-0.32397814666666663,9.340338166666665
911,1778428831460,-1.3065891374999998,-2.3558730125,0.99618235,2.52035575,-1.1475721,9.5447175
912,1778428831470,-1.1013210555555555,-2.3804981,0.9238106666666666,2.6215528555555556,-1.3982633222222223,9.417033222222223
913,1778428831480,-0.6498855,-2.3945909,0.71556,3.0206397,-1.9043163,8.861027
914,1778428831490,-0.30318843212499996,-2.27860465,0.47478377875,3.4279220125,-1.92569605,8.263933125000001
915,1778428831500,0.203384591875,-2.115569325,0.05897067125000001,4.1478245000000005,-1.371027575,7.188908825
916,1778428831510,0.46832003999999994,-2.0792677,-0.13153206,4.4818625,-0.7680641,6.5104103
917,1778428831520,0.9955154125,-1.9258898,-0.5502683749999999,4.8481419125,0.6659857874999999,5.4499792
918,1778428831530,1.7722544444444446,-1.8813834111111112,-0.9607572833333333,5.2405349222222215,3.3823462222222225,4.1205634
919,1778428831540,2.309159,-1.9177338,-1.1089367,5.4176807,4.834169,3.4683144
920,1778428831550,2.496006775,-1.9871318875,-1.1221768,5.4176807,4.834169,3.4683144
921,1778428831560,3.8595847333333335,-2.508984322222222,-1.2177878888888887,5.7304344,6.196969,2.2905245
922,1778428831570,4.304733,-2.7975109,-1.241231,4.8813567,4.833558,2.528755
923,1778428831580,4.304733,-2.7975109,-1.241231,4.8813567,4.833558,2.528755
924,1778428831590,5.225651825,-3.1554699625,-1.4688356624999999,2.2022379677500004,0.83039912,3.2336440375
925,1778428831600,6.089890649999999,-3.437952175,-1.7949598500000001,-0.2845784645,-2.4798871499999997,3.290844075
926,1778428831610,6.2412486,-3.5098693,-1.9794753,-1.1912285,-2.9751315,2.492715
927,1778428831620,6.060946622222222,-3.5916050888888886,-1.9526139333333334,-2.2101896,-2.630274477777778,0.6697346455555555
928,1778428831630,5.49647925,-3.5076819500000003,-1.8184444750000002,-3.508572975,-1.459600475,-2.3634635250000002
929,1778428831640,4.809183,-3.3751667,-1.5477427,-4.539435,-0.2720561,-4.745367
930,1778428831650,4.809183,-3.3751667,-1.5477427,-4.539435,-0.2720561,-4.745367
931,1778428831660,3.5578333125,-3.329717825,-0.7064017125,-6.035676625,0.4907394,-7.275897
932,1778428831670,1.9229442222222224,-3.3127812,0.6083044577777778,-7.342010599999999,0.945973311111111,-9.731203888888889
933,1778428831680,0.9285908,-3.451055,1.5728662,-7.687207,0.8384642,-11.036101
934,1778428831690,0.85315194375,-3.4649048875000004,1.6270462,-7.63009285,0.8146411625,-11.094284250000001
935,1778428831700,-0.7217833166666666,-3.6503655777777784,2.562419188888889,-5.876104588888889,0.32148383466666663,-11.858640777777778
936,1778428831710,-1.2680618,-3.7483284,2.7987304,-4.5382133,-0.022219568,-11.944431
937,1778428831720,-1.6743964999999998,-3.805506466666667,2.7105444666666667,-3.1780091666666666,-0.14357455266666666,-12.004294
938,1778428831730,-2.1251545,-3.8193386,2.532709,-1.8241426,-0.16515782,-12.060492
939,1778428831740,-2.300866,-3.7519872,2.2711082,-0.9481113,0.1066692,-12.1368475
940,1778428831750,-2.41161565,-3.437163275,1.73361875,0.30672166250000005,0.6728482499999999,-12.0744650625
941,1778428831760,-2.3582855874999997,-3.1427100625,1.2389976,1.0169843,1.0076689,-11.870519
942,1778428831770,-2.2811089,-3.0383785,1.0225596,1.4335822,1.2251306,-11.470413
943,1778428831780,-2.0953357,-2.858642425,0.8559951,1.509231775,1.1582428249999999,-11.00998725
944,1778428831790,-1.9457766125,-2.5788203625,0.7777397312500001,1.3628956575,0.73378028125,-10.271081375000001
945,1778428831800,-1.8391318,-2.379712,0.8199868,0.90764266,-0.2152473,-9.044052
946,1778428831810,-1.8391318,-2.379712,0.8199868,0.90764266,-0.2152473,-9.044052
947,1778428831820,-1.7440804875,-2.2758567750000003,0.9838646,0.6109999675,-1.7591351125,-7.51589325
948,1778428831830,-1.6224117,-2.262571,1.1831484,0.36948624,-3.613467,-5.886506
949,1778428831840,-1.59283685,-2.346238175,1.1925428999999999,0.50509431,-4.7973651749999995,-5.205869375
950,1778428831850,-1.584696025,-2.371102475,1.01834828875,0.790054555,-5.330176775,-4.927914625
951,1778428831860,-1.5880460875,-2.336165275,0.8596652487499999,0.9831586625,-5.308339125,-4.9038912125
952,1778428831870,-1.5580956333333331,-2.191195,0.6003771333333333,1.0646304,-4.845622333333333,-5.0335594666666665
953,1778428831880,-1.5243267,-2.0985675,0.4492945,1.0255362,-4.514543,-5.134553
954,1778428831890,-1.4766932999999998,-2.0296089,0.3366224314285714,0.7199380342857143,-4.025494285714286,-5.320774142857142
955,1778428831900,-1.4508468,-1.9909394,0.31654286,0.38910971375,-3.7441119125,-5.45318625
956,1778428831910,-1.4659730666666666,-1.9869825333333333,0.43645837111111113,-0.009035446666666669,-3.8050948333333334,-5.457894866666667
957,1778428831920,-1.5274480874999998,-2.0010619375000003,0.6763542250000001,-0.2471640675,-4.067860925,-5.316432799999999
958,1778428831930,-1.5660707,-1.9987141875,0.78864736625,-0.34642675125,-4.4178000875,-5.0920131
959,1778428831940,-1.6345363666666666,-1.9895572333333331,0.8897876533333332,-0.3999777022222222,-4.9299189666666665,-4.682585444444444
960,1778428831950,-1.6685425,-1.9784997,0.9059065,-0.42278266,-5.2762694,-4.33671
961,1778428831960,-1.758018,-1.90995145,0.8148951249999999,-0.49119755,-5.4851030000000005,-3.9422554875
962,1778428831970,-1.85419735,-1.679861725,0.5489801675,-0.8805458625,-5.641174749999999,-3.2625352750000003
963,1778428831980,-1.884469825,-1.37323945,0.36349681375,-1.5593404,-5.2223625,-2.8506714250000003
964,1778428831990,-1.8736078999999999,-1.1902066,0.3586413425,-2.2777731,-4.808437,-2.5766300500000003
965,1778428832000,-1.8423026,-1.102351,0.49005908,-3.233978,-4.454069,-2.438197
966,1778428832010,-1.955175025,-0.79266055,0.9276837,-4.630288875,-4.21087555,-2.5817459
967,1778428832020,-2.255602555555556,-0.5133429666666667,1.5422682333333335,-5.78312,-3.9501201999999997,-2.8047051
968,1778428832030,-2.78840965,-0.4285463375,2.610007575,-6.5360560625,-3.58957715,-3.105013025
969,1778428832040,-3.2533909000000003,-0.7481229,3.45277765,-6.8130848125,-3.34362525,-3.3486647125
970,1778428832050,-3.3180592,-0.810718,3.5767634,-6.803922,-3.333699,-3.3960054
971,1778428832060,-4.532955175000001,-1.1267730375,4.7927488625,-5.223889499999999,-2.6971198125,-4.0259416
972,1778428832070,-5.4030514375,-0.9734485500000001,5.275890875,-3.4320453,-1.71135533375,-4.304869625
973,1778428832080,-6.221680788888889,-0.5639895177777778,5.2386492222222225,-1.33442133,-0.24986197999999998,-4.106217333333333
974,1778428832090,-6.776378625,0.14232156874999996,4.5949633125,0.15614783250000003,0.929805,-3.4404445
975,1778428832100,-7.013839,0.753931175,3.8878946,1.1835929125,1.9615069250000001,-2.283719375
976,1778428832110,-7.0181230999999995,1.2388451,3.3873625,1.19107575,2.59625345,-0.41634969999999993
977,1778428832120,-6.8179967249999995,1.35076475,3.1828991375,0.8357154250000001,2.7579754249999997,1.520093375
978,1778428832130,-6.3946720374999995,1.08862294625,3.1921451875,0.6162685,2.6631413,2.7566009
979,1778428832140,-5.509057933333334,0.49366025288888893,3.3059991111111113,0.7482793866666666,2.0372943555555554,5.938657
980,1778428832150,-4.743295,-0.026099084,3.328548,1.199102725,1.7779377,7.1290455
981,1778428832160,-3.66674595,-0.715232275,3.115806675,2.0921518,1.35798985,8.217594250000001
982,1778428832170,-3.0047178,-1.0986922,2.8443732,2.806843,0.9722398,8.651506
983,1778428832180,-2.6508558124999997,-1.268046525,2.5872737000000003,3.183125025,0.6905628625,8.658454375
984,1778428832190,-1.96548805,-1.53938855,1.925882225,3.711660675,0.1961583325,8.00469575
985,1778428832200,-1.6628904375,-1.4998892875,1.56713785,3.8827741375,0.27037627375,7.288858687499999
986,1778428832210,-1.4702416444444446,-1.282713722222222,1.1403273444444446,3.9395576666666665,0.9936194,6.158129533333334
987,1778428832220,-1.3886176,-1.1990029,0.9827708,3.895984,1.5165046,5.6636996
988,1778428832230,-1.3097681777777777,-1.1114537333333334,0.9009705977777779,3.805510488888889,2.3128543777777777,5.030997611111111
989,1778428832240,-1.2119304,-1.0298772,0.8809965,3.698985575,3.454188575,4.2355384125
990,1778428832250,-1.1830669555555555,-0.9526538199999999,0.9179194333333334,3.6146547777777776,4.202289777777777,3.7209337111111105
991,1778428832260,-1.2109700499999998,-0.92639552,0.9758191300000001,3.447316425,4.627397025,3.415323375
992,1778428832270,-1.2314743,-0.9261516,0.99423486,3.3236198,4.7633104,3.31377
993,1778428832280,-1.2877961125,-0.9514960299999999,1.02274262,3.1528117250000003,4.7997322875,3.3333934999999997
994,1778428832290,-1.3849893,-1.0341897111111114,1.083003588888889,2.8948052,4.7523155,3.498246
995,1778428832300,-1.4872743,-1.14444935,1.1403791,2.67841255,4.444295625,3.90369575
996,1778428832310,-1.5826533,-1.2546464,1.1738795,2.5881598,4.2477555,4.233095
997,1778428832320,-1.6059473,-1.3015089,1.1678883,2.5373068,4.08233045,4.5484450249999995
998,1778428832330,-1.6499439249999999,-1.48929425,1.1312169,2.380471725,3.8081746,5.098513125
999,1778428832340,-1.701258,-1.6270462,1.0889355,2.2137105,3.6918082,5.297802
1000,1778428832350,-1.701258,-1.6270462,1.0889355,2.2137105,3.6918082,5.297802
