id,timestamp,acc_x,acc_y,acc_z,gyro_x,gyro_y,gyro_z
0,1778413549.279937,-0.6398849,0.19985923,0.7868142,-0.15507884,-0.26380965,0.07207998
1,1778413549.2901099,-0.6093953,0.14275223,0.77876496,-0.15691139,-0.29251948,0.06658235
2,1778413549.300295,-0.59351027,0.14570972,0.77925277,-0.05428905,0.020234315,-0.039094225
3,1778413549.3105133,-0.600096,0.17083314,0.79193646,-0.017027367,0.18821731,-0.07207998
4,1778413549.320724,-0.6193959,0.16522306,0.8517265,0.02145601,0.3830776,-0.09773556
5,1778413549.3309069,-0.610371,0.16253997,0.8717277,0.15836215,0.5009711,-0.10628742
6,1778413549.3411586,-0.59082717,0.1642474,0.8497752,0.2738123,0.63841176,-0.13011047
7,1778413549.3513596,-0.6101271,0.17522363,0.84196985,0.38620818,0.8430456,-0.18508671
8,1778413549.3615913,-0.5839975,0.17644322,0.8558731,0.43629766,0.9762103,-0.19913621
9,1778413549.3717563,-0.5508248,0.18083371,0.8748986,0.4912739,1.025078,-0.2327328
10,1778413549.3819244,-0.5410376,0.17107704,0.86806893,0.58778775,1.0287431,-0.26694027
11,1778413549.392079,-0.5508248,0.1642474,0.81803554,0.6763606,1.0678374,-0.31947312
12,1778413549.4022572,-0.5944859,0.2025728,0.69674796,0.75271654,1.36532,-0.4111002
13,1778413549.412508,-0.63061607,0.2086707,0.6013461,0.8174663,1.9364622,-0.50639236
14,1778413549.4226477,-0.62793297,0.1744919,0.54984915,0.8944331,2.7025409,-0.6426113
15,1778413549.4327717,-0.60232174,0.15522248,0.55228835,0.99461204,3.3695862,-0.8063184
16,1778413549.4429855,-0.594242,0.18010198,0.55741054,1.0514208,3.9224029,-0.95116556
17,1778413549.4532075,-0.58790016,0.16253997,0.57668,1.0294304,4.1710176,-1.0446252
18,1778413549.4636114,-0.562045,0.1276294,0.5961933,1.0337063,4.265699,-1.1118183
19,1778413549.4738007,-0.5281101,0.09201756,0.6120784,1.1369394,4.2321024,-1.225436
20,1778413549.4840243,-0.48612595,0.055399574,0.58448535,1.2762127,4.061065,-1.2926291
21,1778413549.4942558,-0.44392833,0.0031709166,0.49615702,1.4441956,3.9847093,-1.3805912
22,1778413549.5045133,-0.49298608,-0.06296099,0.3792599,1.6915888,4.0958834,-1.5668995
23,1778413549.5151505,-0.49298608,-0.06296099,0.3792599,1.6915888,4.0958834,-1.5668995
24,1778413549.5256193,-0.5381107,-0.13153206,0.2757783,2.0440476,4.163077,-1.7116704
25,1778413549.535771,-0.4788084,-0.20696329,0.19473697,2.2156956,3.9395068,-1.80513
26,1778413549.5461118,-0.4285311,-0.23306239,0.12543415,2.282889,3.7990117,-1.8582737
27,1778413549.5563433,-0.3948706,-0.2657777,0.110555224,2.3256483,3.518022,-1.9150825
28,1778413549.566579,-0.3843822,-0.2804127,0.08835881,2.3470278,3.0171273,-1.9743347
29,1778413549.576744,-0.3843822,-0.2804127,0.08835881,2.3470278,3.0171273,-1.9743347
30,1778413549.5869899,-0.3843822,-0.2804127,0.08835881,2.3470278,3.0171273,-1.9743347
31,1778413549.5971992,-0.50127923,-0.39901718,-0.10104248,2.190651,1.5766732,-2.0757353
32,1778413549.607823,-0.50127923,-0.39901718,-0.10104248,2.190651,1.5766732,-2.0757353
33,1778413549.6185105,-0.50127923,-0.39901718,-0.10104248,2.190651,1.5766732,-2.0757353
34,1778413549.6286798,-0.50127923,-0.39901718,-0.10104248,2.190651,1.5766732,-2.0757353
35,1778413549.63902,-0.52981746,-0.30602396,-0.40731034,0.61099994,2.3549688,-2.029311
36,1778413549.6491725,-0.52981746,-0.30602396,-0.40731034,0.0458899,1.8698798,-1.8955353
37,1778413549.6595361,-0.645495,-0.34508112,-0.4099934,-0.32733777,1.412966,-1.7605381
38,1778413549.6696742,-0.7880338,-0.2938281,-0.37657684,-0.58206105,1.0189695,-1.5595694
39,1778413549.6798785,-0.8717277,-0.25672227,-0.3202016,-0.58206105,1.0189695,-1.5595694
40,1778413549.6900415,-0.8717277,-0.25672227,-0.3202016,-0.58206105,1.0189695,-1.5595694
41,1778413549.7005832,-0.8717277,-0.25672227,-0.3202016,-0.58206105,1.0189695,-1.5595694
42,1778413549.7112093,-0.8717277,-0.25672227,-0.3202016,-0.58206105,1.0189695,-1.5595694
43,1778413549.7216108,-0.68406427,-0.018049834,0.22257397,0.28847262,-2.108034,-0.23334365
44,1778413549.7317617,-0.7253167,-0.041252404,0.1513198,0.60916746,-2.4415565,-0.26144263
45,1778413549.7423015,-0.74263483,-0.13104422,0.007561417,1.0685246,-2.4604928,-0.32802498
46,1778413549.7527268,-0.7414152,-0.20476803,-0.05369216,1.3525685,-2.1404088,-0.4123219
47,1778413549.7632482,-0.80218095,-0.32800692,0.006341833,1.4942851,-1.8368177,-0.58091575
48,1778413549.7734964,-0.910541,-0.40779817,0.041740242,1.3598987,-1.6822734,-0.80448586
49,1778413549.7836554,-0.910541,-0.40779817,0.041740242,1.3598987,-1.6822734,-0.80448586
50,1778413549.793848,-0.910541,-0.40779817,0.041740242,1.3598987,-1.6822734,-0.80448586
51,1778413549.8040407,-1.3649577,-0.23013538,-0.21501255,0.3800997,-0.4812713,-1.893092
52,1778413549.8142586,-1.6082646,-0.026343001,-0.13519081,-0.34383065,-0.44278792,-2.1636972
53,1778413549.824513,-1.9367595,0.055155657,-0.031983573,-0.9027559,-0.5625903,-2.05741
54,1778413549.834776,-2.180066,-0.020732917,0.12128756,-1.3199645,-0.6529957,-1.7318283
55,1778413549.8450046,-2.354314,-0.1659548,0.33825144,-1.5154357,-0.84296924,-1.3280582
56,1778413549.8551576,-2.5114882,-0.3062679,0.59180284,-1.4952778,-1.1532797,-0.92673165
57,1778413549.8653522,-2.6742718,-0.38365042,0.81852335,-1.3486744,-1.8936265,-0.7122479
58,1778413549.8756166,-3.0361834,-0.2145247,0.9112727,-1.0701281,-2.2240949,-0.7018635
59,1778413549.8858216,-3.5616105,-0.3009017,1.0694221,-0.71828,-2.055501,-0.8130377
60,1778413549.896013,-4.259334,-0.44831884,1.1170164,0.042224817,-0.9779665,-0.9725452
61,1778413549.9062462,-4.5573387,-0.43978173,0.9859417,0.76493347,0.123467505,-0.8222004
62,1778413549.9166434,-4.828452,-0.46807608,0.9900883,2.4160535,1.9138608,0.018325418
63,1778413549.926838,-4.832111,-0.83123755,0.7765697,3.8381824,2.6933782,0.93642884
64,1778413549.937044,-4.588073,-1.030365,0.2728513,4.652442,3.1490703,1.8430026
65,1778413549.9475648,-4.1807623,-1.1797335,-0.2145247,4.6011305,3.2028248,2.7818747
66,1778413549.9579074,-4.012856,-1.2814772,-0.39121184,4.122837,2.974979,3.265055
67,1778413549.968075,-3.6182294,-1.1733916,-0.87782556,1.942647,1.80513,4.5210333
68,1778413549.978315,-3.6182294,-1.1733916,-0.87782556,1.942647,1.80513,4.5210333
69,1778413549.9885855,-3.290741,-1.0454879,-0.7836433,0.9536853,1.3408861,4.9553456
70,1778413549.9988685,-3.290741,-1.0454879,-0.7836433,-0.10498937,0.5651101,5.608952
71,1778413550.0090642,-3.0583797,-1.1006434,-0.24135554,-1.8489583,-1.0097306,7.283361
72,1778413550.0192254,-2.8558373,-1.2314743,-0.024635585,-1.966241,-1.3725737,8.051196
73,1778413550.0294535,-2.619848,-1.2941914,0.094456725,-1.6919706,-1.3762388,8.656546
74,1778413550.0395987,-2.4255683,-1.3866663,0.18985863,-1.3431767,-1.196039,9.057872
75,1778413550.0497413,-2.2383926,-1.4823426,0.26797295,-1.0811232,-0.89794546,9.33031
76,1778413550.0599432,-1.9794753,-1.5953369,0.42194536,-0.85205555,-0.7562289,9.528835
77,1778413550.0701642,-1.7947085,-1.681226,0.5478978,-0.6791858,-0.7562289,9.525782
78,1778413550.080359,-1.6924769,-1.7486081,0.60232174,-0.40796962,-0.58763504,9.442706
79,1778413550.0905864,-1.6592736,-1.8845308,0.6198837,0.026342789,-0.17462596,9.240516
80,1778413550.1007414,-1.6265583,-1.9531018,0.6816251,0.39781427,0.4685962,9.026719
81,1778413550.1109726,-1.5919222,-1.9552971,0.6952845,0.7087355,0.9322293,9.024886
82,1778413550.1213615,-1.5277416,-2.0087452,0.6755272,0.97934085,1.2999593,9.061538
83,1778413550.1316118,-1.3212662,-2.1546988,0.721414,1.3324106,1.5711755,9.225855
84,1778413550.1418033,-1.0689343,-2.255467,0.7118708,1.3519577,1.4013599,9.198977
85,1778413550.1520033,-0.92517596,-2.1668947,0.64525104,1.2536113,1.1026556,9.194702
86,1778413550.162517,-0.7314146,-2.2274165,0.6069561,1.2035218,0.62558395,9.112238
87,1778413550.1726594,-0.6291526,-2.1190567,0.5405498,1.2420052,0.07887565,9.001063
88,1778413550.1828222,-0.46905175,-2.003379,0.48539415,1.3690615,-0.44706383,8.783602
89,1778413550.1934955,-0.46905175,-2.003379,0.48539415,1.3690615,-0.44706383,8.783602
90,1778413550.2038736,-0.29992604,-1.9448086,0.45027018,1.5077237,-0.5551838,8.391438
91,1778413550.2142217,-0.09323715,-1.718088,0.42804328,1.9811304,-0.1556897,7.2308283
92,1778413550.2245018,0.07783991,-1.820838,0.4417331,2.2273018,0.04344651,6.5838647
93,1778413550.2346807,0.19034646,-1.6390285,0.17595538,2.535169,0.6390226,5.9876776
94,1778413550.2451518,0.30309695,-1.4537739,0.11397006,2.706206,1.0049201,5.3756084
95,1778413550.255403,0.46002686,-1.3698361,-0.012195834,2.717812,1.2437614,4.9431286
96,1778413550.2655995,0.6977236,-1.3939837,-0.13982524,2.6707768,1.3317233,4.312047
97,1778413550.2758436,0.9988693,-1.2255898,-0.38828486,2.403226,1.3115654,3.8178718
98,1778413550.2860794,1.2561098,-1.0384142,-0.5403059,1.9628049,1.3860887,3.4397573
99,1778413550.296524,1.5135639,-0.95545214,-0.6242742,1.4112098,1.2559783,3.0353763
100,1778413550.3069344,1.7305278,-0.8231578,-0.66138005,0.7795938,1.2443722,2.7366722
101,1778413550.3171592,2.3042808,-0.8192551,-0.40633467,0.13514996,1.1203703,2.4947765
102,1778413550.3278558,2.9105053,-0.86587375,-0.110555224,-0.066506,0.8344937,2.197294
103,1778413550.3380446,3.5054789,-0.98228294,0.0014635,0.30618718,0.40445724,1.6602829
104,1778413550.3482795,3.802478,-1.0701538,-0.0041465834,0.69468606,0.033062108,1.0164498
105,1778413550.3585303,3.9125454,-1.2312304,-0.15766165,1.0416473,-0.5686988,-0.14415996
106,1778413550.368699,3.6458223,-1.366909,-0.39243144,1.0697463,-0.8826743,-0.8802309
107,1778413550.3789344,3.6458223,-1.366909,-0.39243144,1.0697463,-0.8826743,-0.8802309
108,1778413550.3891523,3.088656,-1.6883303,-0.8971255,0.7276718,-0.8722899,-1.7477103
109,1778413550.3995667,3.2009187,-1.3744705,-0.97862417,0.18951537,0.2914505,-2.2553244
110,1778413550.4097445,3.5652692,-1.2919961,-0.8978573,0.4124746,0.6017609,-2.249216
111,1778413550.4199548,4.152712,-1.5253024,-0.9378596,0.49799323,0.17355698,-2.521654
112,1778413550.4301658,4.4196787,-1.7890984,-0.95350075,0.028786177,-0.7824953,-3.2345126
113,1778413550.4403374,4.4196787,-1.7890984,-0.95350075,0.028786177,-0.7824953,-3.2345126
114,1778413550.4506056,4.4196787,-1.7890984,-0.95350075,0.028786177,-0.7824953,-3.2345126
115,1778413550.4608927,4.4196787,-1.7890984,-0.95350075,0.028786177,-0.7824953,-3.2345126
116,1778413550.4711118,2.0992994,-3.18482,0.36947277,-2.5728123,-2.4751532,-8.481233
117,1778413550.4813418,1.1645802,-3.4915755,0.7943756,-2.8105083,-1.8026103,-9.861213
118,1778413550.4916148,0.21086596,-3.7092714,1.1887584,-2.8483808,-1.2192512,-10.952186
119,1778413550.5017846,-0.6665023,-3.8371446,1.4484078,-2.7445366,-0.84724516,-11.633967
120,1778413550.5119627,-1.2317183,-3.787843,1.5741162,-2.6260324,-0.65971506,-11.905184
121,1778413550.5221906,-1.2317183,-3.787843,1.5741162,-2.6260324,-0.65971506,-11.905184
122,1778413550.532831,-1.2317183,-3.787843,1.5741162,-2.6260324,-0.65971506,-11.905184
123,1778413550.5435107,-1.2317183,-3.787843,1.5741162,-2.6260324,-0.65971506,-11.905184
124,1778413550.553755,-2.5314891,-3.8325102,1.9543214,-1.2087904,-0.38781166,-10.682802
125,1778413550.56411,-2.57762,-3.7741835,1.9543214,-0.7695912,-0.418354,-10.280865
126,1778413550.5743492,-2.66232,-3.6665554,1.9096541,-0.3908659,-0.663991,-9.818454
127,1778413550.5846145,-2.7182074,-3.3834598,1.7615358,-0.007253811,-1.39151,-8.993198
128,1778413550.5948606,-2.759673,-3.1408846,1.5455475,0.12110047,-2.3138895,-8.134882
129,1778413550.6050987,-2.7748265,-2.9027,1.2871178,0.014125843,-3.3456867,-7.079949
130,1778413550.6153178,-2.7748265,-2.9027,1.2871178,0.014125843,-3.3456867,-7.079949
131,1778413550.6258533,-2.7748265,-2.9027,1.2871178,0.014125843,-3.3456867,-7.079949
132,1778413550.6362166,-2.331874,-2.3277273,0.679186,-1.3889903,-5.724937,-3.9107969
133,1778413550.646726,-1.9865488,-2.2513204,0.59058326,-2.1299481,-6.027383,-3.1685412
134,1778413550.6573663,-1.7205272,-2.181042,0.531281,-2.6376386,-5.8886437,-2.904655
135,1778413550.6675677,-1.4755129,-2.1249106,0.4917665,-3.1079907,-5.432952,-2.9339757
136,1778413550.6777296,-1.3088263,-2.0717063,0.54201335,-3.5368056,-4.759187,-3.2064135
137,1778413550.6880774,-1.1775382,-2.043412,0.68357646,-3.9246936,-3.884454,-3.6774533
138,1778413550.69831,-1.1277487,-1.9113616,0.98886865,-4.0523605,-3.3133118,-4.138643
139,1778413550.7085817,-1.1277487,-1.9113616,0.98886865,-4.0639668,-2.975437,-4.5931134
140,1778413550.7187405,-1.3046798,-1.8340095,1.1331148,-3.9876108,-2.683452,-5.1282153
141,1778413550.7289393,-1.3817879,-1.7215028,1.1689707,-3.9424083,-2.7072752,-5.3756084
142,1778413550.7391605,-1.3817879,-1.7215028,1.1689707,-3.9424083,-2.7072752,-5.3756084
143,1778413550.7493594,-1.844254,-1.2241263,1.4816109,-4.5343194,-2.6425252,-6.128783
144,1778413550.7595763,-2.2588818,-1.0840572,1.8991656,-4.793929,-2.5704453,-6.43184
145,1778413550.769718,-2.7374768,-0.9022478,2.4431608,-4.85929,-2.6700134,-6.5252995
146,1778413550.7798889,-2.7374768,-0.9022478,2.4431608,-4.78721,-2.8789232,-6.5375166
147,1778413550.790112,-3.9823666,-0.5344519,3.970872,-4.310138,-3.5344386,-6.3505974
148,1778413550.8003268,-4.601488,-0.48981518,4.5309653,-3.5758998,-3.944928,-6.057314
149,1778413550.8106022,-5.3189993,-0.5635085,4.785035,-2.4225438,-3.732964,-5.827636
150,1778413550.8207579,-6.4089103,-0.5588741,4.9009566,-0.75065494,-2.1776705,-5.0640764
151,1778413550.830988,-6.4089103,-0.5588741,4.9009566,0.08261709,-0.94803494,-4.3487744
152,1778413550.8411949,-7.4744306,-0.22794013,4.5800233,1.0837958,0.8662578,-2.565024
153,1778413550.851501,-7.4744306,-0.22794013,4.5800233,1.0837958,0.8662578,-2.565024
154,1778413550.8616679,-7.4744306,-0.22794013,4.5800233,1.0837958,0.8662578,-2.565024
155,1778413550.8719795,-6.383055,-0.8558731,3.5601468,1.9915148,1.4819918,3.2723851
156,1778413550.8821962,-5.5218163,-1.2197357,3.3265967,1.9212674,1.6218759,4.7042875
157,1778413550.892418,-4.4169955,-1.5604265,3.096705,2.0996346,2.0922282,5.7054663
158,1778413550.902603,-4.4169955,-1.5604265,3.096705,2.0996346,2.0922282,5.7054663
159,1778413550.912731,-2.9610264,-1.7351623,2.5807908,2.4435418,3.4758737,5.8758926
160,1778413550.9228952,-2.4309347,-1.6512243,2.3387034,2.5333364,3.9248464,5.6156716
161,1778413550.9331079,-2.0265512,-1.5035634,2.0963721,2.590756,4.0946617,5.3267407
162,1778413550.943303,-1.7376013,-1.2800137,1.8125448,2.6078596,3.902245,5.0512486
163,1778413550.953821,-1.6656156,-1.1489694,1.6617128,2.4844685,3.5797176,5.0029917
164,1778413550.9640558,-1.6299732,-1.0052416,1.517741,2.3097663,3.2724614,5.087289
165,1778413550.9742737,-1.6526879,-0.9127362,1.5655487,2.179045,2.993915,5.2717648
166,1778413550.9849296,-1.6558588,-0.9595986,1.6375651,2.2260802,2.7770643,5.5429807
167,1778413550.9951782,-1.5765554,-1.053781,1.6331745,2.554105,2.7520196,5.889942
168,1778413551.0054007,-1.5240828,-1.144335,1.595093,2.8144023,2.806385,6.074418
169,1778413551.0157857,-1.4464563,-1.2287607,1.5970445,3.1247127,2.8741891,6.3370824
170,1778413551.0259874,-1.4120641,-1.2880934,1.6570784,3.2108424,2.7294183,6.5557656
171,1778413551.036209,-1.3747144,-1.4930749,1.7202834,3.3342335,2.4691973,6.7823896
172,1778413551.0464838,-1.346664,-1.7478763,1.7400407,3.5510843,2.122236,6.9467077
173,1778413551.0566316,-1.363982,-1.9340763,1.6775672,3.7172346,1.8008541,7.028561
174,1778413551.0672586,-1.3776414,-2.040241,1.577775,3.7606049,1.6676893,7.0310044
175,1778413551.0774813,-1.3871541,-2.1578698,1.4479198,3.7612157,1.7666466,6.9192195
176,1778413551.0876436,-1.4206011,-2.1583576,1.3268762,3.6738644,2.0183158,6.7689514
177,1778413551.0979068,-1.460634,-2.1578698,1.2724524,3.4582355,2.350693,6.626013
178,1778413551.1081426,-1.5187167,-2.2486374,1.4801472,3.1967928,2.7501872,6.4959025
179,1778413551.1182916,-1.5821655,-2.3145254,1.7363819,3.0068192,2.8931253,6.406108
180,1778413551.1285598,-1.6619568,-2.3243124,1.8391318,3.0068192,2.8931253,6.406108
181,1778413551.1389856,-1.7686093,-2.345777,1.8147401,3.3818796,2.2816672,6.5820317
182,1778413551.1493485,-1.8677003,-2.3279712,1.6602494,3.3818796,2.2816672,6.5820317
183,1778413551.1595633,-1.883555,-2.310135,1.4674637,3.667756,2.494853,7.005349
184,1778413551.1700468,-1.883555,-2.310135,1.4674637,3.667756,2.494853,7.005349
185,1778413551.1802545,-1.6336623,-2.363583,1.2138819,3.5229852,3.2205396,7.5655723
186,1778413551.1906958,-1.3537375,-2.3633392,1.0401217,3.2291677,3.0409503,7.927805
187,1778413551.200889,-1.0921063,-2.3894687,0.8675811,2.8895366,2.5388339,8.146488
188,1778413551.2113056,-0.45856333,-2.400445,0.70211416,2.498518,1.6505857,8.180696
189,1778413551.2217326,-0.023416,-2.4521856,0.6225668,2.498518,1.6505857,8.180696
190,1778413551.2321901,0.7130904,-2.169334,0.2701682,1.502837,-1.0298885,7.182571
191,1778413551.2426066,1.2539147,-1.9509065,-0.00512225,1.0618052,-0.9901834,5.9186516
192,1778413551.2527678,1.5963126,-1.6983308,-0.36776537,1.1980242,1.5430765,3.6798203
193,1778413551.2632952,1.781293,-1.3754461,-0.6816251,1.6482186,4.9694715,2.0714593
194,1778413551.273546,1.9841098,-1.0772275,-0.8827039,1.8003196,7.588861,1.1337326
195,1778413551.2839608,2.5453925,-0.45929506,-0.7560502,1.4283136,10.13617,-0.04703524
196,1778413551.2942016,3.0215483,-0.1642474,-0.14912456,0.6757498,9.795852,0.014660334
197,1778413551.3044999,3.853243,0.062473156,0.639397,0.1565296,6.4306183,1.1105204
198,1778413551.3151484,4.840435,-0.40633467,1.1807091,0.8284616,2.486301,2.0824547
199,1778413551.3257895,5.323878,-1.0894233,0.7250728,1.7661121,-1.0757021,2.624887
200,1778413551.3359702,5.832474,-1.5360347,-0.2423312,2.058708,-2.8306663,2.4379678
201,1778413551.3463645,6.2561274,-1.5184728,-0.90761393,1.5614783,-3.0536253,1.4018945
202,1778413551.356597,6.5431256,-1.4149911,-1.612899,0.5144861,-2.615648,-0.3310792
203,1778413551.3667846,6.5431256,-1.4149911,-1.612899,-0.7604285,-2.2583022,-2.2962513
204,1778413551.377407,5.6494455,-1.5284733,-0.9356643,-2.1525493,-1.3114891,-4.652365
205,1778413551.3876789,5.6494455,-1.5284733,-0.9356643,-2.1525493,-1.3114891,-4.652365
206,1778413551.398317,4.208355,-1.7517791,0.81413287,-2.093908,-0.82403296,-7.2454886
207,1778413551.4089608,4.208355,-1.7517791,0.81413287,-2.093908,-0.82403296,-7.2454886
208,1778413551.4192002,4.208355,-1.7517791,0.81413287,-2.093908,-0.82403296,-7.2454886
209,1778413551.4294653,-0.05174082,-3.1994548,1.0972286,-0.3365005,-3.2577248,-9.517917
210,1778413551.4399042,-0.05174082,-3.1994548,1.0972286,-0.3365005,-3.2577248,-9.517917
211,1778413551.4506977,-1.1655558,-3.2924483,1.0940578,-0.8850413,-2.9540575,-9.251587
212,1778413551.4608765,-1.42987,-3.2792463,1.2361088,-1.1910758,-3.2161107,-8.757946
213,1778413551.4710371,-1.5223755,-3.2585132,1.6294852,-1.4396906,-3.7830534,-8.193523
214,1778413551.4812045,-1.5223755,-3.2585132,1.6294852,-1.4396906,-3.7830534,-8.193523
215,1778413551.4918509,-1.5223755,-3.2585132,1.6294852,-1.4396906,-3.7830534,-8.193523
216,1778413551.5025396,-1.5223755,-3.2585132,1.6294852,-1.4396906,-3.7830534,-8.193523
217,1778413551.5127842,-1.7566574,-3.3922405,1.3556888,-1.70602,-5.706001,-6.0841913
218,1778413551.522972,-1.7988551,-3.168203,1.3393159,-2.5587628,-5.5777225,-5.893607
219,1778413551.533533,-1.772268,-2.9334335,1.5250584,-3.103715,-5.1770067,-5.7604423
220,1778413551.5436974,-1.772268,-2.9334335,1.5250584,-3.103715,-5.1770067,-5.7604423
221,1778413551.554037,-1.7107705,-2.676711,1.9081906,-3.1000497,-4.5386715,-5.3145237
222,1778413551.5642602,-1.5738723,-2.5727415,1.9123372,-2.5789208,-4.323653,-4.9748926
223,1778413551.574779,-1.5738723,-2.5727415,1.9123372,-2.5789208,-4.323653,-4.9748926
224,1778413551.5853076,-1.5738723,-2.5727415,1.9123372,-2.5789208,-4.323653,-4.9748926
225,1778413551.5955641,-1.5738723,-2.5727415,1.9123372,-2.5789208,-4.323653,-4.9748926
226,1778413551.6060615,-1.1819286,-2.2130256,1.0545127,-2.525777,-3.461748,-5.1691422
227,1778413551.6163151,-1.1850996,-2.2750108,1.1028388,-2.6614616,-3.2882671,-5.3713326
228,1778413551.6265063,-1.2668422,-2.3345568,1.1704341,-2.7420933,-3.0658424,-5.732954
229,1778413551.636664,-1.4235282,-2.4756017,1.2124183,-2.6785653,-2.8868642,-6.050595
230,1778413551.6468532,-1.5450597,-2.4595032,1.1787578,-2.5269988,-2.6852846,-6.2644677
231,1778413551.656996,-1.6795188,-2.3953228,0.99545443,-2.3119805,-2.4867592,-6.3921347
232,1778413551.6671305,-1.7729999,-2.3150132,0.825597,-2.6413035,-2.1086447,-6.4532194
233,1778413551.6776297,-1.8564497,-2.2244895,0.61890805,-2.6413035,-2.1086447,-6.4532194
234,1778413551.6877987,-1.9055074,-2.189579,0.6723563,-3.1605237,-1.6908252,-6.565615
235,1778413551.6979845,-2.4929502,-1.8508397,1.3151681,-3.5221453,-1.6053066,-6.6523557
236,1778413551.7086399,-2.4929502,-1.8508397,1.3151681,-3.7298334,-2.0023572,-6.5326295
237,1778413551.7188342,-3.0354514,-1.5960687,1.6878422,-3.4647257,-3.6895938,-5.7360086
238,1778413551.729019,-3.0354514,-1.5960687,1.6878422,-3.9680638,-4.0267816,-5.7109637
239,1778413551.7392223,-4.136339,-0.7938878,2.3098907,-4.9252615,-3.5545967,-5.77327
240,1778413551.749415,-5.2245426,-0.20501198,3.541609,-4.9252615,-3.5545967,-5.77327
241,1778413551.7598531,-6.1392303,0.1586373,4.373548,-5.0651455,-2.427507,-5.490448
242,1778413551.77008,-6.7915854,0.11982407,4.820159,-2.3712327,-1.3609676,-3.1257818
243,1778413551.7802758,-7.027818,0.063448824,4.889462,-1.3486744,-1.695712,-1.5546826
244,1778413551.790551,-7.1754494,-0.07540074,4.823574,-0.7854732,-1.6529527,-0.16615045
245,1778413551.8007464,-6.9924197,-0.29016936,4.8199153,0.04833329,-0.85091025,0.99568105
246,1778413551.810948,-6.6946893,-0.64647067,4.605909,1.1204466,0.51624227,2.000601
247,1778413551.821494,-6.6946893,-0.64647067,4.605909,1.1204466,0.51624227,2.000601
248,1778413551.8316755,-5.48593,-1.5103929,4.070207,2.3916197,2.5119567,3.9143856
249,1778413551.841847,-4.498769,-1.9616388,3.5848129,2.8211217,2.4740841,4.9009805
250,1778413551.852102,-3.7495482,-2.1468937,3.0947537,2.9891047,2.337865,5.2955875
251,1778413551.8623395,-3.1440554,-2.1683583,2.6696374,3.031864,2.4740841,5.3493423
252,1778413551.8725939,-2.5881083,-1.9919151,2.3265078,3.0416377,2.9096181,5.0958405
253,1778413551.882748,-2.3841026,-1.8594072,2.1646996,3.0727909,3.2297022,4.9144187
254,1778413551.8929813,-2.146406,-1.7054045,1.8996534,3.2187834,3.6243095,4.773924
255,1778413551.9031994,-1.9931345,-1.5819216,1.6136308,3.3287358,3.7745779,4.813629
256,1778413551.9134822,-1.8681883,-1.4725859,1.3283397,3.2817006,3.837495,4.946183
257,1778413551.923754,-1.7864152,-1.4032831,1.1567748,3.0410268,3.8319976,5.1245503
258,1778413551.933917,-1.7459251,-1.3744705,1.1309197,2.727662,3.8014553,5.3695
259,1778413551.9444687,-1.7107705,-1.4364558,1.2312304,2.4514828,3.6401916,5.8239703
260,1778413551.954739,-1.7200394,-1.5660365,1.3930081,2.4514828,3.6401916,5.8239703
261,1778413551.9648988,-1.748852,-1.7107705,1.5121005,2.4362116,2.693989,6.809267
262,1778413551.9755223,-1.7703167,-1.86331,1.5465231,2.6610034,2.1020017,7.3933134
263,1778413551.9856982,-1.7459251,-2.0216727,1.4364558,2.8895366,1.6304277,7.9235287
264,1778413551.9962356,-1.691501,-2.1517718,1.2609882,2.9628382,1.4343457,8.283318
265,1778413552.006479,-1.6253387,-2.3150132,1.2048569,2.8693786,1.5320812,8.532543
266,1778413552.016726,-1.5814338,-2.4160554,1.3205343,2.7637022,1.6805172,8.591185
267,1778413552.026915,-1.5677439,-2.475358,1.4601462,2.7728648,1.7238873,8.588131
268,1778413552.037065,-1.6143625,-2.5910354,1.643907,2.9133596,1.616989,8.614397
269,1778413552.0472872,-1.6143625,-2.5910354,1.643907,3.0587413,1.4374,8.665097
270,1778413552.0575078,-1.618753,-2.6305804,1.6541514,3.136319,1.3353884,8.707246
271,1778413552.0676718,-1.583629,-2.619604,1.5782628,3.3305683,1.1967261,8.751226
272,1778413552.0779202,-1.4906358,-2.5690827,1.4672197,3.4142544,1.2162733,8.734734
273,1778413552.0881321,-1.3469079,-2.5336845,1.3888615,3.4185302,1.3897538,8.583855
274,1778413552.0985224,-1.2395235,-2.4763336,1.3886176,3.3898206,1.6102698,8.338905
275,1778413552.1089714,-1.0262184,-2.3650465,1.2719644,3.4228063,1.8943137,7.8496165
276,1778413552.119114,-0.9124923,-2.2928166,1.1367736,3.4050918,2.1320097,7.538695
277,1778413552.129625,-0.9124923,-2.2928166,1.1367736,3.4050918,2.1320097,7.538695
278,1778413552.140249,-0.9124923,-2.2928166,1.1367736,3.4050918,2.1320097,7.538695
279,1778413552.1504135,-0.60573655,-2.1317403,0.7158039,3.0929487,2.3897872,6.885012
280,1778413552.160801,-0.2376968,-1.9133129,0.46295384,2.3458061,1.6902907,6.3560185
281,1778413552.1711588,-0.014635001,-1.7847078,0.422921,2.0519886,1.2077214,5.9693522
282,1778413552.1814046,0.11397006,-1.6224117,0.31017053,1.9817412,0.8351046,5.377441
283,1778413552.191875,0.24745347,-1.4108446,0.18571205,2.030609,0.9804862,4.8698273
284,1778413552.2022557,0.46490517,-1.2865994,0.08418174,2.2499032,1.4410651,4.4440665
285,1778413552.2125049,1.0201205,-1.1284804,-0.2611433,2.6762745,2.1967595,4.038388
286,1778413552.2229478,1.5714027,-1.1406763,-0.61915195,2.9536755,3.1631198,3.5002313
287,1778413552.2333944,2.5551796,-1.1028388,-1.1140589,2.8034072,4.8228683,2.0708485
288,1778413552.2437737,3.1674714,-0.83148146,-1.261964,1.8858382,5.743415,0.3127538
289,1778413552.2539406,3.343183,-0.8607514,-0.8034005,1.0367606,5.81183,-0.7305733
290,1778413552.2641358,3.384923,-0.9107849,-0.21354906,0.9176453,5.0427732,-1.1032665
291,1778413552.2743547,3.3095224,-1.1018631,-0.022928167,1.2584981,3.994483,-1.1759573
292,1778413552.2845914,3.04033,-1.1843679,-0.531281,1.3873868,2.5718198,-0.78005195
293,1778413552.2947617,3.2214074,-0.96252567,-1.009876,0.5554129,1.8576629,-0.18325418
294,1778413552.3050988,3.8469012,-0.78876555,-1.1911976,-0.75493085,1.29324,0.2974826
295,1778413552.3153172,4.7647595,-0.78657025,-0.8026688,-2.222797,0.6665107,0.18203248
296,1778413552.325551,5.2985106,-0.9327374,-0.2965112,-2.7408717,0.21326205,-0.43675578
297,1778413552.3357055,5.560111,-1.0584459,0.70382154,-2.966885,-0.899778,-2.2999163
298,1778413552.346341,5.1623135,-1.3005332,1.3263884,-2.3645134,-1.6511202,-4.014641
299,1778413552.3565683,4.4021163,-1.5875317,1.463561,-1.2484955,-2.171562,-5.597957
300,1778413552.3667145,3.527462,-1.853035,1.1543356,-0.34749573,-2.4061275,-6.8435507
301,1778413552.37688,2.8873026,-2.0990553,0.82803607,-0.13858597,-2.4042947,-7.755546
302,1778413552.3872344,2.2786694,-2.6837847,0.88834447,-0.32917032,-2.5655584,-8.859346
303,1778413552.3975198,0.9903322,-3.4998686,1.2809894,-0.39941776,-3.0279698,-9.57778
304,1778413552.4076703,0.2962673,-3.6170099,1.4264551,-0.39453098,-3.6278982,-10.047522
305,1778413552.4179175,0.2962673,-3.6170099,1.4264551,-0.5759526,-4.229583,-10.299801
306,1778413552.4282918,0.2962673,-3.6170099,1.4264551,-0.5759526,-4.229583,-10.299801
307,1778413552.4387994,0.2962673,-3.6170099,1.4264551,-0.5759526,-4.229583,-10.299801
308,1778413552.4489963,0.2962673,-3.6170099,1.4264551,-0.5759526,-4.229583,-10.299801
309,1778413552.4594998,0.2962673,-3.6170099,1.4264551,-0.5759526,-4.229583,-10.299801
310,1778413552.4699907,0.2962673,-3.6170099,1.4264551,-0.5759526,-4.229583,-10.299801
311,1778413552.4805095,0.2962673,-3.6170099,1.4264551,-0.5759526,-4.229583,-10.299801
312,1778413552.490714,-2.2954998,-3.2633917,2.123447,-1.6345509,-4.3548064,-7.214335
313,1778413552.500931,-2.2647662,-3.0159383,2.1703095,-1.3731083,-3.8820107,-6.997484
314,1778413552.5111454,-2.2662296,-2.81678,1.9867928,-0.93451995,-3.831921,-6.682898
315,1778413552.5216212,-2.2662296,-2.81678,1.9867928,-0.93451995,-3.831921,-6.682898
316,1778413552.5320325,-2.2662296,-2.81678,1.9867928,-0.93451995,-3.831921,-6.682898
317,1778413552.5422137,-2.2662296,-2.81678,1.9867928,-0.93451995,-3.831921,-6.682898
318,1778413552.5528584,-2.2662296,-2.81678,1.9867928,-0.93451995,-3.831921,-6.682898
319,1778413552.5630937,-1.8706275,-2.018746,1.0037781,-0.9180271,-3.0414085,-5.086067
320,1778413552.5735207,-1.712234,-1.8850186,0.8753865,-0.9247464,-3.0108662,-4.85761
321,1778413552.5841446,-1.712234,-1.8850186,0.8753865,-0.9247464,-3.0108662,-4.85761
322,1778413552.5947862,-1.712234,-1.8850186,0.8753865,-0.9247464,-3.0108662,-4.85761
323,1778413552.6054122,-1.712234,-1.8850186,0.8753865,-0.9247464,-3.0108662,-4.85761
324,1778413552.616107,-1.712234,-1.8850186,0.8753865,-0.9247464,-3.0108662,-4.85761
325,1778413552.626769,-1.712234,-1.8850186,0.8753865,-0.9247464,-3.0108662,-4.85761
326,1778413552.6369495,-1.1829044,-1.4950262,0.50127923,-2.5697582,-3.77328,-3.9144619
327,1778413552.6471622,-1.2522072,-1.3822758,0.6420802,-3.0572906,-4.3609147,-3.9211812
328,1778413552.6577818,-1.3983742,-1.2910205,0.79510736,-3.4885488,-4.68894,-3.9963155
329,1778413552.6679816,-1.9113616,-0.87050813,1.2404993,-3.7280009,-4.668171,-4.0800014
330,1778413552.678288,-1.9113616,-0.87050813,1.2404993,-4.0743513,-4.280283,-4.1551356
331,1778413552.6885147,-2.2098546,-0.52298784,1.7856834,-4.2887588,-3.6156812,-4.3805385
332,1778413552.6987085,-3.024475,-0.10177423,3.3083029,-3.7719817,-2.8575435,-4.8985367
333,1778413552.7091095,-3.024475,-0.10177423,3.3083029,-3.7719817,-2.8575435,-4.8985367
334,1778413552.719339,-4.5419416,0.03003224,4.9224215,-1.9515806,-1.9675391,-5.1673098
335,1778413552.7295713,-5.4912963,-0.16473523,5.3097305,-0.338333,-1.0689827,-4.8276787
336,1778413552.7397141,-6.170726,-0.25599056,5.2589655,1.1491565,-0.07200362,-4.023193
337,1778413552.74988,-6.50605,-0.4946935,4.8929076,2.2218041,0.50158197,-2.8936598
338,1778413552.760333,-6.50605,-0.4946935,4.8929076,2.2218041,0.50158197,-2.8936598
339,1778413552.7705646,-6.4918723,-0.48786384,3.211163,2.5999186,0.35681117,0.054365408
340,1778413552.780777,-6.1699944,-0.6291526,2.5392945,1.8436897,1.0067526,1.2785033
341,1778413552.7912836,-6.1699944,-0.6291526,2.5392945,1.8436897,1.0067526,1.2785033
342,1778413552.8015318,-5.025903,-1.0567081,2.9810276,0.76432264,2.2150848,3.6162922
343,1778413552.8116765,-5.025903,-1.0567081,2.9810276,0.76432264,2.2150848,3.6162922
344,1778413552.8218458,-3.8349493,-1.1794896,3.3436706,1.4154859,2.9603186,4.762318
345,1778413552.832039,-3.2458298,-1.1518965,3.1071935,2.0770333,3.4239516,4.9907746
346,1778413552.842242,-2.705981,-1.1406763,2.6318,2.6219091,3.8735352,5.013376
347,1778413552.8525188,-2.2633028,-1.0989361,2.0924697,2.8822064,4.2247725,4.896704
348,1778413552.862686,-1.969932,-1.0523175,1.6665912,2.8266194,4.35977,4.7598743
349,1778413552.8728821,-1.8062029,-1.0247549,1.3832514,2.5443316,4.2883005,4.67008
350,1778413552.8831048,-1.7886103,-1.012559,1.3027285,2.374516,4.149638,4.7525444
351,1778413552.8935506,-1.8237649,-0.9900883,1.2231506,2.1863751,3.8845305,5.1050034
352,1778413552.9037292,-1.829863,-1.0059733,1.2504998,2.0544322,3.7079957,5.5087733
353,1778413552.914238,-1.829863,-1.0059733,1.2504998,1.96647,3.53085,5.9516377
354,1778413552.9244747,-1.7988551,-1.2546464,1.4381632,1.9047744,3.4312818,6.346245
355,1778413552.9348917,-1.7708045,-1.3356572,1.5172532,1.8950009,3.4789279,6.7121425
356,1778413552.9451218,-1.7339426,-1.5467671,1.6782991,2.0135052,3.4086804,7.1654673
357,1778413552.9555328,-1.7149171,-1.7302839,1.8562059,2.135064,3.20649,7.502044
358,1778413552.9660292,-1.7032092,-1.9187094,2.0297222,2.3433628,2.9309978,7.8154087
359,1778413552.9766572,-1.6673229,-2.1312525,2.0663402,2.7423224,2.7495763,8.095177
360,1778413552.9868767,-1.6104598,-2.3406549,1.9545653,3.1509793,2.726975,8.275988
361,1778413552.997472,-1.5553042,-2.474626,1.7683655,3.3342335,2.7960007,8.37861
362,1778413553.0077033,-1.5340835,-2.540514,1.6673229,3.263375,2.782562,8.41404
363,1778413553.0179381,-1.5184728,-2.5639606,1.6063132,3.1405947,2.6817722,8.471458
364,1778413553.0281365,-1.4608779,-2.535148,1.5504258,3.0092626,2.6322935,8.517883
365,1778413553.0382965,-1.4313335,-2.5488377,1.5638412,2.9090836,2.6139681,8.52277
366,1778413553.0485241,-1.3476397,-2.523196,1.6507365,2.8730438,2.5962536,8.503222
367,1778413553.0586793,-1.2868433,-2.5278304,1.7771465,2.9817746,2.5217302,8.390827
368,1778413553.0692604,-1.150189,-2.4743822,1.7019895,3.6353812,2.282889,8.243002
369,1778413553.0794857,-1.0332919,-2.4626741,1.5050268,3.8290198,2.254179,8.123276
370,1778413553.0897653,-0.84245765,-2.4587715,1.2861116,3.8705573,2.147281,7.998663
371,1778413553.0999718,-0.6782103,-2.3789802,1.0740565,3.8705573,2.147281,7.998663
372,1778413553.11017,-0.2774857,-2.2020187,0.6386653,3.4625113,1.6780738,7.607721
373,1778413553.120369,0.18668772,-2.143936,0.27797353,3.0953922,1.7556514,6.98458
374,1778413553.1305506,0.7846189,-2.037314,-0.027806502,2.5999186,2.2450163,6.0359344
375,1778413553.140784,1.6473217,-1.9731029,-0.36117962,2.1973703,2.9792547,4.457505
376,1778413553.1509886,2.012404,-1.8279115,-0.5051819,1.8045955,3.7110498,3.0036123
377,1778413553.1611803,2.0856094,-1.4049904,-0.38608962,1.0556967,4.8607407,0.875955
378,1778413553.1713717,1.9628584,-1.1055218,-0.05491174,0.9671239,5.0207825,0.102011494
379,1778413553.18179,1.89819,-0.80803496,-0.026830835,1.3366865,4.2204967,0.05314371
380,1778413553.1920092,2.0192337,-0.648422,-0.2804127,1.4142641,3.698222,0.3616216
381,1778413553.2022526,2.33163,-0.6799177,-0.41706705,1.2475028,3.4251733,0.5552602
382,1778413553.2126617,2.805804,-0.7929121,-0.37730858,0.6213844,3.0269008,0.46851984
383,1778413553.22286,3.280222,-0.9093213,-0.054667823,0.3361187,2.4997396,0.34146363
384,1778413553.2333627,3.752231,-0.8929789,0.1334834,0.6012264,1.5565152,0.09345963
385,1778413553.2436116,4.0655727,-0.90127206,-0.05198474,1.0459232,0.46065518,-0.3787253
386,1778413553.2537937,3.9833422,-1.066983,-0.39365104,1.1192249,-0.15263546,-1.0678374
387,1778413553.2640283,3.6441152,-0.89371073,-0.708456,0.6684196,-0.13614258,-1.7794744
388,1778413553.274503,3.6441152,-0.89371073,-0.708456,0.6684196,-0.13614258,-1.7794744
389,1778413553.2847664,3.3458657,-0.5268905,-0.90737003,-0.3872008,-0.17401512,-2.2956405
390,1778413553.294935,3.3034246,-0.43807435,-0.8329449,-1.1690853,-0.46783265,-2.3671095
391,1778413553.305158,3.4056866,-0.4668565,-0.5600937,-1.9454721,-1.079978,-2.5595264
392,1778413553.315692,3.3490672,-0.6523246,0.14790498,-2.775079,-1.9406618,-3.1819797
393,1778413553.3259168,3.231408,-0.76263595,0.7440983,-2.979713,-2.2766278,-3.8038986
394,1778413553.336115,2.7640638,-1.1072292,1.4284065,-2.1458302,-2.5973225,-5.1159983
395,1778413553.346379,2.2237577,-1.250256,1.4454807,-1.206347,-2.5722778,-6.209415
396,1778413553.3565962,1.6739087,-1.444749,1.2910205,-0.7775322,-2.4739313,-7.2522078
397,1778413553.3668263,1.0603973,-1.7573892,1.2639152,-0.79891187,-2.5307403,-8.163591
398,1778413553.377046,0.5457026,-1.9945982,1.3219979,-0.8874847,-2.6070962,-8.545371
399,1778413553.3872776,-0.3038287,-2.3074517,1.4484078,-1.0408074,-2.7133834,-9.334662
400,1778413553.397497,-0.3038287,-2.3074517,1.4484078,-1.0408074,-2.7133834,-9.334662
401,1778413553.4076405,-0.3038287,-2.3074517,1.4484078,-1.0408074,-2.7133834,-9.334662
402,1778413553.4181097,-0.3038287,-2.3074517,1.4484078,-1.0408074,-2.7133834,-9.334662
403,1778413553.428331,-2.0519488,-2.5297818,1.6536636,0.35627666,-2.395132,-8.932114
404,1778413553.438516,-2.0900304,-2.4504783,1.3808123,0.6305471,-2.3242738,-8.438473
405,1778413553.4487207,-2.075365,-2.4763336,1.180953,0.5969505,-2.4537735,-7.8373995
406,1778413553.4589717,-2.075365,-2.4763336,1.180953,0.5969505,-2.4537735,-7.8373995
407,1778413553.4691923,-2.075365,-2.4763336,1.180953,0.5969505,-2.4537735,-7.8373995
408,1778413553.479374,-2.0665839,-2.1703095,0.6799177,-0.29740626,-3.7189145,-5.6999683
409,1778413553.4895687,-2.0529246,-2.0509732,0.5676551,-0.29740626,-3.7189145,-5.6999683
410,1778413553.4999285,-1.970176,-1.8262042,0.44661143,-1.0976162,-4.0023475,-4.494156
411,1778413553.5101376,-1.970176,-1.8262042,0.44661143,-1.0976162,-4.0023475,-4.494156
412,1778413553.520333,-1.6665912,-1.6236314,0.38340652,-1.9809014,-4.212479,-3.15327
413,1778413553.5305643,-1.4725859,-1.5604265,0.38706526,-2.2906008,-4.2503514,-2.7464457
414,1778413553.5407124,-1.4725859,-1.5604265,0.38706526,-2.2906008,-4.2503514,-2.7464457
415,1778413553.5509107,-1.4725859,-1.5604265,0.38706526,-2.2906008,-4.2503514,-2.7464457
416,1778413553.561543,-1.4725859,-1.5604265,0.38706526,-2.2906008,-4.2503514,-2.7464457
417,1778413553.571708,-0.77730143,-1.3769096,0.24086772,-3.0762267,-2.9308453,-2.604118
418,1778413553.582196,-0.77730143,-1.3769096,0.24086772,-3.0762267,-2.9308453,-2.604118
419,1778413553.592821,-0.77730143,-1.3769096,0.24086772,-3.0762267,-2.9308453,-2.604118
420,1778413553.6034875,-0.77730143,-1.3769096,0.24086772,-3.0762267,-2.9308453,-2.604118
421,1778413553.6137524,-0.5212804,-1.4230404,0.46466127,-2.7836308,-0.9382614,-4.922971
422,1778413553.6239762,-0.721658,-1.3566645,0.68504,-2.8807557,-1.3206518,-5.4159245
423,1778413553.634192,-1.0391461,-1.2651348,0.96716005,-3.048128,-1.9870862,-5.654155
424,1778413553.6443896,-1.3737388,-1.2544025,1.3141925,-3.087833,-2.663294,-5.6553764
425,1778413553.6549,-1.783976,-1.336389,1.6373211,-2.7726357,-3.312701,-5.4806743
426,1778413553.6651287,-2.0829265,-1.2265655,1.7925131,-2.4934022,-3.440979,-5.3487315
427,1778413553.6755872,-2.3870296,-1.1399446,2.0329235,-2.3254192,-3.3481302,-5.3273516
428,1778413553.6860774,-2.7640638,-1.1392128,2.468772,-2.2325704,-3.3847811,-5.332238
429,1778413553.6962721,-3.4010217,-1.0945456,3.190918,-2.1171203,-4.016397,-5.302307
430,1778413553.7067988,-4.058255,-1.1030827,3.8881536,-1.9705169,-4.699324,-5.3493423
431,1778413553.7170033,-4.9792843,-1.1662875,4.398946,-0.9986589,-4.1226845,-5.345677
432,1778413553.7273026,-5.926931,-0.8753865,4.5051107,-0.9986589,-4.1226845,-5.345677
433,1778413553.7375374,-6.7146907,-0.31065837,4.4145565,-0.26869643,-1.9058435,-5.03048
434,1778413553.7477002,-7.3184757,0.18839513,4.1707616,0.6696413,0.24563695,-4.150249
435,1778413553.7580206,-7.6284027,0.43319598,3.832266,1.2328424,1.4575579,-2.0280893
436,1778413553.7681851,-7.50492,0.376089,3.6296935,1.0172133,0.7679114,2.3286262
437,1778413553.778407,-5.9342484,-0.3184942,3.521852,1.0172133,0.7679114,2.3286262
438,1778413553.788582,-5.9342484,-0.3184942,3.521852,1.2071869,0.6396334,3.949204
439,1778413553.7987459,-3.7936969,-0.6528125,2.9846864,1.6402776,1.1716814,4.85761
440,1778413553.8093746,-3.7936969,-0.6528125,2.9846864,2.1912618,2.3629098,5.1721964
441,1778413553.8195798,-2.5361235,-0.6796738,2.2794013,2.9096947,3.6090384,4.8252354
442,1778413553.8297727,-2.1771393,-0.64476323,1.9987447,2.9939914,3.8460472,4.594946
443,1778413553.839915,-1.9555409,-0.70699245,1.8215698,3.0245337,3.9633298,4.4630027
444,1778413553.8500996,-1.7956841,-0.72458494,1.7071117,3.14426,3.8869739,4.449564
445,1778413553.8603027,-1.7956841,-0.72458494,1.7071117,3.14426,3.8869739,4.449564
446,1778413553.8705502,-1.6089964,-0.7584894,1.3622746,3.2212267,3.489923,4.6438136
447,1778413553.8807015,-1.5675,-0.86782503,1.3254128,3.1247127,3.5045834,4.7751455
448,1778413553.8908682,-1.5509136,-1.0584459,1.3715434,3.064239,3.5962105,4.85028
449,1778413553.9011083,-1.5711588,-1.1911976,1.3922764,3.0807319,3.8277216,4.929079
450,1778413553.91133,-1.6080207,-1.339072,1.4440172,3.0886729,4.0946617,5.1043925
451,1778413553.9215395,-1.658054,-1.5445719,1.4938067,3.0605738,4.2449303,5.342012
452,1778413553.9320717,-1.6736647,-1.6465899,1.4777082,3.0288098,4.262645,5.58574
453,1778413553.9422936,-1.6873242,-1.8540107,1.4145033,2.7911901,4.12215,6.16971
454,1778413553.9527168,-1.6746404,-1.9767922,1.4745373,2.534558,3.9144619,6.533164
455,1778413553.962975,-1.6848848,-2.138326,1.5994835,2.330535,3.6371372,6.8434744
456,1778413553.9732087,-1.703697,-2.2564428,1.7383332,2.2590659,3.3359895,7.094533
457,1778413553.9834728,-1.7327231,-2.3496797,1.8435222,2.282889,3.1111977,7.2277737
458,1778413553.993637,-1.8203502,-2.4604788,1.9123372,2.4160535,2.9969695,7.378653
459,1778413554.0037792,-1.8740423,-2.4738944,1.9243196,2.5925884,3.1649523,7.4879947
460,1778413554.0139983,-1.8755058,-2.4914868,1.8532789,2.7820275,3.5827718,7.6278787
461,1778413554.0242143,-1.8166914,-2.5014875,1.8000745,2.843723,3.9126294,7.8025813
462,1778413554.034466,-1.7493398,-2.5339284,1.7651945,2.7985203,4.029912,7.9174204
463,1778413554.044803,-1.6221678,-2.5329525,1.6734209,2.6133573,4.141697,8.068299
464,1778413554.055036,-1.5270098,-2.5324647,1.5970445,2.4881337,4.207058,8.224066
465,1778413554.065409,-1.3622746,-2.5388067,1.5389618,2.350693,4.157579,8.436641
466,1778413554.07607,-1.2417188,-2.522952,1.4999046,2.262731,3.8649833,8.627836
467,1778413554.0862663,-1.044756,-2.514415,1.418406,2.2236366,3.3530934,8.772607
468,1778413554.096509,-0.83879894,-2.4695039,1.3012649,2.2218041,2.7477436,8.855681
469,1778413554.1069322,-0.5815583,-2.43999,1.1128393,2.32687,2.1277337,8.829415
470,1778413554.1171358,-0.2689486,-2.3204098,0.8234017,2.450872,1.4239613,8.660822
471,1778413554.1274705,0.052472573,-2.1788466,0.32971436,2.3458061,0.7098809,8.243613
472,1778413554.1376631,0.8844114,-1.9084344,-0.39096794,2.0861962,0.57244027,7.77265
473,1778413554.1478505,0.8844114,-1.9084344,-0.39096794,1.7984871,0.61519957,6.9467077
474,1778413554.1580565,1.3820319,-1.7569014,-0.753855,0.7582142,2.4740841,4.3157125
475,1778413554.1682715,1.8457174,-1.7075995,-0.9842342,0.7582142,2.4740841,4.3157125
476,1778413554.178498,2.5893278,-1.1718976,-0.90078425,0.12843063,4.191787,2.532649
477,1778413554.1886566,2.7977548,-0.94322574,-0.5488735,-0.18867545,5.6334624,0.9749122
478,1778413554.1988564,2.7977548,-0.94322574,-0.5488735,-0.18867545,5.6334624,0.9749122
479,1778413554.2090313,3.0098403,-0.8973694,-0.37093627,0.034283802,5.1527257,0.9541434
480,1778413554.219229,3.7380536,-1.5277416,-0.4522215,-0.1428619,1.836894,1.8820968
481,1778413554.2294064,4.423581,-1.59241,-0.633787,-0.54296684,0.69155544,2.1508696
482,1778413554.239584,5.1015477,-1.450359,-0.78583854,-0.9003125,0.24685864,1.8430026
483,1778413554.249731,5.1015477,-1.450359,-0.78583854,-0.9003125,0.24685864,1.8430026
484,1778413554.2599292,5.9291267,-1.4552374,-0.62744516,-1.3743299,0.83266115,-1.2926291
485,1778413554.2701788,5.5749903,-1.4098688,-0.26943645,-1.6718125,0.9872055,-3.220463
486,1778413554.280587,4.853606,-1.3981303,0.41365218,-1.8642294,0.9322293,-4.842339
487,1778413554.2907727,4.853606,-1.3981303,0.41365218,-1.8642294,0.9322293,-4.842339
488,1778413554.3009953,3.3304992,-1.6539074,1.4049904,-1.4293063,0.51624227,-6.066477
489,1778413554.3112311,2.543441,-1.7942206,1.3061433,0.17790927,-1.0066763,-7.6168838
490,1778413554.3214893,1.6321988,-1.9662732,1.0259744,0.5126536,-1.7824523,-8.339516
491,1778413554.331802,0.9608183,-2.1564062,0.89200324,0.41308546,-2.179503,-8.771996
492,1778413554.342038,0.3187381,-2.280621,0.8431894,0.20967332,-2.4012406,-9.061614
493,1778413554.3522959,-0.2420873,-2.3787365,0.82486516,0.015958386,-2.4360588,-9.191113
494,1778413554.362555,-0.68406427,-2.4419413,0.8722155,-0.13553174,-2.3542054,-9.248533
495,1778413554.3727295,-0.94078666,-2.4797482,1.0413412,-0.25586864,-2.2540264,-9.295568
496,1778413554.3830633,-1.3307788,-2.7501605,1.3598354,0.081395395,-2.0530577,-9.415905
497,1778413554.3935034,-1.3307788,-2.7501605,1.3598354,0.081395395,-2.0530577,-9.415905
498,1778413554.4041402,-1.3307788,-2.7501605,1.3598354,0.081395395,-2.0530577,-9.415905
499,1778413554.414796,-1.3307788,-2.7501605,1.3598354,0.081395395,-2.0530577,-9.415905
500,1778413554.4250274,-1.3307788,-2.7501605,1.3598354,0.081395395,-2.0530577,-9.415905
501,1778413554.4351976,-1.7581208,-2.4148362,0.63793355,0.6500942,-1.6120259,-7.575957
502,1778413554.4455898,-1.7554379,-2.316507,0.6503733,0.5279247,-1.8246008,-6.9761047
503,1778413554.4557445,-1.7554379,-2.316507,0.6503733,0.5279247,-1.8246008,-6.9761047
504,1778413554.4659312,-1.7554379,-2.316507,0.6503733,0.5279247,-1.8246008,-6.9761047
505,1778413554.4765682,-1.7554379,-2.316507,0.6503733,0.5279247,-1.8246008,-6.9761047
506,1778413554.4871047,-1.7554379,-2.316507,0.6503733,0.5279247,-1.8246008,-6.9761047
507,1778413554.4973207,-1.3471518,-2.0878048,0.46002686,-0.065284304,-4.6351852,-4.207058
508,1778413554.507562,-1.2573295,-1.8984339,0.2645581,-0.7427139,-5.2020516,-3.8484905
509,1778413554.5178843,-1.2573295,-1.8984339,0.2645581,-1.3095802,-5.321778,-3.63897
510,1778413554.5285342,-1.2573295,-1.8984339,0.2645581,-1.3095802,-5.321778,-3.63897
511,1778413554.539174,-1.2573295,-1.8984339,0.2645581,-1.3095802,-5.321778,-3.63897
512,1778413554.549667,-1.2573295,-1.8984339,0.2645581,-1.3095802,-5.321778,-3.63897
513,1778413554.5598698,-1.2573295,-1.8984339,0.2645581,-1.3095802,-5.321778,-3.63897
514,1778413554.5700848,-1.2824528,-1.8393756,0.5215243,-3.040187,-3.6706576,-4.581507
515,1778413554.5802827,-1.3764218,-1.7886103,0.6372018,-3.22283,-3.4702997,-4.678632
516,1778413554.5904922,-1.441578,-1.7119901,0.6757711,-3.3181224,-3.4464767,-4.6572523
517,1778413554.6007762,-1.5518893,-1.5753359,0.6989432,-3.571624,-3.5881932,-4.502097
518,1778413554.6109471,-1.6585418,-1.5091734,0.75190365,-3.971118,-3.7781668,-4.262645
519,1778413554.6211658,-1.7146733,-1.4479198,0.88810056,-4.4298644,-4.040831,-4.0189166
520,1778413554.6316385,-1.8430344,-1.4003257,1.1953442,-5.034603,-4.291889,-3.8717027
521,1778413554.6418207,-1.9016049,-1.3510544,1.4264551,-5.3022304,-4.3639693,-3.8759785
522,1778413554.6523077,-2.0624373,-1.1814408,1.8540107,-5.613763,-4.3737426,-4.118485
523,1778413554.6625361,-2.2869627,-1.0818619,2.4116652,-5.8532147,-4.1904883,-4.4593377
524,1778413554.673042,-2.5012434,-1.1253096,3.0918267,-5.84283,-3.8019898,-4.8960934
525,1778413554.6835546,-2.899529,-1.4772204,3.9830983,-5.238626,-3.1702974,-5.6065087
526,1778413554.6937706,-2.899529,-1.4772204,3.9830983,-5.238626,-3.1702974,-5.6065087
527,1778413554.7044191,-3.2309203,-1.6609812,4.4899573,-4.6961937,-2.7567537,-6.0426536
528,1778413554.7147179,-4.6107874,-1.8903847,5.901533,-2.0932972,-1.211921,-6.896084
529,1778413554.7253416,-5.481783,-1.6900376,5.911534,-0.21188764,-0.2912978,-6.7378745
530,1778413554.7355587,-6.2436876,-1.0457318,5.214786,1.6292824,0.7758524,-6.040821
531,1778413554.7461889,-6.8938475,-0.47758886,4.1644197,2.743544,1.7324392,-4.652365
532,1778413554.7564635,-7.2281656,0.08689531,2.9446535,2.6194658,2.2670069,-1.9810541
533,1778413554.7667696,-7.1344714,0.18254115,2.6217992,1.9157697,2.2639527,-0.13988402
534,1778413554.776951,-6.269573,-0.075888574,2.4751139,0.5431959,2.0067096,2.7934809
535,1778413554.7875803,-5.3636665,-0.39145577,2.8009255,0.24571331,1.7800853,4.649311
536,1778413554.7977324,-4.4828835,-0.68772304,2.9861498,0.5841227,1.8197904,5.9601893
537,1778413554.8082116,-3.6660674,-0.8629467,3.0061815,1.1913049,2.126512,6.7158074
538,1778413554.8184154,-2.437063,-1.1831484,2.608384,2.8651028,2.710482,7.097587
539,1778413554.8287086,-1.9235878,-1.1885145,2.1085682,2.8651028,2.710482,7.097587
540,1778413554.8391616,-1.9235878,-1.1885145,2.1085682,3.4649546,2.4954638,6.86913
541,1778413554.8493648,-1.4413341,-1.2209554,1.5020999,3.4136436,2.2639527,6.707256
542,1778413554.8595538,-1.4413341,-1.2209554,1.5020999,3.4136436,2.2639527,6.707256
543,1778413554.8697069,-1.2385479,-1.2368405,1.1599457,3.3128538,1.8924812,6.3511314
544,1778413554.879874,-1.2058326,-1.3105338,1.0689343,3.3128538,1.8924812,6.3511314
545,1778413554.890267,-1.2087595,-1.4000818,1.0308529,3.3110213,2.0280893,6.081137
546,1778413554.9006753,-1.2378161,-1.4618535,1.0198766,3.2969718,2.0561883,5.9473615
547,1778413554.9110327,-1.2883373,-1.4891723,1.0271941,3.2969718,2.0561883,5.9473615
548,1778413554.9214816,-1.3537375,-1.5421326,1.0999117,3.204123,2.0995584,5.8294683
549,1778413554.9316554,-1.45353,-1.6248509,1.1980273,3.2242808,2.032365,5.869173
550,1778413554.9418254,-1.5846046,-1.7380892,1.3349254,3.344007,1.893092,6.0512056
551,1778413554.9520967,-1.661225,-1.8674566,1.399106,3.4948862,1.7477103,6.2197995
552,1778413554.9623272,-1.7566574,-1.9750847,1.4442612,3.659815,1.7397693,6.389615
553,1778413554.97274,-1.8140082,-2.0858533,1.4423097,3.831463,1.8631605,6.528888
554,1778413554.9829664,-1.8225454,-2.2366855,1.4406024,3.927366,2.154611,6.621126
555,1778413554.9934862,-1.877457,-2.3569973,1.4896601,3.91576,2.329924,6.6547227
556,1778413555.0037727,-1.9821584,-2.3945909,1.4911236,3.8552861,2.3653533,6.8074346
557,1778413555.013998,-2.0026474,-2.4775531,1.4920993,3.8009207,2.4313247,7.0352807
558,1778413555.0242245,-1.9833779,-2.5114882,1.4760008,3.734949,2.6115248,7.195399
559,1778413555.0345318,-1.9455404,-2.5014875,1.3986181,3.711737,2.951156,7.387816
560,1778413555.0447721,-1.7895862,-2.457552,1.2626957,3.6653125,3.4887013,7.6688056
561,1778413555.0552807,-1.6255826,-2.454625,1.1726295,3.5455866,3.8191698,7.8606114
562,1778413555.0655284,-1.4193816,-2.4497466,1.0918624,3.3372877,4.0164733,7.994387
563,1778413555.0761526,-1.2180284,-2.415324,1.006949,3.0544653,4.0732822,8.090901
564,1778413555.086575,-1.0096321,-2.357729,0.9205415,2.9035861,3.953556,8.134272
565,1778413555.0967307,-0.7470253,-2.123935,0.7267802,2.7123146,3.3879116,8.1825285
566,1778413555.1069913,-0.5805827,-1.9443208,0.45831943,2.4759166,2.7892814,8.164814
567,1778413555.1173668,-0.42194536,-1.7742193,0.07247374,1.9511988,2.3916197,8.051196
568,1778413555.1277719,-0.23476979,-1.5631095,-0.25919196,1.098456,2.163163,7.90276
569,1778413555.138125,-0.13958131,-1.4613657,-0.47002742,-0.096437514,1.8992004,7.7292795
570,1778413555.1483169,0.94273794,-1.3407794,0.5122555,-1.6834186,1.453282,7.6211596
571,1778413555.1586087,0.94273794,-1.3407794,0.5122555,-1.9088213,1.4044142,7.3927026
572,1778413555.1692798,2.4648695,-1.3856906,1.2143697,-0.7647044,1.7965782,6.941821
573,1778413555.179519,2.4648695,-1.3856906,1.2143697,0.8712209,2.2957168,6.2442336
574,1778413555.1897113,3.5130405,-1.3688604,0.9978936,3.128378,3.2058792,5.0066566
575,1778413555.2001965,5.0878882,-2.40264,-0.094456725,5.065985,3.1521246,2.6004531
576,1778413555.2105165,5.033221,-2.2606196,-1.6770794,5.065985,3.1521246,2.6004531
577,1778413555.2209415,5.0820346,-2.189579,-2.208147,2.2499032,0.91879064,0.9345963
578,1778413555.2313206,5.476905,-2.3147693,-2.0539005,0.31779328,-0.005421269,0.7122479
579,1778413555.241713,5.999405,-2.369681,-1.4427975,-1.1269368,-0.64688724,-0.17348062
580,1778413555.2519403,6.1170335,-2.2984269,-0.5837535,-1.1269368,-0.64688724,-0.17348062
581,1778413555.2621493,5.681399,-2.2969632,0.49005908,-1.4641246,-1.3866233,-3.8594856
582,1778413555.2723203,5.231128,-2.4324286,0.8451408,-0.81296134,-1.6071391,-5.0475836
583,1778413555.28256,4.18686,-2.6242385,0.80803496,0.29030517,-1.9333316,-6.822782
584,1778413555.2927172,3.288027,-2.79434,0.5344519,0.56824064,-2.031678,-7.994998
585,1778413555.3028865,2.3616316,-2.9673684,0.40609077,0.44301698,-2.2185972,-8.963878
586,1778413555.3132172,1.4469441,-3.1977477,0.42048183,0.1369825,-2.4928677,-9.698116
587,1778413555.3236344,0.38804093,-3.4273949,0.40389553,-0.47577366,-2.575943,-10.358442
588,1778413555.3338115,-0.3463007,-3.5647812,0.47466183,-1.0011023,-2.3627572,-10.658979
589,1778413555.344009,-0.3463007,-3.5647812,0.47466183,-1.0011023,-2.3627572,-10.658979
590,1778413555.3543818,-0.3463007,-3.5647812,0.47466183,-1.0011023,-2.3627572,-10.658979
591,1778413555.36461,-0.3463007,-3.5647812,0.47466183,-1.0011023,-2.3627572,-10.658979
592,1778413555.3747919,-1.5448158,-3.7544265,1.8005623,-0.8086854,-3.2797153,-10.059127
593,1778413555.3854682,-1.7447054,-3.9325771,1.5821655,-0.23265645,-3.8429165,-9.734157
594,1778413555.3959868,-1.8972143,-4.0294423,1.2453775,-0.26869643,-3.9760811,-9.447059
595,1778413555.4062126,-2.1080804,-3.8718114,0.97667277,-0.69628954,-3.7977138,-9.222266
596,1778413555.4164004,-2.3118422,-3.7031734,0.89078367,-1.2265049,-3.3719532,-8.902183
597,1778413555.4265842,-2.3118422,-3.7031734,0.89078367,-1.2265049,-3.3719532,-8.902183
598,1778413555.43705,-2.3118422,-3.7031734,0.89078367,-1.2265049,-3.3719532,-8.902183
599,1778413555.4474726,-2.3118422,-3.7031734,0.89078367,-1.2265049,-3.3719532,-8.902183
600,1778413555.4579399,-2.3118422,-3.7031734,0.89078367,-1.6595956,-2.9131305,-8.412818
601,1778413555.468306,-2.1307645,-2.4680405,1.2663544,-2.3492422,-4.2595143,-5.2766514
602,1778413555.4785328,-1.9448086,-2.418495,1.2258338,-2.3254192,-4.957102,-4.6792426
603,1778413555.4887056,-1.6250948,-2.2593696,0.9349326,-2.671846,-5.3834734,-4.4373474
604,1778413555.4989624,-1.6250948,-2.2593696,0.9349326,-2.671846,-5.3834734,-4.4373474
605,1778413555.509173,-1.7561696,-2.0587785,0.9730141,-3.2539833,-4.041442,-5.065298
606,1778413555.519797,-1.7561696,-2.0587785,0.9730141,-3.2539833,-4.041442,-5.065298
607,1778413555.5300636,-1.7561696,-2.0587785,0.9730141,-3.2539833,-4.041442,-5.065298
608,1778413555.540229,-1.9928907,-1.2744036,0.96374524,-2.5996895,-1.4226632,-5.54237
609,1778413555.550457,-1.9743531,-1.0791788,1.061129,-2.5013433,-1.235744,-5.413481
610,1778413555.5609539,-1.9743531,-1.0791788,1.061129,-2.5013433,-1.235744,-5.413481
611,1778413555.5711803,-1.9282223,-0.79535127,1.1067414,-2.282049,-1.4214416,-5.2228966
612,1778413555.5816405,-1.9894757,-0.54448295,0.9093213,-1.9045454,-2.2210407,-4.8631077
613,1778413555.591947,-2.0907621,-0.3785282,0.7677582,-2.0969622,-2.5227993,-4.823403
614,1778413555.6024992,-2.322117,-0.28821802,0.8007175,-2.6449687,-2.611372,-4.9443502
615,1778413555.6127274,-2.6950047,-0.13128816,1.132627,-3.3132355,-2.5344052,-5.097062
616,1778413555.623061,-3.223115,0.11226265,1.7361379,-3.90759,-2.5844948,-5.2442765
617,1778413555.6332943,-3.962823,0.2596798,2.8187315,-4.4836187,-2.643136,-5.2888684
618,1778413555.643707,-4.9902606,0.3360562,4.466785,-4.0993958,-2.7109401,-4.9199166
619,1778413555.6541524,-5.750732,0.29870647,5.422969,-2.3834496,-2.467823,-4.173461
620,1778413555.664606,-6.241736,0.04369157,5.635786,0.019623468,-1.9003458,-3.1496048
621,1778413555.6749039,-6.4518704,-0.28773022,5.070082,2.1032999,-1.2155861,-2.1472044
622,1778413555.6855326,-6.4474797,-0.48761994,4.0316377,3.1815217,-0.49104485,-1.2040563
623,1778413555.6957755,-6.2912817,-0.6298843,3.0564282,3.4545703,0.20959696,-0.30603448
624,1778413555.7060554,-6.005747,-0.89200324,2.1144223,3.136319,0.91146046,0.81914616
625,1778413555.7165015,-5.726554,-1.0432925,1.7447054,2.4814143,1.3024027,1.6602829
626,1778413555.7267668,-5.431506,-1.1631166,1.7322353,1.6921996,1.6530291,2.4123123
627,1778413555.7370002,-5.1318235,-1.216077,1.9379789,1.2181821,2.0348086,3.1147866
628,1778413555.7472107,-4.383823,-1.096009,2.1859202,1.0923476,2.4533153,3.8111525
629,1778413555.757449,-4.383823,-1.096009,2.1859202,1.1473238,2.7947788,4.486826
630,1778413555.7676249,-3.9577005,-1.001339,2.1834812,1.3800566,2.9493232,5.1587577
631,1778413555.7780724,-3.0632885,-1.0249988,1.7959279,1.6854804,2.9242785,5.8514585
632,1778413555.7882378,-3.0632885,-1.0249988,1.7959279,1.986628,2.666501,6.701147
633,1778413555.7988677,-2.4936821,-1.2094914,1.3842272,1.9725785,1.8417809,7.8129654
634,1778413555.8092067,-2.268669,-1.3405355,1.2541586,1.9725785,1.8417809,7.8129654
635,1778413555.819416,-2.0685353,-1.5084417,1.170678,1.9756328,1.5235294,8.619895
636,1778413555.8296072,-1.8901408,-1.6517123,1.1616532,1.9970124,1.5797274,8.745729
637,1778413555.83976,-1.7149171,-1.8069347,1.210467,2.114295,1.6896799,8.8398
638,1778413555.8500104,-1.5970445,-1.9428573,1.2531829,2.2639527,1.7916914,8.852016
639,1778413555.8602653,-1.5970445,-1.9428573,1.2531829,2.2639527,1.7916914,8.852016
640,1778413555.8706865,-1.469415,-2.106617,1.3459321,2.4881337,1.6915125,8.732902
641,1778413555.8808916,-1.4347483,-2.1844568,1.418406,2.6212983,1.5559043,8.663265
642,1778413555.8912659,-1.3969108,-2.306476,1.483806,2.8974776,1.225436,8.542317
643,1778413555.901754,-1.4286504,-2.3669977,1.5057585,3.120437,0.8204442,8.439084
644,1778413555.9119134,-1.4950262,-2.3831267,1.4945384,3.2590992,0.41911757,8.382276
645,1778413555.9223907,-1.6248509,-2.3526068,1.4098688,3.4429643,-0.2320456,8.36395
646,1778413555.9326031,-1.7127218,-2.3162327,1.3178513,3.5700204,-0.46844348,8.39999
647,1778413555.942781,-1.7434554,-2.33724,1.2697692,3.703185,-0.41529977,8.423202
648,1778413555.9529579,-1.6893059,-2.3145254,1.2404993,3.8699465,0.046500746,8.345624
649,1778413555.963525,-1.6255826,-2.312574,1.2607442,4.0251017,0.47042874,8.271101
650,1778413555.9736884,-1.537986,-2.315501,1.2383039,4.170483,0.7807391,8.173976
651,1778413555.9840214,-1.466488,-2.2867188,1.1868072,4.2498937,0.9982008,8.084792
652,1778413555.994247,-1.3737388,-2.2615952,1.1353102,4.284712,1.1576319,8.026152
653,1778413556.0045464,-1.2831845,-2.2137573,1.156043,4.310978,1.1551886,7.9479628
654,1778413556.0146923,-1.1850996,-2.2012868,1.15897,4.3934426,1.0647831,7.907036
655,1778413556.0249093,-1.0772275,-2.165919,1.0891794,4.580362,0.9242883,7.8410645
656,1778413556.035143,-0.9222489,-2.0968602,0.9217611,4.807597,0.61397785,7.735388
657,1778413556.0455368,-0.73873216,-2.0360944,0.66967326,4.9334316,0.2150946,7.6529236
658,1778413556.055779,-0.46856394,-2.117837,0.34678853,4.9175496,-0.39575267,7.4446244
659,1778413556.0659988,-0.09372498,-2.0824385,-0.08787098,4.71597,-0.7574506,7.2125025
660,1778413556.0766232,0.40291986,-2.0673158,-0.72312146,4.084354,-0.68231636,6.644949
661,1778413556.0867949,0.8993208,-2.0024033,-1.0179253,3.6427112,-0.059786674,6.1464977
662,1778413556.0971792,1.8574255,-1.7380892,-1.0064611,3.031864,0.9456679,4.7690372
663,1778413556.10736,2.3496797,-1.5794824,-0.8805087,2.7740865,1.5516284,3.5790305
664,1778413556.1175792,2.7079322,-1.6958916,-1.0254866,3.0617955,2.1649954,2.27365
665,1778413556.1282094,2.7079322,-1.6958916,-1.0254866,3.587124,2.9566534,1.0750911
666,1778413556.1383727,2.7015905,-1.9533455,-1.5074661,3.8051968,3.842382,0.11728267
667,1778413556.1486077,2.7262566,-2.7052493,-2.1361308,1.9218782,4.054957,-0.5467083
668,1778413556.1588695,2.9617581,-2.7838514,-1.9657854,0.33123192,3.150903,-0.24861483
669,1778413556.1691792,3.25022,-2.6852481,-1.6643959,-0.9094752,1.968837,0.043981
670,1778413556.1795166,3.25022,-2.6852481,-1.6643959,-0.9094752,1.968837,0.043981
671,1778413556.1900094,3.25022,-2.6852481,-1.6643959,-0.9094752,1.968837,0.043981
672,1778413556.2005022,3.25022,-2.6852481,-1.6643959,-0.9094752,1.968837,0.043981
673,1778413556.2106535,4.3713527,-2.4738944,-0.37340593,-1.990064,-0.55090785,-1.9468466
674,1778413556.2208128,4.178811,-2.466333,-0.3096827,-2.0041134,-0.6426113,-3.3059816
675,1778413556.2310145,4.178811,-2.466333,-0.3096827,-2.0041134,-0.6426113,-3.3059816
676,1778413556.241249,3.235585,-2.6132622,0.06540016,-2.4335392,-0.35421506,-6.053038
677,1778413556.2514827,2.595182,-2.74016,0.4388061,-2.6504662,-0.234489,-7.464172
678,1778413556.2621067,2.595182,-2.74016,0.4388061,-2.6504662,-0.234489,-7.464172
679,1778413556.2723317,2.595182,-2.74016,0.4388061,-2.6504662,-0.234489,-7.464172
680,1778413556.282573,2.595182,-2.74016,0.4388061,-2.6504662,-0.234489,-7.464172
681,1778413556.2927947,0.47758886,-3.3392801,1.529693,-2.4982889,-2.3694766,-10.186184
682,1778413556.3029914,-0.06808324,-3.593594,1.4867331,-2.5086734,-2.6058743,-10.622329
683,1778413556.3132064,-0.51591426,-3.821534,1.5084417,-2.7048316,-2.5026412,-11.153766
684,1778413556.3234591,-0.9122484,-3.9725792,1.5904586,-2.8575435,-2.3932996,-11.436587
685,1778413556.333702,-1.2724524,-4.0902386,1.8281555,-3.1049366,-2.263189,-11.711545
686,1778413556.3438745,-1.6221678,-4.232015,2.145674,-3.0688965,-2.123305,-11.734147
687,1778413556.3540928,-1.6221678,-4.232015,2.145674,-3.0688965,-2.123305,-11.734147
688,1778413556.3647208,-1.6221678,-4.232015,2.145674,-3.0688965,-2.123305,-11.734147
689,1778413556.3748903,-2.0419486,-4.329155,2.676955,-2.8025672,-3.9278243,-10.707236
690,1778413556.3851957,-2.2737913,-4.440442,2.833397,-3.0621774,-5.1299715,-10.5435295
691,1778413556.395634,-2.5466423,-4.376993,2.893431,-3.188012,-5.5264115,-10.497105
692,1778413556.4060173,-3.031549,-4.0397177,2.8446171,-3.039576,-5.4421144,-10.184351
693,1778413556.416639,-3.3044002,-3.6450908,2.6893947,-2.6150372,-4.828213,-9.648027
694,1778413556.426804,-3.3841913,-3.289521,2.3823953,-2.0352666,-4.093364,-8.911956
695,1778413556.4370232,-3.32245,-2.9678562,1.967005,-1.5795747,-3.5771978,-8.054861
696,1778413556.4472241,-3.15991,-2.7069566,1.5867999,-1.3932662,-3.3976088,-7.13126
697,1778413556.4574878,-2.880229,-2.481212,1.1946124,-1.434193,-3.6107945,-5.954692
698,1778413556.46767,-2.642776,-2.3469968,0.8812404,-1.6376052,-4.0023475,-5.017652
699,1778413556.4778469,-2.427276,-2.1756756,0.6591848,-1.9699061,-4.404285,-4.4410124
700,1778413556.4880865,-2.1751878,-1.8874577,0.4475871,-2.939397,-4.673058,-3.9254572
701,1778413556.4982672,-2.0177703,-1.6402482,0.7197066,-3.5526876,-4.3151016,-3.734262
702,1778413556.5084736,-2.0177703,-1.6402482,0.7197066,-3.6693594,-3.5478773,-3.5955997
703,1778413556.5186536,-1.8940433,-1.5372543,0.7692217,-3.3614924,-2.3505402,-3.440979
704,1778413556.5288482,-1.766658,-1.4825865,0.6767468,-3.147696,-1.7818414,-3.3597362
705,1778413556.5390453,-1.6331745,-0.9961862,0.57106996,-3.6718028,-1.9748691,-3.3866136
706,1778413556.5492468,-1.8103495,-0.8043762,0.862215,-3.6718028,-1.9748691,-3.3866136
707,1778413556.5594945,-2.0170383,-0.6726002,1.1955881,-4.315025,-2.2369227,-3.4983985
708,1778413556.5700521,-2.0170383,-0.6726002,1.1955881,-4.315025,-2.2369227,-3.4983985
709,1778413556.5807462,-2.2220504,-0.6989432,1.5064903,-4.298532,-2.0243478,-3.5668135
710,1778413556.59102,-2.9861498,-0.6042731,2.5336845,-4.1256623,-1.3334795,-3.8802545
711,1778413556.6012979,-3.4691353,-0.31629896,3.0784113,-4.0517497,-1.1984823,-3.858264
712,1778413556.6115584,-3.9977334,0.0046344167,3.8366568,-3.79947,-1.5387243,-3.6078167
713,1778413556.621805,-3.9977334,0.0046344167,3.8366568,-3.3132355,-2.2161539,-3.0738597
714,1778413556.6320224,-5.0271225,0.23916028,5.365618,-2.286325,-2.7573645,-2.3096898
715,1778413556.6422532,-5.1713386,0.2713878,5.663837,-0.914362,-2.2668543,-1.9340187
716,1778413556.6527965,-5.3333907,0.36776537,5.4580927,0.86572325,-0.71713465,-1.7843612
717,1778413556.6629658,-5.554989,0.100554645,4.8879986,2.306712,1.2193274,-1.7385477
718,1778413556.6735127,-5.7158213,-0.12299499,4.161493,3.1546443,3.010408,-1.3402753
719,1778413556.683662,-5.746067,-0.3948706,3.4884048,3.3385093,3.8759785,-0.46485478
720,1778413556.693912,-5.637006,-0.5647281,3.075972,2.9548972,3.8637617,0.8753441
721,1778413556.7041438,-5.2414036,-0.7236093,2.6144817,2.270061,3.298728,2.381159
722,1778413556.714377,-4.632252,-0.8949303,2.5385628,1.5510939,2.5852582,4.1898775
723,1778413556.7245877,-4.010173,-0.9329813,2.594206,1.3770025,2.1833208,5.301085
724,1778413556.734751,-3.3615072,-1.0530493,2.6478982,1.4839007,2.0806222,6.0261607
725,1778413556.744879,-2.7333302,-1.1597018,2.6178968,1.8528525,2.0903957,6.3822846
726,1778413556.7550986,-2.186652,-1.198515,2.3989813,2.3103771,2.1735473,6.4390936
727,1778413556.7653203,-1.8010502,-1.1768064,2.1642115,2.6555057,2.2877758,6.2582827
728,1778413556.7757196,-1.4945384,-1.1797335,1.9941101,2.891369,2.2651744,6.0646443
729,1778413556.7863472,-1.3666651,-1.2204676,1.8054713,3.1491468,2.1607194,5.8477936
730,1778413556.7965925,-1.3280958,-1.2124183,1.5223755,3.2652078,2.1759906,5.5967355
731,1778413556.807227,-1.3229735,-1.1236022,1.2802577,3.2193942,2.403226,5.401264
732,1778413556.8174784,-1.3508105,-1.0908868,1.1711658,3.0843968,2.6897132,5.29742
733,1778413556.827786,-1.4005696,-1.1008874,1.1738795,2.9096947,3.1478486,5.401875
734,1778413556.8379505,-1.4306017,-1.1062536,1.2021738,2.9096947,3.1478486,5.401875
735,1778413556.8481686,-1.4391388,-1.2407432,1.2744036,2.9170246,3.3549259,5.6865296
736,1778413556.8583844,-1.4708785,-1.5348152,1.4237721,2.9603949,2.7165904,6.282106
737,1778413556.8686347,-1.4969776,-1.6873242,1.447188,3.0263665,2.1912618,6.5533223
738,1778413556.878817,-1.5941174,-1.8349851,1.4345044,3.15159,1.6023287,6.913111
739,1778413556.8890207,-1.6412239,-1.8757497,1.3720312,3.2255025,1.3286692,7.118432
740,1778413556.8992286,-1.6412239,-1.8757497,1.3720312,3.2255025,1.3286692,7.118432
741,1778413556.9094892,-1.7049165,-2.0043547,1.2597686,3.292085,1.3146197,7.5930605
742,1778413556.9196317,-1.6490293,-2.1847005,1.289313,3.315908,1.4923762,7.74394
743,1778413556.9299521,-1.6490293,-2.1847005,1.289313,3.315908,1.4923762,7.74394
744,1778413556.9403424,-1.6712255,-2.2808647,1.4076736,3.2310002,1.5888901,7.6926284
745,1778413556.950766,-1.6873242,-2.2933044,1.5433522,3.2988043,1.5473524,7.6492586
746,1778413556.960986,-1.6870801,-2.3018417,1.586312,3.2988043,1.5473524,7.6492586
747,1778413556.9713426,-1.609972,-2.2776937,1.526766,3.7856495,1.8045192,7.648037
748,1778413556.9817562,-1.4974654,-2.229368,1.3720312,3.9835641,2.0537448,7.6694164
749,1778413556.9919772,-1.3246809,-2.2010431,1.1697024,4.03121,2.3726835,7.646815
750,1778413557.0023143,-1.1770504,-2.1768954,1.0064611,3.971958,2.5156217,7.616273
751,1778413557.0125413,-1.0540249,-2.1336915,0.8968816,3.7887037,2.6726096,7.5582423
752,1778413557.0227764,-0.77974063,-2.0717063,0.72043836,3.4765608,2.690935,7.464172
753,1778413557.0329378,-0.55228835,-1.9887441,0.5835096,3.2248917,2.2132523,7.436073
754,1778413557.0431275,-0.25306356,-1.9472477,0.38999227,2.9005318,1.453282,7.3896484
755,1778413557.0535972,0.16229606,-1.9055074,0.12543415,2.5895343,0.6042043,7.247932
756,1778413557.0638452,0.7314146,-1.8083981,-0.24135554,2.366575,-0.04146126,7.052995
757,1778413557.0743325,1.6412239,-1.7166246,-0.7355612,2.2615092,-0.078112096,6.2234645
758,1778413557.0845714,2.0209413,-1.7232103,-0.91883403,2.1961486,0.63719004,5.3304057
759,1778413557.0948083,3.0344758,-1.5623777,-1.0972286,1.9872389,2.4472067,3.4061606
760,1778413557.105193,3.50182,-1.4401145,-0.97959983,1.975022,3.8203914,1.8454459
761,1778413557.115819,3.8139727,-1.3612989,-0.86538583,2.4441526,4.2956305,0.6059605
762,1778413557.1261694,3.9152286,-1.4013013,-1.0633242,2.8266194,3.3335462,-0.3402419
763,1778413557.136401,3.745615,-1.5848485,-1.3710556,2.3714619,2.274948,-0.65543914
764,1778413557.1466231,3.4144673,-1.8933117,-1.5941174,0.71362233,0.693388,-0.9096279
765,1778413557.1572542,3.151373,-2.1051533,-1.4823426,-0.7732563,0.09292514,-0.9701018
766,1778413557.1675172,3.1260056,-1.9906954,-1.2358648,-1.8367413,0.15217732,-1.0281323
767,1778413557.1781495,3.250952,-1.8186426,-0.9363961,-2.3803954,0.60725856,-1.3024027
768,1778413557.1883833,3.4007776,-1.4950262,-0.19912747,-2.5776992,1.0666157,-1.7788635
769,1778413557.1987703,3.4007776,-1.4950262,-0.19912747,-2.659018,0.93161845,-2.3500059
770,1778413557.2089984,3.33367,-1.4791716,0.11201873,-2.73965,0.051387526,-3.1624327
771,1778413557.219509,3.0024922,-1.5023438,0.4048712,-2.7701924,-0.6731537,-3.8723135
772,1778413557.2297592,2.6530206,-1.5472549,0.5742408,-2.7213244,-1.2424634,-4.6645823
773,1778413557.2403905,2.6530206,-1.5472549,0.5742408,-2.7213244,-1.2424634,-4.6645823
774,1778413557.2505848,2.6530206,-1.5472549,0.5742408,-2.7213244,-1.2424634,-4.6645823
775,1778413557.2607975,0.8712399,-2.0531685,0.96423316,-1.9857881,-1.1575556,-8.14038
776,1778413557.2711387,0.52981746,-2.1849446,1.0005767,-1.8550668,-1.1593881,-8.607677
777,1778413557.2816267,0.52981746,-2.1849446,1.0005767,-1.8550668,-1.1593881,-8.607677
778,1778413557.2921045,-0.46734434,-2.49978,1.2539147,-1.5374262,-1.4672551,-9.472103
779,1778413557.3025525,-0.7367808,-2.640337,1.3371208,-1.3553938,-1.5863703,-9.599159
780,1778413557.3130138,-0.7367808,-2.640337,1.3371208,-1.3553938,-1.5863703,-9.599159
781,1778413557.3236535,-0.7367808,-2.640337,1.3371208,-1.3553938,-1.5863703,-9.599159
782,1778413557.3341632,-0.7367808,-2.640337,1.3371208,-1.3553938,-1.5863703,-9.599159
783,1778413557.3446565,-0.7367808,-2.640337,1.3371208,-1.3553938,-1.5863703,-9.599159
784,1778413557.3553026,-0.7367808,-2.640337,1.3371208,-1.3553938,-1.5863703,-9.599159
785,1778413557.365803,-0.7367808,-2.640337,1.3371208,-1.3553938,-1.5863703,-9.599159
786,1778413557.3762894,-0.7367808,-2.640337,1.3371208,-1.3553938,-1.5863703,-9.599159
787,1778413557.3865347,-1.8074225,-2.6191163,1.1714097,0.19501299,-1.8881289,-8.569805
788,1778413557.3970177,-1.808886,-2.4975846,1.0833254,0.07895201,-3.0615664,-7.7842555
789,1778413557.4072402,-1.808886,-2.4975846,1.0833254,0.07895201,-3.0615664,-7.7842555
790,1778413557.4178686,-1.808886,-2.4975846,1.0833254,0.07895201,-3.0615664,-7.7842555
791,1778413557.428324,-1.808886,-2.4975846,1.0833254,0.07895201,-3.0615664,-7.7842555
792,1778413557.4387383,-1.808886,-2.4975846,1.0833254,0.07895201,-3.0615664,-7.7842555
793,1778413557.448975,-1.808886,-2.4975846,1.0833254,0.07895201,-3.0615664,-7.7842555
794,1778413557.459261,-1.9418817,-1.9145325,0.42194536,-0.8587749,-3.2473404,-5.1893
795,1778413557.4695017,-1.8747741,-1.8188866,0.34971553,-1.3071368,-3.4751863,-4.8728814
796,1778413557.4796817,-1.8623344,-1.8108373,0.38779703,-1.3071368,-3.4751863,-4.8728814
797,1778413557.4898863,-1.9387107,-1.6797626,0.5381107,-2.3480206,-4.0548806,-4.502097
798,1778413557.5002458,-1.9387107,-1.6797626,0.5381107,-2.3480206,-4.0548806,-4.502097
799,1778413557.5108745,-2.0682914,-1.4938067,0.6986993,-2.5367723,-3.9834113,-4.3396115
800,1778413557.5212948,-2.2398565,-1.2087595,0.58424145,-2.250285,-2.9125197,-3.5772743
801,1778413557.5315275,-2.1649435,-1.1147907,0.4920104,-2.39811,-2.4024622,-3.2546706
802,1778413557.5417747,-1.9960617,-1.0503662,0.5647281,-2.915574,-2.3346581,-3.0811899
803,1778413557.5520184,-1.9306613,-1.0057294,0.8429455,-3.5905602,-2.6700134,-3.0830224
804,1778413557.562216,-1.9924029,-0.996674,1.3456882,-4.2172894,-3.0621774,-3.26139
805,1778413557.5724654,-2.24132,-1.0084125,2.1397893,-4.5917387,-3.3163662,-3.6041515
806,1778413557.5827024,-2.6984198,-1.207296,3.2089677,-4.313803,-3.4452548,-4.1117654
807,1778413557.5932038,-3.25022,-1.198515,3.8710797,-3.5563529,-3.5374928,-4.5014863
808,1778413557.6034608,-3.9037642,-1.0196327,4.3000984,-2.8502133,-3.4544177,-4.7354407
809,1778413557.6138794,-4.608592,-0.63451874,4.71497,-2.162323,-3.2020614,-4.754377
810,1778413557.6240897,-5.364642,-0.2599237,5.122311,-1.2613232,-2.8050106,-4.563182
811,1778413557.6345952,-6.0423646,-0.1408009,5.2860403,0.03061872,-1.8936265,-4.0567894
812,1778413557.6448305,-6.5121484,-0.14327055,5.12597,2.1087976,0.026953636,-3.1300578
813,1778413557.6553633,-6.6810303,-0.4920104,4.182957,3.5779614,1.8796533,-2.0800114
814,1778413557.6655822,-6.5260515,-0.66186786,3.3122056,4.3341904,3.1460161,-0.7458445
815,1778413557.675747,-5.948396,-0.7543428,1.8549863,4.0855756,3.6035407,0.7550072
816,1778413557.6859167,-5.379277,-0.73653686,1.0906429,2.991548,3.4825928,2.2724283
817,1778413557.6961062,-4.5839257,-0.77364266,0.82925564,1.2884296,3.0513349,3.904612
818,1778413557.7063298,-4.130729,-0.79218036,0.96520877,0.53403324,2.8583071,4.6835184
819,1778413557.7165422,-3.4664521,-0.8202307,1.3593476,0.11682454,2.6671119,5.7726593
820,1778413557.7266681,-2.9685879,-0.85489744,1.6226556,0.22738789,2.4759166,6.489794
821,1778413557.7368598,-2.5324647,-0.9154193,1.7512913,0.6024481,2.1038344,7.079262
822,1778413557.7470546,-2.248881,-0.9520373,1.7278447,0.9243646,1.7385477,7.42691
823,1778413557.7572114,-1.8537667,-0.9698432,1.5638412,1.3489034,1.2535349,7.85939
824,1778413557.7673934,-1.5640852,-1.0381703,1.4418219,1.6140112,1.0965471,8.0402
825,1778413557.7777512,-1.3088263,-1.147506,1.372763,1.8675128,1.1619078,8.008436
826,1778413557.7882378,-1.1201874,-1.2434262,1.3376086,2.174769,1.4349566,7.730501
827,1778413557.7983925,-0.9986254,-1.3805684,1.3691043,2.5547159,1.8723232,7.0719314
828,1778413557.809033,-0.9986254,-1.3805684,1.3691043,2.5547159,1.8723232,7.0719314
829,1778413557.819233,-1.1157968,-1.6072888,1.4823426,2.9536755,2.26212,6.517282
830,1778413557.8293877,-1.1157968,-1.6072888,1.4823426,2.9536755,2.26212,6.517282
831,1778413557.8396165,-1.1697024,-1.6734209,1.496002,3.1803,2.3916197,6.3883934
832,1778413557.8497872,-1.3110216,-1.8596512,1.3998379,3.4961078,2.6243525,6.314481
833,1778413557.859951,-1.3276079,-1.9013609,1.336389,3.532148,2.7245314,6.316924
834,1778413557.8703778,-1.3305349,-1.9457842,1.2900448,3.5016055,2.7990549,6.314481
835,1778413557.8805673,-1.3305349,-1.9457842,1.2900448,3.5016055,2.7990549,6.314481
836,1778413557.890722,-1.3380964,-2.0470707,1.3427308,3.408146,2.7978332,6.238125
837,1778413557.9009511,-1.5858243,-2.1732366,1.4454807,3.3751602,2.5760956,6.1202316
838,1778413557.9115205,-1.5858243,-2.1732366,1.4454807,3.392264,2.2101982,6.082359
839,1778413557.9217846,-1.8991656,-2.1068606,1.3166317,3.487556,1.952955,6.398167
840,1778413557.9319801,-1.9457842,-2.081219,1.2082716,3.5626903,2.2053113,6.709699
841,1778413557.942181,-1.9074588,-2.0997872,1.1243339,3.5914001,2.5968645,7.037724
842,1778413557.9525754,-1.7961719,-2.154455,1.1106441,3.5003839,2.9535992,7.3371153
843,1778413557.962741,-1.6507365,-2.141009,1.1116197,3.3971508,3.1820562,7.5802326
844,1778413557.97293,-1.4542617,-2.135887,1.0957651,3.3574457,3.2755158,7.8734393
845,1778413557.983153,-1.2797698,-2.1044216,1.0660073,3.3592782,3.158844,8.092123
846,1778413557.9933834,-1.1733916,-2.0905185,1.0179253,3.3745494,2.654284,8.405487
847,1778413558.0035853,-1.0554883,-2.0478022,0.96496487,3.431358,1.4166311,9.0890255
848,1778413558.0137503,-1.0554883,-2.0478022,0.96496487,3.5419214,0.24136102,9.578925
849,1778413558.0240865,-0.44075742,-2.225465,0.5861928,3.840015,-2.128192,10.282086
850,1778413558.0342839,0.046374656,-2.343582,-0.020001167,3.9212577,-3.800768,10.412197
851,1778413558.0445151,0.45441675,-2.4016645,-0.6152493,3.7832062,-4.756744,10.067068
852,1778413558.0547793,1.0769836,-2.3867855,-1.2602564,3.51199,-4.4690347,9.134228
853,1778413558.0649407,1.0769836,-2.3867855,-1.2602564,3.51199,-4.4690347,9.134228
854,1778413558.0754685,2.5427094,-2.2227821,-1.9648097,3.3140755,0.9609391,4.0145645
855,1778413558.0861063,2.9112368,-2.1932378,-2.1185687,3.611558,3.3610344,1.6382923
856,1778413558.0965095,2.8292198,-2.0236242,-2.4009328,3.603617,4.7763677,0.046424393
857,1778413558.1067398,2.7074444,-1.9797192,-2.520025,2.8742654,5.0250587,-0.5076141
858,1778413558.1172552,2.8755946,-2.1195445,-2.523928,1.6109569,4.3835926,-0.2583884
859,1778413558.1275146,3.2338777,-2.2698884,-2.5453925,0.26892552,3.194273,0.24189551
860,1778413558.1376486,3.9459922,-2.186408,-2.3650465,-2.4335392,1.1887851,0.84724516
861,1778413558.147807,4.6022196,-2.1307645,-1.678787,-2.4335392,1.1887851,0.84724516
862,1778413558.1579747,5.2414036,-2.2061958,-0.84172595,-4.14582,0.5730511,0.4263714
863,1778413558.168139,5.5615745,-2.2449787,-0.2215983,-4.719406,0.3690281,-0.51860934
864,1778413558.178542,5.5615745,-2.2449787,-0.2215983,-5.035825,0.05993939,-2.0958934
865,1778413558.1888013,5.4651966,-2.3172388,0.110555224,-5.1262302,-0.15630054,-3.6316397
866,1778413558.1992354,3.647042,-2.613994,1.324925,-5.1922016,-0.059786674,-6.455052
867,1778413558.209911,2.2383926,-2.7494287,1.775195,-3.9375215,-0.07383616,-10.472671
868,1778413558.2201314,2.2383926,-2.7494287,1.775195,-3.9375215,-0.07383616,-10.472671
869,1778413558.2306385,2.2383926,-2.7494287,1.775195,-3.9375215,-0.07383616,-10.472671
870,1778413558.241138,2.2383926,-2.7494287,1.775195,-3.9375215,-0.07383616,-10.472671
871,1778413558.2517629,2.2383926,-2.7494287,1.775195,-3.9375215,-0.07383616,-10.472671
872,1778413558.2619863,-1.2756232,-3.4117846,1.6922328,-2.5386047,-0.9663604,-11.712156
873,1778413558.2722116,-1.4623414,-3.4573967,1.9187094,-2.442091,-0.9865183,-11.506835
874,1778413558.2826612,-1.4623414,-3.4573967,1.9187094,-2.442091,-0.9865183,-11.506835
875,1778413558.2931201,-1.4623414,-3.4573967,1.9187094,-2.442091,-0.9865183,-11.506835
876,1778413558.3035636,-1.4623414,-3.4573967,1.9187094,-2.442091,-0.9865183,-11.506835
877,1778413558.3142052,-1.4623414,-3.4573967,1.9187094,-2.442091,-0.9865183,-11.506835
878,1778413558.324459,-2.4116652,-2.7586975,2.1666508,0.34161633,-2.5325727,-8.570416
879,1778413558.3347852,-2.4807239,-2.4936821,1.7229664,0.5554129,-3.3255289,-7.4660044
880,1778413558.3450089,-2.5192933,-2.2991586,1.3498348,0.46378577,-4.0243382,-6.310892
881,1778413558.3553898,-2.5192933,-2.2991586,1.3498348,0.46378577,-4.0243382,-6.310892
882,1778413558.3656194,-2.5192933,-2.2991586,1.3498348,0.46378577,-4.0243382,-6.310892
883,1778413558.3762445,-2.5192933,-2.2991586,1.3498348,0.46378577,-4.0243382,-6.310892
884,1778413558.3865082,-1.9596875,-1.9343201,0.3746255,-1.5294852,-4.441547,-3.4257078
885,1778413558.3970318,-1.781049,-1.8986778,0.3204455,-2.1354456,-3.784275,-3.1679301
886,1778413558.407231,-1.6819578,-1.8603829,0.34410545,-2.4561405,-3.452585,-3.0811899
887,1778413558.4173572,-1.5853364,-1.7866591,0.3875531,-2.819671,-3.2051156,-2.9865086
888,1778413558.4275246,-1.5170093,-1.6663471,0.46417344,-3.195953,-3.0811136,-2.8545656
889,1778413558.437961,-1.4559691,-1.5221316,0.50176704,-3.3694334,-3.0823352,-2.7104056
890,1778413558.4481866,-1.399594,-1.352518,0.48246717,-3.4812186,-2.99926,-2.5937338
891,1778413558.458359,-1.2817211,-1.15897,0.5056698,-3.6375954,-2.814784,-2.5076044
892,1778413558.4687304,-1.2492802,-1.1253096,0.5381107,-3.9540143,-2.2827363,-2.5100477
893,1778413558.4788918,-1.2180284,-1.0843011,0.61329794,-3.9955518,-2.0664964,-2.5589156
894,1778413558.4890306,-1.2180284,-1.0843011,0.61329794,-3.9350781,-1.9046217,-2.624887
895,1778413558.4996645,-1.192661,-1.0396339,0.7189749,-3.9350781,-1.9046217,-2.624887
896,1778413558.509818,-1.3608111,-0.6784542,1.1992468,-3.8446727,-1.9101194,-2.888773
897,1778413558.5199637,-1.6368333,-0.41365218,1.8977021,-3.5807867,-2.031678,-2.9584095
898,1778413558.5301845,-1.6368333,-0.41365218,1.8977021,-3.5807867,-2.031678,-2.9584095
899,1778413558.5404027,-1.9736212,0.0078053335,3.0215483,-1.9466939,-2.8123407,-2.7494998
900,1778413558.5506768,-1.9987447,0.100554645,3.0891438,-1.2320026,-3.211835,-2.7775989
901,1778413558.5608587,-2.165919,0.16497913,2.883156,-0.9412393,-3.8960602,-3.3847811
902,1778413558.5713017,-2.3862977,0.3477642,2.8397388,-1.4708438,-3.868572,-4.051292
903,1778413558.5817587,-3.353214,0.23257454,3.8635182,-2.9210715,-2.7524776,-5.5240445
904,1778413558.5919926,-4.1568584,0.354106,5.1769485,-2.9088547,-1.9247797,-6.2289624
905,1778413558.602205,-5.096425,0.6369579,6.2227106,-2.9088547,-1.9247797,-6.2289624
906,1778413558.6126633,-5.9859896,0.8983451,6.4206185,0.08628218,-0.20883341,-6.375031
907,1778413558.6230996,-6.750089,0.8848992,5.8127174,2.8266194,1.9755564,-5.365835
908,1778413558.6335623,-7.158131,0.8346523,4.670334,3.8406258,3.1600657,-4.3139563
909,1778413558.643802,-7.1168785,0.6432997,3.061581,4.220573,4.0067,-1.7202222
910,1778413558.6543107,-6.5414186,0.46880785,2.0834143,3.3855445,3.7250993,0.7574506
911,1778413558.664777,-5.663105,0.1644913,1.6109476,1.9841846,3.086153,3.004834
912,1778413558.6751118,-4.710092,-0.18522422,1.811813,0.7728745,2.5632677,4.652365
913,1778413558.6855648,-3.8432424,-0.45124584,2.2020187,0.47355935,2.5235627,5.6602635
914,1778413558.6961951,-3.1149988,-0.6559834,2.4099576,0.8883246,2.842425,6.201474
915,1778413558.7068255,-2.5314891,-0.74458617,2.277938,1.5798037,3.1130304,6.5111737
916,1778413558.7170408,-1.9418817,-0.78535074,1.9704198,1.8180342,3.1234148,6.5600414
917,1778413558.727295,-1.6085085,-0.82657266,1.8157157,1.9096613,3.0629408,6.478188
918,1778413558.737509,-1.3800805,-0.873679,1.6841532,2.0397718,2.9737573,6.345634
919,1778413558.7477224,-1.2331817,-0.87880135,1.5816777,2.1808774,2.9627619,6.161158
920,1778413558.757954,-1.1536039,-0.8848992,1.5118566,2.290219,3.0495021,5.998062
921,1778413558.7681768,-1.1052779,-0.9705749,1.5025877,2.40628,3.1057003,5.869173
922,1778413558.7783823,-1.1189677,-1.0864964,1.5714027,2.7000976,3.03362,5.6004004
923,1778413558.7885857,-1.1189677,-1.0864964,1.5714027,2.7000976,3.03362,5.6004004
924,1778413558.7987385,-1.1553113,-1.1370175,1.5941174,2.8021855,3.0317876,5.525266
925,1778413558.808944,-1.2783062,-1.4118202,1.7449493,3.1137176,3.2449734,5.237557
926,1778413558.8194087,-1.3642259,-1.5657926,1.8076663,3.344007,3.4404445,5.147763
927,1778413558.8298535,-1.4816109,-1.7029651,1.7066239,3.344007,3.4404445,5.147763
928,1778413558.8400614,-1.4816109,-1.7029651,1.7066239,3.6720319,3.6994438,5.144708
929,1778413558.8504705,-1.6529318,-1.8379121,1.4057223,3.5223744,3.945615,5.4318066
930,1778413558.8607755,-1.6902816,-1.9370033,1.3586159,3.2328327,3.9120185,5.6987467
931,1778413558.8709416,-1.7310157,-2.018258,1.415235,2.9084728,3.7812972,5.938199
932,1778413558.881317,-1.8000745,-2.109056,1.5213997,2.6695552,3.5033617,6.2772193
933,1778413558.891702,-1.8000745,-2.109056,1.5213997,2.6695552,3.5033617,6.2772193
934,1778413558.9021256,-1.8000745,-2.109056,1.5213997,2.6695552,3.5033617,6.2772193
935,1778413558.912571,-1.8305945,-2.209123,1.5589628,2.6041946,3.3115556,6.453754
936,1778413558.9230375,-1.9933785,-2.2271726,1.3534936,2.3207614,3.7348728,7.3493323
937,1778413558.9335272,-1.9933785,-2.2271726,1.3534936,2.3207614,3.7348728,7.3493323
938,1778413558.9439797,-1.7837322,-2.2332704,1.2678179,2.058708,4.2253833,8.235061
939,1778413558.9544153,-1.6663471,-2.3282151,1.3180952,1.9102721,4.0922184,8.665097
940,1778413558.9645858,-1.4269431,-2.4162996,1.3886176,1.8320836,3.714715,9.158662
941,1778413558.9750533,-1.2397674,-2.4988043,1.4725859,1.9292084,3.1881645,9.456144
942,1778413558.9854648,-1.0018268,-2.4563322,1.3939837,2.2676177,2.3366435,9.704148
943,1778413558.9958787,-0.6977236,-2.4944139,1.1257974,2.6274068,1.421518,9.856326
944,1778413559.0065024,-0.46319774,-2.472187,0.7636116,2.867546,0.3519244,9.992545
945,1778413559.0169454,-0.036130156,-2.1881156,0.24111164,3.107609,-1.4330477,10.102497
946,1778413559.0271704,0.77068526,-2.1107635,-0.5542397,2.74049,-2.8825881,9.672996
947,1778413559.037364,1.5504258,-2.123935,-1.0723492,2.1320097,-2.9412296,8.839189
948,1778413559.0475729,3.2636356,-1.940418,-1.6839092,1.6732633,-2.0432842,7.4489007
949,1778413559.0581996,3.2636356,-1.940418,-1.6839092,1.410599,-0.38597912,5.7042446
950,1778413559.0684087,4.5534363,-2.0717063,-1.3449565,1.2957598,1.2278794,3.7836642
951,1778413559.0790734,4.5534363,-2.0717063,-1.3449565,1.4863441,2.585869,1.9205801
952,1778413559.0897014,4.5534363,-2.0717063,-1.3449565,1.4863441,2.585869,1.9205801
953,1778413559.1003351,4.5534363,-2.0717063,-1.3449565,1.4863441,2.585869,1.9205801
954,1778413559.1109278,4.206892,-2.8697407,-2.1554306,0.68674505,2.2236366,-1.4386216
955,1778413559.1214678,4.110484,-2.4651132,-1.0510979,-1.786041,2.138118,-2.5021067
956,1778413559.1316981,4.120972,-2.2937922,-0.62134725,-1.858121,1.9389056,-2.9199262
957,1778413559.1420074,4.2957077,-2.255223,-0.29480377,-1.6828078,1.6017178,-3.3737857
958,1778413559.1524954,4.4675164,-2.3677297,0.041740242,-1.5453672,0.40690064,-4.274862
959,1778413559.1626794,4.4675164,-2.3677297,0.041740242,-1.5453672,0.40690064,-4.274862
960,1778413559.172855,4.4675164,-2.3677297,0.041740242,-1.5453672,0.40690064,-4.274862
961,1778413559.1835158,4.4675164,-2.3677297,0.041740242,-1.5453672,0.40690064,-4.274862
962,1778413559.1936834,2.3753214,-3.139665,0.68504,-2.2918227,-1.7213676,-8.887445
963,1778413559.2041695,1.5401813,-3.299034,0.84148204,-2.3425229,-1.6975446,-10.004762
964,1778413559.214595,0.62842077,-3.4498355,1.0469513,-2.530053,-1.5772076,-11.168426
965,1778413559.2247598,-0.43295208,-3.5945697,1.475025,-2.562428,-1.5191771,-11.764078
966,1778413559.23526,-1.1128393,-3.710491,1.7149171,-2.3205323,-1.5002409,-12.056064
967,1778413559.245675,-1.6172894,-3.749304,1.7854396,-1.9637976,-1.4623684,-12.124478
968,1778413559.2558417,-1.6172894,-3.749304,1.7854396,-1.9637976,-1.4623684,-12.124478
969,1778413559.2665029,-1.6172894,-3.749304,1.7854396,-1.9637976,-1.4623684,-12.124478
970,1778413559.2771332,-1.6172894,-3.749304,1.7854396,-1.9637976,-1.4623684,-12.124478
