id,timestamp,acc_x,acc_y,acc_z,gyro_x,gyro_y,gyro_z
0,1778413484.4663417,-0.04198416,0.6172006,0.8568487,-0.38781166,-0.08483142,-0.114228435
1,1778413484.4765832,-0.038325407,0.6147615,0.93883526,-0.32794863,-0.03413109,-0.14538164
2,1778413484.4867535,-0.034178823,0.6030535,1.0118273,-0.154468,-0.024968382,-0.16859384
3,1778413484.4970713,-0.040520657,0.5815583,1.0259744,0.11193776,-0.05245651,-0.19119519
4,1778413484.5072527,-0.052960407,0.5871684,0.9698432,0.458899,-0.044515494,-0.19547112
5,1778413484.517503,-0.07613249,0.5925346,0.88611877,0.6213844,-0.008475506,-0.211964
6,1778413484.5281296,-0.09762765,0.6147615,0.8143768,0.6397098,0.09903361,-0.21623993
7,1778413484.5383444,-0.09762765,0.6147615,0.8143768,0.6397098,0.09903361,-0.21623993
8,1778413484.5488608,-0.09762765,0.6147615,0.8143768,0.6397098,0.09903361,-0.21623993
9,1778413484.5595243,-0.09762765,0.6147615,0.8143768,0.6397098,0.09903361,-0.21623993
10,1778413484.5696707,-0.08247432,0.60915136,0.7448301,0.42041564,0.20165595,-0.16676131
11,1778413484.5798552,0.023903834,0.58960754,0.8026688,-0.118428014,-0.36093438,-0.029931515
12,1778413484.5900655,0.023903834,0.58960754,0.8026688,-0.118428014,-0.36093438,-0.029931515
13,1778413484.6002643,0.05881441,0.5957055,0.7768136,-0.17279342,-0.43179265,-0.03970507
14,1778413484.6104832,0.049301658,0.57228947,0.7753501,-0.21860696,-0.33711132,-0.099568106
15,1778413484.6206472,0.049301658,0.57228947,0.7753501,-0.21860696,-0.33711132,-0.099568106
16,1778413484.6308134,0.078327745,0.56253284,0.85123867,-0.19478393,-0.12514733,-0.19486028
17,1778413484.6409707,0.021220751,0.6072001,0.9227367,-0.115984626,-0.17218257,-0.22906773
18,1778413484.6514668,0.025123417,0.60890746,0.94322574,-0.044515494,-0.31206658,-0.17225893
19,1778413484.6617827,0.03539841,0.5944859,0.9285908,0.0581832,-0.4140781,-0.18814096
20,1778413484.6720443,0.0019513334,0.5815583,0.89419854,0.12048962,-0.50020754,-0.18569757
21,1778413484.682517,-0.0131715005,0.5932663,0.8714838,0.106440134,-0.5632012,-0.15393351
22,1778413484.692797,-0.025855167,0.59180284,0.8856309,0.03672719,-0.6035171,-0.09162709
23,1778413484.7029748,-0.030763991,0.58790016,0.94471973,-0.07322531,-0.69880927,0.012216945
24,1778413484.7133307,-0.0036587503,0.6108588,1.006949,-0.18012358,-0.7892147,0.12705623
25,1778413484.7235713,0.13738607,0.5927785,1.1948563,-0.3908659,-1.0763129,0.3915531
26,1778413484.7337742,0.24842913,0.531281,1.2714766,-0.4140781,-1.2607888,0.47279578
27,1778413484.7440042,0.43978173,0.4490506,1.3317544,-0.3108449,-1.4367127,0.4343124
28,1778413484.7546294,0.52347565,0.40438333,1.3603233,-0.12514733,-1.299883,0.26449686
29,1778413484.7648194,0.5776557,0.42560413,1.4157228,0.081395395,-0.9669712,0.036650836
30,1778413484.7753305,0.60866356,0.41316435,1.5064903,0.28236416,-0.63650286,-0.15393351
31,1778413484.785828,0.71653575,0.38145518,1.595093,0.4912739,-0.36032352,-0.34696123
32,1778413484.7960386,0.71653575,0.38145518,1.595093,0.4912739,-0.36032352,-0.34696123
33,1778413484.8064625,0.87709385,0.22403745,1.609972,1.0880717,0.016569233,-1.1503017
34,1778413484.8166351,0.8588001,0.22794013,1.5799702,1.2756017,0.34153998,-1.6304277
35,1778413484.8268282,0.7699534,0.26528987,1.5953369,1.378835,0.54800636,-2.0299218
36,1778413484.8370361,0.6823569,0.29285243,1.5963126,1.4625211,0.49913856,-2.2602112
37,1778413484.847396,0.5315249,0.2672412,1.5248145,1.6017942,-0.037185326,-2.4782836
38,1778413484.8575232,0.5315249,0.2672412,1.5248145,1.6017942,-0.037185326,-2.4782836
39,1778413484.8677306,0.48612595,0.21842737,1.4789277,1.5492613,-0.3896442,-2.6261086
40,1778413484.8779454,0.46368557,0.21940304,1.4232843,1.4887875,-0.43851197,-2.82158
41,1778413484.8883266,0.43173254,0.12860507,1.4625853,1.6005726,-0.37376216,-3.0891309
42,1778413484.89857,0.19863963,-0.0041465834,1.4276748,2.5809824,-0.550297,-3.6328614
43,1778413484.9088101,-0.002927,-0.05808266,1.3129729,3.1583095,-0.86923563,-3.7330403
44,1778413484.9190145,-0.15522248,-0.17717497,1.0891794,3.7538855,-1.259567,-3.7831297
45,1778413484.9292102,-0.24696562,-0.2420873,0.9574034,4.0452595,-1.4202199,-3.773967
46,1778413484.9394062,-0.3404467,-0.31971377,0.7648312,4.386112,-1.6999879,-3.5882695
47,1778413484.949563,-0.3758451,-0.48515025,0.639641,4.541878,-1.9095086,-3.404939
48,1778413484.9598725,-0.4019442,-0.6354944,0.5410376,4.541878,-1.9095086,-3.404939
49,1778413484.9701004,-0.4019442,-0.6354944,0.5410376,4.5736427,-2.250972,-3.3072035
50,1778413484.980726,-0.4019442,-0.6354944,0.5410376,4.5736427,-2.250972,-3.3072035
51,1778413484.9913487,-0.4019442,-0.6354944,0.5410376,4.5736427,-2.250972,-3.3072035
52,1778413485.001978,-0.4019442,-0.6354944,0.5410376,4.5736427,-2.250972,-3.3072035
53,1778413485.0126042,-0.7472692,-1.0228037,0.29699904,3.9756231,-2.7781334,-4.2308807
54,1778413485.0227916,-0.95081764,-1.0908868,0.4388061,4.5082817,-2.9742153,-4.549743
55,1778413485.0329661,-0.82901174,-1.0635681,0.36435053,4.944427,-3.2026722,-4.5552406
56,1778413485.0435092,-0.70187026,-1.0540249,0.14031307,5.3983626,-2.531351,-4.558295
57,1778413485.0537674,-0.58424145,-1.2756232,0.082230404,5.7520432,-1.6535635,-4.849058
58,1778413485.0642889,-0.5671672,-1.3630064,0.03515449,5.7673144,-1.3774606,-5.2564936
59,1778413485.0745625,-0.6147615,-1.3239491,-0.047106408,5.636593,-1.259567,-5.611396
60,1778413485.0847273,-0.7194627,-1.2404993,-0.1381178,5.4154663,-1.2259705,-5.889942
61,1778413485.0949056,-0.8478238,-1.1406763,-0.2172078,5.163721,-1.1654966,-6.1183987
62,1778413485.1050992,-0.91712666,-1.0049977,-0.3448372,4.9096084,-0.9382614,-6.1636014
63,1778413485.115527,-0.9444758,-0.8719716,-0.6225668,4.7568965,-0.40063944,-6.0512056
64,1778413485.1261556,-0.9520373,-0.73653686,-0.61402977,4.532105,-0.014583978,-5.842907
65,1778413485.1365812,-0.930786,-0.5693625,-0.81340116,4.1533794,0.37880164,-5.427531
66,1778413485.1467447,-0.8846553,-0.46051466,-0.9342008,3.5571926,0.57427275,-4.846615
67,1778413485.157197,-0.83928674,-0.45563635,-0.88761276,2.6774962,0.45882264,-4.2956305
68,1778413485.1673918,-0.8517265,-0.45197758,-0.73873216,1.2383401,-0.22227205,-3.954778
69,1778413485.1775644,-0.98033154,-0.3284948,-0.37706468,0.10521844,-0.700031,-3.8643725
70,1778413485.188001,-1.6070449,-0.4797841,0.2777296,-0.6468109,-1.3401989,-3.937674
71,1778413485.1985,-1.6070449,-0.4797841,0.2777296,-0.8581641,-1.8520889,-4.0726714
72,1778413485.2086413,-2.4492588,-0.0043905,0.07320549,0.100331664,-1.6523418,-4.5589056
73,1778413485.2188077,-2.8162923,0.43856218,-0.15790555,0.100331664,-1.6523418,-4.5589056
74,1778413485.2291522,-2.8162923,0.43856218,-0.15790555,1.8284186,0.1002553,-4.502708
75,1778413485.239359,-3.7407367,0.7380004,-0.19498089,1.8284186,0.1002553,-4.502708
76,1778413485.2496076,-3.7407367,0.7380004,-0.19498089,2.5559375,0.90351945,-4.122761
77,1778413485.2597647,-4.4331245,0.62622553,-0.08787098,3.304302,0.9609391,-2.5943446
78,1778413485.2701428,-4.832599,0.59790075,-0.14153264,3.408146,0.20043425,-1.6053829
79,1778413485.2805786,-4.832599,0.59790075,-0.14153264,3.3452287,-0.3456632,-0.43309072
80,1778413485.2910306,-4.832599,0.59790075,-0.14153264,3.3452287,-0.3456632,-0.43309072
81,1778413485.3016572,-4.832599,0.59790075,-0.14153264,3.3452287,-0.3456632,-0.43309072
82,1778413485.311845,-4.832599,0.59790075,-0.14153264,3.3452287,-0.3456632,-0.43309072
83,1778413485.32206,-4.655912,0.6599165,-1.1128393,1.2383401,-0.12270394,2.316409
84,1778413485.3324895,-4.3984575,0.56228894,-0.95545214,0.4185831,-0.24731678,2.8716693
85,1778413485.342653,-4.1136546,0.37218636,-0.82486516,-0.02741177,-0.4708869,3.4348705
86,1778413485.3528469,-3.7373219,0.2437947,-0.76263595,-0.20944425,-0.74034685,4.1110783
87,1778413485.363396,-3.410321,0.19449306,-0.7782771,-0.27663746,-0.860073,4.5680685
88,1778413485.3735867,-3.410321,0.19449306,-0.7782771,-0.27663746,-0.860073,4.5680685
89,1778413485.3842163,-3.410321,0.19449306,-0.7782771,-0.27663746,-0.860073,4.5680685
90,1778413485.3943882,-3.410321,0.19449306,-0.7782771,-0.27663746,-0.860073,4.5680685
91,1778413485.4045935,-2.4734066,0.07320549,-0.52030474,-0.9027559,-0.23571068,5.5240445
92,1778413485.415221,-2.3301666,0.02414775,-0.42194536,-1.0573002,-0.36093438,5.856345
93,1778413485.4254723,-2.2371733,-0.024635585,-0.34020278,-1.2527714,-0.41774318,6.1055713
94,1778413485.435991,-2.1166174,-0.109335646,-0.15814948,-1.5966784,-0.43423605,6.542327
95,1778413485.446226,-2.0050864,-0.23208672,0.04613074,-1.7390058,-0.4244625,6.9228845
96,1778413485.4565,-1.8386439,-0.44587967,0.24818522,-1.666315,-0.53563666,7.2045617
97,1778413485.467131,-1.8386439,-0.44587967,0.24818522,-1.666315,-0.53563666,7.2045617
98,1778413485.477386,-1.8386439,-0.44587967,0.24818522,-1.666315,-0.53563666,7.2045617
99,1778413485.4877279,-1.3000454,-1.4037709,0.6445193,-0.6352048,-0.46538925,7.8502274
100,1778413485.4978995,-1.2314743,-1.490148,0.58887583,-0.22899136,-0.35299337,7.674914
101,1778413485.5080962,-1.1970515,-1.5257903,0.53518367,0.4534014,0.3445942,7.0426106
102,1778413485.518402,-1.1970515,-1.5257903,0.53518367,0.4534014,0.3445942,7.0426106
103,1778413485.5285845,-1.1472621,-1.4942945,0.34093451,0.88221616,1.1881742,6.6455603
104,1778413485.5387332,-1.1472621,-1.4942945,0.34093451,0.88221616,1.1881742,6.6455603
105,1778413485.549168,-1.1116197,-1.4828304,0.3113901,0.9341382,1.4557254,6.65289
106,1778413485.5595763,-0.77166086,-1.5323759,0.34752026,0.88954633,2.1026127,6.5875297
107,1778413485.5697355,-0.6765029,-1.5435961,0.4097495,0.80769277,2.1124625,6.425044
108,1778413485.579896,-0.6765029,-1.5435961,0.4097495,0.80769277,2.1124625,6.425044
109,1778413485.5900898,-0.5803387,-1.5211558,0.43636695,0.70934635,2.1649954,6.186203
110,1778413485.6004996,-0.32678735,-1.4808791,0.45588025,0.9359707,2.274337,5.550922
111,1778413485.6109354,-0.20818289,-1.4442612,0.4444162,1.2059652,2.1784341,5.274819
112,1778413485.6213796,-0.09884723,-1.3415112,0.37364984,1.4240377,2.1998136,4.9871097
113,1778413485.6315978,-0.00048783334,-1.2329378,0.2889498,1.5645325,2.3800137,4.681075
114,1778413485.6417372,0.10323773,-1.1292123,0.2040363,1.6378342,2.666501,4.392679
115,1778413485.6519701,0.24477036,-1.177782,0.1188484,1.6757067,2.8845735,4.024949
116,1778413485.662343,0.43417168,-1.1243339,-0.00048783334,1.5834688,2.9633727,3.7787776
117,1778413485.6728354,0.7104073,-1.0174373,-0.04686249,1.3904411,3.038507,3.5918581
118,1778413485.6830661,1.0821058,-0.910541,0.023416,1.1369394,2.8057742,3.3878353
119,1778413485.6934838,1.517741,-0.69089395,0.1290929,0.8296833,2.2993817,3.204581
120,1778413485.7040153,1.9384667,-0.48271108,0.2835836,0.42530242,1.5216969,3.0036123
121,1778413485.71439,2.371632,-0.26968038,0.3650823,-0.1776802,0.44110808,2.640769
122,1778413485.7249196,2.9009924,-0.067839324,0.42779937,-0.50509435,-0.22715883,2.3396213
123,1778413485.7351513,3.2260418,0.0065857503,0.43392777,-0.49898586,-0.73851436,2.1557562
124,1778413485.7456248,3.7375655,0.052960407,0.39682195,-0.0988809,-1.4409887,2.0824547
125,1778413485.7562637,4.044352,-0.08052299,0.2215983,0.31351736,-2.0939844,1.9786106
126,1778413485.7665026,4.253968,-0.34239805,-0.014391083,0.40209022,-2.479429,1.5845377
127,1778413485.7767394,4.3252525,-0.56277674,-0.22086655,0.0581832,-2.4702663,0.85457534
128,1778413485.7869399,4.246894,-0.46929568,-0.30334088,-0.658417,-2.1104772,-0.22906773
129,1778413485.7972052,3.9003496,-0.18473639,-0.16717438,-1.3071368,-1.327982,-1.3793695
130,1778413485.8077037,3.9003496,-0.18473639,-0.16717438,-1.3071368,-1.327982,-1.3793695
131,1778413485.817869,3.7810135,-0.38072345,0.21598822,-1.3999856,-1.2253596,-1.749543
132,1778413485.828015,3.7810135,-0.38072345,0.21598822,-1.470233,-1.335923,-2.3634443
133,1778413485.8384876,3.6509447,-0.4844185,0.29407203,-1.522155,-1.4067812,-2.776988
134,1778413485.8486247,2.7958033,-0.58887583,0.5803387,-1.6070628,-1.6395141,-4.702455
135,1778413485.858826,2.255467,-0.69308925,0.74629354,-1.6070628,-1.6395141,-4.702455
136,1778413485.869175,1.2765989,-1.1799774,0.85099477,-0.8386169,-2.1825573,-5.445856
137,1778413485.879634,0.81852335,-1.3820319,0.82462126,-0.5069269,-2.6419144,-5.753723
138,1778413485.8897984,0.411213,-1.4313335,0.7704413,-0.46294588,-2.9821563,-6.0005054
139,1778413485.90002,0.06735149,-1.4264551,0.747757,-0.67735326,-3.1855686,-6.221021
140,1778413485.9101954,-0.30870703,-1.5025877,0.76580685,-0.67735326,-3.1855686,-6.221021
141,1778413485.9203966,-0.30870703,-1.5025877,0.76580685,-1.0353098,-3.2209976,-6.367701
142,1778413485.9305797,-0.75775766,-1.4220647,0.9215172,-1.4916127,-2.7072752,-6.1874247
143,1778413485.9407547,-0.8692885,-1.3976425,1.0057294,-1.462292,-2.3059485,-6.13367
144,1778413485.9509296,-0.9747215,-1.3322424,1.0552444,-1.2161205,-1.9650956,-6.0231066
145,1778413485.9612906,-0.9747215,-1.3322424,1.0552444,-1.2161205,-1.9650956,-6.0231066
146,1778413485.9717572,-0.94346964,-1.3256567,1.0237793,-0.3560476,-1.5729316,-5.659042
147,1778413485.9819777,-0.93932307,-1.4064541,0.9581351,-0.048180576,-1.5124578,-5.6639285
148,1778413485.9922094,-1.0540249,-1.4262112,0.8490435,0.03061872,-1.4843588,-5.8007584
149,1778413486.0026233,-1.1472621,-1.2844043,0.69967496,-0.09460497,-1.3212626,-5.9003263
150,1778413486.0131361,-1.2475728,-1.0828376,0.6106149,-0.31695336,-1.0011786,-5.836798
151,1778413486.0233333,-1.3090702,-0.94103056,0.5778996,-0.49593163,-0.775776,-5.5564194
152,1778413486.0334902,-1.2941914,-0.8731912,0.57643604,-0.52403057,-0.7049177,-5.290701
153,1778413486.043653,-1.2048569,-0.7470253,0.5508248,-0.3419981,-0.7067503,-4.70612
154,1778413486.0540824,-1.1428716,-0.70089453,0.52932966,-0.11231954,-0.8057075,-4.2852464
155,1778413486.0643249,-1.0896672,-0.69016224,0.48075974,0.12476555,-0.94131565,-3.874146
156,1778413486.0745792,-0.9964301,-0.721414,0.4243845,0.34100547,-1.0378295,-3.5876586
157,1778413486.0848165,-0.94127446,-0.7226336,0.37389377,0.47905695,-1.071426,-3.4556394
158,1778413486.095165,-0.88956416,-0.7182431,0.25599056,0.7032379,-1.015839,-3.2259607
159,1778413486.1053872,-0.85123867,-0.7841311,0.15400289,0.7820372,-0.93765056,-3.1337228
160,1778413486.1156201,-0.793156,-0.9339569,0.015122834,0.8290724,-0.6755971,-3.0750813
161,1778413486.1259298,-0.71653575,-0.9856978,-0.11250656,0.7600467,-0.36826456,-3.1709845
162,1778413486.1361666,-0.65061724,-1.03939,-0.2040363,0.6293254,-0.0017561859,-3.36951
163,1778413486.1463752,-0.58790016,-1.2519633,-0.30553612,0.28908345,0.957274,-4.0909967
164,1778413486.156785,-0.56253284,-1.4108446,-0.3155672,-0.009086353,2.3794029,-5.373776
165,1778413486.167118,-0.6254938,-1.4845378,-0.33800754,0.05077668,3.4355576,-6.5485115
166,1778413486.1773307,-0.82462126,-1.3349254,-0.43807435,0.44912544,4.1007705,-7.3371153
167,1778413486.1876364,-0.98179513,-0.8981012,-0.5317688,0.9891144,4.1081004,-7.5680156
168,1778413486.1978421,-1.12409,-0.41023734,-0.7089438,1.4661862,3.4508288,-7.498379
169,1778413486.2079937,-1.5196923,-0.14375839,-0.7121147,1.5199407,2.3329785,-7.2302175
170,1778413486.2182171,-2.146406,-0.021708583,-0.52006084,0.54869354,0.31038678,-6.7122188
171,1778413486.2288404,-2.146406,-0.021708583,-0.52006084,0.54869354,0.31038678,-6.7122188
172,1778413486.2391987,-3.772476,0.041008487,0.15205155,-1.4696221,-3.0811136,-5.6730914
173,1778413486.2498243,-3.772476,0.041008487,0.15205155,-1.4696221,-3.0811136,-5.6730914
174,1778413486.2600443,-3.772476,0.041008487,0.15205155,-1.4696221,-3.0811136,-5.6730914
175,1778413486.2706702,-3.772476,0.041008487,0.15205155,-1.4696221,-3.0811136,-5.6730914
176,1778413486.2813315,-3.772476,0.041008487,0.15205155,-1.4696221,-3.0811136,-5.6730914
177,1778413486.291574,-6.7959757,-0.18961473,-1.2263216,3.4252496,1.2517024,-1.445341
178,1778413486.3020122,-6.504587,-0.019513333,-1.3647138,2.3842895,0.6512395,-0.40926766
179,1778413486.31221,-5.9698606,0.12836114,-1.4569447,0.20173231,-0.571753,0.9962919
180,1778413486.322347,-5.4791,0.16815005,-1.3119973,-1.1134982,-0.90161055,1.7653486
181,1778413486.3330152,-5.4791,0.16815005,-1.3119973,-1.1134982,-0.90161055,1.7653486
182,1778413486.343217,-5.4791,0.16815005,-1.3119973,-1.1134982,-0.90161055,1.7653486
183,1778413486.3538787,-5.4791,0.16815005,-1.3119973,-1.1134982,-0.90161055,1.7653486
184,1778413486.3641124,-3.6450908,0.35630128,-0.4612464,-1.238111,-0.59924114,3.584528
185,1778413486.3742971,-3.3258648,0.46612477,-0.3138293,-1.1910758,-0.6407788,3.8258128
186,1778413486.3847504,-3.1382015,0.55741054,-0.065156244,-1.2753727,-0.43423605,4.0261707
187,1778413486.3949618,-3.0525258,0.47027132,0.19498089,-1.51849,0.11186141,4.172163
188,1778413486.4053404,-2.9217253,0.26626554,0.32142118,-1.6455462,0.5657209,4.1232953
189,1778413486.415576,-2.8106823,0.16302781,0.3287387,-1.4146459,1.2455939,4.327318
190,1778413486.4260914,-2.8106823,0.16302781,0.3287387,-1.4146459,1.2455939,4.327318
191,1778413486.436593,-2.8106823,0.16302781,0.3287387,-1.4146459,1.2455939,4.327318
192,1778413486.4469037,-2.1703095,-0.57546043,0.5966811,-0.5930563,2.0287,6.5307207
193,1778413486.457072,-1.618753,-1.2033933,0.7194627,-0.16179816,1.5552934,7.5729027
194,1778413486.4675193,-1.618753,-1.2033933,0.7194627,-0.16179816,1.5552934,7.5729027
195,1778413486.4777172,-1.3015088,-1.5838729,0.7614164,0.082006246,1.1002122,7.861833
196,1778413486.4878883,-1.3015088,-1.5838729,0.7614164,0.1937913,0.7844042,7.9137554
197,1778413486.4981034,-1.2465972,-1.7608039,0.7531232,0.18218519,0.68361443,7.797694
198,1778413486.508843,-1.1545795,-1.7512913,0.7086999,0.08506048,0.77463067,7.387816
199,1778413486.5190845,-1.081374,-1.6329306,0.65820915,0.02145601,1.1704597,6.8672976
200,1778413486.5293233,-1.0943017,-1.5746042,0.6784542,-0.013973131,1.521086,6.5472136
201,1778413486.5397403,-1.0320724,-1.4879526,0.8029127,0.035505496,2.2590659,6.072585
202,1778413486.5500448,-0.96667224,-1.5885073,0.86709327,0.22127941,2.4044476,5.9528594
203,1778413486.5602531,-0.9566717,-1.6626884,0.90273565,0.50715595,2.3036578,5.834355
204,1778413486.570671,-0.9566717,-1.6626884,0.90273565,0.50715595,2.3036578,5.834355
205,1778413486.580991,-0.89053977,-1.5728662,0.6979676,0.77653956,2.3488605,5.506941
206,1778413486.5912151,-0.8588001,-1.5118566,0.62622553,0.72217417,2.494242,5.3872147
207,1778413486.6014671,-0.8099863,-1.3605672,0.5403059,0.61710846,2.674442,5.305972
208,1778413486.611636,-0.76824605,-1.2797698,0.5046941,0.559078,2.7532413,5.3206325
209,1778413486.621831,-0.76824605,-1.2797698,0.5046941,0.559078,2.7532413,5.3206325
210,1778413486.6320238,-0.5273783,-1.2458653,0.41438392,0.5144861,2.7233098,5.319411
211,1778413486.6422203,-0.29895037,-1.1455547,0.40462726,0.41308546,2.6011403,5.2192316
212,1778413486.6524708,-0.109335646,-0.97618496,0.38365042,0.334897,2.461867,5.161201
213,1778413486.6627517,0.096895896,-0.7968148,0.3155672,0.2970245,2.230356,5.071407
214,1778413486.672972,0.2713878,-0.68747914,0.23403804,0.29641363,2.1032236,4.9761143
215,1778413486.6832275,0.49298608,-0.5398181,0.14741714,0.28358585,2.0897849,4.9266357
216,1778413486.6934762,0.7885216,-0.35898435,0.12933682,0.20661908,2.1405616,4.915641
217,1778413486.7036386,1.2483045,-0.11982407,0.1364104,0.11010522,2.2334104,4.7458253
218,1778413486.7138307,1.7263812,0.112750486,0.21647604,0.15958385,2.3403087,4.4440665
219,1778413486.7240276,2.160309,0.18107764,0.25672227,0.6617003,2.2468488,4.244243
220,1778413486.7342236,2.683297,0.16693048,0.1905904,1.1277767,1.9156934,4.2784505
221,1778413486.744469,3.6270106,0.14936846,-0.08640748,1.3941061,1.5601803,4.2436323
222,1778413486.754772,4.451906,0.15156372,-0.33873928,1.4765705,1.1050991,4.0432744
223,1778413486.7649398,5.300218,0.090554066,-0.639641,1.3476818,0.1906607,3.6511104
224,1778413486.7751338,5.6760325,-0.06393666,-0.78535074,1.0709679,-0.53197163,3.3151445
225,1778413486.7853582,5.979892,-0.4004807,-0.94691503,0.13148487,-1.9021784,2.4886682
226,1778413486.7955859,6.037243,-0.7206823,-1.1221386,-1.0621871,-2.7824092,1.5674341
227,1778413486.805755,5.8973866,-0.9085896,-1.102107,-2.486072,-3.1415875,0.32558158
228,1778413486.8161008,5.57746,-1.1523843,-0.78657025,-3.7304442,-2.8624303,-1.1234244
229,1778413486.8262558,5.110573,-1.333462,-0.2933403,-4.3932133,-2.2692976,-2.6652029
230,1778413486.8368797,4.440442,-1.4396266,0.26821688,-4.5166044,-1.6150801,-4.166131
231,1778413486.8471038,3.5970085,-1.5152714,0.78876555,-4.5166044,-1.6150801,-4.166131
232,1778413486.8575332,3.5970085,-1.5152714,0.78876555,-4.5166044,-1.6150801,-4.166131
233,1778413486.8683336,3.5970085,-1.5152714,0.78876555,-4.5166044,-1.6150801,-4.166131
234,1778413486.8786263,0.3565452,-1.7881225,1.418406,-1.3724974,-2.5502872,-6.7726927
235,1778413486.888892,-0.06027791,-1.8623344,1.2475728,-1.3724974,-2.5502872,-6.7726927
236,1778413486.899073,-0.06027791,-1.8623344,1.2475728,-1.0792907,-2.8783123,-6.520413
237,1778413486.9093254,-0.3126097,-1.8286433,1.0821058,-1.190465,-3.2833803,-5.9003263
238,1778413486.9195437,-0.42170146,-1.7795856,0.9947227,-1.2356677,-3.4629695,-5.694471
239,1778413486.9297576,-0.42511624,-1.8501079,1.0203644,-1.1922975,-3.6559973,-5.637662
240,1778413486.9399292,-0.531281,-1.9745969,1.0471952,-1.1330453,-3.7867186,-5.586351
241,1778413486.9502907,-0.7104073,-2.0058184,0.993747,-1.1275477,-3.784886,-5.532596
242,1778413486.960494,-0.7104073,-2.0058184,0.993747,-1.1275477,-3.784886,-5.532596
243,1778413486.97093,-1.192661,-1.7717803,0.7973026,-1.3126343,-3.0542364,-5.717072
244,1778413486.9812965,-1.4589267,-1.54384,0.7741305,-1.3425659,-2.1911092,-5.588794
245,1778413486.9917548,-1.4933189,-1.3456882,0.76214814,-1.2026819,-1.4941324,-5.2986417
246,1778413487.0022612,-1.3878858,-1.2402554,0.7504401,-0.9235247,-0.9510892,-4.970617
247,1778413487.012678,-1.2753793,-1.189734,0.70991945,-0.68895936,-0.6884249,-4.757431
248,1778413487.0231147,-1.09918,-1.0523175,0.5666794,-0.34138727,-0.6181774,-4.337779
249,1778413487.033512,-0.984966,-1.0301211,0.44490403,-0.19478393,-0.7989882,-4.001813
250,1778413487.04369,-0.8712399,-1.0503662,0.32995826,-0.12392564,-1.0433271,-3.726321
251,1778413487.0538595,-0.75702584,-1.0428047,0.1993714,-0.14225106,-1.2296355,-3.5729983
252,1778413487.0640576,-0.68674743,-1.0513418,0.084669575,-0.24181916,-1.180157,-3.513059
253,1778413487.0742707,-0.62646943,-1.0679587,0.00024391667,-0.3872008,-0.96819293,-3.5142806
254,1778413487.0845397,-0.6028096,-1.0808862,-0.044911157,-0.53136075,-0.7379035,-3.5429904
255,1778413487.094701,-0.59863245,-1.1025949,-0.074912906,-0.68834853,-0.6542174,-3.5655918
256,1778413487.1048965,-0.64012885,-1.1660436,-0.08738314,-1.0090433,-0.64444387,-3.5484881
257,1778413487.1150942,-0.6635753,-1.2397674,-0.10543298,-1.3572263,-0.57663983,-3.560705
258,1778413487.1253135,-0.64525104,-1.3037041,-0.009024917,-1.6846404,-0.52036554,-3.6169794
259,1778413487.1355524,-0.5815583,-1.3834953,0.02268425,-1.85018,-0.5454103,-3.8203914
260,1778413487.1456947,-0.6072001,-1.403527,-0.050277323,-1.8758355,-0.43729028,-4.2217183
261,1778413487.155824,-0.8104741,-1.4323092,-0.1188484,-1.8617861,-0.10193513,-4.6664147
262,1778413487.1660182,-1.0240232,-1.3681285,-0.20525588,-1.8770573,0.27251422,-4.8008013
263,1778413487.1762445,-1.0530493,-1.247085,-0.3079753,-1.9265358,0.3946837,-4.4953775
264,1778413487.1864924,-0.9342008,-1.2795259,-0.28626668,-2.1708748,0.3482593,-4.289522
265,1778413487.196621,-0.73360986,-1.184124,0.05344824,-3.1849575,-0.0060321167,-4.5723443
266,1778413487.2069561,-0.7411713,-0.98838085,0.4490506,-4.072519,0.0092390645,-5.3200216
267,1778413487.2171152,-1.2600125,-1.0777153,0.924932,-4.4164257,-0.0060321167,-6.2577486
268,1778413487.227568,-1.9613949,-0.72946334,1.2151014,-4.2252307,0.23219831,-7.175241
269,1778413487.237749,-3.0088644,-0.4241406,1.5765554,-3.643093,1.1362523,-8.194745
270,1778413487.248257,-4.4985247,-0.64671457,2.249369,-2.8825881,1.9517334,-8.491617
271,1778413487.2585058,-4.4985247,-0.64671457,2.249369,-2.8825881,1.9517334,-8.491617
272,1778413487.2691338,-4.4985247,-0.64671457,2.249369,-2.8825881,1.9517334,-8.491617
273,1778413487.279798,-4.4985247,-0.64671457,2.249369,-2.8825881,1.9517334,-8.491617
274,1778413487.2901468,-7.8268285,0.041496325,0.22257397,2.0165596,1.1154834,-2.697578
275,1778413487.300548,-7.348721,0.1364104,0.17985806,1.738624,1.9260777,-1.745267
276,1778413487.3107753,-6.8908896,-0.0041465834,0.21428078,1.7056383,1.8955353,-0.7342384
277,1778413487.321218,-6.509953,-0.13153206,0.06466841,1.518719,1.3408861,-0.0061084726
278,1778413487.331654,-6.509953,-0.13153206,0.06466841,1.518719,1.3408861,-0.0061084726
279,1778413487.3422804,-6.509953,-0.13153206,0.06466841,1.518719,1.3408861,-0.0061084726
280,1778413487.352901,-6.509953,-0.13153206,0.06466841,1.518719,1.3408861,-0.0061084726
281,1778413487.3631148,-5.5323043,-0.3006578,0.12689765,0.7276718,1.4997064,2.5076044
282,1778413487.3735313,-4.804061,-0.5447269,-0.005366167,0.8877138,1.0311866,3.3139226
283,1778413487.3837008,-4.804061,-0.5447269,-0.005366167,0.8877138,1.0311866,3.3139226
284,1778413487.39388,-3.7297604,-1.0079247,-0.38950443,0.37460208,0.51563144,5.3756084
285,1778413487.4041095,-3.3507748,-1.0471952,-0.50127923,-0.065284304,0.32810134,5.9852343
286,1778413487.4143267,-2.8436415,-1.0464635,-0.45685592,-0.8630508,0.029397024,6.7243595
287,1778413487.4248497,-2.8436415,-1.0464635,-0.45685592,-0.8630508,0.029397024,6.7243595
288,1778413487.4355154,-2.8436415,-1.0464635,-0.45685592,-0.8630508,0.029397024,6.7243595
289,1778413487.4458716,-2.8436415,-1.0464635,-0.45685592,-0.8630508,0.029397024,6.7243595
290,1778413487.4561028,-2.8436415,-1.0464635,-0.45685592,-0.8630508,0.029397024,6.7243595
291,1778413487.4665954,-1.5531089,-1.1670192,1.2487923,-0.17340426,-0.22899136,8.036535
292,1778413487.4771297,-1.3251688,-1.3566645,1.1297001,0.75332737,-0.27052897,7.9571257
293,1778413487.487346,-1.2670861,-1.432553,0.8998086,1.3482926,-0.190508,7.8453403
294,1778413487.4977636,-1.1980273,-1.5279855,0.7123586,1.5883555,-0.0432938,7.721949
295,1778413487.5079732,-1.1450667,-1.6326866,0.63476264,1.6286715,0.16867019,7.5765676
296,1778413487.5181918,-1.1450667,-1.6326866,0.63476264,1.6286715,0.16867019,7.5765676
297,1778413487.5288188,-1.0557323,-1.8262042,0.6706489,1.5572023,0.59870666,7.355441
298,1778413487.539027,-1.012803,-1.9433452,0.70040673,1.5272709,1.8045192,6.5123954
299,1778413487.5495398,-1.012803,-1.9433452,0.70040673,1.5272709,1.8045192,6.5123954
300,1778413487.5596688,-1.0918624,-1.8552301,0.9244442,1.4942851,3.17045,5.7109637
301,1778413487.5699084,-1.1699463,-1.8149838,1.0279258,1.5859122,3.6017082,5.5790205
302,1778413487.5801415,-1.2300107,-1.8447418,1.1418959,1.8174233,3.4966424,5.681032
303,1778413487.590349,-1.2634274,-1.8186426,1.0660073,2.0409935,2.8485334,6.0292153
304,1778413487.6007426,-1.216077,-1.7971475,0.9110288,1.9695243,2.4368224,6.2931013
305,1778413487.6110697,-1.1423838,-1.8147401,0.7912047,1.7160226,2.2401297,6.4476457
306,1778413487.6213012,-1.0576837,-1.817911,0.71751136,1.4325895,2.2193608,6.5801992
307,1778413487.6317608,-0.91468745,-1.7586086,0.7182431,1.2902621,2.2156956,6.669383
308,1778413487.642106,-0.76507515,-1.7893422,0.70650464,1.3372973,2.263342,6.7127533
309,1778413487.6523466,-0.50152314,-1.8650173,0.63183564,1.4466391,2.3910089,6.5429378
310,1778413487.6625805,-0.32239684,-1.8074225,0.57180166,1.4496932,2.4520936,6.3248653
311,1778413487.6728258,-0.07979124,-1.6458583,0.47100312,1.4496932,2.4520936,6.3248653
312,1778413487.6833682,0.19546872,-1.4269431,0.4375865,1.2719367,2.0030446,5.9003263
313,1778413487.6938906,0.6723563,-1.1397007,0.17961414,1.2749909,1.8723232,6.01822
314,1778413487.7042532,1.1731477,-0.94054264,0.12153149,1.302479,1.7819178,5.913765
315,1778413487.7148774,1.7207712,-0.9066383,0.0026830835,1.2206255,1.7800853,5.561306
316,1778413487.7252452,2.415324,-0.6767468,-0.036861908,1.0007205,1.8857619,5.126383
317,1778413487.7357082,3.5225835,-0.3153233,-0.031739656,0.8571714,1.7849721,4.360304
318,1778413487.7463439,4.268145,-0.2701682,-0.18546814,1.1570975,1.4520603,3.7176929
319,1778413487.7565596,4.6893587,-0.54298896,-0.15595421,1.6677657,0.75386184,3.3023167
320,1778413487.7667918,4.8784857,-1.0657634,-0.50225496,1.8791189,-0.44950724,2.9431384
321,1778413487.7770014,4.7955236,-1.4962459,-0.92785907,1.4417522,-1.1630532,2.3017488
322,1778413487.7872198,4.8594604,-1.4957579,-1.3849589,0.56457555,-1.0286667,1.4550382
323,1778413487.7974937,5.1296287,-1.1301879,-1.7266251,-0.5484645,-0.09582666,0.22418094
324,1778413487.8077235,5.2621365,-0.9517934,-1.6514683,-1.314467,0.593209,-0.87045735
325,1778413487.817916,5.1803937,-0.87806946,-1.2868433,-2.062144,0.81738997,-1.8552195
326,1778413487.8280454,4.623715,-0.96447706,-0.09640807,-2.7482018,0.41911757,-2.6401582
327,1778413487.8382158,4.623715,-0.96447706,-0.09640807,-3.2631462,-0.36276692,-3.3982196
328,1778413487.848505,3.3153763,-1.0913746,0.7880338,-3.203283,-1.7042638,-4.85028
329,1778413487.8586447,2.5195372,-1.3542254,1.0003327,-2.3791738,-2.120251,-5.550922
330,1778413487.8688495,2.5195372,-1.3542254,1.0003327,-2.3791738,-2.120251,-5.550922
331,1778413487.8790143,1.4923432,-1.7712923,0.7999857,-1.2515497,-2.4165118,-6.623035
332,1778413487.8893805,1.4923432,-1.7712923,0.7999857,-1.2515497,-2.4165118,-6.623035
333,1778413487.8997667,0.30041385,-1.9665172,0.68650347,-1.5710227,-2.5777755,-7.4275208
334,1778413487.9100993,-0.1659548,-2.0643888,0.77092916,-1.842239,-2.639471,-7.542971
335,1778413487.920281,-0.6752833,-2.2032688,0.91907805,-1.9747928,-2.7072752,-7.4623394
336,1778413487.930529,-0.96691614,-2.2161963,0.984966,-1.9491372,-2.7084968,-7.2369366
337,1778413487.940696,-1.1016192,-2.2281482,1.0081686,-1.9491372,-2.7084968,-7.2369366
338,1778413487.9511135,-1.2204676,-2.2525399,1.0020707,-1.6217232,-2.603431,-6.5094175
339,1778413487.9615579,-1.2114426,-2.1681144,0.90273565,-1.4274737,-2.531351,-6.1605473
340,1778413487.9719667,-1.2114426,-2.1681144,0.90273565,-1.3572263,-2.5221884,-5.9882884
341,1778413487.9823391,-1.2082716,-2.2266848,0.68699133,-1.3798276,-2.5527308,-5.944918
342,1778413487.9926753,-1.2090034,-2.2191234,0.63086,-1.6192797,-2.4207876,-5.9760714
343,1778413488.0031614,-1.2475728,-2.1507962,0.64793414,-1.9863989,-2.251583,-6.0169983
344,1778413488.0133953,-1.3198026,-1.952614,0.7108951,-2.2906008,-2.0744374,-5.990121
345,1778413488.0236065,-1.4203572,-1.7193077,0.80193704,-2.4390368,-1.9150062,-5.8294683
346,1778413488.0341423,-1.4576765,-1.4437733,0.94225013,-2.373676,-1.7384713,-5.4281416
347,1778413488.0443416,-1.432553,-1.310046,1.0215839,-2.0755827,-1.6334056,-5.057968
348,1778413488.054531,-1.2971183,-1.1975393,1.0652755,-1.5490323,-1.5888137,-4.729332
349,1778413488.064703,-1.2097353,-1.1399446,1.0323163,-1.5490323,-1.5888137,-4.729332
350,1778413488.0750098,-1.0657634,-1.0437804,0.9198098,-0.37987065,-1.5814836,-4.15819
351,1778413488.0852337,-0.97520936,-1.0462196,0.8034005,0.05077668,-1.6364598,-3.9407284
352,1778413488.0954893,-0.9474029,-1.1399446,0.645495,0.33001024,-1.6266862,-3.8509338
353,1778413488.1056578,-0.94103056,-1.250012,0.32751912,0.2677038,-1.3695196,-4.0409074
354,1778413488.116286,-0.9205415,-1.2434262,0.15814948,0.2677038,-1.3695196,-4.0409074
355,1778413488.1269138,-0.9205415,-1.2434262,0.15814948,0.2677038,-1.3695196,-4.0409074
356,1778413488.1375449,-0.9205415,-1.2434262,0.15814948,0.2677038,-1.3695196,-4.0409074
357,1778413488.1476827,-0.9205415,-1.2434262,0.15814948,0.2677038,-1.3695196,-4.0409074
358,1778413488.1578941,-0.9205415,-1.2434262,0.15814948,0.2677038,-1.3695196,-4.0409074
359,1778413488.168115,-0.9205415,-1.2434262,0.15814948,0.2677038,-1.3695196,-4.0409074
360,1778413488.1787422,-0.9205415,-1.2434262,0.15814948,0.2677038,-1.3695196,-4.0409074
361,1778413488.1889637,-0.9205415,-1.2434262,0.15814948,0.2677038,-1.3695196,-4.0409074
362,1778413488.1995895,-0.9205415,-1.2434262,0.15814948,0.2677038,-1.3695196,-4.0409074
363,1778413488.2102184,-0.9205415,-1.2434262,0.15814948,0.2677038,-1.3695196,-4.0409074
364,1778413488.2205827,-1.0525614,-1.34642,0.7836433,-0.36215606,0.1582858,-5.5710797
365,1778413488.230813,-2.505634,-0.6147615,1.1272609,-2.2063038,-1.7256435,-6.1373353
366,1778413488.2412803,-2.505634,-0.6147615,1.1272609,-2.2063038,-1.7256435,-6.1373353
367,1778413488.251522,-2.505634,-0.6147615,1.1272609,-2.2063038,-1.7256435,-6.1373353
368,1778413488.2621536,-2.505634,-0.6147615,1.1272609,-2.2063038,-1.7256435,-6.1373353
369,1778413488.2727783,-2.505634,-0.6147615,1.1272609,-2.2063038,-1.7256435,-6.1373353
370,1778413488.2829227,-7.4463496,-0.2306232,1.8327899,1.2737693,0.42400435,-3.938896
371,1778413488.293178,-7.4463496,-0.354106,1.5965567,1.9518096,0.65673715,-2.301138
372,1778413488.3033907,-7.1832848,-0.21476863,1.2414749,1.9731894,0.1130831,-0.86251634
373,1778413488.3135812,-6.980712,-0.22672056,0.95569605,1.4142641,-0.5447994,0.34818295
374,1778413488.3237534,-6.980712,-0.22672056,0.95569605,1.4142641,-0.5447994,0.34818295
375,1778413488.333922,-6.980712,-0.22672056,0.95569605,1.4142641,-0.5447994,0.34818295
376,1778413488.3442886,-6.026724,0.046374656,1.298094,0.7417213,-0.16363071,2.0396953
377,1778413488.3546786,-5.6916733,0.03320316,1.17827,1.5016153,0.4582118,2.5045502
378,1778413488.3648448,-5.442726,-0.021220751,0.97545326,1.9230999,1.1942828,2.8179147
379,1778413488.375078,-4.9617224,-0.23257454,0.57253337,2.0733683,2.0702376,3.0341547
380,1778413488.385484,-4.6991158,-0.24159946,0.32800692,1.982963,2.7312508,3.2357342
381,1778413488.3960047,-4.2007637,-0.3448372,0.13909347,1.52666,3.4887013,3.8777347
382,1778413488.4062338,-3.6424077,-0.502011,0.17083314,0.9463551,3.42273,4.76354
383,1778413488.4165637,-3.3356214,-0.60159,0.23159887,0.54136336,2.9725354,5.554587
384,1778413488.4267251,-2.928799,-0.74458617,0.37657684,0.2738123,2.3653533,6.3212004
385,1778413488.4370303,-2.7140303,-0.80462015,0.43953782,0.16569231,1.9596744,6.8746276
386,1778413488.447413,-2.3833709,-0.9705749,0.53347623,0.15958385,1.5284162,7.651091
387,1778413488.4576697,-2.1671386,-1.1309197,0.66869754,0.23288552,1.4380108,8.095788
388,1778413488.468078,-1.6932086,-1.6226556,0.9373718,0.38071054,1.5058148,8.373723
389,1778413488.4783027,-1.6932086,-1.6226556,0.9373718,0.65192676,1.6347036,8.481233
390,1778413488.4887648,-1.4862453,-1.8828232,0.9852099,1.0569185,1.7446561,8.435419
391,1778413488.498979,-1.2988259,-2.115398,0.9344448,1.2615523,1.8558303,8.211238
392,1778413488.5091865,-1.2197357,-2.200799,0.8848992,1.3208045,2.053134,7.889932
393,1778413488.519486,-1.1426277,-2.1788466,0.92737114,1.3201936,2.2468488,7.566183
394,1778413488.5297015,-1.1497012,-2.1786027,1.0062172,1.3073659,2.3244267,7.04933
395,1778413488.539896,-1.1768064,-2.1339355,1.0735687,1.2756017,2.490577,6.618683
396,1778413488.5500467,-1.2429384,-2.0949087,1.1282365,1.2988139,2.7636256,6.329752
397,1778413488.5602505,-1.2968744,-2.0988116,1.1887584,1.4533583,3.4471638,5.8594
398,1778413488.5704975,-1.2902887,-2.0543883,1.1836362,1.6482186,4.138032,5.5124383
399,1778413488.5806553,-1.2714766,-2.033899,1.1882706,1.7942111,4.7714806,5.26871
400,1778413488.5908072,-1.2185162,-2.0651205,1.1892462,1.8571284,5.2211404,5.078126
401,1778413488.6009734,-1.1729038,-2.0709746,1.1689707,1.8571284,5.2211404,5.078126
402,1778413488.611188,-1.1890023,-2.0334113,1.0682026,1.5431529,4.773924,5.1172204
403,1778413488.6214113,-1.228029,-1.9291979,0.97667277,1.1320527,4.38176,5.329795
404,1778413488.6315637,-1.2051008,-1.8418148,0.93932307,0.72156334,4.0402966,5.6737022
405,1778413488.6417243,-1.064056,-1.8505957,0.96716005,0.48577628,3.6505759,6.0512056
406,1778413488.651991,-0.86855674,-1.844254,0.97691673,0.38804072,3.218096,6.3474665
407,1778413488.6622207,-0.6040291,-1.8816036,1.0259744,0.3129065,2.7055953,6.536829
408,1778413488.6724997,-0.2887059,-1.8154716,0.97691673,0.2664821,2.4716408,6.449478
409,1778413488.682668,0.037837572,-1.7324791,0.8848992,0.32206923,2.4154427,6.141611
410,1778413488.693031,0.34166628,-1.5199362,0.70065063,0.44240612,2.4453743,5.80198
411,1778413488.7035255,0.79827833,-1.1936367,0.44539183,0.4912739,2.670166,5.42692
412,1778413488.7137222,1.3866663,-0.81852335,0.23476979,0.5041017,3.1081436,5.0158195
413,1778413488.7241075,1.967249,-0.73946387,0.1993714,0.42224815,3.662793,4.5644035
414,1778413488.7343009,2.8446171,-0.8212065,0.41218868,0.39353836,3.9950938,3.8557444
415,1778413488.7445104,3.527706,-0.9210293,0.54176944,0.5609105,3.9798226,3.1153975
416,1778413488.7546847,4.021149,-0.81657207,0.51006025,0.934749,3.5277956,2.3799372
417,1778413488.7649093,4.355742,-0.61256623,0.2552588,1.3537903,2.703152,2.02137
418,1778413488.7751496,4.5204773,-0.658697,-0.0014635,1.3317997,1.6951776,1.7880263
419,1778413488.7853858,4.7076526,-0.8605075,-0.5356715,0.50349087,0.8045622,1.46359
420,1778413488.795587,4.833331,-0.81096196,-0.7158039,-0.5930563,0.58404636,1.0824213
421,1778413488.8058612,4.9997735,-0.5803387,-0.5886319,-1.6547089,0.6872795,0.6566608
422,1778413488.8160276,5.283357,-0.48664424,-0.21159773,-2.3229759,0.6713975,0.11911522
423,1778413488.82623,5.3492756,-0.507865,0.14424622,-2.581975,0.49119756,-0.5094466
424,1778413488.8364818,5.164509,-0.41462782,0.8490435,-2.615648,0.035505496,-1.7397693
425,1778413488.846768,4.3476925,-0.7282437,1.4179181,-2.1110117,-0.6731537,-2.689637
426,1778413488.8569393,4.3476925,-0.7282437,1.4179181,-1.2002385,-1.4831371,-3.674399
427,1778413488.8675978,3.4627934,-0.8302618,1.0850328,-0.20394664,-2.131857,-4.760485
428,1778413488.8778026,2.910749,-0.9713067,0.83148146,0.020845164,-2.3120568,-5.2320595
429,1778413488.8880403,2.1244228,-1.2951671,0.52957356,-0.17096087,-2.426896,-5.935145
430,1778413488.8983421,1.0923502,-1.51332,0.562045,-0.9839986,-2.471488,-6.686563
431,1778413488.9085236,0.73629296,-1.5650609,0.8366037,-0.9839986,-2.471488,-6.686563
432,1778413488.9186726,0.73629296,-1.5650609,0.8366037,-1.2869788,-2.575332,-6.860044
433,1778413488.9288764,0.28138837,-1.7510473,1.298582,-1.3046933,-2.8612087,-7.0097013
434,1778413488.9392102,0.045155074,-1.8135204,1.4354801,-0.9058101,-3.4623587,-7.155083
435,1778413488.9494562,-0.121775396,-2.0087452,1.5731405,-0.5374692,-3.7311313,-7.054904
436,1778413488.9595742,-0.33215353,-2.4238608,1.5523772,-0.5374692,-3.7311313,-7.054904
437,1778413488.9697223,-0.51054806,-2.5197814,1.4454807,-0.16790664,-4.1672764,-7.359717
438,1778413488.9798906,-0.87928915,-2.4699917,1.2575734,-0.35299337,-3.8936167,-7.5765676
439,1778413488.9900882,-1.0616168,-2.4592595,1.1729038,-0.53136075,-3.4189885,-7.5735135
440,1778413489.0005348,-1.0616168,-2.4592595,1.1729038,-0.53136075,-3.4189885,-7.5735135
441,1778413489.0107858,-1.1601896,-2.418007,1.2053448,-0.58328277,-2.9265692,-7.194788
442,1778413489.0212278,-1.1155529,-2.322849,1.2370844,-0.57045496,-3.1647997,-6.9254045
443,1778413489.0314927,-1.1018631,-2.2522962,1.2592808,-0.6040516,-3.5106156,-6.651745
444,1778413489.041632,-1.1082048,-2.200799,1.2736719,-0.622377,-3.9498148,-6.395189
445,1778413489.051787,-1.1082048,-2.200799,1.2736719,-0.622377,-3.9498148,-6.395189
446,1778413489.061977,-1.1082048,-2.200799,1.2736719,-0.622377,-3.9498148,-6.395189
447,1778413489.0721421,-1.1082048,-2.200799,1.2736719,-0.622377,-3.9498148,-6.395189
448,1778413489.0823724,-1.7893422,-1.7959279,0.98960036,-0.6510868,-2.8667061,-6.1190095
449,1778413489.0927858,-1.8596512,-1.6519561,0.910297,-0.3872008,-1.9198929,-5.9522486
450,1778413489.1035094,-1.8596512,-1.6519561,0.910297,-0.3872008,-1.9198929,-5.9522486
451,1778413489.1137502,-1.6453705,-1.4049904,0.673088,0.33734038,-0.5803049,-5.2320595
452,1778413489.1243827,-1.6453705,-1.4049904,0.673088,0.33734038,-0.5803049,-5.2320595
453,1778413489.1345866,-1.6453705,-1.4049904,0.673088,0.33734038,-0.5803049,-5.2320595
454,1778413489.1450882,-1.6453705,-1.4049904,0.673088,0.33734038,-0.5803049,-5.2320595
455,1778413489.1555736,-1.6453705,-1.4049904,0.673088,0.33734038,-0.5803049,-5.2320595
456,1778413489.1662223,-1.6453705,-1.4049904,0.673088,0.33734038,-0.5803049,-5.2320595
457,1778413489.1765049,-1.3449565,-1.084545,0.10031073,-0.62543124,-2.0506144,-3.6572952
458,1778413489.1868954,-1.5108808,-0.8475799,0.08738314,-0.95467794,-1.6175236,-3.794736
459,1778413489.1971,-1.5943613,-0.5432329,0.12567806,-1.1043355,-1.0011786,-3.8552098
460,1778413489.2073295,-1.6429311,-0.50249887,0.22794013,-1.0200386,-0.4299601,-3.814283
461,1778413489.217552,-1.6429311,-0.50249887,0.22794013,-1.0200386,-0.4299601,-3.814283
462,1778413489.227707,-1.6429311,-0.50249887,0.22794013,-1.0200386,-0.4299601,-3.814283
463,1778413489.237889,-1.6429311,-0.50249887,0.22794013,-1.0200386,-0.4299601,-3.814283
464,1778413489.248099,-2.2535155,-0.7904729,0.7016263,-2.2527282,-2.3022833,-4.9168625
465,1778413489.2583373,-3.024475,-0.6794299,1.0662512,-3.159302,-1.8685818,-5.8319116
466,1778413489.2685697,-4.8050365,-0.3623992,2.0714624,-2.659018,0.28839627,-6.7140512
467,1778413489.278752,-4.8050365,-0.3623992,2.0714624,-1.2808703,1.349438,-6.298064
468,1778413489.2889655,-6.1756043,-0.5344519,2.5002677,1.1051754,1.7947456,-4.830733
469,1778413489.2994046,-6.1756043,-0.5344519,2.5002677,1.1051754,1.7947456,-4.830733
470,1778413489.3096929,-6.404764,-0.77632576,2.026307,2.7856925,1.305457,-3.2051919
471,1778413489.3199298,-6.1692624,-0.8295301,0.57204556,2.8907583,-0.4776062,-0.343907
472,1778413489.3301823,-5.921809,-0.7550745,0.1290929,1.6805935,-0.79532313,0.31580803
473,1778413489.3403714,-5.725334,-0.7353173,0.072229825,0.22799873,-0.43484688,0.47218493
474,1778413489.3505712,-5.5950217,-0.6796738,0.5944859,-0.86366165,0.3702498,0.43858832
475,1778413489.3607225,-5.5950217,-0.6796738,0.5944859,-0.86366165,0.3702498,0.43858832
476,1778413489.3709245,-5.476905,-0.30163345,1.1955881,-0.057954133,1.6133239,0.9193251
477,1778413489.381157,-5.350983,-0.15010023,1.0586898,0.9542961,2.1784341,1.5882028
478,1778413489.3915634,-5.0791073,-0.1232389,0.7277559,1.6457752,2.6640575,2.4703426
479,1778413489.4017382,-4.665211,-0.24037987,0.39121184,1.8314728,2.8693023,3.4910684
480,1778413489.4119675,-4.1632004,-0.4492945,0.17205273,1.6054593,2.7159796,4.5448565
481,1778413489.4221885,-3.570635,-0.69723576,0.038325407,0.8999307,2.2920516,5.6999683
482,1778413489.4323897,-3.1635687,-0.8605075,0.08418174,0.26526043,1.9670045,6.4519215
483,1778413489.4428396,-2.8192194,-1.0352434,0.20989029,-0.13858597,1.7348826,7.093922
484,1778413489.4530683,-2.511976,-1.2285168,0.3565452,-0.2760266,1.633482,7.5838976
485,1778413489.4632678,-2.271596,-1.415479,0.50127923,-0.30229303,1.6487532,7.987057
486,1778413489.473532,-2.0709746,-1.6024106,0.6755272,-0.31267744,1.7464887,8.125719
487,1778413489.483787,-1.8493762,-1.8271798,0.92712724,-0.21677442,1.9547876,8.244835
488,1778413489.494047,-1.7022336,-2.048778,1.0752761,0.042224817,2.0427496,8.275377
489,1778413489.5042725,-1.5711588,-2.188847,1.1511648,0.37399122,2.0726812,8.279042
490,1778413489.5145175,-1.469659,-2.2564428,1.1721416,0.6653654,2.0396953,8.271101
491,1778413489.5247424,-1.3625185,-2.377761,1.1543356,0.8816053,1.9401273,8.158094
492,1778413489.5349753,-1.3049237,-2.4312088,1.1082048,0.91336936,1.9755564,7.979727
493,1778413489.5451994,-1.2861116,-2.4109333,1.0430486,0.8797728,2.2657852,7.5845084
494,1778413489.55542,-1.2968744,-2.4199584,1.047927,0.8064711,2.6719987,7.257705
495,1778413489.5657961,-1.2746475,-2.4263003,1.0838132,0.73744535,3.20649,6.901505
496,1778413489.5763218,-1.2512316,-2.4075186,1.1514087,0.71423316,3.7043304,6.57348
497,1778413489.5865479,-1.2563537,-2.3530946,1.2339134,0.7038488,4.029301,6.3468556
498,1778413489.597202,-1.2226628,-2.3057442,1.2973622,0.71667653,4.2321024,6.241179
499,1778413489.6075904,-1.1855874,-2.25815,1.3241931,0.8486196,4.3005176,6.233849
500,1778413489.617927,-1.162141,-2.2474177,1.3102899,1.0001097,4.2962413,6.3187566
501,1778413489.6285048,-1.0982044,-2.3206537,1.3019967,1.1039537,4.254093,6.3841176
502,1778413489.6386476,-1.0054855,-2.2996464,1.2158331,1.1638167,4.0891643,6.5038433
503,1778413489.649051,-0.7104073,-2.2240016,0.9717945,1.0404255,3.8246675,6.60952
504,1778413489.659273,-0.559118,-2.2074153,0.9085896,0.88588125,3.562614,6.633954
505,1778413489.6697273,-0.3138293,-2.0534127,0.85538524,0.4772244,3.0635517,6.564928
506,1778413489.679893,-0.11348223,-1.8716031,0.859044,0.4772244,3.0635517,6.564928
507,1778413489.6901026,0.11567748,-1.6880863,0.89127153,0.015347538,2.370851,6.3602943
508,1778413489.7003064,0.4107252,-1.4293822,0.8605075,0.08567133,2.1307878,6.316924
509,1778413489.710525,0.7914486,-1.1309197,0.7838872,0.34344888,2.041528,6.2240753
510,1778413489.7206662,1.3781292,-0.88785666,0.6957723,0.5822902,2.427049,5.894829
511,1778413489.7311301,1.949199,-1.0557323,0.6816251,0.79608667,2.8393707,5.3120804
512,1778413489.741589,2.6871994,-0.9339569,0.5681429,1.0520316,3.3799706,4.5637927
513,1778413489.7517455,3.2970827,-0.6579652,0.44246486,1.3440167,3.7971792,3.9510365
514,1778413489.7621863,4.094873,-0.49664482,0.24891695,2.1014674,4.223551,3.0164402
515,1778413489.7724624,4.6537166,-0.46027076,0.07466899,2.698265,3.8594856,2.7000213
516,1778413489.782632,5.0805707,-0.6335431,-0.2025728,2.6713877,2.6481755,2.3982627
517,1778413489.7927842,5.2553067,-0.87953305,-0.639397,1.482679,1.0379058,1.8949245
518,1778413489.8031101,5.3619595,-0.8260848,-0.90493083,0.5144861,0.30977592,1.543611
519,1778413489.8134038,5.5044675,-0.7262924,-1.1013753,-1.090286,-0.31512082,0.8765658
520,1778413489.8238797,5.6072173,-0.68699133,-0.9239564,-2.2185209,-0.5539621,0.17348062
521,1778413489.8342528,5.541817,-0.7350734,-0.5081089,-3.2179434,-0.6456655,-1.1008232
522,1778413489.8445144,5.2350616,-0.7601968,0.0160985,-3.4812186,-0.67071027,-1.9902167
523,1778413489.8547704,4.722318,-0.82828003,0.507865,-3.379818,-0.6487198,-3.4904575
524,1778413489.86529,3.943797,-0.9356643,0.9329813,-2.9045787,-0.7446228,-4.65542
525,1778413489.8755398,3.2160413,-1.0940578,1.1147907,-2.2997637,-0.8649597,-5.7042446
526,1778413489.885892,2.490755,-1.3378525,1.1631166,-1.7671047,-1.0054545,-6.6731243
527,1778413489.896155,1.7964157,-1.4679515,1.1086928,-1.1953517,-1.0683719,-7.566794
528,1778413489.9063537,0.9595986,-1.6465899,1.0359751,-0.8508339,-1.1740484,-8.031038
529,1778413489.9165716,0.37755254,-1.6900376,0.98886865,-0.6052733,-1.2986612,-8.209405
530,1778413489.926733,0.036130156,-1.6983308,0.9698432,-0.49104485,-1.4153332,-8.134272
531,1778413489.9368825,-0.34849593,-1.6951598,0.9864295,-0.32855946,-1.7592402,-7.6767464
532,1778413489.9470284,-0.47710103,-1.6905254,1.0191449,-0.21433103,-2.2466962,-7.1483636
533,1778413489.9571846,-0.48197934,-1.7332109,1.0515857,-0.154468,-2.9442837,-6.6175375
534,1778413489.9674172,-0.47124702,-1.7930009,1.0315846,-0.17279342,-3.6663816,-6.1788726
535,1778413489.9776435,-0.5461904,-1.910386,1.0332919,-0.29496288,-4.288835,-5.9021587
536,1778413489.9880447,-0.8148646,-2.2269287,1.0625925,-0.6107709,-4.784843,-5.901548
537,1778413489.998214,-1.3634942,-2.111495,0.85489744,-0.9650623,-4.7164283,-6.1599364
538,1778413490.0088418,-1.5543284,-1.9108738,0.8221821,-1.318132,-4.080536,-6.3762527
539,1778413490.019059,-1.5543284,-1.9108738,0.8221821,-1.4879476,-3.1702974,-6.3499866
540,1778413490.0292628,-1.4403585,-1.5526211,0.89249104,-1.0976162,-1.6480659,-5.7531123
541,1778413490.0397208,-1.4403585,-1.5526211,0.89249104,-1.0976162,-1.6480659,-5.7531123
542,1778413490.050214,-1.4403585,-1.5526211,0.89249104,-1.0976162,-1.6480659,-5.7531123
543,1778413490.0604782,-1.4403585,-1.5526211,0.89249104,-1.0976162,-1.6480659,-5.7531123
544,1778413490.0706823,-1.4403585,-1.5526211,0.89249104,-1.0976162,-1.6480659,-5.7531123
545,1778413490.0808845,-0.97764856,-1.201686,0.7601968,0.0019088977,-2.3706982,-4.390923
546,1778413490.0911038,-0.97618496,-1.1738795,0.65820915,0.09300149,-2.363368,-4.1264257
547,1778413490.1014018,-0.8627028,-1.2182723,0.51591426,0.07773031,-2.0945952,-4.083667
548,1778413490.1116343,-0.7782771,-1.1824166,0.43905002,0.040392276,-1.6920469,-4.1844563
549,1778413490.1218247,-0.7782771,-1.1824166,0.43905002,0.040392276,-1.6920469,-4.1844563
550,1778413490.1325023,-0.7782771,-1.1824166,0.43905002,0.040392276,-1.6920469,-4.1844563
551,1778413490.143131,-0.7782771,-1.1824166,0.43905002,0.040392276,-1.6920469,-4.1844563
552,1778413490.1535754,-0.54692215,-1.3652016,0.47807667,-0.08238802,-0.7550072,-5.078737
553,1778413490.1638155,-0.5669233,-1.3910568,0.45588025,-0.18501036,-0.6377245,-5.4098163
554,1778413490.1741755,-0.53933024,-1.3110216,0.37166804,-0.29740626,-0.54785365,-5.7152395
555,1778413490.1845806,-0.48344287,-1.0218279,0.27529046,-0.6132143,-0.62367505,-5.9693522
556,1778413490.1947463,-0.38779703,-0.96252567,0.26382637,-0.89603657,-0.6499415,-6.0719743
557,1778413490.2050757,-0.39096794,-1.6002153,0.5220122,-1.1629769,-0.46844348,-6.5252995
558,1778413490.2156086,-0.39096794,-1.6002153,0.5220122,-1.1629769,-0.46844348,-6.5252995
559,1778413490.2262437,-0.39096794,-1.6002153,0.5220122,-1.1629769,-0.46844348,-6.5252995
560,1778413490.2365005,-0.39096794,-1.6002153,0.5220122,-1.1629769,-0.46844348,-6.5252995
561,1778413490.2468343,-2.7892177,-1.1853435,0.9088335,-0.13858597,-0.5338041,-8.541096
562,1778413490.257043,-4.149053,-1.1687268,1.2102231,-0.43790114,-0.6927008,-7.96018
563,1778413490.2672546,-5.1130114,-1.4249917,1.5782628,-0.23265645,-1.2644538,-5.9082675
564,1778413490.2774675,-5.9527864,-1.3588598,1.7119901,-0.23265645,-1.2644538,-5.9082675
565,1778413490.2876728,-6.6956654,-1.2131501,1.6299732,0.53342235,-1.4568707,-3.7635827
566,1778413490.2979174,-6.650998,-1.1631166,1.50771,1.4558017,-1.7965018,-0.5247178
567,1778413490.3081534,-5.95986,-1.2294924,1.3183391,1.4558017,-1.7965018,-0.5247178
568,1778413490.3185387,-5.4180903,-1.1804652,1.1421399,1.2334533,-2.3786392,0.16309622
569,1778413490.328796,-5.0956936,-1.0889355,0.98033154,0.5676298,-2.5881598,0.087962
570,1778413490.339027,-5.0805707,-0.9198098,0.9715506,-0.17279342,-1.8911831,-0.6383354
571,1778413490.3494132,-5.42492,-0.7584894,1.2048569,-0.490434,-0.47821704,-1.5119233
572,1778413490.3597105,-6.1409373,-0.5735091,1.5657926,0.6036698,3.0592759,-2.2803693
573,1778413490.3700428,-6.41696,-0.35093513,1.258793,1.990904,4.481939,-1.3640983
574,1778413490.3802516,-6.113131,-0.23257454,0.75629413,2.7661455,4.7672048,0.0684149
575,1778413490.3904984,-5.57746,-0.30846313,0.29138896,2.8870933,4.2962413,1.7555751
576,1778413490.40065,-4.934617,-0.5005475,-0.052960407,2.1075757,3.1612873,3.801379
577,1778413490.4109151,-4.2620473,-0.62183505,-0.24403864,2.1075757,3.1612873,3.801379
578,1778413490.4211192,-3.6521642,-0.80876666,-0.19766398,0.5871769,1.9120283,5.7946496
579,1778413490.4313195,-2.956636,-1.0235354,-0.060765743,0.042224817,1.5638454,6.5637064
580,1778413490.4417317,-2.5222204,-1.15897,0.041496325,-0.10132429,1.4966521,6.8953967
581,1778413490.4519536,-2.1461618,-1.270501,0.12567806,-0.154468,1.5687321,7.0426106
582,1778413490.4622836,-1.8557181,-1.4093809,0.2374529,-0.18256697,1.7238873,7.009014
583,1778413490.4727445,-1.6746404,-1.5179849,0.3729181,-0.16668494,1.9266886,6.8953967
584,1778413490.4829373,-1.5179849,-1.6289974,0.5378668,-0.04146126,2.2370753,6.8672976
585,1778413490.4931989,-1.45353,-1.7642188,0.6440315,0.08750387,2.3971174,6.946097
586,1778413490.5034893,-1.3695922,-2.0446315,0.81266934,0.26587126,2.5596027,7.124541
587,1778413490.5136266,-1.3695922,-2.0446315,0.81266934,0.39903596,2.5718198,7.247321
588,1778413490.523784,-1.3173635,-2.1634798,0.86538583,0.39903596,2.5718198,7.247321
589,1778413490.5340087,-1.3280958,-2.5520086,1.0030463,0.5083776,2.3531363,7.3291745
590,1778413490.5445075,-1.3908129,-2.5036826,0.9949666,0.4185831,2.1111646,7.4012547
591,1778413490.5546713,-1.438651,-2.4214218,1.0003327,0.22189027,1.9309646,7.6523128
592,1778413490.5648527,-1.4257234,-2.4253244,1.0703977,0.1241547,1.9126391,7.8526707
593,1778413490.5753005,-1.3698361,-2.5017312,1.1436033,0.15530792,2.02137,7.9711747
594,1778413490.5855641,-1.3102899,-2.5446606,1.1543356,0.27869907,2.2590659,7.979727
595,1778413490.5961082,-1.2246141,-2.5959136,1.1601896,0.41186377,2.6090813,7.842897
596,1778413490.6063213,-1.1787578,-2.6425323,1.150433,0.4845546,3.2321455,7.4947143
597,1778413490.616625,-1.0711296,-2.5993285,1.1758308,0.51387525,3.598043,7.274198
598,1778413490.627129,-0.9813073,-2.52344,1.2024177,0.5957288,3.9462261,7.029172
599,1778413490.6374977,-0.9149315,-2.4477954,1.2400113,0.6500942,3.9700491,6.9803042
600,1778413490.6476567,-0.7514158,-2.3730958,1.2426945,0.71667653,3.686005,6.9638114
601,1778413490.6582959,-0.6111027,-2.2776937,1.1438472,0.7661552,3.4325035,6.9241066
602,1778413490.6685357,-0.39877325,-2.03707,0.9066383,0.7582142,2.9157267,6.8514156
603,1778413490.6789527,-0.39877325,-2.03707,0.9066383,0.7582142,2.9157267,6.8514156
604,1778413490.689293,-0.017805915,-1.8532789,0.68504,0.6024481,2.7355268,6.585697
605,1778413490.6999636,-0.017805915,-1.8532789,0.68504,0.6024481,2.7355268,6.585697
606,1778413490.710219,0.4917665,-1.5521333,0.6381775,0.2145601,2.6848264,6.0988517
607,1778413490.720481,1.0089004,-1.1284804,0.6040291,0.100331664,2.6322935,5.932701
608,1778413490.7306256,1.0089004,-1.1284804,0.6040291,0.100331664,2.6322935,5.932701
609,1778413490.7410662,2.369925,-0.45831943,0.5115238,1.0330955,2.8326514,5.2088475
610,1778413490.7512736,3.1008515,-0.4180427,0.3316657,1.7569494,3.102035,4.7238345
611,1778413490.7615025,3.6575303,-0.5112798,-0.0034148335,2.462478,3.254747,4.17705
612,1778413490.7716317,3.6575303,-0.5112798,-0.0034148335,2.462478,3.254747,4.17705
613,1778413490.7824824,3.6575303,-0.5112798,-0.0034148335,2.462478,3.254747,4.17705
614,1778413490.7927728,4.9129086,-0.6352505,-0.930786,1.9683026,2.1643846,2.7323961
615,1778413490.802941,5.2130785,-0.44368443,-1.0977166,1.2303991,1.5064257,2.3585577
616,1778413490.8131635,5.848329,-0.28821802,-1.2607442,0.35749835,0.19615832,2.0665727
617,1778413490.8233914,6.148499,-0.40901777,-1.3288276,-0.614436,-0.94436985,1.5680449
618,1778413490.8335638,6.158286,-0.7133343,-1.1992468,-1.8410172,-1.6046958,0.5864134
619,1778413490.8436985,5.8580856,-0.8495313,-0.9359082,-3.0462952,-1.783674,-0.9835404
620,1778413490.8538976,5.1821012,-1.0621046,-0.27992487,-3.9717288,-1.2418525,-3.0836334
621,1778413490.864119,4.18808,-1.1175042,0.24184339,-4.122608,-0.6646018,-4.6377053
622,1778413490.8743432,3.2838807,-1.178026,0.7741305,-3.8538353,-0.25342527,-5.893607
623,1778413490.8847654,2.4343798,-1.175099,1.1758308,-3.3535514,-0.1660741,-6.775136
624,1778413490.8954782,1.6782991,-1.235133,1.399106,-2.6333625,-0.34505233,-7.323066
625,1778413490.9056473,0.9810633,-1.3444687,1.4464563,-1.8068098,-0.72141063,-7.6217704
626,1778413490.9164848,0.31507936,-1.3556888,1.304192,-1.0713497,-1.0421054,-7.651702
627,1778413490.9268465,-0.24598998,-1.2602564,1.0340238,-0.5380801,-1.2772816,-7.2931347
628,1778413490.937061,-0.4378304,-1.2900448,0.895662,-0.40735877,-1.4782504,-6.8056784
629,1778413490.9472811,-0.43539125,-1.3939837,0.8334328,-0.4244625,-1.827655,-6.330439
630,1778413490.957687,-0.3934071,-1.5167654,0.82267,-0.5026509,-2.3328257,-5.993175
631,1778413490.9679303,-0.4236528,-1.6294852,0.8597758,-0.62604207,-2.963831,-5.681032
632,1778413490.9782536,-0.47368616,-1.8286433,0.8807526,-0.62970716,-3.214889,-5.487394
633,1778413490.9884925,-0.5110359,-1.9782556,0.8602636,-0.28152424,-2.9259584,-5.3395686
634,1778413490.998638,-0.57668,-2.045851,0.7614164,-0.28152424,-2.9259584,-5.3395686
635,1778413491.0088458,-0.4192623,-2.037314,0.47807667,-0.026190076,-2.3199978,-5.301085
636,1778413491.0190618,-0.4192623,-2.037314,0.47807667,-0.026190076,-2.3199978,-5.301085
637,1778413491.0294116,-0.4099934,-1.8647735,0.6289087,-0.250371,-2.371309,-5.4000425
638,1778413491.0397663,-0.4099934,-1.8647735,0.6289087,-0.9998806,-2.8422723,-5.4770093
639,1778413491.0501122,-0.34117845,-1.6748843,1.0315846,-1.6766994,-3.075005,-5.341401
640,1778413491.0602643,-0.20062146,-1.6748843,1.1177481,-1.4903909,-3.8520792,-4.6034975
641,1778413491.0706036,-0.20062146,-1.6748843,1.1177481,-1.334014,-4.2582927,-4.514925
642,1778413491.0807965,-0.10031073,-1.8906286,0.81266934,-1.7567203,-4.3859596,-5.1166096
643,1778413491.0913138,-0.10031073,-1.8906286,0.81266934,-1.7567203,-4.3859596,-5.1166096
644,1778413491.1019773,-0.10031073,-1.8906286,0.81266934,-1.7567203,-4.3859596,-5.1166096
645,1778413491.1126044,-0.10031073,-1.8906286,0.81266934,-1.7567203,-4.3859596,-5.1166096
646,1778413491.123232,-0.10031073,-1.8906286,0.81266934,-1.7567203,-4.3859596,-5.1166096
647,1778413491.1338565,-0.10031073,-1.8906286,0.81266934,-1.7567203,-4.3859596,-5.1166096
648,1778413491.1445324,-0.10031073,-1.8906286,0.81266934,-1.7567203,-4.3859596,-5.1166096
649,1778413491.1551616,-0.10031073,-1.8906286,0.81266934,-1.7567203,-4.3859596,-5.1166096
650,1778413491.1657913,-0.10031073,-1.8906286,0.81266934,-1.7567203,-4.3859596,-5.1166096
651,1778413491.1764693,-0.10031073,-1.8906286,0.81266934,-1.7567203,-4.3859596,-5.1166096
652,1778413491.1870968,-0.10031073,-1.8906286,0.81266934,-1.7567203,-4.3859596,-5.1166096
653,1778413491.1972575,-1.6624446,-1.2824528,-0.06710757,0.26587126,-3.1928985,-3.209468
654,1778413491.2074828,-1.75495,-0.6813812,-0.3621553,0.26587126,-3.1928985,-3.209468
655,1778413491.2179565,-1.75495,-0.6813812,-0.3621553,-0.702398,-3.1293705,-2.7183466
656,1778413491.2285795,-1.75495,-0.6813812,-0.3621553,-0.702398,-3.1293705,-2.7183466
657,1778413491.2387707,-1.75495,-0.6813812,-0.3621553,-0.702398,-3.1293705,-2.7183466
658,1778413491.2493944,-1.75495,-0.6813812,-0.3621553,-0.702398,-3.1293705,-2.7183466
659,1778413491.259588,-3.4027288,-0.44075742,2.402884,-3.4219663,-3.147696,-4.78553
660,1778413491.2698855,-4.335253,-0.29480377,2.8575447,-2.5948029,-1.6871601,-5.3878255
661,1778413491.2800496,-5.0639844,-0.17668714,3.1586902,-2.5948029,-1.6871601,-5.3878255
662,1778413491.2902997,-5.3985467,-0.075888574,3.1740572,-1.1617551,-0.051234815,-5.4037075
663,1778413491.3007452,-5.574014,-0.0014635,2.6039934,2.868157,1.0574529,-3.3157554
664,1778413491.311064,-5.556208,-0.23623328,2.100031,3.2383304,0.64940697,-2.4300268
665,1778413491.3215275,-5.2313724,-0.46417344,1.3693483,2.450261,-0.028633466,-1.4520603
666,1778413491.3319771,-5.000749,-0.5776557,1.235377,1.4997827,-0.32733777,-1.233377
667,1778413491.342179,-4.95221,-0.5666794,1.1863192,1.0685246,-0.11354123,-1.2846881
668,1778413491.3523846,-4.9568443,-0.48100364,1.1379932,1.1442696,0.9145147,-1.3543247
669,1778413491.3627825,-4.917543,-0.31922594,1.0733248,1.3647854,1.7098378,-1.3433294
670,1778413491.3731256,-4.9129086,-0.19449306,0.91395575,1.514443,2.1320097,-1.0708916
671,1778413491.3833568,-4.861168,-0.094212815,0.75287926,1.5578132,2.1478918,-0.4422534
672,1778413491.393535,-4.7393923,-0.14055698,0.5876562,1.5498722,1.8326181,0.46974155
673,1778413491.4037797,-4.537795,-0.1527833,0.35800868,1.4612993,1.525362,1.4764178
674,1778413491.4139743,-4.1207285,-0.22233005,0.11177482,1.242616,1.4435084,2.6835284
675,1778413491.4243393,-3.7810135,-0.30578002,0.011220166,1.0874609,1.5339139,3.3023167
676,1778413491.434968,-3.2321703,-0.39291927,-0.10250599,0.7435538,1.7562622,4.247908
677,1778413491.445188,-2.8101945,-0.45978296,-0.083937824,0.37460208,1.8228446,4.8692164
678,1778413491.455813,-2.4504783,-0.6420802,0.091529734,-0.032909397,1.869269,5.3493423
679,1778413491.4660199,-2.1419847,-0.8007175,0.39145577,-0.2851893,1.7977998,5.706077
680,1778413491.476408,-1.8716031,-1.0386581,0.73360986,-0.18745375,1.5296379,6.0267715
681,1778413491.4866433,-1.7673898,-1.2092475,0.85440964,0.47783527,1.569343,6.319978
682,1778413491.4968293,-1.7102827,-1.3459321,0.87880135,0.47783527,1.569343,6.319978
683,1778413491.5070908,-1.6578102,-1.5091734,0.89419854,0.8455653,1.8350616,6.457419
684,1778413491.517528,-1.6072888,-1.6539074,0.88002086,1.0630269,2.0427496,6.5197253
685,1778413491.5277085,-1.5562799,-1.9880123,0.8041323,1.2041327,2.5015721,6.6119633
686,1778413491.5379543,-1.5562799,-1.9880123,0.8041323,1.0367606,2.8937361,6.637008
687,1778413491.5482068,-1.6070449,-2.0656083,0.8383111,0.8333484,3.133799,6.6754913
688,1778413491.5588355,-1.655127,-2.1910424,1.001095,0.4613424,3.4196756,6.813543
689,1778413491.569247,-1.6356138,-2.3330934,1.2880934,0.20173231,3.614536,7.2216654
690,1778413491.5793731,-1.6402482,-2.4902673,1.4284065,0.22127941,3.605984,7.4018655
691,1778413491.5895245,-1.6192409,-2.5451484,1.4830743,0.22127941,3.605984,7.4018655
692,1778413491.5996482,-1.580702,-2.550301,1.496002,0.3917058,3.7965684,7.839232
693,1778413491.6097841,-1.580702,-2.550301,1.496002,0.3917058,3.7965684,7.839232
694,1778413491.6199481,-1.3652016,-2.7928765,1.5147835,0.7398887,4.0842776,8.121444
695,1778413491.630278,-1.2309865,-2.7011027,1.4174303,0.8816053,4.1447515,8.204518
696,1778413491.6406808,-1.0811301,-2.6057007,1.3759339,0.9384141,4.0635085,8.381664
697,1778413491.651118,-0.885387,-2.5427094,1.3202904,0.94146836,3.6762316,8.597294
698,1778413491.6613398,-0.885387,-2.5427094,1.3202904,0.94146836,3.6762316,8.597294
699,1778413491.6717842,-0.40852994,-2.3313859,1.2932156,0.9396358,2.0983367,8.810479
700,1778413491.682227,-0.13860564,-2.208879,1.2138819,1.1118947,1.2553675,8.787878
701,1778413491.692482,0.05588741,-2.162992,1.0860085,1.4112098,0.6078694,8.599737
702,1778413491.7027774,0.2333063,-2.069999,0.82730436,1.7532843,0.24685864,8.290037
703,1778413491.713112,0.42536017,-1.8872137,0.5539957,2.0135052,0.1906607,7.935135
704,1778413491.7235634,0.68650347,-1.7822686,0.29529163,2.0703142,0.45271417,7.371934
705,1778413491.7338123,1.081374,-1.6529318,0.06735149,1.9481447,0.8509866,6.7958283
706,1778413491.7444787,1.7744633,-1.5089295,-0.057594825,1.6799827,1.2681953,6.006003
707,1778413491.7546964,2.4856024,-1.2300107,-0.110067405,1.3873868,1.869269,4.9681735
708,1778413491.7652273,3.130884,-1.0091443,-0.15619814,1.2890404,2.6683335,3.6181247
709,1778413491.775476,3.5257547,-0.73360986,-0.22037871,1.5895773,3.582161,2.381159
710,1778413491.7856994,3.8556824,-0.5373789,-0.39535844,2.2486815,4.101992,1.7470231
711,1778413491.796323,4.2671695,-0.753611,-0.77364266,2.907862,3.8594856,1.5497195
712,1778413491.8067381,4.517062,-0.9591108,-1.1436033,2.670166,3.0189598,1.5601039
713,1778413491.8173325,4.7955236,-0.9181023,-1.4867331,1.6372234,1.969448,1.6468443
714,1778413491.8279579,5.183077,-0.8024249,-1.6541514,0.20845163,1.1625187,1.532005
715,1778413491.8381882,5.4771485,-0.8016931,-1.5972884,-1.0157627,0.5528931,1.071426
716,1778413491.8484993,5.5357194,-0.8558731,-1.4130397,-1.8153617,0.0086282175,0.19791451
717,1778413491.8591244,5.394888,-0.885387,-1.1482377,-2.3584049,-0.11476293,-0.6725428
718,1778413491.8693311,4.7891817,-1.1540917,-0.3228847,-3.5838408,-0.007253811,-2.8973248
719,1778413491.8797383,4.7891817,-1.1540917,-0.3228847,-3.5838408,-0.007253811,-2.8973248
720,1778413491.8899527,3.5899353,-1.463561,0.73653686,-3.8575006,-0.14897038,-5.2827597
721,1778413491.9003103,3.0505743,-1.5623777,1.0074369,-3.563072,-0.21433103,-6.037767
722,1778413491.9105623,2.157138,-1.6973552,1.2726963,-2.5917485,-0.27297238,-7.0695643
723,1778413491.9207833,1.4315774,-1.7864152,1.3290715,-1.7561095,-0.402472,-7.7408857
724,1778413491.931251,1.4315774,-1.7864152,1.3290715,-1.7561095,-0.402472,-7.7408857
725,1778413491.9418828,1.4315774,-1.7864152,1.3290715,-1.7561095,-0.402472,-7.7408857
726,1778413491.9524026,1.4315774,-1.7864152,1.3290715,-1.7561095,-0.402472,-7.7408857
727,1778413491.9626336,-0.6428119,-1.8369365,0.98033154,-0.5112028,-1.351805,-7.735388
728,1778413491.9729307,-0.714066,-1.7886103,1.0076808,-0.70728475,-1.875912,-7.032303
729,1778413491.9834692,-0.639641,-1.8757497,1.1216508,-0.81051797,-2.3609247,-6.577832
730,1778413491.9939637,-0.5835096,-1.9909394,1.2204676,-0.81418306,-2.7604187,-6.338991
731,1778413492.0041857,-0.6093953,-2.0551198,1.2409871,-0.702398,-3.3847811,-6.2815714
732,1778413492.014665,-0.6093953,-2.0551198,1.2409871,-0.702398,-3.3847811,-6.2815714
733,1778413492.0251408,-0.6093953,-2.0551198,1.2409871,-0.702398,-3.3847811,-6.2815714
734,1778413492.0356188,-0.6093953,-2.0551198,1.2409871,-0.702398,-3.3847811,-6.2815714
735,1778413492.0458527,-1.4086492,-1.8105935,0.6782103,-0.9754467,-2.2894554,-6.586995
736,1778413492.0562212,-1.4496273,-1.6739087,0.673332,-1.04264,-1.7726787,-6.46788
737,1778413492.0664113,-1.3566645,-1.5209119,0.7189749,-0.96628404,-1.0934166,-6.1782618
738,1778413492.0765772,-1.2141258,-1.4162107,0.7665386,-0.7604285,-0.775776,-5.9320903
739,1778413492.0868168,-1.0928382,-1.333462,0.8104741,-0.5069269,-0.70125264,-5.7158504
740,1778413492.0973387,-0.95569605,-1.2932156,0.8695324,-0.24792764,-0.86251634,-5.509384
741,1778413492.1080005,-0.95569605,-1.2932156,0.8695324,-0.24792764,-0.86251634,-5.509384
742,1778413492.1183522,-0.95569605,-1.2932156,0.8695324,-0.24792764,-0.86251634,-5.509384
743,1778413492.128762,-0.89053977,-1.276111,0.7572698,0.29824618,-1.6932687,-4.997494
744,1778413492.1389937,-0.9847221,-1.4064541,0.20306063,0.12110047,-2.0243478,-4.591892
745,1778413492.1493127,-0.9847221,-1.4064541,0.20306063,0.12110047,-2.0243478,-4.591892
746,1778413492.1595316,-0.9681357,-1.4235282,0.041496325,-0.66452545,-1.1068553,-4.8252354
747,1778413492.169784,-0.9681357,-1.4235282,0.041496325,-1.114109,-0.5032618,-5.0836234
748,1778413492.180128,-0.9381035,-1.3744705,0.46002686,-1.3272947,-0.29496288,-5.280927
749,1778413492.1903243,-0.96374524,-1.276355,0.63476264,-1.3193537,-0.3481066,-5.4189787
750,1778413492.2007294,-1.0974725,-1.1640923,0.6950405,-1.1440406,-0.54052347,-5.5203795
751,1778413492.2109346,-1.3168756,-1.0259744,0.63476264,-0.9956047,-0.7458445,-5.5472565
752,1778413492.221174,-1.5304247,-0.9549642,0.5808266,-0.99377215,-0.7824953,-5.5124383
753,1778413492.2314043,-1.8549863,-0.93224955,0.51542646,-1.0438616,-0.56075776,-5.266267
754,1778413492.2419155,-1.9057515,-0.77019733,0.5088407,-0.9180271,-0.2900761,-4.8356194
755,1778413492.2522585,-1.7729999,-0.5803387,0.597169,-0.65719527,-0.59679776,-4.222329
756,1778413492.262505,-1.6770794,-0.5085967,0.66967326,-0.8117396,-1.3682978,-3.8869739
757,1778413492.2729816,-1.751535,-0.4959131,0.8517265,-1.4250304,-2.23509,-3.97066
758,1778413492.283493,-2.0836582,-0.57155776,1.1401885,-2.2203534,-2.5765538,-4.394588
759,1778413492.293776,-2.7328424,-0.9310299,1.7436992,-2.5441024,-2.2338684,-5.1331024
760,1778413492.304255,-3.3958993,-1.3054115,2.1886034,-2.1165094,-1.5912571,-5.7561665
761,1778413492.3145187,-4.1883235,-1.5047829,2.4009328,-1.3150778,-0.7562289,-6.3420453
762,1778413492.3247607,-5.0454164,-1.3049237,2.3279712,-0.35910183,0.27312508,-6.571724
763,1778413492.3349478,-5.797564,-1.1306758,2.2022932,0.6488725,1.2736928,-6.1953654
764,1778413492.345144,-5.797564,-1.1306758,2.2022932,0.6488725,1.2736928,-6.1953654
765,1778413492.355568,-6.4367476,-0.9356643,1.7708045,2.386122,1.9181367,-4.1991167
766,1778413492.3657336,-6.433546,-0.83318883,1.3930081,2.6274068,1.32928,-2.7238443
767,1778413492.376349,-6.30299,-0.7704413,1.1331148,2.5596027,0.9468896,-1.9163042
768,1778413492.3865974,-6.0208693,-0.64378756,0.74458617,2.2883866,0.5620558,-0.7892147
769,1778413492.3970618,-5.8156443,-0.6018339,0.5869245,2.0513778,0.5296809,-0.23517619
770,1778413492.4072564,-5.4222374,-0.53908634,0.4226771,1.786881,0.74347746,0.5803049
771,1778413492.4174802,-5.068619,-0.49323,0.33239743,1.8088714,1.0537878,1.2583454
772,1778413492.4278634,-4.0270033,-0.5925346,0.14790498,2.1387289,1.6395904,2.740948
773,1778413492.4380636,-4.0270033,-0.5925346,0.14790498,2.1387289,1.6395904,2.740948
774,1778413492.4482641,-3.6870444,-0.7206823,0.07637641,2.1888185,1.741602,3.1624327
775,1778413492.4585145,-3.2099433,-0.816816,-0.1483928,1.646997,1.8240663,4.1636114
776,1778413492.4689476,-2.6561916,-0.5637524,-0.513719,0.950631,2.0329762,4.441623
777,1778413492.4791155,-2.6561916,-0.5637524,-0.513719,0.950631,2.0329762,4.441623
778,1778413492.4893298,-2.4580398,-0.6028096,-0.40609077,0.08689302,2.282278,4.709174
779,1778413492.4995959,-1.9367595,-0.9285908,0.26211897,-0.87160265,2.366575,5.5600843
780,1778413492.509945,-1.9367595,-0.9285908,0.26211897,-0.7378271,2.135064,5.8807793
781,1778413492.5201468,-1.5919222,-1.2949232,0.5871684,-0.31756422,1.748932,6.341969
782,1778413492.5303438,-1.5165215,-1.4576765,0.6228107,0.10888352,1.4477843,6.74635
783,1778413492.5405529,-1.5165215,-1.4576765,0.6228107,0.10888352,1.4477843,6.74635
784,1778413492.550698,-1.4557252,-1.7642188,0.64817804,0.29397026,1.2938509,7.1611915
785,1778413492.5609012,-1.4767325,-1.9765482,0.6952845,0.09605573,1.4600013,7.1330924
786,1778413492.5713503,-1.5340835,-1.9850854,0.76287985,-0.17279342,1.7843612,7.0841484
787,1778413492.5815933,-1.589483,-2.0395093,0.9452076,-0.34749573,2.0873415,7.1104913
788,1778413492.591846,-1.589483,-2.0395093,0.9452076,-0.34749573,2.0873415,7.1104913
789,1778413492.6022913,-1.5187167,-2.214245,1.3234613,0.0080173705,2.8155477,7.339559
790,1778413492.6127079,-1.453286,-2.3616316,1.4647806,0.45095798,3.0714927,7.3475
791,1778413492.6232471,-1.4332849,-2.4365752,1.5118566,0.8455653,3.365921,7.2057834
792,1778413492.6335006,-1.4493834,-2.4790168,1.5111248,1.1198357,3.7611394,7.0151224
793,1778413492.6437263,-1.4984411,-2.5249035,1.490148,1.270715,4.076947,6.870352
794,1778413492.6542032,-1.5714027,-2.5559113,1.3622746,1.2933164,4.306626,6.866076
795,1778413492.664625,-1.5858243,-2.5395384,1.2956549,1.223069,4.4006963,6.9228845
796,1778413492.6747794,-1.5518893,-2.4816997,1.1365297,0.8290724,4.658474,7.258316
797,1778413492.684947,-1.4906358,-2.4763336,1.0999117,0.58595526,4.6853514,7.519148
798,1778413492.6951783,-1.3717873,-2.5651803,1.1343344,0.119267926,4.5637927,7.886267
799,1778413492.7058058,-1.2331817,-2.5581064,1.2131501,-0.23387815,4.2693644,8.10434
800,1778413492.7160404,-1.0657634,-2.5007555,1.2873617,-0.454394,3.7415922,8.294924
801,1778413492.7262635,-0.7558063,-2.3782487,1.3534936,-0.46233502,3.1539571,8.380443
802,1778413492.7368886,-0.50127923,-2.2879384,1.3632503,-0.15630054,2.47836,8.312028
803,1778413492.7475133,-0.50127923,-2.2879384,1.3632503,-0.15630054,2.47836,8.312028
804,1778413492.7577496,-0.00804925,-1.95798,0.94225013,0.7264501,1.7923023,7.8319016
805,1778413492.7680936,0.0983594,-1.8054713,0.68186903,1.0477557,2.5559375,7.2882476
806,1778413492.7783136,0.9376157,-1.6072888,0.24428254,1.0477557,2.5559375,7.2882476
807,1778413492.788494,1.549938,-1.3783731,0.31751853,0.874886,3.2297022,6.8165975
808,1778413492.7987766,1.549938,-1.3783731,0.31751853,0.46378577,3.381803,6.2277403
809,1778413492.8089988,2.1451862,-1.1231143,0.5083528,-0.03657448,3.2846785,5.4989996
810,1778413492.819172,2.7494287,-0.8478238,0.6359822,-0.18562122,3.3366005,4.9174733
811,1778413492.8293655,3.464501,-0.7475131,0.64086056,1.8064281,3.542456,4.49721
812,1778413492.8395815,4.954893,-1.135798,-0.026343001,1.8064281,3.542456,4.49721
813,1778413492.8497982,6.037243,-0.94005483,-0.6601605,1.6390558,2.7263641,3.7879403
814,1778413492.860024,6.037243,-0.94005483,-0.6601605,1.6390558,2.7263641,3.7879403
815,1778413492.8702326,7.650629,-1.3339498,-0.76580685,0.37460208,1.8399483,3.1117322
816,1778413492.8804576,7.575442,-1.3359011,-0.57302123,-2.0316017,-0.051234815,0.5748073
817,1778413492.8906026,6.929703,-1.170678,-0.104701236,-3.327285,-0.46111333,-1.3421078
818,1778413492.9007428,6.0494385,-1.3239491,0.47027132,-3.839175,0.0122933015,-3.1954184
819,1778413492.9109967,5.2860403,-1.4488956,0.88834447,-3.839175,0.0122933015,-3.1954184
820,1778413492.9213486,4.4462957,-1.5860682,1.3795927,-3.5783432,1.1582427,-6.165434
821,1778413492.9317951,4.4462957,-1.5860682,1.3795927,-3.5783432,1.1582427,-6.165434
822,1778413492.9424732,4.4462957,-1.5860682,1.3795927,-3.5783432,1.1582427,-6.165434
823,1778413492.952935,1.8054713,-1.7783659,1.8305945,-0.5564055,1.3085111,-8.882559
824,1778413492.9634151,1.0462196,-1.7400407,1.7551938,0.47539186,0.87358797,-8.999918
825,1778413492.9737604,0.4048712,-1.8552301,1.6497608,1.238951,0.1546207,-8.898518
826,1778413492.9839618,0.4048712,-1.8552301,1.6497608,1.238951,0.1546207,-8.898518
827,1778413492.9943218,-0.066863656,-2.0419486,1.3925203,1.9676918,-1.4788612,-8.513607
828,1778413493.0047388,-0.5513126,-2.3418744,1.1465304,1.9676918,-1.4788612,-8.513607
829,1778413493.0149076,-0.5513126,-2.3418744,1.1465304,1.9676918,-1.4788612,-8.513607
830,1778413493.02533,-0.5513126,-2.3418744,1.1465304,1.9676918,-1.4788612,-8.513607
831,1778413493.0358155,-1.0454879,-2.2913532,0.87684995,1.4777923,-3.0414085,-7.4116387
832,1778413493.0460396,-0.8651419,-2.3643148,0.7753501,1.5199407,-3.389057,-6.634641
833,1778413493.0562382,-0.78047234,-2.366754,0.77291095,1.5339901,-3.4580827,-6.5289645
834,1778413493.066461,-0.71751136,-2.400445,0.78535074,1.442974,-3.5576508,-6.6089854
835,1778413493.076625,-0.7292194,-2.449015,0.8031566,1.4234269,-3.5515423,-6.6450257
836,1778413493.0867822,-0.7292194,-2.449015,0.8031566,1.4234269,-3.5515423,-6.6450257
837,1778413493.0969465,-0.7292194,-2.449015,0.8031566,1.4234269,-3.5515423,-6.6450257
838,1778413493.107488,-0.7292194,-2.449015,0.8031566,1.4234269,-3.5515423,-6.6450257
839,1778413493.1181571,-0.7292194,-2.449015,0.8031566,1.4234269,-3.5515423,-6.6450257
840,1778413493.1282775,-1.5167654,-1.7881225,0.3377636,0.8370135,-1.6865493,-6.7250466
841,1778413493.138462,-1.4420658,-1.6289974,0.41511568,0.562743,-1.4898565,-6.2968426
842,1778413493.149099,-1.3378525,-1.529693,0.58497316,0.486998,-1.8062754,-5.426309
843,1778413493.1593008,-1.0830815,-1.4681954,0.7675143,0.7728745,-2.6089287,-4.76354
844,1778413493.1695426,-1.0081686,-1.5157592,0.7162918,0.970789,-3.3059816,-4.2797484
845,1778413493.1796794,-1.0081686,-1.5157592,0.7162918,0.970789,-3.8178718,-3.8368843
846,1778413493.1898715,-0.95642775,-1.5672561,0.55326396,0.970789,-3.8178718,-3.8368843
847,1778413493.200261,-0.95618385,-1.5921661,0.27114385,0.5126536,-4.048772,-3.6884484
848,1778413493.2105207,-0.98911256,-1.5855803,0.14006914,0.02817533,-3.5747545,-3.946837
849,1778413493.2207773,-1.0589337,-1.4857575,0.090554066,-0.33588964,-2.943673,-4.285857
850,1778413493.231054,-1.1582383,-1.3600793,0.08125474,-0.64925426,-2.1330786,-4.652365
851,1778413493.2412755,-1.2668422,-1.1689707,0.09811548,-0.8795437,-1.0732586,-5.1208854
852,1778413493.251494,-1.4772204,-0.9476468,0.23135497,-0.9339091,-0.31939676,-5.3646135
853,1778413493.2616353,-1.6390285,-0.96276957,0.50127923,-0.89970165,0.30916506,-5.4721227
854,1778413493.2718244,-1.7046727,-1.1160408,0.7501962,-0.6669688,0.8784747,-5.522212
855,1778413493.2820559,-1.7627552,-1.3400477,0.8844114,-0.050013117,1.3390535,-5.5942917
856,1778413493.2922754,-1.8642856,-1.4933189,0.82876784,0.94452256,1.3476055,-5.6706476
857,1778413493.3025136,-1.8642856,-1.4933189,0.82876784,0.94452256,1.3476055,-5.6706476
858,1778413493.3127756,-2.232539,-0.92737114,-0.011464084,1.7361807,0.32199287,-6.2283516
859,1778413493.3229399,-2.7745826,-0.82462126,-0.25574663,1.1137272,0.14729054,-6.514304
860,1778413493.3332531,-3.467184,-0.832701,-0.17644322,-0.16546325,0.25846475,-6.6114287
861,1778413493.3435338,-4.158078,-0.9107849,0.28553498,-0.74332476,0.19310409,-6.1361136
862,1778413493.3537817,-4.7281723,-1.027682,0.7370247,-0.65658444,-0.38781166,-5.269321
863,1778413493.3641255,-5.4139442,-1.0271941,0.9925274,-0.12942326,-1.4153332,-3.9303439
864,1778413493.374289,-5.4139442,-1.0271941,0.9925274,-0.12942326,-1.4153332,-3.9303439
865,1778413493.3848484,-6.088953,-1.0325602,1.2431823,0.14553437,-2.391467,-1.4997064
866,1778413493.3950708,-6.0303826,-1.0167056,1.2976061,0.4124746,-2.8379965,-0.34085277
867,1778413493.4056165,-5.9984293,-1.0828376,1.2453775,0.60000473,-2.8691497,0.08429692
868,1778413493.4157903,-5.905192,-1.1072292,1.0623486,0.722785,-2.1904984,0.25533417
869,1778413493.4261677,-5.8358893,-0.9120045,0.910541,0.7795938,-1.400062,0.05070032
870,1778413493.4366817,-5.788539,-0.6694293,0.70065063,1.0758548,0.49974942,-0.29198498
871,1778413493.4468858,-5.6843257,-0.6020778,0.5486296,1.5761386,2.1197927,-0.24861483
872,1778413493.457054,-5.476417,-0.61183447,0.3565452,2.0440476,3.3115556,0.12766708
873,1778413493.467678,-5.148166,-0.5615572,0.07247374,2.206533,3.83383,0.78432786
874,1778413493.4780576,-4.42163,-0.5644842,-0.28724235,1.2511679,3.7990117,2.5906796
875,1778413493.4882612,-4.42163,-0.5644842,-0.28724235,1.2511679,3.7990117,2.5906796
876,1778413493.4984908,-3.584325,-0.79852223,-0.17790672,0.41125292,3.259023,4.021895
877,1778413493.508761,-3.0556967,-0.9305421,-0.03808149,-0.70423055,2.0842872,6.2075825
878,1778413493.518978,-3.0556967,-0.9305421,-0.03808149,-0.70423055,2.0842872,6.2075825
879,1778413493.529303,-2.3443136,-1.2272972,0.2555027,-1.0511918,1.6719654,7.021231
880,1778413493.5395436,-2.3443136,-1.2272972,0.2555027,-1.1654202,1.4019709,7.5735135
881,1778413493.549771,-2.0814629,-1.4488956,0.4622221,-1.1715287,1.3384427,7.877715
882,1778413493.5599775,-1.744431,-1.7769024,0.8305057,-0.8074637,1.9144716,8.03226
883,1778413493.570352,-1.744431,-1.7769024,0.8305057,-0.8074637,1.9144716,8.03226
884,1778413493.5807667,-1.4772204,-2.2425394,1.0174373,0.19562383,2.3775702,7.966899
885,1778413493.5911038,-1.3839831,-2.2906213,0.97618496,0.5285356,2.4441526,7.9455194
886,1778413493.601304,-1.3327303,-2.4087381,0.92566377,0.57679254,2.4527044,7.871607
887,1778413493.611709,-1.3107777,-2.4782848,0.7973026,0.31718245,2.522341,7.714619
888,1778413493.6219187,-1.321754,-2.4245927,0.77876496,-0.042072106,2.6158006,7.6022234
889,1778413493.6323605,-1.3171196,-2.4851146,0.82754827,-0.39636353,2.7514088,7.439738
890,1778413493.6425624,-1.3161439,-2.5366113,0.8751426,-0.63215053,2.9682596,7.223498
891,1778413493.6529832,-1.3895932,-2.4653573,0.9961862,-0.63215053,2.9682596,7.223498
892,1778413493.6632144,-1.4789277,-2.4321845,1.1209191,-0.95834297,3.9694383,6.7243595
893,1778413493.6734793,-1.5531089,-2.4282515,1.2319622,-0.9534562,4.0757256,6.797661
894,1778413493.6837401,-1.586312,-2.391908,1.333462,-0.9290223,3.9975371,7.028561
895,1778413493.6939595,-1.5550601,-2.3931274,1.3891054,-0.8746569,3.842382,7.2619815
896,1778413493.7041817,-1.4037709,-2.4931943,1.3771535,-0.6156577,3.5394018,7.537473
897,1778413493.714637,-1.2229067,-2.4497466,1.2668422,-0.22776967,3.306669,7.6535344
898,1778413493.725271,-1.1233582,-2.3945909,1.1567748,-0.0432938,3.230313,7.6877418
899,1778413493.7355163,-0.9459393,-2.3216293,0.9525251,0.0061848285,3.3017821,7.66453
900,1778413493.7457495,-0.8199868,-2.2537596,0.8651419,-0.054899897,3.3677537,7.6126075
901,1778413493.7560883,-0.579607,-2.1783588,0.77019733,-0.1880646,3.3934093,7.508153
902,1778413493.766311,-0.3714241,-2.1166174,0.708212,-0.322451,3.2956736,7.3676577
903,1778413493.7767313,-0.15010023,-2.0299659,0.6357383,-0.46538925,3.0977592,7.163024
904,1778413493.786901,0.12153149,-1.9235878,0.5925346,-0.5967214,2.8638046,6.968087
905,1778413493.7972438,0.45539245,-1.8354731,0.5805827,-0.7952468,2.502794,6.7830005
906,1778413493.8078697,0.885387,-1.6856166,0.6018339,-0.9730033,2.2101982,6.4989567
907,1778413493.8180792,1.5657926,-1.3171196,0.67479545,-1.0518026,2.0513015,6.1055713
908,1778413493.8282566,2.1344233,-1.0801545,0.7487327,-0.87893283,1.833229,5.696914
909,1778413493.8383806,2.8011696,-0.6101271,0.7672704,-0.44584215,1.6707436,5.0915647
910,1778413493.8485773,3.5230715,-0.41414002,0.7640995,0.78142637,2.012818,3.8978927
911,1778413493.8589263,4.0963364,-0.5869245,0.83928674,0.78142637,2.012818,3.8978927
912,1778413493.8691335,4.7847915,-1.498685,0.29992604,3.227946,1.5980527,2.3793263
913,1778413493.8793535,4.7847915,-1.498685,0.29992604,3.227946,1.5980527,2.3793263
914,1778413493.8898013,4.7847915,-1.498685,0.29992604,3.227946,1.5980527,2.3793263
915,1778413493.900482,4.7847915,-1.498685,0.29992604,3.227946,1.5980527,2.3793263
916,1778413493.91091,4.7847915,-1.498685,0.29992604,3.227946,1.5980527,2.3793263
917,1778413493.9211724,5.423213,-0.8607514,-0.71260256,-2.1476626,-0.56075776,-1.3274474
918,1778413493.9315784,5.082522,-0.9725262,0.07344941,-2.9662743,-0.571753,-2.4660668
919,1778413493.9417415,5.082522,-0.9725262,0.07344941,-2.9662743,-0.571753,-2.4660668
920,1778413493.9520001,5.082522,-0.9725262,0.07344941,-2.9662743,-0.571753,-2.4660668
921,1778413493.9626257,5.082522,-0.9725262,0.07344941,-2.9662743,-0.571753,-2.4660668
922,1778413493.9733477,5.082522,-0.9725262,0.07344941,-2.9662743,-0.571753,-2.4660668
923,1778413493.983643,5.082522,-0.9725262,0.07344941,-2.9662743,-0.571753,-2.4660668
924,1778413493.9938903,1.372763,-1.8933117,1.0984483,0.08689302,-1.1783243,-8.051806
925,1778413494.0045419,0.6267134,-2.03146,0.8836796,0.4045336,-1.3267603,-8.495893
926,1778413494.0147076,0.6267134,-2.03146,0.8836796,0.4045336,-1.3267603,-8.495893
927,1778413494.0253406,0.6267134,-2.03146,0.8836796,0.4045336,-1.3267603,-8.495893
928,1778413494.035984,0.6267134,-2.03146,0.8836796,0.4045336,-1.3267603,-8.495893
929,1778413494.0466273,0.6267134,-2.03146,0.8836796,0.4045336,-1.3267603,-8.495893
930,1778413494.056872,-0.6340309,-2.069999,1.0789349,-0.6443675,-2.8996918,-7.414082
931,1778413494.0670118,-0.6067122,-2.2640345,1.2346452,-0.5600706,-3.4214318,-7.1324816
932,1778413494.0772197,-0.6228107,-2.3740716,1.2707449,-0.48249298,-4.0597672,-7.128206
933,1778413494.0874856,-0.9437136,-2.790925,1.2780623,-0.446453,-4.428108,-7.2943563
934,1778413494.0976434,-1.2307425,-2.9058707,1.2158331,-0.6077167,-3.9620316,-8.073187
935,1778413494.1082501,-1.2307425,-2.9058707,1.2158331,-0.6077167,-3.9620316,-8.073187
936,1778413494.1186662,-1.7651945,-2.6991513,0.98886865,-0.25464696,-2.0732155,-8.177641
937,1778413494.1292908,-1.7651945,-2.6991513,0.98886865,-0.25464696,-2.0732155,-8.177641
938,1778413494.1395152,-1.8220576,-2.357729,0.8116937,0.20784079,-0.76172656,-7.687131
939,1778413494.1497214,-1.7361379,-2.1947012,0.7587333,0.33367532,-0.5595361,-7.3902593
940,1778413494.16009,-1.6236314,-2.0731697,0.7292194,0.42835665,-0.7629482,-7.0170317
941,1778413494.1703138,-1.5084417,-1.9985007,0.7484888,0.45462307,-1.5985873,-6.4367266
942,1778413494.1806765,-1.5084417,-1.9985007,0.7484888,0.45462307,-1.5985873,-6.4367266
943,1778413494.1911676,-1.4803913,-1.9687124,0.66138005,0.18951537,-3.0817244,-5.842907
944,1778413494.201366,-1.6048498,-1.8757497,0.531281,-0.06284091,-3.2674983,-5.481285
945,1778413494.2115862,-1.7205272,-1.73004,0.36752144,-0.2528144,-2.975437,-5.0469728
946,1778413494.2217486,-1.7856834,-1.5743603,0.2289158,-0.32917032,-2.403073,-4.5558515
947,1778413494.2319448,-1.7764146,-1.4352361,0.13397123,-0.36582115,-1.899735,-4.0152516
948,1778413494.2421753,-1.6546392,-1.3478836,0.08564524,-0.67307734,-1.6260754,-3.4293728
949,1778413494.2525887,-1.5128322,-1.3241931,0.12104365,-1.110444,-1.7775655,-3.1190624
950,1778413494.2627535,-1.3661773,-1.2900448,0.18693164,-1.5056621,-2.1843898,-2.9431384
951,1778413494.2731962,-1.3027285,-1.2231506,0.25184396,-1.8452932,-2.547844,-2.7983677
952,1778413494.283469,-1.3132169,-1.1304318,0.3009017,-2.1299481,-2.5948792,-2.6456559
953,1778413494.2936435,-1.3454443,-1.0096321,0.38828486,-2.2521174,-2.4751532,-2.492944
954,1778413494.3038766,-1.3478836,-0.89322287,0.4846624,-2.3834496,-2.207602,-2.4281943
955,1778413494.3140452,-1.3229735,-0.8009614,0.6120784,-2.57831,-1.9021784,-2.6224437
956,1778413494.3243046,-1.3376086,-0.708212,0.79974174,-2.7372065,-1.7592402,-2.977346
957,1778413494.3345459,-1.418406,-0.5954616,1.038902,-2.755532,-1.7830632,-3.469689
958,1778413494.3446994,-1.5821655,-0.4934739,1.3239491,-2.655964,-1.8056645,-4.146584
959,1778413494.3550167,-1.9323689,-0.41389608,1.6356138,-2.502565,-1.7005987,-4.874103
960,1778413494.365641,-2.4741383,-0.42243317,2.0163069,-2.202028,-1.4660335,-5.6511006
961,1778413494.3758316,-3.367849,-0.570826,2.5583506,-1.8025339,-1.1373976,-6.1464977
962,1778413494.3864195,-4.229332,-0.72409713,2.9700515,-1.1489273,-0.43973368,-6.3286066
963,1778413494.3971,-5.0995965,-0.7643434,3.2438781,-0.046348035,0.24869119,-6.049984
964,1778413494.4073045,-5.8717756,-0.6547638,3.290009,1.2475028,0.89191335,-5.255272
965,1778413494.417714,-6.483579,-0.56253284,3.1411283,2.2847214,1.4569471,-4.054346
966,1778413494.4282975,-6.859181,-0.59814465,2.7826319,3.0630171,1.8497219,-2.3151875
967,1778413494.4385135,-6.6351433,-0.9263955,1.9560287,3.3513372,1.7385477,-0.937116
968,1778413494.4488094,-6.6351433,-0.9263955,1.9560287,3.0972247,1.4679424,0.22601348
969,1778413494.4591377,-5.9376636,-0.6769907,1.1877828,2.2841105,1.297516,1.1319
