id,timestamp,acc_x,acc_y,acc_z,gyro_x,gyro_y,gyro_z
0,1778428871780,-0.10393463285714286,0.2772417842857143,0.8100385671428573,-0.19921256857142858,-0.22659160857142857,-0.06462982142857143
1,1778428871790,-0.10567689,0.28943762,0.90346736,-0.2835095,-0.2396812,-0.06620057
2,1778428871800,-0.077493086875,0.2772417775,1.0590099450000001,-0.16874655875,-0.37506023125,-0.053678202125
3,1778428871810,-0.04493825944444444,0.2758866977777778,1.1693365555555557,0.047366113333333335,-0.5045852866666666,-0.06558972333333334
4,1778428871820,-0.03369099,0.27846137,1.2060765,0.22899136,-0.59091836,-0.08880192
5,1778428871830,-0.03369099,0.27846137,1.2060765,0.22899136,-0.59091836,-0.08880192
6,1778428871840,-0.06003398666666667,0.26526954999999997,1.09129338,0.85999658,-0.8102125266666667,-0.22766785666666667
7,1778428871850,-0.08410720666666667,0.3034221888888889,0.9418130688888888,0.9494517755555556,-0.7765480688888888,-0.26133232333333334
8,1778428871860,-0.1440023,0.3079753,0.8717277,0.9204705,-0.78700036,-0.26228255
9,1778428871870,-0.1661377475,0.340012225,0.80346915,0.831134055,-0.77554699,-0.1894390025
10,1778428871880,-0.142771294,0.3632338625,0.7323864875,0.65085775,-0.63543389,-0.1246128365
11,1778428871890,-0.086373182625,0.3885288,0.655163975,0.354520479,-0.37635827,-0.052151085625
12,1778428871900,-0.050277323,0.4192623,0.6784542,0.035963632,-0.15294088,-0.017943637
13,1778428871910,-0.050277323,0.4192623,0.6784542,0.035963632,-0.15294088,-0.017943637
14,1778428871920,-0.050277323,0.4192623,0.6784542,0.035963632,-0.15294088,-0.017943637
15,1778428871930,-0.050277323,0.4192623,0.6784542,0.035963632,-0.15294088,-0.017943637
16,1778428871940,-0.050277323,0.4192623,0.6784542,0.035963632,-0.15294088,-0.017943637
17,1778428871950,-0.050277323,0.4192623,0.6784542,0.035963632,-0.15294088,-0.017943637
18,1778428871960,-0.050277323,0.4192623,0.6784542,0.035963632,-0.15294088,-0.017943637
19,1778428871970,-0.050277323,0.4192623,0.6784542,0.035963632,-0.15294088,-0.017943637
20,1778428871980,-0.050277323000000006,0.4192623,0.6784542,0.035963632,-0.15294088,-0.017943637
21,1778428871990,0.07394159857142857,0.31556283428571424,1.3072234142857142,0.087274805,-2.165148,-0.13156123
22,1778428872000,0.12745408375,0.29849683375,1.28100835,0.12270394374999999,-2.569605475,-0.17225892125
23,1778428872010,0.24770754666666667,0.34769304,1.1460323666666665,0.41163469444444445,-2.416002688888889,-0.3056527
24,1778428872020,0.269646055,0.37632910375,1.1000909375,0.6367319,-2.076880725,-0.397585215
25,1778428872030,0.24290035000000001,0.38631319,1.042073,0.8726207466666667,-1.5115415333333333,-0.4732284666666666
26,1778428872040,0.22830980625,0.419658645,1.042408325,0.9037484975000001,-1.2743038,-0.47271942
27,1778428872050,0.294449355,0.40139538375,1.0350908749999999,0.841976565,-1.1089645750000001,-0.4535540875
28,1778428872060,0.38916905333333335,0.3674604733333333,1.0244296666666668,0.8268072066666666,-0.9663858400000002,-0.49528683333333334
29,1778428872070,0.46432969375,0.3472420725,1.0117357875,0.86335623,-0.822582205,-0.5861843
30,1778428872080,0.5118286625,0.30504829,1.0032826,0.9526926499999999,-0.5644992249999999,-0.806242025
31,1778428872090,0.517974,0.2937196977777778,0.9948853,1.0578432333333332,-0.27551756666666666,-1.0614743555555557
32,1778428872100,0.5216767625000001,0.30518166875,0.977099725,1.141597175,-0.018401766249999993,-1.24673925
33,1778428872110,0.5333237666666667,0.30100332333333335,0.9451974233333333,1.2644453444444443,0.39478549444444444,-1.5103113777777777
34,1778428872120,0.54820270875,0.2587308125,0.94292464875,1.3526449249999999,0.668037825,-1.697162775
35,1778428872130,0.5674111275,0.2253713775,0.97356285,1.496976675,0.920775875,-1.9408908249999999
36,1778428872140,0.5476234111111111,0.19283983333333332,0.9896003888888889,1.6458261222222221,1.028369811111111,-2.1646052
37,1778428872150,0.48562666,0.163088775,0.95233074875,1.892710225,1.046763125,-2.4215511999999997
38,1778428872160,0.43660703125,0.16232654,0.8787632212500001,2.159803225,1.0217948125,-2.5893051125
39,1778428872170,0.3928277866666667,0.15366749999999998,0.74061233,2.4241814,1.080834811111111,-2.7293674111111113
40,1778428872180,0.36242966249999997,0.09721984625,0.6091171000000001,2.7062823625,1.163435,-2.874570875
41,1778428872190,0.3494716,0.04978949,0.50737715,2.8502133,1.2092485,-2.957417
42,1778428872200,0.29261234,-0.009459395875000002,0.17135526875,3.1859502375,2.268219025,-3.2442097875
43,1778428872210,0.371690875,-0.03942303375,0.09273406625,3.11241955,2.7489654,-3.6055259
44,1778428872220,0.30885947888888887,-0.06409926944444444,0.035544079666666666,2.6726602666666666,2.885082411111111,-4.0354945
45,1778428872230,0.255007275,-0.08885427125,0.064855155125,2.360161025,2.7472855000000003,-4.2340877500000005
46,1778428872240,0.16323360825,-0.159955975,0.147760145,2.0128944,2.4082653,-4.45781075
47,1778428872250,0.011060944666666668,-0.3170273022222222,0.22880738222222222,1.8195104000000002,1.9718657999999998,-4.692834
48,1778428872260,-0.050765157,-0.38657743,0.22867186,1.7763438,1.7340426,-4.854098
49,1778428872270,-0.14783721077777778,-0.46418357666666665,0.15317966222222223,1.8562969777777778,1.7424587777777778,-5.196918844444444
50,1778428872280,-0.332572745,-0.553690825,0.08462003,2.0520649625000003,2.0568754625,-5.833973125
51,1778428872290,-0.47710101000000005,-0.58241202,0.12422981,2.1321623499999998,2.2208879,-6.185821
52,1778428872300,-0.56947685,-0.60662837,0.03393490749999999,2.148349875,2.30014535,-6.33379875
53,1778428872310,-0.6628436,-0.64159226,-0.29992604,2.1593451,2.4719462,-6.418554
54,1778428872320,-0.660069,-0.7387084088888889,0.063018579,2.069482611111111,2.387106222222222,-6.4750235555555555
55,1778428872330,-0.649222325,-0.813347755,0.020671937749999997,1.9456248875000002,2.0997873375,-6.50224
56,1778428872340,-0.67192945,-0.8597833500000001,0.0067077084999999995,1.8829367000000001,1.75088865,-6.502469124999999
57,1778428872350,-0.7108951,-0.8963937,0.011464084,1.8630842,1.5274999,-6.502851
58,1778428872360,-0.7940504333333334,-0.9590193666666667,-0.02351763,1.8248043999999999,1.3735663666666666,-6.462942333333333
59,1778428872370,-1.028680475,-1.0862638125,-0.044381400112500004,1.7166335499999998,1.15221065,-6.296689825
60,1778428872380,-1.1223656111111113,-1.175339588888889,0.029852689833333335,1.6462333999999998,0.9331455466666667,-6.178083666666667
61,1778428872390,-1.1382027875,-1.21716705,0.07262618875,1.6247773625,0.695144185,-6.10282225
62,1778428872400,-1.0782565,-1.0902846750000001,0.06765639074999999,1.712357575,0.440497225,-5.9196445
63,1778428872410,-0.9997026433333333,-0.9824455533333334,0.030672520999999994,1.8787625555555556,0.5502800933333334,-5.746825666666667
64,1778428872420,-0.9349249587499999,-0.9920777025,0.024730863625,2.0438186125,0.67628427375,-5.6335388
65,1778428872430,-0.86636156,-1.0879598,0.03222749,2.1416304,0.7767686,-5.6287284
66,1778428872440,-0.79169255,-1.102351,0.038325407,2.087265,0.7346202,-5.7087493
67,1778428872450,-0.7700868625,-1.0786604875,0.0879586355,1.8192558375,0.4256078325,-5.78182195
68,1778428872460,-0.8063377,-1.1287853666666667,0.20629252333333334,1.5432546666666669,0.09275546222222221,-5.8317331999999995
69,1778428872470,-0.8641433875000001,-1.1514353125,0.2442825475,1.32301875,-0.22738788999999998,-5.8275592125
70,1778428872480,-0.9510616,-1.1038144,0.21525647,1.1819131,-0.4064425,-5.8083177
71,1778428872490,-1.0247311111111113,-1.020737111111111,0.19251800222222223,1.1519815555555555,-0.36212212666666665,-5.766644
72,1778428872500,-1.0850328,-0.9378596,0.21769562,1.166642,-0.2616717,-5.726464
73,1778428872510,-1.2302661375000001,-0.78003024625,0.21090789375000002,1.108687825,-0.2905342475,-5.6020034999999995
74,1778428872520,-1.3906095666666667,-0.5155720622222222,0.37290793333333333,1.027979531111111,-0.27422799999999997,-5.278152666666667
75,1778428872530,-1.4786838,-0.38365042,0.4959131,0.93818504,-0.42293537,-4.904187
76,1778428872540,-1.5335142444444445,-0.3005663311111111,0.5722420422222222,0.9704241888888888,-0.6739936066666667,-4.329719633333333
77,1778428872550,-1.533412625,-0.20707001,0.646051405,1.2224581125,-0.9915673375,-3.5526114
78,1778428872560,-1.5658612,-0.0616270735,0.6938209625,1.5003362999999998,-1.27514365,-2.991013625
79,1778428872570,-1.6077055666666666,0.04955573733333333,0.7110577833333332,1.6932007333333334,-1.4784200444444444,-2.556277111111111
80,1778428872580,-1.6382967,0.0910419,0.71479785,1.891794,-1.721673,-2.0545084
81,1778428872590,-1.7107468,0.10971845777777778,0.7327121544444445,1.9976063333333336,-1.9506728444444446,-1.6817557777777778
82,1778428872600,-1.8726322,0.2121922575,0.779656745,2.0715357500000002,-2.2612801625,-1.2588035
83,1778428872610,-2.0728478444444445,0.3006171366666666,0.8141125022222222,2.140137444444444,-2.3450087111111113,-1.125816977777778
84,1778428872620,-2.263059,0.38584566,0.85075086,2.235701,-2.2152376,-1.0411128
85,1778428872630,-2.263059,0.38584566,0.85075086,2.235701,-2.2152376,-1.0411128
86,1778428872640,-2.263059,0.38584566,0.85075086,2.235701,-2.2152376,-1.0411128
87,1778428872650,-2.263059,0.38584566,0.85075086,2.235701,-2.2152376,-1.0411128
88,1778428872660,-2.263059,0.38584566,0.85075086,2.235701,-2.2152376,-1.0411128
89,1778428872670,-3.3334262,0.1290929,1.5179849,3.7805338,1.5917152,-0.5457157
90,1778428872680,-3.5601468,-0.061253577,1.7593404,4.0163207,1.8763701,-0.14377818
91,1778428872690,-3.5601468,-0.06125357699999999,1.7593404,4.0163207,1.8763701,-0.14377818
92,1778428872700,-3.5601468,-0.061253577,1.7593404,4.0163207,1.8763701,-0.14377818
93,1778428872710,-3.5601468,-0.061253577,1.7593404,4.0163207,1.8763701,-0.14377818
94,1778428872720,-3.665739011111111,-0.30556999988888894,1.7948878888888886,4.275879911111111,2.0155754,0.13186664888888888
95,1778428872730,-3.98137555,-1.3588445249999999,1.688132025,5.443718137499999,3.6275260625000003,1.0449306500000002
96,1778428872740,-3.8541655,-1.3877830125000001,1.537140075,5.4854082,4.8728814375,1.0376767625
97,1778428872750,-3.7629635,-1.3578842,1.4633172,5.1898346,5.605669,1.1702306
98,1778428872760,-3.7629635,-1.3578842,1.4633172,5.1898346,5.605669,1.1702306
99,1778428872770,-3.7629635,-1.3578842,1.4633172,5.1898346,5.605669,1.1702306
100,1778428872780,-3.7629635,-1.3578842,1.4633172,5.1898346,5.605669,1.1702306
101,1778428872790,-3.53258415,-1.376120775,1.4025742625000002,4.1147148,5.059476075,2.0292536875
102,1778428872800,-2.9634655,-1.4003257,1.2192479,1.5393351,3.3075852,4.462163
103,1778428872810,-2.8039441,-1.35073055,1.0726692475,1.3838363,3.2272588,4.709861500000001
104,1778428872820,-2.454625,-1.2692814,0.73775643,0.702398,3.2654366,5.3032994
105,1778428872830,-2.454625,-1.2692814,0.73775643,0.702398,3.2654366,5.3032994
106,1778428872840,-2.454625,-1.2692814,0.73775643,0.702398,3.2654366,5.3032994
107,1778428872850,-2.454625,-1.2692814,0.73775643,0.702398,3.2654366,5.3032994
108,1778428872860,-2.360281514285714,-1.2484700857142859,0.74211209,0.4699269857142857,3.3363821714285717,5.359410128571429
109,1778428872870,-1.8195268500000001,-1.0927770875,0.8645054475,-1.0256888750000002,3.6000283250000003,5.94110075
110,1778428872880,-1.8252012888888889,-1.0786164999999999,0.9424466244444444,-1.0898278222222222,3.5128299,6.225755444444444
111,1778428872890,-1.832545875,-1.1287854375,1.0060762375,-1.1638931000000001,3.513746125,6.45696075
112,1778428872900,-1.8003388333333332,-1.1608502666666665,1.0546855333333334,-1.1989829555555556,3.558304055555556,6.654434111111112
113,1778428872910,-1.75146655,-1.2102916499999998,1.118213075,-1.2175713,3.6148415,6.893411
114,1778428872920,-1.7102827,-1.2522072,1.1599457,-1.2530005,3.7504494,7.126144
115,1778428872930,-1.7102827,-1.2522072,1.1599457,-1.2530005,3.7504494,7.126144
116,1778428872940,-1.6326765666666667,-1.4623312333333334,1.3207782666666665,-1.0363787555555557,3.552059833333333,7.498082177777778
117,1778428872950,-1.581121225,-1.6240048,1.41181255,-0.7752415375,3.2406974749999997,7.870308625
118,1778428872960,-1.5434399374999999,-1.67028415,1.3667222875,-0.60038649,3.0267481,8.07784425
119,1778428872970,-1.4603901,-1.7046727,1.3073629,-0.49913856000000006,2.9813929,8.184132
120,1778428872980,-1.36189735,-1.719704075,1.2717510625,-0.4711923175,3.090581625,8.10334725
121,1778428872990,-1.3088263666666666,-1.7472869,1.2973521333333333,-0.5142061211111112,3.2517945333333333,7.874228488888889
122,1778428873000,-1.3396360999999999,-1.7655603500000001,1.3569084249999999,-0.5883986175,3.2996441125000002,7.5790109
123,1778428873010,-1.4399620333333332,-1.7499801666666666,1.4117999,-0.6292490266666666,3.2363196,7.2713222
124,1778428873020,-1.5014291,-1.7361988,1.4567694500000001,-0.5399126125,3.124178325,7.269845675
125,1778428873030,-1.4830667499999999,-1.7343694,1.4550696250000001,-0.353222419375,2.9364954875000002,7.4723418624999995
126,1778428873040,-1.3951004625,-1.7390991375,1.3937970625,-0.061084729374999994,2.7274329875000003,7.83281825
127,1778428873050,-1.2253763999999998,-1.7705673777777777,1.3265442111111112,0.29672754444444444,2.4561319666666668,8.253717333333334
128,1778428873060,-0.9808193999999999,-1.84194435,1.243593925,0.745462725,1.9447849499999998,8.620964
129,1778428873070,-0.751456448888889,-1.8721451333333334,1.1513747444444444,1.0063962999999998,1.608869922222222,8.73532811111111
130,1778428873080,-0.4081717025,-1.891672875,0.9728921375,1.349457025,1.1153307749999999,8.71595
131,1778428873090,-0.04061891,-1.9406078777777778,0.7732158299999999,1.6078856888888888,0.6997340177777778,8.503332666666667
132,1778428873100,0.34623209,-1.9374834,0.567228245,1.75389525,0.41148198625,7.850608475
133,1778428873110,0.7123315555555556,-1.8833077444444446,0.4107725811111111,1.7834703777777778,0.3776139044444444,7.335460866666667
134,1778428873120,1.3098554,-1.763860475,0.25271291,1.80932955,0.75844325,6.23214975
135,1778428873130,1.9483047333333334,-1.5423055,0.14723419666666668,2.0179,1.3369326333333333,4.934076155555555
136,1778428873140,2.286231,-1.3591037,0.07905949,2.459271,1.9056908,3.5947597
137,1778428873150,2.784411775,-1.27306215,0.0591193025,2.8479989625,2.5498292,2.473645075
138,1778428873160,3.3321457,-1.2058935,0.0952875725,3.17862005,3.0842441375,1.4600013125
139,1778428873170,3.748396333333334,-1.2569466555555555,0.14186465111111113,3.268440066666667,2.8527076000000005,0.9715016000000001
140,1778428873180,4.070695,-1.4042587,0.18058981,2.9970457125000003,1.92475105,0.7624137375000001
141,1778428873190,4.450443,-1.6417117,0.28602278,2.6675699,1.0840248,0.7078193
142,1778428873200,4.845760577777778,-1.7181965000000001,0.2043852422222222,1.3714708977777776,-0.8680563777777778,0.5066299444444444
143,1778428873210,5.073679825,-1.7646609999999998,0.18681730624999998,0.13957859749999998,-2.2523465875,0.0931542
144,1778428873220,5.02571245,-2.032367125,0.3537477625,-0.8346655,-3.10783815,-0.69598411
145,1778428873230,4.7806582888888896,-2.305436022222222,0.6252126133333333,-1.3867081444444445,-3.3470698444444444,-1.5890598222222225
146,1778428873240,4.6910663,-2.2240016,0.7643434,-1.6366125,-3.1822088,-2.405822
147,1778428873250,4.4348433499999995,-2.1857487875,1.04549925,-1.4201435375,-2.7711848999999997,-3.4443384999999997
148,1778428873260,3.9414867111111107,-2.253508911111111,1.2496867333333332,-0.4246152108888889,-2.3988310777777775,-5.300907033333334
149,1778428873270,3.2179051,-2.419493375,1.258823425,0.055052608249999996,-2.5215775999999996,-6.434283175
150,1778428873280,2.5524322444444443,-2.5274103888888892,1.267424911111111,0.198449,-2.7002504,-7.260301600000001
151,1778428873290,1.64243581,-2.7105011,1.39961675,0.145076223,-2.9836071124999997,-8.430685
152,1778428873300,0.58576586875,-2.9765494625,1.6452331625,0.12530004375,-3.1752604499999997,-9.633901625
153,1778428873310,-0.12440893125,-3.1216531875,1.8160052625,0.249149325,-3.28284585,-10.41084175
154,1778428873320,-1.2712292666666665,-3.192218866666667,1.982320977777778,0.5559304044444444,-3.3275226,-11.077231444444445
155,1778428873330,-1.88437815,-3.187861225,1.9685218,0.8917606499999999,-3.201374225,-11.2738735
156,1778428873340,-2.4123930875,-3.0774852625,1.813760575,1.401073675,-2.7807294999999996,-11.17919225
157,1778428873350,-2.6052510875,-3.0155075250000003,1.703502575,1.7548114499999998,-2.478970925,-10.891864625
158,1778428873360,-2.6654909,-3.0022483,1.5638412,1.9760909,-2.3196924,-10.442357
159,1778428873370,-2.682920822222222,-3.0494427333333336,1.5586479333333334,1.8691925666666667,-2.915064966666667,-9.802927500000001
160,1778428873380,-2.8539011249999997,-3.1926177625,1.7858701625,1.543658725,-4.0885058125,-9.110863312500001
161,1778428873390,-3.0948348333333335,-3.2258182666666664,1.8636250333333335,1.4119989666666666,-5.178330666666667,-8.433731111111111
162,1778428873400,-3.331124,-3.108740875,1.7359777749999998,1.46658705,-6.43414975,-7.225330575
163,1778428873410,-3.4171505,-2.9097733,1.5253024,1.4849697,-6.900589,-6.4167213
164,1778428873420,-3.3225450875,-2.698751225,1.22399665,1.38678555,-6.932963712499999,-5.4327895625
165,1778428873430,-3.086443677777778,-2.4646458666666664,0.7964726555555556,1.1690853,-6.7564287,-4.5669994
166,1778428873440,-2.731127325,-2.3180088,0.4772915325,0.19447850749999998,-6.19666375,-3.63362475
167,1778428873450,-2.4990279555555555,-2.1506200888888887,0.3570330277777778,-0.7388197533333334,-5.837027066666667,-3.230872866666667
168,1778428873460,-2.360656,-2.0407288,0.32629952,-1.2438377,-5.6611032,-3.0667586
169,1778428873470,-2.10867875,-1.9309471875,0.5116343025000001,-2.2860959625,-5.3120804,-2.84547915
170,1778428873480,-1.9089567250000001,-1.8449819125,0.6718303649999999,-2.9093890625,-5.109355625,-2.69154565
171,1778428873490,-1.7550177111111112,-1.6744812444444443,0.7360490244444444,-3.116355988888889,-4.836120155555555,-2.6433735777777776
172,1778428873500,-1.6426797,-1.4643347125,0.7303741462500001,-3.1618982375,-4.4303986375,-2.768741525
173,1778428873510,-1.5452692375,-1.2125936,0.70089456125,-3.1719771875,-3.84061625,-3.0998971625
174,1778428873520,-1.4788431666666666,-1.0840775777777778,0.6877502111111111,-3.1574865222222224,-3.4617732,-3.3899648111111116
175,1778428873530,-1.4400002250000001,-0.9630058687499999,0.6875439200000001,-3.212063925,-3.0572143,-3.7638879875000004
176,1778428873540,-1.5279855,-0.87928915,0.75287926,-3.330491925,-2.623741775,-4.1371158
177,1778428873550,-1.7947523444444444,-0.6237965666666666,1.0940678844444445,-3.2585478,-2.382881188888889,-4.312683377777778
178,1778428873560,-1.949580175,-0.437929495,1.276728475,-2.734381425,-2.3654296875000003,-4.384509125
179,1778428873570,-2.0372530749999997,-0.23696504175,1.2633130499999998,-2.145295525,-2.37711205,-4.399474574999999
180,1778428873580,-2.055364,-0.061253577,1.1297001,-1.5779711125,-2.2478416125000003,-4.47529605
181,1778428873590,-2.0441437,0.06320491,1.0000888,-1.342795,-2.0997875,-4.6115913
182,1778428873600,-2.1595364444444445,0.23650769777777775,0.8894387422222222,-1.3024111444444444,-2.1221174222222223,-4.951824977777778
183,1778428873610,-2.1925058,0.28602278,0.85782444,-1.2908729,-2.1284974,-5.0490346
184,1778428873620,-2.1925058,0.28602278,0.85782444,-1.2908729,-2.1284974,-5.0490346
185,1778428873630,-2.479588933333334,0.4012395266666667,0.9629016911111111,-1.4845793555555558,-2.193518677777778,-5.095119588888888
186,1778428873640,-5.11681525,1.4155932500000001,1.9909468750000001,-3.09165065,-2.5736521750000003,-5.35415245
187,1778428873650,-6.138499,1.6934525,2.5532284,-3.2639095999999994,-2.153542,-5.0252113
188,1778428873660,-6.988338537500001,1.7583305375,3.1044379749999997,-2.693683675,-1.3982102925,-4.335813
189,1778428873670,-7.906629866666667,1.7542081,3.5844877,-1.3009010933333334,-0.20214801000000002,-2.8367915444444445
190,1778428873680,-7.968605,1.5843607,3.6926851000000003,0.16912833,0.59840125,-1.4546564
191,1778428873690,-7.968605,1.5843607,3.6926851,0.16912833,0.59840125,-1.4546564
192,1778428873700,-7.01866025,0.9213723375,2.9279757625,2.6077641574999997,1.6398004125,1.7250995624999999
193,1778428873710,-5.6103274249999995,0.121828755,2.0124115500000004,3.619880825,1.885532725,4.52584365
194,1778428873720,-4.7513447,-0.26968038,1.537986,3.431129,1.700446,5.0705667
195,1778428873730,-4.7513447,-0.26968038,1.537986,3.431129,1.700446,5.0705667
196,1778428873740,-3.8671363555555556,-0.4648848733333334,1.2698369333333333,2.3508541555555555,1.7131211,5.187577922222221
197,1778428873750,-3.043935175,-0.631164925,1.076503375,1.3139324625,1.9668518124999999,5.1042398124999995
198,1778428873760,-2.739428,-0.6469585,1.1858313,1.2888113,2.5959482,4.74132
199,1778428873770,-2.447113025,-0.6131988975,1.1621257,1.5896440625,3.117993425,4.5154593375
200,1778428873780,-2.1941964,-0.5580271533333333,1.0853513222222222,1.9433765999999997,3.5927829555555553,4.363545055555555
201,1778428873790,-2.0378017,-0.54225725,1.0249988,2.0854325,3.7657206,4.3369393
202,1778428873800,-2.017980088888889,-0.5461633111111112,1.0158587044444447,2.0958169,3.771421855555556,4.3388397111111106
203,1778428873810,-1.7488444625,-0.6894914375,0.834061585,2.1481971250000003,3.7454099,4.38382175
204,1778428873820,-1.67586,-0.7694656,0.72336537,2.0591662,3.7107444,4.393748
205,1778428873830,-1.6729634875000001,-0.83027326875,0.62973189375,1.6394950000000001,3.9173634,4.3955807
206,1778428873840,-1.678787,-0.856726825,0.6236034500000001,1.4067049,4.102908,4.430399
207,1778428873850,-1.6765916,-0.8651419,0.63768965,1.1244935,4.385807,4.565396
208,1778428873860,-1.6765916,-0.8651419,0.63768965,1.1244935,4.385807,4.565396
209,1778428873870,-1.6856928,-0.9647209,0.769115,0.813572215,4.500340825,4.84058275
210,1778428873880,-1.7124474875,-1.147578375,0.9938308124999999,0.39575267249999996,4.576467699999999,5.2559589375
211,1778428873890,-1.7351623,-1.198515,1.0594215,0.31023404,4.478656,5.4676175
212,1778428873900,-1.7734495750000001,-1.23256045,1.1023699,0.2781645625,4.3670045,5.6197375
213,1778428873910,-1.9196851625,-1.3760292125,1.2639456125,0.19486027625,4.039532875,6.1119084375
214,1778428873920,-1.9248075,-1.4518225,1.2863555,0.2851893,4.091913,6.362585
215,1778428873930,-1.8993093714285716,-1.5359302142857143,1.302863557142857,0.40753328,4.2750582,6.5220161857142855
216,1778428873940,-1.8818476,-1.652444,1.3395599,0.47577366,4.4236794,6.5776033
217,1778428873950,-1.9145325,-1.7010139,1.3666651,0.4592808,4.5049224,6.587377
218,1778428873960,-1.9610222444444443,-1.7327365222222222,1.426109688888889,0.4262950422222222,4.601232455555556,6.6726919
219,1778428873970,-1.9865488,-1.751535,1.463805,0.43118182,4.6350327,6.7797937
220,1778428873980,-1.9760604,-1.7781221,1.4725859,0.48860145,4.569672,6.982595
221,1778428873990,-1.83178365,-1.8495210375,1.43014435,0.6262711525,4.456817925,7.328487175
222,1778428874000,-1.6583962666666667,-1.861277277777778,1.3468468222222223,0.72520298,4.351599366666666,7.63274
223,1778428874010,-1.4855136,-1.8703835,1.264403,0.7256102,4.3283873,7.694232
224,1778428874020,-1.2883204444444445,-1.8517103444444443,1.1641804222222223,0.6816291777777779,4.261601255555556,7.697489777777779
225,1778428874030,-0.96629875,-1.787162275,1.043734725,0.63741908125,4.221870937499999,7.5286925
226,1778428874040,-0.68088577,-1.7235685250000001,0.9264717,0.5964159625,4.24172345,7.223345375
227,1778428874050,-0.3671250833333333,-1.6362438,0.8332498500000001,0.6274673822222222,4.322550377777778,6.841014111111111
228,1778428874060,-0.16278389,-1.5399374,0.76507515,0.68773764,4.3149486,6.480479
229,1778428874070,0.19216823500000002,-1.4436399500000001,0.69930526875,0.7321767687499999,4.2915072625,5.9993504875
230,1778428874080,0.682852335,-1.239142475,0.65855215,0.6768951274999999,4.48170975,5.65972915
231,1778428874090,1.2612321,-0.9569156,0.6977236,0.62970716,4.556844,5.4957166
232,1778428874100,2.0763482625,-1.021221975,0.7547124625,0.5155550925,4.408713687500001,5.168149825
233,1778428874110,3.2676298,-1.2099894,0.9636537333333334,0.2725651333333333,4.140221066666666,4.697135333333333
234,1778428874120,4.097731625,-1.3771612,1.250431125,0.0808609075,3.549328,4.340146
235,1778428874130,4.895918944444444,-1.4665997555555554,1.5417600111111112,-0.06034661999999999,1.7794235333333335,3.8788034999999996
236,1778428874140,5.335342,-1.5157592,1.618997,-0.08437328,0.1866902,3.5636065
237,1778428874150,5.7873269375,-1.49747685,1.46956745,-0.488906875,-1.2019373999999998,3.10591025
238,1778428874160,6.3442049888888885,-1.6509059333333331,1.4684969444444445,-0.9861874666666667,-2.5222901,2.048629
239,1778428874170,6.6042194875,-1.8075520875,1.5265791875,-1.1204466124999999,-3.3049985625000002,0.9684124562499999
240,1778428874180,6.463933888888889,-1.8832095555555552,1.4781959444444444,-1.096479322222222,-3.8887637777777777,-0.7723484888888889
241,1778428874190,5.991126875,-2.0150413499999997,1.4750861,-0.97384319125,-3.9712707125,-2.838607275
242,1778428874200,5.135089711111111,-2.245703622222222,1.5197770777777777,-0.720672481111111,-3.952088522222222,-5.216278933333333
243,1778428874210,4.2249417,-2.3848343,1.5611582,-0.55106056,-3.9653914,-7.0953727
244,1778428874220,3.232185575,-2.5160309375,1.763967275,-0.577403385,-4.359769775,-8.5774883875
245,1778428874230,1.9506626,-2.7152498,2.0641448,-0.5919874,-4.839514,-9.989643
246,1778428874240,0.7667826,-2.9307504,2.3230927,-0.37513658,-5.2719936,-10.9841795
247,1778428874250,-0.5090693475,-3.2218418499999997,2.470784375,0.08299887,-5.3959956,-11.689096
248,1778428874260,-1.2672183111111108,-3.489031711111111,2.4439602333333332,1.0228382677777779,-4.848269166666666,-12.474171111111112
249,1778428874270,-1.8323021,-3.7175646,2.3443136,1.6754013250000002,-4.064940175,-12.892332375
250,1778428874280,-2.1962638,-3.8565512,2.3256844625,2.3012143750000003,-3.26421495,-13.141614875
251,1778428874290,-2.3931274,-4.001392,2.3289468,2.8386073,-2.7423987,-13.247444
252,1778428874300,-2.6429252222222224,-4.106547333333333,2.2735101777777778,3.7138241333333335,-2.3674064555555554,-13.081420666666666
253,1778428874310,-2.85974,-4.139266,2.1886034,4.5453906,-2.3007562,-12.59987
254,1778428874320,-3.2060406666666665,-3.9426588666666667,1.8831484,5.166011655555555,-3.033586222222222,-11.207188666666667
255,1778428874330,-3.3727197999999996,-3.63896985,1.533709875,5.263747425,-4.145133125,-9.326701875
256,1778428874340,-3.4613302,-3.3175716,1.1482377,5.0053587,-5.166317,-7.4111805
257,1778428874350,-3.413469,-2.864931025,0.715605775,3.93620435,-6.26051635,-4.7865036
258,1778428874360,-3.25849815,-2.526164975,0.4593141375,3.151361,-6.7576504,-3.2640624
259,1778428874370,-2.998945255555556,-2.2665685555555557,0.25828402333333333,2.1363958000000003,-7.204451355555556,-1.680126871111111
260,1778428874380,-2.4835726,-2.0096338142857144,0.03835154342857143,0.38650269285714284,-7.630114914285714,0.30433282285714286
261,1778428874390,-1.9963124444444442,-1.843268188888889,-0.07917467244444444,-0.8129274055555555,-7.7705712,1.1261138888888889
262,1778428874400,-1.4874953625,-1.727090025,-0.1163177625,-1.9446321874999999,-7.733937125,1.4720655249999999
263,1778428874410,-1.1975393,-1.6802504,-0.10640865,-2.73797,-7.650709,1.5648379
264,1778428874420,-0.9314229688888889,-1.658677288888889,-0.03468359222222222,-3.594938,-7.31542201111111,1.241835502222222
265,1778428874430,-0.6080804399999999,-1.6564990750000002,0.1534769425,-4.37297925,-6.693797725,0.527905635
266,1778428874440,-0.49252114,-1.660310275,0.25532740125,-4.7081051875,-6.06090285,-0.178749185
267,1778428874450,-0.3919436188888889,-1.6838855888888888,0.38381983777777784,-4.850492166666666,-5.1832171111111105,-1.122355488888889
268,1778428874460,-0.37828425,-1.7188199,0.53372014,-4.8222575,-4.199346,-2.1974466
269,1778428874470,-0.4177818322222222,-1.7456133888888887,0.6793418166666666,-4.699273344444445,-3.5200158,-3.1151428
270,1778428874480,-0.493210945,-1.707340375,0.7921537200000001,-4.507670925,-2.9428329125,-4.29205125
271,1778428874490,-0.7373092777777779,-1.4586555111111112,0.8975218766666667,-4.419369666666666,-2.7604526,-5.348010444444444
272,1778428874500,-1.1984464750000001,-1.182035425,1.075588675,-4.470103975,-2.7159033375,-6.0951868750000004
273,1778428874510,-1.6690303,-0.9363961000000001,1.2902887,-4.57914,-2.5902977,-6.709317
274,1778428874520,-1.953741975,-0.78036947625,1.4518758375,-4.34050875,-2.5168433749999997,-6.741997400000001
275,1778428874530,-2.882085533333333,-0.29204279777777775,1.9421491000000002,-3.4527972222222223,-2.3336062111111113,-6.6692728
276,1778428874540,-3.5331254,-0.056321882499999996,2.1396827,-2.4102505,-2.201493475,-6.2156
277,1778428874550,-4.0113926,0.07344941,2.2271726,-1.654327,-2.0118256,-5.762504
278,1778428874560,-4.555702666666667,0.15163485666666665,2.147940333333333,-0.5695217633333334,-1.5394369444444445,-4.935332
279,1778428874570,-4.76908155,0.2295941775,1.9762776499999999,0.17340427,-1.2508528625,-4.32716575
280,1778428874580,-5.131995175,0.35359150749999996,1.5927910875,0.70789564,-1.1064734,-3.6788275
281,1778428874590,-5.6109474,0.3315843766666667,1.4008237,0.29733837555555553,-0.8860254755555556,-3.1047669333333334
282,1778428874600,-6.0798365875,0.22198322125,1.451841625,-0.69713899,-0.620773495,-2.4158914625
283,1778428874610,-6.549802877777777,0.04796011466666667,1.8493761666666666,-1.8862455333333332,-0.5544032555555556,-1.4910357333333333
284,1778428874620,-6.82989535,-0.0031861604999999984,2.3837213999999998,-2.6454268499999998,-0.6930825549999999,-0.28547561749999995
285,1778428874630,-6.9082384,0.08540133,2.8079991,-2.8149369,-0.992245,0.9167290299999998
286,1778428874640,-6.7427715,0.1713743325,2.872309325,-2.3335701625,-1.0124125125,1.6664867562499999
287,1778428874650,-6.3571696,0.29895037,2.8987973,-1.1099858,-0.9830823,3.4084513
288,1778428874660,-5.8346696,0.1979079,2.6437519,-0.17538951,-0.24456798,4.2954016
289,1778428874670,-5.8346696,0.1979079,2.6437519,-0.17538951,-0.24456798,4.2954016
290,1778428874680,-5.8346696,0.1979079,2.6437519,-0.17538951,-0.24456798,4.2954016
291,1778428874690,-4.703221533333333,-0.2391094617777778,2.229066411111111,0.8285464744444445,1.2918911511111113,5.110204022222222
292,1778428874700,-3.496436542857143,-0.6518019542857143,1.7620845571428572,1.7212803571428572,2.5772737571428572,5.674105657142857
293,1778428874710,-2.6964276,-0.8212064244444445,1.382767,2.2346829444444443,3.1883341222222223,5.651278888888889
294,1778428874720,-2.4194705,-0.8092545,1.1829044,2.3658113,3.4572427,5.545806
295,1778428874730,-2.4194705,-0.8092545,1.1829044,2.3658113,3.4572427,5.545806
296,1778428874740,-1.901996857142857,-0.8147252342857143,0.7811648914285714,2.1488732571428573,4.314119685714286,5.336110942857142
297,1778428874750,-1.8420587,-0.81242543,0.73775643,2.002968,4.4548326,5.330177
298,1778428874760,-1.8420587,-0.81242543,0.73775643,2.002968,4.4548326,5.330177
299,1778428874770,-1.8420587,-0.81242543,0.73775643,2.002968,4.4548326,5.330177
300,1778428874780,-1.8420587,-0.81242543,0.73775643,2.002968,4.4548326,5.330177
301,1778428874790,-1.8230331285714285,-1.176418832857143,0.9458870614285715,1.0002405685714286,4.125956657142857,6.065353571428572
302,1778428874800,-1.8198622,-1.2370844,0.9805755,0.83311933,4.071144,6.187883
303,1778428874810,-1.8232073714285715,-1.4017063714285716,0.9649953142857143,0.7230795514285715,3.5889238000000003,6.669405
304,1778428874820,-1.8196183,-1.6563467,0.913224,0.55212957,2.807912,7.4798245
305,1778428874830,-1.7501859249999998,-1.7332490375,0.88031050875,0.47378839874999995,2.6768852625,7.7540949999999995
306,1778428874840,-1.62486615,-1.8990438,0.8840607,0.35314606875,2.498517875,8.0959405
307,1778428874850,-1.598264,-1.9640781000000003,0.9227367,0.3248944,2.4542315,8.098613
308,1778428874860,-1.598264,-1.9640781,0.9227367,0.3248944,2.4542315,8.098613
309,1778428874870,-1.6143692555555555,-2.0062823555555553,0.9986896888888889,0.4523578444444445,2.5154520000000002,7.792782133333333
310,1778428874880,-1.6679021250000001,-2.0141305000000003,1.0925637625,0.79326154375,2.9122906875,7.3304725625
311,1778428874890,-1.68147,-1.977524,1.1104002,1.0078217,3.228786,7.194559
312,1778428874900,-1.6690303,-1.9780118,1.1214069,1.2936982,3.6295018,7.0693355
313,1778428874910,-1.6040226625,-1.9413061,1.098269175,1.4840438625,3.9186614750000004,6.9896960625
314,1778428874920,-1.549938,-1.9172459999999998,1.087472,1.5112361,3.95997,6.978319
315,1778428874930,-1.4411397625,-1.9160913000000002,1.0471952,1.7134266,4.099243325,6.944112
316,1778428874940,-1.250038625,-1.9052521999999998,1.0202310625,1.7189242500000002,3.8562787,6.93601825
317,1778428874950,-1.1313160288888888,-1.8685068111111112,0.9852607266666666,1.7010738555555553,3.3244853222222224,6.8961264
318,1778428874960,-0.93152540125,-1.7658042875,0.8776617062500001,1.6805171125,2.5915958750000003,6.8247673375
319,1778428874970,-0.82765502375,-1.743813625,0.8187901875,1.6450116,2.1880549375,6.79055985
320,1778428874980,-0.5912336899999999,-1.6543039000000002,0.6806494666666667,1.5501267333333333,1.4163766333333332,6.768798333333334
321,1778428874990,-0.39503830250000005,-1.584840975,0.5491021700000001,1.4782313,0.9342145,6.860578125
322,1778428875000,-0.026891815000000013,-1.5030298,0.425794665,1.436483675,0.3781907875,7.010541225
323,1778428875010,0.4955065266666667,-1.4162005666666666,0.19962546933333336,1.3892617666666667,-0.3340231611111111,6.939971422222222
324,1778428875020,0.8813470999999999,-1.38654435,-0.003944587999999999,1.3152305,-0.94185010625,6.502545124999999
325,1778428875030,1.1517364749999999,-1.32033235,-0.17706443875,1.1551121625,-0.8606074162499999,5.7495136250000005
326,1778428875040,1.4709835,-1.0395423511111113,-0.3837147877777778,1.0296763555555555,0.17426963777777776,4.3105369555555555
327,1778428875050,1.7256494375,-0.92250811375,-0.4731716425,1.2689779,1.46399095,3.2566368
328,1778428875060,2.311061,-0.7120308625,-0.46436397,1.617218125,2.8622776,2.3146529625
329,1778428875070,2.725152188888889,-0.6671629,-0.39244836000000005,1.7897825,3.4975586,1.9069124
330,1778428875080,3.436244775,-0.9449560499999999,-0.1822514875,2.0419860375,2.6474597125,1.8956880875
331,1778428875090,3.8860269,-1.33694535,-0.1856586975,1.912247725,1.1932901274999999,2.1392634
332,1778428875100,4.2409868500000005,-1.52614845,-0.454599695,0.6616239749999999,-0.522064435,2.5505927
333,1778428875110,4.804802933333333,-1.5078014,-0.6096392,-0.7158111666666667,-1.4178783,2.7034572999999997
334,1778428875120,5.1874676,-1.5406692,-0.6096392,-1.3678397,-1.6691401,2.5776227
335,1778428875130,5.584180777777778,-1.635004,-0.3744425911111111,-2.170425188888889,-2.1078642333333333,1.3731421955555556
336,1778428875140,5.9161185750000005,-1.909882825,0.41628190625000006,-2.6839865124999998,-2.8232598125,-0.07666134499999999
337,1778428875150,5.572714425,-2.098251275,0.64130646375,-2.9264163875,-3.3578274500000003,-1.9729698875000001
338,1778428875160,4.836833977777777,-2.365490344444444,0.9352544533333335,-2.9756575,-3.2788584666666667,-4.001838488888889
339,1778428875170,3.9843178,-2.5388067,1.2949232,-2.8735783,-2.9720774,-5.779608
340,1778428875180,2.665300375,-2.836423125,1.93931285,-2.7393445,-3.16052375,-7.94462225
341,1778428875190,1.633591211111111,-3.0883474777777775,2.2646713888888885,-2.585733411111111,-3.4114121777777777,-9.200844444444444
342,1778428875200,0.31779291428571427,-3.4157438285714288,2.5395819857142854,-2.2465870714285714,-3.619749914285714,-10.47639
343,1778428875210,-0.6668072,-3.6367062,2.6141566666666667,-1.9215388333333334,-3.556047355555555,-11.296186222222223
344,1778428875220,-1.28746845,-3.7124423,2.63455165,-1.7257962,-3.3935618,-11.770339
345,1778428875230,-1.827552488888889,-3.7501001333333335,2.707078777777778,-1.4010206444444444,-3.010357177777778,-12.220194555555556
346,1778428875240,-2.2328323625,-3.8105841375,2.807667675,-1.0311866,-2.6471066,-12.378743
347,1778428875250,-2.542229,-3.7426344,2.8090435,-0.278928125,-2.4157482249999997,-12.119591250000001
348,1778428875260,-2.779464377777778,-3.5439195222222226,2.637796155555556,0.5236912222222222,-2.4142380111111112,-11.51996011111111
349,1778428875270,-2.832227025,-3.11809355,2.17147185,1.122202775,-2.6799395749999997,-10.283671
350,1778428875280,-2.8221464,-2.9471233,1.9814266,1.2252833,-2.9965112,-9.475921
351,1778428875290,-2.772357,-2.7318668,1.7495838,1.04264,-3.5994174,-8.230403
352,1778428875300,-2.6579065,-2.511244075,1.604369625,0.575799917,-4.55531725,-6.756428812499999
353,1778428875310,-2.4945292222222224,-2.3383714555555555,1.4759601222222223,-0.014057968666666667,-5.583457733333334,-5.308966977777778
354,1778428875320,-2.303366125,-2.256404425,1.3656132,-0.32245098625,-6.0076827625,-4.663895075
355,1778428875330,-2.1307645,-2.2035127,1.2834285,-0.73187137,-6.389844,-3.9866946
356,1778428875340,-2.038518325,-2.1970869250000002,1.270439925,-0.9329928175,-6.46503555,-3.8341355249999998
357,1778428875350,-1.8712181125,-2.3500227000000002,1.2575352625,-1.379426675,-6.4815285,-3.9645513500000003
358,1778428875360,-1.8520118,-2.354253188888889,1.2221478888888888,-1.7424926666666665,-6.274733155555555,-4.366641477777779
359,1778428875370,-1.8945312,-2.3147693,1.2075399,-1.9078287,-5.918881,-4.6916122
360,1778428875380,-1.9528045,-2.2323711999999998,1.225185825,-1.874995725,-5.257409512500001,-5.169981925
361,1778428875390,-2.0275676222222225,-2.106864088888889,1.1657895444444444,-1.6382414222222221,-4.568297688888888,-5.6539768666666665
362,1778428875400,-2.1205925,-1.9167048125000001,1.046318675,-1.465575275,-4.0686055,-5.905289575
363,1778428875410,-2.1538795875,-1.805429175,0.9845696075,-1.3789113125,-3.7193726875,-6.032345975
364,1778428875420,-2.2554060666666667,-1.5877654333333333,1.0108415400000001,-1.3811426333333334,-3.510301611111111,-6.097723455555556
365,1778428875430,-2.38061155,-1.36965315,1.093943475,-1.362342125,-3.529475425,-6.036774449999999
366,1778428875440,-2.49399465,-1.1850272625,1.1442092625,-1.179460175,-3.5631483625,-5.88978955
367,1778428875450,-2.6129268666666667,-0.9351968333333333,1.0575312666666667,-0.6698364688888889,-3.614145777777778,-5.6649044
368,1778428875460,-2.6966320625,-0.76137064125,0.9149428625,-0.44843826,-3.573762,-5.6055164
369,1778428875470,-2.93991245,-0.47808429,0.6485439399999999,-0.31588438,-3.582313725,-5.434936899999999
370,1778428875480,-3.2206757,-0.19327347,0.4592950599999999,-0.5192965,-3.7857258,-5.2970386
371,1778428875490,-3.2206757,-0.19327347,0.45929506,-0.5192965,-3.7857258,-5.2970386
372,1778428875500,-3.2206757,-0.19327347,0.4592950599999999,-0.5192965,-3.7857258,-5.2970386
373,1778428875510,-3.2206757,-0.19327347,0.45929506,-0.5192965,-3.7857258,-5.2970386
374,1778428875520,-3.2206757,-0.19327347,0.4592950599999999,-0.5192965,-3.7857258,-5.2970386
375,1778428875530,-3.2206757,-0.19327347,0.45929506,-0.5192965,-3.7857258,-5.2970386
376,1778428875540,-3.2206757,-0.19327347,0.45929506,-0.5192965,-3.7857258,-5.2970386
377,1778428875550,-3.2206757,-0.19327347,0.4592950599999999,-0.5192965,-3.7857258,-5.2970386
378,1778428875560,-3.2206757,-0.19327347,0.45929506,-0.5192965,-3.7857258,-5.2970386
379,1778428875570,-3.2937854000000004,-0.1328561842857143,0.44963857999999995,-0.6258566285714287,-3.833295542857143,-5.290493799999999
380,1778428875580,-6.09189218,-1.11348564,2.36764434,1.1623659,1.4589628600000002,5.32993236
381,1778428875590,-5.2435985,-1.4118202,2.2227821,0.9369632999999999,1.3717339,5.7034044
382,1778428875600,-5.2435985,-1.4118202,2.2227821,0.9369632999999999,1.3717339,5.7034044
383,1778428875610,-4.064631628571428,-1.3655761857142856,2.0561522,0.25682854285714285,1.8461657714285715,5.917091785714285
384,1778428875620,-3.6648479,-1.2729402,2.0277708,0.15263546,2.2386024,5.9368243
385,1778428875630,-3.6648479,-1.2729402,2.0277708,0.15263546,2.2386024,5.9368243
386,1778428875640,-3.006327177777778,-1.0837489444444446,1.9343879111111113,0.6977148522222223,3.175642088888889,6.057229288888888
387,1778428875650,-2.3352039777777778,-0.9793762766666667,1.717664511111111,1.2022747,3.6427367333333334,6.202339233333333
388,1778428875660,-2.1017385,-0.9393230699999999,1.586312,1.2882005,3.6557681999999994,6.2117057
389,1778428875670,-2.1017385,-0.9393230699999999,1.586312,1.2882005,3.6557681999999994,6.2117057
390,1778428875680,-2.1017385,-0.9393230699999999,1.586312,1.2882005,3.6557681999999994,6.2117057
391,1778428875690,-2.1017385,-0.9393230699999999,1.586312,1.2882005,3.6557681999999994,6.2117057
392,1778428875700,-2.1017385,-0.93932307,1.586312,1.2882005,3.6557682,6.2117057
393,1778428875710,-1.6273781,-1.148556211111111,1.2811621888888889,1.6747395777777778,5.033296455555556,5.2677430888888885
394,1778428875720,-1.6539311,-1.1918446555555553,1.2358648333333333,1.6144693,5.2953587,5.2110615
395,1778428875730,-1.6585418,-1.1955881,1.23245,1.6144693,5.2953587,5.2110615
396,1778428875740,-1.6585418,-1.1955881,1.23245,1.6144693,5.2953587,5.2110615
397,1778428875750,-1.6585418,-1.1955881,1.23245,1.6144693,5.2953587,5.2110615
398,1778428875760,-1.6585418,-1.1955881,1.23245,1.6144693,5.2953587,5.2110615
399,1778428875770,-1.6754711625,-1.605310925,1.3188002625,0.768235865,4.4556249,6.600185475
400,1778428875780,-1.6391368666666668,-1.9014761888888891,1.406183011111111,0.27623021666666664,3.695473166666667,7.423626666666667
401,1778428875790,-1.6617128,-1.9377351,1.4223086,0.25831205,3.5232143,7.506702
402,1778428875800,-1.6617128,-1.9377351,1.4223086,0.25831205,3.5232143,7.506702
403,1778428875810,-1.6617128,-1.9377351,1.4223086,0.25831205,3.5232143,7.506702
404,1778428875820,-1.6617128,-1.9377351,1.4223086,0.25831205,3.5232143,7.506702
405,1778428875830,-1.6617128,-1.9377351,1.4223086,0.25831205,3.5232143,7.506702
406,1778428875840,-1.6535720875,-2.03029,1.4427519125,0.5241069425,3.4434987125,7.58847905
407,1778428875850,-1.6451265,-2.0556076,1.4596584,0.8234220875,3.392493075,7.56877945
408,1778428875860,-1.6091691666666668,-2.0154936666666665,1.4464563666666668,1.0204458,3.401655633333333,7.6398666
409,1778428875870,-1.5562799,-2.009965,1.4313335,1.1910758,3.4028773,7.725385
410,1778428875880,-1.5562799,-2.009965,1.4313335,1.1910758,3.4028773,7.725385
411,1778428875890,-1.5562799,-2.009965,1.4313335,1.2137450222222221,3.3972439444444444,7.738620055555556
412,1778428875900,-1.14191865,-1.959752275,1.2216070874999998,1.4924429874999998,2.779736875,8.0166064375
413,1778428875910,-0.949842,-1.926271,1.1336027,1.458016,2.20806,8.123047
414,1778428875920,-0.45555840999999997,-2.0449602000000002,1.036242711111111,1.1709178333333332,0.49435360000000006,8.163159333333333
415,1778428875930,0.0647903625,-2.0524749,0.86496279375,0.9646805500000001,-0.731041025,8.078149875
416,1778428875940,0.4150546925,-1.9791931999999999,0.64745391875,0.62588936,-2.2945714,7.816248874999999
417,1778428875950,0.81266934,-1.8986778,0.3228847,0.27846998,-2.961082,7.434622
418,1778428875960,1.512603605,-1.768830375,-0.03714774625,0.29771169125,-1.5196925399999999,6.1033374625
419,1778428875970,2.33746125,-1.7678242375000002,-0.083922585,0.7857118624999999,1.2936313225,4.435810324999999
420,1778428875980,3.235829,-1.8698957,0.11104306,1.7879499,3.7272372,2.8787704
421,1778428875990,4.183658899999999,-1.835168025,0.09449483374999999,3.6263807124999996,5.2423678,1.20252911875
422,1778428876000,4.6833487499999995,-1.829710425,-0.39916962500000003,4.7686553,4.846357375,0.3820563225
423,1778428876010,4.87824215,-1.8679977250000002,-0.854280025,4.6932824125,3.7157745249999996,0.303447915
424,1778428876020,4.8767786,-2.0080135,-1.3122412,3.3425562,1.3821182,0.83854055
425,1778428876030,5.0637593125,-1.9764186125,-1.507332575,0.8417570625,-1.1958289625,1.64127019375
426,1778428876040,5.5322546875,-1.9067881249999998,-1.5658421749999998,-1.31035325,-3.0711204875,1.964790225
427,1778428876050,5.670669577777778,-1.9203119333333332,-1.4071078,-2.8349759444444445,-3.8823839333333336,1.3271336022222222
428,1778428876060,5.62509985,-2.006496725,-0.892300525,-4.027545025,-3.7202697750000002,-0.46798534249999996
429,1778428876070,5.4004984,-2.0736575,-0.5381107,-4.34824,-2.9830725,-2.0874941
430,1778428876080,4.165254200000001,-2.123630125,0.51252990625,-4.37366635,-1.5970506999999998,-4.9630670624999995
431,1778428876090,3.1429068222222223,-2.1377637222222226,1.1944497777777778,-3.8412197666666668,-0.8318637,-7.6516676666666665
432,1778428876100,2.2465525562499997,-2.1615286625000003,1.664464525,-3.23939945,-0.9305589750000001,-8.937230249999999
433,1778428876110,0.6627063,-2.2077127,2.2129569,-2.226080075,-1.2531531249999999,-9.83907
434,1778428876120,-0.09323715,-2.3257759,2.3709006,-1.4069339,-1.425412,-10.182672
435,1778428876130,-1.0365315,-2.510268525,2.19800175,-0.0074065299999999945,-1.6550906250000001,-10.4258645
436,1778428876140,-1.6248432375,-2.5370993250000002,1.8223700250000001,0.779822875,-1.75664395,-10.4081315
437,1778428876150,-1.9701589000000002,-2.5459717555555557,1.519817633333333,0.9578679222222222,-1.7418988222222223,-10.224616222222222
438,1778428876160,-2.152175825,-2.68806095,1.382519675,0.8844304925,-1.742441775,-9.9466555
439,1778428876170,-2.195189,-2.7374768,1.3949594,0.73904884,-1.7766492,-9.75691
440,1778428876180,-2.219813275,-2.7939701,1.4828380374999999,0.8050203325,-1.8685817249999999,-9.40842275
441,1778428876190,-2.1849408374999997,-2.8352035,1.5947614625,0.99499382625,-1.9498243625,-9.1462155
442,1778428876200,-2.1106819444444445,-2.926254722222222,1.6745048777777776,1.3665331777777778,-2.206685733333333,-8.924393555555556
443,1778428876210,-2.1066167,-2.9262987000000003,1.601625475,1.8353669125,-2.702540825,-8.597216875
444,1778428876220,-2.1139343,-2.7708933,1.4623414,2.0304563,-3.1632726,-8.253005
445,1778428876230,-2.1635036333333333,-2.579561011111111,1.280548911111111,1.954168222222222,-3.903780688888889,-7.532722244444445
446,1778428876240,-2.1870177625,-2.3924452875,1.1046871125,1.7646518125,-4.4352857,-6.907231725000001
447,1778428876250,-2.1844871625,-2.1469811874999998,0.9082618125,1.20772135,-5.097901975,-5.9416348875
448,1778428876260,-2.144065575,-1.961837025,0.79682239,0.7970792950000001,-5.313836575,-5.3915480250000005
449,1778428876270,-2.0738061,-1.7907333875,0.7227517725,0.2070772325,-5.4840338625000005,-4.66664425
450,1778428876280,-1.955659511111111,-1.6292040666666667,0.6999256666666667,-0.3660417177777778,-5.536218866666666,-4.026874777777778
451,1778428876290,-1.830922475,-1.5138307125,0.7406567562499999,-0.75752693,-5.522441,-3.641566
452,1778428876300,-1.6937573333333333,-1.4232029666666668,0.8688819999999999,-1.15039507,-5.483889788888889,-3.3732004444444446
453,1778428876310,-1.577736875,-1.4228574,0.9956450125,-1.366770775,-5.420353275,-3.2443625375
454,1778428876320,-1.4576662888888887,-1.446944188888889,1.0489466466666668,-1.1684150777777778,-5.226926588888889,-3.385553077777778
455,1778428876330,-1.3681781499999999,-1.4184859375,0.9230683225,-0.7393542625,-4.8213412,-3.7000546
456,1778428876340,-1.3202904,-1.3625185,0.80852276,-0.4685962000000001,-4.462621,-3.957985
457,1778428876350,-1.279282,-1.2898009,0.66406316,-0.2902288,-4.1064973,-4.275625
458,1778428876360,-1.2840764625,-1.18655935,0.5395093762500001,-0.2709107575,-3.8173756,-4.61167705
459,1778428876370,-1.3787898333333333,-1.0152116666666666,0.3874514622222222,-0.3926475066666667,-3.227683055555555,-5.305114977777778
460,1778428876380,-1.646708075,-0.9711542612499999,0.5525246512499999,-0.5294518525,-3.238864875,-5.729670875
461,1778428876390,-1.8242527,-0.94691503,0.63061607,-0.53212434,-3.3434725,-5.881619
462,1778428876400,-2.282890722222222,-0.9277065855555556,0.6854973233333334,-0.45135675333333336,-3.543490888888889,-5.998019433333334
463,1778428876410,-2.7826319,-0.8026688,0.658697,-0.41606334,-4.0118155,-6.21392
464,1778428876420,-3.2922041,-0.636714,0.6093953,-0.75874865,-4.0057073,-6.361134
465,1778428876430,-3.2922041,-0.636714,0.6093953,-0.75874865,-4.0057073,-6.361134
466,1778428876440,-3.2922041,-0.636714,0.6093953,-0.75874865,-4.0057073,-6.361134
467,1778428876450,-3.2922041,-0.636714,0.6093953,-0.75874865,-4.0057073,-6.361134
468,1778428876460,-3.2922041,-0.636714,0.6093953,-0.75874865,-4.0057073,-6.361134
469,1778428876470,-5.305200757142857,-0.3984553085714286,1.04281779,-1.0030984714285716,-2.9318814142857144,-4.709959514285714
470,1778428876480,-7.830732000000001,-0.17156488,1.4830743,-1.0024767,-1.657534,-2.0068624
471,1778428876490,-7.830732,-0.17156488,1.4830743,-1.0024767,-1.657534,-2.0068624
472,1778428876500,-7.830732000000001,-0.17156488,1.4830743,-1.0024767,-1.657534,-2.0068624
473,1778428876510,-7.830732,-0.17156488,1.4830743,-1.0024767,-1.657534,-2.0068624
474,1778428876520,-7.830732,-0.17156488,1.4830743,-1.0024767,-1.657534,-2.0068624
475,1778428876530,-6.1749065000000005,-0.5849291037222222,1.8132087444444442,-0.48143247755555557,0.7784654077777777,5.294043455555556
476,1778428876540,-5.01319798,-0.81965456,1.6711219200000003,-0.0910925954,1.01237237,6.889929480000001
477,1778428876550,-4.494378,-0.8490435,1.5142956,0.051845662,1.0931876,7.2984033
478,1778428876560,-4.494378,-0.8490435,1.5142956,0.051845662,1.0931876,7.2984033
479,1778428876570,-4.494378,-0.8490435,1.5142956,0.051845662,1.0931876,7.2984033
480,1778428876580,-4.494378,-0.8490435,1.5142956,0.051845662,1.0931876,7.2984033
481,1778428876590,-4.494378,-0.8490435,1.5142956,0.051845662,1.0931876,7.2984033
482,1778428876600,-2.5318212,-0.9786885222222222,1.0517551233333333,0.8171693915555556,3.568230288888889,6.256908555555556
483,1778428876610,-1.8937995,-1.0113395,0.913224,1.0298121,4.4505568,5.8177094
484,1778428876620,-1.794235875,-0.995584025,0.890516925,1.009196025,4.6493875,5.69029055
485,1778428876630,-1.761048,-0.9903322,0.8829479,1.002324,4.7156644,5.6478176
486,1778428876640,-1.761048,-0.9903321999999999,0.8829478999999999,1.002324,4.7156644,5.6478176
487,1778428876650,-1.761048,-0.9903322,0.8829479,1.002324,4.7156644,5.6478176
488,1778428876660,-1.761048,-0.9903322,0.8829479,1.002324,4.7156644,5.6478176
489,1778428876670,-1.8285620333333332,-1.2428977555555556,1.0546753555555555,0.4630137389533333,4.195044433333333,6.339135388888889
490,1778428876680,-1.9206609,-1.5257903,1.2285168,-0.00068720314,3.6551573,7.0632267
491,1778428876690,-1.9399302,-1.6504927,1.2919961,-0.022066858,3.4554102,7.362542
492,1778428876700,-1.9399302,-1.6504927,1.2919961,-0.022066858,3.4554102,7.362542
493,1778428876710,-1.9399302,-1.6504927,1.2919961,-0.022066858,3.4554102,7.362542
494,1778428876720,-1.9399302,-1.6504927,1.2919961,-0.022066858,3.4554102,7.362542
495,1778428876730,-1.9399302,-1.6504927,1.2919961,-0.022066858,3.4554102,7.362542
496,1778428876740,-1.942206766666667,-1.6795865333333333,1.3070173111111112,-0.02233834555555556,3.420388288888889,7.403400922222223
497,1778428876750,-2.0239289875,-2.15522095,1.5418849625,1.245908875,2.3784101625000003,8.6883855
498,1778428876760,-1.9416454,-2.19752905,1.447935075,1.5662123749999999,2.6057216375,8.830408250000001
499,1778428876770,-1.8007453999999998,-2.159414566666667,1.3769096666666667,1.8803914666666666,3.1569096,8.777951666666667
500,1778428876780,-1.7590966,-2.1688461,1.3578842,1.9699824,3.421203,8.708315
501,1778428876790,-1.6149112749999999,-2.1055117,1.313155875,2.0561118,4.116518624999999,8.34881175
502,1778428876800,-1.4027723875,-2.066980375,1.3445411625,1.9825811249999998,4.372444649999999,7.9460536125
503,1778428876810,-1.2886490333333331,-2.016215088888889,1.353622411111111,1.8644416000000001,4.152242822222222,7.713304233333334
504,1778428876820,-1.1815552,-1.92588985,1.3076525749999999,1.70563825,3.6351520500000003,7.5071601249999995
505,1778428876830,-1.1233582,-1.8405952,1.2170528,1.5998089,3.2214558,7.4004145
506,1778428876840,-0.9386116777777777,-1.7922556666666667,1.0590049,1.4613247666666667,2.6647701666666666,7.210033999999999
507,1778428876850,-0.8095747125,-1.8029672875,0.9621788325,1.4401487375,2.3797845875,7.012679374999999
508,1778428876860,-0.56868792375,-1.7987139625000002,0.72179516125,1.4300698,2.2202772,6.6087564
509,1778428876870,-0.4217590566666667,-1.7863779444444445,0.5203352433333334,1.2902366666666667,2.3666767666666666,6.142272633333333
510,1778428876880,-0.078369665,-1.6347866375,0.27199376,0.9633061375,2.8924380125,5.5302580125
511,1778428876890,0.33776362,-1.47935465,0.15955197999999998,0.76256645,3.2121402,5.18296275
512,1778428876900,0.8897504444444445,-1.3246030777777777,0.16948819555555553,0.41787892444444447,3.6418544000000006,4.611277222222222
513,1778428876910,1.530740975,-1.34417145,0.4636207875,0.10208784625,3.65118675,4.1581898125
514,1778428876920,1.952701575,-1.258232775,0.670603125,0.0038941550000000033,3.6598912500000003,4.0041801249999995
515,1778428876930,3.1036262666666667,-1.2437412666666665,0.9074411666666666,0.35754078888888885,3.7175313777777776,4.230108733333333
516,1778428876940,4.4254184,-1.734045525,0.9427760875,1.1083251,3.1971744749999997,4.318919325
517,1778428876950,5.3103912,-2.1272344666666667,0.8352960633333333,1.4849697,2.4114723,3.9881453999999996
518,1778428876960,6.0158157375000005,-2.5285088,0.70146241125,1.227802975,1.11662873125,3.1208090625000002
519,1778428876970,6.5765956875,-2.9509610625,0.46915844249999994,0.47417015249999994,-0.66659660625,1.54528127125
520,1778428876980,6.643571822222222,-2.7333505,0.27732647111111114,-0.42176458666666666,-1.8664438,-0.1321720533333333
521,1778428876990,6.536303525,-2.4879347,0.22014242,-1.090467375,-2.3222885250000003,-1.7132260625
522,1778428877000,6.2624693,-2.2210748,0.2743148,-1.450915,-2.4162064,-2.705137
523,1778428877010,5.200310077777778,-2.1903411555555556,0.7069518022222222,-1.832355177777778,-2.354782222222222,-4.787761333333333
524,1778428877020,4.5718693,-2.186826142857143,0.9767207571428571,-1.9498026285714285,-2.3622771285714284,-5.9346754285714285
525,1778428877030,3.3275720555555552,-2.2030620666666665,1.5853635888888888,-1.9719675888888888,-2.566406766666667,-7.097221777777778
526,1778428877040,2.225699,-2.3488665999999996,2.1917030333333334,-1.6746887,-3.0136149666666667,-7.930477000000001
527,1778428877050,1.27831648,-2.5714305,2.6719139333333333,-1.0522098833333333,-3.5933346000000004,-8.526257000000001
528,1778428877060,0.44399272,-2.7927646333333334,2.9347137111111112,-0.2709531655555555,-4.117085266666667,-9.027287666666666
529,1778428877070,-0.4212339,-2.988961688888889,2.9443926777777776,0.7837934011111112,-4.4149747,-9.492549444444444
530,1778428877080,-1.0110955333333334,-3.142242833333333,2.715924033333333,1.769353,-4.399703566666667,-9.794918666666668
531,1778428877090,-1.516003088888889,-3.207199255555556,2.0492388333333333,2.6062137888888888,-4.284728888888889,-10.05439311111111
532,1778428877100,-1.721152175,-3.185224,1.6186920249999999,2.506764375,-4.4326894,-10.0111755
533,1778428877110,-1.8536676,-3.2868763000000003,1.4052877750000001,1.897730525,-4.8037791499999996,-9.888853749999999
534,1778428877120,-1.9799631,-3.464989,1.3717873,1.2100121,-5.1033998,-9.866863
535,1778428877130,-2.1842773444444443,-3.6147094888888893,1.569790088888889,0.36867177333333334,-5.0215462777777775,-9.965141388888888
536,1778428877140,-2.340231444444444,-3.688982333333333,1.8100411444444444,0.21270210333333334,-4.635287166666667,-9.927947666666666
537,1778428877150,-2.4613971111111113,-3.7447511777777773,1.9405264666666666,0.5623782366666666,-4.097470033333334,-9.708992777777777
538,1778428877160,-2.5168276125,-3.653460275,1.9150431125,0.8411366862499999,-3.869173475,-9.5335695
539,1778428877170,-2.6020114,-3.4149554,1.8040078,1.1367104,-3.6916554,-9.184546
540,1778428877180,-2.6020114,-3.4149554,1.8040078,1.1367104,-3.6916554,-9.184546
541,1778428877190,-2.5959669874999998,-2.866577225,1.467665625,1.17045975,-4.5770021,-7.40795475
542,1778428877200,-2.54025875,-2.596683375,1.2979301125,0.7458445100000001,-5.644686875,-5.9850048750000004
543,1778428877210,-2.4201141333333336,-2.4502377444444443,1.2263114222222222,0.18351718222222224,-6.5326805777777786,-4.974680533333333
544,1778428877220,-2.3345568,-2.3977618,1.2143697,-0.23830679,-7.1296563,-4.3464837
545,1778428877230,-2.2319212750000004,-2.447170175,1.265256725,-0.97760377,-7.83533775,-3.847574125
546,1778428877240,-2.1793039,-2.476840325,1.2259023125,-1.3215680374999998,-7.924216125,-3.8340591125000003
547,1778428877250,-2.1394540666666666,-2.3841059444444443,1.096364811111111,-1.401979322222222,-7.179067333333332,-4.24460788888889
548,1778428877260,-2.1022757875,-2.2820310125,0.9450513625000001,-1.3602805,-6.5032041375,-4.5166046125
549,1778428877270,-2.048343575,-2.1811104,0.7894973000000001,-1.390135625,-5.76510015,-4.79303205
550,1778428877280,-1.980569125,-2.0256821499999997,0.60481043,-1.5878210999999998,-5.107370225,-5.0355956375
551,1778428877290,-1.941302225,-1.8219889375,0.48011947625,-2.0481709749999997,-4.6674076375,-5.1999135
552,1778428877300,-1.9947607666666667,-1.6998553333333333,0.5406413066666667,-2.4981107666666666,-4.489905333333334,-5.254075433333333
553,1778428877310,-2.123401325,-1.584955325,0.742093605,-3.0320930749999997,-4.2921945,-5.243131075
554,1778428877320,-2.2579739555555554,-1.4840703,1.0340813199999999,-3.2782305555555555,-4.165477777777777,-5.1011602
555,1778428877330,-2.41520195,-1.352380675,1.288192525,-3.0390415500000003,-4.2893695625,-4.85826865
556,1778428877340,-2.5754933,-1.05854496,1.3236367,-2.623589075,-4.419556375,-4.67847905
557,1778428877350,-2.7757007,-0.7655019933333334,1.2356920333333334,-2.382864266666667,-4.226019433333333,-4.653536133333334
558,1778428877360,-3.182198,-0.364697335,1.210691825,-2.443847125,-3.7738620875,-4.6746613125
559,1778428877370,-3.6727562875,-0.01210817375000001,1.390668025,-2.7586624,-3.4092913125,-4.635949
560,1778428877380,-4.173088977777777,0.2564614433333333,1.6748131666666668,-3.0026026444444445,-3.174335677777778,-4.5349639
561,1778428877390,-4.8187149375,0.5825301875000001,2.0167602000000002,-3.0566796,-3.0284279875,-4.31281055
562,1778428877400,-5.655131975000001,0.9690466,2.3731795875,-2.8347894,-2.808523,-3.734261975
563,1778428877410,-7.010897,1.3330961333333333,2.8807202000000003,-2.593810133333333,-2.2449654666666667,-2.8307426666666666
564,1778428877420,-7.615692342857143,1.3905776714285716,3.2108841285714287,-2.4034874714285714,-1.6535962085714286,-2.0463056857142856
565,1778428877430,-7.982516125,1.356969425,3.5794924,-1.79688355,-0.47226128125,-0.5642702112500001
566,1778428877440,-7.9942474,1.1829044,3.856414,-1.3696723,0.26610035,0.28442577
567,1778428877450,-7.499638022222222,0.5891570222222222,3.7274498666666664,-0.0924670111111111,1.3851215777777777,1.8376152266666663
568,1778428877460,-6.785906225000001,0.17003279124999998,3.347641925,1.5079051,2.6054162,3.77518875
569,1778428877470,-6.26003,-0.076864235,3.0198407,1.7213676,2.7871432,4.15735
570,1778428877480,-4.9915486875,-0.6749059775,2.4723125625,1.485532775,3.00720105,5.5391341875
571,1778428877490,-4.320305275,-0.9717335025,2.23875855,1.3395116,3.0693548,6.0913687
572,1778428877500,-3.9313576,-1.1172603,2.2054641,0.96200806,2.936801,6.4413843
573,1778428877510,-3.7458217000000005,-1.1631064666666666,2.227995911111111,0.9461260444444446,2.825898255555556,6.558395533333334
574,1778428877520,-3.1041751125,-1.2687020625,2.188069675,1.132300875,2.5779281,6.851262925
575,1778428877530,-2.7989743,-1.26733,2.0431678,1.6468443,2.628323,6.8879137
576,1778428877540,-2.7989743,-1.26733,2.0431678,1.6468443,2.628323,6.8879137
577,1778428877550,-2.1088616375,-1.2552256375,1.4047351625,2.473167825,3.381192175,6.57882475
578,1778428877560,-1.9594437,-1.2605003,1.2536707,2.575332,3.5891857,6.426724
579,1778428877570,-1.9594437000000002,-1.2605003,1.2536707,2.575332,3.5891857,6.426724
580,1778428877580,-1.7592718999999999,-1.252138625,0.98753095,2.2677704,3.8577294625,6.178643625
581,1778428877590,-1.6565906,-1.2583052,0.8585562,1.7977235,4.1420026,5.939268
582,1778428877600,-1.6635049666666666,-1.2658158,0.8731979777777777,1.723123777777778,4.160472244444445,5.9506704444444445
583,1778428877610,-1.7188199,-1.3259006,0.9903322,1.126326,4.3082294,6.04189
584,1778428877620,-1.7434554,-1.4320652,1.1177481,0.950402,4.214769755555555,6.2058686666666665
585,1778428877630,-1.7434554,-1.4320652,1.1177481,0.9284115,4.2030873,6.226366
586,1778428877640,-1.8015723625,-1.5136401375,1.1707047125,0.82762168125,3.8084036,6.555689
587,1778428877650,-1.8979460999999997,-1.6448826,1.2378161,0.690181,3.0705764,7.184174500000001
588,1778428877660,-1.8979461,-1.6448826,1.2378161,0.690181,3.0705764,7.1841745
589,1778428877670,-1.8444064,-1.81531165,1.1778240875000001,0.69338796875,2.6261850375,7.7037766874999996
590,1778428877680,-1.7881225,-1.8972143000000001,1.1577505,0.726221,2.4792764,7.882372999999999
591,1778428877690,-1.79684635,-1.9069481,1.1599190625,0.725839225,2.4712590125,7.850838
592,1778428877700,-1.8846831666666668,-1.9591386666666668,1.1705357666666665,0.7432568888888889,2.5025563666666666,7.599143577777777
593,1778428877710,-1.9382229,-1.9272466,1.1614093,0.7683695,2.6118302,7.5604568
594,1778428877720,-1.92797075,-1.930112625,1.159640875,0.80089711,2.715216075,7.6238321
595,1778428877730,-1.8651888125,-1.9408144875,1.149304825,0.9093224799999999,3.05545795,7.854273900000001
596,1778428877740,-1.811813,-1.9443208000000003,1.1409202,0.9418501000000001,3.1457107,7.975221600000001
597,1778428877750,-1.770812125,-1.951642075,1.138511525,0.9530744250000001,3.128683325,8.005535025
598,1778428877760,-1.4482280444444444,-2.003595666666667,1.1156274222222224,1.0625943,2.9551263,8.229538666666667
599,1778428877770,-1.3237052,-2.006062,1.0945456,1.1244935,2.8463955,8.253158
600,1778428877780,-1.2735841375,-2.008379225,1.0874072125,1.1504545125,2.8144787375,8.251172625
601,1778428877790,-0.8447511355555555,-2.0047544666666663,1.0160687133333335,1.5741533555555556,2.3454328444444443,8.076758666666667
602,1778428877800,-0.489007195,-1.915523325,0.9322495275,1.8520889,2.1506405,7.837781
603,1778428877810,-0.2406238,-1.8562059,0.90517473,1.8520889,2.1506405,7.837781
604,1778428877820,0.14717323,-1.8476688,0.8692885,2.7268221,1.5305542,7.242816
605,1778428877830,0.70967555,-1.75495,0.7040655,3.3077378,0.9490276,6.8683667
606,1778428877840,0.70967555,-1.75495,0.7040655,3.3077378,0.9490276000000001,6.8683667
607,1778428877850,1.9839191,-1.6062827375,0.16338987825,3.6626401,0.5795413525,5.9759570125
608,1778428877860,3.4316840222222225,-1.3410470666666667,-0.49905349000000004,3.5940217333333333,0.23447202444444443,4.412616466666666
609,1778428877870,3.9814439999999998,-1.3644774,-0.6115219675,2.747438275,0.6529193799999999,3.0930822
610,1778428877880,4.284,-1.5782628,-0.37267417,2.07138305,0.9383377475,1.794058275
611,1778428877890,4.4221177,-1.9770359999999998,-0.07296158,1.9461593555555556,0.8022885088888889,0.7158790155555556
612,1778428877900,4.4042510125,-2.351512875,-0.16656840625,1.5579277,0.321076605,-0.30168218999999996
613,1778428877910,4.3850427,-2.465601,-0.2965112,1.012173889125,0.0796392125,-0.7329403624999999
614,1778428877920,4.369492900000001,-2.196591666666667,-0.14690897666666666,-0.20389572466666667,-0.31094671,-1.2353622333333334
615,1778428877930,4.409746625,-2.0066186249999998,0.07841159,-0.71171341,-0.7554081125000001,-1.4769523
616,1778428877940,4.499402044444445,-1.9283137222222224,0.26403981,-0.9077953933333335,-1.4245976333333334,-1.8030429666666667
617,1778428877950,4.495952025,-1.9660368875,0.353233275,-1.1019016875,-2.0101455625,-2.1750076375
618,1778428877960,4.206754425,-2.065867525,0.563455135,-1.5229185125,-2.9194681125,-2.97795675
619,1778428877970,3.592191225,-2.2104567499999996,0.8648447,-1.9896822250000001,-3.8442336,-4.41003075
620,1778428877980,2.8115868666666666,-2.3774252666666666,1.2080277666666666,-1.9999988222222223,-4.183531811111111,-5.902591555555556
621,1778428877990,1.93739975,-2.4821188750000003,1.5277987375,-1.8110093749999998,-4.208966775,-6.9072510000000005
622,1778428878000,1.384471,-2.550301,1.6922328,-1.5077237,-4.186518,-7.8015885
623,1778428878010,0.497361325,-2.7150211,1.779593175,-1.11443355,-4.077939975,-8.881413625
624,1778428878020,-0.53466536,-2.9358251555555555,1.7774648333333332,-0.8224804,-3.8786256000000003,-10.221790666666667
625,1778428878030,-0.9919328775,-3.026232325,1.7263582,-0.8509866,-3.733193,-10.621336
626,1778428878040,-1.7616881333333336,-3.2958630666666666,1.8789205333333332,-0.9477040666666665,-3.1732496666666665,-11.460029
627,1778428878050,-2.0626814,-3.4037352,2.006794,-0.877253,-2.9952896,-11.639618
628,1778428878060,-2.373415975,-3.5267072,2.17409785,-0.44568941250000005,-2.978949275,-11.569829
629,1778428878070,-2.522670025,-3.5232314750000002,2.1333715,0.05825956874999999,-3.1008134375,-11.22622775
630,1778428878080,-2.606257225,-3.434091225,1.9878179625,0.40667158375,-3.1896154125000002,-10.788316374999999
631,1778428878090,-2.697454066666667,-3.183834066666667,1.7379469333333333,0.6618784677777777,-3.386910511111111,-9.899916666666666
632,1778428878100,-2.7452822,-3.013011,1.5824094,0.68895936,-3.641566,-9.119797
633,1778428878110,-2.7622344,-2.720726625,1.3866968,0.418124958375,-4.1701685,-7.905423
634,1778428878120,-2.7386888000000003,-2.4829915375,1.256167075,-0.12591088887500002,-4.88548,-6.3964870000000005
635,1778428878130,-2.6276534,-2.2459543,1.1763186,-0.6432985,-5.493731,-5.181588
636,1778428878140,-2.44967795,-2.105138175,1.10492725,-1.0673410625,-5.9323290125,-4.286353275
637,1778428878150,-2.0777193222222223,-1.8869089333333333,0.9827097711111112,-2.0304054,-6.685502866666667,-2.548946766666667
638,1778428878160,-1.810944125,-1.7945482,0.9235905275,-2.5683073,-6.7620790500000005,-2.0351139000000003
639,1778428878170,-1.55611595,-1.73473545,0.89529618375,-2.97490245,-6.665946925,-1.878813475
640,1778428878180,-1.348432275,-1.745231475,0.921707745,-3.37034965,-6.364703875,-2.064453725
641,1778428878190,-1.154406788888889,-1.778420111111111,0.975514211111111,-3.7446463999999997,-5.818701766666667,-2.6762236
642,1778428878200,-1.060240975,-1.7450675,1.010032225,-3.8726380750000002,-5.333536425,-3.3236198750000003
643,1778428878210,-1.05818665,-1.68887145,1.0914508500000002,-3.89466665,-4.718566099999999,-4.153761375
644,1778428878220,-1.1433932444444443,-1.6809823666666666,1.1990604777777778,-3.8643725,-4.1834636,-4.893192
645,1778428878230,-1.262284,-1.6259103000000001,1.3017642375,-3.7512893375000003,-3.666839775,-5.52648795
646,1778428878240,-1.523656025,-1.5501132499999999,1.488737775,-3.32346715,-3.0531674,-6.220792275
647,1778428878250,-1.7921980999999998,-1.4098586000000002,1.5997376666666667,-2.828103977777778,-2.8245239333333334,-6.549546888888889
648,1778428878260,-2.024034077777778,-1.200584911111111,1.6342316000000001,-2.1794522,-2.6796851999999998,-6.803998666666667
649,1778428878270,-2.2022932,-1.0694221,1.6353698,-1.8418572,-2.6532152,-6.874857
650,1778428878280,-2.3660717625000003,-0.9540915000000001,1.6716524625,-1.5323866750000001,-2.6516115,-6.898374375
651,1778428878290,-2.8632362666666666,-0.7570360199999999,1.6837668666666668,-0.8600814133333334,-2.729231511111111,-6.925964555555556
652,1778428878300,-3.079143,-0.66430706,1.6502486,-0.57121855,-2.8114245,-6.923114
653,1778428878310,-3.6270816333333338,-0.45472503666666664,1.4281998444444444,-0.45081376333333334,-2.874545455555556,-6.979175777777778
654,1778428878320,-4.139403225000001,-0.298512065,1.2791524250000001,-0.6947719437500001,-2.7550737874999998,-7.0023712125
655,1778428878330,-5.092837666666666,-0.11975292333333333,1.2739259333333335,-1.5148503333333334,-2.1979303,-6.8086818
656,1778428878340,-5.733871,-0.05564349,1.409137,-2.0238898,-1.7955855,-6.585926
657,1778428878350,-7.10608505,0.0604532235,2.0240586,-2.765458275,-1.02507805,-5.3098472249999995
658,1778428878360,-7.9655026,0.1892640925,2.68079665,-3.05835955,-0.7689803399999999,-3.2599199999999997
659,1778428878370,-7.9943386,0.26347954375,3.1896258625000002,-2.86899695,-0.809754385,-0.922283875
660,1778428878380,-7.96923005,0.17283782,3.5262881,-2.2043950000000003,-0.807463735,1.6431983000000001
661,1778428878390,-7.782052977777777,-0.11169011777777776,3.742054444444445,-1.19258595,-0.9348338533333332,3.7347117777777776
662,1778428878400,-6.22464655,-0.7572850499999999,3.2284812499999997,0.5158032375,-1.093855625,5.7609961
663,1778428878410,-5.314113275,-1.0601457,2.743628175,1.6237083625,-0.71117889875,6.7167236
664,1778428878420,-4.325648500000001,-1.2386901333333333,2.2078930666666667,2.0257053000000003,0.2777743077777778,6.837145444444444
665,1778428878430,-3.7469182625,-1.266872725,1.946443625,2.0135052250000003,1.0825836,6.6156283125
666,1778428878440,-3.274124,-1.270501,1.7973913999999998,1.8349851,1.6711254,6.278899
667,1778428878450,-2.8244177875,-1.264525025,1.8036532250000001,1.6605118625,2.055806525,5.7138366
668,1778428878460,-2.652685188888889,-1.2640236222222223,1.8514900555555558,1.7518420666666668,2.2079923555555556,5.304317666666666
669,1778428878470,-2.5907915,-1.2558659,1.8486444,2.0829892,2.2184446,5.117602
670,1778428878480,-2.457755177777778,-1.1941990777777778,1.4932951444444447,2.7191526,2.3631474000000003,5.025364
671,1778428878490,-2.3645587,-1.1367736,1.2214433,3.0579014,2.547691,5.018034
672,1778428878500,-2.3645587,-1.1367736,1.2214433,3.0579014,2.547691,5.018034
673,1778428878510,-2.0436423111111113,-1.0970660666666667,0.5966642,2.9780840000000004,3.7326755222222223,5.281580477777777
674,1778428878520,-1.932788025,-1.114371375,0.47777179000000003,2.3936813375,4.3176976375,5.5308497375
675,1778428878530,-1.8923361000000003,-1.1218947,0.47246656,1.8490346999999998,4.516528,5.755403
676,1778428878540,-1.9015133625,-1.1836018,0.5570370600000001,1.275993175,4.4775100000000005,6.0846497500000005
677,1778428878550,-1.970674,-1.352833,0.8012865833333334,0.44848917666666666,3.8561261666666664,6.843729133333333
678,1778428878560,-2.0058184,-1.4457246,0.90297955,0.14591613,3.4175377,7.2538114
679,1778428878570,-2.0627423499999997,-1.59063395,1.080390725,-0.21463645125000003,2.420711325,8.311140125
680,1778428878580,-2.0447383,-1.695152175,1.18416965,-0.2257844125,2.0119782,8.81093775
681,1778428878590,-1.9660294,-1.8393755999999999,1.2868433,-0.11491564000000001,1.5978237,9.342375
682,1778428878600,-1.7872422749999999,-1.9947467374999999,1.3322766375,0.30687438875,1.2200242375,9.56686075
683,1778428878610,-1.6907694,-2.0758529,1.3483714,0.674299,0.96185535,9.568388
684,1778428878620,-1.6907694,-2.0758529,1.3483714,0.674299,0.96185535,9.568388
685,1778428878630,-1.7910583285714288,-2.0688490142857145,1.4228269428571427,1.4439992285714285,0.7911671828571428,8.945323571428572
686,1778428878640,-1.860173225,-2.055333475,1.4523713624999999,1.8267386875,0.8345700487500001,8.583005374999999
687,1778428878650,-1.9152641000000001,-2.0551198,1.4408463,2.2778494,1.1451095,8.154811
688,1778428878660,-1.9877819222222222,-1.9985616666666663,1.4104922,2.5562599333333336,1.5252516555555555,7.928661611111112
689,1778428878670,-1.99855415,-1.95084545,1.3362898250000002,2.9238203125,2.232112275,7.7083579375
690,1778428878680,-1.9365154999999998,-1.9682246,1.2949232,3.0499604,2.7040682,7.619097700000001
691,1778428878690,-1.8366111666666667,-2.0536564,1.3228380222222222,3.0540326,3.0517081555555556,7.419282877777778
692,1778428878700,-1.7516875666666667,-2.0692873666666665,1.3109402666666667,3.013241666666667,3.2940788,7.243766133333334
693,1778428878710,-1.6880863,-2.0312161,1.29224,3.019418,3.3601182,7.242816
694,1778428878720,-1.5239981222222223,-2.0416233333333333,1.2252780777777776,3.0971312666666666,3.1129963444444444,7.428717133333333
695,1778428878730,-1.3430776125000001,-2.0474329124999997,1.1084030249999999,3.1202078,2.8549473,7.5653434
696,1778428878740,-1.0755202,-1.9765482000000003,0.9371278999999999,3.059123,2.4346845,7.694843
697,1778428878750,-0.6844987925,-1.88362365,0.7691759650000001,2.98169825,2.001746475,7.681098875
698,1778428878760,-0.1404502725,-1.699901075,0.5247028499999999,2.796764225,1.4338494375,7.5287689250000005
699,1778428878770,0.13226382,-1.6248509,0.39950502,2.459882,0.8311341,7.1084294
700,1778428878780,0.7484049525,-1.532890575,0.3162646325,2.3829915749999997,1.4072489125,6.367691300000001
701,1778428878790,1.684724875,-1.41870325,0.1721823,2.530358475,2.8709153875,5.093091562500001
702,1778428878800,2.3613877,-1.3734949,0.08247432,2.839829,4.7443743,3.8354334999999997
703,1778428878810,2.3613877,-1.3734949,0.08247432,2.839829,4.7443743,3.8354335
704,1778428878820,3.8551774999999995,-1.188067288888889,0.31367682333333335,3.1573337555555554,7.007546322222222,0.8883330866666667
705,1778428878830,4.5407224,-1.167751,0.58570486,3.1420457,7.804862,-1.57919285
706,1778428878840,4.5407224,-1.167751,0.58570486,2.6535206,6.513999,-1.8865254
707,1778428878850,3.93049625,-1.069033375,1.35574985,0.987510942,2.737034745,-0.23095752999999997
708,1778428878860,4.010485625,-1.3170509125,1.849029425,-0.4604261325,-0.7258678875,1.7631343625
709,1778428878870,4.306731577777779,-1.3885667888888888,2.1175694,-1.1240353388888888,-2.9235573666666665,3.037124266666667
710,1778428878880,5.0878882,-1.4115763,2.1915302,-0.96277165,-5.3404083,4.167124
711,1778428878890,5.908683175,-1.9125276750000002,1.4008286175,0.1410293595,-6.89524375,3.7230185
712,1778428878900,6.1504807,-2.45121,0.81657207,0.5991648,-6.523696,2.216612
713,1778428878910,5.644368675000001,-2.88811055,0.54930797125,0.733474845,-5.710973175,-0.31977855
714,1778428878920,4.5704294,-3.1700834,0.3364627233333333,0.4235801711111111,-5.038785666666667,-3.614502111111111
715,1778428878930,3.8849828,-3.210919,0.31678677,-0.20593189,-4.804085,-5.702641
716,1778428878940,2.927125411111111,-3.329591366666667,0.6030941344444444,-0.9548814966666667,-4.6159436666666664,-7.371527
717,1778428878950,1.11055642,-3.6087853625,1.3260682125,-2.0532103,-3.9580612,-10.331794
718,1778428878960,-0.08418174,-3.7014658,1.9352958,-1.9200456,-3.0863059,-12.103251
719,1778428878970,-1.30021301,-3.8148719,2.59092855,-1.05311974375,-2.7752318625,-12.61666825
720,1778428878980,-2.4689448666666665,-3.9397216999999998,2.8643845333333333,0.7976392722222223,-2.724141133333333,-12.903189777777778
721,1778428878990,-3.023994925,-3.8824713375,2.6115815875,2.1158222,-3.01850175,-12.532524
722,1778428879000,-3.5951945750000003,-3.704164225,2.11027545,2.7485835375,-3.436025375,-11.770339
723,1778428879010,-3.806549844444444,-3.338646711111111,1.5906348555555556,2.7243107999999996,-4.048738066666667,-10.308700666666667
724,1778428879020,-3.75454065,-2.78323405,1.045007625,1.92720395,-5.02582215,-7.87380165
725,1778428879030,-3.47229105,-2.49868245,0.8855928125,0.9591065449999999,-5.706000425,-6.1303678
726,1778428879040,-3.0727098,-2.3021769333333335,0.8417259333333332,-0.09231428000000001,-6.367064633333333,-4.499806266666666
727,1778428879050,-2.805072,-2.2393684,0.8407503,-0.6860578,-6.7087827,-3.653172
728,1778428879060,-2.335768975,-2.1716510500000004,0.8689913,-1.4532055499999998,-6.963506,-2.859376
729,1778428879070,-1.8628793125,-2.1958102999999998,0.9450970750000001,-2.1176546624999997,-6.995422675,-2.5634204375
730,1778428879080,-1.4276632875000002,-2.3533461,1.078912,-2.6628359375,-6.6506664125,-3.1541097125
731,1778428879090,-1.3031147,-2.4629281333333335,1.2799425333333332,-2.9483051666666666,-6.014172866666667,-4.3251295333333335
732,1778428879100,-1.3410233,-2.5214884,1.4023074,-3.0403395,-5.6916456,-5.042315
733,1778428879110,-1.5960043444444443,-2.485016266666667,1.4845717666666667,-2.939821211111111,-5.212741266666667,-5.955871111111112
734,1778428879120,-1.8687404555555556,-2.407647388888889,1.512154711111111,-2.7205948666666666,-4.738859788888889,-6.5874195222222225
735,1778428879130,-2.109431966666667,-2.228802277777778,1.428735111111111,-2.3451952666666664,-4.2309063,-6.7600178
736,1778428879140,-2.1804760555555553,-2.1283663,1.3409318000000001,-2.1347922666666665,-4.063669733333333,-6.681897333333334
737,1778428879150,-2.2227821,-1.9138007,1.1233582,-2.0446584,-3.9898252,-6.37946
738,1778428879160,-2.2193672666666666,-1.7107603666666666,0.9915618866666667,-2.279631,-4.055660866666667,-6.090189666666666
739,1778428879170,-2.2208307,-1.5106369,0.87806946,-2.6866589,-4.1516995,-5.7203555
740,1778428879180,-2.2440028874999998,-1.278649275,0.92704339125,-3.26467315,-4.1883504375,-5.2866539375
741,1778428879190,-2.2600403333333334,-1.1062637000000002,0.9775671833333333,-3.6835616333333334,-4.2062688,-4.9571526666666665
742,1778428879200,-2.287917966666667,-0.9340754777777778,1.0723321888888888,-3.8018878,-4.187129033333333,-4.793827333333334
743,1778428879210,-2.3901814375,-0.300512972625,1.277574525,-3.788532025,-4.127266,-4.0442671
744,1778428879220,-2.4395097875,0.066112851375,1.272116925,-3.457777225,-4.084726187499999,-3.752816475
745,1778428879230,-2.580276375,0.28482607625,1.2756956,-3.2942992625,-3.6707338125,-3.770149325
746,1778428879240,-2.7323545,0.39477914666666664,1.3965957333333332,-3.195291066666667,-2.5799133333333333,-4.1660802
747,1778428879250,-2.964799475,0.504023335,1.6080817,-3.03697985,-1.9415779499999999,-4.592960625
748,1778428879260,-3.348225025,0.735374485,1.7877376875000002,-2.846700975,-1.6518837249999998,-5.0109517750000006
749,1778428879270,-3.9181554,1.0723492,1.9523699,-2.7843945,-1.5359755,-5.278102
750,1778428879280,-4.922323222222222,1.3713333555555556,2.3874089555555553,-2.711296422222222,-1.1691192488888889,-5.253727522222222
751,1778428879290,-5.8344157999999995,1.3465724333333333,2.926684933333333,-2.034206111111111,-0.45123797111111114,-4.6660245666666675
752,1778428879300,-6.344844475,1.1500823500000001,3.178028375,-1.203894005,-0.04344651125000001,-3.9075896625000004
753,1778428879310,-6.7220840875,1.0510559875,3.1532289875,-0.26671119,0.34047098249999996,-2.644796775
754,1778428879320,-6.8511314,1.0135348,3.0493548,0.15385716,0.59107107,-1.7234292
755,1778428879330,-6.742641775,0.973982145,2.6879236,0.50860671,0.98056258375,-0.31327873500000003
756,1778428879340,-6.427753366666667,0.8300010244444445,2.3774321333333335,0.85090172,1.399162588888889,1.3141191
757,1778428879350,-5.975283775,0.452983728125,2.1488715000000003,0.95536509625,1.8091004625,2.9746829249999998
758,1778428879360,-5.36735575,-0.15176952437500002,2.15441675,0.8615237025,1.940050875,4.185296475
759,1778428879370,-5.071302,-0.48810774,2.225953,0.7579851,1.9240161,4.8152328
760,1778428879380,-4.695816022222222,-0.7600206122222223,2.2762269777777777,0.8246353111111111,1.840737288888889,5.140135466666667
761,1778428879390,-3.9922452,-1.1548386750000001,2.2524257,1.2172086,1.81696515,5.44761205
762,1778428879400,-3.6792393,-1.2346452,2.112227,1.6896036,2.073063,5.2703137
763,1778428879410,-3.6792393,-1.2346452,2.112227,1.6896036,2.073063,5.2703137
764,1778428879420,-3.187548925,-1.1233849150000002,1.6281247749999999,2.1930180125,2.954591875,4.8489056
765,1778428879430,-2.640337,-0.96423316,1.0457318,2.6785653,4.195757,4.3687034
766,1778428879440,-2.640337,-0.96423316,1.0457318,2.6785653,4.195757,4.3687034
767,1778428879450,-2.371134288888889,-0.9083186200000001,0.8041594000000001,2.355223455555555,4.555647888888889,4.4198788222222225
768,1778428879460,-1.9814266,-0.83733547,0.5054258,1.6468443,5.081562,4.586165
769,1778428879470,-1.9814266,-0.83733547,0.5054258,1.6468443,5.081562,4.586165
770,1778428879480,-1.8237997857142858,-0.8760267185714286,0.5174604885714286,0.7975265699999999,4.947786642857143,4.9343477857142855
771,1778428879490,-1.7334547,-0.9725262,0.6723563,-0.08742751,4.766976,5.4260798
772,1778428879500,-1.7334547,-0.9725262,0.6723563,-0.43194535,4.576391,5.763344
773,1778428879510,-1.781750325,-1.1666077124999998,0.9454934312500001,-0.5515187125,4.372979225,6.089078000000001
774,1778428879520,-1.8157157,-1.3073629,1.1038144,-0.59443074,3.8475742,6.8732533
775,1778428879530,-1.8157157,-1.3073629,1.1038144,-0.59443074,3.8475742,6.8732533
776,1778428879540,-1.7651945,-1.6356138,1.1445789,-0.4258369,3.0217087,7.914137
777,1778428879550,-1.705045288888889,-1.7131826777777777,1.1044174,-0.34221870444444447,2.7904011444444445,8.27087211111111
778,1778428879560,-1.6250948,-1.790074,1.0596654,-0.33176643,2.7614877,8.315464
779,1778428879570,-1.5704609,-1.8695839666666667,1.0573923222222221,-0.15855728777777778,2.4401821,8.619733666666667
780,1778428879580,-1.5781365571428572,-1.8838947142857143,1.053258342857143,-0.04955498628571429,2.2126851428571426,8.563544285714286
781,1778428879590,-1.6224117,-1.8310825,1.0428047,0.026800923,2.073063,8.478025
782,1778428879600,-1.696913025,-1.8387963375,1.0649515875,0.058412269375,1.9468466125,8.471993125000001
783,1778428879610,-1.8651528777777777,-1.8590007222222222,1.1185611777777777,0.14876676333333333,1.6839531,8.512233
784,1778428879620,-1.8974582999999998,-1.8735545,1.1643362,0.22715882999999998,1.692505,8.623407
785,1778428879630,-1.8974582999999998,-1.8735545,1.1643362,0.22715882999999998,1.692505,8.623407
786,1778428879640,-1.703036422222222,-1.9762636666666669,1.2700232666666667,0.76687629,1.9593773666666665,8.706414333333333
787,1778428879650,-1.5523772,-2.018014,1.3105338,1.2967523,2.1146004,8.686935
788,1778428879660,-1.5523772,-2.018014,1.3105338,1.2967523,2.1146004,8.686935
789,1778428879670,-1.3171500375,-1.917253675,1.081652275,1.9121523125000002,1.662315775,8.6559345
790,1778428879680,-1.1418959,-1.8432784,0.8973694,2.371309,1.2440668,8.630737
791,1778428879690,-1.1418959,-1.8432784,0.8973694,2.371309,1.2440668,8.630737
792,1778428879700,-0.5927975375,-1.6795607125,0.31613123237499996,2.1747689125000003,2.5369822375,7.968445375
793,1778428879710,-0.2174517,-1.577775,-0.005366167,2.0084658,3.8817816,7.413853
794,1778428879720,0.346537,-1.61803645,0.007553794749999999,1.8278077000000001,5.3823182874999995,6.783000674999999
795,1778428879730,1.217548225,-1.67843635,0.16112983,1.5875061,6.639604149999999,5.96010345
796,1778428879740,2.0225151875,-1.5701335875,0.31552527375,1.16442751625,6.186431837500001,4.8906722375
797,1778428879750,2.7378732555555554,-1.2462210444444444,0.6440213333333333,0.27439768000000003,4.2373457,3.1795616666666664
798,1778428879760,2.8836439,-1.0706416,0.9574034,-0.14057122,2.8897657,2.224553
799,1778428879770,2.8138565444444446,-1.1143569777777778,1.2544194000000002,0.6497463511111111,2.0143536555555555,1.7484993777777778
800,1778428879780,2.8826833250000004,-1.1700302,1.26928135,2.2813618,1.575680475,1.363258375
801,1778428879790,3.238382475,-1.406751325,1.0154784925,3.221761225,1.5898636,1.1204466
802,1778428879800,3.6295791,-1.8191229,0.6851695525,3.607205825,1.4039561,0.708258325
803,1778428879810,3.8488524,-2.1332037,0.4036516,3.6186593,1.0937984,0.3210766
804,1778428879820,3.972038175,-2.449129075,0.134100815,2.6655752125,0.54854082875,-0.20264858375
805,1778428879830,4.178607733333333,-2.3634846666666665,0.16910878666666665,1.1128873466666667,-0.023916367777777787,-0.6613015644444444
806,1778428879840,4.4629051875,-2.0119733875,0.40886913125,-0.05635065,-1.1660596812500001,-1.1819131
807,1778428879850,4.4811228750000005,-1.885681725,0.6011402775,-0.6099309749999999,-1.9905221124999999,-1.565448825
808,1778428879860,4.271712533333333,-1.8550201333333334,0.8393647133333333,-1.261425088888889,-3.1068030444444443,-2.301172022222222
809,1778428879870,3.9101629571428576,-1.9129427285714284,1.0774888285714286,-1.614011157142857,-3.8288450857142857,-3.077841257142857
810,1778428879880,3.4901123,-2.0395093,1.2285168,-1.6463181666666666,-4.214617277777778,-4.096782866666667
811,1778428879890,2.7146516125,-2.2269629749999997,1.4053106375,-1.2885536499999999,-4.1441404875,-5.603254349999999
812,1778428879900,1.8780160666666665,-2.4238712,1.5824805333333334,-0.8137249,-4.1032391,-7.122682733333333
813,1778428879910,0.9910677125,-2.6183883625,1.6724452125,-0.5087594200000001,-4.2546274875,-7.979039625
814,1778428879920,0.24865779124999998,-2.7945265875,1.6627190125,-0.1746259575,-4.50293685,-8.971207875000001
815,1778428879930,-0.19351739,-2.9070904,1.6546392,-0.03489465,-4.6000614,-9.5296755
816,1778428879940,-0.92097599,-3.1432779,1.737243025,0.080708194875,-4.6194560000000005,-10.187643750000001
817,1778428879950,-1.48622235,-3.3667667125,1.80784545,0.30221669500000004,-4.62785525,-10.599116125
818,1778428879960,-2.0440445,-3.5614615625,1.7397242499999999,0.59679780875,-4.6101405374999995,-10.914237125
819,1778428879970,-2.4265812777777778,-3.570028766666667,1.577409088888889,0.6400915566666667,-4.3752697666666664,-10.982549666666666
820,1778428879980,-2.5361235,-3.5457556,1.5333517,0.60588413,-4.2433267,-10.935311
821,1778428879990,-2.721241025,-3.385098425,1.518335525,0.291603205,-4.0591565,-10.577508
822,1778428880000,-2.7891904666666663,-3.3400389555555554,1.599111022222222,0.07261446799999999,-4.061769577777778,-10.282841888888889
823,1778428880010,-2.8248104749999996,-3.302224125,1.70826285,-0.039705071875000005,-4.1208520250000005,-9.97307425
824,1778428880020,-2.8328279,-3.2362255999999996,1.7569825666666667,0.02842984866666667,-4.225001333333333,-9.500965666666666
825,1778428880030,-2.829185725,-3.152333325,1.7587229999999998,0.17615307500000002,-4.3845849999999995,-9.032903999999998
826,1778428880040,-2.7877543,-2.982979,1.6741525,0.37475478875,-4.6782498624999995,-8.28774675
827,1778428880050,-2.6891507666666663,-2.8261607666666664,1.5131065222222222,0.4239195155555555,-4.865305266666667,-7.85933911111111
828,1778428880060,-2.571331325,-2.64321055,1.312858575,0.32764319249999996,-5.18830775,-7.23831075
829,1778428880070,-2.50904125,-2.46658435,1.193507125,0.0875802225,-5.493273,-6.71130225
830,1778428880080,-2.445291425,-2.2967078875,1.1171611375000001,-0.2176143325,-5.7807529375,-6.296307875
831,1778428880090,-2.4193890000000002,-2.0823776,1.0066949333333333,-0.722640768888889,-5.918541611111111,-5.8957364000000005
832,1778428880100,-2.4164213375,-1.928458525,0.9457831250000001,-1.032952225,-5.7034812125,-5.670113225
833,1778428880110,-2.3933713,-1.8396196,0.9327374,-1.2163496,-5.4185967,-5.5108347
834,1778428880120,-2.3933713,-1.8396196,0.9327374,-1.2163496,-5.4185967,-5.5108347
835,1778428880130,-2.2297948625,-1.7007546999999998,0.91345652125,-1.2681761625,-4.5117177,-5.0748236125
836,1778428880140,-2.12742605,-1.5334050499999998,0.873191195,-1.212932675,-4.209577475,-4.793013074999999
837,1778428880150,-2.0719502,-1.3176074,0.83514017,-1.2560546,-4.295249,-4.7032185
838,1778428880160,-2.1203408749999997,-1.1274552125000001,0.84369253375,-1.5313176375,-4.3096800125,-4.6895506875
839,1778428880170,-2.260977875,-1.0482318875,1.0220451,-1.8029156875,-4.0590800375,-4.72352925
840,1778428880180,-2.356768525,-0.9930228925000001,1.1585584249999998,-1.751680925,-3.8507716,-4.816692875
841,1778428880190,-2.529290566666667,-0.8152744788888889,1.2640846,-1.420016288888889,-3.529780933333333,-5.023582355555556
842,1778428880200,-2.7103717,-0.64159226,1.2971183,-1.1215919,-3.3288121,-5.1675386
843,1778428880210,-3.05222845,-0.422631365,1.268801125,-0.9236774000000001,-3.1276905249999998,-5.293525925
844,1778428880220,-3.6025273666666666,-0.06443464999999998,1.284018,-0.9833623,-2.8148859333333336,-5.545653166666667
845,1778428880230,-4.3881105625,0.21566806625,1.5942737125,-1.4247249124999999,-2.6256505624999997,-5.5887943125
846,1778428880240,-5.557469987499999,0.4145096875,2.20862745,-1.74488515,-2.35939745,-5.416306625000001
847,1778428880250,-6.2652606,0.5152976666666667,2.6076454222222223,-1.4792683666666666,-1.9861019444444448,-4.977684055555555
848,1778428880260,-7.266788249999999,0.6557166,2.9955292875,-0.81624466875,-1.3501919575,-4.306396525
849,1778428880270,-7.9515348,0.74425073,3.257693825,0.146985125,-0.30779065,-2.9056284999999997
850,1778428880280,-7.9942474,0.74361044,3.3065953,0.8575532,0.20073968,-1.6745614
851,1778428880290,-7.947957355555555,0.6616917058888888,3.2194154333333334,1.1019005888888889,0.2762811266666667,-1.2452630333333332
852,1778428880300,-7.1697435,-0.223736391875,2.240012575,3.122193075,0.972239775,2.639031975
853,1778428880310,-6.489921,-0.6072001,1.7700727,3.3187332,1.247121,3.9887562
854,1778428880320,-6.489921,-0.6072001,1.7700727,3.3187332,1.247121,3.9887561999999996
855,1778428880330,-4.8059280875,-1.2108709874999999,1.2336391125,1.8807223375,1.9854826875000002,5.202356750000001
856,1778428880340,-3.954727975,-1.29802545,1.23433265,1.4933497,2.20912915,5.275352925
857,1778428880350,-3.5452678,-1.2436701,1.2011981,1.4616811,2.4139156,5.2263327
858,1778428880360,-3.0240674125,-1.0949419125,1.05339605,1.660416425,2.88426805,5.0878231750000005
859,1778428880370,-2.6410687,-0.9854537999999999,0.9317616,1.8789661999999998,3.3839412,4.93618
860,1778428880380,-2.6410687,-0.9854538,0.9317616,1.8789662,3.3839412,4.93618
861,1778428880390,-2.6410687,-0.9854538,0.9317616,1.8789662,3.3839412,4.93618
862,1778428880400,-2.189931842857143,-0.9765683000000001,0.6148659857142856,1.9182349285714284,3.7027161428571427,4.985833471428571
863,1778428880410,-1.9320334333333333,-1.0314931333333333,0.35216485000000003,1.6154619333333333,3.7948377,5.3051322333333335
864,1778428880420,-1.8972143,-1.105034,0.30480435,1.3792168,3.8139775,5.5091553
865,1778428880430,-1.8369365999999998,-1.2532540333333335,0.27374565,0.9572570355555556,3.8663746444444445,5.829841511111111
866,1778428880440,-1.812903125,-1.34927085,0.310368725,0.37345674695000003,3.84497805,6.26729295
867,1778428880450,-1.8008063,-1.4449929,0.38121125,-0.0031305922,3.74373,6.5495043
868,1778428880460,-1.822375977777778,-1.5822670888888888,0.5344925722222222,-0.4055431904888889,3.487920822222222,6.877800844444444
869,1778428880470,-1.8557181,-1.697843,0.7262924,-0.82838523,3.0614138,7.382089
870,1778428880480,-1.8557181,-1.697843,0.7262924,-0.82838523,3.0614138,7.382089
871,1778428880490,-1.9069558125000001,-1.8696974375,0.9573081625,-0.78417517,2.487522675,7.956514749999999
872,1778428880500,-1.9730317666666666,-2.0146906666666666,1.1251266333333332,-0.5590015711111112,2.0674973444444444,8.398216555555557
873,1778428880510,-1.9958177,-2.077804,1.1623849,-0.27679017,1.872705,8.634402
874,1778428880520,-2.028597825,-2.0793628125,1.1947381875,0.09506310000000001,1.799861475,8.807042812499999
875,1778428880530,-2.0792143,-2.115824725,1.2371986499999998,0.4270585975,1.7453434,8.8871405
876,1778428880540,-2.1214957,-2.1310084,1.2287607,0.5961106,1.7151064,8.8885145
877,1778428880550,-2.1214957,-2.1310084,1.2287607,0.5961106,1.7151064,8.8885145
878,1778428880560,-2.171498677777778,-2.1019416888888887,1.2472035000000001,0.7014478133333334,1.8261448444444446,8.909961833333334
879,1778428880570,-2.2340024,-2.0656083,1.270257,0.83311933,1.9649429,8.936771
880,1778428880580,-2.2297033125,-2.07970595,1.3855990999999999,1.03196920625,2.1079575,9.091315625
881,1778428880590,-2.211074,-2.1071048,1.6209482,1.4886348,2.3387814,9.451105
882,1778428880600,-2.211074,-2.1071048,1.6209482,1.7421364,2.223942,9.675897
883,1778428880610,-1.9226561777777778,-2.213283066666667,1.701217088888889,2.191855755555556,2.0028153555555557,9.829151666666668
884,1778428880620,-1.6307811625,-2.301937025,1.7933706500000002,2.8479226,1.680269,9.868466999999999
885,1778428880630,-1.4501151,-2.360656,1.8215698,3.2497075,1.4474789,9.802953
886,1778428880640,-1.1438472,-2.3867855,1.6922328,4.027316,0.9649096,9.639857
887,1778428880650,-0.7291820844444444,-2.2875859666666667,1.2056393644444445,4.550667733333333,0.8769476111111111,9.197196666666667
888,1778428880660,-0.29919428,-2.2222943,0.74287874,4.8153853,1.1096804,8.573318
889,1778428880670,0.4331137140000001,-2.09290268,0.336199505,4.63738432,1.61161354,7.8088423
890,1778428880680,1.3797718375,-1.9674204875,0.011075342499999996,4.26483055,2.263952625,6.45494715
891,1778428880690,1.8559619,-1.9428573,-0.07662032,4.0212073,2.473168,5.6875224
892,1778428880700,1.8559619,-1.9428573,-0.07662032,4.0212073,2.473168,5.6875224
893,1778428880710,2.86388665,-1.87835665,0.0006631459999999999,3.023083,2.8317351,2.8518932
894,1778428880720,3.1063297333333333,-2.0179295111111113,0.11619241333333334,3.0013641555555552,3.2156187,1.5788874222222224
895,1778428880730,3.372324077777778,-2.1733178555555552,0.032684835555555555,3.381582566666667,3.1366159555555555,0.9882659777777777
896,1778428880740,3.631228111111111,-2.1763024555555557,-0.2304233377777778,3.273055266666667,2.711534088888889,0.6928874055555555
897,1778428880750,3.9109666888888888,-2.2404119222222225,-0.5251424266666667,2.271384711111111,1.8948821777777778,0.5020146477777777
898,1778428880760,4.082159,-2.3174827,-0.6257377,1.2588799,1.1878688,0.38888064
899,1778428880770,4.173427933333333,-2.4581449555555555,-0.35714481000000003,-1.0235255,0.14196260222222223,0.12078656222222223
900,1778428880780,4.4663785,-2.3898753,0.2520167466666667,-2.0392287000000002,-0.49630490444444436,-0.19753273111111114
901,1778428880790,4.7052135,-2.4038599,0.6364701,-2.3879547,-1.0673792,-0.7491278
902,1778428880800,4.707917166666666,-2.3973554,0.8880802833333333,-1.8392101555555556,-1.683393222222222,-2.1227366444444447
903,1778428880810,4.5497775,-2.400445,0.90273565,-1.4472499,-2.0368702,-3.1761003
904,1778428880820,3.848608666666667,-2.4643918,0.8366037,-1.2652004555555556,-2.163111888888889,-5.015989388888889
905,1778428880830,2.99820085,-2.57786755,0.9158194,-1.1878689,-2.14575365,-7.11432825
906,1778428880840,2.0077390125,-2.700809125,1.0710609500000001,-1.1626714125,-2.2715118125,-8.653949625
907,1778428880850,1.34651525,-2.7550424000000002,1.15489205,-1.178715725,-2.4472067500000003,-9.5377025
908,1778428880860,0.5735091,-2.8250732,1.252695,-1.2322316,-2.68559,-10.333627
909,1778428880870,-0.527843275,-2.9089425,1.5073593,-1.3639456125,-3.0066666375,-10.939053000000001
910,1778428880880,-1.3190631750000001,-2.9578401750000003,1.776056375,-1.4126606499999999,-3.249173025,-11.107036375
911,1778428880890,-1.8352251375000002,-3.0657047375,2.0074722125,-1.2341309575,-3.61943235,-10.838568375
912,1778428880900,-2.1786027,-3.139177,2.1078362,-0.93100756,-3.9476767,-10.541925
913,1778428880910,-2.2619985555555555,-3.173765733333333,1.9910681555555558,-0.7273918277777778,-4.186314266666667,-10.316387555555556
914,1778428880920,-2.27084515,-3.327454075,1.893281175,-0.7755469225,-4.22729205,-10.384021
915,1778428880930,-2.3107826375,-3.427886775,1.8828232125,-0.91023874,-4.149867,-10.678144
916,1778428880940,-2.4440640625,-3.501122825,1.9280164,-0.966284,-3.6907392,-11.272422625
917,1778428880950,-2.7264701555555555,-3.518938377777778,1.9903296999999998,-0.5342283633333333,-2.874884811111111,-11.905404444444445
918,1778428880960,-2.9224038500000002,-3.3758450250000003,1.8335217,0.40117393875,-2.2508194875000003,-12.00696625
919,1778428880970,-2.975204075,-3.1969204875,1.5722411250000001,1.0537115625,-2.0261802749999998,-11.666571375
920,1778428880980,-2.9671242,-3.1149988,1.4491395,1.3649477375,-2.0836763,-11.175603749999999
921,1778428880990,-2.9270610125000003,-2.8349976375,1.219590975,1.442649425,-2.71689585,-10.120880499999998
922,1778428881000,-2.8979092625,-2.6391288,1.1206980375,1.1867998625,-3.7167861,-8.919429375
923,1778428881010,-2.8503149624999997,-2.4119927999999997,1.0016971125,0.6950678,-4.927476,-7.606652
924,1778428881020,-2.767793788888889,-2.234683366666667,0.868973471111111,0.047162495555555545,-5.918541422222223,-6.181273844444444
925,1778428881030,-2.697932,-2.072194,0.77214867,-0.33482066,-6.3214293,-5.3208613
926,1778428881040,-2.5300257333333334,-1.8542748333333334,0.6987907666666666,-0.7722042733333334,-6.5009505,-4.573659411111111
927,1778428881050,-2.4172752,-1.7273569,0.6423241,-1.2638430125,-6.433204775,-3.9138511375
928,1778428881060,-2.2528334625,-1.5146500625,0.5735395737500001,-1.5395641125,-5.99729805,-3.6432457
929,1778428881070,-2.0672649,-1.2972979444444444,0.5587114555555556,-1.7070635333333335,-5.3294131,-3.5692823666666667
930,1778428881080,-1.9994764,-1.2148575,0.5505809,-1.758782,-4.9396925,-3.6030827
931,1778428881090,-1.842500875,-1.066731425,0.51974831,-1.6879237,-4.218893,-3.7344148
932,1778428881100,-1.7541572888888888,-1.0007866444444444,0.4722463722222222,-1.4798962333333332,-3.7112705111111115,-3.8918098444444444
933,1778428881110,-1.6851973500000001,-0.8183480750000001,0.3999318725,-1.307671275,-3.3396548249999998,-4.1001595
934,1778428881120,-1.724307888888889,-0.6252600666666667,0.3993491911111111,-1.2856468222222222,-3.123974677777778,-4.333587666666666
935,1778428881130,-1.870924725,-0.49450292500000004,0.463144395,-1.350125175,-2.920766175,-4.561654450000001
936,1778428881140,-2.1308796555555554,-0.3910119744444444,0.5736683088888889,-1.3700794666666667,-2.8228269333333333,-4.798714066666666
937,1778428881150,-2.3767164000000003,-0.2495267625,0.628298865,-1.37799505,-2.9535229125,-4.9413054999999995
938,1778428881160,-2.7768236,-0.015736439999999997,0.62473159375,-1.571710025,-3.196716425,-5.10217795
939,1778428881170,-3.6635471333333336,0.45269918000000003,0.7116370666666667,-1.8191201444444443,-3.0780253999999996,-5.135163733333333
940,1778428881180,-4.471739625,0.70711444,0.968204375,-2.1639265,-2.539597425,-5.04535015
941,1778428881190,-5.4398333125,0.8942746975,1.4961658375,-2.4424728375,-1.8514780375,-4.664200537499999
942,1778428881200,-6.799729577777779,1.062666938888889,2.5384102888888886,-2.4392657,-1.2678134,-3.6128561
943,1778428881210,-7.56980535,0.92225274,3.2674696625,-1.5008326525,-1.21266545,-1.7412010525
944,1778428881220,-7.9932714,0.59082717,3.9247715,-0.12224581,-1.0985324,0.23433629
945,1778428881230,-7.9670347,0.2507615875,3.743008025,1.7384713,-0.39972317,2.2227204
946,1778428881240,-7.625810533333333,-0.28626669666666665,3.2857608000000003,3.7080635222222225,1.1500132944444443,4.0824192888888895
947,1778428881250,-7.1080976,-0.51030415,2.8658378,4.5319524,2.124985,5.0259748
948,1778428881260,-6.275053625,-0.7540988550000001,2.289767775,4.42839445,2.9323723,5.81203995
949,1778428881270,-5.5218163,-0.97642887,1.8344973,3.754878,3.5158842,6.493917
950,1778428881280,-4.94291,-1.0554883,1.7620236,2.8221142,3.4077642,6.7290936
951,1778428881290,-4.515280771428572,-1.0299729285714285,1.8394148285714285,2.1889165285714287,3.107489142857143,6.916536371428571
952,1778428881300,-3.8731020333333337,-0.9553606333333333,1.9588845666666665,1.0511917666666666,2.6566257,7.360913166666667
953,1778428881310,-3.6184735,-0.9181023,1.9977689,1.0792907,2.8341787,7.4517255
954,1778428881320,-3.6184734999999995,-0.9181023,1.9977689,1.0792907,2.8341787,7.451725499999999
955,1778428881330,-3.6184735,-0.9181023,1.9977689,1.0792907,2.8341787,7.4517255
956,1778428881340,-2.6564545374999997,-0.9804650187499999,1.8511675125,1.9730271875,3.3387384625,7.2360966375
957,1778428881350,-2.2037566,-1.1314075,1.6468339,2.252194,3.4822874,6.9691563
958,1778428881360,-2.0453023000000004,-1.1354931,1.4611142,2.3600084249999997,3.925781725,6.658845925
959,1778428881370,-1.8147401,-1.1367736,1.1994907,2.4849267,4.6472497,6.1768875
960,1778428881380,-1.7422222,-1.1696176777777778,1.145019422222222,2.4203125777777776,4.90618071111111,6.037206933333334
961,1778428881390,-1.7215028,-1.1790017,1.1294562,2.4018514,4.980161,5.9972982
962,1778428881400,-1.496862411111111,-1.2096030999999998,0.8947642722222222,1.5320473555555556,5.078032799999999,5.8255822888888895
963,1778428881410,-1.444749,-1.2168088,0.8341645,1.1629769,4.9600034,5.8910108
964,1778428881420,-1.444749,-1.2168088,0.8341645,1.1629769,4.9600034,5.8910108
965,1778428881430,-1.5116202250000002,-1.2715414375,0.9639853249999999,0.66483093,4.746359549999999,5.965686925
966,1778428881440,-1.677155825,-1.41089025,1.219987325,0.068796674,4.34226505,6.153369875
967,1778428881450,-1.7512913,-1.4791716,1.2580613,0.090329036,4.131007,6.3137174
968,1778428881460,-1.7512913,-1.4791716,1.2580613,0.090329036,4.131007,6.3137174
969,1778428881470,-1.8805670333333333,-1.5518317777777777,1.188002988888889,0.1375678928888889,3.659704777777778,6.9620299333333335
970,1778428881480,-1.9093187125000002,-1.576947975,1.1519002875000002,0.11781716375000001,3.4682379875,7.2889348125
971,1778428881490,-1.8630694222222222,-1.6531757888888887,1.1392941222222221,0.09209370888888889,3.1963431,7.591677611111111
972,1778428881500,-1.7830614249999999,-1.765804325,1.1215212,0.03565820925,2.805163375,7.915511625
973,1778428881510,-1.7510473,-1.745681,1.1013753,0.012751437,2.7620986,7.9929366
974,1778428881520,-1.7510473,-1.745681,1.1013753,0.012751437,2.7620986,7.9929366
975,1778428881530,-1.7510473,-1.745681,1.1013753,0.012751437,2.7620986,7.992936600000001
976,1778428881540,-1.4711186,-1.7307526625,1.0919540125,0.374754788875,2.8247104,7.9893476
977,1778428881550,-1.222175,-1.6936964,1.0764958,0.7805864,2.8280702,7.834726999999999
978,1778428881560,-1.222175,-1.6936964,1.0764958,0.7805864,2.8280702,7.834727
979,1778428881570,-1.1057734,-1.6742211500000002,1.169953975,1.2000953,2.9296998,7.33329775
980,1778428881580,-1.0489026,-1.6353698,1.2648909,1.5772076,3.112725,6.9294515
981,1778428881590,-1.0489026,-1.6353698,1.2648909,1.5772076,3.112725,6.9294515
982,1778428881600,-0.7728004125,-1.634897225,1.2066596125,2.4057455125000002,3.0146839375,6.7342855875000005
983,1778428881610,-0.3841383,-1.5657926,0.98838085,3.4457893,2.5702925,6.3845754
984,1778428881620,-0.3841383,-1.5657926,0.98838085,3.4457893,2.5702925,6.3845754
985,1778428881630,0.42603095714285716,-1.3940970142857143,0.40410892142857147,3.2503183,1.49146,5.612999
986,1778428881640,0.741903,-1.4084053,0.2777296,2.919239,1.0174425,5.0192556
987,1778428881650,1.2620249,-1.2814602666666668,0.08078723055555556,2.579879422222222,1.122932411111111,4.1029846
988,1778428881660,1.9660124333333333,-1.3601268,0.051574828888888896,2.395742933333333,2.0382446,2.9623039
989,1778428881670,2.57005085,-1.499302475,0.1644836925,2.44170925,2.713078125,2.1833209
990,1778428881680,3.370006866666667,-1.5717618444444446,0.31395126,2.4981616666666664,2.801464322222222,1.2809297333333332
991,1778428881690,3.8918123,-1.6268023,0.38608962,2.508139,2.3748214,0.58870405
992,1778428881700,4.35266235,-1.7452618500000001,0.307918115,2.3002981375,1.25155923,0.06055978125000001
993,1778428881710,4.629321511111112,-1.8583333333333334,0.1002091,1.5879823222222222,0.015177865555555559,-0.3058563088888889
994,1778428881720,4.7719744125,-2.02778595,0.015797415625000002,0.06505524749999997,-0.9281347,-0.8704573124999999
995,1778428881730,4.7246773625,-2.1757671125,0.1726587,-0.9550024300000001,-1.228394775,-1.5989880749999998
996,1778428881740,4.431638275,-2.0980036,0.6381241000000001,-1.710448675,-1.08417752875,-2.453391625
997,1778428881750,4.253662433333333,-1.7732335666666668,1.1087029,-1.6029904333333334,-0.7570688200000001,-3.157774766666667
998,1778428881760,4.2081113,-1.6043619,1.2712327,-1.1141853625,-0.8286238875,-3.3634777000000002
999,1778428881770,4.180592733333333,-1.4274749444444443,1.3775329111111112,-0.6220546111111112,-1.5086909333333334,-3.6079692222222226
1000,1778428881780,4.1117034,-1.5370104,1.3822758,-0.5889331,-2.4632416,-4.033119
