id,timestamp,acc_x,acc_y,acc_z,gyro_x,gyro_y,gyro_z
0,1778428847030,-0.06302197,0.245997575,0.874227855,-0.2793862625,0.01412584275,-0.16225631
1,1778428847040,-0.06296099,0.23720895,0.87660605,-0.3018349,-0.010613471,-0.1621036
2,1778428847050,-0.06632161777777777,0.25113929999999995,0.972387361111111,-0.36359834888888887,-0.05663063222222221,-0.14432115499999998
3,1778428847060,-0.07052240666666668,0.23704635666666668,1.1131035666666667,-0.3621051711111111,-0.23418356666666668,-0.108077545
4,1778428847070,-0.06222924,0.21818347,1.1790017,-0.28228778,-0.3368059,-0.09429955
5,1778428847080,-0.02480708775,0.20826291125000002,1.247431725,0.08131904125,-0.5055524874999999,-0.1355317375
6,1778428847090,-0.013659334,0.19620048,1.2785501,0.29251948,-0.5609869,-0.1932568
7,1778428847100,-0.013659334,0.19620048,1.2785501,0.29251948,-0.5609869,-0.1932568
8,1778428847110,-0.04783138255555556,0.22012802,1.1720738,0.8137079566666666,-0.6759619,-0.29255340222222226
9,1778428847120,-0.07424552611111111,0.24544790666666666,0.9797963444444444,1.0560106388888888,-0.5972304444444445,-0.30558482444444446
10,1778428847130,-0.09128582,0.2437947,0.8834357,1.0273688,-0.5640411,-0.28305134
11,1778428847140,-0.021788619375,0.27165837375,0.8310660125,0.81250322875,-0.45240874374999995,-0.2309002675
12,1778428847150,0.059797697500000004,0.28730333750000003,0.86575936,0.5716766799999999,-0.3010713375,-0.2231883175
13,1778428847160,0.10738432,0.26480204,0.9268833400000001,0.44523129999999994,-0.22868594999999997,-0.24334627000000003
14,1778428847170,0.10738432,0.26480204,0.92688334,0.4452313,-0.22868595,-0.24334627
15,1778428847180,0.18779296875,0.2426399225,0.9929618975,0.6486434475,0.061008370000000006,-0.45882265875
16,1778428847190,0.18766339,0.22720838,1.0296332,0.75981766,0.1750841,-0.588475
17,1778428847200,0.18766339,0.22720838,1.0296332,0.75981766,0.1750841,-0.588475
18,1778428847210,0.1081808525,0.29370235749999996,1.1078580125,0.78906195,-0.246324152875,-0.6856760625
19,1778428847220,0.07003457,0.30870703,1.1367736,0.84106034,-0.56648445,-0.6794912
20,1778428847230,0.0930961325,0.2806261225,1.164957475,0.9496384474999999,-0.7506549375,-0.682698185
21,1778428847240,0.14357544666666666,0.29034215333333335,1.1549861333333336,1.0720284999999998,-0.8703470755555556,-0.714852528888889
22,1778428847250,0.18180938,0.34142238,1.1279926,1.1599226,-0.87129724,-0.74668443
23,1778428847260,0.2245490022222222,0.3513958555555556,1.0891556666666666,1.1745829111111112,-0.8066831777777778,-0.7602588166666666
24,1778428847270,0.3390975325,0.355264625,0.9926569525,1.1485455375,-0.282822285,-0.8803836125
25,1778428847280,0.40850621111111113,0.3473576577777778,1.0264047166666666,1.123611111111111,0.2273454577777778,-1.0151178333333333
26,1778428847290,0.4921857075,0.3424666275,1.212845175,1.1284639749999998,1.1784007,-1.3408861
27,1778428847300,0.4672757425,0.384016305,1.3829618250000002,1.2399436,1.4099118499999999,-1.557126075
28,1778428847310,0.39982008999999996,0.43911099666666664,1.5085331000000002,1.4164275777777777,1.3948782,-1.7088367666666668
29,1778428847320,0.33254989333333335,0.49190882,1.5409130666666666,1.591053533333333,1.2395873,-1.7562113666666666
30,1778428847330,0.2797859955555555,0.5280864,1.5378777222222224,1.6896035555555555,1.09067633,-1.7549896555555555
31,1778428847340,0.2270254325,0.5740578875,1.53201015,1.80719165,0.9507073775,-1.695635625
32,1778428847350,0.2041108188888889,0.5614216277777778,1.5257293222222224,1.9253906,0.8696174,-1.6544034
33,1778428847360,0.19650536777777777,0.5430940111111111,1.4590011777777778,2.312871266666667,0.8392786733333333,-1.6063500999999998
34,1778428847370,0.219159135,0.52201217,1.3337212,2.526616975,0.8121977675000001,-1.6009543
35,1778428847380,0.23818464444444448,0.5011403722222222,1.2519566222222223,2.7569573888888885,0.7105935544444444,-1.6073002777777776
36,1778428847390,0.22942268,0.416281905,1.02685105,2.84563205,0.552129585,-1.6548616
37,1778428847400,0.15414516833333336,0.3454063333333333,0.7132733333333333,2.9909118,0.7598685266666667,-1.7926585333333334
38,1778428847410,0.07753501375,0.34160529500000003,0.5290933675,3.1295232,1.434049825,-1.8973679374999999
39,1778428847420,0.071406604,0.3177205175,0.36929746375,2.9766586,1.5581187,-1.9005749
40,1778428847430,0.065156244,0.26846078,0.30553612,2.5869381,1.6027105,-1.9665464
41,1778428847440,0.04487050555555556,0.05194747977777778,0.19261285666666664,2.2669220222222224,1.6082760111111112,-2.0782636666666665
42,1778428847450,0.01085429175,-0.0868267135,0.191817595,1.921420125,1.44768895,-2.313221375
43,1778428847460,-0.03992229562500001,-0.29163668875,0.24178240374999999,1.682578775,1.01209754,-2.601140275
44,1778428847470,-0.09370973,-0.3958539075,0.24903893250000003,1.497558875,0.53365143375,-2.9153448
45,1778428847480,-0.16766222,-0.43392777,0.23696505000000004,1.3505069,0.10605835,-3.245126
46,1778428847490,-0.3030224177777778,-0.4752919477777778,0.21712649,1.3308919444444445,-0.10441246444444446,-3.572065088888889
47,1778428847500,-0.4402129542857143,-0.5465867657142858,0.22807950714285713,1.4602957857142855,-0.1415965742857143,-3.8429710285714287
48,1778428847510,-0.5352484525000001,-0.6416266125,0.23467452875,1.665474975,-0.18340688,-3.972721525
49,1778428847520,-0.5610557955555555,-0.7199064777777777,0.12237502888888889,1.9469738666666667,-0.2848838733333333,-4.066104866666667
50,1778428847530,-0.504377785,-0.73656735625,-0.036248300000000004,2.292127975,-0.1457634233625,-4.1415445
51,1778428847540,-0.4237899875,-0.7434961125,-0.2117730175,2.62251995,0.193562220775,-4.215457000000001
52,1778428847550,-0.3559184733333333,-0.7859774111111111,-0.21469748444444445,2.8384034666666667,0.7972659477777777,-4.3412573666666665
53,1778428847560,-0.261753085,-0.8811794374999999,-0.392987875,2.77370465,1.0594382274999998,-4.697415475
54,1778428847570,-0.30645079333333336,-0.9056524466666667,-0.4701189,2.6370275555555556,1.4665679777777776,-4.9380042
55,1778428847580,-0.3921875,-0.96374524,-0.5127433,2.3790973749999997,1.7490084,-5.191209225
56,1778428847590,-0.5281202366666666,-0.9599950666666667,-0.5531623666666667,2.059980511111111,1.9221157666666666,-5.348145877777778
57,1778428847600,-0.59351027,-0.910541,-0.5822901,1.8105513,2.0822256,-5.379503
58,1778428847610,-0.66093033,-0.8772234375000001,-0.5655132025,1.5991981,2.2886919249999997,-5.19548515
59,1778428847620,-0.6789318666666666,-0.9524336333333334,-0.5196441666666667,1.494259711111111,2.2319510777777776,-5.0010404444444445
60,1778428847630,-0.6404337124999999,-1.01053915,-0.466543965,1.2661337,1.9065306499999999,-4.7534606
61,1778428847640,-0.58932555,-0.9867953875,-0.402973195,1.1767208999999998,1.6077309499999999,-4.6254881999999995
62,1778428847650,-0.54960525,-0.98862475,-0.3621553,1.150149,1.3149251,-4.537068
63,1778428847660,-0.44497261875,-1.03667253125,-0.3307814925,1.13312165,0.9303204,-4.5768496249999995
64,1778428847670,-0.36773826777777774,-0.9927679999999999,-0.3487093777777778,1.1597868666666669,0.7724248722222222,-4.6946666666666665
65,1778428847680,-0.33215353,-0.9202976,-0.3094388,1.158701,0.68880665,-4.865704
66,1778428847690,-0.34617874249999997,-0.9279200062499999,-0.3169277875,1.099525125,0.75638161875,-4.9272181250000004
67,1778428847700,-0.37535727,-0.9093213,-0.36142352,0.9644515,1.0705862,-5.057586
68,1778428847710,-0.4284777275,-0.814426275,-0.3352558425,0.9549070125000001,1.42795095,-5.2132760000000005
69,1778428847720,-0.4985732775,-0.7251604375,-0.24796415500000002,1.1130401375,1.6824259750000001,-5.2975728124999995
70,1778428847730,-0.59082717,-0.7138221,-0.17790672,1.362113,1.6888399,-5.2371755
71,1778428847740,-0.59082717,-0.7138221,-0.17790672,1.362113,1.6888399,-5.2371755
72,1778428847750,-0.82300913,-0.71242340625,0.10627525675,1.3840272,1.20926758125,-5.3027651625
73,1778428847760,-1.439962,-0.548351781111111,0.3164954366666667,1.1066431644444445,0.3114387877777778,-5.224279577777778
74,1778428847770,-1.7978793,-0.43539125,0.428775,0.82456744,-0.06375718,-5.0313196
75,1778428847780,-2.0865987444444447,-0.36898156555555556,0.5927954444444444,0.6233271866666666,-0.36931656777777777,-4.59932331111111
76,1778428847790,-2.4998221000000003,-0.29724678,0.726932695,0.832966625,-0.515326045,-3.969438175
77,1778428847800,-2.6454592,-0.3331292,0.72287756,1.3071368,-0.31970218,-3.7105918
78,1778428847810,-2.865655,-0.37237945777777776,0.7820171577777778,2.1163652,0.2606705766666667,-3.516817322222222
79,1778428847820,-3.1561103,-0.4321365025,0.83583760625,2.8746471,0.7969266,-3.3074324
80,1778428847830,-3.3395243,-0.5034745,0.8099863,3.312166575,1.1510652749999999,-3.11638985
81,1778428847840,-3.51647045,-0.613907765,0.821587565,3.6760788,1.31859015,-2.97665865
82,1778428847850,-3.6934166,-0.72434103,0.83318883,3.8941512,1.3680688,-2.9006083
83,1778428847860,-4.6183486,-0.91468745,0.6826008,4.701157,1.3876159,-2.5512035
84,1778428847870,-5.274156400000001,-0.9218220874999999,0.47814525,4.8491345500000005,1.5787156,-2.32207865
85,1778428847880,-6.1020938000000005,-0.7705709025,-0.10902313124999999,5.10187265,2.509665975,-1.524292975
86,1778428847890,-6.458456,-0.6325674,-0.54741,5.1898346,3.5629194,-0.6153523
87,1778428847900,-6.458456,-0.6325674,-0.54741,5.1898346,3.5629194,-0.6153523
88,1778428847910,-6.126302575,-0.805839685,-0.665092165,3.8833276999999997,4.0614091,2.0776442
89,1778428847920,-5.6501775,-1.1113758,-0.60232174,2.3071702,3.452967,4.2715783
90,1778428847930,-5.6501775,-1.1113758,-0.60232174,2.3071702,3.452967,4.2715783
91,1778428847940,-4.6327321249999995,-1.553787325,-0.31696971500000004,0.034990149999999914,1.6183062000000001,6.073024225
92,1778428847950,-3.913033,-1.8091301,-0.1496124,-1.1002122,0.7242358,6.84943
93,1778428847960,-3.913033,-1.8091301,-0.1496124,-1.1002122,0.7242358,6.84943
94,1778428847970,-3.3473498,-1.6404007,0.002998137333333336,-1.8634149333333336,0.2681365,6.829476
95,1778428847980,-2.7495032222222218,-1.5065750222222223,0.10729962288888889,-2.6793964777777775,-0.16189997666666667,6.853163266666666
96,1778428847990,-2.7101276,-1.5003924,0.11079915,-2.733694,-0.18714833,6.8573713
97,1778428848000,-2.4657841124999997,-1.3837392625,0.35358772374999997,-1.9192628999999999,0.57908317625,6.815299175
98,1778428848010,-2.2371733,-1.2612321,0.8094985,-0.8980218,1.0278269,6.979541
99,1778428848020,-2.2371733,-1.2612321,0.8094985,-0.8980218,1.0278269,6.979541
100,1778428848030,-1.9908707749999999,-1.3034525750000001,0.668255475,-0.18882815625,0.9742250749999999,7.497233825
101,1778428848040,-1.7734164444444445,-1.3417551555555556,0.5533385111111112,0.22037162666666668,1.1284809999999998,7.7680765
102,1778428848050,-1.604064575,-1.3635780499999999,0.5218292125,0.38804073625,1.4743085,7.842820675
103,1778428848060,-1.4877189,-1.4411105333333334,0.5589451999999999,0.43382882,1.6764194666666665,7.8255644
104,1778428848070,-1.4078260875000002,-1.5171274000000001,0.6204935125,0.48157672500000004,1.773747775,7.732410075000001
105,1778428848080,-1.4228879749999999,-1.5098747125,0.65211505,0.507079605,1.7703117125,7.6218468125
106,1778428848090,-1.4252356,-1.4891723,0.6882109,0.43545774,1.6949484,7.5983290000000006
107,1778428848100,-1.4393903875,-1.58463515,0.7736541425,0.20577916825,1.760461775,7.443174
108,1778428848110,-1.469659,-1.6470777,0.85367787,-0.017790927,1.9398980999999997,7.207387000000001
109,1778428848120,-1.469659,-1.6470777,0.85367787,-0.017790927,1.9398981,7.207387
110,1778428848130,-1.503143311111111,-1.7181218555555557,0.9527046388888889,0.20048515611111112,2.265276122222222,7.026304622222223
111,1778428848140,-1.547011,-1.8237649,1.0877159,0.6407024,2.816464,6.722985
112,1778428848150,-1.4967108125000002,-1.85560755,1.186323,1.0405783124999999,3.0995917,6.5872241250000005
113,1778428848160,-1.4657409750000001,-1.894958125,1.2661790499999999,1.192450275,3.0076590875,6.5466790375
114,1778428848170,-1.5547214555555557,-1.8642449333333333,1.1057962666666665,1.3415478333333333,2.7537503,6.5036907
115,1778428848180,-1.5972884,-1.8216002875,1.0476030625,1.36806875,2.860750475,6.5527115
116,1778428848190,-1.5948797125,-1.8419101875,1.0623447750000001,1.277968825,2.99651125,6.6596097
117,1778428848200,-1.559847122222222,-1.8830129333333332,1.0230949555555557,1.2043108222222223,3.1439459777777774,6.772734988888889
118,1778428848210,-1.4765631666666665,-1.876481411111111,0.9933946777777778,1.2368893666666667,3.324078166666667,6.942279166666666
119,1778428848220,-1.324025425,-1.9029158625,0.956050425,1.269722425,3.414636275,7.1021683499999995
120,1778428848230,-1.114630575,-1.9014218250000001,0.89491505,1.1963443437499999,3.42952565,7.3438350125
121,1778428848240,-0.868446225,-1.897309675,0.78540788375,0.90939884375,3.3145334625,7.553966325
122,1778428848250,-0.4826535133333333,-1.9073402777777777,0.6563018433333334,0.5661790533333333,2.9569589333333335,7.518919066666667
123,1778428848260,-0.28768066125,-1.8662292875,0.5545369175,0.31183752925,2.748659975,7.376515250000001
124,1778428848270,0.12976027777777777,-1.7083889222222224,0.4391177533333333,-0.07785756777777778,2.7533431555555556,6.971396444444444
125,1778428848280,0.4563414125,-1.6286849375,0.42307344875,-0.3452050475,2.7744682000000003,6.58386465
126,1778428848290,1.09076485,-1.5279092250000001,0.44690104999999997,-0.49341186125,2.751103275,6.1753509
127,1778428848300,1.6109476,-1.4018196,0.504938,-0.49180837999999993,2.8280702,5.660034
128,1778428848310,1.8476764,-1.39540915,0.545633975,-0.3847574035,2.88075575,5.39660625
129,1778428848320,3.2326174222222224,-1.2607103777777777,0.7788869,0.8355627206666667,3.3138293777777776,3.2078558444444445
130,1778428848330,3.7211925875,-1.1359504624999999,0.7116078375,1.4164880249999998,3.4334960625,2.487980825
131,1778428848340,4.2887868000000005,-1.125147,0.4220266666666667,1.8103477000000001,3.4152979,1.6570759
132,1778428848350,4.6695865,-1.2036983499999998,0.316154125,1.6298740999999999,2.989181125,1.14564405
133,1778428848360,4.916323,-1.3978864,0.3714241,1.2655991,2.156749,0.8061657
134,1778428848370,4.99650325,-1.738234075,0.36093569,0.58656606125,0.5053329625,0.44162348125
135,1778428848380,4.969444,-1.8657377,0.33605618875,-0.2758738875,-0.7604475625,-0.005726687500000001
136,1778428848390,5.109529311111111,-1.6670349555555557,0.34216087444444443,-1.0640025888888889,-1.4350499,-0.6608943111111112
137,1778428848400,5.2019652,-1.54957215,0.43612299,-1.4832898499999998,-1.7201459,-1.5621655
138,1778428848410,5.053957275,-1.5621758,0.5429508625,-1.6989189249999999,-1.77313695,-2.3798036000000002
139,1778428848420,4.8562894,-1.6163138,0.6298843,-1.899429525,-1.5617838,-3.71962065
140,1778428848430,4.1275578,-1.8008063000000003,0.9354204000000002,-1.9511987999999998,-1.1902359,-4.9763436
141,1778428848440,3.3254988500000002,-1.952552975,1.294488675,-1.57306535,-0.8549570750000001,-6.238659650000001
142,1778428848450,2.518508175,-2.1493174125000003,1.6142176000000001,-0.88924088625,-0.809296225,-7.307957025
143,1778428848460,1.5889849333333332,-2.4612107333333335,1.7308529666666665,0.08802139666666668,-1.145584588888889,-8.170744333333333
144,1778428848470,0.835216415,-2.816768825,1.6576234375,0.94339635,-1.613247575,-8.88401025
145,1778428848480,0.30991138,-3.1100481,1.5365683125,1.6604355375000002,-1.9396690625,-9.602595375
146,1778428848490,-0.42630198666666663,-3.459846111111111,1.2899363444444445,1.9977419777777778,-2.0171872222222222,-10.050125222222224
147,1778428848500,-1.0930821,-3.737398,1.07599265,2.342752,-1.9020257250000001,-10.63675975
148,1778428848510,-1.4594821555555555,-3.841294433333333,0.9536024111111112,2.4465790000000003,-1.7835043666666668,-10.85915888888889
149,1778428848520,-1.816765888888889,-3.962006166666667,0.8174697666666666,2.389634366666667,-1.7233019,-11.042617
150,1778428848530,-1.985805725,-4.0209358125,0.7601053012500001,2.268304975,-1.6437136250000002,-11.210192875
151,1778428848540,-2.2840358,-3.9794194999999997,0.7153872733333333,2.1783491666666666,-1.3109630555555556,-11.32740711111111
152,1778428848550,-2.439364925,-3.8184163250000003,0.72035455,2.26311275,-0.9723924875000001,-11.177130374999999
153,1778428848560,-2.5111084111111115,-3.5799682222222224,0.7830843444444445,2.4806507,-0.7179746,-10.71052
154,1778428848570,-2.517524925,-3.401639075,0.861856725,2.76835985,-0.98172697,-9.86777975
155,1778428848580,-2.5236296555555553,-3.2333256444444447,0.8961736222222222,2.9907082555555555,-1.5381473222222222,-9.159909333333333
156,1778428848590,-2.4867494375,-3.0176913,0.8302389875,3.1167717625,-2.8673170499999996,-7.959616625
157,1778428848600,-2.432786825,-2.852895175,0.7153542500000001,2.9400078499999998,-4.005497325,-7.084072
158,1778428848610,-2.3848343,-2.7511363,0.5939981,2.5368488,-5.1614304,-6.296995
159,1778428848620,-2.3718219333333335,-2.552781088888889,0.48718288333333326,1.7368253777777778,-6.235723688888888,-5.541987933333333
160,1778428848630,-2.350099,-2.3309439999999997,0.4545996875,1.0846356849999998,-6.710767875,-5.0116007
161,1778428848640,-2.2761389999999997,-2.187719166666666,0.46490516666666665,0.5633284433333334,-6.8250473666666664,-4.590007933333333
162,1778428848650,-2.209123,-2.1336915,0.4844185,0.32061845,-6.7778087,-4.4148984
163,1778428848660,-2.105808775,-2.086409775,0.4285463425,0.11308309200000001,-6.283461425,-4.44070685
164,1778428848670,-1.9834456111111112,-1.907110011111111,0.29305910777777777,0.014380362333333332,-5.269142933333334,-4.6234009
165,1778428848680,-1.9438899375,-1.845961475,0.2564745625,0.022066857125,-4.6954968,-4.7373588625
166,1778428848690,-1.877701,-1.803276,0.21867129,0.07872294,-3.7386906,-4.933584
167,1778428848700,-1.851830625,-1.75872305,0.19770970375,0.131255805,-3.3105631125,-5.040329637499999
168,1778428848710,-1.812117975,-1.608073975,0.15418583000000002,0.23372543,-2.4632415749999996,-5.30650655
169,1778428848720,-1.8430344,-1.5467671,0.15619814,0.22410458,-2.2818198,-5.4082127
170,1778428848730,-1.8430344,-1.5467671,0.15619814,0.22410458,-2.2818198,-5.4082127
171,1778428848740,-2.0823623624999996,-1.1486607675,-0.0383978175,0.21509458874999998,-2.2124124375,-5.4846449
172,1778428848750,-2.279889,-0.92566377,-0.17376013,0.16424155,-2.097955,-5.4369226
173,1778428848760,-2.279889,-0.92566377,-0.17376013,0.16424155,-2.097955,-5.4369226
174,1778428848770,-2.7606590222222223,-0.7373160711111111,-0.10719460377777779,-0.4313345333333334,-2.5524253333333333,-5.084845433333333
175,1778428848780,-3.2936678,-0.5693625,0.02268425,-1.1313655,-3.1565533,-4.834551
176,1778428848790,-4.178278977777778,-0.34017906833333333,0.3638118633333333,-2.0869172777777774,-3.1717565666666667,-4.887524888888889
177,1778428848800,-5.9353462,0.09669009375000001,1.2335933,-4.116118,-2.7405663,-4.950077
178,1778428848810,-6.795244,0.30407262,1.9911833000000003,-4.262924877777778,-1.9880023666666666,-4.5495056555555555
179,1778428848820,-7.4941606125,0.4381505575,2.557797875,-3.0559256875000003,-1.5136031,-3.05513355
180,1778428848830,-7.9912895875,0.5176788025,2.9228573625000003,-0.9209286125,-1.27605035,-0.770955975
181,1778428848840,-7.9944906,0.47027131999999994,2.556643,0.4708869,-1.0130138,0.9662076
182,1778428848850,-7.7183771,0.33113592625,2.1696768375,0.590307525,-0.619017325,1.6989379500000001
183,1778428848860,-6.803469,-0.13148633625,1.33286735,0.9485694,0.5629721,3.897129
184,1778428848870,-6.402813,-0.37218636,1.2826967,0.5136462,0.77554697,4.404743
185,1778428848880,-6.096346875,-0.53727982,1.363356925,0.30313296250000005,0.73103147,4.5627997874999995
186,1778428848890,-5.01451125,-1.0432735,1.612197775,-0.41102384625,0.38750622375,5.243818375
187,1778428848900,-4.551467922222222,-1.0517924222222221,1.5657147333333334,-0.26212984,0.33329353,5.316738
188,1778428848910,-4.3110747,-1.0401217,1.4933189,-0.199899775,0.36299598125,5.324373625
189,1778428848920,-3.9303473249999996,-0.9820428750000001,1.2970726750000001,0.659562325,0.9910233549999999,5.449979
190,1778428848930,-3.1918528888888886,-0.9696534888888889,0.9263515444444445,1.0010344066666665,1.8675381222222223,5.693876766666666
191,1778428848940,-2.8989038999999996,-1.027308475,0.8060989000000001,1.062339675,2.33145115,5.81251695
192,1778428848950,-2.6277905500000003,-1.1590006499999999,0.7016186999999999,1.045465025,2.7871433124999996,5.8532150375
193,1778428848960,-2.3736751333333332,-1.1738693333333332,0.5774219,0.9882744999999998,3.2318401,5.8623013
194,1778428848970,-2.2425220571428572,-1.2372934142857144,0.5250088685714286,0.9680292714285714,3.2939719857142857,5.873034685714286
195,1778428848980,-2.0832389,-1.2967333625,0.5027427250000001,0.556558215,4.105828775,6.108319675000001
196,1778428848990,-2.0231364,-1.3278518,0.5259148,0.28580016,4.30151,6.2966137
197,1778428849000,-2.0231364,-1.3278518,0.5259148,0.28580016,4.30151,6.2966137
198,1778428849010,-1.8230636875,-1.5965947249999999,0.7241656825,-0.36727192500000005,3.93187095,6.9514419875
199,1778428849020,-1.8027881,-1.7010139,0.79486346,-0.6542938,3.619728,7.216549400000001
200,1778428849030,-1.8039771999999998,-1.731122375,0.82552074,-0.7056813125,3.510920875,7.30642035
201,1778428849040,-1.8123009,-1.9418817,1.0401217,-1.052718825,2.6769619374999998,7.990951375
202,1778428849050,-1.8065993,-2.1069318666666668,1.2121032333333333,-0.9639933,2.1707985,8.378992
203,1778428849060,-1.7966597,-2.1968966,1.2822089,-0.9639933,2.1707985,8.378992
204,1778428849070,-1.7966597000000002,-2.1968966,1.2822089,-0.9639933,2.1707985,8.378992
205,1778428849080,-1.8722700875,-2.3255815625,1.3312705625,-0.3042782885,1.1083250875,8.675243125
206,1778428849090,-1.9267588000000002,-2.3938591,1.3517863,0.074447006,0.7578324,8.719921
207,1778428849100,-1.9267588,-2.3938591,1.3517863,0.074447006,0.7578324,8.719921
208,1778428849110,-1.9624993333333336,-2.3917451888888888,1.2938085888888888,0.8276216673333333,1.3201087444444444,8.886818111111111
209,1778428849120,-1.856689975,-2.4512215625,1.2611101625,1.174506525,1.7078525125,8.952195625
210,1778428849130,-1.7397547625,-2.4864256375,1.230098425,1.3140088,1.88606725,8.929136
211,1778428849140,-1.6248509,-2.4734066,1.1965637,1.4219761,2.0138106,8.858583
212,1778428849150,-1.50205415,-2.44266555,1.14310785,1.5075710249999998,2.036870175,8.7399265
213,1778428849160,-1.4115992,-2.41961925,1.1032656374999998,1.5671286375,1.9575363875,8.6560108125
214,1778428849170,-1.3274657111111112,-2.358867177777778,1.0977503222222222,1.6582466777777778,1.6537841111111111,8.62116727777778
215,1778428849180,-1.243045075,-2.337605975,1.1551970249999999,1.752062625,1.3608913249999999,8.64005225
216,1778428849190,-1.1283043333333334,-2.3483246666666666,1.2011439555555556,1.9592586222222224,1.0442518844444444,8.652998666666667
217,1778428849200,-0.8497523124999999,-2.334553175,1.1689553750000001,2.4409457125,0.643680315,8.601416875
218,1778428849210,-0.47338128666666673,-2.2502802888888893,0.916831988888889,3.0010926,0.4065273377777777,8.445981555555555
219,1778428849220,-0.027366095555555567,-2.112629977777778,0.6047338166666667,3.4335724222222224,0.40978517999999997,8.207818600000001
220,1778428849230,0.79804197,-1.91240575,0.09085135,3.7811445624999998,0.59618691625,7.6118439125
221,1778428849240,1.3654455,-1.919929,-0.2743148,3.69028095,0.9985252950000001,6.8144592
222,1778428849250,2.0975919,-2.0760968,-0.7057729,3.2619243,1.6821207,5.839089
223,1778428849260,2.8680332,-2.0031352,-0.76605076,2.6736784,2.5873964,4.782858
224,1778428849270,3.5010309111111106,-2.100461388888889,-0.7322920666666666,2.5342016333333337,2.9198328444444446,3.987195077777778
225,1778428849280,4.225510666666667,-2.3722217666666667,-0.8494398233333333,2.2755417444444443,2.4324445333333333,3.4219579111111114
226,1778428849290,4.64997405,-2.6085289124999997,-0.94161361125,1.210069345,1.0952300075,3.125151925
227,1778428849300,5.204480425,-3.0061052999999998,-0.9487367125,-0.44540309,-0.7926697524999999,2.773399325
228,1778428849310,5.367437111111111,-3.3050945333333335,-0.8847772188888888,-1.3214153,-1.7076235,2.4481232
229,1778428849320,5.450051075,-3.541791875,-0.493588244,-2.8295972,-2.3429046,1.3938007
230,1778428849330,5.466843344444444,-3.3047492333333333,-0.04748922244444445,-2.9627619666666667,-1.5833924666666668,-0.7914798666666667
231,1778428849340,5.422622125,-3.0945364875,0.10030691875,-2.4391894375,-1.0619579375,-1.912877725
232,1778428849350,5.106712,-3.0433598125000003,0.0730225515,-2.097191375,-0.70087085,-3.604457
233,1778428849360,4.854582,-3.0630445,0.06174140399999999,-2.1888185,-0.7063685,-4.7392583
234,1778428849370,4.08057335,-3.152870725,0.2508111375,-2.6570328375,-0.9041303125,-5.9841558
235,1778428849380,2.9829078666666664,-3.2695708666666667,0.8527022,-3.468407688888889,-1.4670175555555554,-7.9427619
236,1778428849390,2.439502,-3.355653,1.213394,-3.6517975,-1.8328472,-8.787496
237,1778428849400,1.6882653250000001,-3.505985875,1.7222575125000001,-3.5700204375,-2.3892527875000003,-9.681165
238,1778428849410,1.3482417,-3.59243525,1.910263875,-3.4470111,-2.601598575,-10.0392935
239,1778428849420,-0.20542186222222222,-4.029672955555555,2.416750066666667,-2.3946739555555556,-3.1880458222222225,-11.481069111111111
240,1778428849430,-0.9516790225,-4.2417529125,2.3847046499999998,-1.694404375,-2.96375455,-12.057895625
241,1778428849440,-2.311798111111111,-4.668592077777777,2.1800561111111114,-0.3969234688888889,-2.0726386888888886,-13.036795333333332
242,1778428849450,-2.8439311,-4.82688235,2.06675935,0.003588725000000001,-1.6703618999999998,-13.35250975
243,1778428849460,-3.4981073333333335,-4.8220226111111115,1.9600702222222222,0.18324568777777778,-1.5644816444444443,-13.459340333333333
244,1778428849470,-3.926193325,-4.5886025,1.8330604125,0.37964157,-1.7315229625000002,-12.9246595
245,1778428849480,-4.1679908999999995,-4.293447875,1.6898395,0.509064835,-1.9504353500000002,-12.10783275
246,1778428849490,-4.160588433333333,-3.6391451333333333,1.4257946000000001,0.55945972,-2.3431082666666665,-10.577329
247,1778428849500,-3.9123662500000003,-3.123528175,1.1825651625,0.4505762125,-2.876632425,-9.001292000000001
248,1778428849510,-3.5484284444444447,-2.7965826333333332,0.9755176277777777,0.07424339666666667,-3.5556655333333334,-7.4181544666666674
249,1778428849520,-3.3563373,-2.6659111222222225,0.8895573666666667,-0.3069931722222222,-4.037267755555556,-6.344573466666667
250,1778428849530,-3.0300853,-2.4682841,0.7841311,-0.80272967,-4.553637,-5.259166
251,1778428849540,-2.935575225,-2.41862425,0.761675525,-1.02472491875,-4.7618595,-4.894003375
252,1778428849550,-2.422644722222222,-2.152225811111111,0.6507934111111111,-1.6651186999999998,-5.2658849,-4.017440666666666
253,1778428849560,-1.8842054666666666,-1.9689767,0.6202800666666667,-2.9709743444444445,-5.683636944444444,-3.2389497333333335
254,1778428849570,-1.7446369499999999,-1.9127793499999999,0.692067785,-3.57210115,-5.540919275,-3.3196494
255,1778428849580,-1.701258,-1.8540107,0.78047234,-3.9615735999999995,-5.2536683,-3.545052
256,1778428849590,-1.69564755,-1.747678125,0.892231875,-4.1262733625,-4.3368437375,-4.075038375
257,1778428849600,-1.721045425,-1.625449225,0.9549375124999999,-3.9843945375,-3.2800970375,-4.5959477875
258,1778428849610,-1.7349182,-1.4808791,1.0145104,-3.5198545,-2.0625257,-5.0979023
259,1778428849620,-1.741465925,-1.3413016,1.010420975,-3.0430884375,-1.3409624624999998,-5.3849239125
260,1778428849630,-1.6993064,-1.2121743,0.9978935999999999,-2.4911878,-0.58969665,-5.726464
261,1778428849640,-1.7591498749999999,-1.13877075,1.0551987,-2.2689921125,-0.39002596875,-5.874594624999999
262,1778428849650,-1.9120188111111114,-1.0956567444444445,1.2648129777777777,-1.8550921666666669,-0.38411263777777777,-6.081501777777778
263,1778428849660,-2.035042675,-1.06862185,1.3278404875,-1.39837248375,-0.6920994375,-6.2125455625
264,1778428849670,-2.2430272,-0.9725262,1.1960759,-0.50463617,-1.1395355,-6.38679
265,1778428849680,-2.4455694777777777,-0.8426914133333333,0.8568691222222223,-0.14593310111111113,-1.0121484111111112,-6.528845666666666
266,1778428849690,-2.756887275,-0.7042941125000001,0.47251615999999996,0.12194038175000001,-0.48715068124999994,-6.8133139499999995
267,1778428849700,-3.010572,-0.5144507,0.3667897,-0.024510246,-0.29099235,-6.9469366
268,1778428849710,-3.3982639888888886,-0.24703337555555555,0.43377532333333335,-0.4878124524444445,-0.4276864088888889,-6.938859888888889
269,1778428849720,-4.5690165,0.39563286000000003,0.8659651625,-1.99243105,-1.2954066125,-6.487121625
270,1778428849730,-5.168899,0.68284476,1.1601896,-2.6292393,-1.6825788,-6.135121
271,1778428849740,-6.6246395499999995,1.207235125,2.0721408,-3.381192225,-2.11230985,-4.4823974
272,1778428849750,-7.551538,1.3754461,2.8136094,-3.1814451,-2.1755326,-3.2829986
273,1778428849760,-7.551538,1.3754461,2.8136094,-3.1814451,-2.1755326,-3.2829986
274,1778428849770,-7.9362824375,1.0496115925,3.0788306375000003,-0.7496050025,-1.4628837625,0.13924454000000003
275,1778428849780,-7.9942474,0.79803437,2.836812,0.90336674,-0.3868954,2.1811829
276,1778428849790,-7.9942474,0.79803437,2.836812,0.90336674,-0.3868954,2.1811829
277,1778428849800,-6.780368533333333,-0.2017292511111111,2.261104233333333,1.463573131111111,1.4888723555555554,4.1975812
278,1778428849810,-5.6396887499999995,-1.040182675,2.108141325,1.2619436375000002,1.958147275,5.3645560625
279,1778428849820,-4.966113,-1.3969108,2.0936892,0.9681165,1.7383186,5.790221
280,1778428849830,-4.4486855125,-1.4904452375000001,2.02021685,1.1729985,1.9121046375000001,5.723085175
281,1778428849840,-3.8783017125,-1.3897952625,1.9186981374999998,1.5523919,2.28449245,5.5721488625
282,1778428849850,-3.4573967,-1.2339134,1.7512913,2.1184182,2.6741366,5.465785
283,1778428849860,-3.001714775,-1.05593055,1.358112825,2.5193631125,2.787906925,5.4861721249999995
284,1778428849870,-2.7328424,-0.9635013,1.0894233,2.5686128,2.7932518,5.526259
285,1778428849880,-2.7328424,-0.9635013,1.0894233,2.5686128,2.7932518,5.526259
286,1778428849890,-2.4118921333333336,-0.917970208888889,0.8315424,2.2289816888888887,2.6167848222222223,5.688828977777778
287,1778428849900,-2.044989825,-0.90127208,0.56045191,1.698308125,2.274336975,5.97973625
288,1778428849910,-1.9794753,-0.9283469,0.50664544,1.5008518,2.104827,6.154286
289,1778428849920,-1.9111244555555555,-0.9346344555555556,0.42485199999999995,1.2455854888888889,2.042384777777778,6.366046533333334
290,1778428849930,-1.8294016124999999,-0.95912227375,0.39231330125,0.76791135,2.223331325,6.7544436249999995
291,1778428849940,-1.7715362,-1.0806423,0.47344225999999995,0.5380801,2.3455007,6.927008
292,1778428849950,-1.7715362,-1.0806423,0.47344226,0.5380801,2.3455007,6.927008
293,1778428849960,-1.7440766375,-1.1556848,0.5549065975,0.44798012499999995,2.4297976500000003,6.9899252999999995
294,1778428849970,-1.7000653444444445,-1.3445398111111109,0.7610572888888889,0.35136443444444443,2.5738219777777775,7.350935755555556
295,1778428849980,-1.6364598000000001,-1.47795975,0.8123644575,0.4006394425,2.4857664875,7.5461016125
296,1778428849990,-1.5819216,-1.5189606,0.81291324,0.41652146,2.383984,7.647197
297,1778428850000,-1.6077225777777777,-1.6849052222222223,0.9386388044444445,0.31566380666666666,2.219462611111111,7.558759855555555
298,1778428850010,-1.6870954,-1.760857325,1.031287325,0.224639085,2.096580425,7.4254592875
299,1778428850020,-1.7969035,-1.7390648,1.0969847,0.23693238,2.0431314,7.2886295
300,1778428850030,-1.7969035,-1.7390648,1.0969847,0.23693238,2.0431314,7.2886295
301,1778428850040,-2.0320508375,-1.7670199625,1.139323275,0.5803812575,1.9692952,7.4281318125
302,1778428850050,-1.9890146874999999,-1.7966711375,1.09326495,0.846405225,2.28380515,7.636354325
303,1778428850060,-1.877392711111111,-1.8468320111111112,1.0649469333333335,0.9632298,2.6301556,7.677128299999999
304,1778428850070,-1.7018256125,-1.8984644,1.0296333,1.0237037125000001,3.2612370875,7.4721125
305,1778428850080,-1.5318475444444444,-1.9065102333333332,1.0195514,1.075625611111111,4.046931022222221,7.105850555555556
306,1778428850090,-1.4488956,-1.8920921,1.0201205,1.1525924,4.6399193,6.835992
307,1778428850100,-1.3436861111111111,-1.881630877777778,0.9734104777777777,1.2421833111111111,5.262304588888889,6.599118755555555
308,1778428850110,-1.1312702,-1.8633022750000001,0.853365315,1.2347513749999999,6.115726325,6.25339595
309,1778428850120,-1.0430486,-1.8457174,0.79242426,1.1128874,6.6050153,6.054107
310,1778428850130,-0.9228357975,-1.8286433500000001,0.79498539375,0.8884009875000001,7.3335937625,5.8109136125
311,1778428850140,-0.6891866,-1.7822686000000003,0.910541,0.7048414,8.124269,5.5280914
312,1778428850150,-0.407676265,-1.7161901,1.006141025,0.848543175,8.55934475,5.4668541
313,1778428850160,0.18472115,-1.6186272875,1.171870925,1.197413325,8.39601935,5.6180386874999995
314,1778428850170,0.60159,-1.5118566,1.2824528,1.3284485555555556,7.382004466666667,5.653586555555555
315,1778428850180,1.8272408249999998,-1.0906657875,1.3046187875,1.252771425,4.9955663,5.34346275
316,1778428850190,2.431453,-0.9356643,1.2322061,1.1611443,3.1157792,4.833558
317,1778428850200,2.5893380555555554,-0.8524718022222222,0.9046157444444444,0.8816477144444446,1.2551384222222224,3.903297066666667
318,1778428850210,2.4736656999999997,-0.75361105,0.5854686,0.259075605,0.7227086749999999,2.894652425
319,1778428850220,2.6235143,-0.7317805125,0.728906825,-0.2234937425,1.4317687499999998,2.2631891
320,1778428850230,2.9225958888888885,-0.7937150344444445,1.102150988888889,-0.3273547488888889,1.8844468333333333,1.7133417444444445
321,1778428850240,3.2639062125,-0.93375494375,1.4664918,-0.11125055875,1.577188575,1.331494325
322,1778428850250,3.497437175,-1.065069725,1.5998570499999998,0.012293301249999998,0.7236249250000001,1.16702375
323,1778428850260,3.760466588888889,-1.317556522222222,1.6843225,-0.1216349611111111,-0.5984012444444445,1.033197288888889
324,1778428850270,4.037506875,-1.552632525,1.669952575,-0.4282802875,-1.89897135,0.717573755
325,1778428850280,4.2164858999999995,-1.5202411333333332,1.5714941666666666,-0.7489751055555556,-2.8001577666666666,0.2530689311111111
326,1778428850290,4.356123200000001,-1.316989925,1.492038275,-1.146808525,-3.4345078,-0.4719558725
327,1778428850300,4.390713275,-1.2771019,1.5116277999999999,-1.5405568,-3.8401676499999997,-1.6131904
328,1778428850310,4.240796,-1.3934959,1.6280218,-1.6812043,-3.8804836,-2.578081
329,1778428850320,3.7407128888888885,-1.502113388888889,1.848918911111111,-1.5038550666666668,-3.774527,-4.360558666666667
330,1778428850330,2.8990868875,-1.649692325,2.1513907625,-1.15463495,-3.8260608499999997,-5.471588125
331,1778428850340,2.1107634,-1.8006996000000002,2.2767181499999998,-0.594583455,-4.1515468,-6.497506025
332,1778428850350,1.6387235624999998,-1.9276048375000001,2.2582299875,0.0024433887499999973,-4.508968837499999,-7.29673275
333,1778428850360,0.8040238255555556,-2.221948811111111,2.1043876666666663,0.69567865,-4.7564387,-8.154658
334,1778428850370,0.15252414749999998,-2.429783525,1.93072245,1.195523575,-4.84470575,-8.870571250000001
335,1778428850380,-0.582122375,-2.69024075,1.69583065,1.5552172,-4.8773861,-9.571060750000001
336,1778428850390,-1.2797291333333334,-2.8435297777777775,1.4719253555555556,1.6165055,-4.7578638,-10.037493
337,1778428850400,-1.653114725,-2.8935226,1.3940447875,1.5361949625,-4.5474524,-10.216649624999999
338,1778428850410,-2.0336552,-2.9112368,1.3842272,1.4244194,-4.234775,-10.193666
339,1778428850420,-2.2979465875000002,-2.9979072875,1.4614190875,1.4830703125,-4.1129871625,-9.965056500000001
340,1778428850430,-2.5321092222222226,-3.1581890222222224,1.4808180222222223,1.6959835666666667,-4.367193211111111,-9.638066444444444
341,1778428850440,-2.7310665,-3.219418025,1.364660375,1.8311673750000002,-4.580896475,-9.367037625
342,1778428850450,-2.879939325,-3.1717629,1.1753430249999999,1.9140134500000001,-4.590670075,-9.093454
343,1778428850460,-2.9613922,-3.143468575,0.9747634375,1.966470075,-4.3024263000000005,-8.4388545
344,1778428850470,-2.9262531,-2.946566625,0.69534549,1.909203075,-3.89726265,-7.78568725
345,1778428850480,-2.8256627777777776,-2.6979723888888887,0.47269699555555555,1.7742991888888888,-3.5459343666666663,-7.241093622222223
346,1778428850490,-2.6432447625,-2.4528792875,0.2272045525,1.3133979,-2.918170075,-6.4750573750000004
347,1778428850500,-2.3214565,-2.3536638,0.18791745999999998,0.8931859233333334,-2.3274298666666664,-6.200074033333333
348,1778428850510,-2.17658275,-2.35730225,0.2645428775,0.6652890175,-1.945701225,-6.200939525
349,1778428850520,-2.1286777666666667,-2.297678,0.36454703,0.5857261399999999,-1.8481184000000002,-6.220843166666667
350,1778428850530,-2.1102757,-2.160065,0.41218868,0.6162685,-1.9397454,-6.1772695
351,1778428850540,-2.144702125,-2.005494325,0.38269381875,0.72209781,-2.524479,-5.79808585
352,1778428850550,-2.1978722,-1.7964156999999998,0.23257454,0.72255594,-2.977575,-5.375227
353,1778428850560,-2.1401479625000004,-1.634477875,0.06794985125,0.5816029575,-3.33973105,-4.7555986375
354,1778428850570,-1.9752371,-1.4749437666666667,-0.09420265333333333,0.35177167,-3.5711148333333336,-4.1184338
355,1778428850580,-1.8559619,-1.3766657,-0.16693048,0.18928629,-3.6501179,-3.8040514
356,1778428850590,-1.6722994333333334,-1.2659884666666668,-0.23694472333333336,-0.32687963444444446,-3.812399511111111,-3.5082655999999997
357,1778428850600,-1.5717304375,-1.1419072875,-0.2613490975,-0.8441240875,-3.8338968749999998,-3.3931803375
358,1778428850610,-1.50938685,-0.8809584375,-0.1342303975,-1.63493265,-3.61087085,-3.399059525
359,1778428850620,-1.5137367,-0.8181168,0.15268167333333332,-1.9425790333333335,-3.502699866666666,-3.4498956666666665
360,1778428850630,-1.5160335,-0.8060836,0.31309754,-1.9786869,-3.4784696,-3.49313
361,1778428850640,-1.5527506375,-0.634553025,0.48292452375,-1.7667229624999998,-3.5144332625,-3.606900225
362,1778428850650,-1.6575662,-0.50420624,0.64671457,-1.514443,-3.6269057,-3.7582378000000003
363,1778428850660,-1.9112929625,-0.4740558575,0.82902322125,-1.29146475,-3.8764272375,-4.026934225
364,1778428850670,-2.2267840625,-0.4405935275,0.9725948625,-1.117316,-4.0612946,-4.309222
365,1778428850680,-2.7501605,-0.3011456,1.0618607,-1.117316,-4.0612946,-4.309222
366,1778428850690,-3.6962179125,0.015225737449999999,1.0726846,-0.76172655,-4.295401525,-5.586274575
367,1778428850700,-5.0792943125,0.48681575,1.1195508749999998,-0.9316184249999999,-3.757235525,-5.9307924375
368,1778428850710,-5.9705925,0.759709,1.1528721,-0.9701017999999999,-2.75767,-5.804652
369,1778428850720,-7.4722196875,1.0140493,1.3193719499999998,-0.60916745,-1.3759239125,-4.8289099124999995
370,1778428850730,-7.992999988888889,1.1621138777777777,1.3824112444444445,-0.25534264,0.014702744444444447,-2.305473233333333
371,1778428850740,-7.9944906,1.1721416,1.3615428,-0.24991289,0.3601708,-1.1186904
372,1778428850750,-7.9944906,0.9608183,1.3744705,-0.4490491,0.7798229,1.6912833
373,1778428850760,-7.420006,0.5520444,1.4188938,-0.585268,0.93436724,4.024185
374,1778428850770,-6.4091544,0.03734974,1.5311564,-0.6787277,1.0076689,4.986881
375,1778428850780,-5.757947733333333,-0.2752328577777778,1.6546087444444444,-0.7476855222222222,0.9038248777777778,5.532859533333333
376,1778428850790,-4.440731575,-0.7822636375,1.858816525,-0.667732415,0.666052565,5.8386118
377,1778428850800,-3.9950502,-0.8848992,1.8501079,-0.35436776,0.64910156,5.576959
378,1778428850810,-3.6188054222222226,-0.8858917700000001,1.7097881555555554,0.23733961555555558,1.175066531111111,5.067716033333333
379,1778428850820,-3.237612875,-0.8648065125,1.4577528124999999,0.9974372499999999,1.986475325,4.46399535
380,1778428850830,-3.0693865,-0.8427016,1.2939475,1.4134243,2.5183706,4.1689563
381,1778428850840,-2.8857323125,-0.7839825025,1.0507206,1.6684434875,3.0827933749999996,4.0230401625
382,1778428850850,-2.7872929375,-0.7713750625,0.9278437625,1.7151828375,3.3400364,4.034951625000001
383,1778428850860,-2.4577653375,-0.76126393,0.57897053,1.525505125,3.8633797375,4.3851960375
384,1778428850870,-2.2410758,-0.7689778,0.40828604,1.0780691,3.9269843,4.8384447
385,1778428850880,-2.2410758,-0.7689778,0.40828604,1.0780691,3.9269843,4.8384447
386,1778428850890,-2.1113313625,-0.8568716,0.5048084225,0.14301462874999998,3.39623435,5.7517187375
387,1778428850900,-2.0145993,-0.9681357,0.6459828,-0.5076904,2.7596552,6.6283035
388,1778428850910,-2.0145993,-0.9681357,0.6459828,-0.5076904,2.7596552,6.6283035
389,1778428850920,-1.895374788888889,-1.1756342666666668,0.8235270577777778,-0.7059443111111112,1.925288711111111,7.866711788888889
390,1778428850930,-1.8225454,-1.3237052,0.90371126,-0.6518504,1.5360518,8.514066
391,1778428850940,-1.8225454,-1.3237052,0.90371126,-0.6518504,1.5360518,8.514066
392,1778428850950,-1.62410775,-1.5624768,0.97610116,-0.30259846875,1.2236797975,8.902411875
393,1778428850960,-1.4589267,-1.7805612,1.045,0.06894939,0.85190284,9.138351
394,1778428850970,-1.4589267,-1.7805612,1.045,0.06894939,0.85190284,9.138351
395,1778428850980,-1.4808859444444442,-1.7811574444444445,1.0556340777777777,0.14883463333333335,0.7365884566666667,9.071022111111112
396,1778428850990,-1.6653715,-1.7229664,1.1223825,0.79891187,0.08712209,8.401593
397,1778428851000,-1.6881385142857144,-1.7329364857142857,1.1375097,0.94158835,0.2270061142857143,8.259178428571428
398,1778428851010,-1.779532225,-1.770865475,1.20162495,1.49559275,0.8693120062499999,7.605353549999999
399,1778428851020,-1.8262042000000003,-1.7688533,1.2285168,1.6859385,1.3717339,7.0730004
400,1778428851030,-1.8262042,-1.7688533,1.2285168,1.6859385,1.3717339,7.0730004
401,1778428851040,-2.0320241125,-1.7471980125,1.3062842749999999,1.9845664375,2.420682725,6.3238535625
402,1778428851050,-2.1817737,-1.7537304,1.3615428,2.386580325,3.776887625,5.66568485
403,1778428851060,-2.2102272555555555,-1.774815611111111,1.3462777666666665,2.6156480333333336,4.5605092222222225,5.601062155555556
404,1778428851070,-2.1798224,-1.7966597,1.2856238,2.7329307,5.049187,5.798773
405,1778428851080,-1.9831713111111111,-1.919302388888889,1.1817288666666665,2.7416182555555557,5.383116777777778,6.1441054444444445
406,1778428851090,-1.7252911375,-1.991427225,1.055385475,2.6683336250000003,5.516866925,6.560805
407,1778428851100,-1.3158796311111112,-2.0268561444444444,0.8954587333333333,2.397304,5.461984111111111,7.090172
408,1778428851110,-0.90449634375,-2.0752772874999996,0.80632375,2.1332313000000003,5.236411875,7.209830375
409,1778428851120,-0.17425813666666667,-2.0702528666666664,0.6925302333333333,1.6517055666666665,4.580031,7.128587466666667
410,1778428851130,0.44209134625,-1.9648974125,0.5369977875,1.2677371499999999,4.0968,6.788345475
411,1778428851140,0.79901004,-1.8552301,0.4065786,0.9190451777777776,3.830063177777778,6.270075622222222
412,1778428851150,1.4335287333333335,-1.6565803333333333,0.24901858999999998,0.5917667711111112,4.027587444444444,5.549530244444444
413,1778428851160,2.0505668333333333,-1.4295447666666667,0.28813672999999995,0.32957753666666667,4.495895155555555,4.590440688888889
414,1778428851170,2.4380656444444444,-1.2983515333333333,0.44202105555555554,0.22003227444444443,4.645213600000001,3.888848733333334
415,1778428851180,2.96513028,-1.0757945,0.759702878,0.20803930899999998,4.08445327,2.9694125
416,1778428851190,3.182777088888889,-0.9881064444444445,0.8361971111111112,0.3579480133333333,3.6022851888888883,2.6543858888888887
417,1778428851200,3.6129443777777777,-0.9160968222222221,0.8855292977777778,0.5235554888888889,2.7583657444444443,2.5718536444444444
418,1778428851210,4.080495466666666,-0.9587144777777777,0.8857088444444444,0.40885193555555555,1.383467271111111,2.6125767444444445
419,1778428851220,4.51629079,-1.1379627700000001,0.855556032,-0.003802533000000008,-0.174771016,2.51769857
420,1778428851230,4.7669583555555555,-1.4459718444444445,0.8014051666666666,-0.48352804,-1.6225799555555556,2.168490777777778
421,1778428851240,4.981432155555556,-1.6332998444444444,0.6714314444444445,-1.0739543155555555,-2.4379252666666664,1.5983667333333333
422,1778428851250,5.1221042444444445,-1.4946128888888888,0.6427983111111111,-1.8590287888888888,-2.7754522777777777,0.7566785522222221
423,1778428851260,5.19677888,-1.4778362,0.78344206,-2.49289812,-2.7552266,-0.353176624
424,1778428851270,5.073243266666667,-1.5779985333333333,1.0745342333333332,-2.7488296222222224,-2.5425160666666664,-1.6247604444444446
425,1778428851280,4.805558111111111,-1.6203044666666666,1.3037820111111111,-2.781408166666667,-2.3465697555555556,-2.7844115333333335
426,1778428851290,4.2363081199999995,-1.7191551,1.6119721000000002,-2.76069362,-2.2576303199999996,-4.31902604
427,1778428851300,3.7216332333333333,-1.829798466666667,1.8550776555555555,-2.6613427777777776,-2.4246224777777776,-5.235817755555555
428,1778428851310,3.0682784,-1.9834525555555556,2.1382343555555554,-2.307594333333333,-2.8862194444444444,-6.215548733333334
429,1778428851320,2.2240016,-2.3530946,2.385322,-1.5612492333333334,-3.7953212666666665,-7.188043266666666
430,1778428851330,1.219970511,-2.85134023,2.41484818,-1.01542664,-4.4883986,-7.93255408
431,1778428851340,0.49528639,-3.2422827555555553,2.3218055333333334,-0.3989596166666667,-4.8973406666666675,-9.057898
432,1778428851350,-0.6100897722222222,-3.825765155555555,2.0739658,-0.01860538555555556,-4.707434888888889,-10.01382277777778
433,1778428851360,-1.2029563444444444,-4.085935977777777,1.9406315444444442,0.21405955333333335,-4.228530911111111,-10.689818222222222
434,1778428851370,-1.6561874222222221,-4.228843888888889,1.8853370000000003,0.4296207644444444,-3.7726265888888886,-11.162749666666667
435,1778428851380,-2.26780906,-4.17814015,1.76186808,0.81015148,-3.37548092,-11.6049218
436,1778428851390,-2.6784082,-4.090391,1.6735122666666669,1.0184096666666667,-3.4285837666666668,-11.660590333333333
437,1778428851400,-3.0831269333333333,-3.9869905666666674,1.5778359666666666,1.0843812,-3.6709119999999995,-11.404035
438,1778428851410,-3.3058636,-3.8400717000000006,1.4925871,1.1202176,-3.8884245999999996,-11.070919
439,1778428851420,-3.4585181333333335,-3.447189511111111,1.1941550888888888,1.2161884555555555,-4.049484799999999,-10.347752111111111
440,1778428851430,-3.3860573,-2.8026392400000004,0.666197408,1.20561395,-4.1750339400000005,-8.1831009
441,1778428851440,-3.2067826,-2.539579177777778,0.4396868822222222,0.9172126288888889,-4.200838888888889,-7.170031888888889
442,1778428851450,-2.7823778333333333,-2.198298933333333,0.22280772,0.08971820222222224,-4.2588016444444445,-5.966391222222223
443,1778428851460,-2.4285867999999997,-2.0473856666666665,0.19369017,-0.8599626555555555,-4.446874755555555,-5.080034888888889
444,1778428851470,-2.1453003749999997,-2.0106433,0.28559592749999996,-1.6097353,-4.661146,-4.523629
445,1778428851480,-1.89461895,-2.0583328,0.5400162749999999,-2.369781975,-4.993294349999999,-4.14536205
446,1778428851490,-1.766223525,-2.1122345,0.7825838,-3.06507875,-5.32040325,-3.9462259250000002
447,1778428851500,-1.6808398666666668,-2.1743849333333336,1.0419103666666667,-3.1698392,-5.2835996666666665,-4.177278966666666
448,1778428851510,-1.6700973333333333,-2.2170094000000002,1.1193641,-2.888034955555556,-5.076318933333333,-4.538374611111111
449,1778428851520,-1.7231391333333332,-2.2143162666666663,1.0367881666666667,-2.3425484,-4.616351133333333,-5.140661466666667
450,1778428851530,-1.80893185,-2.1629463125,0.89412229125,-2.0037317375,-4.079075875,-5.594139425
451,1778428851540,-1.9894825999999999,-1.9459333,0.6827024233333333,-1.7747318555555553,-2.969498333333333,-6.183513644444444
452,1778428851550,-2.0501804875,-1.8171678125000001,0.598743,-1.7519863,-2.320532425,-6.453066949999999
453,1778428851560,-2.0773163,-1.761048,0.5635085,-1.7557278,-1.6123314,-6.7203126
454,1778428851570,-2.106481233333333,-1.5903434444444444,0.5477081333333333,-1.786881,-1.0343934,-6.890128
455,1778428851580,-2.1382993125,-1.5098976125,0.55896555,-1.873774,-0.9197832562499999,-6.811252375
456,1778428851590,-2.1790905,-1.4515786,0.5886319,-1.9646375,-1.0069053,-6.678164
457,1778428851600,-2.3097765,-1.1416138975,0.70358524375,-2.185917,-1.432494075,-6.3120375875
458,1778428851610,-2.416313022222222,-0.8952352133333333,0.8186453166666667,-2.5086987888888888,-1.919655388888889,-5.7833406555555555
459,1778428851620,-2.4914868,-0.73580515,0.9215172,-2.6212983,-2.157207,-5.473573
460,1778428851630,-2.4914868,-0.73580515,0.9215172,-2.6212983,-2.157207,-5.473573
461,1778428851640,-2.7876355999999998,-0.5186617077777778,1.1472620666666666,-2.7964078,-2.5086479,-5.3676929
462,1778428851650,-3.3649218,-0.13006857,1.3659334,-3.0733252,-2.853573,-5.3672857
463,1778428851660,-4.067479711111111,0.2291936,1.6125568222222222,-3.441140133333333,-2.825270477777778,-5.3343678444444445
464,1778428851670,-5.464308925,0.68590513625,2.3536853875,-4.0695408749999995,-2.50661185,-4.844381425
465,1778428851680,-6.2173448,0.72434103,2.9517577,-4.1625423,-2.229898,-3.9207232
466,1778428851690,-6.54278708888889,0.6835561288888888,3.2811061666666665,-3.8903504444444446,-2.4662958666666666,-3.01380164
467,1778428851700,-7.421393175,0.662348095,4.1529405,-3.000787125,-3.202672175,-0.22707291375000002
468,1778428851710,-7.4746737,0.82267,4.221039,-2.3519146,-3.1919823,1.28507
469,1778428851720,-7.4746737,0.82267,4.221039,-2.3519146,-3.1919823,1.28507
470,1778428851730,-6.697589725,0.69165623,4.24632645,-0.9886180962500001,-1.778825392,2.65348235
471,1778428851740,-5.4196353,0.17977675333333332,4.096245266666667,1.3932153666666667,0.3896950886666667,4.207914777777778
472,1778428851750,-4.7418313,-0.18302898,3.8529992,2.8575435,1.4658043,4.605101
473,1778428851760,-4.7418313,-0.18302898,3.8529992,2.8575435,1.4658043,4.605101
474,1778428851770,-3.7292112,-0.603129695,3.0627930500000002,3.962012625,1.967672625,4.2527948
475,1778428851780,-3.070362,-0.7226336,2.340167,4.492247,2.3039632,3.8690302
476,1778428851790,-3.070362,-0.7226336,2.340167,4.492247,2.3039632,3.8690301999999996
477,1778428851800,-2.688797957142857,-0.77538059,1.7265640571428573,4.451931285714285,3.2647386571428574,3.421889971428571
478,1778428851810,-2.5251472,-0.82828003,1.5103929,4.4714785,3.6918082,3.4005103
479,1778428851820,-2.5251472,-0.82828003,1.5103929,4.4714785,3.6918082,3.4005103
480,1778428851830,-2.257226657142857,-0.8795373771428572,1.1645888000000002,4.434740257142857,3.8597038714285716,3.6819363714285713
481,1778428851840,-1.977524,-0.9176144999999999,0.7880338,4.2014837,4.0748096,4.1402464
482,1778428851850,-1.96282035,-0.9321961400000001,0.7616145750000001,4.093039275,4.0818342,4.20163655
483,1778428851860,-1.8890566444444445,-1.0704350555555555,0.6446548022222223,3.036928966666667,3.9626170333333337,4.862674999999999
484,1778428851870,-1.8698957,-1.1628727,0.6101271,2.6138153,3.8445199,5.217781
485,1778428851880,-1.8698957,-1.1628727,0.6101271,2.6138153,3.8445199,5.217781
486,1778428851890,-1.7954909500000003,-1.3351287333333335,0.6560748333333334,1.6294096,3.7312077833333332,6.1976434
487,1778428851900,-1.7565455222222222,-1.4968522000000002,0.7832977555555556,1.1431582666666666,3.536245644444444,6.740699288888888
488,1778428851910,-1.7378795625,-1.6585800625,0.9143292624999999,0.79234525,3.0010927,7.229682575
489,1778428851920,-1.780202975,-1.80374095,1.0342143000000001,0.5867951375,2.4393422625000003,7.5911515624999995
490,1778428851930,-1.8391049625,-1.859167125,1.0953726125,0.52166358375,1.92905565,7.8945901
491,1778428851940,-1.919056225,-1.916800025,1.15140865,0.6089383537499999,1.48936975,8.2564695
492,1778428851950,-1.935343222222222,-1.9738210777777776,1.1713352888888888,0.7505870333333333,1.3459425666666667,8.464247777777778
493,1778428851960,-1.8966656,-2.0655282625,1.1755868875,0.962313505,1.332792325,8.605540000000001
494,1778428851970,-1.8689201,-2.1117392,1.1731477,1.1043355,1.3717339,8.616076
495,1778428851980,-1.8474282777777777,-2.1048010666666666,1.1805193444444444,1.174583,1.4505332,8.532391
496,1778428851990,-1.88361595,-2.0978892499999997,1.299245,1.233682475,1.45442735,8.216678125000001
497,1778428852000,-1.968110325,-2.05529525,1.3963085999999998,1.358161675,1.36730525,8.03661175
498,1778428852010,-1.9948319333333333,-1.9976064666666664,1.4206824999999998,1.5554207444444446,1.2894052333333335,8.066169777777779
499,1778428852020,-1.9462645375,-1.98401825,1.42340625,1.7611490125,1.287207825,8.145724249999999
500,1778428852030,-1.7647065499999999,-1.97373555,1.41852025,2.072757475,1.3596697,8.16779175
501,1778428852040,-1.560853275,-1.972134875,1.3922154,2.3668041125,1.45732885,8.116327375000001
502,1778428852050,-1.2839299777777777,-1.987436388888889,1.3563325444444443,2.6033632222222223,1.4514155777777777,7.987845922222222
503,1778428852060,-0.913033525,-1.977622975,1.299359375,2.9891810000000003,1.054551465,7.629940225
504,1778428852070,-0.6921136,-2.002891,1.219004,3.151361,0.63444126,7.382089
505,1778428852080,-0.25580761888888887,-1.8276472888888888,0.8426677444444445,3.2870369999999998,-0.28474815166666667,6.743482422222223
506,1778428852090,-0.029845914444444448,-1.6478943222222222,0.5177944288888888,3.2898197666666666,-0.5721857333333333,6.3082198
507,1778428852100,0.19740988444444443,-1.5825652777777777,0.2807412968888889,3.314796655555556,-0.36273299555555555,5.8645921111111114
508,1778428852110,0.6169147749999999,-1.5381957499999999,0.05394750775,3.5655155499999998,0.49684789,5.2445056249999995
509,1778428852120,1.4246901444444446,-1.429094177777778,-0.24929976888888886,4.031210333333333,1.6598756333333333,4.4487242333333334
510,1778428852130,2.129287488888889,-1.2865079777777777,-0.50412157,4.233791155555555,2.2514981666666665,3.789144988888889
511,1778428852140,2.6799696375,-1.1969562624999999,-0.6891332275,4.2741747,2.5788443,3.109747
512,1778428852150,3.213724075,-1.194848625,-0.8648713375,4.036784175,2.596406325,2.1619411250000002
513,1778428852160,3.52714165,-1.295167,-1.029755175,3.750678525,2.37237805,1.3164522
514,1778428852170,3.548990888888889,-1.5035226888888888,-1.2702467888888889,3.4155186222222222,1.9162702999999999,0.6450292277777778
515,1778428852180,3.3672353,-1.6095451250000001,-1.66202155,2.3341811,1.2877424,0.0029778774999999966
516,1778428852190,3.2694013777777777,-1.6334759888888888,-1.807697088888889,1.2683819477777778,1.1278022666666667,-0.2576672511111111
517,1778428852200,3.1708670875,-1.7272348375,-1.707813025,-0.48702658125,1.38856085,-0.45828817499999996
518,1778428852210,3.26228645,-1.6988643749999999,-1.292110425,-1.7450378375,1.6192033625,-0.56999689125
519,1778428852220,3.3622391,-1.6265583,-0.9176145,-2.354358,1.5978237,-0.63306683
520,1778428852230,3.638034133333333,-1.470593988888889,-0.5141356888888888,-2.619465711111111,1.0264694477777778,-0.7605981444444444
521,1778428852240,3.7739396,-1.4013013,-0.4019442,-3.0348418,0.14576343,-1.1553413
522,1778428852250,3.5576366,-1.4109868666666667,0.09136711333333333,-3.722418355555556,-0.5091327222222222,-2.2348101555555555
523,1778428852260,3.31375275,-1.469518,0.3854835975,-3.900164275,-0.806547475,-3.1800707999999998
524,1778428852270,2.7899494,-1.6172894,0.8475799,-3.515578588888889,-0.9108665999999999,-4.254262577777777
525,1778428852280,2.2446328666666666,-1.6747250555555557,1.0418257333333334,-2.832515755555556,-0.8658674999999999,-5.215727733333333
526,1778428852290,1.775439,-1.7600722,1.1284804,-2.0544322,-0.8175427,-6.099692
527,1778428852300,1.1293172222222223,-1.879699888888889,0.9713033333333334,-1.3781223777777778,-1.1330453222222223,-7.282054222222222
528,1778428852310,0.6041434575,-1.983126475,0.858365675,-1.2071296249999999,-1.341420625,-8.0196605
529,1778428852320,-0.0482726275,-2.16774075,0.8495237,-1.324164175,-1.446180925,-8.713583
530,1778428852330,-0.6281159125,-2.3655991125,0.9996239,-1.4185400750000001,-1.46969855,-9.1269745
531,1778428852340,-1.025357075,-2.484329325,1.0929067749999999,-1.3548592,-1.46649155,-9.383682499999999
532,1778428852350,-1.3832819,-2.543474977777778,1.1357980444444444,-1.213278388888889,-1.3982632333333334,-9.486372666666666
533,1778428852360,-1.6148007625,-2.5782295625,1.1352453375,-1.08379576875,-1.2710108,-9.479815375
534,1778428852370,-1.7712924,-2.55613995,1.1006434999999999,-0.97246885625,-1.045159625,-9.368717125
535,1778428852380,-1.779002425,-2.52923665,1.0928992124999999,-0.85503347875,-0.80349323125,-9.223488
536,1778428852390,-1.7312594749999999,-2.5592040999999996,1.0888745499999999,-0.63703733,-0.5730510625,-9.09872275
537,1778428852400,-1.7105266000000001,-2.5302797,1.0999116666666666,-0.4049323455555556,-0.5787692777777778,-8.988532666666666
538,1778428852410,-1.7206225,-2.4715734125,1.10436315,-0.183101472,-0.844353175,-8.77711175
539,1778428852420,-1.758120875,-2.360732225,1.07808115,-0.037643463,-1.69387945,-8.2108562
540,1778428852430,-1.771566725,-2.3025123875,1.0674059625,-0.04169032625,-2.131398775,-7.914280225000001
541,1778428852440,-1.76536985,-2.2376153,1.0436584249999998,-0.09132166875,-2.7965351624999997,-7.4266807749999995
542,1778428852450,-1.7347794666666667,-2.133034311111111,1.0159163333333332,-0.10140912777777777,-3.4413437888888887,-6.845128711111112
543,1778428852460,-1.6848848,-2.024112,0.9842342,-0.08620582,-3.7283063,-6.5401125
544,1778428852470,-1.587762111111111,-1.9279106999999998,0.9034537666666667,-0.09353598800000001,-4.1516997,-6.193150999999999
545,1778428852480,-1.5354173750000002,-1.8565261,0.843120835,-0.146526988,-4.40214725,-6.056626625
546,1778428852490,-1.4943215222222221,-1.7704760222222222,0.7800895644444444,-0.2552068977777778,-4.599450999999999,-5.981730266666667
547,1778428852500,-1.4850561625,-1.7266556625,0.7588857875,-0.45225605,-4.70970895,-5.9724828
548,1778428852510,-1.4855136,-1.7295521,0.7611725,-0.57915956,-4.7032948,-6.00501
549,1778428852520,-1.5067613333333334,-1.7944338777777777,0.7915536288888889,-0.63291412,-4.6519836,-6.067316466666666
550,1778428852530,-1.54468995,-1.80135125,0.77829235625,-0.64841437375,-4.60395575,-6.1218346375
551,1778428852540,-1.672460325,-1.762130325,0.7126635075,-0.7633300475,-4.547376075,-6.1955947
552,1778428852550,-1.777878,-1.6651278,0.71430993,-1.0464578,-4.5615783,-6.278059
553,1778428852560,-2.0305282222222223,-1.4910660333333334,0.8204306533333333,-1.5629545111111112,-4.437101344444445,-6.354550488888888
554,1778428852570,-2.2646290000000002,-1.3929014,0.97325798,-1.82505885,-4.19934595,-6.37671085
555,1778428852580,-2.7765338,-1.3224857,1.3537375,-1.6928104,-3.333699,-6.3037148
556,1778428852590,-2.8024296333333334,-1.3253076888888888,1.3716315000000001,-1.6928104,-3.333699,-6.3037148
557,1778428852600,-3.3867488124999996,-1.3453338,1.684328375,-0.13179030749999998,-1.5802618875,-6.217890525
558,1778428852610,-3.6917095,-1.0901551,1.5760676,0.56251395,-1.1804624,-6.207201
559,1778428852620,-4.042401,-0.72580457,1.4127958,0.702398,-1.0386695,-6.1369534
560,1778428852630,-4.042401,-0.72580457,1.4127958,0.702398,-1.0386695,-6.1369534
561,1778428852640,-4.042401,-0.72580457,1.4127958,0.702398,-1.0386695,-6.1369534
562,1778428852650,-4.042401,-0.72580457,1.4127958,0.702398,-1.0386695,-6.1369534
563,1778428852660,-4.042401,-0.72580457,1.4127958,0.702398,-1.0386695,-6.1369534
564,1778428852670,-4.042401,-0.72580457,1.4127958,0.702398,-1.0386695,-6.1369534
565,1778428852680,-4.042401,-0.72580457,1.4127958,0.702398,-1.0386695,-6.1369534
566,1778428852690,-4.042401,-0.72580457,1.4127958,0.702398,-1.0386695,-6.1369534
567,1778428852700,-4.042401,-0.72580457,1.4127958,0.702398,-1.0386695,-6.1369534
568,1778428852710,-4.042401,-0.72580457,1.4127958,0.702398,-1.0386695,-6.1369534
569,1778428852720,-4.042401,-0.72580457,1.4127958,0.702398,-1.0386695,-6.1369534
570,1778428852730,-4.042401,-0.72580457,1.4127958,0.702398,-1.0386695,-6.1369534
571,1778428852740,-4.042401,-0.72580457,1.4127958,0.702398,-1.0386695,-6.1369534
572,1778428852750,-4.042401,-0.72580457,1.4127958,0.702398,-1.0386695,-6.1369534
573,1778428852760,-4.042401,-0.72580457,1.4127958,0.702398,-1.0386695,-6.1369534
574,1778428852770,-4.042401,-0.72580457,1.4127958,0.702398,-1.0386695,-6.1369534
575,1778428852780,-4.7529719749999995,-0.631660352875,1.6474131625000001,0.696900375,-0.77760862,-4.4172942875
576,1778428852790,-2.2716378625,-1.01325275625,0.8357728775,0.5189911075,3.007582825,6.7535272875
577,1778428852800,-1.950811175,-1.1569311375,0.952372625,0.469207065,2.900073775,7.1065970125
578,1778428852810,-1.823040775,-1.24914295,0.999852575,0.53067357375,2.9219115,7.243503125
579,1778428852820,-1.6770947,-1.32188355,0.99803845,0.66353284875,3.012622375,7.3723921625
580,1778428852830,-1.5994835,-1.3654455,0.9859417,0.7292753,3.179918,7.4327893
581,1778428852840,-1.4940404666666667,-1.4650142666666666,1.0090426,0.7382343466666668,3.3141009999999995,7.484915233333333
582,1778428852850,-1.4515786,-1.5162774,1.0367068,0.71583664,3.316137,7.5170865
583,1778428852860,-1.4230131666666666,-1.6362405000000002,1.0741106666666669,0.6366301,3.0241519333333335,7.522787666666667
584,1778428852870,-1.4455455375000001,-1.7326317125000001,1.1032655875000001,0.5745782125,2.754997375,7.502425925
585,1778428852880,-1.486601,-1.7419647777777778,1.0960632666666665,0.5354330666666667,2.5041174,7.489598266666667
586,1778428852890,-1.5352419750000001,-1.757190925,1.072654025,0.5564055,2.4458324250000003,7.52594375
587,1778428852900,-1.5672561,-1.8093739,1.0830815,0.5912238,2.4261327,7.558013
588,1778428852910,-1.5752037333333333,-1.8195946777777776,1.0895622222222223,0.5878302,2.4346845555555556,7.543352666666667
589,1778428852920,-1.6387848,-1.9013609,1.141408,0.5606814,2.5030994,7.42607
590,1778428852930,-1.741424,-1.9736250625,1.280722575,0.70056544375,2.651459,7.207845
591,1778428852940,-1.8580555,-2.0072783333333333,1.3683724666666668,0.8893172444444445,2.6871001555555556,7.164763444444445
592,1778428852950,-1.965393025,-1.9588338125,1.3768790625,1.1622132500000002,2.78760145,7.284506375
593,1778428852960,-1.9768632333333334,-1.9391171999999999,1.3717873666666667,1.4720909666666668,2.8832499333333335,7.587944766666666
594,1778428852970,-1.94474,-1.9565812999999999,1.3411378,1.6822734,2.8335678,7.8927576375
595,1778428852980,-1.764046,-2.0287565333333335,1.2347061666666665,1.8377000555555556,2.5612655777777777,8.348805666666667
596,1778428852990,-1.59535215,-2.07054755,1.1571977875,1.8120783249999999,2.15980325,8.62310175
597,1778428853000,-1.3598354,-2.0760968,1.061129,1.699071625,1.8734686,8.6229485
598,1778428853010,-1.07948375,-2.0626202499999997,1.0096854375,1.63584895,1.6396477,8.464720499999999
599,1778428853020,-0.8935379733333334,-2.0303420777777776,0.9876491288888888,1.6330661888888889,1.4058735111111111,8.223836888888888
600,1778428853030,-0.6990042325,-1.91692585,0.964781895,1.693268625,1.02164204375,7.7650904
601,1778428853040,-0.49312326874999995,-1.78298885,0.9640463075000001,1.7574075,0.79753745,7.5299144
602,1778428853050,-0.2483884592222222,-1.635552711111111,0.8874400033333333,2.1978284666666665,0.11019853555555555,6.978862211111111
603,1778428853060,0.009756667,-1.5511576,0.73580515,2.5185232,-0.18531579,6.6728954
604,1778428853070,0.1586881238888889,-1.4981226444444444,0.5923855255555556,2.647004788888889,-0.2291610451111111,6.426647677777778
605,1778428853080,0.709637425,-1.26599615,-0.009451774999999996,2.909007375,0.17584765049999998,5.30223055
606,1778428853090,1.1376069777777778,-1.1006875444444446,-0.4411436311111111,2.8497382222222223,1.2108180333333332,4.355807477777777
607,1778428853100,1.6150129555555557,-1.0004581377777777,-0.7260111777777778,2.676121888888889,2.7752063222222225,3.4716995333333336
608,1778428853110,2.1618436,-0.8883241633333333,-0.8350385666666666,2.0852288,5.015794,2.2854341666666667
609,1778428853120,2.475358,-0.78632635,-0.7611725,1.6657804,6.169481,1.6961701
610,1778428853130,3.0892691333333335,-0.94857835,-0.3025413742222222,1.7436296,6.900724677777777,1.2583962222222222
611,1778428853140,3.588639325,-1.35330305,-0.004207562874999999,2.24623825,6.079686375,1.44037785
612,1778428853150,4.02683575,-1.713880525,-0.030451472125000004,2.2531101,4.6257076625,2.0013647125
613,1778428853160,5.016959533333333,-1.9413023333333337,-0.2681254066666667,1.1640458,1.7382930799999998,2.9091346666666666
614,1778428853170,5.9004778375,-2.033659125,-0.52197406,-0.052761949999999974,-0.80335957,2.904788675
615,1778428853180,6.442946888888889,-2.093638511111111,-0.8195633588888889,-1.307501622222222,-2.705815733333333,2.14731468
616,1778428853190,6.27380725,-2.1713575,-0.91970307625,-2.7980623125,-3.3940201500000002,0.1665226675
617,1778428853200,5.6364949875,-2.40169875,-0.5198245524999999,-3.4749574,-2.1274093,-2.337349725
618,1778428853210,5.071535811111111,-2.544023777777778,-0.016813308888888892,-3.5073660777777778,-0.6524103333333333,-4.765813111111111
619,1778428853220,4.2772198625,-2.6659291874999997,0.5876600750000001,-2.9420694375,0.4382065625,-7.443737
620,1778428853230,2.9753567000000003,-2.817031675,1.12706275,-2.248070725,0.586489715,-9.09736725
621,1778428853240,1.9384667,-2.8865707,1.3717873,-1.5553699,0.29603186,-10.294533
622,1778428853250,1.2056122844444443,-2.9941787222222223,1.4677820555555554,-1.14869828,-0.40952219666666667,-10.886647333333334
623,1778428853260,-0.12374197749999999,-3.2646035749999998,1.5873487000000002,-0.647956215,-1.502455225,-11.551198124999999
624,1778428853270,-0.9324222999999999,-3.4293362666666667,1.5790657000000001,-0.4571937266666667,-1.9690661333333332,-11.584845666666666
625,1778428853280,-1.424366625,-3.49682005,1.5703050250000001,-0.3662793025,-2.2510485,-11.310448125
626,1778428853290,-1.6809822,-3.4620616,1.5728662,-0.37086064,-2.421704,-11.0642
627,1778428853300,-1.9227494,-3.37044425,1.5749776,-0.747524325,-2.8242523125,-10.50715525
628,1778428853310,-2.156883966666667,-3.1569830333333333,1.5940360666666666,-1.006616888888889,-2.9249063333333334,-10.115002444444444
629,1778428853320,-2.2111618875,-2.9913483625,1.6128989375,-1.0568421562499999,-2.8690732625,-9.678340375000001
630,1778428853330,-2.1318394125,-2.7689802,1.6221678,-0.9242882625,-2.75919705,-9.098417000000001
631,1778428853340,-2.0782921,-2.7023222,1.6148503,-0.8088381,-2.6941419,-8.726411
632,1778428853350,-2.0289446,-2.663402275,1.557621375,-0.6562790325,-2.6082414125,-8.320427125
633,1778428853360,-1.953955375,-2.5655078875,1.4576041000000002,-0.4395809625,-2.5604426625000003,-7.9998843125
634,1778428853370,-1.9210763625,-2.4077281125,1.262489825,-0.20303036000000002,-2.5055427249999997,-7.731321875000001
635,1778428853380,-1.8869597,-2.2590546666666667,1.1348223333333334,-0.05403452777777778,-2.3877001555555557,-7.483328600000001
636,1778428853390,-1.8343067,-2.12632075,1.023100925,0.10101886375000001,-2.2524992,-7.1816549
637,1778428853400,-1.745056125,-1.97170795,0.9316016075,0.2126511925,-2.1439212249999997,-6.850575625
638,1778428853410,-1.6831776,-1.8576694,0.89371073,0.28091338,-2.1370492,-6.592645
639,1778428853420,-1.6092333888888888,-1.7513454333333334,0.8789977855555555,0.29957816000000004,-2.3599405333333334,-6.176251466666667
640,1778428853430,-1.5392057,-1.7498276,0.88736886,0.2772483,-2.7595024,-5.7429566
641,1778428853440,-1.517886688888889,-1.773738311111111,0.8586409022222222,0.19458030444444444,-3.0992014111111112,-5.592552588888889
642,1778428853450,-1.4923432,-1.7854396,0.82267,0.08177718,-3.5151205,-5.4399767
643,1778428853460,-1.4923432,-1.7854396,0.82267,0.08177718,-3.5151205,-5.4399767
644,1778428853470,-1.4923432,-1.7854395999999997,0.82267,0.08177718,-3.5151205,-5.4399767
645,1778428853480,-1.4923432,-1.7854396,0.82267,0.08177718,-3.5151205,-5.4399767
646,1778428853490,-1.7402921,-1.637706075,0.7729757625,0.00931542275,-3.452585,-5.3691183875
647,1778428853500,-1.9555409,-1.486977,0.708456,0.015194826000000002,-3.0441573,-5.327581
648,1778428853510,-1.9555409,-1.486977,0.708456,0.015194826,-3.0441573,-5.327581
649,1778428853520,-1.9555409,-1.486977,0.708456,0.015194826000000002,-3.0441573,-5.327581
650,1778428853530,-1.9555409,-1.486977,0.708456,0.015194826000000002,-3.0441573,-5.327581
651,1778428853540,-1.9555409,-1.486977,0.708456,0.015194826000000002,-3.0441573,-5.327581
652,1778428853550,-2.405662525,-1.096805625,0.87654890625,0.43591587275,-1.9028655625,-5.329718875
653,1778428853560,-2.8221464,-0.6765029,1.0191449,1.0383639,-1.909203,-5.0502563
654,1778428853570,-3.0760445375,-0.5883041600000001,0.8739344149999999,1.2740746374999998,-2.79859675,-4.842272037500001
655,1778428853580,-3.1123157,-0.57570434,0.85319006,1.3077476,-2.925653,-4.81256
656,1778428853590,-3.1123157,-0.57570434,0.85319006,1.3077476,-2.925653,-4.81256
657,1778428853600,-3.1123157,-0.57570434,0.85319006,1.3077476,-2.925653,-4.81256
658,1778428853610,-3.1828152625,-0.5678037225,0.8324457075,1.2397908499999999,-3.0424107125,-4.81026935
659,1778428853620,-7.4337757875,-0.79822491,3.08743633,-2.3493853,-1.8168220124999999,-4.939148974999999
660,1778428853630,-7.9914988125,-0.732702795,3.6400142875,-0.91667173,-0.32598246249999996,-3.234913475
661,1778428853640,-7.9944906,-0.7448300622222221,3.295991811111111,1.059556957777778,0.9351986555555555,-0.5625479
662,1778428853650,-7.9944906,-0.8990769,2.2149768,2.0964277,1.844606,2.1341476
663,1778428853660,-7.3249093125,-1.0378730624999999,1.6568306125,1.4197330562500001,2.05580645,3.980948875
664,1778428853670,-6.10580995,-1.07481122,1.0193390999999998,0.73843795,2.1494188,5.2354956
665,1778428853680,-5.285796,-0.98960036,0.7662947,-0.24441525,2.2978547,6.074876
666,1778428853690,-4.6715006571428574,-0.9664544542857143,0.8503936828571429,-0.8709918214285715,2.5812877857142853,6.586242371428571
667,1778428853700,-3.6890364222222223,-1.0253477833333333,1.2202303444444444,-1.6421101,2.9893337333333334,7.439305200000001
668,1778428853710,-3.4520307,-1.0852767,1.3947154,-1.6812043,3.084626,7.763869
669,1778428853720,-3.0017147625,-1.2662285625,1.6906931625000001,-1.2048676,3.010178975,8.336642625
670,1778428853730,-2.7360134,-1.3761778,1.8101057,-0.7953995,2.9056478,8.667388
671,1778428853740,-2.4346237,-1.5118566,1.754706,-0.107585475,2.7388864,8.997856
672,1778428853750,-2.16183345,-1.620468025,1.6215046000000002,0.3823140225,2.793099175,9.176834625
673,1778428853760,-1.8750179,-1.7554379,1.4796594,0.94979113,2.9618456,9.33932
674,1778428853770,-1.6461021,-1.9162703,1.396423,1.1867999,3.0553052,9.293507
675,1778428853780,-1.5145768333333334,-2.0024338333333334,1.3483239555555555,1.2676353333333334,3.0746488000000003,9.209956333333333
676,1778428853790,-1.313758075,-2.18091225,1.2948011,1.4025053375,2.989410225,8.85491775
677,1778428853800,-1.2356209,-2.300622,1.3141925,1.4250304,2.8744946,8.628904
678,1778428853810,-1.2433957,-2.3130732375000003,1.3129119500000002,1.4897992625,2.752172375,8.4073767
679,1778428853820,-1.280512925,-2.3250328625,1.2977776875,1.699682525,2.4508718750000003,7.7258433250000005
680,1778428853830,-1.3309753666666666,-2.3037896555555557,1.2771408777777777,1.8346458333333335,2.5447049111111113,7.308176755555556
681,1778428853840,-1.447138525,-2.23671595,1.299660425,2.018392125,2.8182964999999998,6.94182095
682,1778428853850,-1.5147911,-2.21290365,1.3237052375,2.21798645,3.0579015,6.70450665
683,1778428853860,-1.5985154625,-2.2089056375,1.316048675,2.351761925,3.1785437,6.559888775
684,1778428853870,-1.7390039,-2.1914591666666663,1.2530203000000002,2.395132133333333,3.285187366666667,6.424280666666666
685,1778428853880,-1.865985425,-2.223849225,1.2537622625,2.30335225,3.312930075,6.367929674999999
686,1778428853890,-1.94445035,-2.2167985249999997,1.2427555000000001,2.2135577875,3.4423533749999997,6.3961053375
687,1778428853900,-1.9931345,-2.1988478,1.2312304,2.1868331,3.564141,6.4499364
688,1778428853910,-1.9925248777777778,-2.2392601111111112,1.2076754444444444,2.0890976,3.907029933333334,6.678800266666666
689,1778428853920,-1.9234430875000001,-2.23631955,1.1753315625,1.9064542375,4.046862875,6.9213575
690,1778428853930,-1.83781305,-2.22543465,1.1479328625,1.7384713,4.055262,7.102321
691,1778428853940,-1.710945825,-2.2314412,1.157445675,1.3342431375,3.6065185,7.435003849999999
692,1778428853950,-1.655127,-2.209123,1.1462865,1.1635877,3.2739885,7.6087136
693,1778428853960,-1.48727805,-2.2413617625,1.1145352125,0.9644515,2.657033,7.903142
694,1778428853970,-1.31979495,-2.306117775,1.0961919500000001,0.8575531825,2.13063525,8.173899500000001
695,1778428853980,-1.1111319,-2.363583,1.0828376,0.942308255,1.94478495,8.19451625
696,1778428853990,-0.7402667666666667,-2.3041995,0.9148501333333334,1.1595154,2.0636965333333332,7.935517
697,1778428854000,-0.36099288625000003,-2.2063331,0.72289277875,1.2682716,2.3213722624999997,7.69278125
698,1778428854010,0.2190448,-1.9470724000000001,0.5001816225,1.282397525,3.00063435,7.124158700000001
699,1778428854020,0.8064190266666666,-1.761779566666667,0.5509772666666667,1.1263260333333334,3.4890068000000003,6.664954533333333
700,1778428854030,1.4442611250000001,-1.677453075,0.7229766075,1.0212603,3.6869214,6.403512
701,1778428854040,2.568798188888889,-1.795138711111111,0.9894479277777778,1.5390212333333333,3.6937086,5.761409555555556
702,1778428854050,3.578112575,-1.9822117750000001,1.00239079375,2.2424203499999997,3.512371825,5.1275281249999995
703,1778428854060,4.7026826875,-2.1057745,0.7228280075,3.1751841,3.107532775,4.226833875
704,1778428854070,5.344668033333334,-2.1471101444444445,0.43266414333333336,3.437916266666667,2.5358136,3.5109974888888886
705,1778428854080,5.9536477125,-2.2503484125,0.086819085625,2.874952725,1.4289053375,2.559144625
706,1778428854090,6.1521767625,-2.389510525,-0.0278865344,1.3548305625,-0.19501298125,1.26559912375
707,1778428854100,6.096110325,-2.36211935,0.03166343245,0.35047362,-0.9202509249999999,0.5699872925
708,1778428854110,6.101565466666667,-2.1380820333333332,0.19905633,-0.7104917266666667,-1.5196861666666668,-0.43779931333333333
709,1778428854120,6.130876125,-2.0069731500000003,0.34643027625,-0.8729771,-1.6996825,-0.780281
710,1778428854130,6.042601250000001,-1.9781794750000001,0.4369690925,-1.195218075,-2.4869118749999997,-1.915559725
711,1778428854140,5.78430095,-2.05046265,0.415759795,-1.5641508000000002,-3.0192652125,-3.0860004875
712,1778428854150,5.3548856,-2.1834812,0.46466126999999996,-1.9847954999999997,-3.2726142,-4.281123
713,1778428854160,4.36537695,-2.33637855,0.787545925,-2.686964325,-3.29994965,-6.158485499999999
714,1778428854170,3.6672873,-2.4516978,1.1316514,-3.0656896125,-3.210536875,-7.4398999375
715,1778428854180,2.8258389222222227,-2.5756516222222223,1.6538362333333332,-3.1832778,-3.1394496,-8.620124
716,1778428854190,0.9784488400000001,-3.06350945,2.644552175,-2.5699108375,-3.5168002874999997,-10.1894765
717,1778428854200,-0.24276823111111112,-3.328043111111111,2.893685144444445,-1.4451882666666667,-3.7087590666666665,-11.170894833333332
718,1778428854210,-1.04424538125,-3.5019268875,2.895553875,-0.42339348875,-3.8303463,-11.6513770625
719,1778428854220,-1.6079139375,-3.6559792,2.8050530499999997,0.1932568075,-3.9479821250000002,-11.842343375
720,1778428854230,-2.3917452999999997,-3.6626526333333334,2.4677151,0.7407456388888889,-4.050367066666667,-11.828505222222223
721,1778428854240,-2.7413795,-3.5201445,2.2274165,1.018206,-3.9971554,-11.572425
722,1778428854250,-2.9677837125,-3.2010404,1.8508397,1.28606255,-3.8189311999999997,-10.807482125
723,1778428854260,-3.03630525,-2.80007195,1.35262465,1.206194285,-3.673177225,-9.40796375
724,1778428854270,-3.0146847222222224,-2.7127531555555553,1.2750541111111113,0.7047056453333334,-3.9225046999999997,-8.267037155555556
725,1778428854280,-2.944363925,-2.665971,1.3012497500000002,-0.21051323500000002,-4.7669755,-6.8114049375
726,1778428854290,-2.824295875,-2.635634,1.37160445,-0.9320956375,-5.5228989,-5.779760325
727,1778428854300,-2.6916661625000002,-2.5654432,1.391327325,-1.5640743750000001,-6.174825800000001,-4.735345225
728,1778428854310,-2.395709,-2.3686273555555557,1.2886083666666666,-1.9377602555555553,-6.4171286,-3.8912668222222226
729,1778428854320,-2.176868625,-2.2803656,1.18322825,-2.1301007875,-6.0944230625,-3.4555629875
730,1778428854330,-1.92869475,-2.20764405,1.0913899,-2.31007155,-5.548707500000001,-3.38928605
731,1778428854340,-1.8335215,-2.177627,1.0603973,-2.390398,-5.286654,-3.4283803
732,1778428854350,-1.6286010666666666,-2.1170136999999998,0.9742235333333333,-2.5068661999999997,-4.5666687999999995,-3.7877620333333337
733,1778428854360,-1.5095469375,-2.0523949375,0.91108977375,-2.58915235,-3.9907892375,-4.158571825
734,1778428854370,-1.444870925,-2.00051315,0.90169899,-2.6703187,-3.534514875,-4.5282108999999995
735,1778428854380,-1.4320652,-1.9816706,0.92566377,-2.738581,-3.1473906,-4.9029655
736,1778428854390,-1.4342062555555557,-1.9800682,0.9265039288888889,-2.7360697333333333,-3.114336966666667,-4.944172222222222
737,1778428854400,-1.519398875,-1.8540907,0.88110708125,-2.52951845,-2.5509745125,-5.669197
738,1778428854410,-1.5750957125,-1.8085163375,0.85483263,-2.4166644,-2.3826098,-5.873678
739,1778428854420,-1.6180212,-1.7478763,0.81510854,-2.4166644,-2.3826098,-5.873678
740,1778428854430,-1.6319787000000001,-1.7232678777777777,0.7415168488888889,-2.062373044444444,-2.010807388888889,-6.084692055555555
741,1778428854440,-1.6342113249999999,-1.716472075,0.673202375,-1.9475336875,-2.0029681249999998,-6.1041967375
742,1778428854450,-1.6312232,-1.7085752,0.5647281,-1.998845,-2.1504877,-6.1015244
743,1778428854460,-1.6312232,-1.7085752,0.5647281,-1.9988450000000002,-2.1504877,-6.1015244
744,1778428854470,-1.7928257,-1.55390165,0.564911025,-2.544026,-2.32549555,-6.143214349999999
745,1778428854480,-1.8466932,-1.5023438,0.564972,-2.725753,-2.3838315,-6.157111
746,1778428854490,-1.8466931999999998,-1.5023438,0.564972,-2.725753,-2.3838315,-6.157111
747,1778428854500,-1.8466932,-1.5023438,0.564972,-2.725753,-2.3838315,-6.157111
748,1778428854510,-1.8466932,-1.5023438,0.564972,-2.725753,-2.3838315,-6.157111
749,1778428854520,-2.5820714625,-1.150280555,1.1536420375,-3.314858,-3.2649976875,-6.0754102875
750,1778428854530,-4.5199895,-0.28163227,2.6759794,-4.9493136,-5.617733,-5.794268
751,1778428854540,-4.5199895,-0.28163227,2.6759794,-4.9493136,-5.617733,-5.794268
752,1778428854550,-4.5199895,-0.28163227,2.6759794,-4.9493136,-5.617733,-5.794268
753,1778428854560,-4.5199895,-0.28163227,2.6759794,-4.9493136,-5.617733,-5.794268
754,1778428854570,-5.0857808250000005,-0.09890058250000001,3.0115401000000004,-4.26109872,-4.8507952125000005,-5.0829172712499995
755,1778428854580,-7.977782466666666,0.7997180277777778,4.311264333333334,1.0291503644444446,0.6284684666666667,-0.0022482655555555483
756,1778428854590,-7.8791373875,0.675016495,3.95919435,1.5174973500000002,0.709270025,2.1995273
757,1778428854600,-7.334818,0.37243026,3.5323403,1.4886348,0.7450046,3.7077665
758,1778428854610,-7.334818,0.37243026,3.5323403,1.4886348,0.7450046,3.7077665
759,1778428854620,-7.334818,0.37243026,3.5323403,1.4886348,0.7450046,3.7077665
760,1778428854630,-7.334818,0.37243026,3.5323403,1.4886348,0.7450046,3.7077665
761,1778428854640,-7.334818,0.37243026,3.5323403,1.4886348,0.7450046,3.7077665
762,1778428854650,-5.259232988888889,-0.5711444222222223,3.1760322333333333,1.8657905444444447,1.0887249533333334,6.047014388888889
763,1778428854660,-2.62862885,-1.2764159124999999,2.2852933500000003,3.0428592875,1.82177565,7.542130875
764,1778428854670,-2.1233289375,-1.2374693375,1.8992304375000002,3.2710872,2.012589,7.23854
765,1778428854680,-1.9274905,-1.2031494,1.7110145,3.2710872,2.012589,7.23854
766,1778428854690,-1.9274905,-1.2031494,1.7110145,3.2710872,2.012589,7.23854
767,1778428854700,-1.9274905,-1.2031494,1.7110145,3.2710872,2.012589,7.23854
768,1778428854710,-1.9274905,-1.2031494,1.7110145,3.2710872,2.012589,7.23854
769,1778428854720,-1.746100325,-1.2143734,1.4403698825,3.3250707750000004,2.4924095250000002,6.4069191750000005
770,1778428854730,-1.4784399,-1.2744036,0.96228176,3.3419454,3.372335,5.069345
771,1778428854740,-1.6100367125,-1.3355161375,0.98153215,3.177016675,3.543143175,5.075835250000001
772,1778428854750,-1.7680401333333335,-1.4181518333333334,1.0520939666666669,2.938786133333333,3.4040991333333337,5.3283442
773,1778428854760,-1.9608462,-1.5179086499999999,1.1320173,2.771872175,3.006590225,5.75061145
774,1778428854770,-2.1093,-1.5858243,1.1653119,2.7292655,2.6167169,6.159784
775,1778428854780,-2.2574184,-1.6661034,1.0608851,2.6663482,2.1292608,6.842711
776,1778428854790,-2.310977125,-1.8267261625,0.9602389125,2.3780283625000003,1.86858175,7.670408999999999
777,1778428854800,-2.2950998,-1.9523204875,0.9638099875,2.1712565125,1.8790425,8.0032445
778,1778428854810,-2.2540915555555556,-2.1450880111111115,1.0537945777777777,1.8763870666666667,2.0802572777777777,8.262591666666667
779,1778428854820,-2.277518575,-2.213452325,1.195824325,1.6111097,2.2679231,8.313631
780,1778428854830,-2.319983025,-2.248400875,1.34988815,1.528492575,2.342751925,8.347380375
781,1778428854840,-2.314914025,-2.287572425,1.4971148250000001,1.5327684750000001,2.443847225,8.43673575
782,1778428854850,-2.2881823,-2.3062322,1.5736284,1.7369781666666666,2.521832022222222,8.564019444444444
783,1778428854860,-2.1151805625,-2.3530755,1.6142101,1.92966655,2.61809125,8.652269875
784,1778428854870,-1.9520449999999998,-2.4141144666666667,1.6046871333333332,2.1693222666666667,2.7443839111111115,8.709604722222222
785,1778428854880,-1.7623819250000001,-2.48354425,1.56355155,2.3917726,2.854031125,8.676856
786,1778428854890,-1.504786411111111,-2.567598911111111,1.4778029777777777,2.5077316888888888,2.924923377777778,8.548255333333334
787,1778428854900,-1.2858575777777779,-2.5973466555555556,1.3645986111111112,2.6024130666666667,3.0684045666666666,8.308608555555557
788,1778428854910,-0.9215273555555556,-2.4720548333333334,1.1320646555555554,2.721121,3.5916546666666673,7.8045921666666676
789,1778428854920,-0.605233475,-2.30539375,0.9390944,2.88564255,4.6790134000000005,6.92303725
790,1778428854930,-0.4544573877777778,-2.2069445777777776,0.8627502111111112,2.9616590777777776,5.318366822222222,6.3831331111111105
791,1778428854940,-0.147931646875,-1.993862425,0.770086875,2.985515975,6.03249835,5.600629575
792,1778428854950,-0.049545575,-1.8986778,0.7743745,2.886100775,6.2058265125,5.1954848875
793,1778428854960,0.19219872000000002,-1.716998075,0.7927291675,2.7264404,5.900173625,5.2044950750000005
794,1778428854970,0.6445345650000001,-1.60492605,0.77815518,2.5718197000000003,5.35232,5.52062745
795,1778428854980,1.093326,-1.6958916,0.79535127,2.4091816,4.713221,5.8574142
796,1778428854990,2.452242875,-1.7556017375,0.7988461487499999,1.9754801,3.3185804,6.1194677
797,1778428855000,3.2243345,-1.7815368000000003,0.75629413,1.2039036,1.1035719,5.841532
798,1778428855010,4.1200611375,-1.7964577,0.69632112125,0.59412531125,-0.5041016899999999,4.560366
799,1778428855020,4.592473133333333,-1.8171791333333331,0.6772346466666668,0.3765449122222222,-1.0724695888888887,3.3246124444444445
800,1778428855030,4.83694385,-1.8817294,0.6703935375000001,0.7220978,-0.7422557975,1.889503285
801,1778428855040,5.03419615,-2.0895273,0.58424142,1.48829115,-0.01916533499999999,0.29607002000000004
802,1778428855050,5.109217511111111,-2.2113755444444445,0.4985589077777777,1.7343311333333333,0.1817355448888889,-0.4341342444444445
803,1778428855060,5.08873425,-2.243819975,0.30701487,1.3180366099999998,-0.080250067,-1.5798801
804,1778428855070,5.05792055,-2.0530962375,0.27204331125,0.53502584,-0.6153523,-2.1827862
805,1778428855080,5.063835755555555,-1.8886772555555555,0.4901098844444445,-0.5777427422222222,-1.9549487555555558,-2.6683505333333333
806,1778428855090,4.857379625,-1.8930487625,0.7514805874999999,-1.37807145,-3.45390225,-3.3584382
807,1778428855100,4.582137188888889,-1.9601584333333335,0.8954249111111111,-1.752469911111111,-4.3778487777777775,-4.226435111111112
808,1778428855110,3.8420266375,-2.224638175,1.0944274250000001,-1.9496717875,-4.805382375,-5.293755125
809,1778428855120,3.2827868375,-2.4355573875,1.2488724000000002,-2.0929155,-4.861504,-6.741692
810,1778428855130,2.032124077777778,-2.883037511111111,1.7281970666666666,-2.1203357555555553,-4.865169211111112,-8.07653768888889
811,1778428855140,1.28729313125,-3.17066525,2.0258652625,-2.0067096375,-5.0418569375,-9.499372
812,1778428855150,0.19853802777777782,-3.581729944444444,2.2554261777777778,-1.6532411777777778,-5.013401855555555,-10.666131444444444
813,1778428855160,-0.754045475,-3.8836946,2.3009421249999997,-1.156018875,-4.6090718625000004,-11.6680996875
814,1778428855170,-1.3733727625,-4.0307267875,2.2348482499999998,-0.599851996625,-3.7851819125,-12.3950070625
815,1778428855180,-1.8379934666666666,-4.079242033333333,2.0587785333333333,0.06351963211111111,-2.725362922222222,-12.79785188888889
816,1778428855190,-1.966284725,-4.1125341375,1.9738079375,0.49822229875,-2.0834472875,-12.9048355
817,1778428855200,-2.19215525,-4.274960075,2.1104509,0.688501205,-2.1359802,-12.78343025
818,1778428855210,-2.522806488888889,-4.397770388888889,2.4814658777777776,0.656177211111111,-2.833075722222222,-12.441864555555556
819,1778428855220,-2.887969675,-4.527337625,2.7852006625,0.9491803,-3.7828435,-11.85356775
820,1778428855230,-3.3508630444444445,-4.457702666666667,2.7879337333333334,1.7351626,-4.624495666666666,-10.943634
821,1778428855240,-3.6279862,-4.225186,2.5127075,2.2845688,-5.001999,-10.233372
822,1778428855250,-3.6926580333333336,-4.036590722222222,2.295909611111111,2.4763070222222225,-5.1519960000000005,-9.713133666666668
823,1778428855260,-3.7425659374999998,-3.3703260625,1.5665128625,2.5277622875,-5.5644366625,-7.9644845625
824,1778428855270,-3.6002329,-2.7185045,0.9133535925,1.90461211875,-5.9960860625,-6.1782525
825,1778428855280,-3.2007558,-2.0770825666666664,0.3825121266666667,-0.08926003333333338,-6.708986333333333,-3.569282333333333
826,1778428855290,-2.9554164,-1.8969705,0.2850471,-1.0617288,-6.956176,-2.673373
827,1778428855300,-2.4481268,-1.7442291,0.37079525,-2.608537225,-7.0112284375,-1.5165905750000002
828,1778428855310,-2.0880892666666666,-1.6808703555555558,0.5323616666666666,-3.346713255555555,-6.880761888888888,-1.0149821111111113
829,1778428855320,-1.7386189749999998,-1.6388722125000001,0.70712200625,-3.853396375,-6.2279694999999995,-0.86457795
830,1778428855330,-1.4064439,-1.5626419999999999,0.8208914166666667,-3.867214711111111,-5.368914777777778,-1.1618569555555556
831,1778428855340,-1.226304142857143,-1.5159942857142856,0.8882835757142856,-3.662531057142857,-4.394893542857143,-1.6670566142857144
832,1778428855350,-1.08829135,-1.45620915,0.95292911375,-3.3209475375,-3.4376192875,-2.3016056125
833,1778428855360,-1.0052416,-1.418406,1.027682,-2.6597817,-2.1468227,-3.3642414
834,1778428855370,-1.0151393,-1.38947515,1.0396948124999998,-2.214779425,-1.5916388875,-4.0945853
835,1778428855380,-1.0749140875,-1.3563215874999999,1.02087892875,-1.83284725,-1.2565128125,-4.8374615875
836,1778428855390,-1.1697024,-1.26172,0.99545443,-1.6201197,-1.2030637,-5.3196397
837,1778428855400,-1.301646075,-1.135950425,0.99503518625,-1.4754252625,-1.2297882624999998,-5.6029198875
838,1778428855410,-1.6212022666666666,-0.9142809666666667,1.0411074666666666,-1.1291257555555556,-1.1220755222222223,-6.158672433333333
839,1778428855420,-1.85829435,-0.78124984,1.0953459250000002,-0.783946125,-1.064344075,-6.26981275
840,1778428855430,-2.0936892,-0.66723406,1.1628727,-0.4325562,-1.1450332,-6.195595
841,1778428855440,-2.5915232,-0.5686307,1.4738055,-0.002519745,-1.7888662,-5.7197447
842,1778428855450,-2.5915232,-0.5686307,1.4738055,-0.002519745,-1.7888662,-5.7197447
843,1778428855460,-2.5915232,-0.5686307,1.4738055,-0.002519745,-1.7888662,-5.7197447
844,1778428855470,-2.5915232,-0.5686307,1.4738055,-0.002519745,-1.7888662,-5.7197447
845,1778428855480,-2.5915232,-0.5686307,1.4738055,-0.002519745,-1.7888662,-5.7197447
846,1778428855490,-5.924230799999999,1.2255985057142857,2.645607342857143,0.4160851692857143,-1.7009695857142855,-3.9943084428571427
847,1778428855500,-7.581924875,1.6361853375000002,3.1976751875,1.2856235500000002,-0.00908635000000002,-2.8601205000000003
848,1778428855510,-7.832683,1.4301139,3.168691,2.067718,1.2764417,-1.895688
849,1778428855520,-7.832682999999999,1.4301139,3.168691,2.067718,1.2764417,-1.8956880000000003
850,1778428855530,-7.2073109,1.0038162,2.3466308000000002,2.03931355,1.8699371,0.9533608250000001
851,1778428855540,-6.56706,0.5932663,1.9035561999999997,1.5179554,2.0877233,2.9190865
852,1778428855550,-6.56706,0.5932663,1.9035562,1.5179554,2.0877233,2.9190865
853,1778428855560,-6.56706,0.5932663,1.9035561999999997,1.5179554,2.0877233,2.9190865
854,1778428855570,-6.56706,0.5932663,1.9035562,1.5179554,2.0877233,2.9190865
855,1778428855580,-6.56706,0.5932663,1.9035562,1.5179554,2.0877233,2.9190865
856,1778428855590,-6.199850188888889,0.40193401111111116,1.9124523777777778,1.5011825666666665,2.1508441555555553,3.3267422222222223
857,1778428855600,-3.2107396375,-1.1250312625,1.9464016375000002,1.3722684374999998,2.7103291375,6.5742438750000005
858,1778428855610,-2.8507152,-1.09918,1.6858605,1.4091482,3.0919561,6.478035
859,1778428855620,-2.8507152,-1.09918,1.6858605,1.4091482,3.0919561,6.478035
860,1778428855630,-2.8507152,-1.09918,1.6858605,1.4091482,3.0919561,6.478035
861,1778428855640,-2.8507152,-1.09918,1.6858605,1.4091482,3.0919561,6.478035
862,1778428855650,-2.8507152,-1.09918,1.6858605,1.4091482,3.0919561,6.478035
863,1778428855660,-2.4118684444444445,-1.0857374666666668,1.5286969,1.3686965555555557,3.783469166666667,6.030860911111111
864,1778428855670,-1.8311586800000001,-1.07964538,1.24723129,1.29772973,4.75634696,5.4935785599999996
865,1778428855680,-1.7930009,-1.1282365,1.1618971,1.1996276,4.8604355,5.590398
866,1778428855690,-1.7930008999999998,-1.1282365,1.1618971,1.1996276,4.8604355,5.590398
867,1778428855700,-1.7930009,-1.1282365,1.1618971,1.1996276,4.8604355,5.590398
868,1778428855710,-1.7930009,-1.1282365,1.1618971,1.1996276,4.8604355,5.590398
869,1778428855720,-1.7930008999999998,-1.1282365,1.1618971,1.1996276,4.8604355,5.590398
870,1778428855730,-1.8494947666666666,-1.4747236,1.2609882444444445,0.5316322192222223,4.6996468,6.435589911111111
871,1778428855740,-1.867669925,-1.8870423125,1.4395770625,-0.037185327750000004,4.272933975000001,7.306496775
872,1778428855750,-1.8606979333333333,-1.9379891000000002,1.4924345666666665,-0.09387534777777778,3.993634522222223,7.518986755555556
873,1778428855760,-1.8403512,-1.9794753,1.5535967,-0.08192989,3.6472163,7.734548000000001
874,1778428855770,-1.8403511999999997,-1.9794752999999998,1.5535967,-0.08192989,3.6472162999999997,7.734548
875,1778428855780,-1.8403511999999997,-1.9794752999999998,1.5535967,-0.08192989,3.6472162999999997,7.734548
876,1778428855790,-1.8403512,-1.9794753,1.5535967,-0.08192989,3.6472163,7.734548000000001
877,1778428855800,-1.4640860888888887,-1.9872161555555554,1.5040037444444443,1.0853483133333333,4.299728466666667,7.199852944444444
878,1778428855810,-1.30132901,-1.9317834400000002,1.4516488200000002,1.83095356,5.089869500000001,6.7531607199999995
879,1778428855820,-1.2439852333333332,-1.9182115333333334,1.4027851333333334,2.080545733333333,5.274182533333334,6.605295166666667
880,1778428855830,-1.2075399,-1.9108738,1.358372,2.128192,5.214727,6.5421743
881,1778428855840,-1.1735711666666666,-1.839378988888889,1.2539926222222222,2.0307277444444445,4.7438992777777775,6.655112922222222
882,1778428855850,-1.102225611111111,-1.812510911111111,1.1596375555555556,1.9044859666666665,4.243869833333333,6.8468511111111106
883,1778428855860,-0.8991683480000001,-1.77669824,1.0285234,1.7443355,3.63292252,7.0384264000000005
884,1778428855870,-0.6831597733333334,-1.7005159666666667,0.8844316666666666,1.5957366666666666,3.0610064666666665,7.028408666666667
885,1778428855880,-0.5388424,-1.6390285,0.7643434,1.4813046,2.7792022,6.94289
886,1778428855890,-0.23158872333333333,-1.5121918666666667,0.5137189933333334,1.2025546555555555,2.6921904666666667,6.540680777777777
887,1778428855900,-0.006146696000000002,-1.41829618,0.39662070800000004,0.916316725,2.8630104899999997,6.112924250000001
888,1778428855910,0.36086456666666666,-1.2946588333333333,0.42243316666666664,0.4888050833333334,3.1654614,5.581235
889,1778428855920,0.6072001,-1.2297363,0.5244513,0.25831205,3.2293968,5.317349
890,1778428855930,1.3880078,-0.9366552149999999,1.0644066,0.09407047624999999,2.7907320625,4.9540478750000005
891,1778428855940,2.0227399666666668,-0.8588814199999999,1.416607,0.43749388,2.3051848333333336,4.821544833333333
892,1778428855950,2.7860230555555554,-0.9013974888888888,1.6196540444444443,1.0792313222222223,1.9489166666666664,4.725438111111111
893,1778428855960,3.8581398800000004,-1.16064092,1.4893246599999999,2.44119005,1.06453877,4.09712063
894,1778428855970,4.578509111111111,-1.4670910333333333,1.1428716088888888,3.1719261999999997,0.18282148999999998,3.1315085000000003
895,1778428855980,4.84706625,-1.7361531749999999,0.6171320499999999,3.153651575,-0.47348298250000004,2.152167575
896,1778428855990,4.8987343333333335,-1.8666874888888887,0.17055872,2.4346165444444443,-0.9135305533333332,1.1977865911111112
897,1778428856000,4.904049733333333,-2.0009366666666666,-0.06027451877777777,1.3755517,-1.2110047,0.45187426
898,1778428856010,5.00661835,-1.930585225,0.16564228825,0.24487339,-1.3728793,-0.118122585
899,1778428856020,5.07782695,-1.8332776750000002,0.7267726,-0.9985061249999999,-1.91073025,-1.38150745
900,1778428856030,5.019862666666667,-1.8337722888888888,1.068321177777778,-0.7605133088888889,-2.3443300666666667,-2.312845977777778
901,1778428856040,4.7639264444444445,-1.884862611111111,1.1591936666666667,-0.31126909333333336,-2.907938388888889,-3.4092403777777776
902,1778428856050,4.205733066666667,-2.0076984,1.2213821666666667,-0.18312691666666664,-3.4542393666666666,-4.749057433333333
903,1778428856060,3.507750525,-2.2103347,1.321403275,-0.20104510250000002,-3.944870625,-5.863752025
904,1778428856070,2.4495839999999998,-2.3974264333333335,1.4635610333333333,-0.3224000977777778,-4.518954644444445,-6.996143888888889
905,1778428856080,1.8078265,-2.4736579875,1.6001047375,-0.584046355,-5.016125124999999,-7.68813325
906,1778428856090,0.830204705,-2.568015775,1.860306675,-0.95376163,-5.595743,-8.38448925
907,1778428856100,0.20057404888888886,-2.6243097333333334,2.1026125555555555,-1.1902868111111111,-5.915012411111111,-8.79693
908,1778428856110,-0.501454545,-2.770672275,2.43014945,-1.237099325,-6.242782525,-9.11918625
909,1778428856120,-1.032079975,-2.9578135249999997,2.64403395,-1.0395093875,-6.4781207,-9.2645675
910,1778428856130,-1.6103819333333333,-3.2290161111111115,2.748364922222222,-0.7077768111111111,-6.529940022222223,-9.306784111111112
911,1778428856140,-1.9379028125,-3.4057397625,2.661790325,-0.47775891000000004,-6.445030175,-9.310075999999999
912,1778428856150,-2.0847940375,-3.50305105,2.6022822375,-0.4886777975,-6.3132589875,-9.350620375
913,1778428856160,-2.22972605,-3.6618674749999998,2.548037525,-0.639175265,-6.0166165,-9.60053325
914,1778428856170,-2.3538263,-3.7026854,2.4980726,-0.70743746,-5.747233,-9.825936
915,1778428856180,-2.5678632,-3.687288,2.493926,-0.7495859,-5.169371,-10.065389
916,1778428856190,-2.8693862125000003,-3.47576295,2.4722936750000004,-0.5833591425,-4.8345503,-9.951847125
917,1778428856200,-3.0977484444444445,-3.210705455555556,2.3213007777777777,-0.2579896377777777,-4.736144777777778,-9.341534222222222
918,1778428856210,-3.2232875666666665,-2.9105967,2.0637383666666667,-0.1618830111111111,-4.9525203555555555,-8.406377888888889
919,1778428856220,-3.2621717,-2.7218661,1.9335885,-0.2877854,-5.277491,-7.497921000000001
920,1778428856230,-3.2200202,-2.3443745750000002,1.715648875,-0.77799035,-6.1252135249999995,-5.729957375
921,1778428856240,-3.0720660666666664,-2.0963961555555555,1.5060601333333334,-1.268687388888889,-6.913212788888888,-4.239178177777777
922,1778428856250,-2.7716353000000002,-1.8649157666666665,1.2470037,-1.9579860111111111,-7.647655111111111,-2.6800075444444444
923,1778428856260,-2.5876205,-1.7656823,1.1350663,-2.4563696,-7.96835,-1.8523179
924,1778428856270,-2.2935486,-1.6985748,1.0167056,-3.083099,-8.074026,-1.2231452
925,1778428856280,-1.991200244444444,-1.5893407333333334,0.8755252955555556,-3.667908666666667,-7.462568055555555,-1.2173762
926,1778428856290,-1.7310842,-1.456411225,0.78675323,-4.02052025,-6.43754735,-1.5568206
927,1778428856300,-1.586312,-1.3522741,0.790229,-4.104053775000001,-4.944712975,-2.219303525
928,1778428856310,-1.4530421,-1.2692814,0.9227367,-3.9835641,-3.5780377,-2.8804502
929,1778428856320,-1.4530421,-1.2692814,0.9227367,-3.9835641,-3.5780377,-2.8804502
930,1778428856330,-1.4530421,-1.2692814,0.9227367,-3.9835641,-3.5780377,-2.8804502
931,1778428856340,-1.4530421,-1.2692814,0.9227367,-3.9835641,-3.5780377,-2.8804502
932,1778428856350,-1.4530421,-1.2692814,0.9227367,-3.9835641,-3.5780377,-2.8804502
933,1778428856360,-1.5637585571428574,-0.7487109642857143,1.3257001285714287,-1.6557123714285713,-1.509098157142857,-5.012110857142857
934,1778428856370,-1.6604934,-0.6174446,1.123846,-0.7776849,-1.6563123,-5.2573333
935,1778428856380,-1.6604934,-0.6174446,1.123846,-0.7776849,-1.6563123,-5.2573333
936,1778428856390,-1.6604934,-0.6174446,1.123846,-0.7776849,-1.6563123,-5.2573333
937,1778428856400,-1.6604934,-0.6174446,1.123846,-0.7776849,-1.6563123,-5.2573333
938,1778428856410,-1.6604934,-0.6174446,1.123846,-0.7776849,-1.6563123,-5.2573333
939,1778428856420,-3.9703433999999995,0.47329315777777775,1.60373856,-2.4270996933333335,-3.917660544444445,-5.358326866666666
940,1778428856430,-6.7242374375,1.3939456000000001,3.021879875,-3.07500505,-3.498074125,-5.205850375
941,1778428856440,-7.3994865,1.4735616,3.505235,-2.387344,-2.1602614,-4.8076735
942,1778428856450,-7.3994865,1.4735616,3.505235,-2.387344,-2.1602614,-4.8076735
943,1778428856460,-7.3994865,1.4735616,3.505235,-2.387344,-2.1602614,-4.8076735
944,1778428856470,-7.399486499999999,1.4735616,3.505235,-2.387344,-2.1602614,-4.8076735
945,1778428856480,-7.3994865,1.4735616,3.505235,-2.387344,-2.1602614,-4.8076735
946,1778428856490,-7.0873212571428565,0.46104170571428577,3.0044654,0.7828879714285714,1.9149843428571427,1.2594906714285712
947,1778428856500,-5.835018711111111,-0.5815109088888888,2.3070216,0.8995828555555554,3.3153224666666663,6.356120355555556
948,1778428856510,-4.8072314,-0.9827708,2.315501,-0.4514925,2.5257008,7.6313148
949,1778428856520,-4.8072314,-0.9827708,2.315501,-0.4514925,2.5257008,7.6313148
950,1778428856530,-4.8072314,-0.9827708,2.315501,-0.4514925,2.5257008,7.6313148
951,1778428856540,-4.8072314,-0.9827708,2.315501,-0.4514925,2.5257008,7.6313148
952,1778428856550,-4.8072314,-0.9827708,2.315501,-0.4514925,2.5257008,7.6313148
953,1778428856560,-2.9849041,-1.4163326714285716,2.598888571428571,0.6086874699999999,0.9474677542857143,8.444494171428572
954,1778428856570,-1.9902608499999999,-1.409739275,2.1257794,2.25387365,1.472542825,7.514642975
955,1778428856580,-1.70497745,-1.3450099,1.81491545,2.7632440249999997,2.2754061125,6.7203889875
956,1778428856590,-1.5360347,-1.2902887,1.595093,3.1507502,3.1102815,5.906893
957,1778428856600,-1.427270725,-1.197577525,1.37013705,3.289183425,3.72243635,5.3131780375
958,1778428856610,-1.3542254,-1.0867403,1.1328709,3.3346152,4.6038795,4.4389505
959,1778428856620,-1.3754732222222223,-1.0448679444444446,1.0419714333333334,3.1136242666666667,4.986677277777777,4.060496988888889
960,1778428856630,-1.4600699125,-1.0064116250000001,0.9946121525,2.761793175,5.1692186,3.8943040375
961,1778428856640,-1.5899809777777778,-0.9906099444444444,0.9828859133333333,2.1595486444444445,5.294340511111112,3.918508866666667
962,1778428856650,-1.6609812,-1.0137787,1.0071929,1.871636,5.322847,4.093822
963,1778428856660,-1.6609812,-1.0137787,1.0071929,1.871636,5.322847,4.093822
964,1778428856670,-1.7606346333333334,-1.1689842,1.0261099777777778,1.4537655999999999,5.230608800000001,4.774916766666667
965,1778428856680,-1.8172402375,-1.2962494,1.0213705499999999,1.0773819375,5.1188998625,5.4450258875
966,1778428856690,-1.8347412000000003,-1.4918553,1.0386581,0.7518766,4.901362,5.975308
967,1778428856700,-1.862517225,-1.62571995,1.0552521,0.35788014749999997,4.503986875,6.576534325
968,1778428856710,-1.8711153,-1.6985748,1.0801545,0.13797513,4.1988115,6.9654913
969,1778428856720,-1.8687303888888889,-1.8686862777777777,1.159545988888889,-0.22853322666666667,3.5686206333333335,7.5569949
970,1778428856730,-1.8637063249999999,-1.9688687374999998,1.24221805,-0.396058075,3.2213030625,7.8392319375
971,1778428856740,-1.8536244000000002,-2.0586059,1.3921341,-0.42128947333333333,2.7912157333333334,8.161665888888889
972,1778428856750,-1.826752925,-2.145711925,1.4872209,-0.22028679524999997,2.4308667,8.366183
973,1778428856760,-1.7833696333333333,-2.155613577777778,1.4946197444444445,0.09636964144444443,2.3123792444444446,8.464925999999998
974,1778428856770,-1.6827049,-2.1327159,1.466602325,0.4546230775,2.3319094125,8.565376125
975,1778428856780,-1.5660555,-2.13228915,1.43029305,0.8255600525,2.343362725,8.652422125
976,1778428856790,-1.3993871666666666,-2.1315472555555557,1.3767130555555556,1.0853313444444446,2.2208200555555555,8.696437555555555
977,1778428856800,-1.04475609,-2.062132525,1.2059621249999999,1.4297833999999998,1.5568779,8.72297525
978,1778428856810,-0.79833162,-2.04505825,1.084415325,1.541778475,0.77493609425,8.69961075
979,1778428856820,-0.5993643,-2.04268,1.0130469,1.587592,0.045584477,8.635014
980,1778428856830,-0.37118018,-2.003623,0.9261516,1.5961438,-1.0936457,8.456646
981,1778428856840,-0.11453792750000001,-1.88183995,0.7892266875,1.645622525,-1.963788075,7.9151392
982,1778428856850,0.25848688875,-1.7481735875,0.5821528450000001,1.7485502875,-2.2589132375,7.382699775
983,1778428856860,0.7227047999999999,-1.6245359,0.32930784,2.128124011111111,-1.732176211111111,6.117278977777778
984,1778428856870,1.0636786875,-1.4649902750000001,0.11177862825,2.5599081249999998,-0.60695312375,4.805993625
985,1778428856880,1.3437065,-1.3791049,-0.049301658,2.798902,0.17874917,4.065723
986,1778428856890,1.6650230428571429,-1.3726236142857142,-0.1643432082857143,3.078233885714286,1.3444311671428573,2.9985075
987,1778428856900,2.242485111111111,-1.2888455444444444,-0.27141488666666663,3.1904552666666666,2.2512945333333336,1.909287933333333
988,1778428856910,2.6635357,-1.2156349625,-0.29242939375,3.1582331249999998,2.39047445,1.3747117249999998
989,1778428856920,3.1702841999999998,-1.05426875,-0.395777675,3.2544416,1.803812825,1.280183125
990,1778428856930,3.522096,-1.0513418,-0.5354276,3.3217874,1.1518289,1.3974658
991,1778428856940,3.801209,-1.2441503,-0.7808497062499999,3.120207775,0.28480754374999995,1.5142902999999999
992,1778428856950,4.304123325,-1.6213026625000002,-1.20039769625,2.2919753875,-1.08525609625,1.602634175
993,1778428856960,4.6994512,-2.2436065000000003,-1.3236341,1.3712078816666666,-1.730224888888889,1.4139587166666667
994,1778428856970,4.892438650000001,-2.5200785125,-1.2269427075,-0.35452047375,-2.177975825,0.651754945
995,1778428856980,5.148898,-2.4248366,-0.99203956,-1.1887851,-2.2164593,0.06574243
996,1778428856990,5.40066925,-2.15214915,-0.66538560875,-1.4302702250000001,-2.5283732125,-0.6405497287499999
997,1778428857000,5.5426973749999995,-2.0300957250000002,-0.37226258875,-1.6103461,-2.957417,-1.3477582
998,1778428857010,5.261007833333334,-2.153794366666667,-0.06873368666666667,-2.0684136444444445,-3.990088166666667,-2.5844098666666664
999,1778428857020,4.654463375,-2.3053251,0.27753906,-2.63427885,-4.685427425,-3.9929749
1000,1778428857030,4.070207,-2.4944139,0.58814406,-2.9792547,-4.8150797,-5.038039
