id,timestamp,acc_x,acc_y,acc_z,gyro_x,gyro_y,gyro_z
0,1778428835000,-0.38193540125,0.26174927375,0.92334657375,-0.4878378875,-0.36773005999999997,-0.8714500000000001
1,1778428835010,-0.3703340975,0.2548471925,0.9553682800000001,-0.5739673387500001,-0.54533387875,-0.7809682087500001
2,1778428835020,-0.38169232666666664,0.19856511222222223,1.0128673566666668,-0.5976886122222222,-0.6488131022222222,-0.704603808888889
3,1778428835030,-0.36069178625,0.216384585,1.0814998,-0.5250232275,-0.743019345,-0.66712154875
4,1778428835040,-0.3615048333333333,0.21728909666666665,1.1922545666666666,-0.38714989777777775,-0.75571138,-0.65247822
5,1778428835050,-0.37270127555555554,0.21661156444444443,1.312081988888889,-0.12224581333333331,-0.8093302,-0.6270262577777778
6,1778428835060,-0.3878444466666667,0.22577875555555554,1.324989188888889,0.14788442222222223,-0.9115453,-0.5872533111111111
7,1778428835070,-0.3605833855555555,0.2617056533333333,1.1761694777777778,0.65780614,-1.0164753,-0.4624368266666667
8,1778428835080,-0.3374112911111111,0.22273657777777778,0.9970093555555556,0.80108375,-0.9483997666666666,-0.37264229555555556
9,1778428835090,-0.30229406666666664,0.21541907666666668,0.8797870666666667,0.7710843611111111,-0.9372687666666667,-0.32241708222222226
10,1778428835100,-0.2494048,0.22940363,0.7768136,0.5967214,-0.8859576,-0.24640052
11,1778428835110,-0.18231754333333333,0.2599033866666667,0.7713458000000001,0.21433102999999998,-0.798810068888889,-0.2326903777777778
12,1778428835120,-0.13904992714285716,0.26521582,0.8267903671428573,-0.21710166,-0.7164038514285715,-0.23453261714285717
13,1778428835130,-0.10407111444444445,0.19847363555555556,0.9527791544444444,-0.4825778222222222,-0.7335851333333333,-0.28793812888888887
14,1778428835140,-0.0786326375,0.1713285925,1.06458195,-0.4975350925,-0.8409075874999999,-0.343601585
15,1778428835150,-0.07296158,0.20208496,1.0896672,-0.45515758,-0.9287169,-0.37223506
16,1778428835160,-0.03136616,0.18932125875,1.1669354625,-0.37452574,-1.2100693875,-0.3557421625
17,1778428835170,0.023422774444444447,0.21584593,1.1056302555555555,-0.29593006,-1.3918834444444443,-0.3080282088888889
18,1778428835180,0.06616239062500001,0.15978448,1.09765555,-0.1468324115,-1.2945380499999999,-0.3922403
19,1778428835190,0.06802903,0.13481138666666667,1.0888270666666666,-0.046500746,-1.1914576,-0.48524180000000006
20,1778428835200,0.06064377875,0.12104364,1.0805165875,0.13285927625,-0.827163565,-0.64085511875
21,1778428835210,0.07211548749999999,0.14769916,1.050793,0.39033138749999996,-0.3005368525,-0.7723400062500001
22,1778428835220,0.08860273,0.16619872,1.0359751,0.7372163,0.32535252,-0.9219976
23,1778428835230,0.08284019625,0.18052883125,0.96977077375,0.964756875,0.86747945,-1.0580638
24,1778428835240,0.07110170875,0.19540774375,0.9317616875,0.97666843875,1.246815575,-1.16641285
25,1778428835250,0.040510493333333335,0.21190261666666668,0.9148500999999999,0.8989550511111111,1.446265711111111,-1.2542985
26,1778428835260,0.02067193775,0.2445340875,0.9304887675,0.7422557750000001,1.756796775,-1.3518813250000001
27,1778428835270,0.02342362325,0.2654728075,0.9993723025,0.6713975074999999,1.9912093625,-1.4026580124999999
28,1778428835280,0.029429224,0.25544512999999996,1.0823565333333334,0.6966967399999999,2.1484008,-1.4770541333333334
29,1778428835290,0.0159765425,0.24120310375,1.124932225,0.7609629875,2.177670625,-1.5664414249999998
30,1778428835300,-0.002927,0.24501431,1.1133271,0.78325893125,2.2010355500000003,-1.65325805
31,1778428835310,-0.15887106333333334,0.2883095,1.1576792666666667,0.7337548100000001,2.176703333333333,-1.7796272000000002
32,1778428835320,-0.24574605,0.3187381,1.1829044,0.69140273,2.1323152,-1.800396
33,1778428835330,-0.3124572566666666,0.33402355333333333,1.1924984,0.6873304433333334,2.1241704,-1.7857356
34,1778428835340,-0.34581286,0.34166628,1.1972954,0.6852943,2.120098,-1.7784054
35,1778428835350,-0.34581286,0.34166628,1.1972954,0.6852943,2.120098,-1.7784054
36,1778428835360,-0.3752701542857143,0.3532784528571429,1.2122135428571428,0.8127868285714286,2.2850267714285715,-1.7526625571428571
37,1778428835370,-0.46319774,0.3523986,1.3293154,1.8618624000000001,3.1933568,-1.5829343
38,1778428835380,-0.42368708,0.30605823249999997,1.2878838,2.14224135,3.22634255,-1.5829343
39,1778428835390,-0.4087128825,0.28760822875000003,1.230929275,2.3821516375000003,3.164723325,-1.60988795
40,1778428835400,-0.4025709144444444,0.2626338822222222,1.0996068933333334,2.762658511111111,2.8141562666666666,-1.6979093666666667
41,1778428835410,-0.45831943,0.2687047,0.98008764,2.8050106,2.473168,-1.7332027
42,1778428835420,-0.45831943,0.2687047,0.9800876400000001,2.8050106,2.473168,-1.7332027
43,1778428835430,-0.4850936314285715,0.24115953714285718,0.89871966,2.8301426,2.3030906285714283,-1.7122593857142856
44,1778428835440,-0.53250057,0.16644263,0.73336595,2.9143522,1.7871864,-1.6586794
45,1778428835450,-0.53250057,0.16644263,0.73336595,2.9143522,1.7871864,-1.6586794
46,1778428835460,-0.50215964,0.139680402,0.65279724375,3.0540072625,1.5458539875,-1.6355435375
47,1778428835470,-0.4552569011111111,0.055609611777777776,0.5137325222222223,3.333325611111111,1.1879367222222224,-1.6060786333333334
48,1778428835480,-0.4334399,-0.027318668,0.4190184,3.514815,1.0321028,-1.6250827
49,1778428835490,-0.4334399,-0.027318668,0.4190184,3.514815,1.0321028,-1.6250827
50,1778428835500,-0.3487817725,-0.11921046425000001,0.1484347425,3.786117225,0.9792645,-1.6842586
51,1778428835510,-0.28236404,-0.24062379999999997,-0.17400406,4.245465,1.2746092,-1.8333817
52,1778428835520,-0.28236404,-0.2406238,-0.17400406,4.245465,1.2746092,-1.8333817
53,1778428835530,-0.27793923000000004,-0.2305012525,-0.219185805,4.5222548875,2.525691225,-2.1443793625
54,1778428835540,-0.24257512,-0.24159945999999996,-0.21037814,4.2937217,2.6185496,-2.1699586
55,1778428835550,-0.24257512,-0.24159946,-0.21037814,4.2937217,2.6185496,-2.1699586
56,1778428835560,-0.19677977000000002,-0.35945526000000005,0.04522960644444444,3.3061344333333333,1.3843835344444446,-2.2740316333333332
57,1778428835570,-0.17571147,-0.50005966,0.24306297,2.6388602,0.30152947,-2.4113195
58,1778428835580,-0.17571147,-0.50005966,0.24306297,2.6388602,0.30152947,-2.4113195
59,1778428835590,-0.24026131666666664,-0.5915487577777777,-0.2612652288888889,2.5889741555555554,-0.44058207111111103,-2.7876014666666666
60,1778428835600,-0.25870413,-0.6176885,-0.405359,2.574721,-0.65261394,-2.8951106
61,1778428835610,-0.26751561999999995,-0.5874800955555555,-0.39939320777777776,2.605195522222222,-0.4293832011111111,-3.0278680777777778
62,1778428835620,-0.392370455,-0.3306824,-0.28138075375,2.6293157375,1.37983713,-3.9611154875
63,1778428835630,-0.5554592,-0.28529102,-0.070522405,2.3401558,1.8745375,-4.370918
64,1778428835640,-0.617017675,-0.29907993625,-0.051855156874999996,2.2093485999999998,1.75067867875,-4.410699375
65,1778428835650,-1.1450600666666668,-0.3521038788888889,0.10799749777777777,1.1351493933333332,0.7728999566666667,-4.62184
66,1778428835660,-1.4850258,-0.19985923,0.21013421,0.58022857,0.38521555,-4.3861885
67,1778428835670,-1.6687627333333335,-0.16286519444444444,0.2610009933333333,0.2590586377777778,0.13911197666666666,-4.142935777777778
68,1778428835680,-1.92022635,-0.12007560199999999,0.4305510425,-0.1373642725,-0.1877591825,-3.61575755
69,1778428835690,-2.113236825,-0.0789146651875,0.54050031125,-0.2907632925,-0.54029438875,-3.0793574125000003
70,1778428835700,-2.2128729750000002,-0.009238344125,0.55667883,-0.13629529,-0.85297185,-2.2610512
71,1778428835710,-2.2029571555555556,-0.01732485961111111,0.5603104744444445,0.10967253888888889,-0.9673444944444444,-1.7110341222222223
72,1778428835720,-2.0713974750000004,-0.087699475,0.56066151875,0.5286883,-1.2898803125,-0.6646018275
73,1778428835730,-1.8977021500000002,-0.138491305,0.52609015,0.623445975,-1.51199965,-0.20730628500000003
74,1778428835740,-1.6633694777777779,-0.2202262577777778,0.4637330222222222,0.6238023222222222,-1.785879822222222,0.21487400666666667
75,1778428835750,-1.4792517125,-0.32176419375,0.37611186750000003,0.5835882425,-1.9706697000000002,0.4443150325
76,1778428835760,-1.303948,-0.41999403,0.26358244,0.55151874,-2.0203774,0.59664506
77,1778428835770,-1.07444535,-0.51225550375,0.160985001,0.5209000324999999,-1.91279185,0.6707102899999999
78,1778428835780,-0.8699441,-0.5833610112500001,0.10082524525,0.394378275,-1.7968072125,0.5716003000000001
79,1778428835790,-0.6514506411111111,-0.6122680866666665,0.050301037888888886,0.2710040948888889,-1.7478715555555555,0.43937733
80,1778428835800,-0.5047436375000001,-0.598194185,0.0224098435,0.012446012499999999,-1.6950248250000002,0.171189951375
81,1778428835810,-0.45441675,-0.58521706,0.014635001,-0.14790139,-1.6892982,0.021150587
82,1778428835820,-0.37632276555555555,-0.53032904,0.04507038122222222,-0.4280088044444444,-1.5571514666666666,-0.3138651966666667
83,1778428835830,-0.2852834075,-0.45788497250000004,0.05101669975,-0.6332195375,-1.305361475,-0.6188646
84,1778428835840,-0.21372436,-0.41322535,0.13398648,-0.7074374825,-1.0377531075,-0.9397121500000001
85,1778428835850,-0.11644735149999999,-0.42622533625000003,0.22667862,-0.60275352875,-0.80158430625,-1.303471675
86,1778428835860,-0.05135461977777778,-0.43852830555555555,0.1755962877777778,-0.47551912733333335,-0.7406438000000001,-1.5003341555555556
87,1778428835870,-0.0192084375,-0.401692665,0.11616531499999999,-0.002672457000000003,-0.43515228,-1.8376576
88,1778428835880,-0.012141629777777779,-0.35879466666666665,0.13064447666666668,0.4087840655555556,-0.2082564888888889,-2.093806244444444
89,1778428835890,-0.04330664375,-0.32287326,0.13639896875,0.6797966175,-0.1323247875,-2.3668231
90,1778428835900,-0.08894574125,-0.2643370625,0.102414514375,0.88137627,-0.03565821,-2.6898658
91,1778428835910,-0.20604861666666668,-0.17594523,0.0744454,1.0713496999999998,0.3701479833333333,-3.0571886999999998
92,1778428835920,-0.29971643125,-0.09993342150000001,0.0510090725,1.17351395,0.6057313975,-3.29857525
93,1778428835930,-0.3758451,-0.040764574,0.06320491,1.2564365,0.87511504,-3.5377219
94,1778428835940,-0.4403068555555556,0.03283389444444444,0.08496430555555555,1.2930873444444444,0.9235755999999999,-3.593512611111111
95,1778428835950,-0.55948385,0.112262645,0.06942478,1.36005145,0.8940513375,-3.492824625
96,1778428835960,-0.63208715,0.141662225,0.07894515375,1.3938006875,0.8578586212499999,-3.380199775
97,1778428835970,-0.7542614333333333,0.18694180666666668,0.11405136666666665,1.3887866666666666,0.6488979666666667,-3.092414333333333
98,1778428835980,-0.86091145875,0.2112013475,0.151144485,1.3712758,0.48111856,-2.8749526
99,1778428835990,-0.9949208275,0.20396770250000001,0.26028195,1.3066786750000001,0.22608982500000002,-2.492085125
100,1778428836000,-1.1423023666666667,0.133330945,0.4399443466666667,1.237500211111111,-0.15144770666666665,-2.139280411111111
101,1778428836010,-1.2441579,0.049545575,0.5686307,1.2100121,-0.37712184,-1.9909803
102,1778428836020,-1.4476605999999999,-0.09217763625,0.74181542625,1.2162732125,-0.9837026975,-1.8230736625000001
103,1778428836030,-1.6733869333333335,-0.20469351222222223,0.8415972044444444,1.3731252444444444,-1.3760013444444443,-1.8347391000000002
104,1778428836040,-1.977524,-0.34288585,0.9481346,1.6040848,-1.4467918,-1.9634922
105,1778428836050,-2.1079516444444444,-0.32482923888888887,0.9283908888888889,1.7949406666666665,-1.2817103177777778,-2.082828
106,1778428836060,-2.5999416666666666,-0.25710170555555556,0.8493347444444445,2.4629362,-0.70392513,-2.5005033
107,1778428836070,-2.8838878,-0.22086655,0.7697095,2.913809222222222,-0.12776040111111112,-2.743756355555556
108,1778428836080,-3.2456582875,-0.16917907375000002,0.67871719375,3.1090598125,0.28725092375,-2.8511295125
109,1778428836090,-3.90486975,-0.018118436499999998,0.4992517125,3.057443225,0.89634202,-2.748354525
110,1778428836100,-4.281561,0.118604474,0.411213,2.816006,1.3173685,-2.465685
111,1778428836110,-4.281561,0.118604474,0.411213,2.816006,1.3173685,-2.465685
112,1778428836120,-4.281561,0.118604474,0.411213,2.816006,1.3173685,-2.465685
113,1778428836130,-4.7679993750000005,0.009184984,0.46640296875,1.83509975,2.27926205,-0.5737383125000001
114,1778428836140,-5.125092666666666,-0.23503064666666665,0.6096494033333334,0.56638264,3.451473722222222,1.8503750888888888
115,1778428836150,-4.987334,-0.48688814,0.77974063,-0.036956261250000004,3.78992555,2.81319015
116,1778428836160,-4.679717244444444,-0.91404385,1.2565740222222221,-0.8412385,3.9351289333333335,4.017873333333333
117,1778428836170,-4.521948125,-1.1515916000000002,1.537612625,-1.2846118125,3.8222239375,4.8024049374999995
118,1778428836180,-4.4106536,-1.3359011,1.6697621,-1.4118208,3.6704285,5.1402035
119,1778428836190,-4.197965925,-1.516872025,1.848042275,-1.420830775,3.296895375,5.736886675
120,1778428836200,-3.8525112,-1.7588526,2.0380456,-1.3458493,2.748049,6.579436
121,1778428836210,-3.5152357,-1.8349851,2.0019155,-0.98903805,2.5562432,6.890357
122,1778428836220,-3.443785033333333,-1.8190153333333332,1.9632750444444445,-0.9091528055555556,2.556311066666667,6.907596444444445
123,1778428836230,-2.8449677749999998,-1.6798769624999998,1.6349010375,-0.26014457999999996,2.576553825,7.0351276
124,1778428836240,-2.6544843,-1.6002153,1.5001485,-0.23036577,2.6356533,7.0039744
125,1778428836250,-2.4862630444444442,-1.5604060444444443,1.4134564555555555,-0.30258149444444443,2.6642952111111113,6.977911711111111
126,1778428836260,-2.1746467,-1.503441325,1.26110255,-0.4610369825,2.71781215,6.9166234125
127,1778428836270,-2.0309722,-1.4920993,1.2043691,-0.52784836,2.7327778,6.8695884
128,1778428836280,-2.0309722,-1.4920993,1.2043691,-0.52784836,2.7327778,6.8695884
129,1778428836290,-1.867025875,-1.45695625,1.1491524375000002,-0.4834092325,2.7433913,6.8134667
130,1778428836300,-1.5474988,-1.3695922,1.0474391,-0.3598654,2.7309453,6.718098
131,1778428836310,-1.5474988,-1.3695922,1.0474391,-0.3598654,2.7309453,6.718098
132,1778428836320,-1.4283074375,-1.3900620375,0.953725575,-0.2054737475,2.4982889,6.850499325
133,1778428836330,-1.3049237,-1.420845,0.8614832,-0.09048175,2.2312722,6.9404464
134,1778428836340,-1.3149939714285714,-1.4107007142857142,0.8327924942857143,-0.1779201685714286,2.2517792714285716,6.954059671428571
135,1778428836350,-1.3019052666666666,-1.4139340999999999,0.80209964,-0.29654088999999995,2.4556568666666667,6.9783192
136,1778428836360,-1.26172,-1.4347483,0.8219382,-0.26518407,2.7077332,6.979541
137,1778428836370,-1.26172,-1.4347483,0.8219382,-0.26518407,2.7077332,6.979541
138,1778428836380,-1.2024787,-1.5132132500000002,0.8763697425,-0.060550235,2.826390275,7.0146645
139,1778428836390,-1.123846,-1.5911903,0.9102970000000001,0.2112768,2.8702185,7.050399
140,1778428836400,-1.1167038249999999,-1.593812425,0.889487865,0.22349374,2.845937375,7.0569656
141,1778428836410,-1.0952773,-1.6016788,0.82706046,0.26014456,2.773094,7.0766654
142,1778428836420,-1.0952773,-1.6016788,0.82706046,0.26014456,2.773094,7.0766654
143,1778428836430,-1.0850023222222223,-1.5946018333333332,0.8111753833333333,0.2533573711111111,2.6081651888888886,7.063294677777779
144,1778428836440,-1.0243585375,-1.582802,0.72266030875,0.2512872925,1.9851772125,6.9134928875
145,1778428836450,-1.042073,-1.5189606,0.71260256,0.27113983,2.0748954,6.8329372
146,1778428836460,-1.0394204,-1.5157248875,0.71608218125,0.28831990750000003,2.0984893875,6.831257425
147,1778428836470,-0.9753719333333333,-1.5772872666666666,0.7715185833333333,0.6690050066666667,2.3373562333333333,6.770223933333333
148,1778428836480,-0.9503298,-1.5831412,0.76824605,0.7476007,2.3296187,6.7620792
149,1778428836490,-0.9503298,-1.5831412,0.76824605,0.7476007,2.3296187,6.7620792
150,1778428836500,-0.66598014625,-1.6076967125,0.74123226625,0.92864053125,1.7421077500000002,6.8437036749999995
151,1778428836510,-0.33873928,-1.634882,0.71775526,1.0945619,1.0021713,6.927008
152,1778428836520,-0.3041911935555555,-1.6364268,0.6994784488888889,1.0973446444444446,0.9084401811111112,6.914451666666666
153,1778428836530,0.394984915,-1.56153165,0.29346224,1.0449306,-0.6135197,6.3224219
154,1778428836540,0.6625996,-1.5736284,0.11958014,0.8978691,-0.84808505,5.8170986
155,1778428836550,0.7376725875,-1.5203935875,0.103413039125,0.8871792749999999,-0.84579437625,5.793571399999999
156,1778428836560,1.4026699444444446,-1.129584877777778,-0.016755719666666665,0.5929884511111111,0.8731637355555555,4.2316699333333325
157,1778428836570,2.1618600625,-1.0645437875000001,-0.00500791225,1.2314967,2.504473725,3.3711610875
158,1778428836580,2.899284933333333,-1.0375300166666668,0.06483101933333334,1.8117729999999999,3.5614940666666666,2.557057566666667
159,1778428836590,3.4708428,-0.98838085,0.08369391,2.1330786,3.985015,1.9490609
160,1778428836600,3.4708428,-0.98838085,0.08369391,2.1330786,3.985015,1.9490609
161,1778428836610,4.295823066666666,-0.9910775244444445,-0.261997,2.028530388888889,1.815192105777778,0.9407556844444446
162,1778428836620,4.629575555555555,-0.9587585088888889,-0.5162936888888888,1.1546964866666667,-0.29542099022222224,0.6799917866666667
163,1778428836630,4.704462875,-1.136396375,-0.43501013625,-0.229296795,-1.98113035,0.836860755
164,1778428836640,4.717016222222223,-1.7004854444444444,-0.1000566488888889,-1.2439904333333331,-3.2536780333333333,0.6481343900000001
165,1778428836650,4.5803318625000005,-2.025590875,0.0999067475,-1.5262781875,-3.7380798499999996,-0.08231165624999999
166,1778428836660,4.3878284249999995,-2.108210125,0.16667513125,-1.4128038125,-3.5905602125,-0.8697701375
167,1778428836670,4.0871087444444445,-1.7919201777777778,-0.014784059777777778,-0.9168223444444443,-2.3827455777777775,-2.319497333333333
168,1778428836680,3.957167,-1.599780825,-0.094693022,-0.690333775,-1.3869095875,-3.277195525
169,1778428836690,3.8544186444444444,-1.5344628222222223,-0.05072450288888889,-0.7003787888888888,-0.9063191888888888,-3.967758477777778
170,1778428836700,3.568828825,-1.5537949,0.1284907335,-1.21783855,-0.96567315,-5.0767896
171,1778428836710,3.1230747,-1.6579092,0.40687589,-1.4926052875,-1.0964040124999999,-5.561229687499999
172,1778428836720,2.3513376875,-1.9152107749999998,0.899800975,-1.6085899125,-1.4456464,-6.329675624999999
173,1778428836730,1.5309836333333333,-2.2036651333333332,1.3450276666666667,-1.2588798333333333,-1.9468720333333336,-7.048744566666667
174,1778428836740,0.736407335,-2.4335261,1.5609219250000002,-0.76478074625,-2.3938340625,-7.612006237499999
175,1778428836750,-0.06940953249999998,-2.66304425,1.5528727,-0.1424801125,-2.751714175,-8.2925569375
176,1778428836760,-0.49664482,-2.752112,1.4589267,0.10987615,-2.8181438,-8.6231785
177,1778428836770,-1.3137047499999999,-2.6644999,1.2218091,0.18409409,-2.58693815,-9.064820000000001
178,1778428836780,-1.598576525,-2.5917213500000003,1.14658365,0.09781191500000001,-2.414526575,-9.1187275
179,1778428836790,-1.8541859,-2.5022992625000002,1.1153814,-0.08567132875,-2.2305850625,-8.907069250000001
180,1778428836800,-1.9333444666666668,-2.469016,1.149061,-0.19982341,-2.188971,-8.666548
181,1778428836810,-1.9357836,-2.4436486,1.1868072,-0.28763271625000003,-2.3622989375,-8.3989205
182,1778428836820,-1.904968888888889,-2.484799477777778,1.246919011111111,-0.5594088177777778,-2.8864229222222217,-7.737432644444444
183,1778428836830,-1.8888603,-2.6494305000000002,1.289046275,-0.7934142037499999,-3.2251970875,-7.37735515
184,1778428836840,-1.9033122,-2.7037857,1.3000454,-0.98903805,-3.3465266,-7.2132664
185,1778428836850,-1.9239028666666667,-2.6383957333333337,1.2723100333333335,-1.0334262666666667,-3.1406712333333333,-7.011686666666666
186,1778428836860,-1.897058,-2.573038725,1.2308569125,-0.90901708125,-2.8676225125,-6.945715
187,1778428836870,-1.8144235874999999,-2.44447945,1.1172488625,-0.62207156875,-2.2821254125,-6.945715
188,1778428836880,-1.743958425,-2.3495502249999998,1.0528282,-0.46294587000000004,-1.8759119,-6.9382321
189,1778428836890,-1.6211955333333332,-2.2490607888888885,1.0064476555555555,-0.35341755333333336,-1.5299348555555554,-6.892978511111111
190,1778428836900,-1.51735985,-2.19337485,0.99362503,-0.33390438,-1.494437875,-6.8333192375000005
191,1778428836910,-1.44531295,-2.188427925,0.992717945,-0.348717435,-1.682120675,-6.752992825
192,1778428836920,-1.3599911666666666,-2.215627266666667,1.0049705333333334,-0.37893740000000004,-2.1646730555555553,-6.638458777777777
193,1778428836930,-1.3298032,-2.2179039,1.012559,-0.3897969,-2.361841,-6.601808
194,1778428836940,-1.2528238222222223,-2.2625608444444447,0.9621123444444445,-0.5452914944444445,-3.7836897111111107,-6.297809555555556
195,1778428836950,-1.19887335,-2.33608135,0.878084775,-1.06113715,-5.00627515,-6.115421100000001
196,1778428836960,-1.1670192,-2.3545582,0.8260848,-1.4226632375,-5.4036312749999995,-6.13702985
197,1778428836970,-1.2325719222222222,-2.381243288888889,0.8682044388888889,-1.8386671777777777,-5.622416222222222,-6.228648022222222
198,1778428836980,-1.3180952,-2.3674858,0.95569605,-2.2353955,-5.7283728125,-6.3695334375
199,1778428836990,-1.591114125,-2.230229225,0.994059575,-2.5516618125,-5.7015718,-6.239957425
200,1778428837000,-1.842588425,-2.0917303124999997,1.0175288624999999,-2.75247785,-5.5497763,-5.955913300000001
201,1778428837010,-2.0284416,-1.977513833333333,1.0720138,-2.928758111111111,-5.1876966555555555,-5.541173455555556
202,1778428837020,-2.197125175,-1.9091243,1.28133235,-3.207100825,-4.602199625,-5.225263625
203,1778428837030,-2.3321178,-1.8740423000000002,1.4791716,-3.3598127,-4.31052,-5.138218
204,1778428837040,-2.6895281375,-1.73731175,1.8578332625,-3.3345388625,-3.768269025,-5.2132760000000005
205,1778428837050,-3.1400384,-1.494180225,2.3356394,-2.8714402,-2.729876425,-5.388360125
206,1778428837060,-3.3688247,-1.3605672,2.5922549,-2.15178585,-2.158276175,-5.419284125
207,1778428837070,-3.7949066333333334,-1.3486423444444446,2.7602525333333334,-1.0412145666666666,-2.040942433333333,-5.353439866666666
208,1778428837080,-4.3219100125,-1.3545797625,2.5251817375,-0.424920635,-2.21157245,-5.2188498
209,1778428837090,-4.9046863,-1.2417798000000002,2.248484866666667,-0.3942764544444445,-2.284466911111111,-5.1623804444444445
210,1778428837100,-5.671466475,-0.9215172500000001,2.044189425,-1.06204387625,-2.350769275,-5.0471924625
211,1778428837110,-6.7574673,-0.33599522000000004,2.072742975,-2.71584605,-1.842143525,-4.8165306
212,1778428837120,-7.863358555555556,0.5426942711111111,2.7553979111111113,-4.526675077777778,-0.44126079333333335,-4.040924277777778
213,1778428837130,-7.9936373875,0.798354515,3.266634975,-4.6374759375,0.3642940375,-2.6597530000000003
214,1778428837140,-7.9944906,0.9403674249999999,3.955078425,-4.100302625,0.7717291749999999,-1.1118088375
215,1778428837150,-7.9944906,0.8007175,4.2818046,-2.959097,1.031492,1.0059128
216,1778428837160,-7.85513805,0.28003921,4.40010405,-1.034994775,1.0608126500000001,3.58643705
217,1778428837170,-7.063257755555556,-0.4157525833333333,4.032355944444444,0.7048414,1.0736405,5.2770333
218,1778428837180,-5.475255144444445,-1.0234946999999999,3.1322831222222223,3.2910583888888887,1.2932738777777777,6.739885122222223
219,1778428837190,-4.4965734,-1.3402916,2.448771,4.2075925,1.4847406,6.9294515
220,1778428837200,-4.151366525,-1.3688184125,2.1482885,4.3274712125,1.6595383625000002,6.80094445
221,1778428837210,-2.6334464,-1.391064425,0.7489156100000001,4.4697792,2.75201955,6.000333525
222,1778428837220,-2.3133056,-1.2578174,0.42584804,3.9643986000000004,3.3668373,5.5568013
223,1778428837230,-2.3133056,-1.2578174,0.42584804,3.9643986,3.3668373,5.5568013
224,1778428837240,-1.9150245714285714,-1.1680734285714287,0.46977917428571425,2.1114372,3.8097887571428575,5.003897185714286
225,1778428837250,-1.821515588888889,-1.1360419333333334,0.6426255733333333,1.2248166111111112,3.4600934666666667,4.995364722222223
226,1778428837260,-1.8116302,-1.150684575,0.7390294,1.036226,3.2594810499999998,5.16249935
227,1778428837270,-1.8052273,-1.2092475,0.8863627,0.6871268,2.816464,5.6325464
228,1778428837280,-1.8052273,-1.2092475,0.8863627,0.6871268,2.816464,5.6325464
229,1778428837290,-1.8052273,-1.2092475,0.8863627,0.6871268,2.816464,5.6325464
230,1778428837300,-1.6790537374999999,-1.4081728625,0.9888686375,1.0713496875000001,3.2295494125,6.6915932
231,1778428837310,-1.5885073,-1.5406692,1.0486587,1.1336561,3.3265214,7.0723896
232,1778428837320,-1.5885073,-1.5406692,1.0486587,1.1336561,3.3265214,7.0723896
233,1778428837330,-1.577070388888889,-1.7641746888888887,1.1749195666666667,1.046983711111111,2.2136256222222226,7.7112678
234,1778428837340,-1.5792385,-1.7949523,1.1875389,1.0218711,1.8769809,7.8524413
235,1778428837350,-1.5792385,-1.7949523,1.1875389,1.0218711,1.8769809,7.8524413
236,1778428837360,-1.645045222222222,-1.978503011111111,1.2451065111111113,1.1128873666666668,1.062373611111111,7.991036111111111
237,1778428837370,-1.6473217,-2.0255756,1.2509876,1.2882005,1.0785272,7.907418
238,1778428837380,-1.6473217,-2.0255756,1.2509876,1.2882005,1.0785272,7.907418
239,1778428837390,-1.7125897444444445,-2.044018344444444,1.3041072555555555,1.5207551555555556,1.1866471777777778,7.706313444444444
240,1778428837400,-1.8933117,-2.0928203,1.46257015,2.1755324875,1.39280815,7.2686242375
241,1778428837410,-1.9059954,-2.1117392,1.4981972,2.3419883,1.3454674,7.2648063
242,1778428837420,-1.8427905,-2.1419847,1.5145396,2.6547422,0.94230825,7.153632
243,1778428837430,-1.784162725,-2.0624031250000003,1.4425841375,2.7493472,0.89970165625,6.989314375
244,1778428837440,-1.6983308,-1.9152641,1.3305349,2.8709822,1.0931876,6.5843225
245,1778428837450,-1.7156489,-1.8450737444444445,1.2717002222222222,3.0063865888888888,1.726152588888889,6.2600985555555555
246,1778428837460,-1.7272958749999998,-1.800341375,1.2350645,3.2602444999999998,2.7462166,5.9856925
247,1778428837470,-1.7256494,-1.7710484,1.2194918,3.4934354,3.444415,5.978362
248,1778428837480,-1.64005755,-1.7968807125,1.1814827875,3.562155775,3.778853875,6.1364186875
249,1778428837490,-1.2868637333333333,-1.9247023222222224,1.1128359444444444,3.488480788888889,4.208169222222223,6.4893018
250,1778428837500,-1.0510979,-1.9577361,1.1033266,3.315068,4.076031,6.5928745
251,1778428837510,-0.69630205375,-1.9069138125,1.0505948749999998,3.0663005125000002,3.582084775,6.636244875
252,1778428837520,-0.37258271666666665,-1.8580149666666668,0.9524233999999999,2.911501655555556,2.859426977777778,6.557445188888888
253,1778428837530,-0.21525647,-1.8137645,0.8566048,2.935732,2.4517882,6.4633746
254,1778428837540,-0.21525647,-1.8137645,0.8566048,2.935732,2.4517882,6.4633746
255,1778428837550,0.09850845444444443,-1.6969926555555555,0.45938315288888887,3.0747336666666665,2.4716067888888893,5.9463179777777775
256,1778428837560,0.6779702125,-1.4335631125,-0.11313541225,2.904197025,3.0545415874999997,5.193805125
257,1778428837570,1.1716537,-1.0972286,-0.31751853,2.5423462,3.8017607000000004,4.636865
258,1778428837580,2.029363925,-0.861551775,-0.217268775,1.933637,4.4323078625,3.9869999375
259,1778428837590,2.7501605,-0.7504401,-0.03369099,1.49963,4.3473234,3.5129063
260,1778428837600,3.3839998000000002,-0.7998768,0.1114307242857143,1.6071391857142856,3.7093482428571427,3.2935248285714285
261,1778428837610,4.043429525,-1.2202236499999999,0.09848136499999999,2.0639000875,2.4098593375,3.3859263375
262,1778428837620,4.5678986,-1.6652903,-0.22906824666666667,1.9319063000000003,1.1304491866666668,3.548131666666667
263,1778428837630,4.9561124,-1.8745301,-0.52908576,1.3545346375,0.3759001185,3.49717685
264,1778428837640,5.640484855555556,-1.9368203333333334,-0.9296883733333333,0.66452545,-0.102851406,3.349199
265,1778428837650,6.5822512125,-2.166197225,-1.1389384,-0.91307349375,-0.89658061,2.43338645
266,1778428837660,6.8052444,-2.2959876,-1.1433594,-2.2114198,-1.454122,1.1842802
267,1778428837670,6.526851775,-2.34333035,-0.7342121,-3.482459275,-1.44875795,-1.168188145
268,1778428837680,6.0009139625,-2.328009325,-0.26799581125,-4.1302436125,-1.05951456875,-3.1362426875000002
269,1778428837690,5.093894733333333,-2.4449392666666667,0.48922570666666665,-4.422356,-0.6261439,-5.3676423333333325
270,1778428837700,4.22456065,-2.5474885,1.1712955,-4.38534875,-0.649407,-6.857008825
271,1778428837710,3.3123806125,-2.7106611375000003,1.756382975,-4.115507,-0.8853468,-7.8590083
272,1778428837720,2.106830188888889,-3.0059445,2.2113078444444443,-2.879347344444444,-1.7681652444444445,-8.871114333333333
273,1778428837730,0.8147159825,-3.3530463125,2.3171054375,-1.5913907125,-2.681619425,-9.360624
274,1778428837740,0.045307546666666663,-3.5819469333333336,2.2201802666666666,-0.71273151,-3.3110975333333332,-9.449451333333334
275,1778428837750,-0.7905262875,-3.7698160625,2.0466704375,-0.25632678875000003,-3.710372175,-9.3327540625
276,1778428837760,-1.1982474555555556,-3.8264122999999994,1.9204507444444445,-0.17477867777777778,-4.254254222222222,-9.027491277777777
277,1778428837770,-1.541957375,-3.7239710875000003,1.7168951875,-0.544035825,-4.57959825,-8.791160999999999
278,1778428837780,-1.78746715,-3.564903225,1.6055891249999998,-1.3228851499999998,-4.6191504000000005,-8.52483175
279,1778428837790,-1.9322977555555556,-3.5374760111111114,1.7570029777777778,-1.9833701333333333,-4.3752696888888885,-8.327799
280,1778428837800,-1.9644133875,-3.4610936875,1.979307625,-2.368102075,-4.1017627999999995,-8.134652925
281,1778428837810,-1.9560287,-3.3749225,2.14418,-2.3891764,-3.9995987,-7.9885077
282,1778428837820,-1.9196203875,-3.2492673625,2.1752108125,-2.3112932500000003,-4.003721975,-7.9014618
283,1778428837830,-1.8826876888888888,-3.0392659555555555,2.0767134555555553,-1.936131288888889,-3.8995472222222225,-7.7278796777777785
284,1778428837840,-1.8783374125,-2.886593625,1.9148296999999999,-1.699224325,-3.7341856375,-7.6339778625
285,1778428837850,-1.8529739749999998,-2.773328625,1.8070224499999998,-1.6323366250000002,-3.539249075,-7.5860546499999995
286,1778428837860,-1.8354731,-2.733818,1.7564135,-1.6176763,-3.3697388,-7.6012306
287,1778428837870,-1.8354731,-2.733818,1.7564135,-1.6176763,-3.3697388,-7.6012306
288,1778428837880,-1.8354731,-2.733818,1.7564135,-1.6176763,-3.3697388,-7.6012306
289,1778428837890,-1.84736775,-2.78372565,1.8166875125000002,-1.4566417,-3.1623562625,-7.6951484
290,1778428837900,-1.9123600250000001,-2.947927375,1.9074473875,-0.8846596062500001,-3.380657775,-7.920398225
291,1778428837910,-1.9745969,-3.000541,1.8874577,-0.65368295,-3.5994174,-7.9891186
292,1778428837920,-2.138970075,-2.98282275,1.6604322625,-0.25877017375,-3.91743015,-8.004924075
293,1778428837930,-2.3146471666666666,-2.9123888,1.3984319333333335,-0.07948649999999999,-4.125365133333333,-7.901903222222223
294,1778428837940,-2.4268031,-2.7718766500000003,1.1478109250000001,-0.13408097125,-4.19079385,-7.7254521875
295,1778428837950,-2.509648311111111,-2.612330555555556,0.9610554077777778,-0.4279409355555555,-4.1337815777777775,-7.300821111111111
296,1778428837960,-2.58911825,-2.4270205,0.8570622112499999,-0.9221598275,-4.0445722375,-6.844009
297,1778428837970,-2.64728845,-2.226197075,0.8929560599999999,-1.5086400750000002,-3.970736175,-6.31944425
298,1778428837980,-2.6469226,-2.0804873,0.92956644,-1.7990979,-3.946455,-5.957975
299,1778428837990,-2.6315559375,-1.9098790125,0.98359017375,-1.9460066,-3.865269625,-5.5643602125
300,1778428838000,-2.602113233333333,-1.4138426666666666,1.0344303,-1.9623977333333333,-3.6943022333333335,-5.052673966666666
301,1778428838010,-2.548761375,-1.32902565,1.00321401,-1.8725523,-3.536500125,-4.8548614
302,1778428838020,-2.479473875,-1.2518070000000001,0.8903416224999999,-1.81039855,-3.3382039750000003,-4.9016007125000005
303,1778428838030,-2.431453,-1.184124,0.711383,-1.8595718,-2.989181,-5.2255692
304,1778428838040,-2.5235314444444445,-1.137088711111111,0.5189733888888889,-2.3251731777777778,-2.2185632888888893,-6.290343711111111
305,1778428838050,-2.922178875,-1.0045936337499999,0.46776738875,-3.1343432499999997,-1.5790402125,-7.559091625
306,1778428838060,-3.943500075,-0.8394087275,1.0091367,-4.428261075,-1.7338900000000002,-8.396859
307,1778428838070,-5.435503837500001,-0.69901565,2.068001775,-5.577569875,-2.5005034250000002,-8.32737525
308,1778428838080,-6.3850064,-0.7219019,2.7894614,-6.1887226,-3.5029037,-7.703853
309,1778428838090,-7.937429375,-0.54324815,4.21035995,-6.32081855,-5.374787825,-4.839628175
310,1778428838100,-7.994003,-0.2613872,4.861412,-5.6780543,-6.5737853,-2.0013647
311,1778428838110,-7.9944906,-0.3049771422222223,4.861445411111111,-2.4797769555555558,-5.624240288888888,1.7232595333333334
312,1778428838120,-7.66319105,-1.3080946,4.1629565,2.0514827374999998,-2.4096874875000003,4.7077236125
313,1778428838130,-7.3318915,-1.6988186,3.8078747,3.7176163,-0.6629983,5.7125673
314,1778428838140,-6.001844166666667,-2.3274732333333334,3.164971266666667,4.078881633333333,0.8849395666666666,6.1679029666666665
315,1778428838150,-4.746222,-2.8133655,2.60814,3.703567,2.9868903,6.3002787
316,1778428838160,-4.746222,-2.8133655,2.60814,3.7035670000000005,2.9868903,6.3002787
317,1778428838170,-4.746222,-2.8133655,2.60814,3.703567,2.9868903,6.3002787
318,1778428838180,-4.746222,-2.8133655,2.60814,3.7035670000000005,2.9868903,6.3002787
319,1778428838190,-4.746222,-2.8133655,2.60814,3.703567,2.9868903,6.3002787
320,1778428838200,-4.746222,-2.8133655,2.60814,3.703567,2.9868903,6.3002787
321,1778428838210,-4.746222,-2.8133655,2.60814,3.703567,2.9868903,6.3002787
322,1778428838220,-4.746222,-2.8133655,2.60814,3.7035670000000005,2.9868903,6.3002787
323,1778428838230,-4.746222,-2.8133655,2.60814,3.703567,2.9868903,6.3002787
324,1778428838240,-4.746222,-2.8133655,2.60814,3.7035670000000005,2.9868903,6.3002787
325,1778428838250,-4.746222,-2.8133655,2.60814,3.703567,2.9868903,6.3002787
326,1778428838260,-4.746222,-2.8133655,2.60814,3.7035670000000005,2.9868903,6.3002787
327,1778428838270,-3.9945230714285715,-2.4113864142857144,2.256464457142857,2.948199771428571,3.226789671428572,5.969624857142857
328,1778428838280,-1.8387352666666668,-1.6832690222222222,0.7853371677777778,1.2941138333333333,3.2925177222222226,7.274851555555555
329,1778428838290,-1.8188866,-1.7673898,0.8260848,0.9748359,3.4816766,7.46211
330,1778428838300,-1.8188866,-1.7673898,0.8260848,0.9748359,3.4816766,7.46211
331,1778428838310,-1.8188866,-1.7673898,0.8260848,0.9748359,3.4816766,7.46211
332,1778428838320,-1.8188866,-1.7673898,0.8260848,0.9748359,3.4816766,7.46211
333,1778428838330,-1.8188866,-1.7673898,0.8260848,0.9748359,3.4816766,7.46211
334,1778428838340,-1.8188866,-1.7673898,0.8260848,0.9748359,3.4816766,7.46211
335,1778428838350,-1.8188866,-1.7673898,0.8260848,0.9748359,3.4816766,7.46211
336,1778428838360,-1.823521,-1.8568096599999997,0.9290298399999999,0.88186494,3.35254352,7.6621168
337,1778428838370,-1.7041848,-2.4309347,1.1863192,1.1513708,1.1646566,8.939826
338,1778428838380,-1.7258934,-2.4436486,1.180953,1.2057362,1.1139563,8.842091
339,1778428838390,-1.7258934,-2.4436486,1.180953,1.2057362,1.1139563,8.842091
340,1778428838400,-1.7293120499999999,-2.44004705,1.1758269499999998,1.21688415,1.12739495,8.815900875
341,1778428838410,-1.6522814000000001,-2.3130820333333335,1.1065788,1.4706657,2.2381952666666667,8.331957000000001
342,1778428838420,-1.5559711,-2.3013232875000003,1.1051255125,1.5216205,2.5342526,8.235443
343,1778428838430,-1.4061186,-2.257191355555556,1.0529306777777778,1.5691987666666667,2.9300817,8.037392622222223
344,1778428838440,-1.2978398666666666,-2.174130933333333,0.9958812666666668,1.5651943,3.3083997000000003,7.8064241999999995
345,1778428838450,-1.2072426250000001,-2.1031258,0.945138975,1.5578132249999999,3.48228745,7.684305625
346,1778428838460,-1.0760789666666666,-2.1244329666666664,0.8949099333333334,1.6150802000000002,3.5743218,7.516271766666667
347,1778428838470,-1.0440243,-2.0502417,0.82267,1.651731,3.560476,7.4046903
348,1778428838480,-0.96048624,-1.9308239888888887,0.7371873444444444,1.708811288888889,3.611922788888889,7.3158463
349,1778428838490,-0.7896649950000001,-1.80760545,0.663148445,1.7946692499999999,3.6611893875,7.2221236125
350,1778428838500,-0.6241963044444445,-1.7899824999999998,0.6504444455555556,1.8976988666666668,3.498984011111111,7.181527733333334
351,1778428838510,-0.35607259,-1.7249177,0.5614809175,2.0199191499999998,3.088291025,7.061852675
352,1778428838520,-0.07470710375,-1.7132363750000001,0.46135696125,2.0628313,2.54127735,6.727108275
353,1778428838530,0.28132358625,-1.6432246375,0.275549625,2.014574325,1.9424752250000001,6.14617335
354,1778428838540,0.6106149,-1.5103929,0.0690589,1.9742583,1.4077739,5.5317564
355,1778428838550,0.8197162499999999,-1.2411852375,-0.17708349875,1.6742274,1.1133454999999999,4.80920055
356,1778428838560,0.913224,-1.1101563,-0.18180938,1.4409124,1.1530505,4.5904408
357,1778428838570,1.2451336,-0.8378233,-0.07466899,1.026147,1.3808966,4.592884
358,1778428838580,2.1008123875,-1.0367754,0.04957606125,1.029888445,1.6991383875000001,4.60678095
359,1778428838590,3.11053215,-1.332318575,0.1099149425,1.253993,2.1231523,4.2605834
360,1778428838600,4.0606127999999995,-1.7812928000000001,0.18782599,1.3044897333333332,2.4159517333333334,3.398448833333333
361,1778428838610,4.999610866666667,-2.370422666666667,0.29871660666666666,1.182999,2.3089856444444443,2.764745722222222
362,1778428838620,5.62077942,-2.63143399,0.308191773,0.92425776,1.75125332,2.1001845
363,1778428838630,6.180919777777778,-2.4854365,0.21016470555555555,0.1694676711111111,0.5074529111111112,1.3122186999999998
364,1778428838640,6.410862,-2.3360205,0.1440023,-0.31649524,-0.1376697,0.94910395
365,1778428838650,6.575955325,-2.333947125,0.2682702275,-1.31742576,-1.2435132,0.03598272250000001
366,1778428838660,6.437865433333333,-2.4378761,0.5800135133333333,-2.337661511111111,-2.432699211111111,-1.353951411111111
367,1778428838670,5.873833525,-2.4672552750000003,0.9349402,-2.76668,-2.9458108,-2.480956
368,1778428838680,4.6632158,-2.578077222222222,1.4588621555555557,-2.8321085,-3.238881833333333,-4.760188577777778
369,1778428838690,4.1058493,-2.619848,1.6461021,-2.6524515,-3.2640624,-6.0129514
370,1778428838700,2.9452124666666664,-2.7076749222222225,1.9663376888888888,-1.9721712666666664,-3.313880466666667,-7.664224444444445
371,1778428838710,1.5566495624999999,-2.94281645,2.088982425,-1.3478154,-3.623087875,-8.970445
372,1778428838720,0.7940741177777777,-3.0705687000000004,2.025944688888889,-1.0278608111111112,-3.7918513,-9.701543666666666
373,1778428838730,-0.423736615,-3.2359282,1.9136406750000001,-0.7779903374999999,-3.8423724624999998,-10.378905374999999
374,1778428838740,-1.2610796666666666,-3.2791751333333337,1.8962489333333334,-0.6544973888888889,-3.6467241,-10.456458
375,1778428838750,-1.74008625,-3.32538845,1.932399325,-0.50517068,-3.5395544125,-10.047979625
376,1778428838760,-1.9291482875000001,-3.3612671,1.9466989125,-0.4130090925,-3.6318781875,-9.699796749999999
377,1778428838770,-2.082594411111111,-3.468982977777778,1.9237709,-0.4123303844444444,-3.9375638555555557,-9.422302111111112
378,1778428838780,-2.30124715,-3.594676125,1.87055885,-0.4572955325,-4.01072785,-9.54937575
379,1778428838790,-2.6806951,-3.699575666666666,1.7852971666666666,-0.35525010555555553,-3.622629711111111,-9.857972444444444
380,1778428838800,-3.0043370124999997,-3.6792164,1.692533875,-0.06306997375000001,-3.0432409875,-10.0022425
381,1778428838810,-3.165161925,-3.5687944375,1.5774586,0.45477579375,-2.4462905624999998,-9.892747875000001
382,1778428838820,-3.2336540444444446,-3.3093937222222225,1.335589477777778,0.8708560888888889,-2.109289566666667,-9.552548
383,1778428838830,-3.1733138,-2.9412844625,0.9979698300000001,1.272318525,-1.8320836875000002,-8.69365425
384,1778428838840,-2.9417417500000003,-2.6696985,0.73995933,1.2409361375,-1.8624732875,-7.791194249999999
385,1778428838850,-2.639605175,-2.5084314,0.6051191575,0.80776913,-2.2511248249999998,-6.5818029
386,1778428838860,-2.4316967,-2.45682,0.58936363,0.43667942,-2.5768592,-5.9555316
387,1778428838870,-2.05264265,-2.38140805,0.5995967050000001,-0.0358109175,-3.262707075,-5.27289075
388,1778428838880,-1.7611088750000001,-2.353643425,0.57112324,-0.43637401,-4.0950436,-4.7449087500000005
389,1778428838890,-1.5586046500000001,-2.307535475,0.49968616250000003,-0.713087825,-4.6405303,-4.5790636875
390,1778428838900,-1.4342537666666668,-2.2688857111111114,0.4497010488888889,-1.1769923333333334,-5.051274311111111,-4.646002455555555
391,1778428838910,-1.3744705,-2.2815967,0.45027018,-1.554759,-5.1681495,-4.8241663
392,1778428838920,-1.351675675,-2.3283066,0.501679435,-1.958910875,-5.057128075,-5.2919894875
393,1778428838930,-1.4249917,-2.3945909,0.6096392,-2.2883866,-4.7564387,-5.9201026
394,1778428838940,-1.6036263499999999,-2.4048659,0.6615172375,-2.448275775,-4.465904475,-6.4949097
395,1778428838950,-1.7767842875,-2.3429796875,0.6281349625,-2.5809824,-4.236149475,-6.8835612
396,1778428838960,-1.951581,-2.222839225,0.5750945375,-2.827230125,-3.9039726000000003,-7.1710411875
397,1778428838970,-2.1043833125,-2.044707625,0.5556612375,-3.089054575,-3.664167325,-7.2656463250000005
398,1778428838980,-2.180205155555556,-1.8915432777777776,0.5387881888888889,-3.3808528444444446,-3.4953698111111113,-7.254871877777778
399,1778428838990,-2.364230975,-1.6444786,0.5974586875,-3.8103411125,-3.4632749375,-7.17279755
400,1778428839000,-2.64955245,-1.400455175,0.800542175,-4.213242675,-3.477706175,-7.046810225
401,1778428839010,-2.854374,-1.2865994,1.0459757,-4.5559278,-3.5267267,-6.886463
402,1778428839020,-3.1875068,-1.3837621125,1.3485619875,-4.8605881,-3.8218327875,-6.7795648625
403,1778428839030,-3.7990515875,-1.383769725,1.6358690625,-5.3391868124999995,-4.1927028375,-6.6899992
404,1778428839040,-4.438226444444444,-1.1189134777777778,1.8753466111111112,-5.961555333333333,-4.306786911111111,-6.491312644444445
405,1778428839050,-5.390627,-0.8508576125,2.3735989,-6.536924825,-4.0023285,-6.029597150000001
406,1778428839060,-6.10817655,-0.65940585,2.944127475,-6.67699965,-3.4007395,-5.1911901
407,1778428839070,-6.7536295625000005,-0.4959626275,3.5241498250000003,-6.185973775000001,-2.8204344999999997,-3.848643075
408,1778428839080,-7.234507599999999,-0.36142352,4.0341077,-5.53084,-2.493784,-2.5713615
409,1778428839090,-7.316154625,-0.08628933375,4.40348125,-4.201770225,-2.189429325,-0.24225818750000003
410,1778428839100,-7.0469163125,0.100615625,4.4963715625,-3.0388124750000003,-1.7476339749999998,1.641804775
411,1778428839110,-6.683062611111111,0.05965117666666667,4.519962166666667,-1.9997781888888886,-1.2314171488888888,2.9919298444444444
412,1778428839120,-6.05233095,-0.308604125,4.4824338125,-0.6293253525000001,-0.7081246812499999,4.340451375
413,1778428839130,-5.491478775,-0.66375059,4.348111925,0.451492495,-0.5177693925,5.15547425
414,1778428839140,-4.72702875,-1.0469361125,3.965017775,1.5221646125000001,-0.57182939875,5.745715
415,1778428839150,-4.163733375,-1.2162142999999999,3.5055474249999996,2.6361878,-0.849535825,6.137869625
416,1778428839160,-3.574484425,-1.31083865,2.82795455,3.585062475,-1.0432507375,6.230642125
417,1778428839170,-3.1108522,-1.3410233,2.2288802,4.050528,-0.97819555,6.1096945
418,1778428839180,-3.0148214625,-1.3237890625,2.125158425,4.0691684,-0.84296923625,6.0065281
419,1778428839190,-2.23525625,-1.174325325,1.3097868125,4.18667075,0.280302535,5.161430225
420,1778428839200,-2.0563395,-1.1262852,1.1609215,4.1477294,0.81036526,4.792631
421,1778428839210,-2.0563395,-1.1262852,1.1609215,4.1477294,0.81036526,4.792631
422,1778428839220,-1.6896853111111112,-0.9317108222222222,0.9282146988888889,4.0268406,2.314135377777778,3.9403636
423,1778428839230,-1.5682317,-0.87953305,0.8846553,3.9976897000000005,2.849907825,3.71799825
424,1778428839240,-1.5682317,-0.87953305,0.8846553,3.9839458,3.1115031,3.6387408
425,1778428839250,-1.4136054777777778,-0.85039855,0.8052705388888889,3.8953729,3.1328828,3.6882193
426,1778428839260,-1.4157038125,-0.93947940625,0.77585698,3.6937933875,2.95275935,3.9540905625000002
427,1778428839270,-1.4510941444444445,-1.0469276111111112,0.7642620322222222,3.5410817,2.7859216,4.1946115
428,1778428839280,-1.4803913,-1.0974725,0.71677965,3.3902023,2.407807,4.6038795
429,1778428839290,-1.4968023,-1.1467132,0.6902384625,3.348970125,2.3294658999999998,4.728034125
430,1778428839300,-1.5460353,-1.2944353,0.6106149,3.2252736,2.0944426,5.100498
431,1778428839310,-1.5519706444444443,-1.4005288555555557,0.6199650277777777,2.8120693444444442,1.5141461444444444,5.993751933333333
432,1778428839320,-1.543901,-1.5726984750000002,0.6556861249999999,2.4980598,0.9238301125,6.682974375000001
433,1778428839330,-1.5360347,-1.661469,0.6811373,2.4128466,0.64116055,6.8854704
434,1778428839340,-1.5479599125,-1.76360895,0.730438925,2.3823806,0.26678753250000004,7.0378003499999995
435,1778428839350,-1.6285096,-1.8986778,0.7899851,2.400019,-0.23540527,7.147524
436,1778428839360,-1.6285096,-1.8986778,0.7899851,2.400019,-0.23540527,7.147524
437,1778428839370,-1.6672847375,-1.932753725,0.7954770375,2.3945213625,-0.36758688625,7.150196425
438,1778428839380,-2.2058028555555556,-2.2407203,0.7585944166666666,2.1927380000000003,-1.8047482333333333,7.058543866666667
439,1778428839390,-2.4643817,-2.1851883,0.67747855,2.067718,-1.8804933,7.0723896
440,1778428839400,-2.685118625,-2.071645325,0.6197617675,1.84262075,-1.450285025,7.217618525
441,1778428839410,-2.875846,-1.9301660374999998,0.6858746,1.597441975,-0.657424375,7.4561544375
442,1778428839420,-2.9749296,-1.8344973,0.8812404,1.563769,0.2538834,7.786469999999999
443,1778428839430,-2.8763378375,-1.749808675,1.045373475,1.8969861875,0.9827195875,8.167505
444,1778428839440,-2.7809245333333332,-1.6948144,1.2348891333333334,2.4201768333333336,1.6114658999999998,8.776119333333334
445,1778428839450,-2.7755582,-1.7200394,1.3564206,2.5973225,1.5410149,9.142628
446,1778428839460,-2.6327045333333334,-1.9269282222222222,1.4651396444444444,2.746912188888889,0.5296554955555556,10.031070333333334
447,1778428839470,-2.4709673,-2.244003,1.5550601,2.8819773,-0.82914877,10.8041315
448,1778428839480,-2.4709673,-2.244003,1.5550601,2.8819773,-0.82914877,10.8041315
449,1778428839490,-1.8436746428571429,-2.6217863285714285,1.4276746857142857,3.636133728571429,-3.1719989342857144,11.237015
450,1778428839500,-0.9945803333333332,-2.7918195333333333,1.1142316333333335,4.404285111111111,-4.732955022222223,11.103777444444445
451,1778428839510,-0.6037852,-2.79995,0.9363961,4.836154,-4.971457,10.544521
452,1778428839520,-0.6037852,-2.79995,0.9363961000000001,4.836154,-4.971457,10.544521
453,1778428839530,1.06995575,-2.56395295,0.067717365,6.1457438125,-3.02064927125,8.092437499999999
454,1778428839540,2.8158926444444443,-2.572765422222222,-0.7638995866666667,8.155234944444445,0.9869849566666667,4.785572533333333
455,1778428839550,3.6814344,-2.7565022,-1.0877159,9.079786,2.9991074,3.2044284
456,1778428839560,4.148951411111111,-2.8201747333333334,-1.5016966777777778,9.166407666666666,3.8114324888888893,2.054491462222222
457,1778428839570,4.811622,-2.9622462,-2.1302767,8.969834,5.002763,-0.08880192
458,1778428839580,4.61572655,-3.437571075,-2.39154195,7.150033625,3.8807124999999996,-0.79089451625
459,1778428839590,4.4149732,-3.713824233333334,-2.4830818666666667,4.979618244444445,1.9118501333333333,-0.5223677166666667
460,1778428839600,4.4050512,-3.6187932750000003,-2.656382175,2.66128975,-0.03321482500000003,0.2806270475
461,1778428839610,4.8619831125,-3.3825868875,-2.788908825,1.2936982,-0.9879691,0.7511894
462,1778428839620,5.2086883,-3.4315417,-2.7037857,-0.40975124444444444,-1.4943020444444446,0.4506355666666667
463,1778428839630,5.544371,-3.573882375,-2.5348049,-1.2246914500000001,-1.689145425,-0.525863125
464,1778428839640,5.434839255555556,-3.6452567777777776,-2.4809340333333334,-1.979569288888889,-1.670565411111111,-1.7201119555555555
465,1778428839650,4.9656253,-3.7051246,-2.3399231,-3.066606,-1.3496671,-3.2329092
466,1778428839660,3.5901687777777784,-3.7245023777777777,-1.5073203888888889,-4.7821451999999995,-0.45191666555555554,-5.497939088888889
467,1778428839670,2.5897412,-3.7269688555555556,-0.7746319591111112,-5.522084888888889,-0.22420639555555555,-6.391880466666667
468,1778428839680,0.9010992999999998,-3.710490844444444,0.47683677888888887,-6.743601,-0.7047650333333334,-7.504666
469,1778428839690,0.16602256666666668,-3.6978851333333336,0.990413508888889,-7.209185388888888,-1.3898472555555557,-7.768467166666667
470,1778428839700,-0.8746648666666667,-3.5215976666666666,1.5706912666666666,-7.538228388888888,-2.5151636777777777,-7.607865188888888
471,1778428839710,-1.6597119999999999,-3.1873468125,1.944438875,-7.76363945,-3.732897125,-7.003822062499999
472,1778428839720,-2.3104632888888887,-2.687155388888889,2.2755527777777775,-7.524857822222223,-4.756234933333333,-5.696787077777778
473,1778428839730,-2.54262925,-2.5225635625,2.2142299125,-6.791533449999999,-5.103399899999999,-4.5095801
474,1778428839740,-2.58884,-2.4592595,2.0690231,-6.206437,-5.0759115,-3.7674005
475,1778428839750,-2.432801122222222,-2.300188388888889,1.6527691888888887,-5.891104333333334,-4.000251933333334,-3.269017022222222
476,1778428839760,-2.194236325,-2.246388625,1.398694425,-5.7098181875,-2.73369405,-3.044615525
477,1778428839770,-1.937315825,-2.2662563749999998,1.3073895249999998,-5.5798608375,-1.244973539,-3.162127175
478,1778428839780,-1.6055036888888887,-2.2480140444444445,1.2967761777777778,-5.4837370000000005,0.16429246844444445,-3.5371789333333337
479,1778428839790,-1.34811985,-2.2268677500000003,1.3669166750000001,-5.489455325,0.7969266500000001,-3.941950025
480,1778428839800,-1.0774612333333333,-2.2135134,1.4418321333333335,-5.409281444444444,1.0872148666666666,-4.396301577777778
481,1778428839810,-0.90657350625,-2.215159825,1.4817633375,-5.2681756,1.147553,-4.8143926
482,1778428839820,-0.8545248055555555,-2.2239204,1.4733651666666665,-5.0365288,1.112666777777778,-5.333689266666667
483,1778428839830,-0.9026784625000001,-2.21586095,1.443376875,-4.62984025,1.1322054125,-6.0443335
484,1778428839840,-1.0167171000000002,-2.2272030875,1.4126967625,-4.287766,1.2385691,-6.537669
485,1778428839850,-1.1703392666666668,-2.222646611111111,1.3310769222222223,-3.521076266666667,1.626474211111111,-7.3554750222222225
486,1778428839860,-1.2468411,-2.205952,1.3107777,-3.114863,1.9771599,-7.799756
487,1778428839870,-1.3796460625,-2.204621825,1.2583127,-2.506306425,2.43285205,-8.386627
488,1778428839880,-1.4780232,-2.2259530333333335,1.1674359666666667,-1.7290540666666667,2.788568566666667,-9.026134
489,1778428839890,-1.567355125,-2.2169891125000003,1.0909744125,-1.2818439,2.808522925,-9.374367249999999
490,1778428839900,-1.6824458,-2.229368,1.0249988,-1.0605072,2.6692498,-9.580987
491,1778428839910,-1.6824458,-2.229368,1.0249988,-1.0605072,2.6692498,-9.580987
492,1778428839920,-1.893048775,-2.24817995,0.99552298125,-1.0772290875,1.4188263175,-9.700407125
493,1778428839930,-2.0304674,-2.2257566111111107,1.0246736,-1.1753465,0.64543647,-9.593204
494,1778428839940,-2.194095375,-2.13397365,1.0061448875,-1.1700778875,-0.023288550312499996,-9.235017500000001
495,1778428839950,-2.3063541,-2.0625391555555557,0.9695111977777778,-1.0995335333333334,-0.48564901,-8.751998444444446
496,1778428839960,-2.4023962000000005,-2.0202093,0.94273794,-1.0629506,-0.6837671399999999,-8.369065
497,1778428839970,-2.528799377777778,-1.8849033333333334,0.9434290322222222,-1.1414869,-0.8217507733333334,-8.003498744444444
498,1778428839980,-2.6997155250000002,-1.788686625,1.03836845,-1.2882769,-0.875725915,-7.445235525
499,1778428839990,-2.822807066666667,-1.6830114444444444,1.1489491,-1.2726748555555556,-0.9070657566666667,-7.168471
500,1778428840000,-3.0406081875,-1.5886597375,1.3418618375,-1.1808441,-0.93421453,-6.922503
501,1778428840010,-3.2118261875000003,-1.6155896875,1.49748065,-1.12319535,-1.04569419875,-6.77666325
502,1778428840020,-3.7139801333333335,-1.7635718,1.8069753555555554,-1.3069586,-1.940627811111111,-6.584771922222222
503,1778428840030,-4.55556315,-1.9756907000000001,2.1305053625,-2.1390343875,-3.252160425,-6.6651071375
504,1778428840040,-5.858106,-1.9425219999999999,2.4460065,-2.9595040666666663,-3.9191705333333338,-6.740877766666666
505,1778428840050,-7.3030479,-1.739812025,2.6932517750000002,-3.3582854749999997,-3.7410384499999996,-6.517052975
506,1778428840060,-7.984382222222223,-1.05865602,2.768125688888889,-3.163798566666667,-2.5336248,-5.778504755555556
507,1778428840070,-7.9943082,-0.012325404999999984,2.661214675,-2.33351285,-0.818201238875,-3.9027796125
508,1778428840080,-7.9944906,0.6901554666666667,2.451444011111111,-1.7980119444444445,0.04388767822222222,-2.1901844033333333
509,1778428840090,-7.9944906,1.0111794625,2.2717217125,-1.75114635,0.43148722125,1.1700397274999998
510,1778428840100,-7.9944906,0.785221145,2.415888075,-2.2367700125,0.036192699375,4.10673565
511,1778428840110,-7.903513144444444,0.3227762833333333,2.7148299333333332,-2.472794488888889,-0.51103312,6.6285754444444445
512,1778428840120,-6.6858096625000005,-0.26966893000000003,2.9638238625,-1.8825549125,-0.473559345,8.35397575
513,1778428840130,-5.8693366,-0.53323233,3.0071573,-1.2804886,-0.24640052,8.919057
514,1778428840140,-5.8693366,-0.53323233,3.0071573,-1.2804886,-0.24640052,8.919057
515,1778428840150,-3.968724311111111,-0.8552667144444445,2.496378822222222,0.6443590277777778,0.8743006055555554,8.889261277777779
516,1778428840160,-3.0466716,-0.9742337,2.0924697,1.7445798,1.764585,8.365553
517,1778428840170,-3.0466716,-0.9742337,2.0924697,1.7445798,1.764585,8.365553
518,1778428840180,-2.3642576625,-1.059795075,1.668435825,2.2450927999999997,2.2918225000000003,7.515712000000001
519,1778428840190,-1.7595844,-1.1155529,1.1616532,2.6079360625,2.678718,6.6156288
520,1778428840200,-1.6976219375000001,-1.108982425,1.07532955625,2.580524275,2.65764375,6.446729425
521,1778428840210,-1.567445822222222,-1.0834609444444443,0.9270968077777777,2.5039307666666666,2.4895250111111107,6.3642139888888885
522,1778428840220,-1.5357908,-1.0767397,0.88587487,2.403684,2.356496,6.463986
523,1778428840230,-1.5357908,-1.0767397,0.88587487,2.403684,2.356496,6.463986
524,1778428840240,-1.52173135,-1.2551304625,0.9670533637500001,2.19179625,2.1152113125,6.77131825
525,1778428840250,-1.4935628,-1.5081978,1.0784471,2.047025525,1.704263925,7.1588242625
526,1778428840260,-1.489578788888889,-1.5960822555555556,1.0862253444444443,2.091066066666667,1.4561835555555556,7.280484888888889
527,1778428840270,-1.4884405,-1.6211921,1.0884477,2.104369,1.3961678,7.306955
528,1778428840280,-1.517516125,-1.675737975,1.0833482749999999,2.1825574000000003,1.13350345875,7.394687875
529,1778428840290,-1.6468339,-1.8383999,0.9974057,2.4940894,0.22822781,7.69973
530,1778428840300,-1.6468339,-1.8383999,0.9974057000000001,2.4940894,0.22822781000000003,7.699729999999999
531,1778428840310,-1.6468339,-1.8383999,0.9974057,2.4940894,0.22822781,7.69973
532,1778428840320,-1.723035,-1.904024925,1.0240993875,2.6539786375,0.0691784536925,7.617570875
533,1778428840330,-1.8426143333333331,-1.9825343222222225,1.0475747555555557,2.8570004888888887,-0.04828238222222222,7.412699377777778
534,1778428840340,-2.063664625,-1.957187325,1.0490323,2.935121025,0.728664425,6.814306625
535,1778428840350,-2.1339355,-1.9482234,1.1028388,3.0065901,1.3393589,6.6008153
536,1778428840360,-2.1339355,-1.9482234,1.1028388,3.0065901,1.3393589,6.6008153
537,1778428840370,-2.1339355,-1.9482234,1.1028388,3.0065901,1.3393589,6.6008153
538,1778428840380,-2.1252053666666666,-1.9021230777777778,1.213363488888889,3.0061150888888886,2.4147215777777777,6.761875477777777
539,1778428840390,-2.0297222,-1.9045318,1.2309865,2.9277909,2.6112194,6.994812
540,1778428840400,-2.0153785444444443,-1.910226588888889,1.2298719333333332,2.9143522444444447,2.6000883999999997,7.020806933333333
541,1778428840410,-1.78739085,-1.9742805875,1.2378122875000002,2.6780306625,2.39986605,7.3516994375
542,1778428840420,-1.687429111111111,-1.9628075777777778,1.2666829777777777,2.6088606555555556,2.280140111111111,7.477449055555557
543,1778428840430,-1.604118,-1.974109,1.2888252,2.7964588,2.1767541,7.581683575
544,1778428840440,-1.604118,-1.9741089999999997,1.2888252,3.0566797,2.0828364,7.638034299999999
545,1778428840450,-1.604118,-1.974109,1.2888252,3.0566797,2.0828364,7.6380343
546,1778428840460,-1.604118,-1.974109,1.2888252,3.0566797,2.0828364,7.6380343
547,1778428840470,-1.604118,-1.974109,1.2888252,3.0566797,2.0828364,7.6380343
548,1778428840480,-0.05892765714285716,-1.9046016,0.3185377571428572,3.778613857142857,1.3787150285714287,7.231122628571429
549,1778428840490,0.7342603333333333,-1.8839615,0.19319217666666666,3.699766111111111,1.5239197111111111,6.890967877777778
550,1778428840500,1.3168756,-1.8740423,0.19839573,3.686463,1.8000141,6.454823
551,1778428840510,1.3168756,-1.8740423000000002,0.19839573,3.6864630000000003,1.8000141,6.454823
552,1778428840520,1.3168756,-1.8740423,0.19839573,3.686463,1.8000141,6.454823
553,1778428840530,3.3512246375,-2.2776061875,-0.10189618624999999,5.569676625,2.6009875875,3.802037425
554,1778428840540,4.9464092,-2.87371945,-0.8272052999999999,6.6507523125,2.3341237375,1.7518336125
555,1778428840550,5.320310466666666,-3.3007311333333336,-1.6897938666666668,5.143792133333333,1.4933433999999999,0.9582411666666667
556,1778428840560,5.507890175,-3.1328885,-2.2057614250000004,3.086907095,0.7486696475,0.27129254249999996
557,1778428840570,5.5547447,-2.7435746,-2.3669977,0.48493636000000007,0.44507857999999995,-0.30382016
558,1778428840580,5.52624475,-2.734969075,-1.4092361125,-1.7437302925,0.204252045,-0.9401702949999999
559,1778428840590,5.333451575,-2.6466865250000002,-0.64062427,-2.9928461125,-0.259610075,-1.573313525
560,1778428840600,5.0459854,-2.484951966666667,-0.1819923166666667,-3.397693666666667,-0.7023640444444444,-2.1577502
561,1778428840610,4.66970845,-2.336188125,0.2358598075,-4.26195775,-1.1723113,-3.31140285
562,1778428840620,4.256407,-2.249613,0.6923575,-4.758118,-1.5640744,-4.059996
563,1778428840630,3.2269489125,-2.12775365,1.5902985875,-5.010856625,-2.4643105875,-5.280698125
564,1778428840640,2.6094071777777774,-2.0765573777777777,2.014792377777778,-4.858569111111112,-2.982461666666667,-5.897704866666667
565,1778428840650,1.8964292999999999,-2.09787385,2.3383223749999997,-4.4212169999999995,-3.457719975,-6.55935405
566,1778428840660,1.00777605375,-2.1433339375,2.593482225,-3.67653695,-3.88399595,-7.41639185
567,1778428840670,-0.056385399999999995,-2.2139199333333335,2.6831343333333333,-2.8825373,-3.9896216666666664,-8.108233933333333
568,1778428840680,-0.81767732,-2.236083175,2.685972375,-2.178281325,-3.962642675,-8.55965
569,1778428840690,-1.2214433,-2.2737913,2.6486301,-1.7013624,-3.9598937,-8.704421
570,1778428840700,-1.6457125,-2.3830827777777777,2.3423588666666664,-1.2106992222222221,-4.082673944444444,-8.783559555555556
571,1778428840710,-1.8584163375,-2.4175495,2.0738482625,-0.9659022187499999,-4.1338326125,-8.853620125
572,1778428840720,-2.0382325249999997,-2.425206275,1.7367668,-1.0438615875,-3.808699625,-8.87377825
573,1778428840730,-2.100817,-2.483440955555556,1.5811288444444445,-1.2399096111111112,-3.312590888888889,-8.885367444444444
574,1778428840740,-2.1419847,-2.5049021,1.5416448,-1.3910519,-2.9158795,-8.877291
575,1778428840750,-2.129971875,-2.4782238,1.64303795,-1.45076225,-2.5373067999999996,-8.712056500000001
576,1778428840760,-2.086093988888889,-2.4400914888888887,1.7613832444444446,-1.3117605222222222,-2.3684245777777777,-8.409178222222222
577,1778428840770,-2.0440787625,-2.3881501125,1.8255333,-1.072800455,-2.5441024,-8.07517125
578,1778428840780,-1.9921826777777778,-2.2961704666666667,1.7870589777777777,-0.6870080377777777,-3.1533631333333334,-7.497844933333334
579,1778428840790,-1.9631025,-2.1942134,1.6397604,-0.38246673,-3.5890331,-7.0953727
580,1778428840800,-1.918823875,-2.070921075,1.4340166,-0.19600562,-4.145285825,-6.4840674499999995
581,1778428840810,-1.859796,-1.9513600125000001,1.2400037750000001,-0.181116215,-4.410011637499999,-6.1125957
582,1778428840820,-1.7872282333333334,-1.9070523777777777,1.094237288888889,-0.26240132222222223,-4.6512371111111115,-5.748929744444444
583,1778428840830,-1.7336378,-1.9058429000000001,0.9887162333333335,-0.42339350666666664,-4.787795466666667,-5.515110733333334
584,1778428840840,-1.6993064,-1.9250513,0.9371279,-0.54678464,-4.8053064,-5.441809
585,1778428840850,-1.62962255,-1.936088575,0.8938936125,-0.62963080875,-4.554629875,-5.5418353875
586,1778428840860,-1.5618899,-1.9421254,0.9017598599999999,-0.55106056,-4.219504,-5.686148
587,1778428840870,-1.55637505,-1.9747455999999999,0.98286599,-0.32519980000000004,-3.9985298625,-5.8855134625000005
588,1778428840880,-1.6550508499999999,-1.9659912,1.10369245,-0.009697199999999993,-4.04525955,-5.9451474
589,1778428840890,-1.785927375,-1.8938757000000002,1.0790492999999999,0.19478391750000001,-4.324264074999999,-5.79579525
590,1778428840900,-1.951678911111111,-1.7951318888888887,0.9570544844444444,0.21025872266666668,-4.978243766666667,-5.374819722222223
591,1778428840910,-2.0704868,-1.7051605,0.77730143,0.024968382,-5.493731,-5.001388
592,1778428840920,-2.2771247,-1.5715043,0.42310396666666666,-0.97412322,-5.787277077777778,-4.474014855555556
593,1778428840930,-2.3760533,-1.4291383,0.2628507,-1.6060702,-5.5725303,-4.3067784
594,1778428840940,-2.572660266666667,-1.1127783666666666,0.30309694666666664,-2.4740841000000002,-4.769130433333334,-4.224653733333334
595,1778428840950,-2.753243625,-0.8566086775,0.571332865,-3.04537905,-3.894819375,-4.249664425000001
596,1778428840960,-2.886083,-0.70650464,0.81584024,-3.322551,-3.2231355,-4.2634087
597,1778428840970,-3.1777090222222224,-0.5456280355555556,1.4623346666666668,-3.2417833333333332,-2.740023277777778,-4.152370211111111
598,1778428840980,-3.3373287,-0.42072576,1.8244967,-2.942604,-2.6672645,-4.0422816
599,1778428840990,-3.6531398,-0.19449306,2.0543883,-2.1173494,-2.854184,-4.0160155
600,1778428841000,-3.6531398,-0.19449306,2.0543883,-2.1173494,-2.854184,-4.0160155
601,1778428841010,-3.6531398,-0.19449306,2.0543883,-2.1173494,-2.854184,-4.0160155
602,1778428841020,-3.6531398,-0.19449306,2.0543883,-2.1173494,-2.854184,-4.0160155
603,1778428841030,-4.2301552749999995,-0.03455232208749999,1.9483493125,-2.0415184062500003,-2.4391037,-4.0432745
604,1778428841040,-7.05471815,0.9872375,1.9396178000000002,-2.967190475,-0.766231515,-3.513898775
605,1778428841050,-7.805333600000001,1.2634274,2.5493255,-3.5522294,-0.32092386,-2.625116
606,1778428841060,-7.8053336,1.2634274,2.5493255,-3.5522294,-0.32092386,-2.625116
607,1778428841070,-7.805333600000001,1.2634274,2.5493255,-3.5522294,-0.32092386,-2.625116
608,1778428841080,-7.8053336,1.2634274,2.5493255,-3.5522294,-0.32092386,-2.625116
609,1778428841090,-7.805333600000001,1.2634274,2.5493255,-3.5522294,-0.32092386,-2.625116
610,1778428841100,-5.134334133333333,0.0934709,2.0393364999999997,1.4891946666666667,2.414933733333333,5.424450766666667
611,1778428841110,-4.5359659,-0.0934963,1.7269604875,1.5135077,2.798749375,5.603378075
612,1778428841120,-3.7185402000000005,-0.2645581,1.3090702,1.3150778,2.9984965,5.6148314
613,1778428841130,-3.7185402000000005,-0.2645581,1.3090702,1.3150778,2.9984965,5.6148314
614,1778428841140,-3.7185402,-0.2645581,1.3090702,1.3150778,2.9984965,5.6148314
615,1778428841150,-3.7185402000000005,-0.2645581,1.3090702,1.3150778,2.9984965,5.6148314
616,1778428841160,-3.7185402,-0.2645581,1.3090702,1.3150778,2.9984965,5.6148314
617,1778428841170,-3.59273255,-0.2715707075,1.255256125,1.1982532575,3.0262900249999998,5.590702975
618,1778428841180,-2.2703992625000002,-0.523669985,1.0991189625,0.767071465,2.90167715,5.9363568125
619,1778428841190,-2.126408425,-0.61335514375,1.01079825,0.9803335,3.0663006,6.0938125
620,1778428841200,-2.1200323,-0.62159115,0.9974057000000001,0.9803335,3.0663006,6.0938125
621,1778428841210,-2.1200323,-0.62159115,0.9974057,0.9803335,3.0663006,6.0938125
622,1778428841220,-2.1200323,-0.62159115,0.9974057000000001,0.9803335,3.0663006,6.0938125
623,1778428841230,-2.1200323,-0.62159115,0.9974057,0.9803335,3.0663006,6.0938125
624,1778428841240,-2.1076399222222224,-1.1014667111111112,1.2906783000000002,1.0266221,3.3994838555555558,6.978387044444444
625,1778428841250,-2.1366872,-1.5165062,1.56098285,1.06951715,3.2507765,7.861146250000001
626,1778428841260,-2.146406,-1.618997,1.5955808,1.1281586,3.016211,8.154811
627,1778428841270,-2.146406,-1.618997,1.5955808,1.1281586,3.016211,8.154811
628,1778428841280,-2.146406,-1.618997,1.5955808,1.1281586,3.016211,8.154811
629,1778428841290,-2.146406,-1.618997,1.5955808,1.1281586,3.016211,8.154811
630,1778428841300,-2.017665066666667,-2.0266831777777776,1.586827,1.5934968666666665,1.9295138333333333,8.865709777777777
631,1778428841310,-1.975808775,-2.026878925,1.58051145,1.738165875,1.7928367,8.71656125
632,1778428841320,-1.8990945333333333,-2.0204634,1.569868,1.9029927666666664,1.8228190666666666,8.492863666666667
633,1778428841330,-1.8508702750000001,-2.036761325,1.5821655125,2.0243477875,1.9083631250000002,8.221393125
634,1778428841340,-1.8376140888888888,-1.9719883111111112,1.5861494555555558,2.2331217777777774,2.1435140666666666,7.718665911111111
635,1778428841350,-1.8323021,-1.9560287,1.5941174,2.3652005,2.317402,7.4407306
636,1778428841360,-1.8076663,-1.9421254,1.5853364,2.4739313,2.572736,7.166459999999999
637,1778428841370,-1.6800826999999998,-1.88282335,1.59430035,2.871593,3.1793073,6.75490195
638,1778428841380,-1.6020480444444445,-1.8827961888888889,1.5745702,3.0836247777777777,3.2999156333333333,6.684976600000001
639,1778428841390,-1.397223275,-1.896787425,1.4744611,3.39432545,3.233061775,6.62402775
640,1778428841400,-1.2363527,-1.9042877999999999,1.3622746,3.5478008,3.040645,6.591042
641,1778428841410,-1.0403198875,-1.8622161375,1.1726446874999998,3.6151466625,2.6028965,6.5685932625
642,1778428841420,-0.8931347555555555,-1.8440100111111113,0.9965452833333333,3.6247674999999995,2.540361,6.5653863
643,1778428841430,-0.7977904,-1.8342533,0.87733775,3.460449675,1.96179335,6.426571225
644,1778428841440,-0.3975308275,-1.7220936500000001,0.50105439375,3.132271925,1.523376775,6.15734025
645,1778428841450,0.33913564,-1.5880195,0.10810590166666666,2.7307587222222223,1.6827823555555554,5.576568933333333
646,1778428841460,1.0297018625,-1.573342525,0.026697440375000003,2.6109903125000002,2.094213375,4.8311144375
647,1778428841470,1.6102057888888888,-1.5576349111111112,-0.022203192999999996,2.7196955999999997,2.6126445,3.958213766666667
648,1778428841480,2.6840286125,-1.5394191,-0.124134530625,3.090887225,3.366531825,2.9238777000000002
649,1778428841490,3.6299848000000003,-1.7855716555555554,-0.22119516222222224,3.773067944444444,3.969404222222222,2.0602351666666667
650,1778428841500,4.08186925,-2.01746525,-0.35918255,4.030217675,3.7321240749999998,1.698460825
651,1778428841510,4.742044977777778,-2.296184133333333,-0.8762130266666667,3.2115633666666663,2.1383896777777776,1.5466483
652,1778428841520,4.9236181,-2.394137425,-1.1015085875000001,2.2194274949999997,1.0146173299999999,1.5323103
653,1778428841530,5.06817675,-2.52002495,-1.131148265,0.21110499499999996,-0.168670205,1.28491719
654,1778428841540,5.169387,-2.6972,-0.66406316,-1.79130965,-0.887484755,0.51477242
655,1778428841550,5.307698155555555,-2.2568322444444444,0.14103804666666667,-2.330399322222222,-1.0501483333333335,-0.4971194
656,1778428841560,5.30282455,-1.8794009,0.46454691249999996,-1.9209618750000002,-1.2313154000000002,-1.6084563
657,1778428841570,5.219908,-1.6751282,0.51030415,-1.6634898,-1.4993246,-2.297091
658,1778428841580,4.892655775000001,-1.624065725,0.5999892625,-1.831167375,-2.16087215,-3.08050275
659,1778428841590,4.538759387500001,-1.606130275,0.7378746125,-2.0519887125,-2.74560575,-3.698603875
660,1778428841600,3.6952459999999996,-1.6843800333333334,1.2160262666666666,-2.3540188000000004,-3.678836111111111,-4.601147611111111
661,1778428841610,2.74891045,-1.8510073,1.743687875,-2.23715175,-4.5201170625,-5.648733625
662,1778428841620,2.1834812,-1.9936223,2.023868,-2.0000665,-4.866391,-6.2481275
663,1778428841630,1.0511216533333334,-2.303911444444444,2.2004365555555556,-1.299933822222222,-5.061115533333333,-7.508339444444445
664,1778428841640,0.61183447,-2.394347,2.1907985,-1.0806651,-5.0594187,-8.015385
665,1778428841650,-0.44891168555555555,-2.515472111111111,2.029427366666667,-1.0678372999999999,-4.651372733333334,-9.168257666666667
666,1778428841660,-1.07608410625,-2.4935182625,1.9553580625,-1.11319275,-4.09470945,-9.7502675
667,1778428841670,-1.4886844,-2.4582837,1.9367595,-1.1032665,-3.6922662,-9.962155
668,1778428841680,-1.8052984333333333,-2.412268066666667,2.046606644444444,-0.9658258788888888,-3.310351011111111,-9.817384444444444
669,1778428841690,-2.0179645,-2.470727225,2.1545083375,-0.693235295,-3.056221625,-9.52692625
670,1778428841700,-2.0564005,-2.599351375,2.218033425,-0.3314609975,-3.1315085,-9.126058
671,1778428841710,-2.0829265,-2.7582097,2.263059,-0.12713258,-3.424715,-8.811319
672,1778428841720,-2.196879544444444,-2.974526588888889,2.1834811555555556,0.09501219722222222,-4.165536944444444,-8.260130888888888
673,1778428841730,-2.279508075,-2.9793888,2.056027025,0.23677966749999999,-4.466744074999999,-7.88922575
674,1778428841740,-2.37639245,-2.83027565,1.8063706875,0.42140827,-4.7613254,-7.332992
675,1778428841750,-2.404781233333333,-2.6158335333333333,1.5204410222222222,0.31532444666666665,-4.933787566666667,-6.507941333333333
676,1778428841760,-2.39244915,-2.3657248749999997,1.23773985,-0.020387024999999996,-5.000166525,-5.686453500000001
677,1778428841770,-2.3578167249999997,-2.2372569875,1.1338694,-0.47302485,-5.1131735,-4.837509750000001
678,1778428841780,-2.2129442,-2.0540629333333333,1.0292978466666667,-1.1102912666666667,-5.441062444444444,-3.7596630888888884
679,1778428841790,-2.086326025,-1.9657854375,0.975819085,-1.4344221,-5.6195655,-3.2628407
680,1778428841800,-1.89819,-1.9606631000000003,0.9442318999999999,-2.1161277,-5.970192,-2.5640314
681,1778428841810,-1.595066375,-1.9324604,0.9233503475,-2.880068475,-6.2431642499999995,-2.1111740625
682,1778428841820,-1.3432110124999999,-1.9225511875,0.9606886375,-3.2422244625000003,-6.287985375,-2.008389375
683,1778428841830,-1.1055320333333334,-1.9492092,1.0535573333333332,-3.7559130888888888,-6.007521777777778,-2.234860988888889
684,1778428841840,-1.0313407,-1.9872806,1.1257974,-3.8552098,-5.770445,-2.4962273
685,1778428841850,-0.9227976999999999,-2.0460340125,1.224099625,-3.8371134875,-5.465555999999999,-2.9756661125
686,1778428841860,-0.8093155375,-2.1136599625,1.303582175,-3.8099308,-5.3622464875,-3.489465075
687,1778428841870,-0.8376505666666667,-2.107582266666667,1.3034602333333334,-3.9264922444444443,-5.418121922222222,-3.780974933333334
688,1778428841880,-0.967526,-2.0503483,1.325115475,-4.373589975,-5.48701195,-4.4807175
689,1778428841890,-1.1340905,-1.9489552,1.3798366,-4.671378,-5.435701,-4.898079
690,1778428841900,-1.5306686,-1.6143625,1.5079539,-5.09103,-4.8596716,-5.5493183
691,1778428841910,-1.5306686,-1.6143625,1.5079539,-5.09103,-4.8596716,-5.5493183
692,1778428841920,-1.5306686,-1.6143625,1.5079539,-5.09103,-4.8596716,-5.5493183
693,1778428841930,-1.5306686,-1.6143625,1.5079539,-5.09103,-4.8596716,-5.5493183
694,1778428841940,-2.658101,-0.9405236512499999,2.2598689125,-3.4019897625,-3.553861575,-5.5907032375000005
695,1778428841950,-3.58386395,-0.4007779725,2.7523822874999997,-2.0623732,-2.833415,-5.4405875
696,1778428841960,-3.9206252,-0.26968038,2.6791503,-1.4008255,-3.3172061,-4.9525204
697,1778428841970,-3.9206252,-0.26968038,2.6791503,-1.4008255,-3.3172061,-4.9525204
698,1778428841980,-3.9206252,-0.26968038,2.6791503,-1.4008255,-3.3172061,-4.9525204
699,1778428841990,-3.9206252,-0.26968038,2.6791503,-1.4008255,-3.3172061,-4.9525204
700,1778428842000,-4.19798135,-0.16031423875,2.547911675,-1.5228422250000002,-3.0728671875,-4.932352925
701,1778428842010,-7.982972911111111,1.338167577777778,3.263249588888889,-4.850356,0.14881766,-3.160829
702,1778428842020,-7.994369,1.63547655,4.41480015,-4.687260175,0.537011075,-0.3705362000000001
703,1778428842030,-7.9944906,1.6473217,4.74549,-3.9450808000000004,0.6405497,1.6576867
704,1778428842040,-7.9944906,1.6473217,4.74549,-3.9450808,0.6405497,1.6576867
705,1778428842050,-7.9944906,1.6473217,4.74549,-3.9450808,0.6405497,1.6576867
706,1778428842060,-7.9944906,1.6473217,4.74549,-3.9450808000000004,0.6405497,1.6576867
707,1778428842070,-7.9944906,1.6473217,4.74549,-3.9450808,0.6405497,1.6576867
708,1778428842080,-4.2670668875,-0.27415470000000003,3.57265875,1.48852019375,0.53502585375,6.3178212875
709,1778428842090,-2.7117245625,-0.74228795625,2.6740393625000003,3.3311790500000003,1.1872103250000001,6.178309625
710,1778428842100,-2.4853585,-0.70674855,2.4182508,3.6919608,1.6900617,5.61361
711,1778428842110,-2.4853585,-0.70674855,2.4182508,3.6919608,1.6900617,5.61361
712,1778428842120,-2.4853585,-0.70674855,2.4182508,3.6919608,1.6900617,5.61361
713,1778428842130,-2.4853585,-0.70674855,2.4182508,3.6919608,1.6900617,5.61361
714,1778428842140,-2.289817325,-0.694365975,2.1282339,3.93227195,2.4106419375,4.971141875000001
715,1778428842150,-1.6848848,-0.6721124,1.0725931,4.5319524,4.9850483,2.773094
716,1778428842160,-1.7022943666666668,-0.6779968888888889,1.0491906555555555,4.363349933333334,5.088281422222222,2.8350016444444446
717,1778428842170,-1.8415709,-0.7250728,0.8619711,3.635152,5.437686,3.2203104
718,1778428842180,-1.8415709,-0.7250728,0.8619711,3.635152,5.437686,3.2203104
719,1778428842190,-1.8415709,-0.7250728,0.8619711,3.635152,5.437686,3.2203104
720,1778428842200,-1.8415709,-0.7250728,0.8619711,3.635152,5.437686,3.2203104
721,1778428842210,-1.8415708999999998,-0.7250728,0.8619711,3.635152,5.437686,3.2203104
722,1778428842220,-2.0420932125,-1.307385725,1.339716125,2.41750435,4.513273625,5.28189125
723,1778428842230,-2.165919,-1.6751282,1.6255826,1.683495,3.784657,6.7651334
724,1778428842240,-2.165919,-1.6751282,1.6255826,1.683495,3.784657,6.7651334
725,1778428842250,-2.155788825,-1.78916685,1.5782094,1.6463860375000001,3.5781142,7.222199925
726,1778428842260,-2.0907508249999998,-2.05833275,1.444809825,1.5180985375,3.235581475,8.08792325
727,1778428842270,-2.054035922222222,-2.1039677888888892,1.473219388888889,1.3144669666666668,3.2343514666666664,8.213655666666666
728,1778428842280,-2.049021925,-2.1522293125000003,1.603104275,1.15106535,3.0739361,8.263236
729,1778428842290,-2.0690231000000003,-2.1553493333333336,1.6905051666666668,1.120896288888889,2.887186466666667,8.286753555555556
730,1778428842300,-2.0675597,-2.157626,1.7246737,1.1232717,2.668639,8.295306
731,1778428842310,-2.0114815750000004,-2.14310525,1.706258175,1.18611265,2.690018675,8.179015999999999
732,1778428842320,-1.9307291111111111,-2.118270644444445,1.7018270222222223,1.3217970888888888,3.090870277777778,7.908639444444445
733,1778428842330,-1.8555503,-2.096555325,1.71357565,1.4012072,3.324689,7.78647
734,1778428842340,-1.747456222222222,-2.0950986333333335,1.7439499666666667,1.6870923,3.7885255444444446,7.535547377777778
735,1778428842350,-1.654875525,-2.0917303,1.769158075,1.92500885,3.9938721750000004,7.3481109375
736,1778428842360,-1.5863730666666667,-2.0837395333333335,1.7428253,2.111020377777778,3.9157175777777784,7.265892355555555
737,1778428842370,-1.4781540375,-2.0743283875,1.6751777625,2.3803191,3.5922400249999997,7.30970375
738,1778428842380,-1.21461355,-2.0286398,1.4410902,2.584036675,3.146779675,7.390030149999999
739,1778428842390,-0.9828965875,-1.996366525,1.2571427124999999,2.6814666750000002,2.83814915,7.4067522125
740,1778428842400,-0.6545402499999999,-1.9888254666666667,1.0644523666666668,2.769377866666667,2.663955866666667,7.146913
741,1778428842410,-0.24094395000000002,-1.974162525,0.8653249,2.893888825,2.8725093,6.6887778749999995
742,1778428842420,0.48898179999999997,-1.9412311999999998,0.6502208333333334,3.1725370666666666,3.819908,5.637484
743,1778428842430,1.1013753,-1.920417,0.5557031,3.49389365,4.988866075,4.3201409
744,1778428842440,2.070008944444444,-1.7656789555555557,0.31485576444444446,3.6804226,6.0627865,2.877336622222222
745,1778428842450,2.6344829,-1.5746042,0.21062206,3.7127297,6.869512,1.6662387
746,1778428842460,3.092741411111111,-1.2574989333333333,0.18821559333333332,3.529204011111111,7.233373333333333,0.60689374
747,1778428842470,3.712670675,-0.9030862375,0.23415238,2.9505450499999997,6.618052575,-0.166837665
748,1778428842480,3.999669325,-0.851162495,0.3609433125,2.474007825,5.242128687499999,-0.0694075225
749,1778428842490,4.107810777777778,-1.0751508233333333,0.3871736855555556,1.936911888888889,3.566448577777778,0.49898586222222224
750,1778428842500,4.178811,-1.5394496,0.40462726,1.2375002,1.9240161000000002,1.2349805
751,1778428842510,4.5264646625000005,-1.9326738,0.41691456625,0.3809396325,0.56458512625,1.6514255875000001
752,1778428842520,5.13754055,-1.933779025,0.4288436075,-0.42889112,-0.53227705,1.6161492
753,1778428842530,5.4247947666666665,-1.7453524555555555,0.455013,-0.9788063866666666,-1.3986026222222223,0.8628217111111112
754,1778428842540,5.4222216,-1.4758787249999998,0.4506284475,-1.326149425,-2.3025886,-0.4134672625
755,1778428842550,5.0280982000000005,-1.30205765,0.4345833,-1.536586275,-2.7550737125,-1.5463694625
756,1778428842560,4.6957006,-1.289069,0.5061576,-1.8326945,-2.8822827,-2.5304348
757,1778428842570,4.284434275000001,-1.36007165,0.71390598,-2.056722875,-2.98169805,-3.4192175
758,1778428842580,3.323313766666667,-1.5199870444444443,1.2185264044444444,-2.2792238222222228,-3.340621888888889,-5.026288955555556
759,1778428842590,2.67207665,-1.65311475,1.5770966,-2.25081945,-3.7248129999999997,-6.082129849999999
760,1778428842600,1.8681807875,-1.94166435,1.9566233,-1.983420975,-4.179951375,-7.033390675
761,1778428842610,1.1821827333333335,-2.1697710888888886,2.0981068555555553,-1.4249030555555557,-4.482711222222222,-7.9336674
762,1778428842620,0.45539245,-2.4070308,2.1144223,-0.7673005,-4.578682,-8.720914
763,1778428842630,-0.24660738225,-2.6238725,1.9812817999999999,-0.19738002,-4.37435345,-9.42583125
764,1778428842640,-0.91932195,-2.868391375,1.8100294250000002,0.2227301825,-3.9916385749999996,-10.019421999999999
765,1778428842650,-1.3257955444444445,-3.0146745444444445,1.6936829,0.4251412133333334,-3.6649817666666666,-10.226380666666666
766,1778428842660,-1.5953980250000002,-3.12429805,1.608874375,0.48669256875000005,-3.4702995125,-10.209777
767,1778428842670,-1.7763880250000001,-3.3195570875000002,1.5740209625000001,0.278088208,-3.4566320125,-10.126473
768,1778428842680,-1.8581573,-3.3693123,1.5682317,0.104989371,-3.378061875,-10.0869975
769,1778428842690,-2.0748837555555557,-3.305341955555556,1.7201816777777779,0.10417491333333334,-3.197276422222222,-9.953806888888888
770,1778428842700,-2.209221825,-3.1980142625,1.8402027375,0.3029039,-3.0979118,-9.66223
771,1778428842710,-2.2750108,-3.0632885,1.866481,0.6663579875000001,-3.17968895,-9.2100496875
772,1778428842720,-2.3634305333333336,-2.8280817000000003,1.6844986333333332,1.0532957666666667,-3.6614693999999997,-8.208464222222222
773,1778428842730,-2.3739151625,-2.695667925,1.5373343625,1.0095014599999999,-4.275396300000001,-7.26350825
774,1778428842740,-2.3470273375,-2.5254711125,1.3489772875,0.73393301,-4.893268300000001,-6.432450875
775,1778428842750,-2.3233368,-2.3772728,1.2934595,0.2833568,-5.5560374,-5.601851
776,1778428842760,-2.19581795,-2.0105823875,1.226096725,-0.7065211812500001,-6.6160389749999995,-4.3179265
777,1778428842770,-2.1451862,-1.9331007,1.2102231,-1.0806651,-6.9054756,-3.929275
778,1778428842780,-2.0095684333333335,-1.8554945333333335,1.1353812333333333,-1.653580511111111,-6.999613833333333,-3.4891935111111114
779,1778428842790,-1.9301735,-1.8203502,1.0969847,-1.9182131,-6.869436,-3.3343098
780,1778428842800,-1.7983673,-1.8296189,1.045244,-2.134453,-6.4277167,-3.2707818
781,1778428842810,-1.5721547333333334,-1.7782575555555553,0.9628509066666666,-2.3392904666666663,-5.7111928333333335,-3.3985844222222226
782,1778428842820,-1.42291075,-1.750132625,0.9463661875,-2.4866826874999997,-5.3304055875000005,-3.6313342375
783,1778428842830,-1.419473111111111,-1.7189587666666668,0.9949259277777779,-2.7184229999999996,-4.9380638,-4.108253133333333
784,1778428842840,-1.4709971333333334,-1.6676684000000002,1.0878209333333335,-2.827968311111111,-4.604677044444445,-4.4649878888888885
785,1778428842850,-1.5526211,-1.6253387,1.2317183,-2.8051634,-4.2873077,-4.7471995
786,1778428842860,-1.6827744,-1.5267591222222223,1.3402069111111112,-2.535304466666667,-3.985413477777778,-5.033415411111111
787,1778428842870,-1.8322613,-1.3649442333333335,1.3489642777777777,-2.1125303333333334,-3.588150622222222,-5.308780500000001
788,1778428842880,-2.091974175,-1.09504865,1.3391406250000002,-1.636765225,-2.936266475,-5.6626306500000005
789,1778428842890,-2.2574184,-1.0232915,1.3891054,-1.4496932,-2.5957954,-5.8400817
790,1778428842900,-2.47089105,-0.8612011500000001,1.453629075,-1.2163496,-2.3453481,-5.88956
791,1778428842910,-2.772394022222222,-0.7086558111111111,1.5948187111111112,-1.0774157555555555,-2.339103855555555,-5.8645834
792,1778428842920,-3.2427044499999997,-0.46662783249999995,1.898563575,-1.0716551749999998,-2.627101275,-5.7739574000000005
793,1778428842930,-3.935389,-0.17904838777777776,2.3468375999999997,-1.1192164999999998,-3.1194272666666665,-5.6972112444444445
794,1778428842940,-4.889069375,0.24612716875,2.913375,-1.1441933,-3.5358894,-5.6439996
795,1778428842950,-5.896529622222221,0.5117575,3.4629831555555555,-0.43818961111111115,-3.3826345555555557,-5.552779711111111
796,1778428842960,-6.639628266666667,0.6062752333333333,3.6523438,1.1998567,-2.2443291333333333,-5.584340133333333
797,1778428842970,-7.491585400000001,0.6728238200000001,3.2988612,2.648972988888889,-0.6585188,-5.611624600000001
798,1778428842980,-7.8626842,0.82462126,2.9090416,3.7768686,0.9606337,-5.4961743
799,1778428842990,-7.8626842,0.82462126,2.9090416,3.7768685999999994,0.9606337000000001,-5.4961743
800,1778428843000,-7.8626842,0.82462126,2.9090416,3.7768686,0.9606337,-5.4961743
801,1778428843010,-7.8626842,0.82462126,2.9090416,3.7768686,0.9606337,-5.4961743
802,1778428843020,-7.8626842,0.82462126,2.9090416,3.7768685999999994,0.9606337000000001,-5.4961743
803,1778428843030,-6.890721875,-1.029137825,1.683924375,1.0870122125000001,4.0140396375,3.6800398000000003
804,1778428843040,-5.7704358,-1.356534925,1.725405475,0.8923715000000001,4.7294085,5.193499774999999
805,1778428843050,-4.7811327,-1.5106369,1.5555481,1.0004915,5.3350635,5.7235622
806,1778428843060,-4.7811327,-1.5106369,1.5555481,1.0004915,5.3350635,5.7235622
807,1778428843070,-4.7811327,-1.5106369,1.5555481,1.0004915,5.3350635,5.7235622
808,1778428843080,-4.7811327,-1.5106369,1.5555481,1.0004915,5.3350635,5.7235622
809,1778428843090,-4.148860022222221,-1.5010123666666666,1.4593128000000002,0.5255238033333334,5.55849788888889,5.820915988888888
810,1778428843100,-2.3599739125,-1.5059758625,1.2857533875,-0.8880955625,5.899792,6.164364875
811,1778428843110,-2.2542474,-1.5723783,1.358372,-0.89863265,5.761435,6.3522005
812,1778428843120,-2.1549800888888893,-1.6266836777777778,1.368047322222222,-0.8421632722222222,5.367235,6.830018722222222
813,1778428843130,-2.126618,-1.6421995,1.3708117,-0.8351046,5.31796,6.889746
814,1778428843140,-2.126618,-1.6421995,1.3708117,-0.8351046,5.31796,6.889746
815,1778428843150,-2.126618,-1.6421995,1.3708117,-0.8351046,5.31796,6.889746
816,1778428843160,-2.105353685714286,-1.6578188571428571,1.3720312857142858,-0.8682648714285713,5.247188957142858,6.993677285714285
817,1778428843170,-1.8676326222222224,-2.1000005444444443,1.7589847888888888,-0.9790608900000001,4.046303,8.456187666666668
818,1778428843180,-1.8435221375,-2.1646728875,1.824954,-0.76722417375,3.7352546500000003,8.598133125
819,1778428843190,-1.8076663,-2.2566864,1.8435222,-0.5186857,3.4193702,8.673496
820,1778428843200,-1.8076663,-2.2566864,1.8435222,-0.5186857,3.4193702,8.673496
821,1778428843210,-1.8076663,-2.2566864,1.8435222,-0.5186857,3.4193702,8.673496
822,1778428843220,-1.8076663,-2.2566864,1.8435222,-0.5186857,3.4193702,8.673496
823,1778428843230,-1.8212075625,-2.2880525875,1.8008482125,-0.295421025,3.368440825,8.61324175
824,1778428843240,-1.8454812,-2.3590401375,1.5928672625,0.622682425,3.635762825,8.17069275
825,1778428843250,-1.777504625,-2.315577275,1.5819139249999998,0.6614712375,3.8082509625,8.07685105
826,1778428843260,-1.7200394,-2.24693,1.5614021,0.6828509,3.9092698,7.9972123999999996
827,1778428843270,-1.7200394,-2.24693,1.5614021,0.6828509,3.9092698,7.9972124
828,1778428843280,-1.7200394,-2.24693,1.5614021,0.6828509,3.9092698,7.9972123999999996
829,1778428843290,-1.7200394,-2.24693,1.5614021,0.6828509,3.9092698,7.9972124
830,1778428843300,-1.7200394,-2.24693,1.5614021,0.6828509,3.9092698,7.9972124
831,1778428843310,-1.7200394,-2.24693,1.5614021,0.6828509,3.9092698,7.9972123999999996
832,1778428843320,-1.7200394000000003,-2.24693,1.5614021,0.70142066,3.9337037,7.986339320000001
833,1778428843330,-0.7030898,-1.8611147,1.4084053,2.2662432,4.7150536,6.8097253
834,1778428843340,-0.6132457142857143,-1.8182985999999999,1.3023799714285715,2.293033285714286,4.616172757142857,6.616523
835,1778428843350,-0.21477542111111111,-1.6215614,0.8463942666666666,2.2484609888888887,4.135351166666666,5.814095144444445
836,1778428843360,-0.03586591777777778,-1.5383824555555554,0.6934042777777778,2.0107056111111112,3.894066533333333,5.573972899999999
837,1778428843370,0.3738594625,-1.3328902375,0.5260063,1.3656826499999999,3.31903865,5.109813675
838,1778428843380,0.6280625424999999,-1.2043157,0.5364184750000001,0.9300913375,3.0062849125,4.76285265
839,1778428843390,0.9592861275,-1.092533275,0.645693175,0.62268245,2.886253275,4.290973125
840,1778428843400,1.2765074666666667,-1.0721053111111112,0.7698518222222223,0.6609282777777777,3.028835288888889,3.930590088888889
841,1778428843410,1.798443375,-1.0853873,0.8694829125,1.0350043,3.4743463500000002,3.2752484500000003
842,1778428843420,2.5043330333333333,-1.1072394333333333,0.9231534666666666,1.3660665222222221,3.7253367666666666,2.8981818111111113
843,1778428843430,3.2583913,-1.3222570249999999,0.94556585,1.8236845124999999,3.63606825,2.6082414625
844,1778428843440,3.7800379,-1.598264,0.9342008,1.8754537875,2.3321861375,2.49294405
845,1778428843450,4.416619488888888,-1.967845111111111,0.8033666544444444,1.613917811111111,1.2260128482222221,2.4153409666666668
846,1778428843460,4.681739944444444,-2.1852831999999998,0.6305415511111111,0.620748088,-0.6157934477777778,1.9817752333333334
847,1778428843470,4.753166666666667,-2.1693847222222225,0.5133124600000001,-0.22018498211111112,-1.4809313333333334,1.439953688888889
848,1778428843480,4.811572375,-1.883520825,0.5048465125,-0.9265025625,-1.5268127125,0.5175117025
849,1778428843490,4.8660458888888884,-1.7678369666666667,0.5331510111111111,-0.9788572555555556,-1.451678588888889,0.021557824444444453
850,1778428843500,4.8677535,-1.6763479,0.5388424,-0.9120713000000001,-1.4614521,-0.9525399000000001
851,1778428843510,4.570304222222222,-1.6594633111111112,0.6297996333333333,-1.2283119999999998,-1.9075742,-2.2388060666666667
852,1778428843520,4.382116,-1.6648837,0.7001628,-1.4564126,-2.2451692,-2.912825
853,1778428843530,3.6755804666666663,-1.6221678000000002,0.9565091000000001,-1.8137581666666667,-2.8564236333333337,-4.016626133333333
854,1778428843540,2.9492956,-1.646025925,1.2581298,-1.9731893249999999,-3.41394895,-5.0226438125
855,1778428843550,2.392490544444444,-1.7172784666666667,1.4878002,-1.8844807222222224,-3.8211041000000003,-5.689813055555555
856,1778428843560,1.4743810625,-1.830617575,1.703811375,-1.6477605,-4.336481,-6.568211499999999
857,1778428843570,0.87924338,-1.967012725,1.778556575,-1.437151775,-4.637475875,-7.35347475
858,1778428843580,0.15344644000000002,-2.17287835,1.8094883,-1.17511735,-4.7601798375,-8.102125874999999
859,1778428843590,-0.4059383133333333,-2.2869525,1.7986212999999998,-0.9605318555555556,-4.6516442,-8.686706
860,1778428843600,-0.87542071,-2.3741095375,1.8071482125,-0.771423725,-4.4178002375,-9.217608375000001
861,1778428843610,-1.4640386,-2.4579686333333335,1.8096889,-0.36678831,-4.0120194,-9.650012333333333
862,1778428843620,-1.7627552,-2.4988043,1.7912935,-0.14973393,-3.8536062,-9.726979
863,1778428843630,-1.9378061555555557,-2.5266108444444444,1.6914334,0.07166425888888889,-3.6938273555555554,-9.708313888888888
864,1778428843640,-2.05628995,-2.540026275,1.572122975,0.29740625625,-3.37302225,-9.516389499999999
865,1778428843650,-2.1305070777777777,-2.567954688888889,1.5707387,0.38964419,-3.2964373333333334,-9.315675333333335
866,1778428843660,-2.212956825,-2.596828325,1.5733769,0.42163731125000004,-3.330186625,-9.1684355
867,1778428843670,-2.349988375,-2.5827726374999997,1.551733075,0.4660001,-3.361187,-8.92738
868,1778428843680,-2.474216177777778,-2.442557811111111,1.4454027666666667,0.5309535244444444,-3.3756437444444445,-8.48268322222222
869,1778428843690,-2.5319464750000003,-2.292077325,1.3453452625,0.5601469225,-3.44556035,-7.927794875
870,1778428843700,-2.526847,-2.11802755,1.21365315,0.48799059250000004,-3.707862,-7.09338725
871,1778428843710,-2.454186625,-1.9687505875,1.1130718125,0.33291176125,-4.14956175,-6.1429852625
872,1778428843720,-2.400201,-1.8984339,1.0625925,0.22410458,-4.474838,-5.5798607
873,1778428843730,-2.267601766666667,-1.8460426666666667,0.93266622,-0.05993939333333334,-5.049645233333333,-4.680031766666667
874,1778428843740,-2.0474936,-1.776811,0.70634838125,-0.47791163000000003,-5.650566125,-3.6554627749999997
875,1778428843750,-1.867685125,-1.7259619875,0.54811887,-0.8693310750000001,-5.711498300000001,-3.2495548
876,1778428843760,-1.7107027555555556,-1.6580473444444443,0.44833915,-1.3509396,-5.512260133333333,-3.0954685333333334
877,1778428843770,-1.560197725,-1.558429375,0.3796181875,-1.6863966000000001,-5.263899975,-3.1140229125
878,1778428843780,-1.4312623,-1.4568025333333334,0.36566159,-2.1443622666666666,-4.678793000000001,-3.3378391
879,1778428843790,-1.355071375,-1.4225449,0.434529925,-2.35344175,-4.266233425,-3.58414625
880,1778428843800,-1.3120583000000001,-1.39880875,0.5770001275,-2.4620199,-3.7057621000000003,-4.00593635
881,1778428843810,-1.3005332,-1.4045026,0.66723406,-2.378181,-3.3520243,-4.3037243
882,1778428843820,-1.3274059875,-1.3699351,0.74315309375,-2.090624675,-2.8850316,-4.814869975000001
883,1778428843830,-1.3571523,-1.3139486,0.7375125,-1.922489,-2.7100239,-5.111341
884,1778428843840,-1.3571523,-1.3139486,0.7375125,-1.922489,-2.7100239,-5.111341
885,1778428843850,-1.3571523,-1.3139486,0.7375125,-1.922489,-2.7100239,-5.111341
886,1778428843860,-1.3571523,-1.3139486,0.7375125,-1.922489,-2.7100239,-5.111341
887,1778428843870,-1.653175675,-1.1859419,0.85685255,-2.0766516125,-2.830284425,-5.5573357875000005
888,1778428843880,-2.539873833333333,-0.8325993833333334,1.2536706666666668,-2.6105068,-3.1097216,-6.8992906666666665
889,1778428843890,-2.7923887,-0.73043895,1.3878858,-2.595032,-3.0123932,-7.182724
890,1778428843900,-2.7923887,-0.73043895,1.3878858,-2.595032,-3.0123932,-7.182724
891,1778428843910,-2.7923887,-0.73043895,1.3878858,-2.595032,-3.0123932,-7.182724
892,1778428843920,-2.7923887,-0.73043895,1.3878858,-2.595032,-3.0123932,-7.182724000000001
893,1778428843930,-4.0784203125,-0.70764799625,2.119963575,-1.909260445,-2.8173802125,-7.3114695
894,1778428843940,-7.2062135,-0.68333256,3.8000388,0.01641652,-2.473015,-7.301839
895,1778428843950,-7.801383822222222,-0.43071957555555557,3.593990066666666,1.5383763911111112,-1.6834525555555555,-6.215200966666667
896,1778428843960,-7.9942474,-0.17278448,3.0906072,3.079281,-0.5835882,-4.7783527
897,1778428843970,-7.9942474,-0.17278448,3.0906072,3.079281,-0.5835882,-4.7783527
898,1778428843980,-7.9942474,-0.17278448,3.0906072,3.079281,-0.5835882,-4.7783527
899,1778428843990,-7.9942474,-0.17278448,3.0906072,3.079281,-0.5835882,-4.7783527
900,1778428844000,-7.76438625,-0.257591255,2.7097122625,2.94153495,-0.16705720000000002,-3.561898075
901,1778428844010,-6.079053666666667,-0.9121162333333334,0.6813202500000001,1.9120792,2.795695044444445,5.032830155555555
902,1778428844020,-5.227492375000001,-0.9658262,0.5880907049999999,1.390212,3.171977,5.669197
903,1778428844030,-4.4982805,-1.0071929,0.61427367,1.390212,3.171977,5.669197
904,1778428844040,-4.4982805,-1.0071929,0.61427367,1.390212,3.171977,5.669197
905,1778428844050,-4.4982805,-1.0071929,0.61427367,1.390212,3.171977,5.669197
906,1778428844060,-4.4982805,-1.0071929,0.61427367,1.390212,3.171977,5.669197
907,1778428844070,-3.268627014285714,-1.2732014428571428,0.9009890014285714,0.25386158571428574,3.357500057142857,7.305460428571428
908,1778428844080,-2.084473725,-1.5420793,1.113959825,-0.55503107,3.0114769249999997,8.762068874999999
909,1778428844090,-1.8774570000000002,-1.59241,1.0974725,-0.46248773000000004,2.5959482,8.8866825
910,1778428844100,-1.877457,-1.59241,1.0974725,-0.46248773,2.5959482,8.8866825
911,1778428844110,-1.877457,-1.59241,1.0974725,-0.46248773,2.5959482,8.8866825
912,1778428844120,-1.877457,-1.59241,1.0974725,-0.46248773,2.5959482,8.8866825
913,1778428844130,-1.877457,-1.59241,1.0974725,-0.46248773,2.5959482,8.8866825
914,1778428844140,-1.6782838375,-1.6157726125,1.0475992062500001,-0.036650841875000006,2.203545625,8.503652624999999
915,1778428844150,-1.4736428666666666,-1.6797727666666669,1.0890168,0.6150468266666667,2.0331542666666667,7.7828049
916,1778428844160,-1.489904,-1.7017457,1.178026,0.7592068,2.1243742,7.6154327
917,1778428844170,-1.489904,-1.7017457,1.178026,0.7592068,2.1243742,7.615432700000001
918,1778428844180,-1.489904,-1.7017457,1.178026,0.7592068,2.1243742,7.6154327
919,1778428844190,-1.791674625,-1.74329925,1.3407336250000002,1.6320216374999998,1.8237608375,7.1492799125
920,1778428844200,-1.9620521777777777,-1.7673084555555556,1.3331096,1.9451413,1.915057,7.019856866666666
921,1778428844210,-2.02783945,-1.787886325,1.3198026250000001,2.053668475,2.1675914250000003,7.0027532
922,1778428844220,-2.0572339,-1.8728024,1.3358198333333333,2.2130995555555555,2.530587522222222,7.002210111111111
923,1778428844230,-2.0844547249999996,-1.9090748,1.3164754375,2.3072464375,2.7062823875,7.0305465
924,1778428844240,-2.094908675,-1.89941715,1.277391575,2.37543215,2.9682596,7.249077
925,1778428844250,-2.085548466666667,-1.9527867333333333,1.2795258333333335,2.298278766666667,3.0001933111111114,7.5546876
926,1778428844260,-2.037489125,-1.9827682,1.2642200625,2.140103325,2.9100763,7.87687515
927,1778428844270,-1.9574888666666668,-2.008342133333333,1.2546192333333333,2.0247550444444444,2.7360356666666665,8.226161
928,1778428844280,-1.895019,-2.0831704,1.2700131,1.9449377,2.5293658,8.525061
929,1778428844290,-1.7019781375,-2.14056305,1.2952432374999998,1.9224890625,1.9681308125,8.941276562499999
930,1778428844300,-1.5112229666666666,-2.259593277777778,1.3278688222222224,1.9867467555555554,1.0194107266666665,9.334297666666666
931,1778428844310,-1.3862851125,-2.2828124375,1.2299649874999998,2.0851270375,0.06528430499999999,9.57373275
932,1778428844320,-1.1842120333333335,-2.2228025444444444,1.0044352666666667,2.1886657666666665,-1.0018404333333333,9.735555999999999
933,1778428844330,-1.0547566,-2.1742122,0.85562915,2.2289817,-1.5048223,9.753474
934,1778428844340,-0.6072419687499999,-2.099874725,0.6043607125,2.2438710375,-1.9375311874999999,9.3923105
935,1778428844350,-0.2268695822222222,-2.0225197777777777,0.49395496666666666,2.3035728888888887,-1.958953333333333,8.801349866666666
936,1778428844360,0.46016575666666665,-2.0533922,0.41041014666666664,2.5967117222222225,-1.5429493333333333,7.6562239777777785
937,1778428844370,1.306371975,-2.1208860499999997,0.19059801499999998,3.1499867000000004,-0.7479061275,6.107079075
938,1778428844380,2.00331805,-2.08440505,-0.2333063025,3.6424823,0.17752749,4.6680183
939,1778428844390,2.3745050444444447,-1.9532947999999999,-0.6628774411111111,4.231754555555556,2.202766177777778,2.4427611377777776
940,1778428844400,2.60388675,-1.75240785,-0.88733456,4.502554925,4.194468875,0.7291893775
941,1778428844410,2.8804559888888885,-1.6307455444444445,-0.8751764088888889,4.687650311111111,5.475694333333333,-0.33124040222222223
942,1778428844420,3.2565884875,-1.8330604375,-0.9835062937500001,4.814316375,5.2648925125,-0.4344650875
943,1778428844430,3.55630485,-2.11838575,-1.2117399,4.612879712500001,4.479944175,-0.10284186249999999
944,1778428844440,3.9736059444444445,-2.4969852,-1.5985010777777777,3.5381630555555557,2.812663166666667,0.5864642777777778
945,1778428844450,4.341839,-2.6759794,-1.9265147,2.2986183,1.644859,1.0382876
946,1778428844460,4.9131489375,-2.7134701375,-1.9415118875000001,0.25533416249999996,0.54740505625,1.214211625
947,1778428844470,5.4056887499999995,-2.7105621749999997,-1.666232875,-1.89041955,-0.4211028125,0.8340928325
948,1778428844480,5.602095,-2.6989177333333334,-1.1473433333333334,-3.0144802333333334,-0.6885181666666667,-0.0680331211111111
949,1778428844490,5.4989945,-2.6446132249999996,-0.52341467085,-3.84246775,-0.58335915125,-1.4687917750000001
950,1778428844500,5.242379,-2.6603687,0.0031709166,-4.210799,-0.38933876,-2.833415
951,1778428844510,4.678352177777778,-2.665460377777778,0.5581524462888889,-4.122964566666666,-0.35906790222222223,-4.072764788888889
952,1778428844520,3.340572125,-2.6396052625,1.3817041125,-3.4861816125,-0.625125825,-6.1740624
953,1778428844530,2.78873,-2.6310682,1.6268023,-3.1612873,-0.8236512,-6.8131614
954,1778428844540,1.7881599888888888,-2.769856766666667,1.871694588888889,-2.4912557444444445,-1.6223085,-7.911609022222223
955,1778428844550,0.9022478,-2.8192194,1.9157519,-2.1888185,-2.2005773,-8.562094
956,1778428844560,0.207458735,-2.815194725,1.8980108625,-2.0722228874999997,-2.5599844625,-9.123385125
957,1778428844570,-0.9327509088888889,-2.776662711111111,1.9832796666666666,-1.9328735,-2.8914456,-9.682998
958,1778428844580,-1.6039655285714285,-2.7192091285714284,2.028733342857143,-1.788800757142857,-2.992758942857143,-9.825849285714286
959,1778428844590,-2.069673566666667,-2.6547381,1.9488738666666667,-1.4374593222222223,-2.9065809555555555,-9.843244111111112
960,1778428844600,-2.282396925,-2.56151375,1.800813975,-1.043250725,-2.54708035,-9.74530425
961,1778428844610,-2.3279712,-2.5044143,1.6631763,-0.7844042,-2.214016,-9.64818
962,1778428844620,-2.213963922222222,-2.4770923333333332,1.4795985555555555,-0.52513352,-1.6719907888888887,-9.514065111111112
963,1778428844630,-2.065783675,-2.4719429,1.356900725,-0.31695336125,-1.3154595125,-9.322904124999999
964,1778428844640,-1.9790482666666667,-2.4675525333333335,1.3264695666666668,-0.2547996666666667,-1.215077,-9.227713333333334
965,1778428844650,-1.905019625,-2.460052,1.34554335,-0.19944162625,-1.2107756875,-9.192334500000001
966,1778428844660,-1.8902018,-2.4549184,1.40667885,0.06345176500000001,-1.3154595375,-9.14827725
967,1778428844670,-1.8799572,-2.421177825,1.4377363375,0.32611609,-1.4070866,-9.083756
968,1778428844680,-1.8696246333333333,-2.388249177777778,1.4210552,0.7657903922222222,-1.6059513555555556,-8.932809777777779
969,1778428844690,-1.9102447625,-2.37037095,1.3423115875,1.2964660749999999,-2.0364121,-8.631577
970,1778428844700,-1.9434136499999999,-2.35907065,1.2575658,1.513450375,-2.4464433125,-8.336309
971,1778428844710,-1.980207,-2.346265,1.187295,1.6144693,-2.9274855,-8.00439
972,1778428844720,-2.0624373,-2.252052,1.1277487,1.6089717,-3.4674745,-7.561449
973,1778428844730,-2.1026798125,-2.1625956250000002,1.0609727,1.6196614875,-3.9020827999999996,-7.077734125
974,1778428844740,-2.0855104,-2.112714675,0.9280496075,1.6925050000000001,-4.6243425,-6.10350965
975,1778428844750,-2.0229114624999998,-2.1093189375,0.72359406875,1.60515385,-4.946259250000001,-5.5905507000000005
976,1778428844760,-1.9802781666666667,-2.042507366666667,0.5267278733333334,1.3995019777777777,-5.13645351111111,-5.187136777777777
977,1778428844770,-1.9560287,-1.9885001,0.38194302,1.0847120375000001,-5.1528019249999994,-4.8587553125
978,1778428844780,-1.9064603125000001,-1.9342020125000001,0.2806566125,0.6309289,-5.0410933,-4.609148
979,1778428844790,-1.78087365,-1.8127771875,0.1506490325,-0.23372543625000003,-4.855854000000001,-4.3758040000000005
980,1778428844800,-1.7113125777777778,-1.7679317222222222,0.16533823333333333,-1.0246199333333332,-4.737705755555556,-4.257639222222222
981,1778428844810,-1.71650255,-1.72249385,0.302853025,-1.702125925,-4.73704395,-4.29074375
982,1778428844820,-1.7419919,-1.6973552,0.36654577,-2.155222,-4.7393346,-4.38008
983,1778428844830,-1.8989218,-1.5760676,0.58814406,-2.486912,-4.575017,-4.5034714
984,1778428844840,-1.8989218,-1.5760676,0.58814406,-2.486912,-4.575017,-4.5034714
985,1778428844850,-1.8989218,-1.5760676,0.58814406,-2.486912,-4.575017,-4.5034714
986,1778428844860,-1.8989218,-1.5760676,0.58814406,-2.486912,-4.575017,-4.5034714
987,1778428844870,-1.8989218,-1.5760676,0.58814406,-2.486912,-4.575017,-4.5034714
988,1778428844880,-1.8989218,-1.5760676,0.58814406,-2.486912,-4.575017,-4.5034714
989,1778428844890,-1.8989218,-1.5760676,0.58814406,-2.486912,-4.575017,-4.5034714
990,1778428844900,-1.8989218,-1.5760676,0.58814406,-2.486912,-4.575017,-4.5034714
991,1778428844910,-1.8989218,-1.5760676,0.58814406,-2.486912,-4.575017,-4.5034714
992,1778428844920,-1.8989218,-1.5760676,0.58814406,-2.486912,-4.575017,-4.5034714
993,1778428844930,-1.9542237800000002,-1.47043948,0.611181996,-2.44513,-4.478381000000001,-4.529004779999999
994,1778428844940,-6.645632,0.46392953,4.366474,-2.5815933,-2.293426,-3.4748046
995,1778428844950,-7.0445265625,0.63499130375,4.5336946375,-0.7904459,-0.31039630362500004,-3.3940964375
996,1778428844960,-7.1015115,0.6594287,4.5575833,-0.5345677,-0.027106347,-3.3825667
997,1778428844970,-7.1015115,0.6594287,4.5575833,-0.5345677,-0.027106347,-3.3825667
998,1778428844980,-7.1015115,0.6594287,4.5575833,-0.5345677,-0.027106347,-3.3825667
999,1778428844990,-7.1015115,0.6594287,4.5575833,-0.5345677,-0.027106347,-3.3825667
1000,1778428845000,-7.1015115,0.6594287,4.5575833,-0.5345677,-0.027106347,-3.3825667
