id,timestamp,acc_x,acc_y,acc_z,gyro_x,gyro_y,gyro_z
0,1778428574970,-0.05399095464,0.41482297999999995,0.82629214,-0.341799578,-1.00725658,0.251913402
1,1778428574980,-0.0031709166,0.41877443,0.84416515,-0.34986275,-1.0395093,0.25411245
2,1778428574990,0.08607590500000001,0.41115202500000003,0.87867937625,-0.32863581875000003,-1.0268342625,0.137202023375
3,1778428575000,0.12716866333333335,0.38847455999999997,0.8808677533333333,-0.3183701844444445,-0.9041048444444445,-0.03883122233333333
4,1778428575010,0.1407534711111111,0.3833455488888889,0.891027601111111,-0.3215601744444444,-0.7072763,-0.14756203666666667
5,1778428575020,0.1602092122222222,0.35987873333333337,0.8832968222222222,-0.31945615,-0.4218748733333333,-0.23864614333333334
6,1778428575030,0.15717381,0.33825144,0.862215,-0.33703497,-0.19287503,-0.28473118
7,1778428575040,0.067122815875,0.324714075,0.79681475,-0.441337125,0.06352811325,-0.2598391425
8,1778428575050,0.007805333500000001,0.32068944,0.7770575,-0.5160132,0.103385895,-0.20715357
9,1778428575060,-0.048909105187499996,0.27653671874999997,0.69333314,-0.5685460999999999,-0.017103725624999996,-0.0324512585
10,1778428575070,-0.1101487028888889,0.2429274677777778,0.6222924033333334,-0.6026178222222223,-0.23936728777777777,0.16541235355555556
11,1778428575080,-0.07543800977777777,0.20682100333333334,0.5767883833333334,-0.6146989855555556,-0.5299269566666667,0.3561918388888889
12,1778428575090,0.09637079988888889,0.1529120377777778,0.575792388888889,-0.5389539544444444,-0.9063446433333334,0.48053316777777777
13,1778428575100,0.25435173375,0.09750188,0.598537275,-0.36314870625,-1.1091459875,0.38337347125
14,1778428575110,0.35069118624999995,0.029296678749999996,0.5689280375,-0.06016845375,-1.1874106875000001,0.10414946125000002
15,1778428575120,0.33507035,-0.00804925,0.45034133333333337,0.21293116999999998,-1.2269715777777777,-0.1868598788888889
16,1778428575130,0.27820982,-0.004756375,0.3652804825,0.26205348,-1.2340642,-0.27228517875
17,1778428575140,0.20156326333333335,-0.021335933333333335,0.24261916777777776,0.20342910777777778,-1.294572,-0.2510667122222222
18,1778428575150,0.16644263,-0.037105825,0.1803459,0.12171131,-1.3791404,-0.1674485
19,1778428575160,0.18943178777777778,-0.06724985966666668,0.1522141711111111,-0.041181288222222216,-1.4595007555555555,-0.0033342088888888904
20,1778428575170,0.30553612333333335,-0.11780158666666668,0.15969428333333333,-0.19837265333333332,-1.5076219666666666,0.12514733333333333
21,1778428575180,0.41551586125,-0.1425044995,0.17305889124999999,-0.25701399249999995,-1.4917653499999999,0.11987878475000001
22,1778428575190,0.46816416666666666,-0.11895680577777777,0.15608973333333334,-0.25823567555555554,-1.439682122222222,-0.010935861555555558
23,1778428575200,0.49323,-0.10909174,0.15571031,-0.23258009999999998,-1.4463336,-0.1002553
24,1778428575210,0.5390152,-0.07948634666666668,0.11681575933333334,-0.20631366,-1.828724,-0.16989189000000002
25,1778428575220,0.57241525,-0.05296040625,0.103569307125,-0.261518985,-2.22822765,-0.18325417625
26,1778428575230,0.6451494,-0.07112542,0.02409015911111111,-0.47997322222222216,-2.8657474666666665,-0.13785634888888887
27,1778428575240,0.789306675,-0.1652840325,-0.03087832625,-0.8799254750000001,-3.178925425,0.004676799999999998
28,1778428575250,0.9315177,-0.17571147,0.005366167,-1.3907465,-3.3919585,0.17653486
29,1778428575260,1.0873194625,-0.22613742875,0.122228930125,-1.9027319500000002,-3.5600178375,0.30290389
30,1778428575270,1.3715434,-0.31654286,0.39950502,-2.521501,-3.7627428,0.41171107
31,1778428575280,1.6544765666666668,-0.38502245333333335,0.8286255733333333,-2.8812222000000003,-4.0653836666666665,0.3796076266666667
32,1778428575290,1.8115195499999999,-0.438409705,1.0788587,-2.9005318,-4.357478937500001,0.3336753075
33,1778428575300,1.9577090000000001,-0.4661281222222222,1.2942522666666667,-2.822580933333333,-4.535939611111112,0.31438271444444443
34,1778428575310,1.9589558222222223,-0.4925998644444445,1.444599888888889,-2.810499777777778,-4.5107593,0.4045845011111111
35,1778428575320,1.9233401374999999,-0.4467943475,1.5326541625,-2.724760625,-4.8367746125,0.5622085274999999
36,1778428575330,1.8625095999999999,-0.4447210825,1.6390209,-2.792259325,-5.358657825,0.6820109525
37,1778428575340,1.7895150333333332,-0.4762066633333333,1.8411643666666666,-2.8502048555555555,-5.914834011111111,0.9282163444444443
38,1778428575350,1.7317475,-0.47734493,1.9570043,-2.8026436,-5.962938125,1.3453911
39,1778428575360,1.7109873666666666,-0.44189567888888887,2.1693508444444443,-2.694031511111111,-5.699204922222222,1.7527243444444445
40,1778428575370,1.694672,-0.4492945,2.2881823,-2.4078836,-5.2056403,2.0573335
41,1778428575380,1.6052766,-0.39017521,2.278722875,-1.86980345,-4.671988825,2.189123825
42,1778428575390,1.4214041333333336,-0.20394483066666666,2.205833288888889,-1.2047773888888889,-4.375829944444444,2.146856588888889
43,1778428575400,1.205725825,-0.04727791275,2.0155634125,-0.7022452875,-4.467737,2.07207015
44,1778428575410,0.9539885466666667,0.1678248333333333,1.8148213,-0.12608905777777776,-4.5087906,2.1465851999999996
45,1778428575420,0.85538524,0.29992604,1.7144293,0.28725094,-4.4261227,2.2259274
46,1778428575430,0.94005483,0.52030474,1.5042951,0.8395332,-3.9661548,2.3083918
47,1778428575440,0.9282325149999999,0.84385261,1.1085860825,1.47023295,-3.389973125,1.809787675
48,1778428575450,0.71268642,1.02541807,0.7911361225,1.637452425,-3.181063375,1.3849435250000002
49,1778428575460,0.4919951725,1.1398912125,0.5219930925,1.5254383624999999,-3.1512083125,1.07585479375
50,1778428575470,0.26821688,1.2300107,0.29968214,1.1742775,-3.201985,0.85885125
51,1778428575480,0.08417411899999999,1.4107797125,0.264352315,0.5971604782500001,-3.11997875,0.8153283874999999
52,1778428575490,0.14888063,1.5399374,0.2806566,-0.055434387,-2.9435966,0.7824953
53,1778428575500,0.28635479555555554,1.6887943444444444,0.2925339933333333,-0.7955098111111112,-2.174802988888889,0.6552354666666668
54,1778428575510,0.36435053,1.7434554,0.33410487,-1.3461547,-1.3785295,0.63528115
55,1778428575520,0.4951644011111111,1.7131013333333334,0.5045009677777778,-2.0227189222222224,-0.07387857333333334,0.43763813444444444
56,1778428575530,0.6327579449999999,1.670570025,0.8256121775,-2.4370515499999996,0.9496384250000001,0.017695495
57,1778428575540,0.7043094,1.5960687,1.0825937,-2.4310958,1.3770788,-0.49180838
58,1778428575550,0.6925946000000001,1.4885218555555555,1.3527788333333333,-1.9790178666666667,1.4233674444444444,-0.9227950644444446
59,1778428575560,0.61868319,1.3028085249999999,1.7131296749999998,-0.8637380474999999,1.374940825,-1.61164415
60,1778428575570,0.59472984,1.2529389,1.7495838,-0.16783029,1.3556992,-1.8576629
61,1778428575580,0.5701755677777778,1.0585712244444445,1.7041237777777778,0.6161412599999999,1.6751722666666666,-1.8678436666666667
62,1778428575590,0.59180284,0.96594054,1.6539074,1.3349303,2.0496216,-1.8167361
63,1778428575600,0.59180284,0.96594054,1.6539074,1.3349303,2.0496216,-1.8167361
64,1778428575610,0.8609106666666667,0.8053010688888889,1.5686517777777778,1.5720747888888889,2.3257245555555555,-1.8983181666666669
65,1778428575620,1.3387874444444445,0.5237975111111112,1.4840025222222222,1.8667746777777776,2.6918256888888887,-2.1370916555555555
66,1778428575630,1.5374982,0.45807552,1.6065571,1.8382685,2.6690207,-2.257768
67,1778428575640,1.7083245333333332,0.3980110422222222,1.7586832666666667,1.8664353333333332,2.7097438666666664,-2.245551
68,1778428575650,2.3746355,0.2334206425,2.39086345,2.27456615,3.0223195499999997,-2.0013647
69,1778428575660,2.776046,0.17156488,2.7164695,2.703839,3.0850842,-1.8698798
70,1778428575670,3.225569225,-0.029780701999999996,2.9108635,3.4474502,3.1428090749999997,-1.901491175
71,1778428575680,3.7049180888888893,-0.1907936611111111,2.977975277777778,4.554714655555555,3.0963506777777776,-2.3492675999999997
72,1778428575690,3.787111,-0.3067557,2.8707163,5.0721703,3.0643153,-2.6854372
73,1778428575700,3.787111,-0.3067557,2.8707163,5.0721703,3.0643153,-2.6854372
74,1778428575710,3.86310265,-0.57094415,2.5143235749999997,5.237557075,3.383177575,-2.73812275
75,1778428575720,4.1034102,-0.7973026,2.385566,5.3446083,3.557269,-2.914505
76,1778428575730,4.1996352111111115,-1.0407246666666667,2.346644322222222,5.604438844444444,3.454443022222222,-3.224611822222222
77,1778428575740,4.102236375,-1.419732225,2.2184451000000003,6.2984462625,2.9425180625,-3.8631507375
78,1778428575750,3.8373885,-1.6609812,1.9806948,7.0355096,2.2524228,-4.3805385
79,1778428575760,3.3186692625000003,-1.820216775,1.5813689,7.537091725,1.6040848675000001,-4.6042612125
80,1778428575770,2.21233175,-1.967066025,0.86509621,8.142822875,0.30426875999999997,-4.752468175
81,1778428575780,1.399106,-1.9599315,0.43075684,8.295688,-1.5355173,-4.4568944
82,1778428575790,1.399106,-1.9599315,0.43075684,8.295688,-1.5355173,-4.4568944
83,1778428575800,0.5299563977777777,-1.9024281888888888,0.065132525,7.550522000000001,-3.7306905111111113,-3.3652424888888888
84,1778428575810,0.23525764,-1.866481,-0.05808266,6.953656,-4.91419,-2.5956428
85,1778428575820,0.23525764,-1.866481,-0.05808266,6.953656,-4.91419,-2.5956428
86,1778428575830,0.29029133375,-1.8139816375,-0.2774552125,6.0713922625,-3.9921828374999997,-2.483132275
87,1778428575840,0.06305923444444445,-1.7479000333333334,-0.6816522333333332,4.5773753555555565,-1.976752583333333,-2.584376077777778
88,1778428575850,-0.55692273,-1.7149171,-1.1309197,2.9353502,-0.26800925,-2.5577703
89,1778428575860,-0.8390428649999999,-1.73847035,-1.2936883,1.9699060999999998,0.312639275,-2.3573741999999998
90,1778428575870,-1.5261866333333334,-1.8896528666666665,-1.3900913,-0.9841258600000001,1.7262797666666667,-1.2930363999999999
91,1778428575880,-1.6890619,-2.000452,-1.2207115,-2.1036053,2.0288527,-0.5999284
92,1778428575890,-1.6680173555555555,-2.0806328777777776,-1.0393052288888889,-2.4409710888888885,1.80263565,-0.043607717777777784
93,1778428575900,-1.5591878375000001,-2.1613989625,-0.71435568875,-2.6012834375,0.80569801125,1.1334271
94,1778428575910,-1.3232174,-2.0717063,-0.5317688,-1.9710513,-0.48302746,1.8753011
95,1778428575920,-1.087472,-1.98543605,-0.576984895,-1.435491,-1.239256365,2.328874275
96,1778428575930,-0.805786375,-1.774409925,-0.6933255125,-0.8170081874999999,-2.088725425,2.949857825
97,1778428575940,-0.6336345311111111,-1.6367384666666667,-0.8338765522222222,-0.6623450277777778,-2.579463688888889,3.4633765555555556
98,1778428575950,-0.43350091,-1.502107525,-0.88126332,-0.7751651625,-3.05095295,4.01563355
99,1778428575960,-0.24367614255555553,-1.3652796444444446,-0.868966741111111,-0.9308463444444445,-3.479105911111111,4.368448711111111
100,1778428575970,0.04763997525,-1.26776445,-0.9153582625,-1.21268455,-3.908124425,4.717344475
101,1778428575980,0.30611880555555554,-1.1556364666666665,-0.87855392,-1.5025993666666666,-3.9361555333333333,4.943866911111112
102,1778428575990,0.39779758,-1.1175042,-0.829774,-1.6486766625,-3.86933565,5.0412462125
103,1778428576000,0.6843311000000001,-0.9304887875,-0.7105978625,-1.9800805,-3.575976175,5.34073295
104,1778428576010,0.7539735066666666,-0.8206848044444445,-0.61098415,-2.2238149333333332,-3.311055111111111,5.670512111111111
105,1778428576020,0.996209045,-0.675633905,-0.4170822825,-2.461790825,-3.101042475,6.43542845
106,1778428576030,1.3219979,-0.5991203,-0.35922828,-2.6381729,-2.9466507,7.062158
107,1778428576040,2.1546988,-0.5303053,-0.2950477,-3.0303369,-2.5752556,7.7188187
108,1778428576050,3.091942,-0.4177310066666667,-0.13907654666666666,-3.7119066333333333,-1.8594105333333333,7.500678322222222
109,1778428576060,3.4800850000000003,-0.22226526249999998,0.24062379499999997,-4.24813725,-1.4244958,7.0242088124999995
110,1778428576070,3.6199233333333334,-0.05600597888888889,0.5803218033333333,-4.324450844444445,-1.3705885555555557,6.864514944444444
111,1778428576080,3.7436635,0.061497495,0.85099477,-4.1652913,-1.3876922,6.865465
112,1778428576090,3.9736350000000003,0.19413480624999999,1.0546080125,-3.7132642,-1.0669974,6.882569
113,1778428576100,4.2361278222222225,0.3117559877777778,1.0486011555555557,-3.0834805333333333,0.02766629333333333,6.457215533333334
114,1778428576110,4.1612643,0.38594095375000004,1.0276895875,-2.733923125,0.73645271,5.94216945
115,1778428576120,3.8557736666666664,0.4861360666666667,1.1455647666666666,-2.3412926222222223,0.9895980133333333,5.473674977777778
116,1778428576130,3.5887077124999998,0.5280261875000001,1.172442675,-1.7035766625000002,0.82456745,5.1446318875
117,1778428576140,3.047921855555556,0.6380758111111111,1.092496,-0.8721371866666667,0.5664844833333333,4.816403233333334
118,1778428576150,2.8349138875,0.70443896875,0.963669035,-0.3962871475,0.48600534375,4.628084225
119,1778428576160,2.736141922222222,0.8167143488888889,0.7486954044444444,0.16487786555555556,0.5422542222222222,4.209085611111111
120,1778428576170,2.5746281875,0.9743175374999999,0.53220332,0.48625351,0.75767969,3.609420225
121,1778428576180,2.3879137777777775,1.0613898444444443,0.4305264866666667,0.6233611211111111,0.91907912,3.2122422333333334
122,1778428576190,2.0429812249999997,1.2066366375,0.292646655,0.8179244825,1.037676785,2.4384259125
123,1778428576200,1.8964368,1.2583089125,0.20756546625,0.91260582375,0.9586484024999999,2.01747585
124,1778428576210,1.676885175,1.3284615375,0.08182642575,1.020496675,0.70942275,1.2303990425
125,1778428576220,1.507306788888889,1.3095851888888888,-0.04353912644444444,0.9550512,0.5613262022222223,0.7324058611111111
126,1778428576230,1.245926375,1.327242075,-0.1598416475,0.645111985,0.4152997825,0.09252427
127,1778428576240,1.0309214425,1.3356572500000001,-0.1985405575,0.29595549375,0.43400697374999997,-0.2412846675
128,1778428576250,0.88834447,1.333462,-0.16302781,-0.07925743,0.55854344,-0.45454672
129,1778428576260,0.79452426,1.3165707249999998,-0.04816211149999999,-0.30947048875,0.6219188675,-0.5799994775
130,1778428576270,0.7691167000000001,1.3085011777777777,0.10451490000000001,-0.46388758888888887,0.6296732177777778,-0.8049694222222222
131,1778428576280,0.8464061249999999,1.3331647,0.189988225,-0.372769545,0.5921400475,-1.03546245
132,1778428576290,0.9752330666666666,1.3517048666666667,0.20538461111111112,-0.26733052888888886,0.5533173377777777,-1.2829234666666667
133,1778428576300,1.117992,1.3761778,0.18619989,-0.2081462,0.55060244,-1.6646352
134,1778428576310,1.2824122666666666,1.3401730666666667,0.1949876677777778,-0.2538240044444444,0.6318451444444444,-2.1392719555555555
135,1778428576320,1.4245038,1.2573295,0.24111164,-0.30282754,0.79860646,-2.6738312
136,1778428576330,1.4245038,1.2573295,0.24111164,-0.30282754,0.79860646,-2.6738312
137,1778428576340,1.3895966,1.0468768000000002,0.40909568222222226,-0.11061426,1.1450247177777777,-3.5252165333333334
138,1778428576350,1.3837392,1.0318285,0.41511568,-0.0865876,1.188327,-3.6316397
139,1778428576360,1.3518301888888888,0.7200454155555556,0.5337032411111111,0.28883743222222225,1.4237067777777779,-4.0005914222222225
140,1778428576370,1.366909,0.52859795,0.61402977,0.55976516,1.535899,-4.146584
141,1778428576380,1.5302035875,0.39138716125,0.74078254875,0.8840486825,1.5913334625,-4.206065325
142,1778428576390,1.7721969,0.2516102033333334,0.8871147733333333,1.2691624333333333,1.6433402444444445,-4.3020784333333335
143,1778428576400,1.9365155,0.17546757,0.9549642,1.6012597,1.692276,-4.4037504
144,1778428576410,1.9365154999999998,0.17546757,0.9549641999999999,1.6012597,1.692276,-4.4037504
145,1778428576420,2.3507992857142854,0.18668772571428574,1.0755113571428572,2.224934814285714,1.371319357142857,-4.593200414285714
146,1778428576430,2.694761,0.24501431000000004,1.1557992,2.4216275,0.9904125000000001,-4.5808964
147,1778428576440,3.20262595,0.2134804525,1.317302475,2.417962625,0.9841513000000001,-4.6059411
148,1778428576450,3.696052155555555,0.18468219111111112,1.4758110333333334,2.416741,1.1144145,-4.685962
149,1778428576460,3.9257472,0.1657109,1.5033194,2.2933497,1.8333817,-4.874714
150,1778428576470,3.9644843,0.1270882165,1.4988679500000002,2.257920525,1.976778075,-4.911670175
151,1778428576480,4.097156444444445,-0.28672742977777776,1.490127611111111,2.0631958888888886,3.1266725444444443,-5.227299933333333
152,1778428576490,4.0223684,-0.5925346,1.5501819,2.1217015,3.6433985,-5.427607
153,1778428576500,4.0223684,-0.5925346,1.5501819,2.1217015,3.6433985000000004,-5.427607
154,1778428576510,3.046035225,-1.288992875,1.360182275,3.6810324375,2.7788778375,-5.6922566875
155,1778428576520,2.5934746,-1.5086856,1.1694585,4.4356675,2.0300746,-5.679887
156,1778428576530,2.5934746,-1.5086856,1.1694585,4.4356675,2.0300746,-5.679887
157,1778428576540,1.6910286125,-1.68690105,0.6205087875,4.7914860375,0.6511536499999999,-5.3071079999999995
158,1778428576550,0.8966377,-1.7861711999999998,0.2274523,4.6525183,-0.4769189999999999,-4.753155
159,1778428576560,0.8966377,-1.7861712,0.2274523,4.6525183,-0.476919,-4.753155
160,1778428576570,0.4407574265,-1.695453375,0.169483975,4.0434271375,-0.8138776375,-3.8243619499999997
161,1778428576580,-0.017074168,-1.577775,0.13275166,3.4760263,-0.9203940999999999,-2.8595288
162,1778428576590,-0.017074168,-1.577775,0.13275166,3.4760263,-0.9203941,-2.8595288
163,1778428576600,-0.42960160733333336,-1.4546648444444443,-0.09257992111111112,3.1010509222222225,0.3620288088888889,-1.905665311111111
164,1778428576610,-0.73092675,-1.4115763,-0.31483543,2.876098,1.1773317,-1.3885322
165,1778428576620,-1.0064171055555555,-1.4751300777777778,-0.6462910833333333,2.4829838666666664,1.5986805888888889,-0.9677262888888889
166,1778428576630,-1.1696795125000001,-1.542407025,-0.8109695749999999,2.1074994375,1.5427710875,-0.5833400412499999
167,1778428576640,-1.4359679,-1.6729329,-1.0628364,1.3770788,1.2347513,0.16492876
168,1778428576650,-1.4359679,-1.6729329,-1.0628364,1.3770788,1.2347513,0.16492876
169,1778428576660,-1.5412924777777777,-1.7606345888888888,-1.0590896,0.8444029955555555,0.19354522888888892,1.4106668977777777
170,1778428576670,-1.5918306333333334,-1.7746259333333334,-1.0291454,0.5083776,-0.82754534,2.8948815
171,1778428576680,-1.43987825,-1.7351241000000002,-1.080390725,0.4406499275,-1.1048699675,3.749304125
172,1778428576690,-1.1382371,-1.6902816,-1.2238823,0.25426516,-1.3137797,4.932057
173,1778428576700,-0.9100734555555555,-1.6465086333333332,-1.3437301111111113,-0.28205872111111113,-1.1505478077777778,5.685028244444444
174,1778428576710,-0.48767325,-1.58197495,-1.43474075,-1.220930925,-0.9645278275,6.376939925
175,1778428576720,-0.23907266500000002,-1.53300865,-1.353386975,-2.04834265,-1.0689827,6.732911125
176,1778428576730,0.10835998,-1.4349922,-1.1375054,-2.6778781,-1.3864706,6.9088354
177,1778428576740,0.48957127,-1.3547132,-0.933713,-3.073707,-1.792684,6.8404202
178,1778428576750,0.9221947355555555,-1.2240619666666666,-0.6748327555555557,-3.2367354,-1.9175683111111113,6.4274876
179,1778428576760,1.1643362,-1.129944,-0.5251831,-3.2484093,-1.9588343999999998,5.9754605
180,1778428576770,1.244449333333333,-0.9986355166666667,-0.39068337444444445,-3.1095434555555554,-2.0702800666666668,5.483049833333333
181,1778428576780,1.2454995625,-0.94953333875,-0.276498605,-2.88694045,-2.3623181,5.3399695000000005
182,1778428576790,1.2697286222222222,-0.8995037244444445,-0.11244558155555556,-2.6228338555555557,-2.6756383444444443,5.598024777777777
183,1778428576800,1.619891233333333,-0.8783134766666666,-0.028883799,-2.239060633333333,-2.9698630333333336,6.701351
184,1778428576810,2.1767923624999996,-0.88627502125,-0.016014653375,-2.076422475,-2.914886825,7.75564125
185,1778428576820,2.9567692875000002,-0.8826924899999999,-0.11593283025000001,-2.24793695,-2.3979382,8.089049625
186,1778428576830,4.0539358666666665,-0.72587568,-0.26030990333333337,-2.9641618999999997,-1.1472220000000002,7.590133499999999
187,1778428576840,4.336229,-0.66894144,-0.16985747,-3.5049653,-0.4280512,7.0908675
188,1778428576850,4.2879295125,-0.58620795625,0.42456363875,-4.0619053,0.4565319625,6.5905075125
189,1778428576860,4.209954222222223,-0.4145702844444445,0.8048707944444444,-3.9197304000000006,0.5976377,6.602801
190,1778428576870,4.30168425,-0.27968095,0.8838854125,-3.49244275,0.6535302125,6.4815474
191,1778428576880,4.443803,-0.10463348288888888,0.8306074,-3.0950866777777777,0.9519969500000001,5.9479556888888885
192,1778428576890,4.32067125,0.066044250625,0.8409751225000001,-2.707885875,1.4141114000000001,4.92495625
193,1778428576900,3.9351686666666663,0.19784691,0.9129699066666667,-2.2987964333333335,1.6140196333333334,4.142842666666667
194,1778428576910,3.562586,0.30309695,0.9837464,-1.8036792,1.5774367,3.5313845
195,1778428576920,2.9871322222222223,0.5222154255555556,1.0782776666666667,-0.8688114377777778,0.9690837533333334,3.0231425
196,1778428576930,2.5582861,0.7398805611111112,1.0695746000000002,0.4173698711111111,0.13888290666666667,2.5112609666666668
197,1778428576940,2.4048011125,0.9225004937500001,0.89045975,1.387310475,-0.2182251875,2.1320097500000004
198,1778428576950,2.339784177777778,1.075879211111111,0.6204630622222223,2.0532868,-0.29305398,1.7311411
199,1778428576960,2.2996464,1.2233945,0.36361876,2.4639594099999997,-0.22103508,1.21766293
200,1778428576970,2.1098927,1.3443975,0.035222243333333327,2.5211957444444444,-0.1210665308888889,0.47691899111111113
201,1778428576980,1.8928339777777776,1.4303070222222223,-0.1519499311111111,2.2269030777777776,-0.043285314222222225,-0.30400681333333335
202,1778428576990,1.5440602666666665,1.5360449111111112,-0.25761327333333334,1.5192026,0.024382986000000002,-0.7076411133333333
203,1778428577000,1.377389775,1.615223775,-0.2272617275,0.941525545,0.223589185,-0.8858049050000001
204,1778428577010,1.3506961875,1.6443643,-0.1506071065,0.44576579625,0.55930702625,-1.0342407875
205,1778428577020,1.4311776888888887,1.6802537666666668,-0.005762532888888888,0.011147963333333328,1.085093788888889,-1.3042352777777777
206,1778428577030,1.5606704,1.7095511,0.17058922,-0.18554485,1.4699275,-1.6206541
207,1778428577040,1.641962311111111,1.6764732333333334,0.23978702000000002,-0.1608394748888889,1.5914182777777777,-1.983242877777778
208,1778428577050,1.7982528,1.5556243,0.380647205,0.032527615999999995,1.78772085,-2.93756445
209,1778428577060,1.8364282444444444,1.439772388888889,0.44590677555555547,0.27626414888888884,1.781799011111111,-3.475602188888889
210,1778428577070,1.8765084555555558,1.2271481555555555,0.5201726233333334,0.6793554555555555,1.6445619666666669,-4.101109677777778
211,1778428577080,1.8945312,0.9088335,0.7409274,1.0637141,1.4968048,-4.604719
212,1778428577090,1.9251848125,1.0925637725,0.37089435125000003,1.5081055,1.216884125,-4.9545821
213,1778428577100,2.15560605,0.6985849399999999,0.3648993375,1.4364837124999998,1.3454673750000001,-5.2352759375
214,1778428577110,2.2941176666666667,0.5117981533333333,0.508210551111111,1.7035427555555556,1.4420323000000002,-5.734523844444444
215,1778428577120,2.292511714285714,0.2575063068571429,0.44211638,1.9651502285714284,1.4750761428571428,-6.236543428571429
216,1778428577130,2.3240685,0.067839324,0.45953902999999996,2.05573,1.6049248,-6.479486
217,1778428577140,2.355175675,-0.1638129125,0.510243165,2.25402635,1.68082265,-6.761697475
218,1778428577150,2.4170921777777776,-0.2944853277777778,0.4929556022222222,2.4845449666666664,1.5299941333333333,-7.044044444444444
219,1778428577160,2.5191484375,-0.40539712250000004,0.45899400375,2.5290604,1.31263445,-7.238234824999999
220,1778428577170,2.6564355,-0.51664597,0.52347565,2.4985943,1.0111812,-7.392702600000001
221,1778428577180,2.703542,-0.59155893,0.5813144,2.4810325,0.82212405,-7.4114860625
222,1778428577190,2.702674666666667,-0.5787058655555556,0.6263305777777778,2.4821014,0.7815027,-7.4061413
223,1778428577200,2.7193285555555553,-0.5252643666666666,0.7862721688888888,2.5859455,0.5383854888888888,-7.16071641111111
224,1778428577210,2.8523412666666665,-0.5129161066666666,0.78095004,2.586760066666667,0.6234968666666666,-7.079948933333333
225,1778428577220,2.9679705,-0.5867568,0.7331144,2.54456075,0.81555745,-7.168750875
226,1778428577230,2.907270033333333,-0.7176231444444444,0.6686400033333333,2.465337211111111,1.0366332444444444,-7.37716
227,1778428577240,2.652227766666667,-0.899463,0.6324860866666666,2.3608143888888886,1.1081702444444446,-7.404851866666667
228,1778428577250,2.5100243,-1.0579276,0.6079318,2.327557,1.1247989,-7.3383374
229,1778428577260,2.155701666666667,-1.2657445222222221,0.6180950122222222,2.4875991,1.0293031,-7.174222866666666
230,1778428577270,1.6960441875,-1.4058518875,0.6343053225,2.7171248875,0.7964684937500001,-6.9518234625
231,1778428577280,1.2170527666666666,-1.5466756333333334,0.5908474866666666,3.107558044444444,0.34880227722222223,-6.542063833333334
232,1778428577290,0.8752373666666666,-1.6370873888888888,0.5102059,3.6028788666666665,-0.20488835166666666,-5.9741118
233,1778428577300,0.5221612333333333,-1.7070305555555556,0.36103731,3.9482112,-0.5880932,-5.5290074
234,1778428577310,0.12185668999999999,-1.6913182,0.143260388,4.074181577777778,-1.0482647999999999,-4.857338533333333
235,1778428577320,-0.2728004788888889,-1.602864511111111,-0.04367463466666667,3.7735089,-1.5974165,-3.7228595333333327
236,1778428577330,-0.5883727750000001,-1.4970462125000001,-0.151422705,3.4363213,-1.8091769,-3.0122406
237,1778428577340,-0.7160479,-1.4332849,-0.17156488,2.8313789,-1.8260090777777778,-2.014184066666667
238,1778428577350,-0.7384082,-1.4202277375,-0.1764470275,2.6663483375,-1.7809251625,-1.751146445
239,1778428577360,-1.014811475,-1.386670125,-0.33359415875,1.0911832225,-0.40909589999999996,0.246763185
240,1778428577370,-1.184124,-1.4381632,-0.43709868,-0.048715073333333345,0.8680394,1.3153577333333333
241,1778428577380,-1.184124,-1.4381632,-0.43709868,-0.600921,1.3709704,1.827655
242,1778428577390,-1.574471922222222,-1.6422874777777776,-0.4988909133333334,-1.3874207444444444,1.6825023666666665,2.9275279222222226
243,1778428577400,-1.6249288333333332,-1.7665022333333333,-0.43619752666666667,-1.9327207,1.4378919444444442,4.248790566666667
244,1778428577410,-1.5789946,-1.8359609,-0.3792599,-2.1727073,1.0264524,5.288792
245,1778428577420,-1.2402554,-1.9245635,-0.33873928,-2.3125913,0.19440214,6.987024
246,1778428577430,-0.7609386966666666,-1.9876160666666667,-0.33605619333333336,-2.2875466,-0.24968381,8.164203
247,1778428577440,-0.25696623,-2.0375578,-0.3650823,-2.2875466,-0.24968381,8.164203
248,1778428577450,0.2731460188888889,-2.0002317777777776,-0.4160134311111111,-2.1545854555555555,-0.2813121333333333,9.487976333333332
249,1778428577460,0.84568958125,-1.8929839875,-0.50630241875,-2.18774955,-0.17943637875000001,9.9074088125
250,1778428577470,1.1382371,-1.8183987999999998,-0.56594765,-2.3229759,-0.11957335,9.8892355
251,1778428577480,1.4968823,-1.677853225,-0.63485793,-2.601674925,-0.12476555125,9.392693000000001
252,1778428577490,1.868165425,-1.3839907500000002,-0.6590552199999999,-2.90190625,-0.4097258225,8.442729625
253,1778428577500,1.912825,-1.2397674,-0.62207896,-3.0040705,-0.7194254,7.8361015
254,1778428577510,1.7632432,-1.0557323,-0.4871321,-2.990021,-1.1946645,7.2203674
255,1778428577520,1.6582132444444444,-0.9545103222222223,-0.32767833055555556,-2.8218343333333333,-1.5660596999999998,7.046886733333333
256,1778428577530,1.5465231,-0.759709,-0.039301075,-2.2289052,-2.5050082,7.2105937
257,1778428577540,1.5465231,-0.759709,-0.039301075,-2.2289052,-2.5050082,7.2105937
258,1778428577550,1.5465231,-0.759709,-0.039301075,-2.2289052,-2.5050082,7.2105937
259,1778428577560,1.5465231,-0.759709,-0.039301075,-2.2289052,-2.5050082,7.2105937
260,1778428577570,1.5465231,-0.759709,-0.039301075,-2.2289052,-2.5050082,7.2105937
261,1778428577580,1.5465231,-0.759709,-0.039301075,-2.2289052,-2.5050082,7.2105937
262,1778428577590,1.5465231,-0.759709,-0.039301075,-2.2289052,-2.5050082,7.2105937
263,1778428577600,1.5465231,-0.759709,-0.039301075,-2.2289052,-2.5050082,7.2105937
264,1778428577610,1.5465231,-0.759709,-0.039301075,-2.2289052,-2.5050082,7.2105937
265,1778428577620,1.5465231,-0.759709,-0.039301075,-2.2289052,-2.5050082,7.2105937
266,1778428577630,1.5465231,-0.759709,-0.039301075,-2.2289052,-2.5050082,7.2105937
267,1778428577640,1.5465231,-0.759709,-0.039301075,-2.2289052,-2.5050082,7.2105937
268,1778428577650,3.033643857142857,-0.42854417885714285,0.17933102085714284,-2.048585322857143,-0.7523238357142857,6.116370057142857
269,1778428577660,3.4990353888888888,-0.01869011377777778,0.67814592,-1.7772091333333333,2.1947996666666665,3.6584404999999998
270,1778428577670,3.16552,0.03295924,0.78047234,-1.4518312,2.056341,3.0671403
271,1778428577680,3.16552,0.03295924,0.78047234,-1.4518312,2.056341,3.0671403
272,1778428577690,3.11836025,0.062122527500000004,0.80130816375,-1.22474873375,1.8804169812500002,2.9693952125000003
273,1778428577700,2.7445471222222224,0.37978164888888893,0.8284561444444445,1.1754907144444442,0.19583593444444444,1.9735118000000003
274,1778428577710,2.6488773888888892,0.5313216666666667,0.49893831333333327,2.2370838222222225,-0.05000463555555556,1.3123035555555558
275,1778428577720,2.5582488666666667,0.6018948666666667,0.33548704,2.6417362,0.25958464000000003,0.7360709666666667
276,1778428577730,2.477661311111111,0.6640461777777777,0.16747589333333332,2.7625483111111113,0.675961888888889,0.23841708444444443
277,1778428577740,2.4692597,0.6896744,0.11323831,2.7307162,1.0270633,-0.14362547
278,1778428577750,2.51240255,0.73708569,-0.061002034999999996,2.659858,1.2530768,-0.61886466
279,1778428577760,2.4637412666666667,0.7436985288888889,-0.20190540888888886,2.5022595,1.2695696,-1.521086
280,1778428577770,2.2903775,0.7820578275,-0.303653375,2.2479943749999998,0.90458841,-2.3543008
281,1778428577780,2.117124225,0.7906863749999999,-0.36673253250000004,2.0030445625,0.600081085,-2.8291391
282,1778428577790,1.9499308,0.7870581,-0.41755486,1.7026603,0.4504235,-3.1893864
283,1778428577800,1.7845486333333334,0.7762918777777778,-0.41421117,1.4375526444444444,0.5159877555555555,-3.411734788888889
284,1778428577810,1.6473064499999999,0.80218095,-0.256615575,1.0753202,0.73141325,-3.850781125
285,1778428577820,1.6362958875,0.8903339625,-0.21669327875,0.9984298625,0.68307995,-3.9902069625
286,1778428577830,1.7909352749999998,0.36174368250000005,-0.09335912,0.926731625,1.05332975,-4.3183847
287,1778428577840,1.7770167,-0.23000577749999998,0.600408505,1.92180185,0.48131902625,-5.386556
288,1778428577850,1.5264983,-0.14776606888888888,1.0628871933333333,3.7286626333333337,-0.76931122,-5.9885684999999995
289,1778428577860,1.1653119,-0.13104422,0.54399514,5.0990477,-1.4616048,-5.9730935
290,1778428577870,1.04770595,-0.595972275,0.8384864225,6.15216745,-2.8203007500000004,-5.877190675
291,1778428577880,1.219080275,-0.8805239,1.2040107500000001,7.91652345,-4.568927375,-6.126721525000001
292,1778428577890,1.438210611111111,-1.1025134622222224,0.5887403511111111,9.042219888888887,-5.172035444444444,-6.550819144444445
293,1778428577900,1.7817808,-0.28309578,-0.63061607,9.04769775,-4.0872554999999995,-6.430465375
294,1778428577910,1.503395725,-0.09951800025,-1.3836326675,8.00859,-3.369357,-6.7323766
295,1778428577920,1.2532099777777779,0.11882130000000002,-1.5875180444444446,5.101821977777778,-4.147712155555556,-6.543149844444445
296,1778428577930,1.1628829,-1.2727808777777776,-1.7949149444444445,2.3511765666666666,-2.432699266666667,-6.365257533333333
297,1778428577940,1.46315319625,-1.397036475,-0.999345685,0.69429470875,-1.72083305,-6.046929712500001
298,1778428577950,0.7896497466666667,-0.4349847,0.4292730133333333,0.4819245322222222,-1.7969089999999999,-6.017685277777778
299,1778428577960,0.5474252625,-0.14799644374999998,0.5590989412499999,1.10761875,-2.83341495,-5.3993456250000005
300,1778428577970,0.8809490888888889,-0.5869177277777777,0.20855213666666664,1.463615477777778,-3.2999240666666667,-4.104096
301,1778428577980,1.3799318875,-0.65466093125,-0.0704233155,1.2029873,-2.974139,-3.4661
302,1778428577990,1.8425058777777776,-0.14004204777777776,0.0670669208888889,0.5905026444444444,-1.6757406888888888,-3.4502180666666664
303,1778428578000,2.073291675,-0.11043327125,0.35226903,0.25632677875,-1.084864725,-3.9290458750000004
304,1778428578010,2.0001031555555553,-0.10888168944444444,0.4760779111111111,0.13779695545777776,-0.9591489777777777,-4.202713777777777
305,1778428578020,1.7498544624999999,-0.1947484,0.5682077,-0.03313846408,-1.146102175,-4.2571471
306,1778428578030,1.6380529,-0.2423312,0.6594287,-0.13117945,-1.4475553,-4.1966734
307,1778428578040,1.6380529,-0.2423312,0.6594287,-0.13117945,-1.4475553,-4.1966734
308,1778428578050,1.2306274222222222,-0.5455738222222223,0.6128575555555555,-0.2350913533333333,-1.7351286444444445,-4.2255865777777775
309,1778428578060,0.6780807600000001,-0.748801275,0.4938245675,-0.5234960825,-1.25208414,-4.035257125
310,1778428578070,0.1739430775,-0.80218855,0.39278205250000003,-0.8851176725,-0.5573981219999999,-3.5193964500000003
311,1778428578080,-0.19094483375,-0.8683776125,0.2963549425,-1.2154334,-0.040163208,-2.9627619
312,1778428578090,-0.47405542777777776,-0.9272661666666667,0.23682615777777777,-1.7097614666666667,0.4437720422222222,-1.985397722222222
313,1778428578100,-0.80525275875,-0.9994905,0.15469270999999998,-2.3782574625,0.70056544375,-0.5916819
314,1778428578110,-0.87099594,-1.0464635,0.11397006,-2.6363404,0.7326349,-0.0678804
315,1778428578120,-0.90522813,-1.076358525,0.10036408349999999,-2.8003528749999997,0.80670015,0.2931494
316,1778428578130,-1.0079247,-1.1660436,0.059546154,-3.2923903,1.0288959,1.3762388
317,1778428578140,-1.02265105,-1.282368975,0.0013377309874999998,-3.5843753625,1.2685770875,2.126053875
318,1778428578150,-1.030879922222222,-1.3643614444444445,-0.036285992777777776,-3.858849466666667,1.4847915444444444,2.9970371333333334
319,1778428578160,-1.0217592087499998,-1.4037747999999999,-0.012405450249999998,-4.039685824999999,1.5496431125,4.01487
320,1778428578170,-0.89133247,-1.4547495666666665,0.06801209933333334,-3.991403333333333,1.3561063333333334,5.239746200000001
321,1778428578180,-0.79535127,-1.4537739,0.10201815,-3.917287,1.2384164,5.8123646
322,1778428578190,-0.5361745725,-1.47739575,0.13019051999999998,-3.664396225,0.9777373625,6.83858765
323,1778428578200,-0.029544408,-1.4764886,0.078327745,-3.199999825,0.523419735,8.15788425
324,1778428578210,0.5337099855555556,-1.4261231333333333,-0.03998878311111111,-3.0066496555555555,0.4248357944444444,8.551140444444444
325,1778428578220,0.931670165,-1.358330075,-0.1068088225,-2.9381754375,0.51532603125,8.567666875
326,1778428578230,1.3276193374999998,-1.1979586500000001,-0.16848925,-2.9800184375,0.7273663625000001,8.117998462500001
327,1778428578240,1.4452519750000001,-1.047088475,-0.2038457325,-3.12868325,0.8254837500000001,7.405301475
328,1778428578250,1.3810764555555555,-0.9349562888888889,-0.17280479333333332,-3.249155977777778,0.8063438444444445,6.902251755555556
329,1778428578260,1.2268322875,-0.8525154075000001,-0.05618467937499999,-3.2532197999999997,0.6569662374999999,6.57874855
330,1778428578270,1.118906725,-0.77674502,0.11817000875,-3.0188836,0.222711105,6.733827375000001
331,1778428578280,1.2474372777777778,-0.7109459444444445,0.2395939288888889,-2.704212422222222,-0.29570097777777776,7.226408111111111
332,1778428578290,1.7413936749999999,-0.6546304125,0.22659096499999998,-2.1721631875000003,-0.772874515,7.9157405375
333,1778428578300,2.2786694,-0.5407937,0.08909056,-1.9331789,-0.7151494,7.8874125
334,1778428578310,2.581072066666666,-0.3941727222222222,-0.03023889244444445,-1.9538119666666667,-0.44257579999999996,7.382445388888889
335,1778428578320,2.6188724,-0.3758451,-0.045155074,-1.9563911,-0.4085041,7.3193245
336,1778428578330,2.6188724,-0.3758451,-0.045155074,-1.9563911,-0.4085041,7.3193245
337,1778428578340,2.6188724,-0.3758451,-0.045155074,-1.9563911,-0.4085041,7.3193245
338,1778428578350,2.6188724,-0.3758451,-0.045155074,-1.9563911,-0.4085041,7.3193245
339,1778428578360,2.6188724,-0.3758451,-0.045155074,-1.9563911,-0.4085041,7.3193245
340,1778428578370,2.6188724,-0.3758451,-0.045155074,-1.9563911,-0.4085041,7.3193245
341,1778428578380,2.6188724,-0.3758451,-0.045155074,-1.9563911,-0.4085041,7.3193245
342,1778428578390,2.6188724,-0.3758451,-0.045155074,-1.9563911,-0.4085041,7.3193245
343,1778428578400,2.6188724,-0.3758451,-0.045155074,-1.9563911,-0.4085041,7.3193245
344,1778428578410,2.6188724,-0.3758451,-0.045155074,-1.9563911,-0.4085041,7.3193245
345,1778428578420,3.8688803000000003,0.41948712125,1.05788180375,-1.2718794475,0.89130249625,0.3095754825
346,1778428578430,4.31713465,0.44528893125,1.1308472375,-0.3313082759375,1.1344197624999999,-1.491545825
347,1778428578440,4.2603097,0.2789492,0.9715506,-0.0132859275,1.5566679,-2.5974753
348,1778428578450,4.2603097,0.2789492,0.9715506,-0.0132859275,1.5566679,-2.5974753
349,1778428578460,4.2603097,0.2789492,0.9715506,-0.0132859275,1.5566679,-2.5974753
350,1778428578470,4.2603097,0.2789492,0.9715506,-0.0132859275,1.5566679,-2.5974753
351,1778428578480,3.6812174888888887,0.05193053444444445,0.9682136733333334,0.46552500444444445,1.7831565,-3.4450598
352,1778428578490,3.215878633333334,-0.17734774333333334,1.047113966666667,1.4782758333333332,1.4192272666666665,-4.308865666666666
353,1778428578500,3.2121387,-0.21232945,1.0337799,1.8822495,1.2298646,-4.497821
354,1778428578510,3.2121387,-0.21232945,1.0337799,1.8822495,1.2298646,-4.497821
355,1778428578520,3.2121387,-0.21232945,1.0337799,1.8822495,1.2298646,-4.497821
356,1778428578530,3.2121387,-0.21232945,1.0337799,1.8822495,1.2298646,-4.497821
357,1778428578540,3.2121387,-0.21232945,1.0337799,1.8822495,1.2298646,-4.497821
358,1778428578550,2.8854698888888892,-0.28467446222222226,0.9064418277777777,2.1890305555555556,1.6102866666666666,-4.686640677777778
359,1778428578560,1.8325493777777777,-0.5397503333333334,0.6369104666666667,3.0169491222222224,2.8194926444444444,-5.061361533333334
360,1778428578570,1.6822019,-0.63086,0.6623557,3.3752365,2.7753081,-5.039032
361,1778428578580,1.5445719,-0.76605076,0.6826008,4.0007443,2.443618,-5.134324
362,1778428578590,1.5445719,-0.76605076,0.6826008,4.0007443,2.443618,-5.134324
363,1778428578600,1.1522280375,-1.0808328375,0.45047214875,5.6246911125,1.09494369125,-5.5619168125
364,1778428578610,1.0691782,-1.1914415,0.30163345,6.033109,0.57381463,-5.6853843
365,1778428578620,1.0691782,-1.1914415,0.30163345,6.033109,0.57381463,-5.6853843
366,1778428578630,0.94507799,-1.27698,0.13324710125,6.13741145,-0.033405717500000015,-5.815342225
367,1778428578640,0.7774098555555555,-1.3706490333333334,-0.09042194833333334,6.125008177777777,-0.9262311,-5.991012011111112
368,1778428578650,0.7813909,-1.3719436,-0.1350421875,5.894819325,-1.1865708125,-6.0448683125
369,1778428578660,0.8424305288888889,-1.4259740777777778,-0.1581223622222222,5.539740055555556,-1.2457719999999999,-6.1870935
370,1778428578670,0.8740448725,-1.501375775,-0.193037175,5.163186625,-1.055773115,-6.445889125
371,1778428578680,0.8436772,-1.5482306,-0.22379355,5.025746,-0.9362761399999999,-6.558896
372,1778428578690,0.6031220625,-1.5679498125,-0.3223625575,4.671912625,-0.8240329774999999,-6.7187090625
373,1778428578700,0.341963525,-1.529197425,-0.4508647275,4.203163425,-0.83785334625,-6.665870625
374,1778428578710,0.08214656225,-1.4416161375,-0.53890340625,3.438745425,-0.8466343125,-6.341892575
375,1778428578720,-0.025374957250000003,-1.381387775,-0.54646862375,2.9171009999999997,-0.7815027125,-6.0655605375
376,1778428578730,-0.15292898222222223,-1.3300471444444444,-0.5888012977777778,2.217672522222222,-0.48703192222222225,-5.679140333333333
377,1778428578740,-0.2406238,-1.3215101,-0.633787,1.8181105,-0.1653869,-5.4734206
378,1778428578750,-0.39806438125,-1.2881811125,-0.6750127137499999,1.3253858475,0.26390511,-5.2825878875
379,1778428578760,-0.7133877,-1.23253755,-0.7213187375,0.76568751625,0.68682141,-5.0853033875
380,1778428578770,-1.0855037111111112,-1.2261386111111112,-0.7038757333333333,0.4006649066666667,0.7823850611111111,-4.854148822222222
381,1778428578780,-1.401960625,-1.245133625,-0.6672911862500001,0.16141638925000001,0.48836281374999996,-4.394511675
382,1778428578790,-1.6626884,-1.2570856,-0.61305404,0.037414394,0.02275406,-3.7654152
383,1778428578800,-2.0773907444444446,-1.0864251777777778,-0.4838324233333333,-0.12011632844444445,-1.05254076,-2.352432211111111
384,1778428578810,-2.182028925,-0.96445031875,-0.3158301825,-0.27350686125,-2.0737596625,-0.9959769350000001
385,1778428578820,-1.9445646,-1.03939,-0.18278505,-0.4246915475,-2.8195181625,0.4415662175
386,1778428578830,-1.4347026,-1.0318285,-0.065034284,-0.5602996250000001,-2.7510079750000003,1.850867175
387,1778428578840,-1.1760747,-1.0054855,-0.028812656,-0.6656708,-2.252041,2.6168697
388,1778428578850,-0.9483446355555556,-0.9757242244444444,-0.017155472066666663,-0.8217083333333333,-0.8806126555555556,3.925041488888889
389,1778428578860,-0.891263915,-1.00601142,0.014703602525,-0.9190197,0.453325025,5.19596215
390,1778428578870,-0.79424607,-1.0935699,0.024170618249999998,-0.8930586875000001,0.572898405,6.4809367
391,1778428578880,-0.5778996,-1.2304986,-0.013903250999999998,-0.83854055,0.27877542,7.493416
392,1778428578890,-0.30151150849999997,-1.3716654,-0.0773520755,-0.8232693950000001,-0.061199265,8.11041
393,1778428578900,0.8336190555555556,-1.8393451888888888,-0.35216822000000003,-0.95548388,-0.9330861444444444,9.720573444444446
394,1778428578910,1.441578,-2.0228925,-0.46319774,-1.320346275,-1.1151779625,10.37043025
395,1778428578920,1.74322675,-2.033144575,-0.430307125,-1.72518535,-1.0604308275,10.726964625
396,1778428578930,2.2607263499999997,-1.946028225,-0.27905594,-2.1747881,-0.98804543,11.2846395
397,1778428578940,2.7481024499999998,-1.9413670625,-0.190312175,-2.4231548,-0.8724426,11.92068425
398,1778428578950,3.4306846666666666,-1.9448458888888887,-0.11181546577777778,-2.5239445555555555,-0.5126874955555556,11.998296111111111
399,1778428578960,3.7180524,-1.8023003,-0.011220166,-2.5496001,-0.13545538,11.792101
400,1778428578970,3.83555905,-1.5862739000000001,0.02135414275,-2.6164878875,0.19311363625,11.4791085
401,1778428578980,3.8485240555555555,-1.3973375666666668,-0.03171255422222222,-2.8353409111111114,0.7496707933333333,10.769195
402,1778428578990,3.724897225,-1.20437665,0.0006631487500000002,-3.1674720250000004,1.052108,10.07554375
403,1778428579000,3.6338876666666664,-1.0452845955555554,0.1310814988888889,-3.475983822222222,1.1086453966666667,9.297663555555555
404,1778428579010,3.4623058,-0.82681656,0.26211897,-3.5764344,0.85724777,8.528268
405,1778428579020,3.3406903875,-0.68377847125,0.2357607075,-3.7486932,0.11865708,8.318136
406,1778428579030,3.416403625,-0.58097522,0.07760360875,-4.2113340500000005,-0.17248799374999998,8.2824683125
407,1778428579040,3.6178633111111114,-0.46779153333333334,0.22889884555555554,-4.488836600000001,-0.22443546666666667,7.400363666666667
408,1778428579050,3.7525732666666665,-0.10963377777777777,0.975568398888889,-4.3215999555555555,-0.42397890555555556,6.0447491555555555
409,1778428579060,3.3240355,0.4789418125,1.5550068124999998,-2.8913404625,-1.07700009375,4.10703145
410,1778428579070,2.856731733333333,0.9421078333333333,1.8142318000000002,-1.2337587319999999,-1.5088436666666665,2.8584087666666664
411,1778428579080,2.5431972,1.2326939,1.8488884,0.068567604,-1.748703,2.1196399
412,1778428579090,2.4548824,1.2747220777777777,1.6911014,0.6148856364444444,-1.7965526777777778,1.7639825966666667
413,1778428579100,2.012228625,1.42217895,0.68169375,3.297687625,-2.0278601125,-0.35062633125
414,1778428579110,1.8974582999999998,1.3837392,0.2125734,3.4638095,-1.9973178,-0.7953995
415,1778428579120,1.6833719249999999,1.3110444374999999,-0.3083335475,3.0453026249999997,-1.7030421375,-1.85094355
416,1778428579130,1.3749582333333334,1.1920817000000001,-0.6582803,2.1546873666666664,-1.3249786000000001,-2.2758896333333336
417,1778428579140,1.193342011111111,1.092136788888889,-0.7203164111111111,1.2457211733333335,-0.9409593333333333,-2.2398496666666667
418,1778428579150,1.128754888888889,1.0115223444444446,-0.7031677155555555,0.28059948444444444,-0.52110362,-1.9862123666666665
419,1778428579160,1.3009448,0.87101116,-0.61517308,-0.9198596125,0.14227968749999997,-1.316681215
420,1778428579170,1.5357908,0.79632694,-0.5249392,-1.4554963,0.4931828,-0.93833774
421,1778428579180,1.8618466000000002,0.8305057,-0.40706643,-1.9508933999999998,0.8963420000000001,-0.56266665
422,1778428579190,2.5515208,1.0310968,-0.1554664,-2.3284543500000003,1.3631820499999998,-0.377121825
423,1778428579200,3.0443849333333333,1.058649211111111,-0.04637127622222223,-2.5023613444444446,1.7596049222222223,-0.6098376499999999
424,1778428579210,4.247626,0.9444758,0.21867129,-2.3785533500000002,2.2798346,-1.787730325
425,1778428579220,4.850923,0.4768571300000001,0.32581168,-2.0535157,2.3648188,-2.978644
426,1778428579230,4.850923,0.47685713,0.32581168,-2.0535157,2.3648188,-2.978644
427,1778428579240,4.6080889375,0.107380515625,0.44935547875,-1.2351331140000001,2.412617625,-4.6818769875
428,1778428579250,4.250797,-0.3096827,0.57033813,-0.106745556,2.3733706,-6.4330616
429,1778428579260,4.250797,-0.3096827,0.57033813,-0.106745556,2.3733706,-6.4330616
430,1778428579270,3.68750935,-0.49116813875,0.3109785,0.585401661,2.3539762499999997,-6.4403916500000005
431,1778428579280,3.3907769,-0.5681429,0.15107588,0.8853468,2.4656086,-6.370755
432,1778428579290,3.3907769,-0.5681429,0.15107588,0.8853468,2.4656086,-6.370755
433,1778428579300,2.77142315,-0.6137514925,0.029125174250000004,0.5780237300000001,3.3125387625,-6.154286150000001
434,1778428579310,2.4922185,-0.648422,0.10982348,0.56770617,3.729528,-6.1001496
435,1778428579320,2.4922185,-0.648422,0.10982348,0.56770617,3.729528,-6.1001496
436,1778428579330,2.016289677777778,-0.7444811233333334,0.37835880666666666,1.5670522677777778,3.6301634666666667,-6.0187035
437,1778428579340,1.5447446333333332,-0.8736993666666667,0.5906849,3.2583101333333335,2.9170756333333334,-5.980831133333333
438,1778428579350,1.4540651888888891,-0.9530705111111111,0.5594635488888888,3.9946356,2.4222383,-6.043952
439,1778428579360,1.273671875,-1.076434775,0.428782655,5.26408125,1.349972425,-6.3616690125
440,1778428579370,1.0185350375,-1.297469,0.24069241000000002,6.23820125,0.39130493499999996,-6.675873525
441,1778428579380,0.87684995,-1.3988621,0.13982524,6.719702,-0.22036316,-6.863709
442,1778428579390,0.6843882625,-1.5409778875,-0.12760271375,7.030928375,-0.8439618637499999,-7.0227583749999996
443,1778428579400,0.5432329,-1.6451265,-0.379016,7.0483375,-1.1219738,-7.079949
444,1778428579410,0.3650823,-1.7019895,-0.6928453,6.5486646,-1.0138538,-6.963277
445,1778428579420,0.186085556,-1.74969815,-0.9780220249999999,5.5203983125,-0.59534703125,-6.6054731625
446,1778428579430,0.021529031999999997,-1.7787793444444446,-1.2287810888888888,3.9388278555555556,0.06872032555555556,-6.045512899999999
447,1778428579440,-0.12519024,-1.803276,-1.4013013,2.4393423,0.72347224,-5.540003
448,1778428579450,-0.306553705,-1.85927,-1.497354875,0.9106969475,1.4920707174999999,-5.095773725
449,1778428579460,-0.5209857111111111,-1.9538403,-1.4396639666666669,-1.3245883777777776,2.6674767666666668,-4.518657777777777
450,1778428579470,-0.727512,-2.0255756,-1.3056555,-2.4207113,3.1944258,-4.225994
451,1778428579480,-1.1375054444444443,-2.109679322222222,-0.9798505555555556,-3.3620948444444445,3.5309347444444446,-3.596346277777778
452,1778428579490,-1.48113065,-2.13090175,-0.65685235,-3.66302195,3.480760375,-3.04352735
453,1778428579500,-1.6905254,-2.087317,-0.3951145,-3.4793096,3.077143,-2.4941657
454,1778428579510,-1.860462975,-1.920401625,-0.067271453375,-2.3888613750000003,1.9056239625,-1.47710503
455,1778428579520,-1.875044575,-1.8047623,0.016647312625,-1.0833376375000001,0.655887725,-0.6181774124999999
456,1778428579530,-1.853035,-1.7263812,-0.027318668,-0.2997733,-0.1293469,-0.18577392
457,1778428579540,-1.8340094875,-1.473984675,-0.14602223075,0.743458405,-1.439633325,0.72933257
458,1778428579550,-1.73945365,-1.2358648250000002,-0.251127445,1.5006990500000001,-2.664362975,1.8215561125000002
459,1778428579560,-1.5428644,-1.0747883,-0.3184942,1.6989954,-3.4506,2.9761243
460,1778428579570,-1.5428644,-1.0747883,-0.3184942,1.6989954,-3.4506,2.9761243
461,1778428579580,-0.887963425,-0.9073699825,-0.32629954,1.3353884999999999,-3.35927825,4.6361111375
462,1778428579590,-0.1849803,-0.86782503,-0.32971436,0.6776587,-2.521501,6.3755655
463,1778428579600,0.39081548222222223,-0.8932770200000001,-0.2975918877777778,0.09680232888888889,-1.5269653955555558,7.163083744444445
464,1778428579610,1.0698693444444443,-0.9195048855555557,-0.2171400503333333,-0.8808247688888888,-0.06607330222222221,7.910641544444445
465,1778428579620,1.3410233,-0.79803437,-0.019513333,-1.5184135,0.7369109,8.180085
466,1778428579630,1.5081807777777776,-0.6595134111111112,0.3961952177777778,-1.7132059444444445,0.7457342044444445,8.896948111111112
467,1778428579640,2.011645575,-0.7890856625,0.5827474275,-1.431520575,0.2915841275,9.736982000000001
468,1778428579650,2.5938099,-1.0106789,0.47629811999999994,-0.8721371866666666,-0.13050072666666668,10.047376444444446
469,1778428579660,3.0273641625,-1.2071550624999998,0.26292312412499996,-0.32008395925,-0.325581585,9.772105
470,1778428579670,3.2983733333333336,-1.3878960333333332,-0.064099268,-0.03880576955555556,-0.3286188711111111,9.30160011111111
471,1778428579680,3.2943555555555557,-1.4207638333333332,-0.12104703444444444,0.11214137666666667,-0.6074367333333333,9.062555
472,1778428579690,3.3297217249999997,-1.438711975,-0.0675877845,0.3213056575,-1.256360175,9.21256925
473,1778428579700,3.4093454,-1.4388949,-0.024391668,0.5480827,-1.5660597,9.33764
474,1778428579710,3.453730625,-1.321026025,-0.021190261499999998,0.684931575,-1.660741025,9.5482295
475,1778428579720,4.005973125,-1.0509378575000001,-0.4113425835,1.029659385,-1.39990919,10.80861775
476,1778428579730,4.672518566666667,-0.9126650199999999,-1.0173459,0.17633124000000003,0.19076252666666668,10.599701333333334
477,1778428579740,4.9839187,-0.8436772,-1.2973622,-0.72980976,1.3440931,9.843422
478,1778428579750,4.724257925,-0.4690479335,-1.211396875,-2.6407690625000004,2.8869501125,7.6747613999999995
479,1778428579760,3.5693087500000003,0.048394589,-0.40707406999999995,-4.132916375,2.9961772499999997,5.2250823749999995
480,1778428579770,2.7514181125,0.33731006750000003,0.49008577375,-3.9849386,2.02900554,4.35266855
481,1778428579780,2.280126255555556,0.5994794288888889,1.1184968833333333,-2.4615362222222226,-0.13229082222222227,3.752850411111111
482,1778428579790,2.1080155625,0.79057969125,1.31162005,-1.2615523,-1.4051108875,3.5690277875
483,1778428579800,2.13369155,1.0384142625,1.00064529,0.413400425,-2.7488126875,3.4063133625
484,1778428579810,2.322368825,1.1923295125,0.48217370750000005,1.5258200999999998,-2.77834335,2.7053471250000003
485,1778428579820,2.35390255,1.34304335,0.10072234,1.53383747875,-2.0486288750000003,2.0254168675
486,1778428579830,2.250112225,1.5408254375000001,-0.35030624625,0.7793456725,-0.243861665,0.6439666435
487,1778428579840,2.0143552,1.6119233,-0.49274215,0.1369825,0.68071294,-0.046500746
488,1778428579850,1.6588086625,1.6007565,-0.48065303875,-0.79119993125,1.42090708,-0.77325625575
489,1778428579860,1.42254485,1.504920075,-0.3941312175,-1.5240639,1.642797325,-1.2834664500000001
490,1778428579870,1.3551400222222223,1.3961417777777776,-0.2810936522222222,-1.9083546444444446,1.4703348333333333,-1.5785056666666668
491,1778428579880,1.35323445,1.25776405,-0.056138945999999995,-2.215772025,1.22925375,-1.97967955
492,1778428579890,1.4759626875,1.08286428625,0.0943271475,-2.184609225,1.235133125,-2.2738884875
493,1778428579900,1.562514925,0.9555588225,0.1790119625,-2.0083893374999997,1.355699175,-2.691622175
494,1778428579910,1.6441507,0.835872,0.2335502,-1.78520105,1.464200875,-3.0531673
495,1778428579920,1.8213258,0.6989432,0.2728513,-1.6259227,1.4754252,-3.2156527
496,1778428579930,2.2754986,0.46880785,0.29090112,-1.3150015,1.4974157,-3.478317
497,1778428579940,2.2754986,0.46880785,0.29090112,-1.3150015,1.4974157,-3.478317
498,1778428579950,3.3858720125,0.10803221775,0.4495612825,-0.6043570275,1.3160704125,-4.4299405875
499,1778428579960,3.610557375,0.09433477125,0.46465742625,-0.32237464,1.2231452,-4.8521123
500,1778428579970,3.8071835333333337,0.09534431266666667,0.41503097666666666,-0.17807894333333335,1.2509727888888889,-5.271162333333333
501,1778428579980,4.1160175500000005,-0.076505987,0.3279383325,-0.22372281,1.727246925,-5.840387
502,1778428579990,4.201380725,-0.3049415675,0.330735755,-0.35742201375,2.3523058625,-6.1063346874999995
503,1778428580000,4.200407388888888,-0.47713148222222224,0.3861979822222222,-0.39017870666666665,3.081079677777778,-6.339058944444445
504,1778428580010,4.1597853,-0.6916257,0.41048127,-0.30466008,3.573762,-6.5979905
505,1778428580020,3.7797329,-1.00224595,0.49754428500000003,0.26375239500000003,4.0060892500000005,-7.138590199999999
506,1778428580030,3.308661225,-1.156599425,0.541182495,0.8809180999999999,3.8986562125,-7.4046905125
507,1778428580040,2.7866430666666666,-1.2332934999999998,0.47459074,1.7376822222222224,3.244701855555556,-7.336843888888889
508,1778428580050,2.309776575,-1.2801509000000002,0.342451385,2.536619525,2.5489893,-7.074451175
509,1778428580060,1.8572019000000002,-1.3671529333333334,0.26748512,3.1685156,1.9893513,-6.820338899999999
510,1778428580070,1.538092775,-1.395637825,0.2550987325,3.708453625,1.5139086499999999,-6.63143435
511,1778428580080,1.2438034625,-1.4094418874999999,0.24336786125,4.1675053,1.1089169,-6.5008655
512,1778428580090,0.8738890466666667,-1.4021109111111112,0.2019426711111111,4.827899111111112,0.4753239726666666,-6.271594133333333
513,1778428580100,0.5643452577777778,-1.3608043666666667,0.12845938622222222,5.457818466666667,-0.2519235973333333,-5.939700566666667
514,1778428580110,0.34264195,-1.3112656,0.049301658,5.7392154,-0.6485671,-5.7287545
515,1778428580120,0.08023333667499999,-1.2307959,-0.15320254,6.0218085,-1.41731835,-5.205239349999999
516,1778428580130,-0.011687673488888889,-1.2049889888888887,-0.30259217555555556,5.998902,-1.7059437,-4.9596214
517,1778428580140,-0.112994395,-1.1553113,-0.45075798,5.7037864,-1.8690399,-4.690849
518,1778428580150,-0.2288014625,-1.1240290499999999,-0.631401155,5.0881285875,-1.830480125,-4.426275400000001
519,1778428580160,-0.28760148111111117,-1.176464288888889,-0.8077944111111112,4.1521495,-1.4568537555555556,-4.205360766666667
520,1778428580170,-0.4015706875,-1.2935662749999999,-1.042759,3.02781725,-0.726221045875,-4.023879825
521,1778428580180,-0.50664544,-1.3459321,-1.1275048,2.1785104,-0.038330667,-3.8576530999999994
522,1778428580190,-0.5792792475,-1.3996509375,-1.1337589750000001,1.2387886375000001,0.6754348141250001,-3.6081220000000003
523,1778428580200,-1.2136455125,-1.88897825,-1.145409775,-1.400539225,2.3723017,-2.78376455
524,1778428580210,-1.4235282,-2.077804,-1.0918624,-2.338858,2.7227752,-2.3622227
525,1778428580220,-1.68868085,-2.285003675,-0.894000265,-2.7798896500000003,2.64611385,-2.03725195
526,1778428580230,-2.1429603,-2.58323,-0.5278661,-3.5520005,1.8138345,-0.87603134
527,1778428580240,-2.1429603,-2.58323,-0.5278661,-3.5520005,1.8138345,-0.87603134
528,1778428580250,-2.191072911111111,-2.5881930444444445,-0.2092296488888889,-2.7731532666666667,0.5576356222222222,0.5392848144444444
529,1778428580260,-2.1678170625,-2.5648714875,0.29867215874999997,-0.7684458675,-1.987095725,3.639122575
530,1778428580270,-1.8701397000000002,-2.490999,0.21989086,0.25670856,-2.6082416,4.7995033
531,1778428580280,-1.8701397,-2.490999,0.21989086,0.25670856,-2.6082416,4.7995033
532,1778428580290,-1.2017127,-2.317315075,-0.12083021587500002,0.8882196600000001,-2.411224175,6.0739310374999995
533,1778428580300,-0.4241406,-2.078048,-0.5083528,1.2567419,-1.8708725,7.3834634
534,1778428580310,-0.4241406,-2.078048,-0.5083528,1.2567419,-1.8708725,7.3834634
535,1778428580320,0.45365450925,-1.6273243375,-0.4892472925,0.54161154,-1.18191305,8.598047175
536,1778428580330,1.081618,-1.4391388,-0.48246717,0.112548605,-1.0578347,9.520894
537,1778428580340,1.7480254666666668,-1.3357520333333333,-0.6209034311111111,-0.31993124333333334,-0.8236766044444445,9.700958333333332
538,1778428580350,2.568839,-1.1894901,-0.79218036,-0.8959602,-0.44087902,9.611911
539,1778428580360,2.9732223,-0.97838026,-0.81340116,-1.5031424,-0.029778805,9.257619
540,1778428580370,2.9732223,-0.97838026,-0.81340116,-1.5031424,-0.029778805000000002,9.257619
541,1778428580380,3.4009415375,-0.6850437675000001,-0.17882141499999998,-1.9063301875,0.1327352,8.771842625
542,1778428580390,3.7417123,-0.37999168,0.5056698,-1.904469,-0.06765133,8.266825
543,1778428580400,3.7417123,-0.37999168,0.5056698,-1.904469,-0.06765133,8.266825
544,1778428580410,4.217149811111111,-0.3188566966666666,0.20583858888888887,-1.237898911111111,0.34859017888888894,8.255617444444445
545,1778428580420,4.6735044,-0.19839573,-0.2806566,-1.1800042,1.5340666,7.872752
546,1778428580430,4.773441675,-0.15459362975,-0.22147250749999997,-1.4083179000000001,1.7609199625,7.5464832875
547,1778428580440,5.26129025,0.09534854899999999,0.450453125,-2.1374976625000004,2.223483925,5.7472231625
548,1778428580450,5.334122,0.2965112,0.9744775999999999,-1.3907465,1.1614497,4.5643272
549,1778428580460,5.334122,0.2965112,0.9744776,-1.3907465,1.1614497,4.5643272
550,1778428580470,5.246064575,0.62204464375,1.04391759375,0.9644228375,-0.9310648375,2.483657245
551,1778428580480,4.9853826,0.8346523,0.56545985,2.8944235,-2.1701877,0.30175856
552,1778428580490,4.9853826,0.8346523,0.56545985,2.8944235,-2.1701877,0.30175856
553,1778428580500,4.27808135,0.9066077625,-0.0639671375,2.388031125,-1.286816615,-0.77718862
554,1778428580510,3.0643353666666666,0.9612146133333334,-0.8502529,1.020344,0.2916032,-2.0641294
555,1778428580520,2.7853301375,0.9401158224999999,-0.8113202625,0.873120265,0.37093698750000004,-2.078407925
556,1778428580530,2.540951222222222,0.9081221133333334,-0.6613529644444445,-1.1360232,1.2500225,-2.2376099
557,1778428580540,2.3232034749999997,0.8557168774999999,-0.45019396375,-1.9007370749999999,1.5065021125,-2.3873533
558,1778428580550,2.17130805,0.7727813499999999,-0.21484866425,-2.3445081625,1.80764975,-2.6615378250000004
559,1778428580560,2.03077385,0.701016475,0.0024315470000000027,-2.41246495,2.048934425,-2.97238275
560,1778428580570,1.9467599,0.6625996,0.1334834,-2.282049,2.1552982,-3.266353
561,1778428580580,1.862178025,0.50709892625,0.30239951625,-1.7238873124999998,2.021064425,-3.7903072
562,1778428580590,1.7661472125,0.40109812499999997,0.3730515,-1.176797225,1.788026275,-4.174224875
563,1778428580600,1.671621822222222,0.31200331333333337,0.3642861744444444,-0.5276193102222222,1.4661945666666665,-4.6075019444444445
564,1778428580610,1.5515311500000002,0.18517085075,0.2575302725,0.0722326885,1.1611443125,-5.0436226374999995
565,1778428580620,1.4486517,0.054667823,0.15595421,0.41003123,1.0179006,-5.3494186
566,1778428580630,1.3575013333333334,-0.0946057868888889,0.113560144,0.6955598955555555,0.9259341655555554,-5.579707899999999
567,1778428580640,1.278207225,-0.292966775,0.0713761175,0.956205,0.84136575,-5.7666273
568,1778428580650,1.2494022,-0.44434755000000004,0.04832599,1.1897014000000001,0.807769175,-5.888796675
569,1778428580660,1.2454046555555556,-0.5969995777777777,0.04669987955555556,1.3638438,0.8383115333333334,-5.987346666666667
570,1778428580670,1.2531829,-0.7219019,0.056375243,1.4729818,0.8700756,-6.0561686
571,1778428580680,1.2387545333333334,-0.8936937277777778,0.041767340333333326,1.6563717555555555,0.9006179111111111,-6.226934488888889
572,1778428580690,1.2068082000000002,-1.0284848,0.023436326666666663,1.7997851,0.8535827,-6.375642
573,1778428580700,1.211595175,-1.098055675,-0.008849602500000001,1.8429261625,0.69483873125,-6.47429335
574,1778428580710,1.1853053875,-1.1663828125,-0.10269273625,1.7887135125,0.5735855625,-6.6150939875
575,1778428580720,1.066562951111111,-1.2173847666666666,-0.18986542111111113,1.6374354000000002,0.5208745522222222,-6.795225988888889
576,1778428580730,0.888026532857143,-1.2388527285714286,-0.1984174957142857,1.4179182857142858,0.3977160985714286,-6.957168328571429
577,1778428580740,0.7217257133333335,-1.2242889222222224,-0.15364718111111111,1.3133470999999999,0.22066857555555558,-7.0070542444444435
578,1778428580750,0.48265775,-1.2085119,-0.13259920125,1.2775870249999999,-0.13492089000000002,-6.9691563
579,1778428580760,0.12299158888888889,-1.1458662555555557,-0.09060148888888889,1.3256318111111112,-0.7242442911111111,-6.747172866666667
580,1778428580770,-0.0939689,-1.0581715,-0.05491174,1.372192,-1.1537378,-6.499644
581,1778428580780,-0.307929535,-0.9490569000000001,-0.08353764500000001,1.3732609875,-1.5054331125,-6.0351709875
582,1778428580790,-0.4478513133333334,-0.8789469222222223,-0.1308172488888889,1.1769244922222222,-1.7045183666666666,-5.238711144444444
583,1778428580800,-0.5907357075,-0.80770338,-0.1975153325,0.8647210812499999,-1.5769022,-4.6075443125
584,1778428580810,-0.623315511111111,-0.8265963533333333,-0.20481548444444445,0.18578241777777776,-0.9211406333333334,-3.514628422222222
585,1778428580820,-0.7822034911111111,-0.7603763222222223,-0.15428745666666666,-0.18018297111111112,-0.2648192466666666,-2.8982666111111115
586,1778428580830,-1.01707155,-0.7043093625,-0.06173378675,-0.354367755,0.24282132625000002,-2.3493948625
587,1778428580840,-1.2114426,-0.69333315,0.006341833,-0.31321192,0.59030753,-1.7935239
588,1778428580850,-1.4803263875,-0.71507984375,0.07761123475,0.05757235875,0.5372306275000001,-0.95162367425
589,1778428580860,-1.6238819444444443,-0.7510634855555556,0.02969347,0.6503147944444445,0.04827389222222223,0.2332842602222222
590,1778428580870,-1.63417305,-0.76730854,-0.08251624375,1.093874725,-0.44462046125,1.165954675
591,1778428580880,-1.5221755888888888,-0.8457133555555555,-0.24141652222222224,1.5749254,-1.0681513,2.289124577777778
592,1778428580890,-1.3898371,-0.9244442,-0.36288702,1.8187214,-1.4683241,3.1074564
593,1778428580900,-1.1681322,-1.01901525,-0.476201575,1.8803406,-1.67532495,3.9773028
594,1778428580910,-0.8659584444444444,-1.1239578666666667,-0.5715882222222223,1.8469560444444444,-1.8190182444444443,5.267352855555555
595,1778428580920,-0.30267009375,-1.2573523125,-0.6352009125,1.4415231625,-1.451907625,6.7613155625
596,1778428580930,-0.01683025,-1.3054115,-0.6757711,1.1956571,-1.156792,7.346202
597,1778428580940,0.41225347375,-1.3599879,-0.76157264,0.62427636325,-0.3654298275,8.046165875
598,1778428580950,0.99064468125,-1.338908175,-0.8188892624999999,-0.2507527955,0.5092175625,8.703123000000001
599,1778428580960,1.2444763888888888,-1.3047577222222222,-0.7993318666666667,-0.8958923222222224,0.8484244333333334,9.081152555555555
600,1778428580970,1.683726325,-1.24896775,-0.724455375,-1.6185925,0.9048939,9.345581
601,1778428580980,1.8741880666666664,-1.2094879777777778,-0.6792605166666666,-2.098667544444444,0.7886971222222222,9.221172222222222
602,1778428580990,2.0664696,-1.093585175,-0.5417770675,-2.4704953,0.5855734175,8.91554425
603,1778428581000,2.071011844444444,-0.9700159133333334,-0.35982789333333337,-2.6666790000000002,0.28608012866666666,8.531118666666666
604,1778428581010,1.9677368,-0.85270226,-0.1688818,-2.661385,0.082006246,8.432976
605,1778428581020,1.9411842625,-0.767903015,0.05016298625,-2.501572375,-0.18898087425,8.471458499999999
606,1778428581030,2.03021,-0.7089438,0.18083371,-1.8861436,-0.66322744,8.380443
607,1778428581040,2.2218064749999997,-0.6021235375,-0.05967573775,-1.559034975,-0.49936763999999995,8.01737075
608,1778428581050,2.4705481,-0.43453755250000003,-0.33733675,-1.76979635,0.05255195499999997,7.548239499999999
609,1778428581060,2.6632957,-0.26065546,-0.5168899,-2.1959195,0.596416,7.065823
610,1778428581070,2.6923214625,-0.041759297375000004,-0.3315285,-2.9724591375,0.8441145875,5.9591014375
611,1778428581080,2.43061075,0.26634556875,0.3778040625,-2.966197925,0.3939869525,5.1608956625
612,1778428581090,2.148749933333333,0.5391879766666666,0.8672389111111111,-1.9738340944444444,-0.5187959711111111,4.6287374888888895
613,1778428581100,1.9049968125,0.90652005625,0.95787601,-0.3298384375,-1.5310887,4.3056332500000005
614,1778428581110,1.8544985,1.0328041,0.82730436,0.6941516,-1.9942635,4.165444
615,1778428581120,2.1284980555555557,1.079229611111111,0.48327348,1.5998344444444443,-2.1224056333333334,3.7804743999999997
616,1778428581130,2.466767325,1.1443274250000002,0.208533525,1.9150825,-1.972120275,3.147314275
617,1778428581140,2.6106503,1.2196375333333334,-0.017843174222222227,1.8391508111111112,-1.6761478666666667,2.377519422222222
618,1778428581150,2.505390225,1.30126495,-0.2411116225,1.0990574375,-0.80479126,0.8808417625
619,1778428581160,2.32602,1.3034602,-0.23672112999999997,0.48699800000000004,-0.22219568,0.3891097
620,1778428581170,2.3021009,1.2922629125,-0.2146047475,0.35306973374999995,-0.10673600750000001,0.37131877375
621,1778428581180,2.1346672,1.2138819,-0.05979007,-0.58442813,0.7014817,0.24678228999999996
622,1778428581190,2.26407265,1.25835855,0.058456155499999995,-0.73469657,0.7166002,0.247698565
623,1778428581200,2.5687575222222225,1.2203184888888887,0.14287757844444443,-0.7586553444444444,0.6655095955555556,0.055680426666666664
624,1778428581210,3.2477695124999997,0.98965763125,0.17687007625,-0.63833539,0.67964392,-0.561444985
625,1778428581220,3.5076742,0.87709385,0.16253997,-0.54533386,0.852361,-1.1625187
626,1778428581230,3.5076742,0.87709385,0.16253997,-0.54533386,0.852361,-1.1625187
627,1778428581240,3.5076742,0.87709385,0.16253997,-0.54533386,0.852361,-1.1625187
628,1778428581250,3.6438100999999996,0.373672725,0.38390958000000003,0.21908419625000003,1.4463335750000001,-3.238549875
629,1778428581260,3.6397245,0.3287387,0.41194475,0.78333527,1.1797751,-3.75442
630,1778428581270,3.9344064999999997,-0.027333910250000003,0.45600983250000005,1.37417725,0.6384117425,-4.07603125
631,1778428581280,4.110484,-0.12836114,0.34800813,1.6128658,0.43087637,-4.282192
632,1778428581290,4.110484,-0.12836114,0.34800813,1.6128658,0.43087637,-4.282192
633,1778428581300,3.9934478444444443,-0.3735753322222222,0.11343142277777779,1.2785287333333333,0.80200002,-4.857966466666666
634,1778428581310,3.7004902,-0.64012885,-0.078327745,0.5208045575,1.634856325,-5.5922302
635,1778428581320,3.7004902,-0.64012885,-0.078327745,0.22983128,2.0233552,-5.6499553
636,1778428581330,2.8096875,-0.84873091875,0.228054471375,0.174549605,2.324961075,-5.519997575
637,1778428581340,2.2650474666666667,-0.9657575555555555,0.4484374377777778,0.3759086288888889,2.4944541222222223,-5.346771288888889
638,1778428581350,1.940098025,-1.0073453749999999,0.54052316125,0.783029875,2.436440675,-5.2313626375
639,1778428581360,1.6718696,-1.0244195,0.5721027624999999,1.2775106625,2.29296785,-5.067817912500001
640,1778428581370,1.303826011111111,-1.041829077777778,0.5244208277777778,2.1548908333333334,2.041273222222222,-4.811864444444444
641,1778428581380,1.1116197,-1.0496345,0.46758825,2.6745183,1.896299,-4.6755776
642,1778428581390,0.9118587577777778,-1.0594011777777779,0.37892794333333335,3.275278011111111,1.6601047222222223,-4.491169844444444
643,1778428581400,0.7937759911111111,-1.0706958333333334,0.3297651788888889,3.654800911111111,1.4647014,-4.374633722222223
644,1778428581410,0.7284876,-1.0730809,0.31065837,3.9121714,1.2616286,-4.3078475
645,1778428581420,0.638733915,-1.104553725,0.247453465,4.3231187125,0.62639522,-4.306244075
646,1778428581430,0.5198812977777778,-1.1472078222222222,0.16938996422222222,4.656658344444445,-0.014711240000000002,-4.358072822222223
647,1778428581440,0.40560293,-1.1572627,0.110555224,4.86998,-0.564881,-4.4440665
648,1778428581450,0.34142238,-1.1401885,0.006829667,4.984819,-1.0694408,-4.558295
649,1778428581460,0.28205912666666666,-1.1382913333333335,-0.22704238222222223,4.813985311111111,-1.3043455666666666,-4.6727271111111115
650,1778428581470,0.22550097,-1.1555552,-0.3785282,4.5389004,-1.264912,-4.722613
651,1778428581480,0.08932770955555555,-1.1139132444444444,-0.5238076622222222,3.8524269555555555,-1.0659115555555556,-4.636958533333333
652,1778428581490,-0.035455997777777776,-1.0497428555555557,-0.6371814911111111,3.077949077777778,-0.8401695066666668,-4.4389760888888885
653,1778428581500,-0.07247374,-1.0381703,-0.69943106,2.1174257,-0.53067356,-4.1392536
654,1778428581510,-0.10155063777777779,-1.03836,-0.7214885688888889,1.0616525333333333,-0.08486534777777778,-3.8985800222222218
655,1778428581520,-0.15292898000000002,-1.0455758444444445,-0.7175317333333333,0.26478532666666665,0.26710144888888887,-3.7610714444444446
656,1778428581530,-0.21159773,-1.0706416,-0.7133343,-0.26495498,0.49135026,-3.7031088
657,1778428581540,-0.4358447975,-1.0820372375,-0.6644442875,-0.83991496625,0.652308495,-3.5483353625
658,1778428581550,-0.7286502333333333,-1.0414225666666668,-0.5479689799999999,-1.2274466666666666,0.5874568866666666,-3.2500637
659,1778428581560,-0.8363598,-1.0308529,-0.48761994,-1.264912,0.42660046,-3.0843205
660,1778428581570,-1.048826425,-0.990915275,-0.4269532675,-1.033400835,-0.336796365,-2.4497361375
661,1778428581580,-1.258793,-0.9263243666666666,-0.42528905,-0.7656461266666666,-1.2290755933333335,-1.7234801333333334
662,1778428581590,-1.345288125,-0.865686975,-0.43499110249999995,-0.6279509325,-1.8213937625,-1.187487125
663,1778428581600,-1.3219330999999999,-0.826332575,-0.42582132375,-0.527161185,-2.4862342,-0.49226653125000003
664,1778428581610,-1.2093388,-0.8183810466666667,-0.40089736666666664,-0.5123481244444444,-2.978279177777778,0.3404540277777778
665,1778428581620,-1.1284804,-0.78535074,-0.3445933,-0.5465556,-3.1830487,1.1111312
666,1778428581630,-0.9604333650000001,-0.77034599,-0.28498233624999997,-0.6363501524999999,-3.1021879125,2.0401630625
667,1778428581640,-0.59815481,-0.6967581333333333,-0.23184280333333332,-0.8383369577777778,-2.5663475,3.464123311111111
668,1778428581650,-0.298462525,-0.60852635,-0.18902017999999998,-1.04928293,-1.6094298,4.5658543
669,1778428581660,-0.14702415355555554,-0.5894753888888888,-0.15396901222222223,-1.1276071666666665,-1.1045984944444445,4.971966
670,1778428581670,0.049301658,-0.6352505,-0.08344999,-1.1726741,-0.41827765,5.408518
671,1778428581680,0.33719445333333337,-0.7219730333333333,-0.04344765666666667,-1.0644862022222223,-0.03195070533333334,5.760569555555556
672,1778428581690,0.57666088375,-0.783090645,-0.056805902500000005,-0.7890619275,0.13644800624999998,6.17902525
673,1778428581700,0.7819866877777778,-0.7647566688888889,-0.09556790444444446,-0.42479334,-0.33683135999999997,6.979693533333333
674,1778428581710,1.1361943666666667,-0.8237370666666667,-0.12463125,-0.10837448333333335,-0.8159392333333334,8.001055733333333
675,1778428581720,1.6136306875,-0.8846057625,-0.1688513125,0.22418094249999998,-0.9729270000000001,8.92898375
676,1778428581730,2.0588497333333335,-0.918813788888889,-0.2135388788888889,0.5476160777777778,-0.8090841711111111,9.709374555555556
677,1778428581740,2.6911060125,-0.9892383625,-0.35537516,0.8322030575,-0.210121915,10.225506
678,1778428581750,3.533316,-1.0106077,-0.63061607,0.9006179600000002,0.65688986,9.851363
679,1778428581760,3.8598287,-0.7558063,-0.8221821,0.6507814,1.3337086,8.540484
680,1778428581770,3.6601219222222223,-0.5608017255555555,-0.8623911044444444,0.32853402,1.2857910533333332,7.119730233333333
681,1778428581780,2.962116525,-0.14852620500000002,-0.5793364125,0.12102411625,0.8070723745,6.0550999375
682,1778428581790,2.4675527,0.13909347,-0.2289158,0.3086306,-0.023059484,6.2362924
683,1778428581800,2.4170389,0.2707627675,-0.2755953625,0.6967476475000001,-0.7823425749999999,6.802776762500001
684,1778428581810,2.4852099500000002,0.32551061625,-0.68518100625,0.6889498212499999,-0.3758905375,7.056736625
685,1778428581820,2.52485765,0.3845651125,-0.9131020875,-0.15416257625,0.7142331749999999,6.881957925
686,1778428581830,2.6128286333333333,0.4140654822222223,-0.9263108388888889,-1.366796177777778,1.9588175222222222,6.383642466666667
687,1778428581840,2.6269217,0.4934739,-0.87684995,-2.5288312,2.9232097,5.509995
688,1778428581850,2.2130256,0.600096,-0.58204615,-3.6155286,3.5432196,4.36458
689,1778428581860,1.7559257,0.66162395,-0.011951917,-4.062058,3.27689,3.4067714
690,1778428581870,1.7559257,0.66162395,-0.011951917,-4.062058,3.27689,3.4067714
691,1778428581880,1.0953726,0.8400146875000001,0.7854954978750001,-2.6447396750000003,0.91032464,2.4356865625
692,1778428581890,0.9081018,0.90054035,0.8453847,-1.0388985,-0.6693359,1.971815
693,1778428581900,0.9321478777777776,0.9498149,0.631673051111111,-0.1913139733333333,-0.9162538777777779,1.7105081222222223
694,1778428581910,1.0243814,1.019518375,0.31732797749999997,0.432479865,-0.84587075,1.3953278
695,1778428581920,1.1523132,1.0970762666666667,0.06938413333333332,0.37806354000000003,-0.32237462,0.9867219666666668
696,1778428581930,1.2326101,1.1536648999999999,-0.062907635,0.026724559999999994,0.18525851999999998,0.6357392875000001
697,1778428581940,1.3080793750000002,1.164580175,-0.1071404,-0.46057883,0.56648447,0.33090740500000004
698,1778428581950,1.3944715,1.1418959,-0.14153264,-0.8751914,0.7918871,0.12697987
699,1778428581960,1.3944715,1.1418959,-0.14153264,-0.8751914,0.7918871,0.12697987
700,1778428581970,1.3944715,1.1418959,-0.14153264,-0.8751914,0.7918871,0.12697987
701,1778428581980,1.71631965,0.885394635,0.029834065000000007,-1.8879570875,1.4919180875,-0.6424586075000001
702,1778428581990,1.9691359444444443,0.7712848422222223,0.23987851222222226,-2.181513711111111,1.7017780555555555,-0.9851015
703,1778428582000,2.3552288,0.78467234,0.5001740125,-1.839413775,1.44121775,-1.12205
704,1778428582010,2.753834525,0.72389897,0.6136028875,-1.5159702,1.252466,-1.304846
705,1778428582020,3.088412,0.5901089588888889,0.6469042933333333,-1.0689657244444446,1.1746847111111112,-1.8401009777777777
706,1778428582030,3.562566875,0.2662312225,0.6371713262500001,-0.55556558375,1.21665505,-2.7002503375
707,1778428582040,3.6008959,0.0815138965,0.649900735,-0.10430217749999998,1.41678385,-3.6331667999999997
708,1778428582050,3.5567241999999997,-0.05472880525,0.6810153875,0.24681093312500002,1.5851486125,-4.0718314625
709,1778428582060,3.5127964,-0.24013597,0.70918775,0.55915433,1.7130448,-4.3402224
710,1778428582070,3.5152185555555553,-0.4282533144444444,0.7237414322222222,1.0906593144444445,1.6124586111111112,-4.604447933333334
711,1778428582080,3.525041825,-0.59181425625,0.70559757125,1.69471935,1.283466485,-4.87975315
712,1778428582090,3.474732011111111,-0.6740467933333334,0.571357868888889,2.210070777777778,0.8378363888888889,-5.163542777777778
713,1778428582100,3.406620225,-0.70952694,0.44299842624999997,2.3746687250000003,0.6578824812499999,-5.2971148249999995
714,1778428582110,3.288515,-0.7614164,0.2145247,2.3367198,0.5835882,-5.3885126
715,1778428582120,3.288515,-0.7614164,0.2145247,2.3367198,0.5835882,-5.3885126
716,1778428582130,3.2075575,-0.7803351675,0.13996242875,2.124755775,0.745615425,-5.3738524
717,1778428582140,3.0991442,-0.8031566,0.049545575,1.7661884,1.04416705,-5.2936594999999995
718,1778428582150,2.6101658,-0.8146850266666666,0.04225178888888889,1.1970823866666667,1.5523919666666668,-5.0832161
719,1778428582160,2.2764742,-0.8302618,0.08591965,0.99713176,1.7515281,-4.9602323
720,1778428582170,1.9276696125,-0.8346218625,0.1834024725,1.1086878012499999,1.72052765,-4.822028275
721,1778428582180,1.4625853,-0.8451408,0.2979747,1.5062390777777777,1.4735927,-4.657048666666666
722,1778428582190,1.4625853,-0.8451408,0.2979747,1.6012597,1.3905175,-4.645646
723,1778428582200,1.1141842377777778,-0.8259323644444445,0.2533379577777778,2.257852622222222,0.6010058622222223,-4.638316
724,1778428582210,0.8214694125,-0.8229787037499999,0.168481625,2.9365718,-0.24662958,-4.638316
725,1778428582220,0.7138221,-0.83538413,0.0939689,3.1711371333333336,-0.6424585755555555,-4.6535195555555555
726,1778428582230,0.6172844749999999,-0.83507917375,-0.004417177500000003,3.2470826749999997,-0.922913825,-4.6542745625
727,1778428582240,0.45885803666666664,-0.8317254,-0.18146046,3.1131829666666664,-1.0940782888888887,-4.615375333333334
728,1778428582250,0.40267593,-0.8317254,-0.2508683,2.8706002,-0.9613209,-4.5833397
729,1778428582260,0.40267593,-0.8317254,-0.2508683,2.8706002,-0.9613209,-4.5833397
730,1778428582270,0.252491868375,-0.8535254425,-0.3171602725,2.4983652,-0.5696150875,-4.5188188875
731,1778428582280,0.059302237,-0.8675811,-0.35752088,1.9787632999999998,-0.07925743,-4.3109016
732,1778428582290,0.059302237,-0.8675811,-0.35752088,1.9787633,-0.07925743,-4.3109016
733,1778428582300,0.004062735625000001,-0.88121376,-0.39721069,1.6340164125,-0.043522866625000003,-4.0009730875
734,1778428582310,-0.07027849,-0.9024917,-0.48173543999999996,1.0655466,-0.0865876,-3.5412343
735,1778428582320,-0.07027849,-0.9024917,-0.48173544,1.0655466,-0.0865876,-3.5412343
736,1778428582330,-0.12049865,-0.8777150874999999,-0.4962370525,0.67639876625,-0.2115058625,-3.33766945
737,1778428582340,-0.20019896571428572,-0.8916504714285713,-0.4894318857142857,0.19091158142857143,-0.29663177714285716,-3.1003771571428573
738,1778428582350,-0.3237722677777778,-0.8835068555555555,-0.47611518222222227,0.006261185555555561,-0.27031687111111113,-2.9830556777777777
739,1778428582360,-0.5964372,-0.8583123,-0.46149033,-0.19592926,-0.23807772,-2.7953897
740,1778428582370,-0.8383111,-0.85270226,-0.45100194,-0.20325942,-0.3193204,-2.5730414
741,1778428582380,-0.8383111,-0.85270226,-0.45100194,-0.20325942,-0.3193204,-2.5730414
742,1778428582390,-1.01868745,-0.83101271,-0.44898962625,-0.17806197375,-0.6019899625,-2.23536695
743,1778428582400,-1.4308456,-0.81364506,-0.447831,-0.1293469,-1.5251329,-0.8460998
744,1778428582410,-1.4308456,-0.81364506,-0.447831,-0.1293469,-1.5251329,-0.8460998
745,1778428582420,-1.2538231555555557,-0.9140980111111112,-0.41669776666666664,-0.36825606,-2.2092818555555556,1.5184898666666666
746,1778428582430,-0.877398775,-1.035060375,-0.45575832,-0.694686075,-2.047560025,2.81434505
747,1778428582440,-0.6704761,-1.02067945,-0.45798403666666665,-1.1138290666666668,-1.4607902666666666,3.5989847333333334
748,1778428582450,-0.6164689,-0.95642775,-0.40901777,-1.3711994,-1.088988,4.0017366
749,1778428582460,-0.6164689,-0.95642775,-0.40901777,-1.3711994,-1.088988,4.0017366
750,1778428582470,-0.6164689,-0.95642775,-0.40901777,-1.3711994,-1.088988,4.0017366
751,1778428582480,-0.6164689,-0.95642775,-0.40901777,-1.3711994,-1.088988,4.0017366
752,1778428582490,-0.11372233625,-0.96919910625,-0.29074104624999997,-0.8859575975,-1.89769245,5.9916957375
753,1778428582500,0.32825086,-0.9600865,-0.28968152,-0.31993124,-2.6326754,7.687665499999999
754,1778428582510,0.512903415,-0.9682919999999999,-0.314576265,-0.1087308125,-2.5650907625,8.6149216875
755,1778428582520,2.006138475,-1.0284136000000001,-0.533803995,0.136982495,-1.8769808749999999,9.84219975
756,1778428582530,2.761780377777778,-1.0463347444444446,-0.7248796866666667,0.10576142,-1.1295753844444445,9.959890111111113
757,1778428582540,3.3566211125,-1.024964475,-0.9657195000000001,-0.18096349750000001,-0.3619269975,9.37475
758,1778428582550,3.4517868,-0.9317616,-1.03939,-0.5209,0.0581832,8.692586
759,1778428582560,3.1638431444444444,-0.6734369666666667,-0.7398839888888888,-0.8079982077777779,-0.05292312726666666,8.437930666666666
760,1778428582570,3.0023969875,-0.525933895,-0.34482959125,-0.6632274275000001,-0.6644490999999999,8.565834624999999
761,1778428582580,2.986671925,-0.3557981775,-0.2118340075,-0.26808559125,-0.8854230875,8.745347562500001
762,1778428582590,3.1642191333333334,-0.12992627666666667,-0.15927759,0.15517217222222224,-1.0021796888888888,9.30621588888889
763,1778428582600,3.3924844,-0.09884723,-0.21818347,0.35138988,-0.9356653,9.497683
764,1778428582610,3.654572755555556,-0.07955748666666668,-0.38532396888888887,0.1641991388888889,-0.2277611908888889,8.912354666666666
765,1778428582620,3.7275422125,0.05824653875,-0.49874479250000003,-0.609701925,1.155112175,7.3097802624999995
766,1778428582630,3.21910545,0.31670293,-0.4094446125,-1.3675342375,1.9330262249999999,5.8486240875
767,1778428582640,2.4991904999999996,0.53655909,-0.17103979444444445,-2.0046733999999997,2.2699339666666667,4.559643933333334
768,1778428582650,1.853957225,0.70548325,0.2253713875,-2.0955019875,2.1252140375,4.0267049625
769,1778428582660,1.4698951999999998,0.843296115,0.5592323299999999,-1.4866495499999999,1.3156886,3.555818225
770,1778428582670,1.2868433,0.90151596,0.6767468,-0.8067765,0.6092438,3.3120902
771,1778428582680,1.173688925,0.9815054,0.511043565,-0.007855114750000003,-0.020692450125,3.1040107375000003
772,1778428582690,1.154742188888889,1.0687479555555557,0.17932617888888888,0.6168963333333334,-0.1436509088888889,2.720442188888889
773,1778428582700,1.1911593999999999,1.13582845,-0.18993486625,0.29152685500000003,0.4540885825,2.4499556499999997
774,1778428582710,1.281187525,1.160563175,-0.3633824825,-0.368417245,1.209477575,2.2222623125
775,1778428582720,1.3659334,1.1748551,-0.41609135,-1.2294828,1.9176786,1.8887397
776,1778428582730,1.39998265,1.16623415,-0.32585744,-1.9378174499999998,2.15957415,1.4984082749999998
777,1778428582740,1.4437732777777779,1.104715511111111,-0.07312757666666667,-2.8669013000000003,1.9267735,0.7089900388888889
778,1778428582750,1.5203440000000001,0.95776166875,0.44425229875000005,-3.1489175125,1.5161229125,0.1749982
779,1778428582760,1.617754425,0.8636403175,0.7764591912500001,-2.879915775,1.1270131499999998,-0.30366745625
780,1778428582770,1.697843,0.74385434,0.90566254,-2.489737,1.0185114,-0.6756734
781,1778428582780,1.8153237142857144,0.6284904742857143,0.9907285314285714,-2.1233595714285713,1.054202342857143,-0.8406894257142857
782,1778428582790,2.169808088888889,0.47363199777777776,1.189933911111111,-1.3054315044444444,1.0249592333333333,-1.1201665444444444
783,1778428582800,2.538654125,0.446996385,1.2717777375000001,-0.44958360999999997,0.7956285125,-1.4235031375
784,1778428582810,2.9953272375,0.27015297,1.2041175625,0.179522275,0.730726005,-1.8553721625000001
785,1778428582820,3.353458,0.07710816,1.1101563,0.6397861,0.87129724,-2.3866565
786,1778428582830,3.4493362999999997,-0.029228075,1.0455488475,1.1439642374999999,1.304922425,-3.1712899125000003
787,1778428582840,3.632268388888889,-0.3470663111111111,0.8471158444444443,1.5307408111111112,1.6639054888888891,-3.757474188888889
788,1778428582850,3.64056315,-0.52122705,0.77131025,1.9511224999999999,1.78497205,-4.156052025
789,1778428582860,3.7239978000000002,-0.7610301866666667,0.6825093333333334,2.4845447444444444,1.6680456666666668,-4.5271416
790,1778428582870,3.7746364285714287,-0.8894813714285714,0.5994469885714286,2.906912928571429,1.3922627571428572,-4.837201171428572
791,1778428582880,3.790525966666667,-1.000454688888889,0.47854760222222226,3.356232477777778,0.9808425666666667,-5.322880555555556
792,1778428582890,3.7546701,-1.0691782,0.3494716,3.5120664,0.8126559,-5.6297975
793,1778428582900,3.649530575,-1.11330425,0.2049700425,3.441284475,0.7316422874999999,-5.9075802625
794,1778428582910,3.4151959,-1.1832566666666666,0.06111128866666667,3.2008651444444443,0.6862105222222222,-6.118950522222223
795,1778428582920,3.13892555,-1.19979555,0.01756200075,2.71636145,0.792039825,-6.0693022249999995
796,1778428582930,2.8956643250000003,-1.1692374,0.02116739425,2.3194633749999998,1.0218711,-5.934152075
797,1778428582940,2.74577,-1.1472621,0.042959824,2.0386264,1.2426924,-5.8338203
798,1778428582950,2.61870075,-1.125919275,0.0611011255,1.853539675,1.38471435,-5.7797600749999996
799,1778428582960,2.2724955125,-1.0904904875,0.11927906249999999,1.498102975,1.7026604625,-5.720279375
800,1778428582970,1.9440091444444445,-1.0934886222222222,0.22060568888888887,1.4951081,1.8037216222222223,-5.748369444444445
801,1778428582980,1.5798484,-1.0928381249999999,0.3165199825,1.791996775,1.7248799625,-5.7543339375
802,1778428582990,1.4030392,-1.0840572,0.34288585,2.1522439,1.4998591,-5.6896605
803,1778428583000,1.1038905587499999,-1.0706722625,0.303306565,2.7330069999999997,1.038211285,-5.53526885
804,1778428583010,0.87119792375,-1.0644486,0.22723505125000001,3.1202173875,0.6661289499999999,-5.4366932875
805,1778428583020,0.6909854333333334,-1.0428047,0.11503720999999999,3.5003243555555557,0.16941678222222223,-5.324102455555556
806,1778428583030,0.570650685,-1.03323105,0.018004100000000002,3.693029825,-0.2111240875,-5.232049937499999
807,1778428583040,0.45486651,-1.0078637375000001,-0.0726642975,3.744951875,-0.577097975,-5.1067596
808,1778428583050,0.3456502666666667,-1.0191448,-0.1741666633333333,3.614688666666667,-0.8755986333333333,-4.874917533333334
809,1778428583060,0.30116849,-1.03317005,-0.22268066749999998,3.5029035375,-0.9741486874999999,-4.7543769750000004
810,1778428583070,0.26019810250000003,-1.0263708,-0.3106659925,3.1962487875,-1.142055275,-4.55783665
811,1778428583080,0.2827947125,-1.0352128,-0.39307550625,2.817532875,-1.1626714125,-4.432995125000001
812,1778428583090,0.33343408125,-1.0558276,-0.44450764875000004,2.3483259,-1.0040038624999998,-4.3905409375
813,1778428583100,0.3400638844444444,-1.074435911111111,-0.45138135555555553,1.762862822222222,-0.6392007866666667,-4.401714455555555
814,1778428583110,0.30773136,-1.1086928,-0.46027076,1.2701805,-0.27717194,-4.4202433
815,1778428583120,0.2935842,-1.1643362,-0.47856449999999995,0.9984213666666667,0.02689424666666667,-4.466803488888889
816,1778428583130,0.09731512375000001,-1.21125965,-0.4991297275,0.7500250012499999,0.3006322875,-4.4930869625000005
817,1778428583140,-0.23550156,-1.2607442,-0.52274394,0.07895201,0.9885799,-4.5002646
818,1778428583150,-0.23550156,-1.2607442,-0.52274394,0.07895201,0.9885799,-4.5002646
819,1778428583160,-0.23550156,-1.2607442,-0.52274394,0.07895201,0.9885799,-4.5002646
820,1778428583170,-0.23550156,-1.2607442,-0.52274394,0.07895201,0.9885799,-4.5002646
821,1778428583180,-0.23550156,-1.2607442,-0.52274394,0.07895201,0.9885799,-4.5002646
822,1778428583190,-0.23550156,-1.2607442,-0.52274394,0.07895201,0.9885799,-4.5002646
823,1778428583200,-0.23550156,-1.2607442,-0.52274394,0.07895201,0.9885799,-4.5002646
824,1778428583210,-0.23550156,-1.2607442,-0.52274394,0.07895201,0.9885799,-4.5002646
825,1778428583220,-0.23550156,-1.2607442,-0.52274394,0.07895201,0.9885799,-4.5002646
826,1778428583230,-0.23550156,-1.2607442,-0.52274394,0.07895201,0.9885799,-4.5002646
827,1778428583240,-0.23550156,-1.2607442,-0.52274394,0.07895201,0.9885799,-4.5002646
828,1778428583250,-0.731559455,-1.08375222,-0.42571082625,0.21525684874999998,-0.5491326087500001,-1.8678278000000001
829,1778428583260,-1.0000888,-0.73336595,-0.28724235,0.11987878,-2.212336,4.5429473
830,1778428583270,-1.0000888,-0.73336595,-0.28724235,0.11987878,-2.212336,4.5429473
831,1778428583280,-1.0000888,-0.73336595,-0.28724235,0.11987878,-2.212336,4.5429473
832,1778428583290,-1.0000888,-0.73336595,-0.28724235,0.11987878,-2.212336,4.5429473
833,1778428583300,-1.0000888,-0.73336595,-0.28724235,0.11987878,-2.212336,4.5429473
834,1778428583310,0.4236663084444444,-0.8153964977777778,-0.2958404388888889,-1.1167475822222221,-0.13499722111111112,7.382004622222222
835,1778428583320,1.231222675,-0.9011501375,-0.20724532625,-1.686396625,0.556405515,8.76848375
836,1778428583330,1.3798366,-0.9022478,-0.082962155,-1.6534108,0.43820655,9.175766
837,1778428583340,1.3798366,-0.9022478,-0.082962155,-1.6534108,0.43820655,9.175766
838,1778428583350,1.3798366,-0.9022478,-0.082962155,-1.6534108,0.43820655,9.175766
839,1778428583360,1.3798366,-0.9022478,-0.082962155,-1.6534108,0.43820655,9.175766
840,1778428583370,1.3798366,-0.9022478,-0.082962155,-1.6534108,0.43820655,9.175766
841,1778428583380,2.0528399666666663,-0.8831037044444445,-0.09199723744444444,-1.3323766333333333,0.45049136888888885,9.401575777777778
842,1778428583390,3.5248662875,-0.349463985,-0.2112661375,-0.8656469,0.5767161599999999,8.57919725
843,1778428583400,3.4623058,-0.2128173,-0.28577888,-0.9949174499999999,0.57870144,8.20574
844,1778428583410,3.4623058,-0.2128173,-0.28577888,-0.9949174499999999,0.57870144,8.20574
845,1778428583420,3.4623058,-0.2128173,-0.28577888,-0.9949174499999999,0.57870144,8.20574
846,1778428583430,3.4623058,-0.2128173,-0.28577888,-0.9949174499999999,0.57870144,8.20574
847,1778428583440,2.4373272000000004,-0.026498836666666668,0.1890489637777778,-1.379683338888889,0.8976824893333334,6.896490911111112
848,1778428583450,2.3714342,0.060346509,0.55344691875,-0.8025006,0.039857782,6.389615
849,1778428583460,2.5737205,0.17637545333333332,0.54235886,0.075897776,-0.9185615999999999,5.5472565
850,1778428583470,2.6322877,0.41779876,0.37511334,0.7424085,-1.2960652,4.39329
851,1778428583480,2.1250731333333333,0.8226801,0.030347295333333333,0.8473215066666667,-0.5087509444444444,3.1027562
852,1778428583490,1.8077104666666668,1.0073453666666667,-0.1447238931111111,0.3460958988888889,0.3951163533333333,2.727636733333333
853,1778428583500,1.5503106777777778,1.1373190555555555,-0.26940596,-0.38210192,1.2219914222222221,2.6632940888888887
854,1778428583510,1.4358968,1.2332426666666665,-0.14765088733333334,-1.3555209333333333,1.8967061999999997,2.6296974
855,1778428583520,1.4742934,1.2680618,0.013415418,-1.7309884,1.9744874,2.542957
856,1778428583530,1.6042500888888889,1.2953770666666666,0.18171115733333332,-1.802525422222222,1.5874138111111111,2.0728083111111113
857,1778428583540,1.7644628,1.315960875,0.35978471749999996,-1.618134425,1.0528716150000001,1.1935955150000002
858,1778428583550,1.7747072,1.3066311,0.42218927,-1.3400462,0.77844846,0.41843036
859,1778428583560,1.6597652625,1.219937775,0.44942027500000004,-1.1092986412499999,0.7441646575,-0.14743371
860,1778428583570,1.4754248444444444,1.1083301555555556,0.519173208888889,-0.817907531111111,0.9198256777777777,-0.8042228
861,1778428583580,1.438963475,0.978326825,0.5897981125,-0.5858788575,1.12059925,-1.0776872625
862,1778428583590,1.4764886,0.8485556,0.61890805,-0.3249537671111111,1.2042768555555554,-1.2417931111111111
863,1778428583600,1.5809076875,0.7479780775,0.6300062787499999,-0.071927264,1.1510653,-1.3188956
864,1778428583610,1.820639725,0.72215721125,0.6776920175,0.23236057075,0.88687385,-1.4286190125
865,1778428583620,2.290133733333333,0.7758277866666667,0.7131107166666667,0.6509171544444444,0.48619196666666664,-1.7032542555555557
866,1778428583630,2.628926425,0.72200095,0.6980285375,0.864043425,0.3946836925,-1.992202025
867,1778428583640,2.9498252625,0.5649033925,0.6721733925,1.015609975,0.5844281025,-2.4318689
868,1778428583650,3.1897322333333333,0.41627425777777777,0.6752020022222223,1.095138922222222,0.9811818755555556,-3.017738266666667
869,1778428583660,3.3216164999999997,0.24553261555555553,0.6842540222222222,1.1441423666666666,1.378504122222222,-3.565600344444445
870,1778428583670,3.3861425,0.06710757,0.69089395,1.204514425,1.826967825,-4.0526660125000005
871,1778428583680,3.4139147375000003,-0.0063380225,0.71439759625,1.3188192375,1.9741820125,-4.3538138125
872,1778428583690,3.442060511111111,-0.21339321555555554,0.7736731488888888,1.5639301555555558,1.8691502,-4.715554277777778
873,1778428583700,3.4884084125,-0.3413042275,0.862188235,1.833458075,1.4600012875,-4.9632104375
874,1778428583710,3.543991075,-0.4324413875,0.936826675,2.1571307500000003,0.9474241375000001,-5.209314662500001
875,1778428583720,3.5862765,-0.4905469,0.9705749,2.443618,0.5396072,-5.4392133
876,1778428583730,3.5453821,-0.5354657375,0.85845329875,2.6202292625,0.16385977124999998,-5.70141925
877,1778428583740,3.4008591333333333,-0.6224042000000001,0.6250872833333333,2.3723526666666666,0.23107842666666667,-5.8816702
878,1778428583750,3.212192275,-0.6654504250000001,0.5293906375,2.0337396,0.5696914175,-5.93567895
879,1778428583760,2.894749775,-0.73598805,0.50091335,1.67227075,0.9893434775000001,-5.943009175
880,1778428583770,2.592011,-0.7680021,0.531281,1.4729818,1.2573527,-5.9333887
881,1778428583780,2.13268925,-0.8222545637500001,0.5857087125,1.464888025,1.3248513625,-5.8587887125
882,1778428583790,1.6915926444444445,-0.8998628455555556,0.6153034777777777,1.7185423555555557,1.0727411111111111,-5.696854822222223
883,1778428583800,1.320488675,-0.9246270950000001,0.6325064125000001,2.2137868750000003,0.48736067125,-5.471740775000001
884,1778428583810,1.10178306625,-0.9436259650000001,0.61045486875,2.7296474,-0.13240113625,-5.287245749999999
885,1778428583820,0.86538583,-0.9600865,0.54274505,3.1295996,-0.6143596,-5.177694
886,1778428583830,0.64958825,-0.96349369,0.39308695,3.53968805,-1.2676607500000001,-5.0721700499999995
887,1778428583840,0.5064150333333334,-0.9374260177777778,0.2554315511111111,3.8905881333333334,-2.120454533333333,-4.958263888888889
888,1778428583850,0.4053513825,-0.92676139,0.07985984750000001,3.9010233000000003,-2.8782360249999996,-4.87471375
889,1778428583860,0.36207397444444445,-0.9413354,-0.08275550333333334,3.6791582999999997,-3.4230438333333333,-4.810574844444444
890,1778428583870,0.33215353,-1.0315846,-0.23135497,2.9810957666666664,-3.654622677777778,-4.731572022222222
891,1778428583880,0.21431128,-0.9931791,-0.28404477625,2.313202275,-3.1702209,-4.6204487499999995
892,1778428583890,0.16644263,-1.0164617,-0.34508112,1.8174996,-2.5636497,-4.5008755
893,1778428583900,0.13502143300000002,-1.0541129777777778,-0.3196561777777778,1.1771281022222224,-1.6080723133333334,-4.381217044444444
894,1778428583910,-0.06552211725000001,-1.149579325,-0.23655342499999998,0.5681452100000001,-0.535407619,-4.19163405
895,1778428583920,-0.2774044,-1.1545795666666665,-0.11650069533333333,0.25725153777777776,0.11847042977777776,-3.8323369666666665
896,1778428583930,-0.38560176,-1.1462865,-0.056131326,0.10094251,0.48768517,-3.378138
897,1778428583940,-0.42121363,-1.1487255,-0.04613074,0.07040015,0.6978166,-2.877854
898,1778428583950,-0.4222976655555556,-1.1619512777777776,-0.05675466888888889,0.081395395,0.764399,-2.5394447
899,1778428583960,-0.4605794725,-1.155311325,-0.0940565575,0.07498150037500001,0.8757258887499999,-1.9904458500000002
900,1778428583970,-0.49784070444444445,-1.1327049444444444,-0.09055406555555555,0.051463883,0.9623135,-1.6756303
901,1778428583980,-0.58004529,-1.0863439124999998,-0.1514836825,0.06978930125,1.061881625,-1.3072895
902,1778428583990,-0.61329794,-1.0828376,-0.17132097,0.07162184,1.1168579,-1.1130401
903,1778428584000,-0.7339986125,-1.0334139,-0.22829837,0.156224183125,0.9436826749999999,-0.906497335
904,1778428584010,-0.8782422999999999,-0.9949056166666667,-0.3044079966666667,0.2758484366666667,0.5738146733333332,-0.7620064733333334
905,1778428584020,-1.0687551625,-0.92841549375,-0.33212304375,0.44281654375,-0.05950987499999999,-0.47821702749999995
906,1778428584030,-1.1884839428571428,-0.87831348,-0.35595718285714284,0.5615977,-0.6100837,-0.22853324
907,1778428584040,-1.2990493333333333,-0.8234931733333334,-0.41527828666666666,0.7574760866666667,-1.927273966666667,0.6698958133333333
908,1778428584050,-1.326384525,-0.7650751,-0.41243261625,0.8634326025,-2.4466818249999998,1.41067535
909,1778428584060,-1.2266704777777777,-0.7325799777777777,-0.37443581555555555,1.0555695333333335,-2.5329630555555553,2.6922158888888887
910,1778428584070,-1.02841365,-0.71836505,-0.442647775,1.1442696625,-2.25356815,3.65027055
911,1778428584080,-0.59565216,-0.7141498924999999,-0.6598479374999999,0.9952992075,-1.443890175,5.2833134
912,1778428584090,-0.29675514,-0.70260197,-0.78925335,0.70392513,-0.9582666,6.1080146
913,1778428584100,0.05134881714285715,-0.6959813842857142,-0.8821594928571429,0.13857507142857142,-0.5591215714285714,6.748705857142857
914,1778428584110,0.8034005,-0.6984554,-0.96276957,-0.7536328,-0.07009472,7.3993454
915,1778428584120,0.8034005,-0.6984554,-0.96276957,-0.7536328,-0.07009472,7.3993454
916,1778428584130,0.8034005,-0.6984554,-0.96276957,-0.7536328,-0.07009472,7.3993454
917,1778428584140,0.8034005,-0.6984554,-0.96276957,-0.7536328,-0.07009472,7.3993454
918,1778428584150,1.547899025,-0.5118515149999999,-0.832476165,-1.6155669499999998,-0.021914144249999996,7.907217075
919,1778428584160,2.7360134,-0.24355078999999996,-0.5600937,-2.9405425,0.027640838,8.745118
920,1778428584170,2.966628875,-0.29625967249999996,-0.472054995,-2.998725625,0.19171059950000002,8.70755125
921,1778428584180,3.0435007,-0.3138293,-0.44270876,-3.01812,0.24640052,8.695029
922,1778428584190,3.0435007,-0.3138293,-0.44270876,-3.01812,0.24640052,8.695029
923,1778428584200,3.0435007,-0.3138293,-0.44270876,-3.01812,0.24640052,8.695029
924,1778428584210,2.97877135,-0.150199325,-0.46351027,-3.25314345,0.2960318575,8.056521825
925,1778428584220,2.4897680375,0.4069711625,-0.17224327,-4.2157621625,-0.18034310925,6.421684662500001
926,1778428584230,2.41684815,0.41075565875,0.43556277,-3.9514945,-1.2691879,6.722527
927,1778428584240,2.4223974,0.40755427,0.67430764,-3.2984989,-1.8158962,6.6718264
928,1778428584250,2.4223974,0.40755427,0.67430764,-3.2984989,-1.8158962,6.6718264
929,1778428584260,2.4223974,0.40755427,0.67430764,-3.2984989,-1.8158962,6.6718264
930,1778428584270,2.4223974,0.40755427,0.67430764,-3.2984989,-1.8158962,6.6718264
931,1778428584280,2.4223974,0.40755427,0.67430764,-3.2984989,-1.8158961999999998,6.6718264
932,1778428584290,2.038864485714286,0.6088595285714286,0.14608431428571428,1.2432159571428572,-0.8779838571428572,3.3967252
933,1778428584300,1.9230200000000002,0.72847617,0.10821515625,1.3182847875,-1.0096541875,2.6122883125
934,1778428584310,1.6697621,0.9642331599999999,0.20793895,1.4625974,-1.4292299,1.6993771
935,1778428584320,1.6697621,0.96423316,0.20793895,1.4625974,-1.4292299,1.6993771
936,1778428584330,1.6697621,0.96423316,0.20793895,1.4625974,-1.4292299,1.6993771
937,1778428584340,1.6697621,0.9642331599999999,0.20793895,1.4625974,-1.4292299,1.6993771
938,1778428584350,1.5797720875,1.0398549325,0.1566249825,1.41800555,-1.3359229799999999,1.5774367125
939,1778428584360,1.2292104750000001,1.317355875,-0.233245315,0.40361733875,0.1969314275,0.42316444625
940,1778428584370,1.2055887,1.273428,-0.24550213,-0.21425468,0.75767964,0.14415996
941,1778428584380,1.2055887,1.273428,-0.24550213,-0.21425468,0.75767964,0.14415996
942,1778428584390,1.2055887,1.2734280000000002,-0.24550213,-0.21425468,0.75767964,0.14415996
943,1778428584400,1.2055887,1.273428,-0.24550213,-0.21425468,0.75767964,0.14415996
944,1778428584410,1.153481975,1.16531955,-0.1105476075,-0.51784576,0.855567905,-0.171972605
945,1778428584420,1.0940654,0.742878725,0.41506234999999997,-1.20672875875,1.1222028,-1.30797675
946,1778428584430,1.2592808,0.64134836,0.5483857,-0.73469657,1.116247,-1.5155884
947,1778428584440,1.4453045111111111,0.6124950911111111,0.612186808888889,-0.24289663666666664,1.2392309333333333,-1.5469452222222222
948,1778428584450,1.724186,0.6298843,0.66894144,0.39598173,1.3728029,-1.5662887
949,1778428584460,1.984060125,0.663845885,0.6223876775,0.8086758475,1.2888876875,-1.6224103250000002
950,1778428584470,2.818731533333333,0.6024640333333333,0.36988947,1.1450246666666668,1.0331717555555555,-1.9941532333333332
951,1778428584480,3.1730816,0.5076211,0.26041153,1.1987114,0.9134457,-2.3671095
952,1778428584490,3.580216325,0.309690335,0.135720575,1.0685245375,0.9840749449999999,-3.1492135875000002
953,1778428584500,3.6787816,0.236625845,0.13839603625,0.8767948625,1.3083585125,-3.833677325
954,1778428584510,3.6836905555555557,0.14306052146666667,0.21125555,0.7801452666666666,1.7984276666666668,-4.2476452444444455
955,1778428584520,3.7145763499999997,-0.01348401855,0.28938427499999997,0.774630675,2.1314752125,-4.446204475
956,1778428584530,3.7492804222222222,-0.07630187688888888,0.3164581744444444,0.8007783500000001,2.247400377777778,-4.580896155555555
957,1778428584540,3.854047375,-0.20878505,0.32067039625,0.8031877700000001,2.195919625,-4.67519575
958,1778428584550,3.9076162777777776,-0.26409740000000004,0.33548705111111116,0.78638947,2.160796,-4.718337
959,1778428584560,3.9233045,-0.33237838,0.3358427625,0.7353837725,2.199660975,-4.8263041125
960,1778428584570,3.799139375,-0.524992495,0.334226815,0.6810183525,2.5085206749999998,-5.17007775
961,1778428584580,3.4365353555555553,-0.6790335200000001,0.35318456666666664,0.74688804,2.7009884333333334,-5.431679166666666
962,1778428584590,3.01273305,-0.76685115125,0.36541765000000004,0.887331995,2.752706725,-5.564894875
963,1778428584600,2.5666437,-0.8407503,0.354106,1.0508864,2.723386,-5.599255
964,1778428584610,1.998508325,-0.91128035,0.342337055,1.5674340875,2.4316302375,-5.437838687499999
965,1778428584620,1.6390743,-0.94465115,0.31671817,1.9961725499999998,2.1123862,-5.24005775
966,1778428584630,1.3037854333333334,-0.9382763333333334,0.2569052233333334,2.4755858666666666,1.6794481333333335,-5.023556666666667
967,1778428584640,1.1385496499999999,-0.9578303,0.20341889000000002,2.86937865,1.286367925,-4.871812375
968,1778428584650,1.0347555,-0.9832586,0.16790615,3.1809108,0.9647568999999999,-4.7806435
969,1778428584660,0.924444181111111,-0.9996619999999999,0.11559617777777777,3.4904576,0.5917328333333334,-4.735847833333334
970,1778428584670,0.7910319266666668,-1.0291454666666668,0.024168078666666665,3.8999544000000004,-0.0723345,-4.714264533333333
971,1778428584680,0.7213454,-1.042560875,-0.038363519,3.9857020625,-0.3467321875,-4.7178025
972,1778428584690,0.5836823999999999,-1.0502036333333333,-0.15764131599999998,3.961649988888889,-0.6123913733333334,-4.705169777777778
973,1778428584700,0.38008652444444446,-1.0604006333333333,-0.3265807222222222,3.524266344444444,-0.6991316733333333,-4.625216666666667
974,1778428584710,0.261528205,-1.106905275,-0.4404754125,3.063628075,-0.38193224649999996,-4.584256
975,1778428584720,0.20189438875,-1.146930425,-0.5151863250000001,2.629086625,-0.00021952274999999938,-4.547757825000001
976,1778428584730,0.068164548,-1.2243804,-0.6104319500000001,2.0040117333333334,0.48605626666666674,-4.437347233333333
977,1778428584740,-0.1480421725,-1.2526950000000001,-0.65550698125,1.32851645,0.79937,-4.211333724999999
978,1778428584750,-0.3103687175,-1.2670861,-0.6628435375,0.76141157875,0.7860077125,-3.8988090250000003
979,1778428584760,-0.42412154375,-1.2949955499999999,-0.68552779375,0.182566965,0.5515950675,-3.5171058625
980,1778428584770,-0.47856449999999995,-1.3427308,-0.6989432,-0.20570281,0.40766418,-3.2773483
981,1778428584780,-0.5587444500000001,-1.42713365,-0.6661288175,-0.62772191875,0.41110020375,-3.068667575
982,1778428584790,-0.7560578250000001,-1.478013075,-0.6157905175,-0.8373189,0.47180316,-2.9499342
983,1778428584800,-1.02299415,-1.475932175,-0.54928512,-0.932229225,0.5171585375,-2.6307568249999997
984,1778428584810,-1.329732,-1.4408462333333334,-0.4559513866666667,-0.7216651288888889,0.18473886933333333,-1.9763707888888886
985,1778428584820,-1.501368,-1.4062101,-0.40145636,-0.55266404,-0.087809294,-1.6475314
986,1778428584830,-1.656076025,-1.34524235,-0.38618106125,-0.074523358125,-0.917568986,-0.84807553125
987,1778428584840,-1.7889628000000002,-1.2401672666666665,-0.4071748433333333,0.49433665000000004,-1.9568068,0.2628000555555556
988,1778428584850,-1.7228953333333334,-1.1817593555555554,-0.4217082022222222,0.9154819000000001,-3.0103825333333334,1.4739744000000001
989,1778428584860,-1.536819875,-1.1536648500000002,-0.4694252275,1.1270132125,-3.715325625,2.3013002125
990,1778428584870,-1.3356572,-1.1684829,-0.49981573,1.2964469,-4.345491,3.2607791
991,1778428584880,-0.81623663875,-1.3181599625,-0.62461725125,1.44473015,-4.59914545,4.643756375
992,1778428584890,-0.34633116475,-1.4485334875,-0.74703293,1.4984083125,-4.466515224999999,6.070982000000001
993,1778428584900,0.27794644,-1.435131111111111,-0.9290887666666667,1.2291180000000002,-3.655097866666667,7.509569444444444
994,1778428584910,0.6911455,-1.384410025,-1.052218425,0.9501633375,-3.1880118125,8.15734
995,1778428584920,1.192367525,-1.374043575,-1.1997385375,0.07620320000000001,-2.31547385,9.055887
996,1778428584930,1.82734745,-1.323529925,-1.264212425,-0.820520575,-1.560103915,9.47278975
997,1778428584940,2.0775602,-1.201442,-1.1963198,-1.6828174125,-0.816702775,9.796463124999999
998,1778428584950,2.4644087444444445,-1.118462888888889,-0.873465611111111,-2.6343720555555556,-0.0020022155555555507,10.227508666666667
999,1778428584960,2.760932,-1.0560850714285714,-0.5402405757142856,-3.165159685714286,0.3962326328571429,10.732826142857144
1000,1778428584970,3.168203,-1.1064975,-0.22354963,-3.3510318,0.47058147,11.278989
