id,timestamp,acc_x,acc_y,acc_z,gyro_x,gyro_y,gyro_z
0,1778428859360,0.12958072857142858,0.5905832428571429,0.6520284571428572,-0.27277602285714286,0.048900507142857146,-0.45469943142857144
1,1778428859370,0.12163989,0.5852441844444445,0.7678970844444444,-0.4966951633333333,-0.04753579333333333,-0.49189323555555553
2,1778428859380,0.12640981,0.57180166,0.80803496,-0.53578943,-0.12789614,-0.49623704
3,1778428859390,0.12678923666666667,0.5662965988888888,0.8192889911111111,-0.5301560599999999,-0.16712610888888887,-0.49603342333333333
4,1778428859400,0.12323889999999998,0.5381107,0.8566048,-0.4356104622222222,-0.33639868000000006,-0.4895855888888889
5,1778428859410,0.088724685,0.528841825,0.9424483,-0.31374642,-0.32275642,-0.46783264999999996
6,1778428859420,0.09201756,0.5339641,1.0089004,-0.17722206,-0.29710084,-0.45042350000000003
7,1778428859430,0.11023000444444445,0.5209552111111111,1.092618,0.062230064444444455,-0.2183694088888889,-0.4466226644444445
8,1778428859440,0.13201989249999999,0.535313275,1.067402175,0.566789925,-0.05543438950000001,-0.45202696125
9,1778428859450,0.1364104,0.5488735,1.0437804,0.686516,0.032756682,-0.4375957
10,1778428859460,0.15585893750000002,0.5400962875,0.92463473875,0.89924355,0.15248273774999999,-0.36116344375
11,1778428859470,0.16603610555555556,0.5358070211111111,0.8914883177777777,0.9291580555555554,0.1852648811111111,-0.3416926733333333
12,1778428859480,0.16815005,0.53493977,0.886881,0.9290223,0.18974443,-0.33924928
13,1778428859490,0.4099553275,0.580735095,0.8129742875,0.43797748999999997,0.29442839249999997,-0.223341025
14,1778428859500,0.61523914,0.5491072333333333,0.8865354866666667,0.08523864833333333,0.015042109999999997,-0.1893881
15,1778428859510,0.69967496,0.5207926,0.91712666,-0.092314295,-0.19142427,-0.20974968
16,1778428859520,0.71518738,0.5103245077777778,0.9411253422222222,-0.1328338288888889,-0.24891178444444448,-0.24307479333333332
17,1778428859530,0.85117769,0.43098171125,1.1687990875,-0.469512475,-0.7732562875,-0.5528931499999999
18,1778428859540,0.87099594,0.43831828,1.2282729,-0.5070796,-0.96658945,-0.6825455
19,1778428859550,0.87099594,0.43831828,1.2282729,-0.5070796,-0.96658945,-0.6825455
20,1778428859560,0.8424538850000001,0.43186972749999997,1.3179427625,-0.338943879375,-0.9854493575,-1.0771527875
21,1778428859570,0.79193646,0.4463674999999999,1.415479,-0.113693945,-0.9708653699999998,-1.439996
22,1778428859580,0.79193646,0.4463675,1.415479,-0.113693945,-0.97086537,-1.439996
23,1778428859590,0.674604915,0.4545996725,1.4151130749999998,0.12041326374999999,-0.8283852225,-1.626457175
24,1778428859600,0.6030128422222222,0.4488337777777778,1.4774642555555557,0.45222211111111105,-0.8269768977777778,-1.8462773666666668
25,1778428859610,0.59351027,0.4388061,1.4847817,0.5936672,-0.8548044,-1.9237871
26,1778428859620,0.58457301125,0.42367564124999996,1.46907195,0.6725428499999999,-0.8586985500000001,-1.9711373
27,1778428859630,0.4825662875,0.30393922125,1.285151225,1.351604575,-0.8614473487500001,-2.3820752375
28,1778428859640,0.4168231,0.28090054,1.1618971,1.5631582,-0.82059693,-2.5145528
29,1778428859650,0.335476895,0.25587241125,0.99161653,1.7339663625000001,-0.6509341225,-2.6318354250000002
30,1778428859660,0.3098389525,0.20530541625,0.85540811,1.8704142750000001,-0.4427879125,-2.74957615
31,1778428859670,0.33784491,0.0004776699999999949,0.7264346666666667,1.9762944333333334,-0.33497335333333333,-2.9783893999999997
32,1778428859680,0.378269015,-0.210622035,0.5916809000000001,2.0927626999999998,-0.19508934,-3.34652665
33,1778428859690,0.3791875175,-0.34554224875,0.46874307499999995,2.1580470375000003,-0.15026842625,-3.5848333875
34,1778428859700,0.33884981,-0.5265589187499999,0.3135320175,2.176448675,-0.1999761275,-4.13024375
35,1778428859710,0.282966195,-0.685276275,0.2011550325,2.0635184375,-0.21242212875,-4.545629625
36,1778428859720,0.169560189,-0.8547069,0.087733784,1.7767256375,-0.001985256249999994,-5.16013225
37,1778428859730,-0.043061454222222226,-1.0135313555555556,-0.1925180042222222,1.6309621333333333,0.5963650666666667,-5.606330833333334
38,1778428859740,-0.369007805,-1.198507475,-0.6997435575,1.75855285,2.305595275,-6.2048338125
39,1778428859750,-0.356857715,-1.1501357,-0.3939559075,1.9698297,3.9790782,-6.745204425000001
40,1778428859760,-0.3982587525,-1.2049826750000001,-0.402458685,1.9353931375,4.4852986,-7.0348223625
41,1778428859770,-0.5203860566666667,-1.3054115333333334,-0.3564638766666667,1.811162188888889,4.566753577777778,-7.312563000000001
42,1778428859780,-0.6649701775,-1.462630975,-0.3162303325,1.655396125,4.45330575,-7.6132376
43,1778428859790,-0.8206576666666667,-1.5065919333333333,-0.24112179666666667,1.617252,4.2260194888888885,-7.613294911111112
44,1778428859800,-0.9176145375,-1.4697122500000002,-0.22482256750000001,1.70304215,3.70860645,-7.331923225000001
45,1778428859810,-0.93224955,-1.4479198,-0.33556834,1.8991241,3.2440572,-6.9640408
46,1778428859820,-0.8204848666666666,-1.3691753666666666,-0.43382612,2.104572444444445,3.939744166666667,-6.600450933333334
47,1778428859830,-0.7345855,-1.3093141,-0.32971436,2.2039368,3.1573167,-6.2572904
48,1778428859840,-0.6197481844444445,-1.2538876111111112,-0.31396140222222224,2.0446414444444443,2.4104541666666663,-5.8851486444444445
49,1778428859850,-0.648707805,-1.3011239749999999,-0.2958099275,1.969066125,1.48876841,-5.528549549999999
50,1778428859860,-0.68699507625,-1.34163695,-0.30537985,1.9461594,0.80608934,-5.191362
51,1778428859870,-0.7194288111111111,-1.3973511444444444,-0.24422834666666665,1.975683622222222,-0.4624537988888889,-4.485553377777778
52,1778428859880,-0.70174445,-1.4470356375,-0.22818404125,2.041909675,-1.57659675,-3.932482025
53,1778428859890,-0.6199650555555556,-1.3939465333333334,-0.2681999277777778,2.1266986333333335,-2.5007068222222224,-3.5485135333333333
54,1778428859900,-0.6333410749999999,-1.3179123125,-0.33059854,2.2555535875,-2.8034835625,-3.4729719875000002
55,1778428859910,-0.6708928,-1.2888785249999999,-0.3204455225,2.3584813125,-2.6645156875000002,-3.6048386875
56,1778428859920,-0.7608065749999999,-1.19022185,-0.31689348500000003,2.3551216,-2.2528046,-3.927137
57,1778428859930,-0.83313924875,-1.1184379249999998,-0.31663813375,2.3151112,-2.0625257,-4.100923
58,1778428859940,-1.0223970266666667,-0.8574178833333334,-0.28993559999999996,1.9467023444444445,-1.5386903,-4.498381155555555
59,1778428859950,-1.2652567499999998,-0.522378045,-0.089578396,1.296571075,-1.1606575125,-4.733149925
60,1778428859960,-1.4741371125,-0.258879427625,0.11152708,0.76760596,-1.09946785,-4.7401748999999995
61,1778428859970,-1.6561028,-0.038325407,0.2616311,0.14209835499999998,-1.181836725,-4.532028524999999
62,1778428859980,-1.8634352555555556,0.2152734081111111,0.5053512955555556,-0.2761793,-1.233606,-4.201713
63,1778428859990,-1.9987789624999999,0.3183608,0.994284425,-0.5630484625000001,-1.5180317875,-3.5850626375
64,1778428860000,-2.1233366125,0.2984625475,1.2496232125,-0.468672535,-1.7288504375,-3.3163662250000003
65,1778428860010,-2.3856337444444446,0.27604252222222225,1.4580390222222224,-0.04704372222222222,-1.790495077777778,-3.1934754222222224
66,1778428860020,-2.7961692222222223,0.2625830666666667,1.741111088888889,0.5890518899999999,-1.6704976,-3.207389222222222
67,1778428860030,-3.0810945,0.30187738,1.8396196,1.04698454,-1.2559554560000001,-3.3449996300000002
68,1778428860040,-3.6365028222222224,0.24250398888888888,2.2513408555555556,1.6733142666666667,-0.5748327066666667,-3.477247966666667
69,1778428860050,-4.108151475,0.13307179,2.610632525,2.0765753625,-0.37368580875,-3.4105893875
70,1778428860060,-4.451715625,0.04460626075,2.7149604,2.6709296,-0.40079215125,-3.2630698625
71,1778428860070,-4.831887533333333,0.06557292866666667,2.558106566666667,3.756108333333333,-0.4825269133333333,-3.0941111333333335
72,1778428860080,-5.2055474375,0.1571052,2.3206041125000003,4.5968545,-0.27281966,-2.9856687500000003
73,1778428860090,-5.499839666666667,0.25922244666666666,2.0555163222222226,5.150672388888889,0.2331145911111111,-2.831039666666667
74,1778428860100,-5.59616,0.37127167,1.8622427999999998,5.2435213,0.6317942377777777,-2.6112702666666667
75,1778428860110,-5.577439233333333,0.39129316,1.5615037333333333,5.049000577777778,0.8747077988888888,-1.856313797777778
76,1778428860120,-5.410608379999999,0.388626344,1.00650384,3.8498497599999992,1.064477664,1.000247136
77,1778428860130,-5.244963733333333,0.38893531111111107,0.9105443,3.1721299,0.84457266,1.9576128000000002
78,1778428860140,-4.859053755555555,0.3897348177777778,1.0104417,1.8248552555555557,0.2811678955555556,3.7605709
79,1778428860150,-4.4604435,0.28553498,1.1892462,1.1031138,-0.04665346,4.8989186
80,1778428860160,-4.09851673,0.150706965,1.29335897,0.95840407,-0.03193204100000001,5.34630292
81,1778428860170,-3.4269887666666663,-0.16018210666666668,1.4785212,1.0963266444444444,0.4636754944444444,5.627727422222222
82,1778428860180,-3.0943472333333335,-0.3009118733333333,1.4842837666666666,1.5778439555555555,1.4097760555555554,5.337371444444444
83,1778428860190,-2.74717254,-0.397937848,1.39447774,1.9476254000000002,2.216612,5.0775306
84,1778428860200,-2.524107277777778,-0.44905057888888883,1.2883543222222222,2.392756622222222,3.3253677111111113,4.715936
85,1778428860210,-2.3154297666666666,-0.53778543,1.16271,2.560264411111111,4.030030811111111,4.555690477777778
86,1778428860220,-2.1827066200000003,-0.712364742,1.14082256,2.67416704,4.73826586,4.4692486
87,1778428860230,-2.1033734875000003,-0.83299831875,1.1203587499999998,2.6280938875,5.0295635375,4.6099116875
88,1778428860240,-2.0524368,-0.8949303,1.0974725,2.5521197,5.1078286,4.7523155
89,1778428860250,-2.0433471,-0.913810975,1.0955516625000001,2.50019775,5.09805495,4.83508525
90,1778428860260,-1.9895572000000001,-1.2016859666666668,1.0202831333333333,1.7348486,4.978193177777778,5.524044611111112
91,1778428860270,-2.0222962,-1.3448040777777779,1.0311238222222223,1.1043354711111109,4.905773844444444,5.8978662222222225
92,1778428860280,-2.030454,-1.4374315,1.0525614,0.62543124,4.862879,6.138404
93,1778428860290,-2.055086088888889,-1.6200098333333335,1.154423688888889,-0.08104755666666666,4.709963200000001,6.666651111111111
94,1778428860300,-2.054876,-1.7964157,1.243914,-0.64635277,4.5030894,7.1365285
95,1778428860310,-2.054876,-1.7964156999999998,1.243914,-0.64635277,4.5030894,7.136528500000001
96,1778428860320,-1.9681466444444444,-2.133132511111111,1.5095934555555557,-1.0428604933333334,4.094576933333333,7.749547555555555
97,1778428860330,-1.9037390625000001,-2.4807697749999997,1.758753525,-1.0281322625,3.4050153375,8.213452
98,1778428860340,-1.8967265000000002,-2.6276534,1.8562059,-0.8845832,3.0247629,8.332567
99,1778428860350,-1.9323041,-2.8806635125,2.0325309625,-0.441108075,1.754487025,8.6965565
100,1778428860360,-1.87070375,-2.9498253375,2.047581325,-0.010537110000000016,0.8999307675,9.007630500000001
101,1778428860370,-1.6697621,-2.8150728,1.931637,0.59183466,0.28686914,9.187219
102,1778428860380,-1.4413515285714287,-2.5701193714285715,1.7199261428571428,1.6669912371428572,0.268543728,8.848963
103,1778428860390,-1.2194918,-2.3677297,1.415235,2.5344052,0.67353547,8.331957
104,1778428860400,-1.0704398375000002,-2.2011765125,1.1495716125000002,2.997274775,1.5592545087499998,7.67506685
105,1778428860410,-1.0491467,-2.1773832,1.1116197,3.063399,1.6857858,7.5812254
106,1778428860420,-1.0241452,-2.0225722625,0.932703075,3.264215,2.82997905,6.8997489000000005
107,1778428860430,-1.0091443,-1.9296857,0.8253531,3.3847046,3.516495,6.490863
108,1778428860440,-1.0091443,-1.9296856999999998,0.8253531,3.3847046,3.516495,6.490863
109,1778428860450,-0.8297587799999999,-1.9061326,0.703348925,2.875868875,4.082826625,6.52010725
110,1778428860460,-0.31616936625000003,-1.89687895,0.6596002375000001,2.4158246125,3.5581852,6.7864366875
111,1778428860470,-0.09713981,-1.8698957,0.6354944,2.2589133,3.1573167,6.87081
112,1778428860480,-0.09713981,-1.8698956999999998,0.6354944,2.2589133,3.1573167,6.87081
113,1778428860490,-0.09713981,-1.8698957,0.6354944,2.2589133,3.1573167,6.87081
114,1778428860500,0.6492147422222223,-1.7660516333333334,0.6017017755555556,2.1776705222222223,2.762030822222222,6.916420055555555
115,1778428860510,1.9444123375,-1.6994094,0.48638128,2.3924596625,2.0194611,5.8537017
116,1778428860520,3.4604345,-1.47512795,0.32075424249999995,2.5476913,1.7380131749999999,4.1034429
117,1778428860530,4.127314,-1.5938735,0.36922884,2.6498554,1.9148535,3.1958766
118,1778428860540,4.547700922222223,-1.7572197555555558,0.4977390755555555,2.744265177777778,1.5906886666666666,2.1125050777777776
119,1778428860550,4.9910915625,-2.0486180125000004,0.5163372875000001,2.7429333625,0.8180772624999999,1.3193537425
120,1778428860560,5.186492,-2.1158857,0.3934071,2.4452217,-0.5646519,0.64001524
121,1778428860570,5.152024866666667,-1.9000634333333335,0.15782086,1.3864620677777777,-1.731972577777778,-0.19079644675555554
122,1778428860580,4.943803100000001,-1.8763246714285715,0.06854929571428571,0.2002815357142857,-2.4955292285714283,-1.1831784357142858
123,1778428860590,4.5316973,-2.0160627,0.21915914,-0.2242573,-2.5182178,-1.6666204
124,1778428860600,4.5316973,-2.0160627,0.21915914,-0.2242573,-2.5182178,-1.6666204
125,1778428860610,4.3970515500000005,-1.8705512,0.32311336749999997,-0.39239300499999996,-2.70803855,-1.973666525
126,1778428860620,4.2444668,-1.5929244375,0.4540127475,-0.7572406225,-3.5624804,-2.431935675
127,1778428860630,3.9796834,-1.547011,0.72970724,-1.2841537,-4.3569446,-2.8108137
128,1778428860640,3.9796834,-1.547011,0.72970724,-1.2841537,-4.3569446,-2.8108137
129,1778428860650,2.8251919555555554,-1.9715209444444446,1.2337609266666667,-1.4346935777777778,-5.365792666666667,-4.431892022222222
130,1778428860660,1.9709230000000002,-2.24236405,1.4386586,-1.331188925,-5.7554791000000005,-5.636210999999999
131,1778428860670,0.97374585,-2.4975847,1.4979532999999998,-1.6456988750000001,-5.8670350375,-6.924058725
132,1778428860680,0.5593619,-2.5593262,1.5155153,-1.998845,-5.8193126,-7.6739216
133,1778428860690,-0.49420568,-2.7135425,1.6412239,-2.8717456,-5.198081,-9.011677
134,1778428860700,-0.8221719688888889,-2.7500283333333333,1.7262220666666666,-3.1422151555555558,-4.736212666666667,-9.44028811111111
135,1778428860710,-2.03058345,-2.751738275,2.27665725,-3.3171296,-3.4688583375,-10.179998874999999
136,1778428860720,-2.453031925,-2.70509675,2.4685016875,-2.8134097,-2.881442775,-10.1912993125
137,1778428860730,-2.7839657499999997,-2.6386447000000004,2.449441575,-1.59459765,-2.5658639,-9.6041985
138,1778428860740,-2.908066,-2.565424,2.2954998,-1.0617288,-2.4833996,-9.226695
139,1778428860750,-2.838302025,-2.5132908125,1.9608195,-0.6223006125,-2.4058219625,-8.55002895
140,1778428860760,-2.6526852555555553,-2.452131611111111,1.6044094111111111,-0.33930020888888884,-2.3752795555555557,-7.726513655555556
141,1778428860770,-2.460044525,-2.431384175,1.4691025500000001,-0.523343385,-2.57327035,-7.1800514125
142,1778428860780,-2.3371587333333332,-2.4060448666666665,1.4092895333333333,-0.7813500111111111,-2.9916243555555555,-6.578799622222222
143,1778428860790,-2.2441515874999998,-2.3418973249999997,1.38392215,-0.93291648125,-3.3729456875,-6.0686145875
144,1778428860800,-2.1478693,-2.2140012,1.3442248,-0.9762103,-3.7674005,-5.5603137
145,1778428860810,-2.0616012142857145,-2.165078428571429,1.2708668571428572,-0.9981135285714285,-4.072431442857143,-5.1077194285714285
146,1778428860820,-1.8655433000000001,-2.09965755,1.1300507,-1.10053685,-4.520804275,-4.4144404999999995
147,1778428860830,-1.690754125,-2.047306975,1.028223125,-1.2746092125,-4.761936062499999,-4.1288694999999995
148,1778428860840,-1.573919788888889,-2.015737677777778,0.9545543666666667,-1.6098710555555555,-4.986117233333334,-4.045607555555556
149,1778428860850,-1.450016,-1.9886793125,0.90310149125,-1.9632631375,-5.1479154125,-4.091225625
150,1778428860860,-1.3449565,-1.9677368,0.9073700299999999,-2.338476,-5.2927623,-4.224314
151,1778428860870,-1.2496155375,-1.933283525,1.0450762787499999,-2.749881625,-5.646519462500001,-4.3822183500000005
152,1778428860880,-1.2160237249999999,-1.955670575,1.221389925,-3.2529144,-6.513101875,-4.51019075
153,1778428860890,-1.2603784666666664,-1.9980129222222223,1.2749999777777776,-3.5560982,-7.2138855,-4.5682888888888895
154,1778428860900,-1.4140153999999998,-1.9678665250000003,1.278123425,-3.937693225,-7.595580125,-4.722613
155,1778428860910,-1.620178375,-1.742434075,1.272764725,-4.3127345625,-7.388197625,-4.88396245
156,1778428860920,-1.7510473,-1.5064903,1.3088263,-4.6414466,-6.7607045,-5.1571546
157,1778428860930,-1.95976375,-1.3904241375,1.491310325,-4.6698509875,-5.5108634875,-5.6654557
158,1778428860940,-2.289202066666667,-1.228523581111111,1.7817401,-4.26270448888889,-3.394300111111111,-6.522126422222223
159,1778428860950,-2.661809325,-0.8086447225,2.013151,-3.07546315,-1.705924625,-7.102092175
160,1778428860960,-3.0103178666666666,-0.5138816133333334,2.1443527666666666,-1.9452090888888887,-0.9406624022222222,-7.2774729888888885
161,1778428860970,-3.3939860875,-0.23624854412500002,2.1729011125,-1.02423823125,-0.71385138375,-7.293745375
162,1778428860980,-3.92784715,-0.029052761875,2.1463678500000003,-0.26594763,-0.8241093375,-7.068495674999999
163,1778428860990,-4.5822997,0.08240318066666667,1.9900246333333333,0.17768019,-1.048324211111111,-6.7042947222222224
164,1778428861000,-5.366761224999999,0.2585745425,1.7388819500000001,0.49394635249999996,-1.443279325,-6.1545153
165,1778428861010,-5.9727874,0.42584804,1.5531089,0.41652146,-1.6929631,-5.7124143
166,1778428861020,-7.336750524999999,0.562502315,1.660005375,-0.6987520225,-1.2911593,-4.9132545
167,1778428861030,-7.9426927874999995,0.52522502,2.0042138125,-1.7046456874999998,-0.43996276500000003,-4.2420286625
168,1778428861040,-7.993840533333333,0.13967277666666666,2.7975109333333332,-2.0383465,0.73708902,-2.7859469999999997
169,1778428861050,-7.9944906,-0.22776482250000002,3.26057915,-1.2444295605,1.85529585,-0.7332266649999999
170,1778428861060,-7.9944906,-0.4607586,3.2250662,-0.025731942,2.5892289,0.99858254
171,1778428861070,-7.881469122222222,-0.8865761888888888,2.705432111111111,1.1060322777777776,3.638460788888889,3.544398888888889
172,1778428861080,-6.9772973,-1.2590369,2.1366186,1.1012813,4.084583,5.078508
173,1778428861090,-6.1937557000000005,-1.3965787666666667,1.8038619777777778,0.7125109000000001,4.156255444444445,5.769240266666667
174,1778428861100,-6.095813,-1.4137715,1.7622674,0.6639146,4.1652145,5.8555818
175,1778428861110,-4.792586733333334,-1.2484569666666667,1.3205343333333335,-0.5115591311111111,4.389251377777779,6.585069222222222
176,1778428861120,-3.6216879428571427,-1.1008525,1.161944957142857,-1.1968570128571427,4.7770982857142865,6.864003428571428
177,1778428861130,-3.1223469,-1.038902,1.2375722,-1.4484715,5.113937,6.9135695
178,1778428861140,-3.1223469,-1.038902,1.2375722,-1.4484715,5.113937,6.9135695
179,1778428861150,-2.766414822222222,-1.0576395666666665,1.3352947222222222,-1.2619340666666665,4.933329744444444,7.083792077777778
180,1778428861160,-2.0460911875,-1.1336560875,1.4918248375,-0.6707103,4.3187378125,7.5078470625
181,1778428861170,-1.920417,-1.1785139,1.4840499,-0.4221718,4.0980215,7.601383
182,1778428861180,-1.920417,-1.1785139,1.4840499,-0.4221718,4.0980215,7.601383
183,1778428861190,-1.69722175,-1.2848386625,1.2823842375,0.13789877050000002,4.161110825,7.613829325
184,1778428861200,-1.6124111,-1.3856906,1.2383039,0.28824356,4.2734113,7.5885553
185,1778428861210,-1.6124111,-1.3856906,1.2383039,0.28824356,4.2734113,7.5885553
186,1778428861220,-1.6105285125,-1.6085771,1.4058518,0.2670166075,4.16855535,7.4696693625
187,1778428861230,-1.643907,-1.7586086,1.5089295,0.322451,3.9563049999999995,7.438287300000001
188,1778428861240,-1.643907,-1.7586086,1.5089295,0.322451,3.9563049999999995,7.438287300000001
189,1778428861250,-1.7610242333333332,-1.8821219777777776,1.5163181444444445,0.5423560111111111,3.2602785,7.5779675666666675
190,1778428861260,-1.9011171,-1.983134,1.4642928,0.7286644,2.636875,7.7394347
191,1778428861270,-1.9067847666666669,-1.9954179111111108,1.4467206333333333,0.7499083111111111,2.6769194333333335,7.781651066666667
192,1778428861280,-1.9521261,-2.0936892,1.3061433,0.9198596,2.9972749,8.119382
193,1778428861290,-1.890825,-2.1572666999999996,1.3002622888888888,0.9442934666666667,3.160981833333333,8.136078
194,1778428861300,-1.8733104,-2.1754317,1.298582,0.9565103999999999,3.2428353,8.144426
195,1778428861310,-1.8770040285714287,-2.2074370857142855,1.3120365714285713,0.8812889442857142,3.081571657142857,8.003582242857142
196,1778428861320,-1.9311110875,-2.234886525,1.3098210750000001,0.56801161,2.601751175,7.44546435
197,1778428861330,-1.9745969,-2.2030249,1.2858677,0.46172416,2.6576438,7.2489243
198,1778428861340,-1.9851971555555556,-2.2306789333333334,1.2712598000000002,0.41930421333333334,2.9736554444444443,7.197748955555555
199,1778428861350,-1.9904516,-2.285987,1.2334256,0.32733777,3.7944305,7.1127057
200,1778428861360,-1.8669688,-2.343094,1.2246141,0.3262688,4.1391774375,7.2917601874999995
201,1778428861370,-1.8669687999999998,-2.343094,1.2246141,0.32611609,4.188427,7.317339399999999
202,1778428861380,-1.8669688,-2.343094,1.2246141,0.32611609,4.188427,7.3173394
203,1778428861390,-0.8829098,-2.593116175,1.055503625,0.026800924749999996,3.4005867,8.4978685
204,1778428861400,-0.5276222,-2.6322877,0.9961862,-0.046500746,2.7773697,8.741912
205,1778428861410,-0.14694452000000002,-2.5659385375,0.851867555,-0.13728792375,2.2649261375,8.72244125
206,1778428861420,0.8255092875000001,-2.3435551375,0.470221785,-0.3281013475,1.1503017500000001,8.48655875
207,1778428861430,1.9087258333333332,-1.975470977777778,0.20875203111111112,-0.26823831555555555,1.1206757333333333,7.811514555555555
208,1778428861440,3.13039605,-1.84462755,0.236667775,0.08124268374999999,1.37894,6.6205155
209,1778428861450,4.09935135,-1.9027482875000001,0.30624882875,0.5456488475,1.7306066625,5.7124814
210,1778428861460,5.095070433333333,-2.1363883333333336,0.4875216777777778,2.1000928666666665,2.7655602,3.2988805666666665
211,1778428861470,5.399671533333333,-2.1771528888888887,0.4853365977777778,2.8709822,3.044921,2.1512513
212,1778428861480,5.659819325,-2.504094375,0.30481197649999997,3.5618504499999997,2.7086495250000002,0.6421341125000001
213,1778428861490,5.869214225,-2.812991825,-0.1233608555,3.23611615,1.0870504125,-0.71285876875
214,1778428861500,5.862864925,-2.9056116,-0.49389314,1.9824857375,-0.255735025,-1.10112855
215,1778428861510,5.8457272666666675,-2.7323444666666665,-0.6214183666666666,-0.4109984333333333,-1.8916921666666664,-1.4100645333333333
216,1778428861520,5.8561344,-2.5966454,-0.5488735,-1.9597508,-2.7949317,-1.620196
217,1778428861530,5.6883618,-2.3342711125,0.1610955375,-3.476971225,-3.5697437625,-2.5178647
218,1778428861540,5.319346287499999,-2.3086561375,0.76231203125,-4.3706885,-3.965544125,-3.8120115
219,1778428861550,4.490505877777777,-2.540642888888889,1.4830371444444443,-4.341096155555555,-3.797187722222222,-5.500043311111111
220,1778428861560,3.412325575,-2.787129075,2.129674575,-3.70738475,-3.4118873,-7.601478725
221,1778428861570,2.5192933,-3.0078888,2.5400262,-3.2089334,-3.316595,-8.573699
222,1778428861580,1.2108971866666667,-3.3327859111111113,2.8474764111111113,-1.8386503,-3.3848064444444446,-10.164065333333333
223,1778428861590,-0.29709051124999997,-3.757223725,2.9895341875000003,-0.57213480625,-3.4383829875000003,-11.379625749999999
224,1778428861600,-0.8404301225,-3.92121945,2.9343024,-0.009544487499999976,-3.3973798250000002,-11.711697749999999
225,1778428861610,-1.595093,-4.166127,2.8321776,1.206347,-3.2915504,-12.34026
226,1778428861620,-1.7979233111111113,-4.2563766,2.7605744000000003,1.5495752666666667,-3.353992533333334,-12.453199555555555
227,1778428861630,-2.4352563375,-4.3143714375,2.2993871625,2.3020543124999997,-3.594301675,-12.7419685
228,1778428861640,-2.725037,-4.3630595,2.0958843,2.360314,-3.408833,-12.80878
229,1778428861650,-2.890557325,-4.60053525,2.1346214999999997,2.3816934874999998,-2.9665034125,-12.886968249999999
230,1778428861660,-3.0758730625,-4.6795986,2.2475510625,2.8006582875,-2.2964802375,-12.72791875
231,1778428861670,-3.177853175,-4.522497375,2.2878774,3.22481535,-2.226080025,-12.2860475
232,1778428861680,-3.3171485375,-4.2863818125,2.2223515125,3.7270846,-2.680550475,-11.4227675
233,1778428861690,-3.4169066,-4.123167,2.1036897,4.0450306,-3.3581328,-10.55231
234,1778428861700,-3.531932575,-3.4139681250000002,1.5269907875,3.9926503249999996,-4.8394279125,-8.299953875
235,1778428861710,-3.4813236375,-3.0654301625,1.233433295,3.614994075,-5.9130875000000005,-6.4396187125
236,1778428861720,-3.2843074666666663,-2.638964866666667,0.8016931066666666,2.7438580666666663,-6.682380466666666,-4.486707211111112
237,1778428861730,-3.050772625,-2.4274129,0.55733435,1.663317975,-6.99740795,-2.884248975
238,1778428861740,-2.7840955,-2.3208976,0.4378304,0.7891383,-7.071626,-1.9024074
239,1778428861750,-2.3764649125,-2.2286399875000003,0.35417080625,-0.36293871499999997,-7.10308475,-1.1541195175
240,1778428861760,-1.9956449,-2.089705266666667,0.2793455633333333,-1.8241426333333333,-6.8154519,-0.6430439966666666
241,1778428861770,-1.7418001571428572,-1.9409451142857144,0.25093798142857143,-2.7381447,-6.0598120714285715,-0.7790593214285714
242,1778428861780,-1.4809666875,-1.8194240125,0.29132036375,-3.443498725,-4.92640675,-1.269264175
243,1778428861790,-1.3320559777777778,-1.7216147,0.44782422777777775,-3.771048588888889,-3.937529777777778,-2.060447211111111
244,1778428861800,-1.2871596875,-1.5845894375,0.6340042125,-3.9218971875,-3.5699440625,-2.71750685
245,1778428861810,-1.307153225,-1.44462315,0.7573994000000001,-4.0025005,-3.4912975,-3.1473906
246,1778428861820,-1.4061034125,-1.34217435,0.9042486875,-4.0475503999999995,-3.4712158875,-3.703185125
247,1778428861830,-1.708339075,-1.20515795,1.22161095,-3.80120705,-3.482134725,-4.488371975
248,1778428861840,-1.985007488888889,-1.0561693733333333,1.420699411111111,-3.278977133333333,-3.481456066666667,-5.006614488888889
249,1778428861850,-2.223026,-0.88172823,1.5543284,-2.814326,-3.5047362,-5.2151847
250,1778428861860,-2.5522525,-0.54984915,1.5474988,-2.1204035,-3.6305707,-5.4503613
251,1778428861870,-3.0925686999999997,-0.22997954333333334,1.5099695333333334,-1.7885098333333334,-3.642108944444444,-5.644881922222222
252,1778428861880,-4.281865975,0.5133988349999999,1.4478741,-1.5442218250000002,-3.5479536499999997,-5.7295181500000005
253,1778428861890,-5.278616025,1.0320648049999999,1.409426775,-1.5579659499999998,-3.0945522999999997,-5.443794375
254,1778428861900,-6.627665625,1.3400401249999998,1.6008021374999999,-1.6347798999999998,-2.5376121499999997,-4.9678585
255,1778428861910,-7.290395,1.4079175,1.8035197,-1.7972653,-2.0704668,-4.24997
256,1778428861920,-7.983758,1.466488,2.2483933,-1.8779734625,-1.7283922875000002,-3.1216585500000003
257,1778428861930,-7.987782725,1.279544925,2.3511089,-1.61438335,-1.2482377125000002,-2.1121189
258,1778428861940,-7.9905812888888885,0.694451091111111,2.4866422555555556,-0.46337006555555554,0.6940327777777777,0.9518188222222221
259,1778428861950,-7.8762601875,0.315357591,2.2937732625000002,-0.092314295,1.4926816,2.0816147
260,1778428861960,-7.1717906,-0.039544992,2.0663402,-0.09536853,2.081004,3.2239754
261,1778428861970,-6.127125733333333,-0.41471931577777776,1.9197359333333333,-0.4330991788888889,2.3258179555555554,3.9912675444444443
262,1778428861980,-5.354702625,-0.563821,1.848911175,-0.7505022125,2.6173278375,4.7974415625
263,1778428861990,-4.659342125,-0.6026800125,1.781544425,-0.69094461625,2.8034835375,5.13592735
264,1778428862000,-3.9778740999999993,-0.5911523833333333,1.6496694666666667,-0.3010883011111111,3.0722733444444446,5.535557233333334
265,1778428862010,-3.7834523,-0.58204615,1.583629,-0.1338519,3.1188333,5.647207
266,1778428862020,-3.0024922,-0.44100136,1.222175,0.36887538,3.104784,6.0706
267,1778428862030,-2.9057601749999997,-0.44841414,1.1912433125,0.3927747825,3.093101525,6.1082434999999995
268,1778428862040,-2.140124833333333,-0.5264941466666666,0.9590193499999999,0.7256101766666667,2.772483066666667,6.7431429
269,1778428862050,-1.9631025,-0.57887524,0.92761505,0.80502033,2.6454268,6.9239535
270,1778428862060,-1.8486174555555555,-0.6334109355555556,0.8961870666666667,0.9083213977777778,2.614477222222222,7.0261008333333335
271,1778428862070,-1.553047925,-0.83644358125,0.833932015,1.2265049375,2.5207376375,7.293058375
272,1778428862080,-1.5326198,-0.9317616,0.85758054,1.3120235,2.4615617,7.332
273,1778428862090,-1.5277071875,-0.9448797499999999,0.8524849725,1.3334127,2.453391625,7.327953125
274,1778428862100,-1.5030044333333334,-1.0889354666666666,0.8312172333333333,1.4601031,2.436516966666667,7.217567799999999
275,1778428862110,-1.5407607,-1.2058325625,0.892056625,1.4140351,2.5171487,7.0534534
276,1778428862120,-1.576365722222222,-1.2383615888888888,0.9565937555555555,1.4160712444444445,2.543483011111111,7.027662077777778
277,1778428862130,-1.6160699,-1.3327303,1.0457318,1.4323604,2.7541575,6.8213315
278,1778428862140,-1.7209273625,-1.4580499875,1.175625,1.5571737625,2.6292392875,6.5918819125
279,1778428862150,-1.8164474,-1.5545723,1.279038,1.6584504,2.5061536,6.39496
280,1778428862160,-1.9521032125,-1.5802941,1.3098210625,1.723276525,2.489966125,6.3101284875
281,1778428862170,-2.2501009,-1.6436629,1.3793488,1.9327208,2.547691,6.1072507
282,1778428862180,-2.2501009,-1.6436629,1.3793488,1.9327208,2.547691,6.1072507
283,1778428862190,-2.514929525,-1.7876348874999999,1.39297755,2.152778425,3.3570638500000003,5.9830199625
284,1778428862200,-2.7695061,-1.8751399000000002,1.4062481999999998,2.035953825,4.066429325,5.97042115
285,1778428862210,-2.8875465,-1.9077028,1.4276748,1.8801879,4.2831845,6.1005316
286,1778428862220,-2.8875465,-1.9077028,1.4276748,1.8801879000000001,4.2831845,6.1005316
287,1778428862230,-2.803242825,-2.0247295000000003,1.4523180249999998,1.08433025,4.440325125,7.175012000000001
288,1778428862240,-2.6425323,-2.0799994,1.4742934,0.8227349,4.380309,7.594663999999999
289,1778428862250,-2.6425323,-2.0799994,1.4742934,0.8227349,4.380309,7.594664
290,1778428862260,-1.933043011111111,-2.298223555555556,1.4856760555555555,0.3957526822222222,3.8246333777777775,8.440696555555554
291,1778428862270,-1.6563465499999999,-2.394895825,1.459155225,0.31802236500000003,3.377832525,8.461226875
292,1778428862280,-1.4981972,-2.4053233,1.3573962,0.2772483,2.9710083,8.427325
293,1778428862290,-1.2437883125,-2.4365255875000003,1.114409475,0.04787515250000001,2.4983652750000003,8.25699425
294,1778428862300,-1.0667391,-2.4143481,0.8809965,-0.3393680711111111,1.982928966666667,8.006782811111112
295,1778428862310,-1.0667391,-2.4143481,0.8809965,-0.7764632,1.9313463,7.7657013
296,1778428862320,-0.4507207644444444,-2.3403093333333334,0.6194975533333333,-1.0992960333333333,2.5784372444444443,7.317610966666667
297,1778428862330,0.25229366999999997,-2.281055375,0.6389854675000001,-1.1600753,3.1713662,6.9606047
298,1778428862340,0.73092675,-2.1505523,0.74897665,-1.1600753,3.1713662,6.9606047
299,1778428862350,1.65234484375,-1.8975077249999999,1.0332081062499998,-0.056427012500000005,4.5863747,6.645941799999999
300,1778428862360,3.7317194,-2.073169725,1.331830775,2.07183156875,4.7091552375,6.2568894375
301,1778428862370,4.95221,-2.4223974,1.2331817,3.9576793,4.156052,5.402868
302,1778428862380,5.991240388888889,-2.5747403777777773,0.8425660811111111,4.875494433333333,3.3102322444444443,4.364147522222222
303,1778428862390,7.006357275,-2.9984181249999997,0.190445565,5.5093080375,1.4935883137500001,2.6460375999999997
304,1778428862400,7.0390387,-3.1730816,-0.08738314,4.6669493,-0.11690089,1.7951274
305,1778428862410,6.897864375,-3.17181625,-0.356682385,2.8998447625,-2.18225179875,1.4083084124999998
306,1778428862420,6.745019925,-3.01360575,-0.740439545,0.7332457625,-4.0887824375,0.9939152775
307,1778428862430,6.6829815,-2.9297748,-0.9117605,-1.0434035,-4.8242426,0.29419932
308,1778428862440,6.309887077777778,-2.8524801,-0.5072856965555556,-3.4590497888888887,-4.246228444444444,-2.1038682755555556
309,1778428862450,5.668295475000001,-2.8714022750000003,0.31982048275,-4.889755924999999,-3.5002310625,-4.5237918375
310,1778428862460,4.8704367,-2.964929,1.0955212,-5.4178333,-3.0111716,-6.7484117
311,1778428862470,3.51549845,-3.022763925,1.9373234625,-5.3146766625,-2.662683075,-8.6539397125
312,1778428862480,1.8275862,-3.0474947666666665,2.8765702666666666,-4.6608410777777785,-2.637672488888889,-10.55123261111111
313,1778428862490,0.6755272,-3.0779235,3.4598362,-3.7153258,-2.9360373,-11.69154
314,1778428862500,-0.10455894444444443,-3.199861511111111,3.5963514888888892,-2.5337350844444444,-3.1894711,-12.022890666666667
315,1778428862510,-1.7171656375,-3.4470075,3.4490161125,0.6487197874999999,-3.567118825,-12.594448499999999
316,1778428862520,-2.414592,-3.5620980000000007,3.1101203,1.3034717,-3.5621557,-12.769686
317,1778428862530,-2.934165,-3.6294494,2.8636427,1.847813,-3.3062108,-12.840544
318,1778428862540,-3.3709588888888886,-3.6926273777777774,2.404378133333333,2.9676317444444447,-2.691359022222222,-12.177027777777777
319,1778428862550,-3.1885854,-3.6075735,1.864948775,3.4137961750000003,-2.521348375,-11.50378075
320,1778428862560,-2.8701676000000003,-3.49665215,1.411012175,3.3245362500000004,-2.599918525,-10.702712250000001
321,1778428862570,-2.691346,-3.433493,1.1457986,2.9461164,-2.7442312,-10.215657
322,1778428862580,-2.579883775,-3.3548983999999997,1.007204375,2.1459064,-2.9268746,-9.620081
323,1778428862590,-2.5966187375,-3.1915581875,0.918045145,1.3001979750000001,-3.08661125,-8.773752
324,1778428862600,-2.612476211111111,-3.0523664333333334,0.9080204466666666,0.5889840256666666,-3.2707817333333336,-7.702809333333333
325,1778428862610,-2.5970952,-2.8102631000000002,0.9270663124999999,-0.19539476725000002,-3.6689204,-6.289664999999999
326,1778428862620,-2.5215698,-2.5860045333333335,0.8800310499999999,-0.8217507666666667,-4.277466222222222,-4.985964666666667
327,1778428862630,-2.371212875,-2.39878315,0.7681316874999999,-1.536280875,-5.0682759,-3.459686025
328,1778428862640,-2.154390588888889,-2.2823147777777777,0.5563772888888889,-2.0965126,-5.5225767999999995,-2.4680435
329,1778428862650,-1.8692020875,-2.1804892875,0.30905384625,-2.5516617,-5.698365,-1.8627024
330,1778428862660,-1.4507326,-2.141443525,0.0217771825,-3.443518,-5.281309275,-1.498026625
331,1778428862670,-1.0720409000000002,-2.1629920666666664,-0.09971449,-4.298354311111111,-4.717751777777777,-1.7082259222222222
332,1778428862680,-0.7361786125,-2.2123395749999997,-0.032402807500000005,-5.3378124,-4.055624825,-2.480288
333,1778428862690,-0.6307549155555556,-2.2579062222222226,0.22522316777777776,-6.1771164,-3.6043043000000003,-3.416774
334,1778428862700,-0.73941049,-2.19081365,0.7337775625,-6.6814471875,-3.6002573625,-4.587109625
335,1778428862710,-1.050632905,-2.0498147500000004,1.235979075,-6.730601325,-3.841637475,-5.3938575
336,1778428862720,-1.4605043500000001,-1.812300875,1.594368925,-6.3186804,-4.0851176,-5.851229375
337,1778428862730,-1.7917812999999998,-1.6702499,1.8183987999999998,-5.7812877,-4.1859074,-6.0001235
338,1778428862740,-2.1451862,-1.4527982,1.8933117,-4.700699,-4.0802307,-6.02639
339,1778428862750,-2.39520455,-1.1512066625,1.79066095,-3.73886245,-3.552783125,-6.0334911625
340,1778428862760,-2.6762081,-0.65405494,1.620170725,-2.3367197749999997,-2.4164353625,-6.1116031875
341,1778428862770,-2.7856731249999998,-0.3901675575,1.5623167500000001,-1.4467726375,-1.6892981,-6.330897175
342,1778428862780,-3.026822866666667,-0.10485367533333334,1.5419700666666667,-0.74897511,-1.2453903,-6.55742
343,1778428862790,-3.225798,0.051009074,1.544084,-0.36047623,-1.0869263,-6.631129
344,1778428862800,-3.8370125111111113,0.3691848082222222,1.5332432222222223,0.015126956111111109,-1.3026911777777779,-6.351089366666667
345,1778428862810,-4.677338475,0.77869635,1.581959675,-0.03810159875000001,-2.03121985,-5.496480125
346,1778428862820,-5.293285375,0.9698698375,1.6426682625,-0.35390963125,-2.4301795000000004,-4.9578557875
347,1778428862830,-6.795257333333334,1.4399993333333334,1.9307055,-1.1859599333333333,-2.3799626666666667,-3.841923866666667
348,1778428862840,-7.336768999999999,1.570427,2.132716,-1.5138322,-1.8701088,-3.237185
349,1778428862850,-7.975038866666667,1.5492977333333335,2.8019927,-1.2851462800000002,-0.5406252626666668,-1.4222814666666668
350,1778428862860,-7.9943082,1.4082758,3.1344893249999997,-0.92016506,0.1042258105,-0.08772337499999999
351,1778428862870,-7.946926866666666,1.1424378888888889,3.3673172333333334,-0.4573294694777778,0.6811370888888889,1.7575348333333334
352,1778428862880,-7.297598075,0.48596587750000003,3.542828525,0.178291046025,0.948569425,3.8177190750000003
353,1778428862890,-6.285926055555556,-0.20168860333333333,3.551250555555556,0.9163981444444443,0.8109760777777777,5.604074111111111
354,1778428862900,-5.35492395,-0.76405375,3.4012884249999997,1.2451453,0.60924378125,6.1545155
355,1778428862910,-4.7166777,-1.0406095,3.1779904,1.6578394,0.30885965,6.451158
356,1778428862920,-4.049664775,-1.1364001750000001,2.688426775,2.137049125,0.1961583325,6.192750350000001
357,1778428862930,-3.4934052666666666,-1.0758926555555555,2.0975105555555555,2.5956258,0.5657548688888889,5.537253911111112
358,1778428862940,-3.184576,-1.0191449,1.7256494,2.8697605,1.2019184,4.9428997
359,1778428862950,-2.798300111111111,-0.7980648333333333,1.1543153666666666,3.1083980333333336,2.873680033333333,3.9523091999999997
360,1778428862960,-2.7233295,-0.747757,1.0459757,3.0847785,3.4828985,3.7315896
361,1778428862970,-2.5932407000000004,-0.7428786833333334,0.8963124766666666,2.9554147555555557,3.8313527555555558,3.9307936333333333
362,1778428862980,-2.489215275,-0.7828352875,0.7769203474999999,2.6985704750000004,3.9913523,4.4970575
363,1778428862990,-2.3964507333333334,-0.8702743466666667,0.7090251000000001,2.4626647333333334,3.8964419111111113,5.0331015
364,1778428863000,-2.32963675,-1.00420875,0.7334193125,2.0771861375,3.64446755,5.8290385
365,1778428863010,-2.292573,-1.1062536,0.784375,1.8710251999999998,3.4596863,6.262406
366,1778428863020,-2.247181575,-1.2902200499999998,0.907011775,1.7010569000000002,3.179765375,6.8900517500000005
367,1778428863030,-2.12090125,-1.597463675,1.068553175,1.691436075,2.719950175,7.7919678
368,1778428863040,-2.0259946749999997,-1.763346025,1.1251876375,1.822004625,2.4352189375,8.195814
369,1778428863050,-1.9314466,-1.941569075,1.1688563250000001,1.9507406250000001,2.27265725,8.35241975
370,1778428863060,-1.8556571,-2.0698464333333333,1.1842866333333333,2.1302958,2.1838977,8.36596011111111
371,1778428863070,-1.802048725,-2.16779425,1.201503075,2.3123622375,2.2088237124999996,8.204289075
372,1778428863080,-1.7895861999999998,-2.2401001,1.2243702,2.5325727,2.3467224,7.840835600000001
373,1778428863090,-1.8136272,-2.247791125,1.2171137,2.61961845,2.4157481499999998,7.710572375
374,1778428863100,-1.9168039,-2.2399325,1.162705075,2.9122143,2.717812125,7.254422025
375,1778428863110,-2.009965,-2.1471374,1.0647877,3.0065901,3.0027723,7.05834
376,1778428863120,-2.0301605,-2.1665059625,1.074022225,2.8790757625,3.2004578,6.954037825
377,1778428863130,-2.0746334,-2.2096107,1.107717,2.5942683,3.6093438,6.7248173
378,1778428863140,-2.154211,-2.1947012,1.1755869,2.455606,3.756558,6.6044807
379,1778428863150,-2.1573209375,-2.1923534875,1.1951688375,2.4227729625,3.8204774125,6.6108945875
380,1778428863160,-2.1645698749999998,-2.17171195,1.33767715,2.163621025,4.23872635,6.7248176
381,1778428863170,-2.121008,-2.1590893,1.3539814,2.075659,4.1511655,6.931895
382,1778428863180,-2.1040176749999997,-2.1650995625,1.3524835999999998,2.075659,4.1511655,6.931895
383,1778428863190,-1.786796275,-2.2815965,1.2948469,1.7651958749999999,3.5951415375,7.48287905
384,1778428863200,-1.4228192874999999,-2.3540093125,1.205394225,1.5497195,3.1334937,7.6960645
385,1778428863210,-1.2146136,-2.3360205,1.1660436,1.5497195,3.1334937,7.6960645
386,1778428863220,-0.8814030777777778,-2.209007622222222,0.9738711555555556,1.3993237777777778,2.4079429777777777,7.6337580888888885
387,1778428863230,-0.65330034,-2.1007628,0.8143768,1.3004174,1.8549904,7.5109777
388,1778428863240,-0.65330034,-2.1007628,0.8143768,1.3004174,1.8549904,7.5109777
389,1778428863250,-0.06546114266666668,-1.8306217666666669,0.5635457644444445,1.1264617,2.090098811111111,6.7540024
390,1778428863260,0.7685238444444444,-1.554528411111111,0.5371892333333332,1.2191747,2.4462905,6.0199
391,1778428863270,1.253406488888889,-1.4197001,0.5165850333333333,1.3311718444444445,2.5134158444444443,5.904169855555555
392,1778428863280,1.8174232,-1.3129729,0.4185305,2.227149,3.0504186,4.9783287
393,1778428863290,1.8174232,-1.3129729,0.4185305,2.227149,3.0504186,4.9783287
394,1778428863300,3.677047675,-1.8100408250000002,-0.026426845249999997,2.79203015,2.2095872,4.29937215
395,1778428863310,4.124631,-2.1803102,-0.34288585,2.6522987,1.5654488,3.9979188
396,1778428863320,4.124631,-2.1803102,-0.34288585,2.6522987,1.5654488,3.9979188
397,1778428863330,4.124631,-2.1803102,-0.34288585,2.6522987,1.5654488,3.9979188
398,1778428863340,4.124631,-2.1803102,-0.34288585,2.6522987,1.5654488,3.9979188
399,1778428863350,4.124631,-2.1803102,-0.34288585,2.6522987,1.5654488,3.9979188
400,1778428863360,4.124631,-2.1803102,-0.34288585,2.6522987,1.5654488,3.9979188
401,1778428863370,4.124631,-2.1803102,-0.34288585,2.6522987,1.5654488,3.9979188
402,1778428863380,4.673741025,-2.389156175,0.3833988875,-1.587248425,-0.5512324,-1.830193875
403,1778428863390,4.657795833333334,-2.461373277777778,0.741550711111111,-3.1408578222222223,-1.5499570555555555,-4.372224133333333
404,1778428863400,3.9613593,-2.4704795,1.1477499,-3.306669,-1.949519,-5.2084656
405,1778428863410,3.9613593,-2.4704795,1.1477499,-3.306669,-1.9495189999999998,-5.2084656
406,1778428863420,3.9613593,-2.4704795,1.1477499,-3.306669,-1.949519,-5.2084656
407,1778428863430,3.9613593,-2.4704795,1.1477499,-3.306669,-1.9495189999999998,-5.2084656
408,1778428863440,3.9613593,-2.4704795,1.1477499,-3.306669,-1.949519,-5.2084656
409,1778428863450,3.9613593,-2.4704795,1.1477499,-3.306669,-1.949519,-5.2084656
410,1778428863460,3.9613593,-2.4704795,1.1477499,-3.306669,-1.949519,-5.2084656
411,1778428863470,-1.5570001625,-3.1589799624999997,2.3958715500000003,-1.3085207125,-3.5190147874999997,-9.7970545875
412,1778428863480,-2.6099921875,-3.3077233625,2.1433378125,-0.52456508,-3.2901760625,-10.329350375
413,1778428863490,-2.721172425,-3.3136079499999997,1.850961725,-0.41781952624999996,-2.937029925,-10.29505725
414,1778428863500,-2.7322426777777777,-3.2916589444444444,1.6547443222222222,-0.5978243444444444,-2.2779511666666665,-10.185114
415,1778428863510,-2.6088375625,-3.2523543125,1.622788975,-0.848085075,-1.83070915,-10.02827975
416,1778428863520,-2.486540888888889,-3.230754222222222,1.6700465222222223,-0.9350798555555555,-1.4139332111111111,-10.055139666666667
417,1778428863530,-2.36390325,-3.25319275,1.8224843750000002,-0.543883153,-0.6600968325000001,-10.3555595
418,1778428863540,-2.263059,-3.345622,1.995086,0.023746688,-0.24273543,-10.579187
419,1778428863550,-2.246502888888889,-3.275008222222222,2.0316905000000003,1.2098932444444443,-0.2841373055555556,-10.686832333333335
420,1778428863560,-2.2928166,-3.190918,1.9377351,1.9064543,-0.7540146,-10.524822
421,1778428863570,-2.4228852,-3.0713377,1.6609812,2.395132,-1.9440213000000002,-9.905957
422,1778428863580,-2.572538355555556,-2.763145488888889,1.1966347733333333,2.3819650333333335,-3.4447459333333335,-8.784569588888889
423,1778428863590,-2.66847885,-2.551078775,0.8661938725,1.8531578999999998,-4.7978234,-7.307031374999999
424,1778428863600,-2.6682484222222222,-2.4167637111111113,0.7524558333333334,1.4810246488888887,-5.255296988888889,-6.643413722222222
425,1778428863610,-2.5904762666666667,-2.1908189,0.6288171666666666,0.29998539333333335,-6.309907766666667,-4.8042035
426,1778428863620,-2.49417,-2.1678703,0.5998521,-0.25113457,-6.671521,-3.9921923
427,1778428863630,-2.259474733333333,-2.1696590444444444,0.5725605222222222,-0.9318390044444445,-6.8338705555555554,-3.4009600222222223
428,1778428863640,-1.9682321624999999,-2.208188925,0.6397248249999999,-1.7842084875,-6.854087825000001,-3.0604975125
429,1778428863650,-1.8717555,-2.2505174333333335,0.7537736666666667,-2.324833711111111,-6.462237977777778,-3.4574972777777777
430,1778428863660,-1.8410830749999998,-2.270437325,0.8469702075,-2.4546897,-6.092361575,-3.8770474999999998
431,1778428863670,-1.8520594000000001,-2.2647662,0.86782503,-2.462478,-5.6965322,-4.332434
432,1778428863680,-1.946436,-2.1099783875,0.8148379,-2.4672884,-5.2336628,-4.862716375
433,1778428863690,-2.161904622222222,-1.8158342555555553,0.8679740222222222,-2.7759105555555554,-4.458887833333333,-5.7332511888888895
434,1778428863700,-2.5515208,-1.5572555,1.0623486,-3.025679,-4.1162705,-6.0856423
435,1778428863710,-2.9698074,-1.2177845,1.298582,-2.998802,-4.0283084,-6.086253
436,1778428863720,-3.479372225,-0.891378215,1.426882,-2.83860725,-4.263637475,-5.620787475
437,1778428863730,-3.8226848625,-0.5975424549999999,1.3991631,-2.94626905,-4.4848404625,-5.1201884374999995
438,1778428863740,-4.163749125000001,-0.23696885750000002,1.36023175,-3.3311028,-4.8114147,-4.5663886
439,1778428863750,-4.77056035,0.267462245,1.4393294,-4.80439025,-5.0614041,-3.66202925
440,1778428863760,-5.402777911111111,0.6580227911111112,1.7455795777777778,-5.777088066666667,-4.799740988888889,-3.0303708333333335
441,1778428863770,-5.995140571428571,0.7527486285714285,2.4395370000000005,-6.603738885714286,-4.2350367,-2.094824257142857
442,1778428863780,-6.701854,0.8977658,3.407709,-6.8831286333333335,-3.9493058,-0.7668423696666667
443,1778428863790,-7.106146,0.9961862,3.943797,-6.8534007,-3.814512,0.019928891
444,1778428863800,-7.3822602,1.0076841666666665,4.791725977777777,-5.790119522222223,-2.826907777777778,1.599783510111111
445,1778428863810,-7.121075,0.8271023975,5.4251181375,-3.9137558500000003,-1.7813643,2.994239625
446,1778428863820,-5.963437555555555,0.5100839677777778,5.505971555555555,-1.3419042,-0.8973600422222222,4.131626711111111
447,1778428863830,-4.8933875,0.221285775125,5.041575,1.747509875,0.0700183675,4.6823732499999995
448,1778428863840,-4.172225,0.0131715005,4.501452,2.958944,0.48234028000000007,4.656412
449,1778428863850,-3.334576114285714,-0.1825542057142857,3.7538951857142857,4.340964257142857,1.3091002,3.9051573714285714
450,1778428863860,-2.9147296444444444,-0.4245234022222222,3.1817033444444447,5.008955844444444,1.905555,3.297675877777778
451,1778428863870,-2.6746224,-0.691076895,2.7232001,5.89643205,2.940924125,2.5162325
452,1778428863880,-2.5158548,-0.9571527777777779,2.2857703555555555,6.508272000000001,3.6187102,2.1439212
453,1778428863890,-2.4048398285714288,-1.1453761142857144,1.8695038285714285,6.9833583428571435,4.180409857142857,1.9037709428571428
454,1778428863900,-2.3045209125,-1.2532438,1.4709661625,7.178829725,4.572803,1.8472785375
455,1778428863910,-2.220471622222222,-1.2517464555555555,0.9806534911111111,6.997187222222222,4.8815436,1.9238125666666666
456,1778428863920,-2.18396115,-1.2390357,0.6633237575,6.421607925,5.1006510249999994,2.15201485
457,1778428863930,-2.13534565,-1.24769475,0.4183018275,5.354763525,5.2619145,2.633057125
458,1778428863940,-2.146680075,-1.2840459750000002,0.372098695,4.575933,5.266038,3.0357583
459,1778428863950,-2.1568941875,-1.3742379375,0.4419693875,2.9655871499999997,5.1116460375,3.978906375
460,1778428863960,-2.1593335,-1.403527,0.4907908,2.4177334,5.0742316,4.338161
461,1778428863970,-2.1598990111111114,-1.4580897666666666,0.5685256844444444,1.8245922777777777,5.132872988888889,4.782450566666667
462,1778428863980,-2.134301375,-1.5728128125,0.7182240575000001,0.9782718899999999,5.2751243875,5.50336155
463,1778428863990,-2.128569325,-1.6797168999999998,0.9162119550000001,0.31160845225,5.145853775,6.2239226875
464,1778428864000,-2.1264553333333334,-1.8087944666666667,1.1118839666666664,-0.07921501088888888,4.8087849333333335,6.7968975
465,1778428864010,-2.1105194,-1.8945312,1.2172967,-0.38613182,4.3051753,7.455391
466,1778428864020,-2.1105194,-1.8945312000000003,1.2172967,-0.38613182,4.3051753,7.455391
467,1778428864030,-2.1105194,-1.8945312,1.2172967,-0.38613182,4.3051753,7.455391
468,1778428864040,-2.1105194,-1.8945312,1.2172967,-0.38613182,4.3051753,7.455391
469,1778428864050,-1.983336,-2.1573629875,1.4354268,-0.15859122,3.0159248124999998,8.543824875
470,1778428864060,-1.89819,-2.2564428,1.4820987,0.15507884,2.5953374,8.815213
471,1778428864070,-1.8362046,-2.211318,1.4398706,0.15507884,2.5953374,8.815213
472,1778428864080,-1.8362046,-2.211318,1.4398706,0.15507884,2.5953374,8.815213
473,1778428864090,-1.8362046,-2.211318,1.4398706000000001,0.15507884,2.5953374000000005,8.815213
474,1778428864100,-1.8362046,-2.211318,1.4398706,0.15507884,2.5953374,8.815213
475,1778428864110,-1.7518975555555556,-2.1361239666666667,1.5298453777777778,0.5790068611111111,3.795745533333333,7.830883666666667
476,1778428864120,-1.4517513666666666,-1.9736924666666669,1.8046480333333332,1.5692157666666666,7.0232672,5.365402499999999
477,1778428864130,-1.3454671875,-1.959683775,1.8681196875,1.8490347,7.5555696,4.9239635
478,1778428864140,-1.2346452,-1.877701,1.7942206,2.4983654,7.9593396,4.4291773
479,1778428864150,-1.2346452,-1.8777010000000003,1.7942206,2.4983654,7.959339599999999,4.4291773
480,1778428864160,-1.2346452,-1.877701,1.7942206,2.4983654,7.9593396,4.4291773
481,1778428864170,-1.2346452,-1.8777010000000003,1.7942206,2.4983654,7.959339599999999,4.4291773
482,1778428864180,-1.0831500775,-1.7878558125000001,1.45277535,2.3970410625,7.42673815,4.585477775
483,1778428864190,-0.36480108666666666,-1.623251911111111,0.5309625688888889,1.1168494044444444,5.611641722222222,5.261558222222223
484,1778428864200,0.30680142499999996,-1.493799075,0.40657861,0.41713232,5.2422147,5.2800875
485,1778428864210,0.7197066,-1.2729402,0.38828486,-0.2898215822222222,4.900683144444445,4.959188744444444
486,1778428864220,0.7197066,-1.2729402,0.38828486,-0.37819082,4.8579917,4.9190764
487,1778428864230,0.7197066,-1.2729402,0.38828486,-0.37819082,4.8579917,4.9190764
488,1778428864240,0.7197066,-1.2729402,0.38828486,-0.37819082,4.8579917,4.9190764
489,1778428864250,0.7197066,-1.2729402,0.38828486,-0.37819082,4.8579917,4.9190764
490,1778428864260,3.3667276555555556,-1.0801036944444444,1.1613312777777776,-0.9115283444444445,3.119045588888889,4.804983888888889
491,1778428864270,4.4817404625,-1.5089447624999999,1.2337191,-1.3667993875,1.29489115125,4.760638
492,1778428864280,4.9231534,-1.6578102,1.2102231,-1.7978762,0.34917557,4.512863
493,1778428864290,5.4018889,-1.4991118375,1.192481925,-2.7913428875,-0.7977760787499999,3.6435417
494,1778428864300,5.769709777777777,-1.2939135,1.3331129666666666,-3.5103526777777776,-1.3173600222222221,1.9874594800000003
495,1778428864310,5.7527898749999995,-1.2929832125,1.577187975,-3.327437775,-1.171585925,-0.0055739549999999916
496,1778428864320,5.608193,-1.3129729,1.6429311,-3.0580542,-1.0350044,-1.1156361
497,1778428864330,4.594312866666667,-1.2328666333333334,1.7832172111111113,-2.4237231333333336,-0.8160495333333333,-3.5358809
498,1778428864340,3.42812675,-1.2524206,1.874876975,-1.7089979625,-0.9650909375,-5.2192605
499,1778428864350,2.853398,-1.2629396,1.9011171,-1.3592879,-1.201842,-5.775943
500,1778428864360,2.853398,-1.2629396,1.9011171,-1.3592879,-1.201842,-5.775943
501,1778428864370,1.472360975,-1.4042435625,1.815818675,-0.4885346425,-2.9330595125,-6.3895387625
502,1778428864380,0.799931458888889,-1.5411672666666665,1.6479349888888888,0.06304452666666667,-4.288122111111111,-6.753026755555556
503,1778428864390,0.34849593,-1.6954038,1.5025877,0.20639002,-4.690467,-6.9805336
504,1778428864400,-0.22616495,-1.9710839666666666,1.4680057111111111,0.29475925000000003,-4.896119,-7.3090333888888885
505,1778428864410,-0.6549772312500001,-2.3216788,1.535680325,0.39086587500000003,-5.03055615,-7.655996875
506,1778428864420,-1.0306013250000001,-2.65345505,1.5741543249999999,0.5327351525,-5.107675775000001,-8.156643500000001
507,1778428864430,-1.450121888888889,-2.939161944444445,1.5996733,0.6337794833333333,-5.0239897,-8.652498333333334
508,1778428864440,-1.7408714,-3.0931719375,1.6268441500000002,0.808380015,-4.79889225,-9.161029
509,1778428864450,-1.9326129,-3.1828685,1.6468339,0.9284115,-4.689856,-9.375131
510,1778428864460,-2.087066144444444,-3.2032491222222226,1.612333277777778,1.1591759444444445,-4.563342844444445,-9.494586111111111
511,1778428864470,-2.2524942,-3.1525961875,1.4910245125,1.5360231375,-4.303189925,-9.37406225
512,1778428864480,-2.3629868,-2.986810488888889,1.238554711111111,2.062763133333333,-3.9717034111111107,-8.855096555555555
513,1778428864490,-2.3159278,-2.765456,1.0067762999999998,2.133553644444445,-4.011883644444445,-8.216540166666668
514,1778428864500,-2.280621,-2.5846934,0.8692885,1.9406618,-4.2024,-7.518079
515,1778428864510,-2.222423925,-2.427481625,0.7970053375,1.569514775,-4.489651125,-6.87943825
516,1778428864520,-2.05545145,-2.2142641,0.753043175,0.65864605125,-5.2090000125,-5.5167907625
517,1778428864530,-1.9469937000000002,-2.170905822222222,0.797116311111111,0.35054997,-5.4949527,-5.0594187
518,1778428864540,-1.7754618249999998,-2.1484141125,0.8586476999999999,-0.26663483125,-5.9247602624999995,-4.6314534375
519,1778428864550,-1.6587553666666666,-2.113172066666667,0.85871544,-0.6249731,-6.1882644,-4.417953
520,1778428864560,-1.5526896625,-2.021509075,0.80879721,-0.87671850625,-5.9502628875,-4.5676866375
521,1778428864570,-1.4999046,-1.9797191999999997,0.77876496,-0.9890380444444445,-5.630900122222222,-4.777945544444445
522,1778428864580,-1.4330409,-1.9483454,0.74885465,-1.0360733,-5.4631886,-4.900522
523,1778428864590,-1.4043196666666666,-1.9352145333333333,0.7321463666666667,-1.3075694666666666,-4.932769911111111,-5.446085
524,1778428864600,-1.4410189999999998,-1.9256916666666666,0.7221356,-1.5751206,-4.821799333333334,-5.739495266666666
525,1778428864610,-1.5467098875,-1.8473411125,0.71654715,-1.8514780000000002,-4.7765963750000004,-5.9248366
526,1778428864620,-1.6564889000000003,-1.8095671111111113,0.7424518777777778,-2.159701388888889,-4.709810711111111,-6.047294577777778
527,1778428864630,-1.82145379,-1.89138162,0.8583427699999999,-2.5165380500000003,-4.56041786,-6.23468903
528,1778428864640,-2.0690230625,-1.7827336125000002,0.9605476374999999,-2.7738574375000002,-4.276694249999999,-6.6185298249999995
529,1778428864650,-2.5798964666666664,-1.4167595333333332,1.0670439333333332,-2.7839872666666667,-3.7204161666666664,-6.808478
530,1778428864660,-2.9220837,-1.1399293499999998,1.1263233,-2.6709297624999997,-3.2984987875,-6.786512875
531,1778428864670,-3.241974377777778,-0.853122311111111,1.1751024,-2.4215513777777775,-2.8667401555555556,-6.5156785555555565
532,1778428864680,-3.719526,-0.5122656866666666,1.3369682666666667,-2.271418666666667,-2.517607,-5.746282466666667
533,1778428864690,-4.088638075,-0.3044537375,1.6187529999999999,-2.2810564375,-2.494089475,-4.9845614875
534,1778428864700,-4.3481803,-0.22428137,1.9277344,-2.2841105,-2.5872436,-4.4118443
535,1778428864710,-4.8715747333333335,-0.4656369266666667,2.5655867666666667,-1.9589362888888888,-3.253270677777778,-3.214108522222222
536,1778428864720,-5.15371145,-0.696168675,2.7066213875,-1.479166675,-3.3602706749999998,-2.65970525
537,1778428864730,-5.565494088888888,-0.6759201577777777,2.6629093333333334,-1.2949453,-3.0624148,-2.4644632222222222
538,1778428864740,-5.9594904500000005,-0.509027375,2.62875095,-1.4550382375000002,-2.4714115375,-2.3191483125
539,1778428864750,-6.2781105,-0.19766398,2.6500936,-1.7575603,-1.8530052,-2.1100955
540,1778428864760,-6.2781105,-0.19766398,2.6500936,-1.7575603,-1.8530052,-2.1100955
541,1778428864770,-6.675969125,0.497490895,2.7176356999999998,-1.7771073875,-0.834054665,-0.7035337749999999
542,1778428864780,-6.821678666666667,0.7490681066666667,2.9168469666666663,-1.6048484333333333,0.04721340666666668,1.0869518
543,1778428864790,-6.712320200000001,0.63380226625,3.14323985,-1.3124721662499998,0.5386909275,2.3949125375
544,1778428864800,-6.2787049625,0.35781432875,3.2337710125,-0.6540647187499999,0.91252945,3.6560734875
545,1778428864810,-5.188270066666667,-0.1810878,2.9783546333333333,0.8752677577777778,1.4314102444444443,5.527904688888889
546,1778428864820,-4.721387999999999,-0.33928048,2.7152041,1.4775823000000001,1.655396075,6.068156775
547,1778428864830,-3.5390478,-0.669177775,1.9756792499999998,2.1393400000000002,2.0193847375000002,6.610818
548,1778428864840,-2.877546,-0.7753501,1.5367665,2.384137,2.4090288,6.727872
549,1778428864850,-2.354992625,-0.7706394750000001,1.1685514,2.260669375,2.7347631,6.53362245
550,1778428864860,-1.9496124777777777,-0.7459412422222222,0.9005267777777779,1.9302094666666667,3.2067952666666666,6.211027333333333
551,1778428864870,-1.8091146999999999,-0.760577935,0.8782067,1.6552242750000001,3.467779775,6.036392875
552,1778428864880,-1.7481913666666664,-0.7893346666666666,0.9345463999999999,1.3537648,3.6825775666666667,5.893047033333334
553,1778428864890,-1.7015017,-0.8148646,1.0089004,1.1656917222222223,3.782077833333333,5.862165355555556
554,1778428864900,-1.6808603500000001,-0.87538648,1.13043185,1.0857047,3.78190815,6.0385305
555,1778428864910,-1.6738173,-0.9567860749999999,1.2331131124999999,1.0727242000000001,3.7131878499999997,6.192616825
556,1778428864920,-1.6616519250000001,-1.0378121249999999,1.296508575,1.145873125,3.5421505499999997,6.39999965
557,1778428864930,-1.6568344333333331,-1.1611653666666666,1.3330655333333334,1.303336,3.337177422222222,6.6165618777777775
558,1778428864940,-1.676599425,-1.2727648249999999,1.34318045,1.452537525,3.085389525,6.83675515
559,1778428864950,-1.710831625,-1.3614133,1.3229735,1.579192875,2.8525039999999997,7.088119024999999
560,1778428864960,-1.7439499666666667,-1.4849240444444445,1.3192605777777777,1.6670022,2.6110157,7.291887433333334
561,1778428864970,-1.7942929749999998,-1.581121275,1.2938140375,1.70594365,2.3934522,7.426681175000001
562,1778428864980,-1.8468152,-1.6945501,1.2851512,1.739387575,2.1975994875,7.5393824375000005
563,1778428864990,-1.8723120875,-1.7659909375,1.3080373875,1.7697773,2.0826838125,7.5482394875
564,1778428865000,-2.0173471249999997,-1.8391926875,1.3605976375,1.9058434499999999,1.9365385000000002,7.4749379000000005
565,1778428865010,-2.093933,-1.8352289999999998,1.3720312,1.9681498999999998,1.9240161000000002,7.4572234
566,1778428865020,-2.1803255,-1.8661683,1.4057146,2.067107225,1.953795,7.41003535
567,1778428865030,-2.393730488888889,-1.8562838444444445,1.4222544444444445,2.2238911999999997,2.376246666666667,7.336682666666666
568,1778428865040,-2.4316967,-1.8171792,1.435724,2.247918,2.6503136,7.372926
569,1778428865050,-2.4316967,-1.8171792,1.435724,2.247918,2.6503136,7.372926
570,1778428865060,-2.4316967,-1.8171791999999998,1.435724,2.247918,2.6503136,7.3729260000000005
571,1778428865070,-2.4316967,-1.8171792,1.435724,2.247918,2.6503136,7.372926
572,1778428865080,-2.4316967,-1.8171792,1.435724,2.247918,2.6503136,7.372926
573,1778428865090,-2.4316967,-1.8171791999999998,1.435724,2.247918,2.6503136,7.3729260000000005
574,1778428865100,-2.4316967,-1.8171792,1.435724,2.247918,2.6503136,7.372926
575,1778428865110,-2.4316967,-1.8171791999999998,1.435724,2.247918,2.6503136,7.3729260000000005
576,1778428865120,-2.4316967,-1.8171792,1.435724,2.247918,2.6503136,7.372926
577,1778428865130,-2.4316967,-1.8171792,1.435724,2.247918,2.6503136,7.372926
578,1778428865140,-2.4316967,-1.8171791999999998,1.435724,2.247918,2.6503136,7.3729260000000005
579,1778428865150,-0.50441585,-1.8455726125,0.8996104375,2.9091600875,2.5464695375,7.2004479375
580,1778428865160,0.9971122875,-1.59808475,0.29828723875,2.9708556,2.1668280500000003,5.8185875
581,1778428865170,1.3268762,-1.441578,0.22476922,2.8489916,2.1701877,5.3552217
582,1778428865180,1.3268762,-1.441578,0.22476921999999996,2.8489916,2.1701877,5.3552217
583,1778428865190,1.3268762,-1.441578,0.22476922,2.8489916,2.1701877,5.3552217
584,1778428865200,1.3268762,-1.441578,0.22476922,2.8489916,2.1701877,5.3552217
585,1778428865210,1.3268762,-1.441578,0.22476921999999996,2.8489916,2.1701877,5.3552217
586,1778428865220,1.414213625,-1.4189128,0.22635468,2.7918010375,2.3237394,5.0270439375
587,1778428865230,3.7066388999999997,-1.974590211111111,-0.2893834255555555,2.784581166666667,1.7591043444444443,2.9856176666666667
588,1778428865240,4.8470206,-2.5495696,-0.79852223,1.728087,0.4169796,2.9636781
589,1778428865250,4.8470206,-2.5495696,-0.79852223,1.728087,0.4169796,2.9636781
590,1778428865260,4.8470206,-2.5495696,-0.79852223,1.728087,0.4169796,2.9636781
591,1778428865270,4.8470206,-2.5495696,-0.79852223,1.728087,0.4169796,2.9636781
592,1778428865280,5.287934685714285,-2.4877060714285713,0.10825979142857142,-2.2556626142857144,-2.777675414285714,-0.42641507142857143
593,1778428865290,4.613203525,-2.413067625,0.98150545,-3.45037075,-3.5114555,-4.3400220625
594,1778428865300,3.7983313,-2.377029,1.415479,-3.1686175,-3.3556895,-5.58658
595,1778428865310,3.7983313,-2.377029,1.415479,-3.1686175,-3.3556895,-5.58658
596,1778428865320,2.2517370333333333,-2.370341466666667,1.9107314,-2.501300822222222,-3.934679222222222,-7.089917355555555
597,1778428865330,0.27889203875,-2.3401671,2.3163777,-1.3785199750000001,-4.74758105,-8.580876625
598,1778428865340,-0.6997563,-2.3543141333333333,2.3919079,-0.6721440911111112,-4.862386611111111,-8.819056888888888
599,1778428865350,-1.18200875,-2.381308875,2.3178144125,-0.12247487624999999,-4.8749430875,-8.77894425
600,1778428865360,-1.4897248875,-2.39236515,2.156920875,0.0642153205,-4.865016725,-8.662730250000001
601,1778428865370,-1.6533282333333332,-2.443486066666667,2.033228333333333,-0.13975675866666668,-4.872092133333334,-8.548247333333332
602,1778428865380,-1.7810491,-2.620091875,1.9913509,-0.5271611775,-4.8516544125,-8.586374375
603,1778428865390,-1.9687353,-2.809775325,2.0736727000000004,-1.1602471250000002,-4.456207175,-8.810556
604,1778428865400,-2.1199103,-2.839352555555555,2.176441311111111,-1.2519654,-4.021029511111112,-8.878037222222222
605,1778428865410,-2.25133555,-2.767486125,2.2757883000000003,-1.103342825,-3.7615973875,-8.746263625
606,1778428865420,-2.3749522,-2.588220166666667,2.283144777777778,-0.6044758177777777,-3.7709469111111114,-8.09409988888889
607,1778428865430,-2.39162965,-2.4724463,2.170744075,-0.2299839977875,-4.1052755625,-7.355669987500001
608,1778428865440,-2.299440625,-2.2075334875,1.7140634875,-0.043446509225,-4.751551775,-6.1661211499999995
609,1778428865450,-2.205952,-2.0934453,1.4291383,-0.18455222,-5.2280126,-5.2127414
610,1778428865460,-2.00270055,-1.9767159749999998,1.175259125,-0.68485518375,-5.609181325,-4.368407325
611,1778428865470,-1.7299586333333332,-1.8406866333333332,1.0065322866666666,-1.5270672,-6.008675466666666,-3.4086295
612,1778428865480,-1.5926539,-1.7783659,0.97838026,-1.9444796,-6.1332884,-3.0759213
613,1778428865490,-1.409137,-1.7608039,1.078691,-2.4728625,-6.195595,-2.8266957
614,1778428865500,-1.3028300555555556,-1.751860288888889,1.1569136666666666,-2.4728625,-6.195595,-2.8266957
615,1778428865510,-1.1347004,-1.7419385250000001,1.3673207,-2.7522486875,-5.9464452625,-3.435099575
616,1778428865520,-1.1568900111111111,-1.751691,1.460617088888889,-2.637791255555556,-5.657030988888889,-4.00359468888889
617,1778428865530,-1.2318859,-1.707774975,1.55172165,-2.5180652,-5.381946,-4.4668207
618,1778428865540,-1.40228455,-1.567339925,1.699359775,-2.201646225,-5.1220303875,-5.082545225
619,1778428865550,-1.5802141,-1.34642,1.8452296000000001,-1.990293,-5.0789657,-5.3886657
620,1778428865560,-2.0304691000000004,-0.6811220499999999,2.1687241000000004,-1.3717720500000001,-5.2454219,-5.6375855
621,1778428865570,-2.227599425,-0.4205428125,2.326987925,-0.7812736125,-5.0811801875,-5.746621725
622,1778428865580,-2.439444388888889,-0.2504617777777778,2.422793811111111,0.17145294444444448,-4.553959466666667,-5.9120256666666675
623,1778428865590,-2.5364397625,-0.27394129375,2.3758780125,1.6529526749999999,-3.6621820499999997,-6.1981908
624,1778428865600,-2.634974088888889,-0.4386062333333334,1.9921961444444445,2.1841183444444443,-3.442633433333333,-6.271407555555555
625,1778428865610,-2.75531695,-0.5369825500000001,1.4775404125,4.253654099999999,-3.1128776250000003,-6.397938
626,1778428865620,-2.9244931555555556,-0.5448657666666666,0.8917931777777777,4.6445517,-3.7373501333333334,-6.207811711111111
627,1778428865630,-3.122103,-0.559118,0.3316657,4.5789876,-4.2201147,-6.0153947
628,1778428865640,-4.009661466666667,-0.2749821766666667,-0.5741561333333334,2.7473958326666668,-4.687955666666666,-5.8537239111111115
629,1778428865650,-5.330382222222222,0.17281495444444445,-0.6525143400000001,-0.4348723497777778,-4.663521744444444,-5.7584318888888895
630,1778428865660,-7.021232725,0.44643228,0.62067268125,-3.5597410375000003,-4.2250778124999995,-5.050990887499999
631,1778428865670,-7.8838209,0.61399157625,1.4868818125,-4.4447536,-3.87804,-4.3660307
632,1778428865680,-7.9941249,0.97868515,2.284958075,-3.684172325,-2.8337967875,-2.1707888824999997
633,1778428865690,-7.9944906,1.1880165333333332,2.5445896,-2.2077376666666666,-1.2686788433333334,0.2547827088888889
634,1778428865700,-7.9100802375,1.209868625,2.5583962875,-1.1857309,0.073072605,2.132926
635,1778428865710,-7.030867775,0.8785040399999999,2.2760932499999997,-0.262587955,1.2103366,3.9881455
636,1778428865720,-6.165848,0.55326396,2.0275269,0.14102936,1.6295878,4.809124
637,1778428865730,-4.9818989,0.127446454,1.72432315,0.029549737499999992,2.0137343625,5.321777475
638,1778428865740,-4.2856997,-0.0892582555,1.68197315,-0.6019136,2.297702075,5.2422147
639,1778428865750,-3.7422002,-0.208411545,1.87660345,-1.11517805,2.6249634,4.8369177
640,1778428865760,-3.5001663,-0.211529105,2.026818,-1.0817342,2.91435225,4.5785293
641,1778428865770,-3.279978,-0.16815005,2.1681144,-0.7569161,3.3216348,4.332052
642,1778428865780,-2.913923875,-0.1483623175,2.0813561875,0.042835662499999996,3.822071425,4.208661375
643,1778428865790,-2.6677473,-0.1606496225,1.899470625,0.67170292,4.155307775,4.18285315
644,1778428865800,-2.3343910333333335,-0.22877689444444446,1.538687288888889,1.1747865666666668,4.518225266666667,4.126332533333334
645,1778428865810,-2.0832923500000002,-0.31304417500000004,1.244028325,1.411591675,4.800114199999999,4.033347925
646,1778428865820,-1.8673820888888892,-0.39214347111111114,0.9815003088888888,1.4269306777777777,5.057331944444445,3.9027625333333336
647,1778428865830,-1.69197375,-0.4744865375,0.771310255,1.15595206,5.426232475,3.7167765
648,1778428865840,-1.6151818625,-0.5074686424999999,0.6738464925000001,0.8596911475,5.6268196375,3.6535538499999998
649,1778428865850,-1.56414615,-0.5587368699999999,0.66087697,0.44813285425,5.817632725,3.6708102
650,1778428865860,-1.5628656,-0.6389092,0.73921996,0.028022617,5.920255,3.7322004
651,1778428865870,-1.6316882750000001,-0.7391361350000001,0.868960785,-0.3635305,5.8048053,3.9386668
652,1778428865880,-1.7339503375,-0.869509615,0.9865590375,-0.7637881150000001,5.46792275,4.38504365
653,1778428865890,-1.8453684666666668,-0.9953798555555556,1.1044681222222221,-1.0112321644444444,5.2523277777777775,4.8036945555555555
654,1778428865900,-1.8951410499999999,-1.119996725,1.1859990249999999,-1.1532032375,5.156238,5.29207525
655,1778428865910,-1.912245725,-1.2690755375,1.2492496874999999,-1.20223325,5.126306625,5.674475
656,1778428865920,-1.9116054,-1.3632503,1.2780623,-1.2263268,5.120045333333334,6.169150166666666
657,1778428865930,-1.9116054,-1.3632503,1.2780623,-1.2401726,5.045522,6.4603205
658,1778428865940,-1.9116054,-1.3632503,1.2780623,-1.2401726,5.045522,6.4603205
659,1778428865950,-1.9116054,-1.3632503,1.2780623,-1.2401726,5.045522,6.4603205
660,1778428865960,-1.9116054,-1.3632503,1.2780623,-1.2401726,5.045522,6.4603205
661,1778428865970,-1.9116054,-1.3632503,1.2780623,-1.2401726,5.045522,6.4603205
662,1778428865980,-1.88802935,-1.5177905625,1.336484175,-1.201288375,4.623483825,7.01817675
663,1778428865990,-1.7639749,-1.8842868,1.4388949,-1.0800543,3.5500915,8.421751
664,1778428866000,-1.7639749,-1.8842867999999997,1.4388949,-1.0800543,3.5500915,8.421751
665,1778428866010,-1.7639749,-1.8842868,1.4388949,-1.0800543,3.5500915,8.421751
666,1778428866020,-1.7639749,-1.8842867999999997,1.4388949,-1.0800543,3.5500915,8.421751
667,1778428866030,-1.7639749,-1.8842868,1.4388949,-1.0800543,3.5500915,8.421751
668,1778428866040,-1.32389587,-1.8282431625,1.4343862625,-0.54869354375,3.201832275,8.02989255
669,1778428866050,-0.32918842,-1.6769844125,1.3350664374999999,0.69506782,2.2970912,6.852942775
670,1778428866060,-0.1956135675,-1.5907559999999998,1.212627875,1.0274450625,2.3135075625,6.315397125
671,1778428866070,-0.12299499,-1.4938067,1.127017,1.3272947,2.5214248,5.814044
672,1778428866080,-0.0904168675,-1.4791945625,1.102274705,1.4329808124999999,2.6349660375,5.6973626625
673,1778428866090,0.13762999,-1.3769096,0.92907864,2.2322394222222224,3.460161277777778,4.872312855555555
674,1778428866100,0.28540157374999997,-1.31221455,0.9079493062499999,2.4403348,3.5665843,4.8433313
675,1778428866110,0.4166401875,-1.28927495,0.885467045,2.5430334875,3.5116844,4.8256931
676,1778428866120,1.5300216222222223,-1.1542136333333335,0.5684850777777778,3.384568877777778,2.776148,4.501460655555555
677,1778428866130,2.3987374,-0.93249345,0.050277323,3.3785963,2.2068384,4.0388455
678,1778428866140,2.6586441777777776,-0.8864812777777777,-0.007344601,3.186654511111111,2.2781039333333335,3.7723040222222224
679,1778428866150,4.089975625,-0.81396517875,-0.113204012375,2.313584025,2.490271625,2.387190975
680,1778428866160,4.392604,-0.97594106,0.006829667,2.3126676,2.1036053,2.0449638
681,1778428866170,4.392604,-0.97594106,0.006829667,2.3126676,2.1036053,2.0449638
682,1778428866180,4.392604,-0.97594106,0.006829667,2.3126676,2.1036053,2.0449638
683,1778428866190,4.9620806250000005,-1.333343765,-0.45050644825,0.6608030755000001,-0.14346322500000008,1.9104247625000002
684,1778428866200,5.5559645,-1.3149242,-0.6550077,-1.8571284,-2.053974,1.6179817
685,1778428866210,5.5559645,-1.3149242,-0.6550077,-1.8571284,-2.053974,1.6179817
686,1778428866220,5.55874285,-1.3657160625,-0.33744725999999997,-2.44806585,-2.4089526125000003,0.96847924625
687,1778428866230,5.360959933333333,-1.6242378000000002,0.9081999777777777,-4.234486466666667,-3.4080865888888887,-1.9133433666666666
688,1778428866240,5.001481,-1.757877,1.2194918,-4.047703,-3.1724353,-3.1296759
689,1778428866250,5.001481,-1.757877,1.2194918,-4.047703,-3.1724353,-3.1296759
690,1778428866260,4.570586925,-1.86211325,1.4206163625,-3.78449465,-3.2191651,-3.9037147875000002
691,1778428866270,1.287503911111111,-2.6465466444444443,2.860705611111111,-1.71587,-3.6394109666666665,-9.57543788888889
692,1778428866280,0.3536182,-2.8382754,2.9734662,-0.9242883000000001,-3.9653913999999997,-10.462516
693,1778428866290,-0.7700372975,-3.028378,2.865807425,0.07421793124999998,-4.0620579875,-11.14506125
694,1778428866300,-1.7722443,-3.0846312888888887,2.711221888888889,1.2476300444444444,-4.124415277777778,-11.517991444444444
695,1778428866310,-2.5906388666666667,-2.9104949999999996,2.481872533333333,1.9063864111111113,-4.444499188888888,-10.986537666666667
696,1778428866320,-3.021592111111111,-2.7118419333333335,2.235144111111111,2.185475733333333,-4.902906177777778,-9.951160111111111
697,1778428866330,-3.336353,-2.3448014,1.8049834,2.111088,-5.4344788,-8.221241
698,1778428866340,-3.285237525,-2.020697175,1.494599475,1.65149239375,-5.7340232250000005,-6.7981954625
699,1778428866350,-3.051306,-1.8449856,1.3095582,0.68101835,-6.137564,-4.7869043
700,1778428866360,-3.051306,-1.8449856,1.3095582,0.68101835,-6.137564,-4.7869043
701,1778428866370,-3.051306,-1.8449856,1.3095582,0.68101835,-6.137564,-4.7869043
702,1778428866380,-1.679244325,-1.81248,1.1814370250000001,-1.53001016875,-5.9838597625,-2.6259560250000002
703,1778428866390,-1.2127499,-1.8311663375,1.2896369625,-2.01014555,-5.43562445,-2.890758375
704,1778428866400,-0.9653840874999999,-1.758723,1.458553075,-2.1600322,-4.8240137875,-3.6151467125
705,1778428866410,-0.93005425,-1.691745,1.5848485,-2.126512,-4.415586,-4.165062
706,1778428866420,-0.9532873687500001,-1.6801628375,1.7134497375,-1.8560593875,-4.121081125,-4.70757075
707,1778428866430,-1.0118273,-1.6695181,1.7747072,-1.6034910333333334,-3.9508328666666666,-5.0313452000000005
708,1778428866440,-1.0118273,-1.6695181,1.7747072,-1.3360757,-3.7906127,-5.3391867
709,1778428866450,-1.0118273,-1.6695181,1.7747072,-1.3360757,-3.7906127,-5.3391867
710,1778428866460,-1.2723065333333332,-1.6664013777777777,1.4890503555555556,-0.061025336000000006,-3.630367066666667,-6.132405955555556
711,1778428866470,-1.3771916375,-1.7163233625,1.2547302375,0.25021831,-3.935001625,-6.11038125
712,1778428866480,-1.4867398222222221,-1.7559729444444445,1.0771224444444445,0.31403488444444444,-4.218078377777778,-5.994082822222222
713,1778428866490,-1.570427,-1.7049165,0.9195659,0.24181916,-4.514543,-5.8040414
714,1778428866500,-1.6757278333333332,-1.6253387555555556,0.6861206555555555,-0.2138729,-4.6648116,-5.526106
715,1778428866510,-1.7655525749999998,-1.58312595,0.61481486,-0.59443074,-4.6525946,-5.3990498
716,1778428866520,-1.8813867555555557,-1.5006092222222223,0.6027316755555555,-1.273166911111111,-4.744493277777778,-4.890400788888889
717,1778428866530,-1.9042880500000001,-1.4762141999999998,0.62821121875,-1.625082825,-4.8957117624999995,-4.467355175
718,1778428866540,-1.8658202666666668,-1.5121004333333332,0.6851213,-2.0616264666666666,-5.190886888888889,-3.922623355555556
719,1778428866550,-1.8162036,-1.5057585,0.7028459,-2.3604665,-5.5804715,-3.5444412
720,1778428866560,-1.7109941777777777,-1.3434997444444445,0.6388584333333333,-2.8651706666666668,-6.342342344444444,-3.139653111111111
721,1778428866570,-1.660253,-1.10007945,0.540526925,-3.9010997,-7.0453596,-2.9458108
722,1778428866580,-2.3070553,-0.7527268466666667,1.5187064666666668,-5.657692666666667,-6.984275033333333,-3.2463478
723,1778428866590,-2.8086470875000003,-0.8372668125,2.341112125,-6.26599485,-6.691526475,-3.523367
724,1778428866600,-3.0269144,-0.8998085999999998,2.637166,-6.2742414,-6.619599,-3.6250729999999995
725,1778428866610,-4.696394375000001,-0.30851265626249996,3.34612875,-4.1535132,-4.89431795,-4.7762340000000005
726,1778428866620,-5.5543924222222225,0.0938266147888889,3.3195634,-2.8952972666666668,-3.105852844444444,-5.304572222222223
727,1778428866630,-6.479528225,0.48532939500000005,3.2235989750000003,-1.8452168875,-1.2041994895,-5.460669
728,1778428866640,-7.420771599999999,0.8565337422222222,3.160638311111111,-1.3163164777777778,0.04320896022222222,-4.7958637333333325
729,1778428866650,-7.990008675,1.067448025,3.0390034999999997,-0.9491803175000001,0.8954257025,-3.1151491499999997
730,1778428866660,-7.9944906,1.1409202,2.8433976,-0.79112357,1.3393589,-1.7008278
731,1778428866670,-7.9273568625,0.9803429537499999,2.6580171375,-0.8807654125,1.57644405,0.67300096125
732,1778428866680,-7.413770899999999,0.6238549975,2.689882625,-1.2433128,1.5814835125,2.6612418375
733,1778428866690,-6.65024705,0.11794133124999999,3.0034259375,-1.88209675,1.699835125,4.3633678
734,1778428866700,-6.1006913,-0.22403745000000003,3.25022,-1.9457012,2.0718412,5.8054924
735,1778428866710,-5.895324925000001,-0.30033381875,3.26309425,-1.7649572275,2.1901928375,6.00157435
736,1778428866720,-4.4577603,-0.8344084,3.353214,-0.49974941999999994,3.0186543,7.374148000000001
737,1778428866730,-3.7835309714285716,-0.9374631857142858,3.0663069714285713,0.2146800857142857,3.1733732142857143,7.7335882
738,1778428866740,-2.8079992333333332,-1.0385869666666665,2.510989933333333,0.9033667444444444,3.0802142111111106,8.015062777777779
739,1778428866750,-2.3182679,-1.074971275,2.1426021,1.1487746749999999,2.8019564,8.0343214
740,1778428866760,-1.8462967666666665,-1.0703876333333333,1.7476935,1.2802595,2.4892535999999996,7.834523399999999
741,1778428866770,-1.6648837,-1.0469513,1.5487185,1.3279055,2.4016988,7.655749
742,1778428866780,-1.4833148333333332,-1.0273228244444443,1.3406777888888888,1.3451450777777778,2.7353570222222223,7.121732555555555
743,1778428866790,-1.388678575,-0.967518395,1.286729075,1.3279056249999999,3.3110976250000004,6.50613425
744,1778428866800,-1.3758255666666668,-0.9413625555555556,1.336368677777778,1.3602126666666665,3.7954484444444443,6.117227955555555
745,1778428866810,-1.3822186625,-0.96780420625,1.388953,1.495296825,4.2999258000000005,5.7750837
746,1778428866820,-1.4277357666666668,-1.0545196111111113,1.3832514333333334,1.6092431888888887,4.625869911111111,5.654333266666666
747,1778428866830,-1.5245515875,-1.1005024749999999,1.34589025,1.57199635,4.6947430500000005,5.776420025
748,1778428866840,-1.5615278375,-1.1629108625,1.3438321875,1.4346511375,4.618921725,6.015547625
749,1778428866850,-1.5897269,-1.2826967,1.366909,1.2753727,4.437729,6.32288
750,1778428866860,-1.5897269,-1.2826967,1.366909,1.2753727,4.437729,6.32288
751,1778428866870,-1.5897269,-1.2826967,1.366909,1.2753727,4.437729,6.32288
752,1778428866880,-1.724106,-1.677052875,1.5618404375000001,1.0143882875,3.1550260125,7.40010925
753,1778428866890,-1.8021986888888888,-1.7688261444444444,1.6021937666666668,1.0034099666666667,2.6995884777777777,7.560524555555555
754,1778428866900,-1.9944609,-1.7758658125,1.6034434125,0.9949938374999999,2.1607958125,7.7747878749999995
755,1778428866910,-2.1695778,-1.7856834,1.556036,1.0805124,1.9582236,8.073568
756,1778428866920,-2.1695778,-1.7856834,1.556036,1.0805124,1.9582236,8.073568
757,1778428866930,-2.08852505,-1.9393166875,1.5999142375,1.523749,2.7106347625,8.388374375
758,1778428866940,-1.9777677999999999,-1.9865488000000002,1.6400042,1.8026103000000002,3.196411,8.413276
759,1778428866950,-1.959519825,-1.9981424749999999,1.657025,1.8934738,3.2287859,8.39951275
760,1778428866960,-1.8758717444444446,-2.022618011111111,1.6953969777777778,2.204208344444444,3.233740511111111,8.414573666666668
761,1778428866970,-1.7747072,-1.9865488,1.6509805,2.3377125,2.9111452,8.611801
762,1778428866980,-1.7747072,-1.9865488,1.6509805,2.3377125,2.9111452,8.611801
763,1778428866990,-1.5550678875,-2.0086538625,1.5317090625,2.4888971875,2.397270075,8.852704125
764,1778428867000,-1.239203375,-2.0059097375,1.3753622875,2.68062675,1.7965780999999998,8.995642125
765,1778428867010,-1.0194496750000002,-1.9893539500000001,1.282894925,2.823335975,1.6068337,8.812158749999998
766,1778428867020,-0.9549641999999999,-1.9845975999999999,1.2561098,2.8660953,1.5575078,8.751074
767,1778428867030,-0.9549642,-1.9845976,1.2561098,2.8660953,1.5575078,8.751074
768,1778428867040,-0.9549642,-1.9845976,1.2561098,2.8660953,1.5575078,8.751074
769,1778428867050,-0.9549641999999999,-1.9845975999999999,1.2561098,2.8660953,1.5575078,8.751074
770,1778428867060,-0.9549642,-1.9845976,1.2561098,2.8660953,1.5575078,8.751074
771,1778428867070,-0.9549641999999999,-1.9845975999999999,1.2561098,2.8660953,1.5575078,8.751074
772,1778428867080,-0.9549642,-1.9845976,1.2561098,2.8660953,1.5575078,8.751074
773,1778428867090,-0.9549642,-1.9845976,1.2561098,2.8660953,1.5575078,8.751074
774,1778428867100,-0.9549641999999999,-1.9845975999999999,1.2561098,2.8660953,1.5575078,8.751074
775,1778428867110,-0.9549642,-1.9845976,1.2561098,2.8660953,1.5575078,8.751074
776,1778428867120,-0.9549641999999999,-1.9845975999999999,1.2561098,2.8660953,1.5575078,8.751074
777,1778428867130,-0.5120507542857143,-1.9161962142857143,1.053480457142857,3.3183076857142857,2.2542336285714284,7.686127485714286
778,1778428867140,5.027271711111111,-2.7801553777777777,0.9331371055555555,-2.482143966666667,-1.211114988888889,4.1554412888888885
779,1778428867150,5.9833064,-2.8492517,1.3634942,-3.3170533,-2.2439475,3.382185
780,1778428867160,5.9833064,-2.8492517,1.3634942,-3.3170533,-2.2439475,3.382185
781,1778428867170,5.9833064,-2.8492517,1.3634942,-3.3170533,-2.2439475,3.382185
782,1778428867180,6.1159934125,-2.5970531875,1.4809744,-2.3433532125,-2.396964675,0.31355555
783,1778428867190,4.8958878125,-2.186952975,1.467593275,-1.075091225,-2.6797106,-5.2328996125
784,1778428867200,3.5561727666666667,-2.1498002333333335,1.6255928333333334,-1.2188014444444444,-3.3574032444444444,-6.7928167
785,1778428867210,2.6867115,-2.1976283,1.7959279,-1.4093773,-3.9727216,-7.7478337
786,1778428867220,1.5252685444444445,-2.3134073666666666,2.1094319666666665,-1.4817966555555555,-4.5761708,-8.512411155555556
787,1778428867230,0.5493994385,-2.3831802,2.47616585,-1.422796875,-5.168912875,-9.337564
788,1778428867240,-0.104945146,-2.4946578,2.7435746,-1.1222028,-5.4442525,-9.726979
789,1778428867250,-1.00013455575,-2.608772675,2.9034811375,-0.0654370125,-5.5308401875,-10.08737925
790,1778428867260,-1.8504534000000001,-2.6147156666666667,2.9636993333333335,1.1243067666666666,-5.335521777777778,-10.209073444444446
791,1778428867270,-2.3635982374999998,-2.6600066875,2.9905594874999997,2.547691125,-5.0218514999999995,-9.9569635
792,1778428867280,-2.523257122222222,-2.7926223444444442,2.896246188888889,3.3346152222222223,-4.984352388888889,-9.693925444444444
793,1778428867290,-2.5989094,-2.9142326,2.5680537500000002,4.196386825,-5.2637472,-9.272813750000001
794,1778428867300,-2.6491282000000003,-2.9780191666666664,2.1428993,4.329337411111111,-5.669587211111111,-8.914756
795,1778428867310,-2.6841506,-2.929301925,1.824550075,3.8943041,-6.11618455,-8.46710675
796,1778428867320,-2.7245289666666666,-2.7556181333333334,1.5058501333333334,3.1876047222222224,-6.500967111111112,-7.922111955555555
797,1778428867330,-2.7562585,-2.594206,1.298582,2.4378915,-6.7252755,-7.2877893
798,1778428867340,-2.740518175,-2.45162935,1.1378103,1.90820097125,-6.7577268125000005,-6.751389075
799,1778428867350,-2.7041516999999997,-2.26786115,0.9938156,0.7581378125,-6.6351756250000005,-5.597575325
800,1778428867360,-2.6678652375,-2.1719827499999997,1.0614453124999998,0.16668494,-6.5023165,-5.0166593
801,1778428867370,-2.562415933333333,-2.1022161333333336,1.2521158000000001,-0.5026679222222222,-6.518334111111112,-4.052937455555555
802,1778428867380,-2.475358,-2.072438,1.304192,-0.6817819,-6.6171556,-3.429602
803,1778428867390,-2.2818403,-1.9533455,1.1672632,-0.7874585,-6.787582,-2.7265167
804,1778428867400,-1.9228255777777779,-1.855741788888889,0.891467968888889,-1.2055665333333332,-6.844051322222222,-2.126724088888889
805,1778428867410,-1.691973725,-1.8049146999999999,0.71401272,-1.5761386375,-6.787963975,-2.022209825
806,1778428867420,-1.5445820111111113,-1.743580711111111,0.5715713244444445,-2.083549055555556,-6.547909355555555,-2.103919133333333
807,1778428867430,-1.4167519,-1.6636565,0.463319715,-2.578997125,-6.1500864,-2.30665475
808,1778428867440,-1.3664212,-1.5970445,0.43295208,-3.1160846749999997,-5.66293585,-2.602667425
809,1778428867450,-1.4045408625,-1.4637210875,0.5518309975,-3.6240039875,-5.208389125,-2.9000736125
810,1778428867460,-1.4882236777777778,-1.362911488888889,0.7557486777777778,-3.8579925222222218,-4.804356222222221,-3.0913961444444444
811,1778428867470,-1.525740675,-1.307077,0.81224248125,-3.8182535625000003,-4.39176275,-3.224968025
812,1778428867480,-1.5496669444444444,-1.2192852222222221,0.7956426333333334,-3.7387415999999996,-4.0602763333333325,-3.3727931000000004
813,1778428867490,-1.5623777,-1.0716175,0.7599529,-3.7232668,-3.806571,-3.5035145
814,1778428867500,-1.6448826,-0.90419906,0.8753865,-3.8112288,-3.461366,-3.8187118
815,1778428867510,-1.7949387333333335,-0.7607015533333333,1.0723627444444446,-3.7488545111111113,-3.277161588888889,-4.049272566666667
816,1778428867520,-2.14723665,-0.469242325,1.504173175,-3.40753505,-3.001932425,-4.373742425
817,1778428867530,-2.395109355555556,-0.3173627088888889,1.6901290777777778,-2.5817969333333335,-2.9930497666666667,-4.444422733333333
818,1778428867540,-2.726039425,-0.114922865,1.7462796,-1.9264595000000002,-3.053625425,-4.56409805
819,1778428867550,-2.9314818,-0.03881324,1.7224786,-1.4802356,-3.1058528,-4.745978
820,1778428867560,-3.5468149625,0.07838872000000001,1.7609487875,-1.2802595125,-3.27681365,-5.20723425
821,1778428867570,-4.435604211111111,0.12044740777777779,1.9353940333333333,-1.2887689222222223,-3.3984486,-5.770037555555556
822,1778428867580,-5.2837344375,0.08594632175,2.08046445,-1.2688060749999999,-3.13349365,-6.187653687499999
823,1778428867590,-6.382326911111111,0.09143148422222222,2.181455377777778,-1.2242906111111111,-2.2178845333333332,-6.5629854666666665
824,1778428867600,-6.8223186,0.15180764,2.2127817,-1.2200147,-1.9427997,-6.6195226
825,1778428867610,-7.9896122,0.7510905833333333,2.3513058000000004,-0.8841081044444444,0.9320596011111112,-5.236750977777778
826,1778428867620,-7.9944906,1.0398777875,2.253355575,-0.5481590737500001,1.4417522624999999,-2.84455323
827,1778428867630,-7.9944906,1.2002415,2.031021625,-0.51922017625,1.3211099625,0.07308215250000005
828,1778428867640,-7.816167399999999,0.8707621533333334,1.8447520666666668,-0.689655038888889,1.361841511111111,3.222694411111111
829,1778428867650,-7.459521,0.59058326,1.7890984,-0.7642463,1.592326,5.176854
830,1778428867660,-6.0773059555555555,0.03912491333333333,1.8130495555555557,-0.8399234655555555,2.0610495444444448,7.228690333333333
831,1778428867670,-5.013158275,-0.3640608725,1.9198604499999998,-0.9118422562499999,2.2670069374999997,8.339831499999999
832,1778428867680,-4.266966444444444,-0.6490588777777778,2.0575894,-0.86299992,2.195435977777778,9.030570777777777
833,1778428867690,-3.605546,-0.8629467,2.135887,-0.6677324,2.057181,9.234865
834,1778428867700,-3.0057814499999997,-0.943336275,2.0748315374999997,-0.14988665,1.9830393375000002,9.064820749999999
835,1778428867710,-2.2793200000000002,-0.9084168199999999,1.8253808000000002,0.7249993333333333,2.218037333333333,8.408974666666667
836,1778428867720,-1.96946715,-0.866849345,1.63479805,1.1188431374999999,2.4721751999999997,7.9832395
837,1778428867730,-1.69345245,-0.872337465,1.45823295,1.4577201874999999,2.878388675,7.405683175
838,1778428867740,-1.4723420666666667,-0.86416624,1.3088974999999998,1.6842416,3.292721155555556,6.823435355555556
839,1778428867750,-1.3571103875,-0.885977775,1.2524816625,1.8128419500000001,3.54199785,6.3487647375
840,1778428867760,-1.3310227,-0.9239564,1.2687936,1.8410937,3.5702496,6.1261873
841,1778428867770,-1.3310227,-0.9239564,1.2687936,1.8410937000000003,3.5702496,6.1261873
842,1778428867780,-1.3388890500000001,-1.0167056749999999,1.2500729,1.9730366,3.0711873,6.000353
843,1778428867790,-1.3410233,-1.0154861,1.23806,1.9730366,3.0711873,6.000353
844,1778428867800,-1.3410233,-1.0154861,1.23806,1.9730366,3.0711873,6.000353
845,1778428867810,-1.3410233,-1.0154861,1.23806,1.9730366,3.0711873,6.000353
846,1778428867820,-1.3410233,-1.0154861,1.23806,1.9730366,3.0711873,6.000353
847,1778428867830,-1.3410233,-1.0154861,1.23806,1.9730366,3.0711873,6.000353
848,1778428867840,-1.3410233,-1.0154861,1.23806,1.9730366,3.0711873,6.000353
849,1778428867850,-1.3410233,-1.0154861,1.23806,1.9730366,3.0711873,6.000353
850,1778428867860,-1.3410233,-1.0154861,1.23806,1.9730366,3.0711873,6.000353
851,1778428867870,-1.3410233,-1.0154861,1.23806,1.9730366,3.0711873,6.000353
852,1778428867880,-1.3410233,-1.0154861,1.23806,1.9730366,3.0711873,6.000353
853,1778428867890,-1.698346025,-1.3148061375,1.08064231125,1.85331055,2.542499,6.487197999999999
854,1778428867900,-2.0282586,-1.6392726,0.96959925,1.6859385,2.2318833,7.429735
855,1778428867910,-1.8769692000000002,-1.7441872,1.0042659,1.7238109,2.3357272,7.694232000000001
856,1778428867920,-1.8769692,-1.7441872,1.0042659,1.7238109,2.3357272,7.694232
857,1778428867930,-1.8769692000000002,-1.7441872,1.0042659,1.7238109,2.3357272,7.694232000000001
858,1778428867940,-1.8769692,-1.7441872,1.0042659,1.7238109,2.3357272,7.694232
859,1778428867950,-1.620136425,-1.7546222,0.9986482000000001,1.793447525,2.423841875,7.6870546375
860,1778428867960,-1.0091214125,-1.7675649,0.9427531575,1.97013515,2.458965575,7.58397435
861,1778428867970,-0.87733775,-1.7044287,0.85416573,1.9724258,2.2752533,7.4694405
862,1778428867980,-0.87733775,-1.7044287,0.85416573,1.9724258,2.2752533,7.4694405
863,1778428867990,-0.87733775,-1.7044287,0.85416573,1.9724258,2.2752533,7.4694405
864,1778428868000,-0.87733775,-1.7044287,0.85416573,1.9724258,2.2752533,7.4694405
865,1778428868010,-0.87733775,-1.7044287,0.85416573,1.9724258,2.2752533,7.4694405
866,1778428868020,-0.5184584155555556,-1.663779311111111,0.6893525722222222,2.0090087555555556,2.313533077777778,7.0730005
867,1778428868030,1.23251855,-1.6660728,0.09756285637499999,2.274642425,2.701777475,5.7715711249999995
868,1778428868040,1.7390648,-1.6851288,-0.025367333,2.4042947,2.804858,5.3271227
869,1778428868050,2.6808577,-1.6163138,-0.11153089,2.387802,2.6338208,4.5397406
870,1778428868060,2.6808577,-1.6163138,-0.11153089,2.387802,2.6338208,4.5397406
871,1778428868070,4.125545775,-2.060120275,0.08150628000000001,2.80310175,2.203402475,2.495941025
872,1778428868080,5.0881248,-2.670415125,0.023309282500000007,3.67579245,1.696456475,0.9943066049999999
873,1778428868090,5.385478125000001,-3.161499375,-0.5172024125,4.2020756,1.155952025,0.413066375
874,1778428868100,5.565104444444445,-3.292783622222222,-0.9383575777777777,3.5685698000000006,0.5325654777777777,0.15899844222222223
875,1778428868110,5.992575,-3.3785813,-1.580702,1.34171644125,-0.8041136,-0.2519745
876,1778428868120,6.206923988888889,-3.2312149666666667,-1.4951245333333334,-0.7572639511111111,-2.0220062444444444,-0.6748759
877,1778428868130,5.854998375,-3.118131625,-0.6406319349999999,-4.024433525,-3.798572725,-1.820114875
878,1778428868140,5.412445775,-3.1138746875,0.012565517499999998,-5.222515062499999,-4.0897749625,-3.201908725
879,1778428868150,4.6099539,-3.1160761666666668,0.81738508,-5.735406111111111,-3.9754871555555553,-4.625047133333333
880,1778428868160,3.8220217,-3.0952415,1.4823426,-6.015242,-3.7478533,-6.1558895
881,1778428868170,2.4606076666666667,-3.0992796,2.4254497222222224,-5.750134233333333,-3.7636929777777777,-8.038784222222223
882,1778428868180,0.46450883875,-3.0508563,3.3770949375,-4.82590315,-3.841981175,-10.076709
883,1778428868190,-0.7421393224999999,-2.9507667499999997,3.5675405,-3.5310025,-3.6949387375000002,-11.015027499999999
884,1778428868200,-1.917596625,-2.850036825,3.3963339,-1.59873041,-3.273835975,-11.7697285
885,1778428868210,-2.5336845,-2.8158045,3.0864606,-0.42705858,-3.1284542,-11.979249
886,1778428868220,-2.954081622222222,-2.6569063666666666,2.567236511111111,0.13403856888888888,-3.160625555555556,-11.69364388888889
887,1778428868230,-3.4278828333333333,-2.3295872666666666,1.7413516333333332,0.43756179333333334,-3.4383573555555556,-10.731814333333334
888,1778428868240,-3.505833225,-2.0946917375000003,1.3455511,-0.035047365,-3.79078445,-9.457595625
889,1778428868250,-3.3737943999999995,-1.9833677333333333,1.1750075666666666,-0.7950771,-4.135274533333334,-8.039870177777779
890,1778428868260,-3.1616547555555554,-1.9693120555555557,1.1550470888888889,-1.6146898666666667,-4.493977666666666,-6.619726444444444
891,1778428868270,-2.80013285,-2.044311275,1.29752995,-2.35741225,-4.864100075,-5.5615350999999995
892,1778428868280,-2.6088886777777778,-2.0989434666666664,1.3662313666666668,-2.7025409666666667,-4.9937864888888885,-5.093006755555555
893,1778428868290,-2.4306566444444444,-2.0606181666666665,1.3386621111111112,-2.768987666666667,-4.760443044444445,-4.8374690000000005
894,1778428868300,-2.2446278124999997,-1.9932870999999999,1.238570725,-2.664744925,-4.291507525,-4.756132999999999
895,1778428868310,-2.0093957000000002,-1.9653179666666665,1.0578665666666667,-2.607384511111111,-3.7022349777777777,-4.858594444444445
896,1778428868320,-1.8301982666666667,-1.9150405666666666,0.887999,-2.715165266666667,-3.1345628,-5.081002
897,1778428868330,-1.74656155,-1.8647391,0.8062360675,-2.8501371,-2.862964725,-5.1957904
898,1778428868340,-1.689145725,-1.8224157625,0.810207355,-3.046142525,-2.672762125,-5.26267805
899,1778428868350,-1.5914241666666666,-1.7452542666666666,0.9194134266666667,-3.3074834,-2.5624702666666668,-5.270364688888889
900,1778428868360,-1.53395385,-1.7509252499999999,0.985217595,-3.34423605,-2.5938101500000004,-5.25351545
901,1778428868370,-1.4976551000000002,-1.739136022222222,0.9979986333333333,-3.257936911111111,-2.650364488888889,-5.252514199999999
902,1778428868380,-1.4872209,-1.6863484,0.9632574,-3.138686,-2.7088022,-5.2762694
903,1778428868390,-1.49185535,-1.659212675,0.8757065725000001,-3.0702711,-2.6235126125,-5.313073125
904,1778428868400,-1.4855880444444445,-1.6292922444444444,0.7718472466666666,-3.0093898888888884,-2.4462736222222223,-5.387104166666667
905,1778428868410,-1.4574427666666665,-1.6044432333333334,0.6991261266666666,-3.0407468,-2.2280653666666668,-5.547078466666666
906,1778428868420,-1.4647805999999999,-1.598142025,0.6582014949999999,-3.16602135,-2.0837527624999996,-5.6948527625
907,1778428868430,-1.4779521,-1.6109476,0.6472024,-3.2797916,-2.0448112,-5.7673907
908,1778428868440,-1.59943173,-1.52528414,0.683710645,-3.7647128000000003,-2.18628342,-5.91069534
909,1778428868450,-1.771475275,-1.4391922,0.81084,-4.110773050000001,-2.236617325,-5.9679012
910,1778428868460,-1.99583896,-1.38204715,1.02682512,-4.348545249999999,-2.10302503,-6.02315241
911,1778428868470,-2.146551333333333,-1.3214491333333334,1.1645123888888889,-4.185550988888888,-1.7843188111111112,-6.082384455555556
912,1778428868480,-2.2454731,-1.2674113444444446,1.2983481888888888,-3.671183533333333,-1.221694511111111,-6.196884377777778
913,1778428868490,-2.3779817,-1.245850125,1.395211,-3.34667935,-1.027063325,-6.333493600000001
914,1778428868500,-2.5859132,-1.1726295,1.4164546,-3.2009923000000002,-1.0582166,-6.4796385999999995
915,1778428868510,-3.1737454888888887,-0.9382457888888889,1.5568625333333332,-3.9258220777777777,-1.8696253111111112,-6.198241677777777
916,1778428868520,-3.9797781111111115,-0.65488917,1.9459842222222221,-4.870718088888889,-2.8860920666666665,-5.606661555555556
917,1778428868530,-4.802237977777778,-0.4366006666666667,2.665667177777778,-6.096230311111111,-4.558116977777778,-4.168659244444445
918,1778428868540,-5.5803866,-0.26089936,3.397363,-6.873559,-5.8052635,-2.9348156
919,1778428868550,-6.373745566666667,0.27429784333333335,4.165171811111112,-7.507075222222222,-6.368795166666667,-1.3406400444444444
920,1778428868560,-7.123051,0.8813319277777778,5.461731411111111,-7.1465819999999995,-5.416153333333333,0.6684705333333334
921,1778428868570,-7.320183,1.2636713,6.1843853,-6.183836,-4.150478,2.1255958
922,1778428868580,-6.8060682,1.2996287,6.8242801,-4.086135533333334,-3.4732011333333332,3.5619522000000003
923,1778428868590,-6.5490108,1.3176074,7.1442275,-3.0372853,-3.1345627,4.2801304
924,1778428868600,-5.241024133333333,1.1789678222222222,6.57757228888889,-0.5539366733333334,-3.028682433333333,4.914190133333333
925,1778428868610,-4.330374683333333,0.92651745,5.982427433333334,2.03569949,-2.0567990066666666,4.389344883333333
926,1778428868620,-3.197686666666667,0.11447822888888891,4.824820533333333,4.470808222222222,-0.006473276666666663,2.579658777777778
927,1778428868630,-3.094865611111111,-0.40908211666666666,4.158037255555556,6.337031,1.6018452,1.6271444333333334
928,1778428868640,-2.9413301666666665,-0.5967726,3.4247933,7.490361666666668,2.6900186666666666,1.3361775333333332
929,1778428868650,-2.7413795,-0.7414152,2.6069205,8.301567,3.6649307999999996,1.2233744
930,1778428868660,-2.4586768222222224,-0.8311596555555556,1.7290100666666666,8.451699666666666,4.556157044444444,1.448709111111111
931,1778428868670,-2.2406897,-0.9181125444444445,1.2032951955555555,8.056753033333333,4.942152888888889,1.7995390666666669
932,1778428868680,-2.07655725,-1.10099407,0.791942567,6.86892411,4.61182042,2.3692627
933,1778428868690,-2.0335739,-1.176461,0.4963907533333334,5.683806433333333,4.1996766,2.9885447999999997
934,1778428868700,-2.0326998333333335,-1.1939890444444445,0.3663899555555556,4.6086898666666665,3.947956633333333,3.679871266666667
935,1778428868710,-1.9967019000000004,-1.2803389333333335,0.4603622266666667,3.7413716,3.764159588888889,4.430806111111111
936,1778428868720,-1.91426117,-1.4257600199999998,0.6772559709999999,2.91710109,3.3700139,5.4217045
937,1778428868730,-1.8328814,-1.5569811111111111,0.8492839766666667,2.622163666666667,2.8447666333333332,6.104400233333333
938,1778428868740,-1.6967757333333333,-1.7368086,1.0494819666666666,2.5533415,2.1221343333333333,6.794453933333333
939,1778428868750,-1.6156837,-1.8446808333333335,1.082431,2.683927011111111,1.5898657999999999,7.166934977777777
940,1778428868760,-1.5855803,-1.9250513000000002,1.0650316,2.8758688,1.1194539,7.414464
941,1778428868770,-1.59499556,-1.94856488,0.9659618099999999,3.0939415,0.8549571,7.4926524
942,1778428868780,-1.634126522222222,-1.9679027000000002,0.9210293222222222,3.3103848555555557,0.9617875,7.3928129333333334
943,1778428868790,-1.7083315,-1.9926467,0.9112727,3.4183013,1.1121238,7.3008466
944,1778428868800,-1.8031337,-2.0271914,0.9148230444444445,3.4851552,1.4218488000000002,7.086846333333333
945,1778428868810,-1.8788121555555557,-2.0107542,0.8918407044444445,3.486580533333333,1.7375041555555557,6.902709777777778
946,1778428868820,-1.9091662000000003,-2.034631,0.9159071400000001,3.4121928,2.0437422,6.7620792
947,1778428868830,-1.93312186,-2.0082606400000005,0.9817920179999999,3.23773488,2.43761652,6.61694184
948,1778428868840,-1.9357835999999997,-2.0053306,0.98911256,3.1941204,2.5360851,6.5806575
949,1778428868850,-1.9357835999999997,-2.0053306,0.98911256,3.1941204,2.5360851,6.5806575
950,1778428868860,-1.9357835999999997,-2.0053306,0.98911256,3.1941204,2.5360851,6.5806575
951,1778428868870,-1.9357835999999997,-2.0053306,0.98911256,3.1941204,2.5360851,6.5806575
952,1778428868880,-1.9357835999999997,-2.0053306,0.98911256,3.1941204,2.5360851,6.5806575
953,1778428868890,-1.9357835999999997,-2.0053306,0.98911256,3.1941204,2.5360851,6.5806575
954,1778428868900,-1.9357836,-2.0053306,0.98911256,3.1941204,2.5360851,6.580657499999999
955,1778428868910,-1.9357835999999997,-2.0053306,0.98911256,3.1941204,2.5360851,6.5806575
956,1778428868920,-1.9357835999999997,-2.0053306,0.98911256,3.1941204,2.5360851,6.5806575
957,1778428868930,-1.9357835999999997,-2.0053306,0.98911256,3.1941204,2.5360851,6.5806575
958,1778428868940,-1.76620055,-2.0052085875000003,0.95486133375,2.85907065,2.515927125,6.833853725
959,1778428868950,-1.08914276,-1.8698408,0.668008484,1.48628304,1.19658874,7.9955022
960,1778428868960,-0.9576473000000001,-1.7712923,0.5557031,1.2857571,0.5031091,8.223837
961,1778428868970,-0.9576473000000001,-1.7712923,0.5557031,1.2857571,0.5031091,8.223837
962,1778428868980,-0.9576473000000001,-1.7712923,0.5557031,1.2857571,0.5031091,8.223837
963,1778428868990,-0.9576473,-1.7712923,0.5557031,1.2857571,0.5031091,8.223837
964,1778428869000,-0.6679623777777777,-1.7575719888888888,0.49450034814444443,1.4950825666666667,0.6366216444444445,8.017166966666666
965,1778428869010,1.7561390888888888,-1.6437950444444445,-0.02023153151111111,3.2728516,1.900261,6.176471733333333
966,1778428869020,2.6091158,-1.6116794,-0.22111045,4.098174,3.464573,4.677792
967,1778428869030,3.7031734,-1.7642188,-0.53664714,4.5830036,4.196673240000001,3.3842008
968,1778428869040,3.7031733999999994,-1.7642188,-0.53664714,4.704211,4.3796983,3.060803
969,1778428869050,3.7031733999999994,-1.7642188,-0.53664714,4.704211,4.3796983,3.060803
970,1778428869060,4.097468111111111,-1.9256950444444445,-1.1076730022222223,3.490338751111111,3.560161966666667,1.281099441111111
971,1778428869070,4.3346773333333335,-2.021788044444444,-1.283089711111111,0.34810655777777777,1.9658083444444445,0.7364612111111112
972,1778428869080,4.885675399999999,-2.07986522,-0.81589516,-1.1431243199999999,1.185792008,1.03291214
973,1778428869090,5.196248,-2.1151538,-0.58204615,-1.6353909,0.86106557,1.0578347
974,1778428869100,5.572666088888889,-2.229970933333333,-0.3221122888888889,-1.8582143111111111,0.6137402766666666,0.7682167688888888
975,1778428869110,5.8590921,-2.36032361,0.1407033325,-2.7217216,-0.621705068,-1.4003062400000001
976,1778428869120,5.482952155555555,-2.3908814222222223,0.43254217777777776,-3.016720133333333,-1.1011879000000002,-3.432596822222222
977,1778428869130,4.4036682,-2.467613444444444,0.8833205333333333,-2.8369953333333333,-1.2308912333333335,-5.556105666666666
978,1778428869140,3.3032049299999997,-2.5020392300000003,1.10786038,-2.54836316,-1.3291426100000001,-7.4459
979,1778428869150,2.1740496,-2.4983774666666663,1.3190607,-2.431256822222222,-1.5109986444444443,-8.776365333333334
980,1778428869160,1.3747549744444443,-2.552042588888889,1.5301096222222224,-2.3988819555555554,-1.8147254,-9.74741677777778
981,1778428869170,0.44926738999999993,-2.7186105888888887,1.756057711111111,-2.3026394999999997,-2.0190876555555555,-10.343535833333332
982,1778428869180,-0.6092123933333333,-2.999087533333333,1.9973625333333334,-1.9976232,-2.1614829666666666,-11.057480666666667
983,1778428869190,-1.2423862111111112,-3.191666422222222,2.140318111111111,-1.7760892777777777,-2.1669127222222224,-11.271480555555556
984,1778428869200,-1.91517886,-3.34660966,2.2419052600000002,-1.2362326199999998,-2.0967331799999998,-11.2042058
985,1778428869210,-2.094421,-3.3546772,2.2442467,-1.0030875,-2.07291,-11.100851
986,1778428869220,-2.1953619,-3.2114069,2.0775805666666667,-0.48386736666666663,-1.9713058666666667,-10.907415833333333
987,1778428869230,-2.2008499666666665,-3.0645963,1.8818510555555557,0.017841829999999996,-1.8236845,-10.712759
988,1778428869240,-2.1778710333333335,-2.8880446,1.6812363333333336,0.3232654611111111,-1.7306999222222224,-10.525975777777777
989,1778428869250,-2.1681956000000002,-2.7138067333333336,1.5366039333333334,0.5534191377777778,-1.6685292,-10.266968444444444
990,1778428869260,-2.1625042,-2.5673754,1.4484078,0.79830104,-1.6880764,-9.82166
991,1778428869270,-2.126756877777778,-2.331511388888889,1.3388416777777778,0.9791118000000001,-1.9078456666666668,-9.188822444444446
992,1778428869280,-2.0964536666666667,-2.0831804,1.2420338,1.0676846111111111,-2.272725,-8.56426488888889
993,1778428869290,-2.0941772,-1.9865488000000002,1.2036372,1.0383639,-2.717965,-7.9756800000000005
994,1778428869300,-2.1214713,-1.85075733,1.14760041,0.982654718,-3.18807296,-7.2573846799999995
995,1778428869310,-2.1306082,-1.7132630875,1.1090928375,0.9485694625,-3.64509735,-6.341739875
996,1778428869320,-2.025260433333333,-1.6449435333333333,1.1141605666666665,0.97055995,-3.8059601999999995,-5.8034306
997,1778428869330,-1.9189763375,-1.6870229625,1.09768225,1.1474002375,-4.016244299999999,-5.260081925000001
998,1778428869340,-1.8250340250000001,-1.7029346875,0.9938841700000001,1.4393947,-4.2523369,-4.693292087500001
999,1778428869350,-1.6387643,-1.7244298333333334,0.7279083399999999,1.6611651777777778,-4.367328844444445,-4.321846111111111
1000,1778428869360,-1.5557921,-1.7302839,0.5939981,1.6737214,-4.3734374,-4.259743
