id,timestamp,acc_x,acc_y,acc_z,gyro_x,gyro_y,gyro_z
0,1778413502.6217716,-0.46978348,0.7153161,0.4617343,0.007406523,-0.13064496,-0.09834641
1,1778413502.6319818,-0.46514907,0.7226336,0.43953782,-0.1300341,-0.16668494,-0.086129464
2,1778413502.64216,-0.46514907,0.7226336,0.43953782,-0.1300341,-0.16668494,-0.086129464
3,1778413502.652342,-0.45978296,0.7209262,0.46270993,-0.24609509,-0.14469445,-0.09712471
4,1778413502.662964,-0.45978296,0.7209262,0.46270993,-0.24609509,-0.14469445,-0.09712471
5,1778413502.6735919,-0.45978296,0.7209262,0.46270993,-0.24609509,-0.14469445,-0.09712471
6,1778413502.684217,-0.45978296,0.7209262,0.46270993,-0.24609509,-0.14469445,-0.09712471
7,1778413502.6948464,-0.49103475,0.7123586,0.63232344,-0.046958882,-0.21310934,-0.080020994
8,1778413502.7055097,-0.49664482,0.711383,0.6386653,0.05260922,-0.31634253,-0.04703524
9,1778413502.7157452,-0.499084,0.71726745,0.62842077,0.08933641,-0.3407764,-0.023212196
10,1778413502.7263756,-0.504938,0.72287756,0.60524875,0.14003673,-0.3029039,-0.015271181
11,1778413502.7370055,-0.5090846,0.73019505,0.5930224,0.19745637,-0.21799612,-0.0219905
12,1778413502.7473927,-0.5090846,0.73946387,0.5969251,0.28236416,-0.077501245,-0.05131117
13,1778413502.7580223,-0.5090846,0.73946387,0.5969251,0.28236416,-0.077501245,-0.05131117
14,1778413502.7686517,-0.5090846,0.73946387,0.5969251,0.28236416,-0.077501245,-0.05131117
15,1778413502.778808,-0.5593619,0.69967496,0.5215243,0.45950985,0.050165832,-0.04214846
16,1778413502.788957,-0.56302065,0.69308925,0.4663687,0.40636614,0.08803836,0.010384403
17,1778413502.7991586,-0.56545985,0.6796738,0.41779876,0.32145837,0.15156648,0.03420745
18,1778413502.8093598,-0.56545985,0.6796738,0.41779876,0.32145837,0.15156648,0.03420745
19,1778413502.8195941,-0.55960584,0.6606483,0.38487,0.19562383,0.145458,0.08124269
20,1778413502.8298867,-0.54201335,0.62768906,0.3623992,0.18585028,0.046500746,0.11606098
21,1778413502.8400939,-0.51079196,0.6398849,0.34166628,0.16447063,-0.110487,0.1655396
22,1778413502.850291,-0.47588143,0.6596726,0.33508053,0.14919944,-0.066506,0.114839286
23,1778413502.860491,-0.4751497,0.6442754,0.3582526,0.19501299,0.031229567,0.02260135
24,1778413502.870853,-0.5046941,0.6342748,0.3841383,0.3422272,0.11858072,-0.025655584
25,1778413502.8812783,-0.5046941,0.6342748,0.3841383,0.3422272,0.11858072,-0.025655584
26,1778413502.8915346,-0.5505809,0.61890805,0.38706526,0.6415423,0.32749048,-0.004275931
27,1778413502.9017713,-0.55838627,0.6201277,0.36483836,0.7692094,0.49119756,-0.028098974
28,1778413502.9119446,-0.55253226,0.61402977,0.34434935,0.8370135,0.6634565,-0.092237934
29,1778413502.9221635,-0.55253226,0.61402977,0.34434935,0.8370135,0.6634565,-0.092237934
30,1778413502.9323633,-0.57643604,0.56228894,0.31825027,0.90420663,1.1087642,-0.3286358
31,1778413502.9426134,-0.6113466,0.5307932,0.3670336,0.93535984,1.2767471,-0.5882459
32,1778413502.95281,-0.61549324,0.4890834,0.47271052,0.89504397,0.9175689,-0.90474117
33,1778413502.963037,-0.5457026,0.47319835,0.4551485,0.7704311,1.0232456,-1.069059
34,1778413502.9732678,-0.49713266,0.49664482,0.33386096,0.6219952,1.6921233,-1.4355674
35,1778413502.9835103,-0.53591543,0.525427,0.28529102,0.40147936,2.0995584,-1.7660358
36,1778413502.9936745,-0.6752833,0.5220122,0.28797412,-0.02069245,2.3885655,-1.9401273
37,1778413503.0038588,-0.8951742,0.53323233,0.2757783,-0.37070793,2.6970434,-1.8026866
38,1778413503.014095,-1.0432925,0.56545985,0.24330688,-0.5851153,3.173504,-1.51681
39,1778413503.024317,-1.1653119,0.5778996,0.21818347,-0.6975112,3.8326085,-1.2645302
40,1778413503.0347767,-1.2697692,0.5483857,0.23379412,-0.7292753,4.3512177,-1.0928822
41,1778413503.0451372,-1.3517863,0.5488735,0.25599056,-0.6590278,4.7757564,-0.76844585
42,1778413503.0553627,-1.4157228,0.62720126,0.3011456,-0.6168794,4.9413724,-0.3891097
43,1778413503.065606,-1.424016,0.6979676,0.3804795,-0.70300883,4.8485236,-0.08185353
44,1778413503.0757556,-1.409137,0.7604407,0.49323,-0.90336674,4.49721,0.108730815
45,1778413503.0859294,-1.4064541,0.8748986,0.5827779,-1.1360996,4.1117654,0.1563769
46,1778413503.0961664,-1.4484078,0.99984497,0.6554956,-1.1428188,3.9541671,0.22662434
47,1778413503.1063685,-1.5684757,1.0120713,0.7499523,-0.8392278,3.7507548,0.19730367
48,1778413503.116806,-1.7700727,0.9500859,0.8461164,-0.1776802,3.3482065,0.22784603
49,1778413503.1272788,-1.8733104,0.98203903,0.86660546,0.22738789,3.0757687,0.30053684
50,1778413503.1379085,-1.8733104,0.98203903,0.86660546,0.22738789,3.0757687,0.30053684
51,1778413503.1482425,-2.1063728,1.469659,0.66138005,1.0801307,2.9816983,0.52227443
52,1778413503.158667,-2.577132,1.5670122,0.41657916,1.1711469,2.9609294,0.7305733
53,1778413503.168829,-2.760649,1.4469441,0.2552588,1.0813524,2.4215512,2.016483
54,1778413503.179129,-2.7784853,1.3749583,0.036861908,1.0660812,2.2419622,2.7641602
55,1778413503.1892798,-2.6305804,1.358372,-0.10348164,0.96101546,1.9034764,3.2137437
56,1778413503.1994755,-2.6305804,1.358372,-0.10348164,0.96101546,1.9034764,3.2137437
57,1778413503.2097642,-2.1995797,1.3298032,-0.30260912,0.6336013,0.7727981,4.3315945
58,1778413503.2200532,-2.0160627,1.2375722,-0.36483836,0.4161397,-0.014583978,4.8557777
59,1778413503.2302496,-1.8469372,1.090399,-0.53201276,0.042224817,-0.1300341,5.205793
60,1778413503.2404747,-1.6441507,0.92932254,-0.567899,-0.4220191,-0.39147675,5.3566723
61,1778413503.2506323,-1.6441507,0.92932254,-0.567899,-0.4220191,-0.39147675,5.3566723
62,1778413503.2608113,-1.3046798,0.4658808,-0.58790016,-1.3584479,0.20532103,5.501443
63,1778413503.2710116,-1.1667753,0.19205388,-0.50225496,-1.6999116,0.50036025,5.493502
64,1778413503.2812333,-1.0093882,-0.0895784,-0.37340593,-2.018163,0.55106056,5.392712
65,1778413503.2914877,-0.8016931,-0.37389377,-0.22794013,-2.5160036,0.39040774,5.309637
66,1778413503.301653,-0.62646943,-0.53615934,-0.12860507,-2.8612087,0.011071607,5.157536
67,1778413503.311843,-0.44856274,-0.5537518,-0.03661799,-3.147696,-0.3884225,5.2002954
68,1778413503.3220453,-0.44856274,-0.5537518,-0.03661799,-3.147696,-0.3884225,5.2002954
69,1778413503.3325343,-0.31776243,-0.47197875,0.10323773,-3.259481,-0.99934614,5.334682
70,1778413503.34303,-0.122751065,-0.37950385,0.46295384,-2.7439258,-1.2369657,5.37683
71,1778413503.3535526,-0.050277323,-0.5339641,0.6196398,-1.8813332,-1.1606098,5.2131233
72,1778413503.3637776,0.010488417,-0.6011022,0.71556,-0.76775867,-0.96086276,5.0200953
73,1778413503.3739378,0.037593655,-0.60159,0.7150722,0.15408622,-0.76416993,4.8325653
74,1778413503.384134,0.03881324,-0.54960525,0.57936305,0.81624466,-0.35910183,4.6474786
75,1778413503.394344,0.077595994,-0.5674112,0.44051352,0.99583375,-0.13675343,4.404285
76,1778413503.4047854,0.14888063,-0.5939981,0.29138896,0.8852704,0.0055739814,4.144064
77,1778413503.415264,0.19449306,-0.5681429,0.19010256,0.5364766,0.022066858,3.9388194
78,1778413503.4255066,0.22403745,-0.50176704,0.1483928,0.19318044,0.076432265,3.7549543
79,1778413503.4356546,0.2511122,-0.46417344,0.19351739,0.014125843,0.08681667,3.5655918
80,1778413503.4458501,0.2726074,-0.4522215,0.2730952,0.13514996,-0.012751437,3.5002313
81,1778413503.4560533,0.2726074,-0.4522215,0.2730952,0.13514996,-0.012751437,3.5002313
82,1778413503.4666862,0.2726074,-0.4522215,0.2730952,0.13514996,-0.012751437,3.5002313
83,1778413503.477193,0.2726074,-0.4522215,0.2730952,0.13514996,-0.012751437,3.5002313
84,1778413503.4873853,0.718487,-0.63476264,0.41584742,0.61099994,0.36108708,2.8472354
85,1778413503.4977744,0.958623,-0.68455213,0.32068944,0.94269,0.4569901,2.076957
86,1778413503.508007,1.0471952,-0.62646943,0.2040363,0.89260054,0.37819082,1.7403039
87,1778413503.5183744,1.0471952,-0.62646943,0.2040363,0.89260054,0.37819082,1.7403039
88,1778413503.5288763,1.1367736,-0.49542522,0.07247374,0.6500942,0.07154548,1.6706673
89,1778413503.5390723,1.1367736,-0.49542522,0.07247374,0.6500942,0.07154548,1.6706673
90,1778413503.5492957,1.1367736,-0.49542522,0.07247374,0.6500942,0.07154548,1.6706673
91,1778413503.5599344,1.1367736,-0.49542522,0.07247374,0.6500942,0.07154548,1.6706673
92,1778413503.5701406,2.4385264,-0.11518965,0.1393374,0.55358034,-0.5778615,0.24067383
93,1778413503.5803714,2.5300257,-0.050033405,0.16132039,1.2768235,-0.61084723,-0.2596101
94,1778413503.59057,2.5300257,-0.050033405,0.16132039,1.2768235,-0.61084723,-0.2596101
95,1778413503.6008816,2.5051463,0.096895896,-0.19644438,1.7056383,-1.1526688,-0.7330167
96,1778413503.6110883,2.4702356,0.08491349,-0.49005908,1.3959388,-1.7311411,-0.7482879
97,1778413503.6215005,2.433892,0.120067984,-0.74458617,0.83457005,-2.1941633,-0.61939913
98,1778413503.6321044,2.433892,0.120067984,-0.74458617,0.83457005,-2.1941633,-0.61939913
99,1778413503.6427326,2.433892,0.120067984,-0.74458617,0.83457005,-2.1941633,-0.61939913
100,1778413503.6529434,2.5249035,0.31605503,-1.1968076,-1.330349,-1.9406618,-0.68659234
101,1778413503.663386,2.8497396,0.75190365,-1.1318953,-1.7420601,-1.7506882,-0.6542174
102,1778413503.6737757,3.025207,0.7375125,-0.95130557,-1.8923285,-1.7561859,-0.80448586
103,1778413503.6841276,3.1369817,0.6340309,-0.7192188,-1.7878736,-1.8588082,-1.1105967
104,1778413503.6945393,3.1435676,0.4578316,-0.5300614,-1.677921,-1.9247797,-1.616989
105,1778413503.705008,3.0225239,0.26846078,-0.3626431,-1.6840296,-1.9864752,-2.2198954
106,1778413503.7154,2.757478,-0.017074168,-0.19839573,-1.7707698,-1.979756,-2.9779568
107,1778413503.7260263,2.2603757,-0.34703246,0.013659334,-1.801923,-1.9064543,-3.8002336
108,1778413503.7362564,1.9084344,-0.5866806,0.18693164,-1.8153617,-1.915617,-4.254093
109,1778413503.7468903,1.3298032,-0.75946504,0.32556778,-1.7823759,-1.9192821,-4.5051513
110,1778413503.7575185,0.94029874,-0.85733664,0.4231649,-1.7121285,-1.863695,-4.598611
111,1778413503.7677236,0.7284876,-0.9261516,0.4607586,-1.6473787,-1.815438,-4.626099
112,1778413503.7783566,0.441977,-1.0020707,0.46344167,-1.6345509,-1.6853275,-4.6755776
113,1778413503.7887979,0.2982186,-1.0159739,0.5061576,-1.7579421,-1.8148272,-4.601054
114,1778413503.7990124,0.2057437,-1.0184131,0.600096,-1.6931922,-2.434837,-4.5766206
115,1778413503.8092368,0.1144579,-1.1011313,0.78291154,-1.6931922,-2.434837,-4.5766206
116,1778413503.819497,-0.17693105,-1.3385842,0.86367846,-1.2210073,-2.9968166,-4.537526
117,1778413503.829645,-0.20769504,-1.285136,0.74312264,-1.1189958,-2.842883,-4.589448
118,1778413503.8401268,-0.20769504,-1.285136,0.74312264,-1.1189958,-2.842883,-4.589448
119,1778413503.850528,-0.104701236,-1.3717873,0.51542646,-1.7518336,-1.7647377,-5.401875
120,1778413503.8607173,-0.104701236,-1.3717873,0.51542646,-1.7518336,-1.7647377,-5.401875
121,1778413503.8711557,-0.1527833,-1.4198694,0.54448295,-2.4451451,-1.3603568,-6.0444865
122,1778413503.881391,-0.2701682,-1.4171863,0.6501294,-2.679176,-1.1056335,-6.238125
123,1778413503.8917687,-0.38950443,-1.4164546,0.7555624,-2.651077,-0.7806628,-6.36709
124,1778413503.902273,-0.5181095,-1.4174303,0.8475799,-2.4335392,-0.54052347,-6.4202337
125,1778413503.9126866,-0.6389092,-1.4374315,0.9810633,-2.1507168,-0.68231636,-6.393967
126,1778413503.9230123,-0.7584894,-1.4071858,0.93981093,-1.7536662,-0.46172416,-6.2228537
127,1778413503.9335167,-0.8785574,-1.3434626,0.87075204,-1.7133502,-0.3548259,-6.1636014
128,1778413503.944015,-0.9737459,-1.2585491,0.8341645,-1.7591637,-0.084220566,-6.033491
129,1778413503.9544067,-1.0486587,-1.2024177,0.8871249,-1.6082845,0.17844376,-5.951027
130,1778413503.9646707,-1.1074731,-1.1943685,0.973258,-1.1403755,0.4062898,-5.8007584
131,1778413503.9748864,-1.1638484,-1.2417188,1.018657,-0.49104485,0.46920705,-5.5808535
132,1778413503.9854174,-1.2055887,-1.2846482,0.979112,0.09666658,0.52357244,-5.325519
133,1778413503.9956355,-1.2404993,-1.2519633,0.7640995,0.5554129,0.44232976,-5.026204
134,1778413504.0059316,-1.1894901,-1.0708857,0.41218868,0.84984124,0.002519745,-4.5747876
135,1778413504.0165627,-1.0657634,-0.8380672,0.11689706,0.81990975,-0.7391252,-4.2724185
136,1778413504.027189,-0.993747,-0.5564349,-0.1542468,0.3849865,-1.53567,-4.157579
137,1778413504.0373983,-0.98203903,-0.18254115,-0.37118018,-0.498375,-1.7983344,-4.1105437
138,1778413504.0480278,-1.0167056,-0.008781,-0.3887727,-1.7524444,-1.7555751,-4.342055
139,1778413504.0583465,-2.0587785,-0.4846624,1.2912644,-4.107948,-1.4770287,-6.2155237
140,1778413504.0686407,-3.1621053,-0.65820915,2.2296116,-4.132382,-0.72996247,-7.031081
141,1778413504.0788252,-3.1621053,-0.65820915,2.2296116,-4.132382,-0.72996247,-7.031081
142,1778413504.0890229,-6.573158,-0.5666794,3.3141568,-0.71094984,0.9963682,-6.762919
143,1778413504.0992203,-7.6996875,0.13836174,2.3448014,-0.71094984,0.9963682,-6.762919
144,1778413504.109419,-7.446593,0.2245253,1.2575734,3.0788991,0.42033926,-1.2828556
145,1778413504.1196058,-6.4970255,0.5268905,0.4243845,2.8504424,-0.71408045,0.868014
146,1778413504.129751,-5.5354753,0.57863134,0.10104248,1.5474288,-1.2931637,2.1123862
147,1778413504.1399162,-4.7654915,0.6520807,0.1642474,-0.15507884,-1.4623684,2.464845
148,1778413504.1502817,-4.7654915,0.6520807,0.1642474,-0.15507884,-1.4623684,2.464845
149,1778413504.1606994,-3.9957821,0.59521765,0.9442319,-2.205693,-0.67804044,1.6346272
150,1778413504.1708677,-3.8354373,0.54692215,1.4930749,-2.3712327,0.21326205,1.2858335
151,1778413504.1810584,-3.8451936,0.5969251,2.2010431,-1.8978261,1.0886061,0.891837
152,1778413504.1912804,-3.9096186,0.6926014,2.5090487,-0.9723925,1.5601803,0.9205468
153,1778413504.2019088,-3.9096186,0.6926014,2.5090487,-0.9723925,1.5601803,0.9205468
154,1778413504.2121046,-3.9096186,0.6926014,2.5090487,-0.9723925,1.5601803,0.9205468
155,1778413504.2223017,-3.6467984,0.6899183,1.718088,2.0251114,1.773366,2.2101216
156,1778413504.2325432,-3.4530063,0.5693625,1.273428,2.24746,1.5540718,2.8258557
157,1778413504.2427783,-3.1694229,0.41340828,0.8344084,2.1271229,1.4642773,3.5833063
158,1778413504.25295,-2.9600508,0.29016936,0.70040673,2.1271229,1.4642773,3.5833063
159,1778413504.263171,-2.5985968,-0.0954324,0.7206823,1.4948959,1.4044142,4.658474
160,1778413504.2735763,-2.3040369,-0.37243026,0.85538524,1.2145171,1.4154094,5.194187
161,1778413504.2837834,-1.9997205,-0.6418362,1.0679587,1.0489775,1.4905437,5.5497003
162,1778413504.294301,-1.8279115,-0.8978573,1.1245779,1.107008,1.8680472,5.8074775
163,1778413504.3045378,-1.5628656,-1.0979605,1.2243702,1.4289244,2.4288814,5.921706
164,1778413504.3147678,-1.3612989,-1.355201,1.2514755,1.7398458,2.9676487,5.930258
165,1778413504.3249397,-1.2392796,-1.4376754,1.2053448,1.7807724,3.226037,5.999284
166,1778413504.335306,-1.1201874,-1.5172532,1.2170528,1.834527,3.3243835,6.0267715
167,1778413504.34553,-1.0071929,-1.5855803,1.2339134,1.8229209,3.238254,6.139168
168,1778413504.3556812,-0.94029874,-1.6468339,1.2346452,1.8950009,3.0604975,6.290047
169,1778413504.3662102,-0.94029874,-1.6468339,1.2346452,1.8950009,3.0604975,6.290047
170,1778413504.3764637,-0.83733547,-1.7156489,1.0896672,2.1161277,2.5956428,6.612574
171,1778413504.3871148,-0.7677582,-1.7229664,0.9856978,2.034274,2.5486076,6.6834326
172,1778413504.3973513,-0.7089438,-1.7258934,0.93883526,1.8058172,2.7514088,6.5637064
173,1778413504.4075856,-0.6916257,-1.7756828,0.9481346,1.5113888,3.2272587,6.310205
174,1778413504.4181879,-0.6916257,-1.7756828,0.9481346,1.5113888,3.2272587,6.310205
175,1778413504.4288104,-0.6916257,-1.7756828,0.9481346,1.5113888,3.2272587,6.310205
176,1778413504.4389718,-0.3553256,-1.74126,1.1992468,1.2004676,4.8802876,5.500832
177,1778413504.4491682,-0.25846022,-1.6851288,1.2185162,1.2658283,4.44651,5.3994317
178,1778413504.4593656,-0.16985747,-1.612899,1.1545795,1.3757807,3.946837,5.4965563
179,1778413504.469585,-0.16985747,-1.612899,1.1545795,1.3757807,3.946837,5.4965563
180,1778413504.4797282,-0.022440333,-1.4223086,0.8202307,1.5962965,2.9297762,5.7885413
181,1778413504.4899578,-0.022440333,-1.4223086,0.8202307,1.5962965,2.9297762,5.7885413
182,1778413504.5005903,-0.022440333,-1.4223086,0.8202307,1.5962965,2.9297762,5.7885413
183,1778413504.5107396,-0.022440333,-1.4223086,0.8202307,1.5962965,2.9297762,5.7885413
184,1778413504.5209024,0.8068154,-0.9715506,0.17083314,1.0398147,2.6836047,5.351175
185,1778413504.5313365,2.0734136,-0.49737656,0.22794013,0.61588675,2.598086,4.871049
186,1778413504.541575,2.6242385,-0.4666126,0.24745347,0.76737684,1.9889951,4.4336057
187,1778413504.5517755,2.886083,-0.3785282,0.16839397,0.9316948,1.709227,4.0713735
188,1778413504.5619853,3.40029,-0.12445848,-0.104945146,1.3849435,1.4007491,3.5973558
189,1778413504.5721169,3.9667253,-0.00512225,-0.37657684,1.7606145,1.2859099,3.268109
190,1778413504.5825698,3.9667253,-0.00512225,-0.37657684,1.7606145,1.2859099,3.268109
191,1778413504.5931928,3.9667253,-0.00512225,-0.37657684,1.7606145,1.2859099,3.268109
192,1778413504.6038153,3.9667253,-0.00512225,-0.37657684,1.7606145,1.2859099,3.268109
193,1778413504.6140068,4.7401237,-0.47124702,-1.558475,0.98300594,-0.24853848,0.24922568
194,1778413504.624505,4.725245,-0.3919436,-1.7158928,0.45279053,0.033062108,-0.32802498
195,1778413504.6346893,4.6844807,-0.30480435,-1.7571452,-0.22410458,0.21998137,-0.9389486
196,1778413504.6448522,4.5858774,-0.3109023,-1.5980201,-0.9039776,0.18210883,-1.2798014
197,1778413504.6552932,4.4316306,-0.41267654,-1.1355541,-1.8428499,-0.37376216,-1.7861937
198,1778413504.6656973,4.1510043,-0.50664544,-0.53640324,-2.526388,-1.3591352,-2.3548925
199,1778413504.675888,3.7458587,-0.62476206,-0.05564349,-2.7860744,-1.963874,-2.893049
200,1778413504.6861176,3.2868075,-0.8024249,0.37974778,-2.771414,-2.231425,-3.4391465
201,1778413504.6962824,2.9824913,-0.97569716,0.6665023,-2.481796,-2.2864013,-3.9828768
202,1778413504.7069254,2.4787726,-1.2807455,0.97838026,-1.9986159,-2.3584812,-4.5008755
203,1778413504.717136,2.0119162,-1.4747812,1.001339,-1.5129923,-2.4989762,-5.10256
204,1778413504.7273386,1.5340835,-1.7305278,0.93615216,-1.2167314,-2.4171226,-5.75128
205,1778413504.7375853,1.0235354,-2.0312161,0.8431894,-1.1648093,-2.5227993,-6.5662265
206,1778413504.7477977,0.49103475,-2.1156416,0.84245765,-1.4409124,-2.639471,-7.058569
207,1778413504.758049,0.014635001,-2.145918,0.96276957,-1.798258,-2.7934046,-7.307795
208,1778413504.7686725,-0.39584628,-2.1397893,1.192905,-2.0401535,-2.9943733,-7.1923447
209,1778413504.7792974,-0.39584628,-2.1397893,1.192905,-2.0401535,-2.9943733,-7.1923447
210,1778413504.7895107,-0.66845363,-2.1053972,1.5306686,-1.933866,-4.3743534,-5.7726593
211,1778413504.7996802,-0.7975465,-1.9606631,1.4857575,-1.9802904,-4.748803,-5.4324174
212,1778413504.809944,-0.7975465,-1.9606631,1.4857575,-2.1000166,-4.841652,-5.179527
213,1778413504.8201997,-1.0137787,-1.8381561,1.490148,-2.1763725,-4.6211357,-5.0249825
214,1778413504.8304193,-1.0979605,-1.8291311,1.523595,-2.1439974,-4.232637,-4.985277
215,1778413504.840776,-1.1894901,-1.8171792,1.5306686,-2.0792477,-3.7311313,-5.0561357
216,1778413504.8509996,-1.2729402,-1.7171124,1.4950262,-1.9033237,-3.0163639,-5.2009063
217,1778413504.8611999,-1.3259006,-1.4947823,1.4569447,-1.5612493,-2.3181653,-5.226562
218,1778413504.8714201,-1.2941914,-1.3688604,1.3708117,-1.102503,-1.819714,-5.1007276
219,1778413504.881589,-1.2368405,-1.2197357,1.2129061,-0.88015455,-1.6621153,-4.941296
220,1778413504.8917677,-1.1833923,-1.1919293,1.0964968,-0.746379,-1.6163019,-4.7647614
221,1778413504.9019985,-1.1311636,-1.2304986,0.987893,-0.61138177,-1.6138585,-4.570512
222,1778413504.9122043,-1.0571959,-1.2873617,0.85440964,-0.4751628,-1.6450117,-4.3744297
223,1778413504.9226897,-0.9503298,-1.327364,0.70943165,-0.4336252,-1.6334056,-4.25898
224,1778413504.9329085,-0.90566254,-1.3234613,0.62866473,-0.5075377,-1.4861914,-4.2846355
225,1778413504.9431283,-0.8724594,-1.3449565,0.58790016,-0.50020754,-1.1404518,-4.4214654
226,1778413504.9533968,-0.873679,-1.3310227,0.5874123,-0.39330927,-0.80692923,-4.557073
227,1778413504.9639153,-0.8866066,-1.3407794,0.54448295,-0.29068694,-0.6603259,-4.673745
228,1778413504.974285,-0.9981375,-1.2663544,0.42243317,-0.31573167,-0.8014316,-4.705509
229,1778413504.9845555,-1.144335,-1.1175042,0.31922594,-0.51670045,-1.1337326,-4.533861
230,1778413504.995185,-1.2907765,-0.90541863,0.25403923,-0.88687384,-1.3377554,-4.2211075
231,1778413505.005536,-1.4220647,-0.7838872,0.33873928,-1.2833138,-1.4336585,-3.86254
232,1778413505.0157301,-1.5140517,-0.7516597,0.4578316,-1.5539191,-1.57171,-3.5136697
233,1778413505.0263693,-1.5489624,-0.8463603,0.573753,-1.762218,-1.6944903,-3.2302368
234,1778413505.0367715,-1.570183,-0.8836796,0.65820915,-2.1128442,-1.7128158,-3.0512583
235,1778413505.0470061,-1.6409799,-0.7516597,0.7968148,-2.4427018,-1.7286978,-3.141053
236,1778413505.057238,-1.7427236,-0.42560413,1.0301211,-2.6901712,-1.7152591,-3.4470875
237,1778413505.0676146,-1.9894757,-0.20940247,1.3666651,-2.723768,-1.6639479,-3.846658
238,1778413505.0777783,-2.2769623,-0.15449072,1.7732437,-2.4347608,-1.5393351,-4.293798
239,1778413505.0879285,-2.6003041,-0.18985863,2.0602422,-1.894161,-1.4446537,-4.7910275
240,1778413505.098218,-3.409833,-0.15961297,2.2303436,-0.12392564,-0.6804838,-5.5515327
241,1778413505.1083958,-5.186492,0.21940304,1.8611147,0.4729485,-0.13614258,-5.393934
242,1778413505.1185586,-5.186492,0.21940304,1.8611147,0.75699246,-0.035352785,-4.6694694
243,1778413505.1291652,-5.7177725,0.24574605,1.73004,0.75699246,-0.035352785,-4.6694694
244,1778413505.139364,-6.4059834,0.48957127,1.6971112,0.6800257,-0.8686248,-2.485003
245,1778413505.1495695,-6.408423,0.39291927,1.6726891,0.8089145,-1.4122789,-1.4471735
246,1778413505.1597092,-6.347901,0.28626668,1.501368,0.92375374,-1.392121,-0.8869502
247,1778413505.169874,-6.2239304,0.027318668,1.2778184,1.0086615,-0.3792598,-0.75317466
248,1778413505.1800177,-6.199996,0.2174517,1.033048,1.0819632,0.4942518,-0.6762079
249,1778413505.1903656,-6.200484,0.4344156,0.7819359,0.9536853,1.2675844,-0.36650836
250,1778413505.2006707,-6.1182537,0.5644842,0.7089438,0.9536853,1.2675844,-0.36650836
251,1778413505.210836,-5.846622,0.6576908,0.784375,0.2677038,2.161941,1.2656755
252,1778413505.2210681,-5.452727,0.59521765,0.91932195,0.023288552,2.0836763,2.3866565
253,1778413505.2315166,-4.9341297,0.456612,1.0618607,0.023288552,2.0836763,2.3866565
254,1778413505.241676,-4.3698893,0.25919196,1.1682389,-0.010308048,1.5076474,4.499043
255,1778413505.2518442,-3.826656,0.04539899,1.1755869,0.1485886,1.2003912,5.277873
256,1778413505.262321,-3.241439,-0.10665256,1.0945456,0.37521294,0.9554415,5.9565244
257,1778413505.2725668,-2.879985,-0.28773022,1.033048,0.486998,0.99697906,6.2992096
258,1778413505.2830374,-2.5790834,-0.42511624,1.0130469,0.55724543,1.3769261,6.5356073
259,1778413505.293552,-2.3074517,-0.53615934,1.0445122,0.7056813,1.8423917,6.6999254
260,1778413505.303722,-2.057803,-0.76556295,1.1121075,0.890768,2.3677967,6.849583
261,1778413505.313883,-1.7739755,-1.0838132,1.1982712,1.1381612,2.7911139,6.9430428
262,1778413505.3241065,-1.6221678,-1.3298032,1.2458653,1.3177502,2.8925145,6.9668655
263,1778413505.334327,-1.6221678,-1.3298032,1.2458653,1.3177502,2.8925145,6.9668655
264,1778413505.344735,-1.4576765,-1.801538,1.3627625,1.5236058,2.7801187,6.8929534
265,1778413505.3553612,-1.4576765,-1.801538,1.3627625,1.5236058,2.7801187,6.8929534
266,1778413505.365755,-1.4576765,-1.801538,1.3627625,1.5236058,2.7801187,6.8929534
267,1778413505.3759964,-1.4554813,-2.1588454,1.2580613,2.0446584,2.2407405,7.0872025
268,1778413505.386231,-1.4284065,-2.1686022,1.1770504,2.0135052,2.1436157,7.1642456
269,1778413505.396507,-1.3830075,-2.171529,1.1314075,1.882784,2.234632,7.1489744
270,1778413505.4066496,-1.3227296,-2.217416,1.123846,1.6763176,2.8253212,6.860578
271,1778413505.4168189,-1.2492802,-2.2510765,1.1514087,1.6763176,2.8253212,6.860578
272,1778413505.427168,-1.2119304,-2.2486374,1.1667753,1.5871339,3.241919,6.601579
273,1778413505.4373913,-1.2119304,-2.2486374,1.1667753,1.5871339,3.241919,6.601579
274,1778413505.4475687,-1.2119304,-2.2486374,1.1667753,1.5871339,3.241919,6.601579
275,1778413505.4578843,-1.0340238,-2.2808647,1.235133,1.3165286,3.6426349,6.27783
276,1778413505.4680874,-0.973502,-2.2030249,1.2087595,1.2701042,3.3763056,6.2515635
277,1778413505.4787068,-0.973502,-2.2030249,1.2087595,1.2701042,3.3763056,6.2515635
278,1778413505.4889286,-0.973502,-2.2030249,1.2087595,1.2701042,3.3763056,6.2515635
279,1778413505.4992745,-0.973502,-2.2030249,1.2087595,1.2701042,3.3763056,6.2515635
280,1778413505.5094728,-0.6150054,-2.097104,0.6491537,0.8180772,2.4129994,6.3639593
281,1778413505.5196314,-0.6150054,-2.097104,0.6491537,0.8180772,2.4129994,6.3639593
282,1778413505.5299265,-0.22330572,-1.8855064,0.499084,0.5114319,2.2291343,6.261948
283,1778413505.5405548,-0.22330572,-1.8855064,0.499084,0.5114319,2.2291343,6.261948
284,1778413505.5511837,-0.22330572,-1.8855064,0.499084,0.5114319,2.2291343,6.261948
285,1778413505.5614004,0.57570434,-1.3917886,0.76848996,-0.19478393,1.6438663,6.0353236
286,1778413505.5715744,0.57570434,-1.3917886,0.76848996,-0.19478393,1.6438663,6.0353236
287,1778413505.5820413,2.0185018,-1.4435294,1.0106077,1.4619102,1.6035504,5.8838334
288,1778413505.5922618,2.8526664,-1.1099124,0.7128465,2.5211194,1.836894,5.373165
289,1778413505.6025107,3.6463103,-1.2168088,0.22086655,3.4832802,2.2230258,4.4440665
290,1778413505.6127448,4.4860544,-1.5760676,-0.34678853,4.110009,3.3653102,2.4098687
291,1778413505.6232145,4.7120433,-1.4918553,-0.6011022,3.9835641,3.614536,0.9962919
292,1778413505.6336648,4.5736814,-1.4818548,-0.7743745,3.5608578,2.8161585,0.24617144
293,1778413505.643885,4.3969946,-1.3849589,-0.96667224,2.9432912,2.0720704,0.1771457
294,1778413505.6543198,4.324277,-1.0708857,-1.2263216,1.5901881,0.9725452,0.70247436
295,1778413505.664946,4.512184,-0.8258409,-1.420845,0.51754034,-0.05612159,1.2473501
296,1778413505.67549,5.123043,-0.95545214,-1.5343274,-0.23326729,-0.6212317,1.2210836
297,1778413505.6858764,5.511785,-1.1255535,-1.6033862,-1.0872318,-0.9242119,0.31886226
298,1778413505.6962526,5.405163,-1.1472621,-1.5462792,-1.8617861,-0.95170003,-0.74889874
299,1778413505.7065089,4.673748,-1.1968076,-1.1877828,-3.187401,-0.5099811,-2.6658137
300,1778413505.7166643,3.924284,-1.1760747,-0.53201276,-3.9625661,-0.09093989,-4.021971
301,1778413505.7272997,3.2672944,-1.1792457,0.3009017,-4.255773,-0.010308048,-5.0671306
302,1778413505.737538,2.4795046,-1.3293154,1.1377493,-3.588117,-0.49532077,-5.9595785
303,1778413505.7477918,2.0280147,-1.4130397,1.3766657,-2.7885177,-0.9578085,-6.282793
304,1778413505.7580814,1.2058326,-1.4833182,1.3424869,-1.269875,-1.7696245,-6.7726927
305,1778413505.7682865,0.8497752,-1.4652684,1.192905,-0.84839046,-2.263189,-7.0848355
306,1778413505.7785082,0.1086039,-1.7141855,0.93249345,-0.84839046,-2.263189,-7.0848355
307,1778413505.7889597,0.1086039,-1.7141855,0.93249345,-0.84839046,-2.263189,-7.0848355
308,1778413505.7991483,-0.39535844,-2.0175261,0.9922835,-1.6211122,-2.4482758,-7.590617
309,1778413505.8096325,-0.6193959,-2.0292344,1.1343344,-1.7280105,-2.3932996,-7.668195
310,1778413505.8199368,-0.74263483,-2.0116723,1.2905326,-1.6718125,-2.3639789,-7.610164
311,1778413505.8301013,-0.79559517,-2.0138674,1.4069419,-1.4030398,-2.450719,-7.46295
312,1778413505.8402998,-0.8068154,-1.9826462,1.4549935,-1.0432508,-2.7860744,-7.274809
313,1778413505.8505137,-0.89468634,-2.0519488,1.4384071,-0.8080746,-3.1941204,-6.9284587
314,1778413505.8606508,-0.89468634,-2.0519488,1.4384071,-0.8080746,-3.1941204,-6.9284587
315,1778413505.87103,-1.1035705,-2.1429603,1.3581281,-0.7066739,-3.7537327,-6.6132617
316,1778413505.8812501,-1.2536707,-2.0831704,1.298582,-0.7964685,-3.6547756,-6.575389
317,1778413505.891492,-1.2536707,-2.0831704,1.298582,-0.7964685,-3.6547756,-6.575389
318,1778413505.9017787,-1.4530421,-1.7710484,1.2099792,-0.7146149,-2.7121618,-6.522856
319,1778413505.9119422,-1.4530421,-1.7710484,1.2099792,-0.7146149,-2.7121618,-6.522856
320,1778413505.922171,-1.3934959,-1.5326198,1.0882037,-0.19905984,-1.5271182,-6.370755
321,1778413505.9323912,-1.349347,-1.3969108,1.0435365,0.033062108,-1.2229162,-6.230184
322,1778413505.9428506,-1.2912644,-1.3307788,0.99082005,0.28358585,-1.1618315,-6.0200524
323,1778413505.9530485,-1.2483045,-1.3412672,0.9283469,0.47844613,-1.343864,-5.734787
324,1778413505.963249,-1.2265655,-1.3137047,0.79876614,0.5957288,-1.743969,-5.4281416
325,1778413505.9736023,-1.2334256,-1.3591037,0.6428119,0.5444176,-2.120251,-5.211291
326,1778413505.983788,-1.2988259,-1.3834953,0.50420624,0.35994175,-2.2454746,-5.1282153
327,1778413505.994137,-1.4384071,-1.378617,0.39779758,0.16080554,-2.1220834,-5.0598006
328,1778413506.0043569,-1.5396935,-1.2865994,0.29992604,-0.050013117,-1.6987662,-4.9327445
329,1778413506.014981,-1.5802141,-1.1846118,0.23086715,-0.20883341,-1.3304254,-4.8325653
330,1778413506.025605,-1.6421995,-1.102107,0.24013597,-0.48249298,-1.1593881,-4.734219
331,1778413506.0359144,-1.6963794,-0.99203956,0.30992663,-0.88015455,-1.1673291,-4.722613
332,1778413506.0462794,-1.8801402,-0.90346736,0.46905175,-1.1648093,-1.3365338,-4.747047
333,1778413506.0565078,-2.1754317,-0.8131572,0.5315249,-1.2515497,-1.7458014,-4.588837
334,1778413506.0671415,-2.437063,-0.58790016,0.4934739,-1.3999856,-2.279682,-4.2449303
335,1778413506.0772996,-2.688907,-0.35630128,0.4446601,-1.7768784,-2.7304873,-3.9920394
336,1778413506.0875094,-3.2175047,-0.21915914,0.7414152,-2.2063038,-2.800124,-3.8637617
337,1778413506.097664,-3.2175047,-0.21915914,0.7414152,-2.8575435,-2.5973225,-3.7800756
338,1778413506.1080055,-3.5311208,-0.21989086,1.1455547,-3.1104343,-2.2411985,-3.9107969
339,1778413506.1186116,-4.4887376,-0.24281906,2.1049094,-2.9332886,-1.6975446,-4.103214
340,1778413506.1290317,-4.7874746,-0.42536017,2.3204098,-2.4481995,-1.1062444,-4.1771264
341,1778413506.1392293,-5.236525,-0.54936135,2.4023962,-0.7885274,0.17600037,-3.7495332
342,1778413506.1496499,-5.442726,-0.5129872,2.2096107,0.10582929,0.577327,-3.1593783
343,1778413506.1598222,-5.539866,-0.55667883,1.9445646,0.10582929,0.577327,-3.1593783
344,1778413506.170166,-5.469831,-0.54448295,1.5723783,0.85900396,0.7618029,-1.4789376
345,1778413506.1803355,-5.469831,-0.54448295,1.5723783,0.85900396,0.7618029,-1.4789376
346,1778413506.1907463,-5.09423,-0.061741404,1.0738126,0.37032616,0.32138202,-0.44164258
347,1778413506.200938,-4.989773,0.08713923,1.1016192,-0.029244313,0.57915956,-0.070858285
348,1778413506.211158,-4.8484845,0.05417999,1.2802577,-0.03840702,0.8748096,0.3671192
349,1778413506.2213767,-4.649814,-0.011951917,1.3027285,0.45950985,1.1386956,0.92970955
350,1778413506.231597,-4.393823,0.052960407,1.0599095,1.1082296,1.3793695,1.5258964
351,1778413506.2417397,-4.049718,0.0866514,0.54448295,1.5761386,1.7483212,2.3023596
352,1778413506.252205,-3.8429985,0.06100966,0.27236345,1.5565915,2.0635183,3.0109425
353,1778413506.2624648,-3.4691353,-0.002927,-0.057350907,1.5565915,2.0635183,3.0109425
354,1778413506.2727683,-3.1577146,-0.10811607,-0.15497856,0.6812474,2.3977282,4.477663
355,1778413506.2829351,-2.86535,-0.31041446,-0.06271707,-0.02741177,2.3677967,5.2436657
356,1778413506.2931588,-2.5822544,-0.56643546,0.1688818,-0.6975112,1.9963253,6.181316
357,1778413506.3034089,-2.3262637,-0.8075471,0.44514793,-0.86366165,1.6719654,6.7316895
358,1778413506.3136733,-2.0507295,-1.1067414,0.76848996,-0.8239566,1.0757784,7.558853
359,1778413506.323864,-1.8374243,-1.3761778,0.9493542,-0.55945975,0.70438325,8.069521
360,1778413506.334062,-1.6490293,-1.6597614,1.0381703,-0.12331479,0.48325655,8.376778
361,1778413506.344279,-1.5057585,-1.8684323,1.0257305,0.34283802,0.45027077,8.500169
362,1778413506.354516,-1.3864224,-1.9606631,0.9993571,0.6775823,0.6310816,8.489784
363,1778413506.3646793,-1.2685496,-2.0089893,1.0459757,0.9035958,0.8864157,8.354787
364,1778413506.3748415,-1.198759,-2.0817068,1.1084489,1.0465341,1.0354625,8.174587
365,1778413506.3855047,-1.1548235,-2.0897865,1.1453106,1.23101,1.177179,7.970564
366,1778413506.395744,-1.1543356,-2.099543,1.204613,1.4112098,1.3378319,7.721949
367,1778413506.4059541,-1.2119304,-2.1112514,1.279282,1.5553699,1.5626236,7.451344
368,1778413506.4161723,-1.2844043,-2.1283255,1.327364,1.6836478,1.8558303,7.20334
369,1778413506.426396,-1.3554449,-2.1581137,1.3156561,1.8675128,2.450872,6.957703
370,1778413506.4369988,-1.3554449,-2.1581137,1.3156561,1.8675128,2.450872,6.957703
371,1778413506.4473572,-1.3554449,-2.1581137,1.3156561,1.8675128,2.450872,6.957703
372,1778413506.4578884,-1.3554449,-2.1581137,1.3156561,1.8675128,2.450872,6.957703
373,1778413506.4681036,-1.1404324,-2.189579,1.2373283,1.990904,4.56929,6.6919847
374,1778413506.478315,-0.9198098,-2.0597544,1.1143029,1.8699561,3.9761574,7.0755963
375,1778413506.4885488,-0.9198098,-2.0597544,1.1143029,1.8699561,3.9761574,7.0755963
376,1778413506.4991732,-0.9198098,-2.0597544,1.1143029,1.8699561,3.9761574,7.0755963
377,1778413506.5097997,-0.9198098,-2.0597544,1.1143029,1.8699561,3.9761574,7.0755963
378,1778413506.5200913,-0.3841383,-1.8918483,0.77339876,1.3293563,1.4367892,7.629711
379,1778413506.5303714,-0.032715324,-1.7522669,0.55009305,1.1143382,1.1380848,7.5160937
380,1778413506.5405629,0.32629952,-1.5606704,0.43636695,0.9982771,1.2425396,7.2503753
381,1778413506.550806,0.57058203,-1.4230404,0.37828425,0.9964446,1.3482163,7.07804
382,1778413506.56104,1.1792457,-1.2172967,0.23525764,1.0392039,1.5003172,6.7347436
383,1778413506.5713837,1.1792457,-1.2172967,0.23525764,1.0392039,1.5003172,6.7347436
384,1778413506.5816154,1.7664139,-1.1536039,0.064424485,0.98728186,1.7293849,6.1910896
385,1778413506.591906,1.7664139,-1.1536039,0.064424485,0.98728186,1.7293849,6.1910896
386,1778413506.6021326,1.7664139,-1.1536039,0.064424485,0.98728186,1.7293849,6.1910896
387,1778413506.612365,4.2852197,-0.8253531,-0.04466724,2.430714,0.7178219,3.7158601
388,1778413506.6225674,4.5280385,-1.0896672,-0.3741377,2.7502635,-0.083609715,3.344465
389,1778413506.6330347,5.0356593,-1.2534268,-1.1523843,2.5315037,-0.38658994,2.9516902
390,1778413506.643539,5.5515738,-1.3271201,-1.7046727,2.022668,-0.33588964,2.3139658
391,1778413506.6537044,5.8478413,-1.3178513,-2.063413,1.1302202,-0.26319882,1.2956071
392,1778413506.6639354,5.8717756,-1.4125519,-2.1642115,-0.46172416,-0.22960222,-0.2907633
393,1778413506.6745076,5.638957,-1.4655123,-2.0529246,-1.4329714,-0.17401512,-1.2987376
394,1778413506.6851351,4.978553,-1.42987,-1.37569,-2.9845996,0.044057358,-2.9199262
395,1778413506.6955423,4.5051107,-1.4096249,-0.7514158,-3.6186593,0.23708509,-3.7904599
396,1778413506.7061706,3.6560671,-1.5907025,0.3245921,-3.759765,0.3403183,-4.9480157
397,1778413506.7163785,3.0774357,-1.6988186,0.99179566,-3.203894,-0.007253811,-5.5808535
398,1778413506.7266283,2.602774,-1.8569375,1.3664212,-2.2967093,-0.6035171,-6.0194416
399,1778413506.7370703,2.0617058,-2.0836582,1.3937398,-1.1110548,-1.4861914,-6.4306183
400,1778413506.7474568,1.7500716,-2.2103424,1.1763186,-0.6388699,-2.0310671,-6.7702494
401,1778413506.7578583,1.150677,-2.355046,0.7943756,-1.0560786,-3.015142,-7.5838976
402,1778413506.76818,0.68674743,-2.4434047,0.70382154,-1.5759096,-3.2833803,-7.7866993
403,1778413506.7783937,-0.06637583,-2.6728084,0.99764967,-1.9906749,-3.5741436,-8.012102
404,1778413506.7886035,-0.06637583,-2.6728084,0.99764967,-1.9906749,-3.5741436,-8.012102
405,1778413506.7988093,-0.8827039,-2.7272325,1.4623414,-2.4286523,-3.4055498,-8.079295
406,1778413506.809146,-1.0794227,-2.6349707,1.5482306,-2.4286523,-3.4055498,-8.079295
407,1778413506.8193629,-1.29224,-2.3494358,1.5187167,-2.0114436,-3.0291915,-7.3841505
408,1778413506.8297844,-1.3288276,-2.2186356,1.4711224,-1.925925,-2.8917508,-6.981602
409,1778413506.8402627,-1.3288276,-2.2186356,1.4711224,-1.925925,-2.8917508,-6.981602
410,1778413506.850505,-1.281965,-2.1107635,1.4762447,-1.9247034,-2.9375644,-6.6334195
411,1778413506.860775,-1.2634274,-1.9016049,1.4891723,-1.878279,-3.265055,-6.081748
412,1778413506.870972,-1.2397674,-1.8244967,1.4918553,-1.7359515,-3.2638333,-5.7842655
413,1778413506.881352,-1.2211993,-1.7827564,1.4423097,-1.5814072,-3.0139203,-5.728678
414,1778413506.8917632,-1.1960759,-1.7112583,1.37569,-1.3553938,-2.615648,-5.7427278
415,1778413506.9019976,-1.1953442,-1.6700059,1.3134608,-1.1275477,-2.2583022,-5.7592206
416,1778413506.912302,-1.2031494,-1.6731769,1.2653787,-1.1275477,-2.2583022,-5.7592206
417,1778413506.9225457,-1.162141,-1.6856166,1.162141,-0.70056546,-1.5301723,-5.801369
418,1778413506.9328732,-1.0852767,-1.7127218,1.066983,-0.32428354,-1.0585983,-5.8319116
419,1778413506.943103,-1.0628364,-1.7373575,0.9510616,-0.02985516,-1.0531007,-5.817251
420,1778413506.9533765,-1.1011313,-1.7920253,0.79925394,0.047111593,-1.3432531,-5.7628856
421,1778413506.9637816,-1.1614093,-1.749096,0.6530564,-0.15874393,-1.6492876,-5.7873197
422,1778413506.9743178,-1.3188269,-1.6902816,0.56570375,-0.490434,-1.6462333,-5.874671
423,1778413506.984748,-1.5821655,-1.6072888,0.55692273,-0.7323295,-1.3603568,-5.8032017
424,1778413506.9953766,-1.7930009,-1.4137715,0.52835405,-0.71522576,-1.1826003,-5.615061
425,1778413507.0060036,-1.9194412,-1.1670192,0.43709868,-0.6248204,-0.9223794,-5.061633
426,1778413507.0162332,-1.9206609,-0.98203903,0.39560235,-0.622377,-1.063485,-4.4275737
427,1778413507.026691,-1.8535228,-0.7633677,0.37316203,-0.8166264,-1.6444008,-3.750144
428,1778413507.0369318,-1.7961719,-0.7106512,0.45466065,-1.2949198,-2.199661,-3.1068456
429,1778413507.0471494,-1.6990626,-0.79608303,0.5900954,-1.7322865,-2.6254215,-2.7220118
430,1778413507.0573668,-1.6639081,-0.7631238,0.7284876,-1.9705169,-2.7756898,-3.0940177
431,1778413507.0678003,-1.9967933,-0.2789492,0.7636116,-1.9705169,-2.7756898,-3.0940177
432,1778413507.0779579,-1.9967933,-0.2789492,0.7636116,-2.0047243,-2.199661,-3.5748308
433,1778413507.0880976,-2.3301666,-0.30602396,1.0864964,-2.3315277,-1.6334056,-4.6315966
434,1778413507.0983024,-2.8150728,-0.6169567,1.6512243,-2.2667778,-1.7415255,-5.1850243
435,1778413507.1087184,-3.6257906,-0.63451874,2.1419847,-2.2667778,-1.7415255,-5.1850243
436,1778413507.118887,-4.6203003,-0.5700942,2.3721201,-1.826357,-1.3408097,-5.381717
437,1778413507.1291108,-5.6643243,-0.5276222,2.4797482,-0.89847994,-0.24426255,-4.9913855
438,1778413507.1395538,-6.690543,0.04198416,2.2188795,0.044057358,-0.046958882,-3.2393994
439,1778413507.149936,-6.900433,0.2745587,1.9975251,0.16263808,-0.051845662,-1.7220547
440,1778413507.1601412,-6.7930484,0.33386096,1.8850186,0.21394925,-0.11903886,-0.7934906
441,1778413507.170341,-6.3579016,0.26358244,1.8279115,0.051387526,-0.16363071,0.65177405
442,1778413507.1805654,-6.052853,0.23208672,1.8137645,-0.115373775,-0.18745375,1.4605358
443,1778413507.1907969,-5.6008754,0.23672113,1.8147401,-0.2656422,-0.0060321167,1.9700588
444,1778413507.2011318,-5.29412,0.28797412,1.8057151,-0.28091338,0.39162946,2.3127441
445,1778413507.2113345,-5.029318,0.44246486,1.7934887,-0.20394664,0.8784747,2.5925121
446,1778413507.2217438,-4.7647595,0.42536017,1.8847746,-0.12392564,1.4777158,2.9510794
447,1778413507.2320924,-4.4355636,0.31334144,2.0250878,0.1565296,1.9046981,3.4354813
448,1778413507.2426014,-4.052889,0.1481489,1.9958177,0.8608365,2.1081102,4.101305
449,1778413507.2528377,-3.5877397,-0.0248795,1.7590966,1.3281347,2.2651744,4.607774
450,1778413507.26307,-3.2611964,-0.21062206,1.5455475,1.5718627,2.5406666,5.090954
451,1778413507.273594,-2.9517577,-0.3697167,1.3393159,1.7013624,2.8314297,5.4965563
452,1778413507.2841122,-2.6918337,-0.54250115,1.1904658,1.7221311,3.074547,5.9088783
453,1778413507.2947402,-2.4580398,-0.7326342,1.1187238,1.5969075,3.2321455,6.329752
454,1778413507.3053672,-2.3057442,-0.90737003,1.150189,1.4704621,3.2730722,6.6309
455,1778413507.315995,-2.3057442,-0.90737003,1.150189,1.4704621,3.2730722,6.6309
456,1778413507.3262172,-2.3057442,-0.90737003,1.150189,1.4704621,3.2730722,6.6309
457,1778413507.3366847,-2.3057442,-0.90737003,1.150189,1.4704621,3.2730722,6.6309
458,1778413507.346882,-1.7295521,-1.9545653,1.6141186,1.4423631,2.5192869,8.197188
459,1778413507.3570132,-1.6111915,-2.1825054,1.7063801,1.694643,2.3549688,8.406098
460,1778413507.3674035,-1.490148,-2.3841026,1.7246737,2.0373282,2.158276,8.4940605
461,1778413507.377673,-1.406698,-2.566156,1.6900376,2.2853322,2.0060987,8.392659
462,1778413507.3879468,-1.3198026,-2.5459108,1.5406692,2.3439736,2.2370753,8.001106
463,1778413507.398591,-1.3198026,-2.5459108,1.5406692,2.3439736,2.2370753,8.001106
464,1778413507.4092293,-1.3198026,-2.5459108,1.5406692,2.3439736,2.2370753,8.001106
465,1778413507.4198585,-1.3198026,-2.5459108,1.5406692,2.3439736,2.2370753,8.001106
466,1778413507.4301212,-1.1726295,-2.5063658,1.3759339,2.5443316,3.4764845,6.949151
467,1778413507.4405315,-1.1453106,-2.463162,1.2736719,2.5602136,3.5827718,6.8159866
468,1778413507.4506795,-1.1453106,-2.463162,1.2736719,2.4924095,3.5137463,6.809878
469,1778413507.4609666,-1.0154861,-2.4553566,1.0833254,2.3177073,3.2449734,6.844696
470,1778413507.4713216,-0.9261516,-2.3645587,0.98252684,2.0623732,2.8644154,6.8795147
471,1778413507.4817915,-0.84245765,-2.2454665,0.86660546,1.7905461,2.5198977,6.9320474
472,1778413507.4919696,-0.84245765,-2.2454665,0.86660546,1.7905461,2.5198977,6.9320474
473,1778413507.5025976,-0.84245765,-2.2454665,0.86660546,1.7905461,2.5198977,6.9320474
474,1778413507.5127497,-0.84245765,-2.2454665,0.86660546,1.7905461,2.5198977,6.9320474
475,1778413507.522926,-0.17400406,-1.8945312,0.5207926,0.8205206,1.9224126,6.5887513
476,1778413507.533409,0.21232945,-1.8340095,0.45124584,0.6372664,1.8362832,6.2918797
477,1778413507.543635,0.69357705,-1.7561696,0.40828604,0.6488725,1.6817389,5.998062
478,1778413507.5538094,1.2873617,-1.5348152,0.32556778,0.75699246,1.2590326,5.7201266
479,1778413507.563987,2.0041108,-1.3173635,0.034666654,0.8712209,0.8668686,4.9797797
480,1778413507.5742064,2.3508995,-1.2683057,-0.11689706,0.8632799,0.9407811,4.4018416
481,1778413507.584719,2.7343059,-1.4086492,-0.38365042,0.90665007,1.2773579,3.5191674
482,1778413507.594896,2.9044073,-1.42987,-0.67138064,0.94146836,1.6566942,2.9101527
483,1778413507.6051235,3.1772585,-1.3591037,-0.88956416,0.94085747,2.1062777,2.7220118
484,1778413507.6155355,4.032644,-1.5741162,-1.0435365,0.810747,2.049469,2.572354
485,1778413507.625777,4.560754,-1.6414677,-1.0967407,0.810747,2.049469,2.572354
486,1778413507.6365485,4.560754,-1.6414677,-1.0967407,0.122322164,0.9878164,1.5039059
487,1778413507.6466827,5.3129015,-1.2458653,-1.3576401,-0.3071798,0.91512555,0.71774554
488,1778413507.6570356,5.3026567,-0.9698432,-1.2680618,-0.578396,1.0782218,-0.06658235
489,1778413507.667639,5.31217,-0.8600197,-1.0084125,-0.6052733,1.2407072,-0.8490777
490,1778413507.6777833,5.200639,-1.1379932,-0.5869245,-0.53136075,1.0104177,-1.7257198
491,1778413507.687919,5.200639,-1.1379932,-0.5869245,-0.58633703,0.15584241,-2.9718482
492,1778413507.6980543,4.194422,-1.5409131,-0.30358478,-1.4360255,-1.0750911,-5.2919226
493,1778413507.7082567,3.3954113,-1.7747072,-0.053204324,-1.7597746,-1.3469182,-6.238125
494,1778413507.7184813,3.3954113,-1.7747072,-0.053204324,-1.7597746,-1.3469182,-6.238125
495,1778413507.728617,1.9057515,-2.0741456,0.5478978,-2.0761936,-1.4098355,-7.7573786
496,1778413507.7387633,1.9057515,-2.0741456,0.5478978,-2.0761936,-1.4098355,-7.7573786
497,1778413507.7490978,0.4349034,-2.4287393,1.1260413,-1.8397956,-1.7030421,-8.880727
498,1778413507.7594988,0.4349034,-2.4287393,1.1260413,-1.8397956,-1.7030421,-8.880727
499,1778413507.7697713,-0.4551485,-2.6071641,1.4252356,-1.5924025,-1.7470231,-9.130029
500,1778413507.7799344,-0.7812041,-2.7325983,1.4359679,-0.91558367,-1.8862964,-9.098875
501,1778413507.7902653,-0.7812041,-2.7325983,1.4359679,-0.91558367,-1.8862964,-9.098875
502,1778413507.800646,-1.1106441,-2.7772658,1.3149242,-0.7451573,-2.3572595,-8.14099
503,1778413507.8108144,-1.1760747,-2.7836077,1.2397674,-0.97361416,-2.8667061,-7.7072887
504,1778413507.8209772,-1.216077,-2.7023222,1.2690375,-1.4073157,-3.4709105,-7.3523865
505,1778413507.8310976,-1.2563537,-2.6413126,1.4457246,-1.9033237,-3.7934377,-7.219222
506,1778413507.8412251,-1.3798366,-2.5400262,1.6480535,-1.9033237,-3.7934377,-7.219222
507,1778413507.851375,-1.5462792,-2.3655343,1.7554379,-1.9717386,-3.079281,-7.403087
508,1778413507.8615417,-1.6558588,-2.229368,1.7769024,-1.418311,-2.302894,-7.4220233
509,1778413507.8716724,-1.7358941,-2.0592663,1.7112583,-0.64131325,-1.6126368,-7.238769
510,1778413507.8818235,-1.7329669,-1.86331,1.5138078,0.10827268,-1.2363548,-6.9363995
511,1778413507.8920543,-1.7329669,-1.86331,1.5138078,0.58106846,-1.0531007,-6.593714
512,1778413507.9022663,-1.6461021,-1.5885073,1.072837,0.735002,-1.1202939,-6.1758184
513,1778413507.9126806,-1.5816777,-1.4947823,0.96228176,0.6885776,-1.5057385,-5.6645393
514,1778413507.9228585,-1.4842939,-1.435724,0.9242003,0.51082104,-2.2051587,-5.001159
515,1778413507.9330516,-1.3939837,-1.4820987,0.9224928,0.4045336,-2.7408717,-4.5723443
516,1778413507.9435215,-1.2934595,-1.5643291,0.85465354,0.44668207,-3.0542364,-4.3292274
517,1778413507.9540267,-1.2458653,-1.5907025,0.6769907,0.6213844,-3.023083,-4.3481636
518,1778413507.9642146,-1.2898009,-1.490148,0.42536017,0.74538636,-2.6095395,-4.4947667
519,1778413507.9743636,-1.3593476,-1.3737388,0.18229721,0.7459972,-1.9828103,-4.6193795
520,1778413507.9849875,-1.3710556,-1.2246141,0.0034148335,0.6061132,-1.2992721,-4.694514
521,1778413507.9953752,-1.3854467,-1.1318953,-0.06808324,0.2261662,-0.64810896,-4.7006226
522,1778413508.0060015,-1.3817879,-1.2346452,0.0046344167,-0.2680856,-0.5258631,-4.610828
523,1778413508.0163386,-1.3478836,-1.3327303,0.14153264,-0.69690037,-0.679873,-4.5399694
524,1778413508.0269616,-1.4327971,-1.4894162,0.44514793,-1.1880215,-1.5368917,-4.4178
525,1778413508.0375202,-1.6104598,-1.6546392,0.4612464,-1.334014,-2.808065,-4.2718077
526,1778413508.047675,-1.761048,-1.4855136,0.2701682,-1.4891692,-3.5662026,-4.3267837
527,1778413508.0580125,-2.04268,-1.064056,0.056375243,-1.9112647,-3.8960602,-4.6041083
528,1778413508.0682209,-2.9046512,-0.86367846,0.70382154,-2.8178384,-3.580863,-4.89365
529,1778413508.0783768,-2.9046512,-0.86367846,0.70382154,-3.9558468,-2.8135624,-5.045751
530,1778413508.088565,-3.2267737,-1.1184798,1.5787507,-4.5575314,-2.471488,-5.1355457
531,1778413508.0987952,-4.4619064,-1.5716466,2.9122126,-4.3125815,-2.723768,-5.246109
532,1778413508.1089933,-4.4619064,-1.5716466,2.9122126,-3.191066,-2.8056214,-5.4324174
533,1778413508.1191318,-5.083254,-1.5553042,3.0388663,-0.7995227,-0.7085828,-4.693903
534,1778413508.1295207,-6.4154963,-1.15336,2.623019,-0.7995227,-0.7085828,-4.693903
535,1778413508.13965,-6.5175147,-1.0530493,2.2447345,0.9231429,0.9725452,-2.7800422
536,1778413508.1499279,-6.416228,-0.9605744,1.9067272,0.91214764,1.1179268,-1.8576629
537,1778413508.160098,-6.2246623,-0.7555624,1.658298,0.91214764,1.1179268,-1.8576629
538,1778413508.1703207,-6.0152593,-0.55277616,1.4818548,0.45279053,0.7789066,-0.3035911
539,1778413508.1805663,-5.7680497,-0.36361876,1.29785,0.32512346,0.929175,0.49967307
540,1778413508.1907623,-5.437116,-0.13031249,1.1043022,0.27625567,1.4661098,1.0793672
541,1778413508.200963,-5.154752,-0.033447072,0.9969179,0.21089502,2.0109856,1.7097615
542,1778413508.2111833,-4.7884502,0.051009074,0.93859136,0.1357608,2.4716408,2.453239
543,1778413508.2213807,-4.417727,0.017074168,0.90175986,0.12048962,2.7037628,3.5271084
544,1778413508.231845,-4.417727,0.017074168,0.90175986,0.12048962,2.7037628,3.5271084
545,1778413508.2423265,-3.5801785,-0.21696389,0.829774,0.21272756,2.3494713,5.6040654
546,1778413508.2527382,-3.2016501,-0.50274277,0.8400186,0.22005773,1.977389,6.622348
547,1778413508.262909,-2.811414,-0.7584894,0.85489744,0.2560977,1.5968311,7.4623394
548,1778413508.273128,-2.5066097,-1.0581715,0.9461832,0.34894648,1.1209811,8.216125
549,1778413508.2837515,-2.5066097,-1.0581715,0.9461832,0.34894648,1.1209811,8.216125
550,1778413508.2941215,-2.5066097,-1.0581715,0.9461832,0.34894648,1.1209811,8.216125
551,1778413508.3043451,-2.5066097,-1.0581715,0.9461832,0.34894648,1.1209811,8.216125
552,1778413508.3145978,-1.51332,-2.2235138,0.9842342,0.7252284,0.13568445,9.332143
553,1778413508.324765,-1.51332,-2.2235138,0.9842342,0.7252284,0.13568445,9.332143
554,1778413508.3354063,-1.51332,-2.2235138,0.9842342,0.7252284,0.13568445,9.332143
555,1778413508.3455899,-1.51332,-2.2235138,0.9842342,0.7252284,0.13568445,9.332143
556,1778413508.3561094,-1.51332,-2.2235138,0.9842342,0.7252284,0.13568445,9.332143
557,1778413508.3665063,-1.6124111,-2.5807908,1.5509136,2.0886395,2.020759,7.8606114
558,1778413508.3767889,-1.6402482,-2.586157,1.5282294,2.2456272,2.5565486,7.7011805
559,1778413508.3873248,-1.6819578,-2.6481423,1.549938,2.3262591,2.7495763,7.698737
560,1778413508.397954,-1.6819578,-2.6481423,1.549938,2.3262591,2.7495763,7.698737
561,1778413508.4085298,-1.6819578,-2.6481423,1.549938,2.3262591,2.7495763,7.698737
562,1778413508.4190361,-1.6819578,-2.6481423,1.549938,2.3262591,2.7495763,7.698737
563,1778413508.4292376,-1.5135639,-2.7177196,1.544084,2.2175283,3.8875847,7.8526707
564,1778413508.439501,-1.5135639,-2.7177196,1.544084,2.2175283,3.8875847,7.8526707
565,1778413508.4499717,-1.324925,-2.6972,1.5338396,2.3818462,4.0152516,7.966288
566,1778413508.4606073,-1.324925,-2.6972,1.5338396,2.3818462,4.0152516,7.966288
567,1778413508.4710581,-1.324925,-2.6972,1.5338396,2.3818462,4.0152516,7.966288
568,1778413508.4814985,-1.324925,-2.6972,1.5338396,2.3818462,4.0152516,7.966288
569,1778413508.492126,-1.324925,-2.6972,1.5338396,2.3818462,4.0152516,7.966288
570,1778413508.5023568,-0.19595654,-2.2881823,0.58448535,2.5278387,1.3995274,8.290648
571,1778413508.512776,0.41243258,-2.1610408,0.24086772,1.6366125,0.69583136,7.8117437
572,1778413508.5232606,0.81779164,-2.1219835,0.16132039,1.3098092,0.7037724,7.3646035
573,1778413508.5335212,1.3849589,-1.9626147,0.100554645,1.0330955,0.905352,6.7756705
574,1778413508.5436904,2.0641448,-1.6402482,0.03295924,0.8260182,1.3518814,5.9443073
575,1778413508.5539482,2.0641448,-1.6402482,0.03295924,0.8260182,1.3518814,5.9443073
576,1778413508.564398,3.3551652,-1.2785501,0.11958014,1.6702092,2.8851843,3.7635064
577,1778413508.5748677,3.887666,-1.4398706,-0.09299323,2.6836047,3.1997707,3.084855
578,1778413508.585207,4.174664,-1.6116794,-0.6064683,3.3287358,2.6060271,2.8661716
579,1778413508.5954783,4.6686263,-1.3769096,-1.2861116,3.0031543,1.3824238,2.9632964
580,1778413508.6059806,5.3617153,-1.2148575,-1.8581573,1.6598247,-0.053678203,3.0182726
581,1778413508.6166296,5.3617153,-1.2148575,-1.8581573,1.6598247,-0.053678203,3.0182726
582,1778413508.627254,5.3617153,-1.2148575,-1.8581573,1.6598247,-0.053678203,3.0182726
583,1778413508.6374907,6.452602,-1.2297363,-1.9313931,-2.1287262,-1.4336585,-0.40499175
584,1778413508.6478899,6.2822566,-1.3549571,-1.7029651,-2.4512537,-0.8222004,-2.1551454
585,1778413508.6585214,5.776343,-1.4557252,-1.3854467,-2.9406188,-0.34688488,-3.9486694
586,1778413508.6691556,5.776343,-1.4557252,-1.3854467,-2.9406188,-0.34688488,-3.9486694
587,1778413508.679789,5.776343,-1.4557252,-1.3854467,-2.9406188,-0.34688488,-3.9486694
588,1778413508.6899645,2.4756017,-1.8247405,0.8324571,-3.8862102,-0.76172656,-8.053028
589,1778413508.700166,1.7322353,-1.9880123,1.3049237,-3.3260634,-1.2772816,-8.393881
590,1778413508.7103658,1.162141,-2.1168613,1.4755129,-2.6773436,-1.7494665,-8.669984
591,1778413508.7208478,1.162141,-2.1168613,1.4755129,-2.6773436,-1.7494665,-8.669984
592,1778413508.7315102,1.162141,-2.1168613,1.4755129,-2.6773436,-1.7494665,-8.669984
593,1778413508.7421463,1.162141,-2.1168613,1.4755129,-2.6773436,-1.7494665,-8.669984
594,1778413508.7523432,-0.69601625,-2.5429533,1.421333,-1.4757307,-2.9308453,-8.842243
595,1778413508.7625744,-0.9569156,-2.478041,1.4591706,-1.5252093,-2.807454,-8.61684
596,1778413508.7727702,-1.0782031,-2.5339284,1.5262781,-1.5252093,-2.807454,-8.61684
597,1778413508.7834027,-1.0782031,-2.5339284,1.5262781,-1.5252093,-2.807454,-8.61684
598,1778413508.7940328,-1.0782031,-2.5339284,1.5262781,-1.5252093,-2.807454,-8.61684
599,1778413508.8042514,-1.0782031,-2.5339284,1.5262781,-1.5252093,-2.807454,-8.61684
600,1778413508.8145127,-1.3834953,-2.5280745,1.3222418,-1.3004174,-2.6913931,-7.2289953
601,1778413508.8246987,-1.5284733,-2.268425,1.2033933,-1.2185639,-2.3199978,-7.0414653
602,1778413508.8353257,-1.5850925,-2.0160627,1.0979605,-1.2185639,-2.3199978,-7.0414653
603,1778413508.845519,-1.5850925,-2.0160627,1.0979605,-1.2185639,-2.3199978,-7.0414653
604,1778413508.855666,-1.5850925,-2.0160627,1.0979605,-1.2185639,-2.3199978,-7.0414653
605,1778413508.865819,-1.5260342,-1.5152714,0.8429455,-0.62054443,-1.0702044,-5.6682043
606,1778413508.8760138,-1.4811231,-1.361055,0.8009614,-0.53930175,-0.9419265,-5.2222857
607,1778413508.8865135,-1.3922764,-1.2099792,0.7977904,-0.3792598,-1.0665393,-4.638927
608,1778413508.8971517,-1.3922764,-1.2099792,0.7977904,-0.3792598,-1.0665393,-4.638927
609,1778413508.9077847,-1.3922764,-1.2099792,0.7977904,-0.3792598,-1.0665393,-4.638927
610,1778413508.9182086,-1.3922764,-1.2099792,0.7977904,-0.3792598,-1.0665393,-4.638927
611,1778413508.928375,-1.0957651,-1.0242671,0.4666126,0.020234315,-2.1819465,-2.9480252
612,1778413508.9385777,-1.0159739,-0.9173706,0.2555027,-0.024357535,-2.1336894,-2.7623277
613,1778413508.9487374,-0.9500859,-0.787546,0.1891269,-0.074447006,-1.9058435,-2.5796843
614,1778413508.959068,-0.9500859,-0.787546,0.1891269,-0.074447006,-1.9058435,-2.5796843
615,1778413508.9696944,-0.9500859,-0.787546,0.1891269,-0.074447006,-1.9058435,-2.5796843
616,1778413508.9803205,-0.9500859,-0.787546,0.1891269,-0.074447006,-1.9058435,-2.5796843
617,1778413508.990556,-0.97545326,-0.6428119,0.14031307,-0.059786674,-2.1355221,-1.6499748
618,1778413509.0006976,-1.0030463,-0.9366401,0.1276294,-0.33100286,-2.699945,-1.1503017
619,1778413509.0113263,-1.0030463,-0.9366401,0.1276294,-0.33100286,-2.699945,-1.1503017
620,1778413509.021953,-1.0030463,-0.9366401,0.1276294,-0.33100286,-2.699945,-1.1503017
621,1778413509.0325131,-1.0030463,-0.9366401,0.1276294,-0.33100286,-2.699945,-1.1503017
622,1778413509.0431488,-1.0030463,-0.9366401,0.1276294,-0.33100286,-2.699945,-1.1503017
623,1778413509.0535486,-1.2700131,-1.0110955,1.4354801,-4.7261252,-0.48799062,-3.0793574
624,1778413509.0636966,-1.4552374,-1.0059733,2.0231364,-4.3919916,0.0898709,-3.5681117
625,1778413509.073912,-1.8215698,-0.8238895,2.6537523,-3.214889,0.30549997,-4.2528715
626,1778413509.0841076,-1.8215698,-0.8238895,2.6537523,-3.214889,0.30549997,-4.2528715
627,1778413509.0943298,-1.8215698,-0.8238895,2.6537523,-3.214889,0.30549997,-4.2528715
628,1778413509.1045563,-3.142348,-0.6918696,2.7557707,-1.658374,-0.093383275,-5.389047
629,1778413509.114722,-3.6858249,-0.5866806,2.8638866,-1.622334,-0.58458084,-5.366446
630,1778413509.1249473,-4.199056,-0.5112798,3.1667397,-1.4751198,-0.84602344,-5.1367674
631,1778413509.1351697,-4.760125,-0.62476206,3.4696233,-0.99804807,-0.7776086,-4.9003696
632,1778413509.145699,-4.760125,-0.62476206,3.4696233,-0.99804807,-0.7776086,-4.9003696
633,1778413509.1562233,-4.760125,-0.62476206,3.4696233,-0.99804807,-0.7776086,-4.9003696
634,1778413509.1666765,-4.760125,-0.62476206,3.4696233,-0.99804807,-0.7776086,-4.9003696
635,1778413509.1768456,-6.099228,0.47734493,2.8431537,1.7080816,1.2816339,-3.918738
636,1778413509.187078,-6.1919465,0.7636116,2.52905,2.0006776,1.5388006,-3.5949888
637,1778413509.1976116,-6.068708,0.8597758,1.9589559,2.8101265,2.5437207,-2.2431076
638,1778413509.2081032,-6.068708,0.8597758,1.9589559,2.8101265,2.5437207,-2.2431076
639,1778413509.218587,-6.068708,0.8597758,1.9589559,2.8101265,2.5437207,-2.2431076
640,1778413509.2292151,-6.068708,0.8597758,1.9589559,2.8101265,2.5437207,-2.2431076
641,1778413509.2394922,-4.3064404,0.36800927,-0.002927,2.606638,2.9028988,2.368942
642,1778413509.2496974,-3.232414,-0.11348223,0.09762765,0.5016583,2.250514,4.966341
643,1778413509.2601573,-3.232414,-0.11348223,0.09762765,0.5016583,2.250514,4.966341
644,1778413509.2705922,-3.232414,-0.11348223,0.09762765,0.5016583,2.250514,4.966341
645,1778413509.2808278,-3.232414,-0.11348223,0.09762765,0.5016583,2.250514,4.966341
646,1778413509.2910225,-2.0707304,-1.2429384,1.3007771,0.32206923,1.4746616,7.483719
647,1778413509.3012447,-1.8315703,-1.4786838,1.4796594,0.8021952,1.3683742,7.702402
648,1778413509.3115008,-1.6561028,-1.6695181,1.5543284,1.1931374,1.3146197,7.770206
649,1778413509.3217595,-1.6561028,-1.6695181,1.5543284,1.1931374,1.3146197,7.770206
650,1778413509.3323975,-1.6561028,-1.6695181,1.5543284,1.1931374,1.3146197,7.770206
651,1778413509.3426225,-1.6561028,-1.6695181,1.5543284,1.1931374,1.3146197,7.770206
652,1778413509.3527703,-1.1133271,-2.2149768,1.4445051,2.6768854,2.422162,7.1929555
653,1778413509.3629382,-1.0877159,-2.1820176,1.3251688,2.7172012,2.8741891,6.8398094
654,1778413509.3731637,-1.0682026,-2.1798224,1.2307425,2.6011403,3.3934093,6.4952917
655,1778413509.383639,-1.0682026,-2.1798224,1.2307425,2.6011403,3.3934093,6.4952917
656,1778413509.3942635,-1.0682026,-2.1798224,1.2307425,2.6011403,3.3934093,6.4952917
657,1778413509.404511,-1.0682026,-2.1798224,1.2307425,2.6011403,3.3934093,6.4952917
658,1778413509.4147456,-1.4057223,-2.25815,1.1199434,1.2523896,5.927891,5.24672
659,1778413509.4253736,-1.4833182,-2.2515643,1.1321392,0.970789,6.2021613,5.358505
660,1778413509.4355853,-1.5360347,-2.2620833,1.1436033,0.5957288,6.123973,5.7280674
661,1778413509.4458277,-1.5709149,-2.24693,1.2143697,0.30313295,5.698212,6.2045283
662,1778413509.4560518,-1.5514015,-2.2672055,1.267574,0.119267926,5.186933,6.6516685
663,1778413509.4666836,-1.5514015,-2.2672055,1.267574,0.119267926,5.186933,6.6516685
664,1778413509.4768414,-1.5514015,-2.2672055,1.267574,0.119267926,5.186933,6.6516685
665,1778413509.4875014,-1.5514015,-2.2672055,1.267574,0.119267926,5.186933,6.6516685
666,1778413509.4977207,-0.8114498,-2.3611438,0.81193763,0.49799323,2.2761695,8.542928
667,1778413509.5080621,-0.60598046,-2.2364414,0.6525686,0.48577628,1.7880263,8.595461
668,1778413509.5184867,-0.014878917,-1.672445,0.17595538,0.14186928,0.6518504,8.456799
669,1778413509.528638,-0.014878917,-1.672445,0.17595538,0.14186928,0.6518504,8.456799
670,1778413509.53889,0.22525704,-1.4808791,0.06954674,-0.19417307,0.55472565,8.029205
671,1778413509.5492496,0.34556895,-1.3634942,0.09713981,-0.43118182,0.7269846,7.5289216
672,1778413509.5597315,0.34556895,-1.3634942,0.09713981,-0.43118182,0.7269846,7.5289216
673,1778413509.5701976,0.34556895,-1.3634942,0.09713981,-0.43118182,0.7269846,7.5289216
674,1778413509.580412,0.34556895,-1.3634942,0.09713981,-0.43118182,0.7269846,7.5289216
675,1778413509.5906227,2.194945,-0.86392236,-0.2674851,0.48150036,3.42273,5.2882576
676,1778413509.6008272,2.6359465,-0.89322287,-0.39267537,0.51021016,3.3585908,5.0665197
677,1778413509.6109653,3.2890031,-0.6660145,-0.5644842,0.26281703,2.4563696,5.173418
678,1778413509.6211488,3.8334858,-0.633787,-0.70065063,0.068567604,1.6921233,5.300474
679,1778413509.6313324,3.8334858,-0.633787,-0.70065063,-0.28152424,0.87542045,5.161201
680,1778413509.6419516,3.8334858,-0.633787,-0.70065063,-0.28152424,0.87542045,5.161201
681,1778413509.6525826,3.8334858,-0.633787,-0.70065063,-0.28152424,0.87542045,5.161201
682,1778413509.662813,3.8334858,-0.633787,-0.70065063,-0.28152424,0.87542045,5.161201
683,1778413509.6731555,6.713715,-1.4074297,-0.15571031,-1.530096,2.065351,-0.98598385
684,1778413509.683607,5.990624,-1.4925871,0.28236404,-1.3676107,2.0879524,-3.365234
685,1778413509.6940756,4.9568443,-1.5841168,0.7687339,-0.99804807,2.1918726,-4.938853
686,1778413509.7045093,4.1827135,-1.7136974,1.0437804,-0.3713188,2.3048794,-6.315168
687,1778413509.714688,3.457153,-1.889409,1.1038144,0.47478104,2.2285235,-7.4415703
688,1778413509.7253146,3.457153,-1.889409,1.1038144,0.47478104,2.2285235,-7.4415703
689,1778413509.735939,3.457153,-1.889409,1.1038144,0.47478104,2.2285235,-7.4415703
690,1778413509.7465663,3.457153,-1.889409,1.1038144,0.47478104,2.2285235,-7.4415703
691,1778413509.7567463,0.6991871,-1.884043,0.90322345,0.27869907,-1.02378,-9.058559
692,1778413509.7673762,0.16400346,-2.0385334,1.1972954,0.0697893,-1.667613,-8.955326
693,1778413509.777781,-0.21184163,-2.1878715,1.420845,0.20356485,-2.002968,-8.728015
694,1778413509.7879395,-0.4619782,-2.3611438,1.5535967,0.68674505,-2.2045476,-8.495282
695,1778413509.7981892,-0.6369579,-2.468772,1.5170093,1.0300412,-2.095206,-8.3541765
696,1778413509.8084688,-0.85465354,-2.426788,1.3500787,1.4478607,-2.0170176,-8.178863
697,1778413509.818929,-0.85465354,-2.426788,1.3500787,1.4478607,-2.0170176,-8.178863
698,1778413509.8291528,-0.85465354,-2.426788,1.3500787,1.4478607,-2.0170176,-8.178863
699,1778413509.8393352,-1.0721053,-2.0704868,0.9022478,1.614622,-1.6841059,-7.2204437
700,1778413509.8494925,-1.0721053,-2.0704868,0.9022478,1.614622,-1.6841059,-7.2204437
701,1778413509.8596447,-1.2512316,-1.9731029,0.86709327,1.9951799,-1.3011047,-6.9901543
702,1778413509.8698084,-1.2919961,-1.8000745,0.7504401,2.3048794,-0.8698465,-6.7537565
703,1778413509.8801425,-1.3002893,-1.6873242,0.625006,2.5925884,-0.6487198,-6.403741
704,1778413509.8907683,-1.3002893,-1.6873242,0.625006,2.5925884,-0.6487198,-6.403741
705,1778413509.9014,-1.3002893,-1.6873242,0.625006,2.5925884,-0.6487198,-6.403741
706,1778413509.9119046,-1.3002893,-1.6873242,0.625006,2.5925884,-0.6487198,-6.403741
707,1778413509.922504,-1.298094,-1.6258265,0.49518132,2.5925884,-0.6487198,-6.403741
708,1778413509.9326687,-1.1758308,-1.105034,-0.022440333,1.7972653,-2.115364,-3.7189908
709,1778413509.9428368,-1.1521404,-1.0667391,-0.07247374,1.4741272,-2.5118039,-3.2943757
710,1778413509.9532726,-1.0918624,-1.0843011,-0.12153149,0.9371924,-2.979713,-2.6511536
711,1778413509.9636939,-0.9805755,-1.0928382,-0.15229547,0.54625016,-3.2296257,-2.2760932
712,1778413509.9741154,-0.825597,-1.0418291,-0.15741771,0.21272756,-3.3579037,-2.0616858
713,1778413509.9843445,-0.825597,-1.0418291,-0.15741771,0.21272756,-3.3579037,-2.0616858
714,1778413509.9949708,-0.825597,-1.0418291,-0.15741771,0.21272756,-3.3579037,-2.0616858
715,1778413510.0052803,-0.825597,-1.0418291,-0.15741771,0.21272756,-3.3579037,-2.0616858
716,1778413510.015512,-0.5815583,-1.180953,0.044911157,-0.1556897,-2.676122,-3.2345126
717,1778413510.0256982,-0.7475131,-1.110888,-0.11762882,0.2921377,-1.9015675,-3.8790329
718,1778413510.0358503,-0.9813073,-1.0028024,-0.35459387,0.6097783,-0.99568105,-4.521644
719,1778413510.0463512,-1.3295593,-1.006949,-0.5669233,0.52975726,0.20898612,-5.2277837
720,1778413510.056864,-1.5387179,-0.96276957,-0.57131386,0.22066857,0.66040224,-5.517325
721,1778413510.0675232,-1.5387179,-0.96276957,-0.57131386,0.22066857,0.66040224,-5.517325
722,1778413510.07775,-1.5387179,-0.96276957,-0.57131386,0.22066857,0.66040224,-5.517325
723,1778413510.0878994,-1.5387179,-0.96276957,-0.57131386,0.22066857,0.66040224,-5.517325
724,1778413510.098104,-4.0677676,-0.5652159,1.2656226,-2.36207,-1.6645588,-6.0035596
725,1778413510.1083133,-5.293388,-1.0552444,1.6636641,-0.54724276,-0.6578825,-5.490448
726,1778413510.118731,-5.9017773,-1.0633242,1.4730737,0.85472804,-0.08299887,-4.7867517
727,1778413510.1289258,-6.309819,-0.600096,0.8300179,1.5504831,-0.6841489,-1.5968311
728,1778413510.139148,-6.095813,-0.2806566,-0.007073583,0.54197425,-1.6969336,-0.05375456
729,1778413510.1497505,-6.095813,-0.2806566,-0.007073583,0.54197425,-1.6969336,-0.05375456
730,1778413510.1603508,-6.095813,-0.2806566,-0.007073583,0.54197425,-1.6969336,-0.05375456
731,1778413510.1709828,-6.095813,-0.2806566,-0.007073583,0.54197425,-1.6969336,-0.05375456
732,1778413510.181186,-5.756586,-0.3655701,0.14449014,-0.498375,-2.707886,1.0488248
733,1778413510.1915786,-4.899493,0.29846254,1.1760747,-0.31389913,0.015958386,0.431869
734,1778413510.2017603,-4.994895,0.55692273,1.0630803,0.18890451,1.1008232,0.13988402
735,1778413510.2119942,-4.994895,0.55692273,1.0630803,0.18890451,1.1008232,0.13988402
736,1778413510.2222137,-4.9585514,0.55350786,0.7355612,0.86938834,2.6274068,0.875955
737,1778413510.2326212,-4.740612,0.37194243,0.5547275,1.026987,2.6451213,1.8032975
738,1778413510.2427762,-4.740612,0.37194243,0.5547275,1.026987,2.6451213,1.8032975
739,1778413510.253409,-4.740612,0.37194243,0.5547275,1.026987,2.6451213,1.8032975
740,1778413510.2637956,-4.740612,0.37194243,0.5547275,1.026987,2.6451213,1.8032975
741,1778413510.2741294,-3.0788991,-0.34703246,0.0024391667,-0.037796173,1.6151565,5.8966613
742,1778413510.2843542,-2.6366782,-0.6660145,0.32776302,-0.46905434,1.8240663,6.4519215
743,1778413510.294605,-2.4165432,-0.88810056,0.5110359,-0.55151874,1.9859408,6.737798
744,1778413510.304908,-2.160309,-1.1701902,0.71430993,-0.5136462,2.1961486,7.0676556
745,1778413510.315542,-1.8967265,-1.4586828,0.8739229,-0.24548425,2.3244267,7.4403486
746,1778413510.3257515,-1.8967265,-1.4586828,0.8739229,-0.24548425,2.3244267,7.4403486
747,1778413510.3359058,-1.8967265,-1.4586828,0.8739229,-0.24548425,2.3244267,7.4403486
748,1778413510.3465104,-1.8967265,-1.4586828,0.8739229,-0.24548425,2.3244267,7.4403486
749,1778413510.3566701,-1.8967265,-1.4586828,0.8739229,-0.24548425,2.3244267,7.4403486
750,1778413510.366826,-1.2927278,-2.171529,0.94496363,0.3324536,1.497263,8.425645
751,1778413510.3770297,-1.2709888,-2.232539,0.99106395,0.3776563,1.305457,8.324856
752,1778413510.3872259,-1.2949232,-2.2972074,1.0254866,0.45279053,1.2278794,8.227731
753,1778413510.3978415,-1.3539814,-2.2896457,1.0008206,0.57618165,1.3628765,8.084182
754,1778413510.40802,-1.3739827,-2.255223,1.0000888,0.6336013,1.7025076,8.016377
755,1778413510.4186237,-1.3739827,-2.255223,1.0000888,0.6336013,1.7025076,8.016377
756,1778413510.4287553,-1.3739827,-2.255223,1.0000888,0.6336013,1.7025076,8.016377
757,1778413510.4390872,-1.3505666,-2.3391912,1.1462865,0.618941,3.038507,7.6083317
758,1778413510.4492872,-1.3115095,-2.298183,1.1885145,0.7288935,3.2217612,7.662086
759,1778413510.4596443,-1.0415852,-2.2430272,1.1526282,0.9860602,2.7422462,8.105561
760,1778413510.4697866,-0.8500191,-2.2305875,1.0694221,1.15893,2.1729364,8.323023
761,1778413510.4799886,-0.8500191,-2.2305875,1.0694221,1.15893,2.1729364,8.323023
762,1778413510.4901972,-0.61842024,-2.2032688,0.943988,1.3366865,1.4288481,8.514829
763,1778413510.500822,-0.61842024,-2.2032688,0.943988,1.3366865,1.4288481,8.514829
764,1778413510.511043,-0.61842024,-2.2032688,0.943988,1.3366865,1.4288481,8.514829
765,1778413510.5214062,0.07710816,-2.1110072,0.47734493,1.6494403,0.72637373,8.150764
766,1778413510.5315855,0.9059065,-1.9413939,0.34337372,1.8009304,0.9456679,7.1727977
767,1778413510.5417469,1.5431083,-1.8108373,0.2245253,1.9847955,1.0879953,6.6400623
768,1778413510.5519223,2.3345568,-1.5292051,0.02930049,2.270061,1.1802332,5.8001475
769,1778413510.5623622,2.9851742,-1.2514755,-0.21940304,2.2963276,1.2584217,4.2845592
770,1778413510.5725873,3.1948204,-1.1765625,-0.31751853,2.2963276,1.2584217,4.2845592
771,1778413510.583055,3.1948204,-1.1765625,-0.31751853,2.2963276,1.2584217,4.2845592
772,1778413510.5935106,3.1948204,-1.1765625,-0.31751853,2.2963276,1.2584217,4.2845592
773,1778413510.6041372,3.1948204,-1.1765625,-0.31751853,2.2963276,1.2584217,4.2845592
774,1778413510.6143606,5.2782345,-1.5221316,-0.6662584,2.7368248,0.68789035,1.0518789
775,1778413510.6245759,5.5647454,-1.7000382,-0.9610622,1.5602566,-1.67983,0.26266432
776,1778413510.6348748,5.343635,-1.9235878,-1.2451336,0.6928535,-2.4751532,-0.31580803
777,1778413510.6451857,4.9939194,-1.9538335,-1.4689271,-0.27663746,-2.159956,-1.3152305
778,1778413510.6555183,4.894859,-1.8023003,-1.5174971,-0.6187119,-1.063485,-2.185077
779,1778413510.6657472,4.8162565,-1.7324791,-1.5758237,-0.6187119,-1.063485,-2.185077
780,1778413510.676396,4.8162565,-1.7324791,-1.5758237,-0.6187119,-1.063485,-2.185077
781,1778413510.6870105,4.8162565,-1.7324791,-1.5758237,-0.6187119,-1.063485,-2.185077
782,1778413510.6972308,3.80199,-1.8508397,-0.1730284,-2.5471568,-0.6102364,-5.72257
783,1778413510.7074575,3.190918,-2.0248437,0.29163286,-2.4469779,-1.3927318,-6.301729
784,1778413510.7176871,2.5868888,-2.0834143,0.5276222,-2.2209642,-2.0701613,-6.84294
785,1778413510.7278967,2.1490889,-2.1773832,0.6501294,-2.1446083,-2.3694766,-7.2687006
786,1778413510.7381048,1.3661773,-2.4643817,0.8809965,-2.265556,-2.5857165,-8.192302
787,1778413510.748729,0.45441675,-2.7159817,1.1304318,-2.3932233,-2.3645897,-9.100708
788,1778413510.7593606,0.45441675,-2.7159817,1.1304318,-2.3932233,-2.3645897,-9.100708
789,1778413510.7699876,0.45441675,-2.7159817,1.1304318,-2.3932233,-2.3645897,-9.100708
790,1778413510.7801847,-1.2775745,-2.55957,1.8076663,-1.3981531,-1.6297405,-9.308396
791,1778413510.7903783,-1.4186499,-2.511244,1.8418148,-1.0615761,-2.0738266,-8.910734
792,1778413510.800613,-1.5543284,-2.448527,1.7486081,-0.8587749,-2.5325727,-8.355398
793,1778413510.8108451,-1.6595175,-2.3960545,1.6543952,-0.7579851,-3.2308476,-7.5209804
794,1778413510.8213384,-1.6595175,-2.3960545,1.6543952,-0.7579851,-3.2308476,-7.5209804
795,1778413510.8315225,-1.6834214,-2.3530946,1.5099051,-0.9418501,-3.6724901,-7.0494065
796,1778413510.841675,-1.6834214,-2.3530946,1.5099051,-0.9418501,-3.6724901,-7.0494065
797,1778413510.8518436,-1.6834214,-2.3530946,1.5099051,-0.9418501,-3.6724901,-7.0494065
798,1778413510.8625069,-1.6834214,-2.3530946,1.5099051,-0.9418501,-3.6724901,-7.0494065
799,1778413510.8730328,-1.6834214,-2.3530946,1.5099051,-0.9418501,-3.6724901,-7.0494065
800,1778413510.8835397,-1.6834214,-2.3530946,1.5099051,-0.9418501,-3.6724901,-7.0494065
801,1778413510.8941717,-1.6834214,-2.3530946,1.5099051,-0.9418501,-3.6724901,-7.0494065
802,1778413510.9047093,-1.6834214,-2.3530946,1.5099051,-0.9418501,-3.6724901,-7.0494065
803,1778413510.9149442,-1.6834214,-2.3530946,1.5099051,-0.9418501,-3.6724901,-7.0494065
804,1778413510.9255686,-1.6834214,-2.3530946,1.5099051,-0.9418501,-3.6724901,-7.0494065
805,1778413510.9360695,-1.6834214,-2.3530946,1.5099051,-0.9418501,-3.6724901,-7.0494065
806,1778413510.9465446,-1.6834214,-2.3530946,1.5099051,-0.9418501,-3.6724901,-7.0494065
807,1778413510.9567158,-1.2092475,-1.6339064,0.76848996,-0.13186665,-3.1599128,-4.740938
808,1778413510.9672146,-1.2751354,-1.415235,0.6332992,-0.7176692,-2.1788921,-4.346942
809,1778413510.9774084,-1.2983379,-1.3073629,0.58790016,-0.77447796,-2.0164068,-4.222329
810,1778413510.987603,-1.309802,-1.1331148,0.5776557,-0.9681165,-2.026791,-4.0317445
811,1778413510.9977899,-1.3432186,-1.0643,0.60817575,-1.150149,-2.120251,-3.7629719
812,1778413511.0083933,-1.3505666,-1.0571959,0.63500655,-1.261934,-2.2723517,-3.488625
813,1778413511.0190153,-1.3505666,-1.0571959,0.63500655,-1.261934,-2.2723517,-3.488625
814,1778413511.0293205,-1.3505666,-1.0571959,0.63500655,-1.261934,-2.2723517,-3.488625
815,1778413511.0395987,-1.4032831,-0.86806893,0.8651419,-1.5930133,-2.6516879,-3.5222216
816,1778413511.0498059,-1.7498276,-0.55667883,0.9068822,-2.0548139,-2.7799659,-4.0470157
817,1778413511.0600789,-2.0143552,-0.38633353,1.0467074,-2.2649453,-2.4494975,-4.481328
818,1778413511.0702796,-2.4214218,-0.46978348,1.3539814,-2.4005535,-2.0744374,-4.9810014
819,1778413511.0804408,-3.0044742,-0.537135,1.8137645,-2.4799635,-1.7378604,-5.452575
820,1778413511.0909462,-3.0044742,-0.537135,1.8137645,-2.4799635,-1.7378604,-5.452575
821,1778413511.1011631,-3.0044742,-0.537135,1.8137645,-2.4799635,-1.7378604,-5.452575
822,1778413511.1113865,-3.0044742,-0.537135,1.8137645,-2.4799635,-1.7378604,-5.452575
823,1778413511.122957,-6.3710732,-0.38169912,2.619604,0.590842,0.51685315,-5.039643
824,1778413511.1331565,-6.8625956,-0.21793956,2.2664738,1.1577083,0.35009184,-3.8802545
825,1778413511.1433656,-7.084925,-0.28651062,2.0324357,1.2829319,0.14301461,-2.8521223
826,1778413511.1537616,-7.0995603,-0.40755427,1.6861045,1.1485455,-0.15263546,-0.98537296
827,1778413511.1642132,-6.979005,-0.49835226,1.5628656,1.034928,-0.21310934,-0.28893074
828,1778413511.174418,-6.277622,-0.6501294,1.3251688,0.3397838,0.05444176,1.5943114
829,1778413511.184587,-6.277622,-0.6501294,1.3251688,0.3397838,0.05444176,1.5943114
830,1778413511.1948,-6.277622,-0.6501294,1.3251688,0.3397838,0.05444176,1.5943114
831,1778413511.2054026,-6.277622,-0.6501294,1.3251688,0.3397838,0.05444176,1.5943114
832,1778413511.215749,-4.44093,-0.24355079,1.3183391,-0.35421506,1.4569471,4.1550593
833,1778413511.2263584,-4.44093,-0.24355079,1.3183391,-0.35421506,1.4569471,4.1550593
834,1778413511.2366157,-3.642164,-0.3065118,1.5635973,-0.07017108,1.6988425,5.163645
835,1778413511.2467823,-3.290741,-0.37118018,1.6233875,0.49188477,1.7959673,5.6871405
836,1778413511.2569425,-2.926116,-0.51908517,1.4655123,0.8956548,1.8155144,5.992564
837,1778413511.2675436,-2.926116,-0.51908517,1.4655123,0.8956548,1.8155144,5.992564
838,1778413511.2781634,-2.926116,-0.51908517,1.4655123,0.8956548,1.8155144,5.992564
839,1778413511.288671,-2.926116,-0.51908517,1.4655123,0.8956548,1.8155144,5.992564
840,1778413511.2988398,-1.6966234,-1.2287607,0.9320055,1.0966235,2.7239206,7.3132925
841,1778413511.3092859,-1.6966234,-1.2287607,0.9320055,0.9145911,2.6927674,7.4843297
842,1778413511.3195233,-1.4742934,-1.5821655,1.2236384,0.88588125,2.3671858,7.7372203
843,1778413511.329995,-1.4174303,-1.7493398,1.3500787,1.022711,2.2126415,7.68652
844,1778413511.340182,-1.4284065,-1.8301067,1.4176742,1.2762127,2.19004,7.6083317
845,1778413511.350387,-1.4284065,-1.8301067,1.4176742,1.2762127,2.19004,7.6083317
846,1778413511.3608203,-1.4284065,-1.8301067,1.4176742,1.2762127,2.19004,7.6083317
847,1778413511.3714833,-1.4284065,-1.8301067,1.4176742,1.2762127,2.19004,7.6083317
848,1778413511.381752,-1.4772204,-2.100519,1.4388949,1.8418572,2.4594238,7.5771785
849,1778413511.3921614,-1.3898371,-2.2884264,1.4074297,2.0409935,2.6457322,7.518537
850,1778413511.40255,-1.3654455,-2.2979388,1.384715,2.0562646,2.8650265,7.3676577
851,1778413511.412733,-1.3488592,-2.3709006,1.4518225,2.066649,3.2852893,7.0963655
852,1778413511.4230742,-1.358372,-2.369193,1.510149,2.1521676,3.510692,6.9766393
853,1778413511.4337013,-1.358372,-2.369193,1.510149,2.1521676,3.510692,6.9766393
854,1778413511.4443526,-1.358372,-2.369193,1.510149,2.1521676,3.510692,6.9766393
855,1778413511.454516,-1.358372,-2.369193,1.510149,2.1521676,3.510692,6.9766393
856,1778413511.4672666,-1.0167056,-2.2825723,1.1521404,2.690324,3.2632987,7.0004625
857,1778413511.4775195,-0.91688275,-2.194945,1.027682,2.47836,2.9896393,7.0120683
858,1778413511.4877684,-0.7531232,-2.1356428,0.95057374,2.2731154,2.6286285,7.025507
859,1778413511.4979775,-0.55228835,-2.0707304,0.8600197,2.0513778,2.0067096,6.9625897
860,1778413511.5081143,-0.35337427,-1.9587119,0.7052851,1.8174233,1.397084,6.8037696
861,1778413511.5183318,-0.17595538,-1.8366925,0.5681429,1.726407,1.3097329,6.7396307
862,1778413511.5285835,-0.17595538,-1.8366925,0.5681429,1.726407,1.3097329,6.7396307
863,1778413511.5391874,-0.17595538,-1.8366925,0.5681429,1.726407,1.3097329,6.7396307
864,1778413511.5493875,-0.17595538,-1.8366925,0.5681429,1.726407,1.3097329,6.7396307
865,1778413511.5595396,2.688663,-1.1170164,0.18815123,1.4710729,2.4288814,4.6951246
866,1778413511.5697,3.2890031,-1.081618,0.0190255,2.1375072,2.2199717,3.7708366
867,1778413511.5801632,3.5921304,-0.9856978,-0.3741377,2.4795818,1.6762413,3.324918
868,1778413511.5903664,3.9147406,-1.024511,-0.87709385,2.4801927,1.0110285,3.0219378
869,1778413511.6005309,3.9147406,-1.024511,-0.87709385,1.9261541,0.19371493,2.7018538
870,1778413511.611154,3.9147406,-1.024511,-0.87709385,1.9261541,0.19371493,2.7018538
871,1778413511.6213791,3.9147406,-1.024511,-0.87709385,1.9261541,0.19371493,2.7018538
872,1778413511.6320062,3.9147406,-1.024511,-0.87709385,1.9261541,0.19371493,2.7018538
873,1778413511.64239,4.896078,-1.3305349,-1.3608111,-1.2478846,0.22059222,-0.41048935
874,1778413511.6525452,4.8653145,-1.0064611,-1.2768428,-1.4800066,0.66834325,-1.3860887
875,1778413511.6628013,4.838971,-0.96252567,-1.01573,-1.9509698,0.33482066,-2.1062777
876,1778413511.673302,4.6524973,-1.0201205,-0.66577053,-2.5160036,-0.3872008,-2.812417
877,1778413511.6837177,4.322325,-1.0884477,-0.26528987,-2.9626093,-1.2387983,-3.6798966
878,1778413511.6938956,3.6336265,-1.4171863,0.28943762,-2.9626093,-1.2387983,-3.6798966
879,1778413511.7044175,3.6336265,-1.4171863,0.28943762,-2.9626093,-1.2387983,-3.6798966
880,1778413511.7149384,3.6336265,-1.4171863,0.28943762,-2.9626093,-1.2387983,-3.6798966
881,1778413511.7254832,1.4025514,-2.057315,0.8973694,-2.1843135,-1.7073181,-7.947352
882,1778413511.7356362,0.6120784,-2.1773832,0.9922835,-1.925925,-1.3652437,-8.591796
883,1778413511.7461357,-0.08076691,-2.258394,1.0882037,-1.6205014,-1.1141855,-8.9431095
884,1778413511.7565465,-0.6957723,-2.2164402,1.167995,-1.6205014,-1.1141855,-8.9431095
885,1778413511.7667146,-0.93834746,-2.151284,1.1653119,-1.0047674,-1.3988402,-8.396325
886,1778413511.7771652,-1.0503662,-2.1422286,1.0999117,-0.8068529,-1.6975446,-7.9241395
887,1778413511.7877908,-1.0503662,-2.1422286,1.0999117,-0.8068529,-1.6975446,-7.9241395
888,1778413511.7982216,-1.0503662,-2.1422286,1.0999117,-0.8068529,-1.6975446,-7.9241395
889,1778413511.8083704,-1.1601896,-2.5798151,1.0576837,-1.214288,-3.6614947,-5.4128704
890,1778413511.8190017,-1.1601896,-2.5798151,1.0576837,-1.677921,-4.365191,-5.3053613
891,1778413511.8292124,-1.7336987,-2.1644557,1.4569447,-2.4567513,-3.9626424,-5.574134
892,1778413511.8394177,-1.89819,-1.835229,1.4220647,-1.9802904,-3.07134,-5.4476886
893,1778413511.8496194,-1.8911165,-1.5089295,1.2294924,-1.5716337,-2.0371757,-5.147152
894,1778413511.8598006,-1.8911165,-1.5089295,1.2294924,-1.5716337,-2.0371757,-5.147152
895,1778413511.8699584,-1.8911165,-1.5089295,1.2294924,-1.5716337,-2.0371757,-5.147152
896,1778413511.880182,-1.8911165,-1.5089295,1.2294924,-1.5716337,-2.0371757,-5.147152
897,1778413511.890696,-1.8911165,-1.5089295,1.2294924,-1.5716337,-2.0371757,-5.147152
898,1778413511.901015,-0.9127362,-0.97935593,1.2172967,-1.261934,-3.082946,-3.36951
899,1778413511.9113915,-0.79242426,-1.0423169,1.0916185,-1.050581,-2.8758688,-3.533217
900,1778413511.9215596,-0.6237864,-1.0806423,0.97959983,-1.050581,-2.8758688,-3.533217
901,1778413511.9317732,-0.5666794,-1.1333588,0.85221434,-0.7329404,-1.8160489,-4.737884
902,1778413511.9421117,-0.59351027,-1.1338466,0.82096255,-0.68407255,-1.5326158,-5.0769043
903,1778413511.9526255,-0.59351027,-1.1338466,0.82096255,-0.68407255,-1.5326158,-5.0769043
904,1778413511.9632535,-0.59351027,-1.1338466,0.82096255,-0.68407255,-1.5326158,-5.0769043
905,1778413511.97388,-0.59351027,-1.1338466,0.82096255,-0.68407255,-1.5326158,-5.0769043
906,1778413511.9843972,-1.4679515,-0.9603304,0.63232344,0.35138988,-0.41591063,-6.247364
907,1778413511.9945834,-1.6697621,-0.9351765,0.55594707,0.4161397,-0.9914051,-5.922317
908,1778413512.005107,-1.9899635,-0.8004736,0.3245921,0.34833565,-1.6523418,-5.345066
909,1778413512.0153387,-2.174944,-0.657203,0.11372615,0.045279052,-1.7897825,-4.826457
910,1778413512.025581,-2.2320511,-0.676259,0.02853825,-0.39392012,-1.8545322,-4.3451095
911,1778413512.036078,-2.2361977,-0.6201277,-0.037105825,-0.96933824,-1.9828103,-3.9682164
912,1778413512.0467036,-2.2361977,-0.6201277,-0.037105825,-0.96933824,-1.9828103,-3.9682164
913,1778413512.0572402,-2.2361977,-0.6201277,-0.037105825,-0.96933824,-1.9828103,-3.9682164
914,1778413512.067414,-2.6654909,-0.5476539,0.99325913,-3.303462,-2.9760478,-3.7049413
915,1778413512.0776768,-3.0952415,-0.5603376,1.6412239,-3.738996,-2.9522247,-3.9694383
916,1778413512.0878344,-3.7507677,-0.6755272,2.2549791,-3.635763,-2.4971435,-4.225994
917,1778413512.098034,-4.8714123,-0.38218695,3.104998,-1.9124864,-1.3896775,-4.134978
918,1778413512.108229,-4.8714123,-0.38218695,3.104998,-1.9124864,-1.3896775,-4.134978
919,1778413512.1185064,-5.331439,-0.07369333,3.1213713,-0.9247464,-1.0787562,-3.9352307
920,1778413512.1286733,-5.331439,-0.07369333,3.1213713,-0.9247464,-1.0787562,-3.9352307
921,1778413512.1392815,-5.331439,-0.07369333,3.1213713,-0.9247464,-1.0787562,-3.9352307
922,1778413512.149903,-6.2656703,0.30334088,2.0468266,1.2982031,0.42278266,-2.54059
923,1778413512.1600997,-6.316405,0.4463675,1.312729,0.94269,0.93467265,-0.90779537
924,1778413512.1704106,-6.1958494,0.43905002,1.118236,0.3232909,1.0965471,0.08551861
925,1778413512.1806514,-5.8529634,0.41414002,1.1470182,-0.2619771,1.2162733,1.4458754
926,1778413512.1909137,-5.457117,0.3638627,1.3447126,-0.45256147,1.2156624,2.5552504
927,1778413512.20127,-5.457117,0.3638627,1.3447126,-0.45256147,1.2156624,2.5552504
928,1778413512.2115269,-5.0019684,0.17839456,1.5091734,-0.34749573,1.2193274,3.6468344
929,1778413512.2221642,-5.0019684,0.17839456,1.5091734,-0.34749573,1.2193274,3.6468344
930,1778413512.2327685,-5.0019684,0.17839456,1.5091734,-0.34749573,1.2193274,3.6468344
931,1778413512.2429838,-5.0019684,0.17839456,1.5091734,-0.34749573,1.2193274,3.6468344
932,1778413512.2531965,-2.6728084,-0.5771678,1.2365966,0.90176326,1.9651719,6.938767
933,1778413512.2633958,-2.442673,-0.7086999,1.2294924,0.98789275,2.020759,7.123319
934,1778413512.2738595,-2.1522596,-0.9083457,1.2033933,1.1479347,2.0787895,7.3682685
935,1778413512.2843902,-1.989232,-1.0943017,1.195832,1.2523896,2.048247,7.5857306
936,1778413512.2950206,-1.989232,-1.0943017,1.195832,1.2523896,2.048247,7.5857306
937,1778413512.3056479,-1.989232,-1.0943017,1.195832,1.2523896,2.048247,7.5857306
938,1778413512.3158152,-1.989232,-1.0943017,1.195832,1.2523896,2.048247,7.5857306
939,1778413512.3260417,-1.5853364,-1.8850186,1.5142956,1.7050275,2.5516617,8.14771
940,1778413512.3366659,-1.453286,-2.0360944,1.5548162,1.9982342,2.710482,8.09029
941,1778413512.3473182,-1.3349254,-2.1607969,1.5555481,2.202868,2.738581,7.9369674
942,1778413512.3579462,-1.2744036,-2.1856763,1.5194484,2.3287024,2.682994,7.7494373
943,1778413512.368166,-1.2385479,-2.291841,1.4672197,2.3641317,2.6060271,7.474556
944,1778413512.3783903,-1.3327303,-2.2703762,1.4206011,2.3091555,2.7422462,7.1379795
945,1778413512.3890212,-1.3327303,-2.2703762,1.4206011,2.3091555,2.7422462,7.1379795
946,1778413512.3996449,-1.3327303,-2.2703762,1.4206011,2.3091555,2.7422462,7.1379795
947,1778413512.4098089,-1.3417552,-2.3306544,1.2863555,2.3409195,3.4929774,7.045054
948,1778413512.4200232,-1.2829406,-2.357729,1.2383039,2.2163067,3.4129562,7.089035
949,1778413512.4302003,-1.2253458,-2.295256,1.2114426,2.1240687,3.298728,7.163024
950,1778413512.4403994,-1.156287,-2.2518084,1.198515,2.014116,3.0061321,7.3010755
951,1778413512.4507723,-1.1155529,-2.2071714,1.1638484,2.010451,2.7440786,7.431797
952,1778413512.4611912,-1.1155529,-2.2071714,1.1638484,2.010451,2.7440786,7.431797
953,1778413512.4714706,-1.1155529,-2.2071714,1.1638484,2.010451,2.7440786,7.431797
954,1778413512.4819417,-1.1155529,-2.2071714,1.1638484,2.010451,2.7440786,7.431797
955,1778413512.4925723,-1.1155529,-2.2071714,1.1638484,2.010451,2.7440786,7.431797
956,1778413512.5027387,-0.29919428,-2.0860972,0.5276222,2.2523465,1.5143667,7.642539
957,1778413512.5129707,0.2806566,-1.9055074,0.24672171,2.1130733,1.2107756,7.680412
958,1778413512.5231962,0.94298184,-1.8105935,0.03442274,1.9017203,1.0287431,7.384762
959,1778413512.533415,1.6658593,-1.7290643,-0.03881324,1.5138322,0.86870116,6.8049912
960,1778413512.5439565,2.4062989,-1.5650609,-0.07442507,1.1198357,0.93100756,5.9186516
961,1778413512.5545537,2.4062989,-1.5650609,-0.07442507,1.1198357,0.93100756,5.9186516
962,1778413512.5648077,2.4062989,-1.5650609,-0.07442507,1.1198357,0.93100756,5.9186516
963,1778413512.5750394,2.4062989,-1.5650609,-0.07442507,1.1198357,0.93100756,5.9186516
964,1778413512.585498,4.514867,-1.919929,-0.6918696,2.1735473,3.8161156,1.869269
965,1778413512.5961285,4.6203003,-2.1073484,-0.84221375,1.8357487,3.2535253,1.5234531
966,1778413512.606276,4.914616,-2.2393684,-0.9332252,1.019046,1.908974,1.5039059
967,1778413512.6165264,5.2901864,-2.1642115,-0.95325685,-0.0029778804,0.19799086,1.2082559
