id,timestamp,acc_x,acc_y,acc_z,gyro_x,gyro_y,gyro_z
0,1778428587110,0.44612357,0.625006,0.60232174,0.122322164,-0.21364383,-0.0019088977
1,1778428587120,0.44612357,0.625006,0.60232174,0.122322164,-0.21364383,-0.0019088977
2,1778428587130,0.44612357,0.625006,0.60232174,0.122322164,-0.21364383,-0.0019088976999999997
3,1778428587140,0.44612357,0.625006,0.60232174,0.122322164,-0.21364383,-0.0019088976999999997
4,1778428587150,0.4172973688888889,0.6225668333333333,0.5889469755555556,0.020921519333333333,-0.11529742166666668,-0.009849912466666666
5,1778428587160,0.35272382333333335,0.6145988666666667,0.5835198333333333,-0.18697016333333333,0.07223268666666666,-0.016772848466666667
6,1778428587170,0.35445834666666665,0.6107503622222222,0.6034058222222223,-0.19545415222222223,0.04779879746666667,0.0014846981666666668
7,1778428587180,0.36313096,0.60598046,0.6062244,-0.18187977,-0.0010689828,0.0041995747
8,1778428587190,0.36313096,0.60598046,0.6062244,-0.18187977,-0.0010689828,0.0041995747
9,1778428587200,0.36313096,0.60598046,0.6062244,-0.18187977,-0.0010689828,0.0041995747
10,1778428587210,0.36313096,0.60598046,0.6062244,-0.18187977,-0.0010689828,0.0041995747
11,1778428587220,0.37484658,0.6040862987500001,0.6077793687499999,-0.153933507875,-0.04443913995,0.0064902518625
12,1778428587230,0.46020977,0.5933959275,0.6142736625,0.038941513999999997,-0.3419217625,0.02267770375
13,1778428587240,0.4721921675,0.6020168825000001,0.599360475,0.02374668725,-0.3160370975,0.022830415375
14,1778428587250,0.48563809999999996,0.60841966,0.5871684,-0.024892027,-0.26312247,0.02069245
15,1778428587260,0.48623772777777785,0.6090430055555556,0.5870328888888889,-0.029778804555555555,-0.25871079444444445,0.020488834444444447
16,1778428587270,0.50676736625,0.620066675,0.5961438,-0.133317415,-0.15904936,0.007559234937499999
17,1778428587280,0.5165647066666667,0.6245181288888889,0.6029383277777778,-0.15853183555555556,-0.14258193333333333,-0.009510552333333332
18,1778428587290,0.5167273133333334,0.62630683,0.5928597999999999,-0.18269423666666668,-0.1670158233333333,-0.04507543533333333
19,1778428587300,0.5088135511111112,0.6282039500000001,0.5940116222222223,-0.19755818,-0.20000157333333332,-0.06828763
20,1778428587310,0.5026512725000001,0.6318356125,0.6039376812499999,-0.20448112,-0.23991026,-0.07887565
21,1778428587320,0.49233563333333336,0.6449258800000001,0.6206967833333333,-0.18004723222222221,-0.3299762844444445,-0.0709346371111111
22,1778428587330,0.4952084177777778,0.65067144,0.6356569944444445,-0.11685848155555556,-0.3933686655555555,-0.06027874766666667
23,1778428587340,0.5012487425,0.6498854725,0.6361651562499999,-0.050853034500000005,-0.439275535,-0.07078192424999999
24,1778428587350,0.5007101166666666,0.6406708444444444,0.6202089511111111,0.05017431388888889,-0.5175063944444445,-0.10629590777777778
25,1778428587360,0.5026208,0.638177475,0.60866357,0.1217876725,-0.59824854375,-0.139502245
26,1778428587370,0.50481605,0.6383604125,0.59530151,0.1835596025,-0.6971294450000001,-0.17432053249999999
27,1778428587380,0.5044502,0.63744575,0.57643604,0.22799873,-0.77501243,-0.20776442
28,1778428587390,0.4800246155555556,0.6263881655555555,0.5561639211111111,0.29471683555555556,-0.9125209677777778,-0.2810660911111111
29,1778428587400,0.43834003,0.6094519642857142,0.5434594428571428,0.37451481571428574,-1.115516142857143,-0.34180175428571424
30,1778428587410,0.41048125333333335,0.5822900666666667,0.5348584666666666,0.41186377,-1.2062706,-0.35436776
31,1778428587420,0.3852282675,0.5478902,0.52859795,0.5375646675000001,-1.430909775,-0.345815905
32,1778428587430,0.36771115111111113,0.5200879522222223,0.5191936022222223,0.6569577577777778,-1.633185,-0.33190215333333334
33,1778428587440,0.35288644999999996,0.481079915,0.476933305,0.81296135,-1.8418572,-0.3265742225
34,1778428587450,0.3411513422222222,0.3865909855555556,0.3824443955555556,1.0753202666666666,-2.1040802666666667,-0.3252507144444444
35,1778428587460,0.32403948250000003,0.3420588325,0.32690169375,1.1948936,-2.1935524,-0.3270323475
36,1778428587470,0.2756902155555555,0.27414539444444447,0.22663247,1.3064920111111111,-2.2863843333333334,-0.31378036777777774
37,1778428587480,0.2335502,0.22403745,0.15375897,1.3715812,-2.3595502,-0.2914505
38,1778428587490,0.16763172111111113,0.13306670222222222,0.06889968355555555,1.4051778,-2.4997651333333333,-0.21502672
39,1778428587500,0.1133869475,0.04679388825,0.00429522025,1.4276263875000001,-2.6992576374999997,-0.097277427875
40,1778428587510,0.06618611311111111,-0.05399705311111111,-0.06161267577777777,1.4340233444444443,-2.9947042777777777,0.08464476544444445
41,1778428587520,0.0418621975,-0.16884369500000002,-0.135873025,1.419685375,-3.3304156750000002,0.33199549
42,1778428587530,0.04369157,-0.22330572,-0.16790615,1.388074,-3.5251231,0.5051707
43,1778428587540,0.05366505444444444,-0.3096521911111111,-0.20045546555555557,1.316944222222222,-3.7265671,0.7267046555555555
44,1778428587550,0.07268717,-0.4051494,-0.237399535,1.1641222375,-3.9354597,1.0641723125
45,1778428587560,0.10869536111111112,-0.4973461111111111,-0.3096420444444445,0.9097806333333334,-3.9598427333333337,1.4403778333333332
46,1778428587570,0.16651377333333336,-0.5894653000000001,-0.3768817466666667,0.5340247455555556,-3.8287142888888885,1.8892827
47,1778428587580,0.2300574677777778,-0.6817098366666667,-0.4128120444444444,0.0012386616666666653,-3.508358733333333,2.4381119333333334
48,1778428587590,0.3021898875,-0.7909455125,-0.403651585,-0.5750363350000001,-3.13028675,3.0219376875
49,1778428587600,0.39939322222222223,-0.8844249666666666,-0.35241554444444445,-1.0903453444444444,-2.8005905111111113,3.5862927333333334
50,1778428587610,0.47061434375,-0.9361903625,-0.32199667499999995,-1.3970075874999999,-2.6195326,3.945996975
51,1778428587620,0.6079115,-1.033292,-0.2845592766666667,-1.7784308444444443,-2.4042778,4.411004555555555
52,1778428587630,0.7043466555555555,-1.0899078666666666,-0.25245712777777773,-1.9895294888888888,-2.2808188,4.667899666666667
53,1778428587640,0.982420075,-1.2528247000000001,-0.14404805125,-2.51218565,-1.986475325,5.327905250000001
54,1778428587650,1.0911307,-1.3161439,-0.073937245,-2.641838,-1.9557802999999998,5.553365
55,1778428587660,1.2129196999999998,-1.3691381444444444,0.004370172444444445,-2.6790319222222223,-1.9562553333333332,5.846164555555556
56,1778428587670,1.355345825,-1.4037404875,0.07114363,-2.6413799750000004,-1.990751275,6.19551835
57,1778428587680,1.4655089666666665,-1.4157499666666669,0.08734926999999999,-2.5958208111111114,-2.022226922222222,6.4857215777777775
58,1778428587690,1.6583970749999999,-1.4532593,0.0778094205,-2.56670385,-1.8972915,6.8863865
59,1778428587700,1.8008063,-1.4701468,0.077595994,-2.5722015,-1.7456487,6.983969
60,1778428587710,1.88399705,-1.4763666625,0.07247374375,-2.5905268875,-1.6132476,6.976638875
61,1778428587720,2.1762167875,-1.4681916375,0.021498967375,-2.7894340375,-0.946584215,6.695267875
62,1778428587730,2.215573111111111,-1.4301139555555555,0.007513988999999999,-3.0377349888888885,-0.6230472644444445,6.414999444444444
63,1778428587740,2.209123,-1.4079175,0.06027791,-3.295139175,-0.68643963625,6.2805024000000005
64,1778428587750,2.2449787,-1.3827636,0.17644322,-3.3730223,-0.81471753,6.2717214
65,1778428587760,2.3044713875,-1.3611160375,0.24066191375,-3.340952825,-0.9342909075,6.247898325
66,1778428587770,2.4668207,-1.3093141,0.3489838,-3.1749040666666666,-0.9475428666666666,6.104077733333333
67,1778428587780,2.554844175,-1.303791725,0.4073446525,-2.8333386750000003,-0.70339062,5.823588624999999
68,1778428587790,2.5781620000000003,-1.2650771555555556,0.45344107888888885,-2.4950311777777774,-0.5097011577777778,5.606229033333333
69,1778428587800,2.585676825,-1.2151623,0.4649051625,-1.962241825,-0.471497725,5.36736225
70,1778428587810,2.6069205,-1.189734,0.46417344,-1.6001907,-0.581144825,5.231448562500001
71,1778428587820,2.7318668,-1.1162847,0.4920104,-1.0437852,-0.9772029,4.988255
72,1778428587830,2.8368457777777776,-1.0562438333333333,0.48652907777777776,-0.4412183674444445,-1.6671888222222222,4.672786266666666
73,1778428587840,2.9655999250000002,-0.949216975,0.4043757075,0.11453386225000001,-2.2042422750000004,4.3115893000000005
74,1778428587850,2.9965467,-0.8548287875,0.3434613675,0.476327245,-2.33465835,3.9936433
75,1778428587860,2.9716471111111114,-0.6956266222222223,0.30471967111111115,0.6989025877777778,-2.1884452333333333,3.6823993777777773
76,1778428587870,2.9135948444444444,-0.49783392888888894,0.24520401444444445,0.8010498,-1.8995822999999998,3.396387
77,1778428587880,2.90049695,-0.396463695,0.1914593525,0.7597412874999999,-1.5539954125,3.1643320249999998
78,1778428587890,2.874863,-0.2628507,0.13104422,0.5646519,-0.776845,2.643136
79,1778428587900,2.76323295,-0.10155318049999999,0.13098706125,0.31336463,-0.02945428,2.05870795
80,1778428587910,2.629856175,0.038371142,0.1536370075,0.1647760425,0.4369848775,1.5721680999999998
81,1778428587920,2.5244157,0.11543357000000001,0.16132039,0.09972081,0.7008709,1.199704
82,1778428587930,2.5244157,0.11543357000000001,0.16132039,0.09972081,0.7008709,1.199704
83,1778428587940,2.16123885,0.3077656675,0.11231981625000001,0.12369656500000001,1.151523425,0.00878093
84,1778428587950,1.8971838857142858,0.34312977142857143,0.02451798214285714,0.08776565804285714,1.3072675999999999,-0.38045965428571427
85,1778428587960,1.7586086,0.3626431,-0.01243975,0.0013744063,1.4858096,-0.70927
86,1778428587970,1.5817843999999999,0.37654256249999996,-0.0126531765,-0.0959030198375,1.6525709499999999,-0.9866709875
87,1778428587980,1.3782321375,0.4096885425,-0.008841979375,-0.17943638374999998,1.784972025,-1.211844525
88,1778428587990,1.3527619,0.41414002,-0.008293167,-0.20264858,1.8211646999999997,-1.2736928
89,1778428588000,1.06582441,0.51102828,0.019581934250000002,-0.36131615,1.73427175,-1.63394
90,1778428588010,0.888798035,0.6032745374999999,0.07949396375000001,-0.428203915,1.5441455,-1.86590925
91,1778428588020,0.8475799,0.6767468,0.16619872,-0.3736858,1.3966259,-1.929132
92,1778428588030,0.8504459325,0.75361866,0.2309357325,-0.2061609425,1.2182585000000001,-2.005335225
93,1778428588040,0.8758743,0.8805087,0.32751912,0.09666658,0.9219976,-2.1429286
94,1778428588050,1.004022,0.9361521600000001,0.3506912,0.09666658,0.9219976,-2.1429286
95,1778428588060,1.0973849375,0.9483975099999999,0.38934817749999995,0.5754753775,0.6315396999999999,-2.5849337500000003
96,1778428588070,1.3209408666666667,0.9071972066666666,0.46563691999999995,1.0198010333333334,0.40257379444444447,-3.2138879444444446
97,1778428588080,1.4076736,0.8439211,0.47002742,1.2316971,0.33130828,-3.6010973
98,1778428588090,1.4921601875000001,0.70763655,0.43185066125,1.4150277125,0.33023931,-4.0853465374999995
99,1778428588100,1.522680275,0.5154874,0.3819430125,1.5310123,0.47348297500000003,-4.69313935
100,1778428588110,1.517741,0.3319096,0.3841383,1.5420076,0.6434512,-5.145319
101,1778428588120,1.498851,0.20315548,0.45854642,1.5728214444444444,0.7558471199999999,-5.344116244444444
102,1778428588130,1.525531125,0.021235995,0.577358425,1.676394,0.88023090625,-5.4826595875
103,1778428588140,1.5819216,-0.06661974,0.6291526,1.8132237,0.93421453,-5.5216775
104,1778428588150,1.707860522222222,-0.17772378666666666,0.62226192,1.9524968888888887,1.0204119066666668,-5.558328244444444
105,1778428588160,1.9672831999999998,-0.40478351875,0.581741225,2.1095610249999996,1.180156925,-5.615977025
106,1778428588170,2.0848777,-0.5083528,0.5686307,2.1699586,1.3410388,-5.634684
107,1778428588180,2.2833343999999998,-0.69028799,0.6271136125,2.2485287,1.3966258875,-5.6004767499999994
108,1778428588190,2.5258791,-0.8949303,0.727512,2.48821,1.0936457,-5.5564957
109,1778428588200,2.5258791,-0.8949303,0.727512,2.48821,1.0936457,-5.5564957
110,1778428588210,2.6707350888888888,-0.9277099777777779,0.7647634888888889,2.6598581111111113,0.38284853444444444,-5.442055111111111
111,1778428588220,2.974815375,-0.9287127425,0.729577625,2.6230544499999997,-0.5975613475,-5.08056915
112,1778428588230,3.2014065,-0.94151837,0.6816251,2.35138,-0.6717793,-4.8881526
113,1778428588240,3.635805,-1.0305208488888888,0.6218316777777777,1.7258725,0.08534893333333333,-4.9218169
114,1778428588250,4.0008318625,-1.1679530125,0.6160839874999999,1.21253178125,1.1080005725,-5.1729696125
115,1778428588260,4.2259173,-1.4169424,0.7501962,0.90733725,2.4057455,-5.742804
116,1778428588270,4.2259173,-1.4169424,0.7501962,0.90733725,2.4057455,-5.742804
117,1778428588280,3.7738863,-1.6866913875,1.04065905375,1.72320011875,2.6147316249999997,-6.466276475
118,1778428588290,3.5003567,-1.7451932,1.0652755,2.3336656,2.220048,-6.5735564
119,1778428588300,3.34588125,-1.7543400999999998,1.01365668,2.6561928999999997,1.8556776499999998,-6.5164422
120,1778428588310,2.933238975,-1.7581514249999999,0.794604335,3.4085181,0.986212885,-6.38129235
121,1778428588320,2.6483862,-1.7617795,0.59765685,3.7032616,0.49990213,-6.3102813
122,1778428588330,2.6483862,-1.7617795,0.59765685,3.7032616,0.49990213,-6.3102813
123,1778428588340,1.895083825,-1.7349525749999999,0.289003155,3.595676075,0.37597647875,-6.2524033625
124,1778428588350,1.0131180333333334,-1.6614587666666667,0.06987196333333333,3.444330211111111,0.22269623377777772,-6.109448222222222
125,1778428588360,0.7219019,-1.6160699,0.06320491,3.3740149,0.047798797,-5.9217825
126,1778428588370,0.36875798111111113,-1.5312580222222223,0.10795006777777777,3.361051311111111,-0.293732688,-5.588446533333333
127,1778428588380,-0.13190174125,-1.4200827999999999,0.18354729250000001,3.439528325,-1.020267625,-4.8220282
128,1778428588390,-0.24477036,-1.4098688,0.19132213,3.5719295,-1.3510414,-4.4202433
129,1778428588400,-0.24477036,-1.4098688,0.19132213,3.5719295,-1.3510414,-4.4202433
130,1778428588410,-0.3795173844444444,-1.456477277777778,0.027325433333333336,3.6410230111111113,-1.5247256444444444,-4.056042644444444
131,1778428588420,-0.59905168,-1.5831983,-0.58878812,3.1216586,-1.2801832,-3.4355576
132,1778428588430,-0.8164652975,-1.64163925,-0.9072670925,2.5511272,-0.780204685,-3.2413081999999998
133,1778428588440,-1.4075245111111112,-1.7391563,-1.3513186333333331,-0.299637548,1.237262577777778,-2.0189265444444446
134,1778428588450,-1.753829525,-1.91766525,-1.2321221,-2.046357425,2.119563575,-0.863967113
135,1778428588460,-2.000008277777778,-2.089742388888889,-1.0254629444444445,-3.0937971999999996,2.2800466999999998,0.26070452622222223
136,1778428588470,-2.12183115,-2.213616125,-0.8058816175,-3.605831325,1.836283225,1.4195326875
137,1778428588480,-2.100275,-2.322117,-0.57887524,-3.6747808,1.0612707,2.5734994
138,1778428588490,-1.7473749555555556,-2.362573511111111,-0.3611931622222222,-2.926017777777778,-0.19958586444444446,4.105301044444444
139,1778428588500,-1.3901496999999998,-2.3242439,-0.37076858749999997,-2.11939185,-1.076771,5.218258125
140,1778428588510,-1.0395424375,-2.24826015,-0.46055278499999996,-1.6395904,-1.46038305,5.8719984
141,1778428588520,-0.547272825,-2.094832725,-0.607184795,-1.34584925,-1.63218385,6.478493275
142,1778428588530,-0.27953527733333333,-1.9864879333333332,-0.6755001144444445,-1.2936218,-1.6729579,6.789109
143,1778428588540,0.013008886000000006,-1.8582486666666667,-0.6716143866666667,-1.5065359555555555,-1.5934798444444445,7.2692350999999995
144,1778428588550,0.27894538125,-1.749301675,-0.600515225,-1.617676225,-1.60950615,7.485093025
145,1778428588560,0.7048988666666667,-1.610226,-0.4818268933333333,-1.6853105777777777,-1.8504430333333335,7.806848222222222
146,1778428588570,0.96417215,-1.48789925,-0.41414001,-1.638445025,-2.1611777500000002,8.06976925
147,1778428588580,1.1236022,-1.390325,-0.376089,-1.5733898,-2.365048,8.325466
148,1778428588590,1.7626706222222221,-1.2548564444444446,-0.2986929044444444,-1.3709957444444445,-2.5008511777777778,8.602858666666666
149,1778428588600,2.33675225,-1.1366974,-0.32953143,-1.1558757499999999,-2.5279151,8.79215325
150,1778428588610,2.746475125,-1.0395957125,-0.3780174625,-1.1368631625,-2.479877625,8.829644
151,1778428588620,3.231408,-0.9095652,-0.43953782,-1.2924001,-2.38093,8.861179
152,1778428588630,3.4766814999999998,-0.8601416,-0.446428465,-1.3888376125000002,-2.3151111875000003,8.84094475
153,1778428588640,4.252675825,-0.687254275,-0.44950029,-2.12071855,-1.7752747875000001,8.660668875
154,1778428588650,4.60673985,-0.481689705,-0.2943235725,-2.518447,-1.2215418,8.390216
155,1778428588660,4.837944911111112,-0.3642353477777778,-0.18771421166666666,-2.9759715,-0.57282203,8.052952
156,1778428588670,4.9392514,-0.22257397,-0.102262065,-3.287045475,0.05350640500000001,7.539382
157,1778428588680,4.59972315,0.012054820125,0.1932048825,-3.7253283625,1.06050725625,6.1680205
158,1778428588690,4.098603,0.19857866666666668,0.6176884733333333,-3.4872506666666667,1.2534840666666667,4.9190257666666675
159,1778428588700,3.842023,0.26626554,0.8563609,-3.062101,1.0417236,4.3798513
160,1778428588710,3.4602527,0.40178156666666665,1.0396337666666666,-1.9831920222222221,0.42352924,3.7782345888888886
161,1778428588720,3.202206625,0.562090725,1.001377025,-0.6424586,-0.32726142,3.1972508
162,1778428588730,3.1108522,0.6501294,0.8485556,-0.6424586,-0.32726142,3.1972508
163,1778428588740,3.134100625,0.7397764,0.5498415475,1.065546725,-1.033706225,2.3464169999999998
164,1778428588750,3.1957963,0.7926682,0.3623992,1.191992,-0.7817318,1.923558
165,1778428588760,3.227040575,0.8381739075,0.17401166875000001,0.89083484625,-0.18668065,1.418692775
166,1778428588770,3.1634658625000003,0.92832019375,0.035821451125,-0.02168508500000002,1.001407725,0.6736118175000001
167,1778428588780,3.0171983222222227,0.9914975111111111,0.03874209866666667,-0.8690829555555556,1.9549403111111114,0.22002378555555557
168,1778428588790,2.887378725,0.9716649425,0.21200932,-1.657534075,2.78494815,-0.24533152
169,1778428588800,2.8048284,0.92810297,0.44539183,-2.0474074,3.1712136,-0.6164212
170,1778428588810,2.694517,0.8619711,0.8439211,-1.8587233333333333,3.1334597555555552,-1.3241895555555554
171,1778428588820,2.5561552,0.82096255,1.2548903,-1.008966975,2.68123755,-2.242821125
172,1778428588830,2.5561552,0.82096255,1.2548903,-0.2869455,2.2982364,-2.7898922
173,1778428588840,2.28990115,0.6851314375,1.1795124375000001,0.7727886075,1.9578418,-3.541997875
174,1778428588850,2.1583576,0.59521765,1.0047538,1.3172158,1.8474312,-3.9517235999999993
175,1778428588860,2.1583576,0.59521765,1.0047538,1.3172158,1.8474312,-3.9517236
176,1778428588870,2.10050365,0.4257260425,0.807432775,1.9453957499999999,1.9559328749999998,-4.6016650375
177,1778428588880,2.1650958,0.191367869,0.7381527999999999,2.4934021499999997,2.0585552375000002,-5.159302075
178,1778428588890,2.2196112,0.079303406,0.7599529,2.8504424,2.1210907,-5.4581494
179,1778428588900,2.3042235875,-0.15463172925000002,0.6792050275,3.39729385,2.2433365,-5.907198800000001
180,1778428588910,2.34651645,-0.375715515,0.537577095,3.7978665499999997,2.31839435,-6.297912
181,1778428588920,2.3743458,-0.4910347500000001,0.4349034,4.002577,2.403913,-6.58333
182,1778428588930,2.3807486125,-0.5845425,0.40435666875,4.172544875,2.410326925,-6.90883525
183,1778428588940,2.3402178777777776,-0.8325756944444445,0.3700046544444444,4.426504666666666,2.0817928666666665,-7.329988866666666
184,1778428588950,2.3040369,-1.0201205,0.3360562,4.670233,1.6898326,-7.7201166
185,1778428588960,2.269553125,-1.1424638125,0.271898485,4.7568967375,1.2497171375,-7.935888824999999
186,1778428588970,2.2706203,-1.2204676,0.21964696,4.7148247,0.8664105,-8.07876
187,1778428588980,2.2706203,-1.2204676,0.21964696,4.7148247,0.8664105,-8.07876
188,1778428588990,2.2907568888888887,-1.3444958444444444,0.19170833333333334,4.295240355555555,0.6993098222222222,-8.308981888888889
189,1778428589000,2.230797,-1.4648225625,0.23561588125,3.8990379375,0.660936725,-8.534529000000001
190,1778428589010,2.12052,-1.4913675,0.3094388,3.7631245,0.6300126,-8.636464
191,1778428589020,2.12052,-1.4913675,0.3094388,3.7631245000000004,0.6300126,-8.636464
192,1778428589030,1.7679613125,-1.36681375,0.37034172875,3.4956497874999997,-0.17376694999999998,-8.317067125
193,1778428589040,1.5648664,-1.2701313125,0.36593598125,3.2841344125,-0.70881186875,-8.05225575
194,1778428589050,1.4249917,-1.1975393,0.33434877,3.0782883,-1.0321791,-7.870996000000001
195,1778428589060,1.1860601124999999,-1.1083878,0.23885539125,2.64000545,-1.0377531,-7.579087375
196,1778428589070,0.9375377666666667,-1.0471681,0.20314532888888887,2.3156117666666667,-0.7864827755555556,-7.290080177777778
197,1778428589080,0.7314146,-1.0171934,0.22233005,2.0728338,-0.38834614,-6.9651093
198,1778428589090,0.4601996111111111,-0.9850777733333334,0.2637145833333333,2.0551871111111115,0.061856766888888894,-6.582854822222222
199,1778428589100,0.12135235375,-0.954445925,0.29248658,2.2615855000000002,0.4771480625,-6.0283753
200,1778428589110,-0.05344824,-0.9503298,0.28577888,2.483323,0.59030753,-5.6499553
201,1778428589120,-0.05344824,-0.9503298,0.28577888,2.483323,0.59030753,-5.6499553
202,1778428589130,-0.66534371,-0.9565932714285715,0.014543529999999995,3.3627468,0.3353987785714286,-4.175817485714285
203,1778428589140,-0.88956416,-0.9342008,-0.12714157,3.6855469000000003,-0.12079505,-3.3927984
204,1778428589150,-1.0587659825,-0.9480697375,-0.3469676425,3.6963894875,-0.80463855625,-2.5669901625
205,1778428589160,-1.2241948,-0.9542591500000001,-0.606510215,3.4447873875,-1.622104925,-1.5804145875
206,1778428589170,-1.3356572,-0.9202976,-0.753855,2.9310741,-2.112768,-0.8241093
207,1778428589180,-1.42224765,-0.8638003750000001,-0.8069982950000001,2.250590475,-2.36901835,-0.075210571
208,1778428589190,-1.4484078,-0.8348962,-0.8031566,2.080164,-2.3974228,0.106211066
209,1778428589200,-1.3370483,-0.9031396025,-0.6221323125,0.21623991374999998,-1.86751275,2.4011736999999997
210,1778428589210,-1.1606965624999999,-1.0282688875,-0.51917284125,-0.6477271874999999,-1.125257,3.7639643375
211,1778428589220,-0.9519525644444445,-1.1727310555555555,-0.4731983633333333,-1.3931898222222223,-0.3841380577777778,4.9818919
212,1778428589230,-0.70345568,-1.3558032249999998,-0.44867711,-1.9276812,0.10521844,5.806256
213,1778428589240,-0.5095914875,-1.48478935,-0.40321712375,-2.5370683,0.548378605,6.6272346375
214,1778428589250,-0.3287387,-1.580458,-0.31309754,-3.186646,0.9184682666666668,7.4574441444444455
215,1778428589260,-0.199298981,-1.644573825,-0.17036817675000002,-3.42563145,0.848008725,7.899811125
216,1778428589270,0.245014285,-1.8059362499999998,0.3322144875,-3.4140252625,-0.03461787375,8.89637925
217,1778428589280,0.44393509111111107,-1.8391588555555554,0.5464681833333334,-2.8133334666666667,-0.7273664011111111,9.108300777777778
218,1778428589290,0.6332076666666667,-1.7818721999999998,0.7153771,-1.6452662,-1.6167600333333334,9.271465
219,1778428589300,0.7454321875000001,-1.6950569375,0.69087111,-0.49415632499999995,-2.2441192500000002,9.39536475
220,1778428589310,0.8034005,-1.6509805,0.62207896,0.5719821,-2.6894841,9.526392
221,1778428589320,0.983387348888889,-1.6012113000000001,0.4500364144444445,1.1710874444444446,-2.791291888888889,9.582453888888889
222,1778428589330,1.384356675,-1.458850375,0.10598179875,2.186146,-2.5735566,9.611146999999999
223,1778428589340,1.6349925,-1.381540125,-0.094624429375,2.4221620500000003,-2.1879784125,9.527461375
224,1778428589350,1.9374097333333333,-1.2260979333333333,-0.3589030633333333,2.3760177555555555,-1.4859029666666668,9.11216911111111
225,1778428589360,2.0585688749999997,-1.0662360325,-0.4972622375,2.095587975,-0.7366818282500001,8.579568875
226,1778428589370,2.0833532666666668,-0.8125880566666667,-0.5668318466666666,1.5225962,0.308036702,7.8057624444444444
227,1778428589380,2.008023666666667,-0.6295590766666667,-0.50427738,0.9281060599999998,1.236516077777778,7.126093133333332
228,1778428589390,1.9400217375,-0.49058503125,-0.414860325,0.5864706199999999,1.6536399,6.9073082
229,1778428589400,1.966471475,-0.408712885,-0.378406225,0.39155309,1.6928868,6.981373
230,1778428589410,2.063657,-0.37633294,-0.3948706,0.30313295,1.5756042,7.068877
231,1778428589420,2.29699765,-0.35825642750000003,-0.55193771375,0.013056862500000002,1.3699013875,7.1325579999999995
232,1778428589430,2.4808687999999997,-0.31848657,-0.6573935575,-0.4599679875,1.344703875,7.17516475
233,1778428589440,2.6535846999999997,-0.23908789,-0.67936511,-0.9930849500000001,1.621875825,7.236554575
234,1778428589450,3.0711548000000004,-0.019614966666666667,-0.5797797333333334,-1.5142055333333333,2.0553907222222225,7.254642566666667
235,1778428589460,3.4408104,0.1378739,-0.49079079999999997,-1.8244481,2.2786894,7.1928790000000005
236,1778428589470,4.203438725,0.22498264624999997,-0.2832520385,-2.1605572125,2.3547398375,6.76918025
237,1778428589480,4.8616557,0.25748456,-0.082230404,-2.3724544,2.4472833,5.910711
238,1778428589490,5.4058832875,0.39251910749999996,0.183836942,-2.27982515,2.5528834625,4.190717599999999
239,1778428589500,5.647636233333333,0.5977787844444444,0.4259902888888889,-1.9318213555555555,2.759298722222222,1.8524196866666667
240,1778428589510,5.293632,0.68186903,0.46149033,-1.4029634,2.9830725,-0.37819082
241,1778428589520,4.734595422222222,0.582415451111111,0.41668758,-0.8675218577777778,2.836112888888889,-1.6667561266666668
242,1778428589530,4.1897874,0.43685475,0.35630128,-0.32665056,2.463776,-2.6445105
243,1778428589540,3.800726488888889,0.36568529666666666,0.23271682977777777,0.08085242711111112,1.9221581333333333,-3.0357242333333336
244,1778428589550,3.4344837999999998,0.36069941000000005,0.0330659555,0.38544462749999997,1.3288218,-3.286816425
245,1778428589560,3.367150933333333,0.4340463155555556,-0.07768407222222223,0.34100547,1.1455677,-3.2968953
246,1778428589570,3.410809,0.48835167,-0.12836114,-0.022448635,1.3064495749999998,-3.3006368
247,1778428589580,3.4739452,0.4868881725,-0.0967129595,-0.3840702125,1.7215966,-3.4207446999999997
248,1778428589590,3.6141065777777777,0.34157820333333333,0.24063734333333336,-0.6841319777777778,2.6772587,-3.9954330000000002
249,1778428589600,3.48938025,0.22737608250000002,0.496461895,-0.5234961075,3.065689775,-4.4536871
250,1778428589610,3.1968405,0.109320397,0.71993527,0.04247297750000001,3.2213030000000002,-5.00056745
251,1778428589620,2.780426333333333,-0.002042801333333335,0.8335750466666666,0.841433611111111,3.1024422444444446,-5.447425466666667
252,1778428589630,2.508073,-0.04905774,0.8456286,1.5578896,2.8467772,-5.7092075
253,1778428589640,2.1236070625,-0.13060213275,0.66790480875,2.166751675,2.4807270249999998,-5.786174375
254,1778428589650,1.81689325,-0.2142236275,0.46873540750000003,2.5793122,2.221804175,-5.8196182875
255,1778428589660,1.649273,-0.27699786,0.34166628,3.3746257,1.7338136,-5.8747473
256,1778428589670,1.4170237333333333,-0.36614941333333334,0.20605876,3.5786487666666664,1.5470979333333332,-5.878819166666666
257,1778428589680,1.2937645,-0.43911099333333337,0.1419595,3.648828233333333,1.4158336222222223,-5.849770277777777
258,1778428589690,1.2162125222222224,-0.49838950444444446,0.1320198933333333,3.7005466888888887,1.1988471333333335,-5.791061333333333
259,1778428589700,1.175003725,-0.59186757125,0.1243670075,3.767400575,0.8304468337500001,-5.7553264625
260,1778428589710,1.1640923,-0.63500655,0.13055639,3.8400912,0.63856447,-5.8130517
261,1778428589720,1.090852922222222,-0.7896327944444445,0.1415766877777778,4.075606733333334,0.20118085444444445,-6.053182455555556
262,1778428589730,1.0342599749999999,-0.8811260999999999,0.11719433900000001,4.265699124999999,-0.1820324775,-6.264926
263,1778428589740,0.9922834855555556,-0.9401394955555555,0.07605118366666667,4.3480447444444446,-0.43015523777777775,-6.370212166666667
264,1778428589750,0.97862417,-0.97594106,0.050033405,4.3507595,-0.5789305,-6.4245095
265,1778428589760,0.960078895,-1.105171275,-0.0026830834974999997,4.2270631,-0.7872294200000001,-6.5927980999999996
266,1778428589770,0.9263955399999999,-1.2063305666666666,-0.0062605282,4.0656976,-0.9489003,-6.863505066666667
267,1778428589780,0.8971255,-1.2322061,0.0041465834,3.99769,-1.0266815,-6.9962626
268,1778428589790,0.85063650625,-1.2436397000000001,-0.004908823,3.9406520874999997,-1.069898975,-7.0991140875
269,1778428589800,0.77315485,-1.2626957,-0.020001167,3.8150465,-1.1537378,-7.3248987
270,1778428589810,0.65061724,-1.2561098,-0.054667823,3.6841895222222223,-1.1787146000000002,-7.391684744444444
271,1778428589820,0.53440618,-1.23267095,-0.07938725075,3.454341225,-1.201078475,-7.336352
272,1778428589830,0.40488473333333336,-1.182613,-0.09337265333333333,3.214142522222222,-1.2286683777777778,-7.2453526888888895
273,1778428589840,0.21037814,-1.0894233,-0.110555224,2.876098,-1.2795722,-7.1092696
274,1778428589850,0.21037814,-1.0894233,-0.110555224,2.876098,-1.2795722,-7.1092696
275,1778428589860,0.21037814,-1.0894233,-0.110555224,2.876098,-1.2795722,-7.1092696
276,1778428589870,0.21037814,-1.0894233,-0.110555224,2.876098,-1.2795722,-7.1092696
277,1778428589880,-0.32515999000000007,-0.874296425,-0.123120753,1.929208375,-1.3755516125,-6.189152275
278,1778428589890,-1.14488395,-0.501210645,-0.05655818075,0.5970268,-1.5306305,-4.7641506
279,1778428589900,-1.1531161,-0.46807608000000006,-0.030763991000000004,0.5970268,-1.5306305,-4.7641506
280,1778428589910,-1.1531161,-0.46807608,-0.030763991,0.5970268,-1.5306305,-4.7641506
281,1778428589920,-1.1531161,-0.46807608,-0.030763991,0.5970268,-1.5306305,-4.7641506
282,1778428589930,-1.1531161,-0.46807608,-0.030763991,0.5970268,-1.5306305,-4.7641506
283,1778428589940,-1.1166742777777778,-0.44538505,0.09522912977777777,-0.07047651555555559,-0.77118618,-2.726194396
284,1778428589950,-1.143915875,-0.4318468275,0.3707152225,-0.50822491,0.99346673,0.224429102
285,1778428589960,-1.2090377875,-0.42767740875,0.3595293525,-0.245560596,1.265599175,0.859003975
286,1778428589970,-1.2690375,-0.42682368,0.30699962,-0.049936764,1.339817,1.3579135
287,1778428589980,-1.2690375,-0.42682368,0.30699962,-0.049936764,1.339817,1.3579135
288,1778428589990,-1.2690375,-0.42682368,0.30699962,-0.049936764,1.339817,1.3579135
289,1778428590000,-1.2690375,-0.42682368,0.30699962,-0.049936764,1.339817,1.3579135
290,1778428590010,-1.1307290625,-0.61504731125,0.171469608,0.399837701,0.70253157,3.5955137625
291,1778428590020,-0.9093213,-0.81559634,0.047106408,0.85602605,-0.07070557,6.049984
292,1778428590030,-0.409886725,-1.027544685,-0.1262878535,0.9287168975,-0.23464170625,7.2555674375
293,1778428590040,-0.21501255,-1.113571,-0.19132213,0.89206606,-0.2197523,7.7316465
294,1778428590050,-0.21501255,-1.113571,-0.19132213,0.89206606,-0.2197523,7.7316465
295,1778428590060,-0.21501255,-1.113571,-0.19132213,0.89206606,-0.2197523,7.7316465
296,1778428590070,-0.21501255,-1.113571,-0.19132213,0.89206606,-0.2197523,7.7316465
297,1778428590080,0.4894425222222222,-1.365411611111111,-0.38130614,-0.5240730066666667,0.8771002666666666,8.695945333333334
298,1778428590090,1.266224825,-1.62351695,-0.49395415499999995,-2.5376885000000002,2.0650454500000004,9.62596025
299,1778428590100,1.4207765,-1.67074535,-0.4279365625,-3.24245355,1.977236275,9.642911000000002
300,1778428590110,1.538474,-1.6993064,-0.37044844,-3.6937170000000004,1.7948983000000003,9.600305
301,1778428590120,1.538474,-1.6993064,-0.37044844,-3.693717,1.7948983,9.600305
302,1778428590130,1.5689788125,-1.69091795,-0.3407363425,-3.7794646624999997,1.662649875,9.602672
303,1778428590140,1.9999642,-1.5885073,0.06613191,-4.3815312,0.26472592,9.5086775
304,1778428590150,2.1621725,-1.491542775,0.15906796499999998,-4.14864585,-0.026800923125,9.156753312500001
305,1778428590160,2.2146989111111113,-1.3307077333333335,0.24117260000000001,-3.746453488888889,-0.10572747866666668,8.568041000000001
306,1778428590170,2.161372225,-1.1930497500000001,0.27788587,-3.4360157625000003,-0.08590039725000001,8.179693125
307,1778428590180,2.1384898249999997,-1.05716155,0.35755514,-3.044844475,-0.33779854,8.21148625
308,1778428590190,2.2847676,-1.0191449,0.38169912,-2.793328,-0.6717793,8.430532
309,1778428590200,2.5889416555555558,-0.8863830422222222,0.38232246,-2.3016470888888887,-1.00082232,8.318662377777777
310,1778428590210,2.981080875,-0.6719904250000001,0.38432122,-1.9060725250000001,-1.0226346874999999,7.7417256125
311,1778428590220,3.0664457555555553,-0.4513847511111111,0.41460752222222225,-1.523164611111111,-0.7558725888888889,6.593977622222223
312,1778428590230,2.8869215125,-0.233039505,0.45136780625,-1.0717314875000001,-0.34749573,5.2601297124999995
313,1778428590240,2.7186952,-0.17156488,0.45441675,-0.7976138,-0.13484453,4.6064754
314,1778428590250,2.4882510875,-0.17760182375,0.41225346875,-0.40644249625,-0.13507360125,4.17117045
315,1778428590260,2.170763075,-0.18584544875,0.29173194874999997,0.38392704875,-0.5511369625,3.6545464375
316,1778428590270,2.0927711999999996,-0.20416840444444442,0.19489279444444443,0.7876111822222223,-1.259414388888889,3.793912944444444
317,1778428590280,2.197155675,-0.1894889625,0.04981236,0.95620501125,-1.753589775,4.0318971875
318,1778428590290,2.417519,-0.1203119,-0.04393549,0.9690328,-1.9502826,4.2344694
319,1778428590300,2.737192166666667,-0.06786642622222222,-0.14507960777777776,0.8554830777777778,-1.695627111111111,4.283880144444445
320,1778428590310,3.298591775,0.081277606,-0.2811444575,0.4335488725,-0.19591017,4.10283195
321,1778428590320,3.61207805,0.23142355,-0.31023913000000003,0.1140757325,0.815404745,3.7126532
322,1778428590330,3.9047637777777777,0.2814696622222222,-0.3373570888888889,-0.16694794666666668,1.5189310444444444,3.1678539333333333
323,1778428590340,4.094430825,0.28212012750000004,-0.3166572,-0.5048652575,1.999073975,2.1294136
324,1778428590350,4.1364228125,0.29068769250000004,-0.279128325,-0.70965179375,2.0815384000000003,1.21512790375
325,1778428590360,4.05484,0.2891937,-0.22403745,-0.85075754,1.9372257,0.29259583
326,1778428590370,3.752529022222222,0.3009627,-0.10969135666666666,-0.8913448977777778,1.6106939333333334,-0.6899265344444445
327,1778428590380,3.2758350875,0.33815996875,0.132633495,-0.81960434,1.2610178,-1.5180318
328,1778428590390,3.075469,0.3550893125,0.269421205,-0.52739026375,0.9269606874999999,-1.9527259375
329,1778428590400,2.9204278666666665,0.4039497444444444,0.37246755555555555,0.00578608333333334,0.6866177777777778,-2.301613022222222
330,1778428590410,2.8785217,0.4192623,0.3841383,0.17790927,0.6581116,-2.400706
331,1778428590420,2.902132125,0.39546895,0.31212949125,0.510381975,0.86686865,-2.71185645
332,1778428590430,2.9064044,0.3482520175,0.2142655625,0.7826480499999999,1.2129900125000002,-3.1590728500000003
333,1778428590440,2.793296511111111,0.31005873666666667,0.10591404333333333,0.9313638999999999,1.5639980333333332,-3.8600966333333337
334,1778428590450,2.6632957,0.28138837,0.049545575,0.9391013,1.6727289,-4.1642985
335,1778428590460,2.524141066666667,0.2420940877777778,0.06927572133333333,0.9362507055555555,1.6532496111111112,-4.461238111111111
336,1778428590470,2.32610755,0.16351563249999998,0.1564687395,1.0740221125,1.429688025,-4.9383277125
337,1778428590480,2.1401134125,0.0859768175,0.23065370375,1.3511941375,1.2092485,-5.268863175
338,1778428590490,1.9833778999999998,0.03515449,0.24964872000000002,1.7387004,1.0093488,-5.5729885
339,1778428590500,1.8979536625,-0.009905302749999999,0.20032037625,2.0273258,0.8933641375,-5.7670091625
340,1778428590510,1.8501079,-0.06930282,0.094212815,2.2939606,0.7851678,-5.9975276
341,1778428590520,1.8422110875,-0.210545815,-0.019612423125,2.3830678,0.7492041425,-6.2509527
342,1778428590530,1.8313264,-0.3231286,-0.094456725,2.42765965,0.7198835124999999,-6.637160875
343,1778428590540,1.706913675,-0.499930115,-0.134581025,2.4291868,0.61787203,-6.9908415999999995
344,1778428590550,1.6060082666666666,-0.6438519722222222,-0.13440146666666666,2.4573959999999997,0.4631749422222222,-7.281053477777778
345,1778428590560,1.473668225,-0.8212293275,-0.06362414325,2.6074778249999997,0.09315421,-7.584355975
346,1778428590570,1.3583922777777777,-0.9718012777777777,-0.014634999888888889,2.7487703,-0.2042774911111111,-7.71285451111111
347,1778428590580,1.2944353,-1.0554883,0.012683666,2.9404659499999997,-0.5565581625,-7.8276354375
348,1778428590590,1.2418979625,-1.13522245,0.027009961125000002,3.0854659,-0.868853875,-7.8780206375
349,1778428590600,1.2017944333333335,-1.2363018222222222,0.0031438143333333336,3.226537655555555,-1.344661511111111,-7.913492444444445
350,1778428590610,1.1885145,-1.2695253,-0.018293751,3.245126,-1.5788875,-7.957202
351,1778428590620,1.141408,-1.3037041,-0.064424485,3.132043,-1.9001931,-8.046386
352,1778428590630,1.1035171,-1.317973225,-0.08914391875,3.0784411,-1.9505880750000002,-8.09998775
353,1778428590640,0.7871394333333332,-1.2611508333333332,-0.071091544,2.8189498444444445,-2.1891917777777774,-8.35662788888889
354,1778428590650,0.51194297,-1.218966,-0.038744639,2.61037935,-2.4564554249999997,-8.480927000000001
355,1778428590660,0.29943818,-1.1807091,-0.008537084,2.443160025,-2.79821495,-8.3130205
356,1778428590670,0.0131715005,-1.0864964,0.05686307300000001,2.3391633,-3.0840914,-8.048218
357,1778428590680,-0.30846313,-0.904443,0.12421457,2.160796,-3.6772242,-7.2778635
358,1778428590690,-0.49333290375,-0.6892894575,0.15226117249999999,1.999150325,-3.91217125,-6.4574954375
359,1778428590700,-0.6065216499999999,-0.46278615,0.14143356499999998,1.698842575,-3.9905887875,-5.403774375
360,1778428590710,-0.5411358755555555,-0.3758654355555555,0.12532574444444444,1.2299324888888892,-3.535711166666667,-4.3776198
361,1778428590720,-0.44520889,-0.3226941375,0.1380568325,0.80272011875,-2.8467675999999997,-3.6389697749999996
362,1778428590730,-0.4345239988888889,-0.2634740422222222,0.14256589888888888,0.25799812222222224,-1.8235656444444446,-2.9529035777777777
363,1778428590740,-0.4955929525,-0.301404785,0.1634622775,-0.24830942500000003,-0.7485933675,-2.382533475
364,1778428590750,-0.6140449875,-0.41042413,0.21032095,-0.6131379625000001,0.24480658500000002,-1.8812568250000001
365,1778428590760,-0.7936439,-0.48173544,0.2730952,-0.7456918,0.89695287,-1.4093009
366,1778428590770,-1.018302575,-0.5592132725000001,0.367891135,-0.64123693875,1.2378820125,-0.5800663
367,1778428590780,-1.1671073777777778,-0.6443634344444444,0.3942472577777778,-0.32284975577777775,1.1350474666666666,0.48704887222222226
368,1778428590790,-1.2117437500000001,-0.71526275,0.38126844375,0.015347534750000003,0.84587074625,1.524903775
369,1778428590800,-1.1694585,-0.77315485,0.33556834,0.3440597,0.41132927,2.6040418
370,1778428590810,-1.0513418,-0.83318883,0.25306356,0.6037462,0.022143213,3.8337537999999998
371,1778428590820,-1.0513418,-0.83318883,0.25306356,0.6037462,0.022143213,3.8337538
372,1778428590830,-1.0513418,-0.83318883,0.25306356,0.6037462,0.022143213,3.8337538
373,1778428590840,-0.12262910750000001,-1.16721751625,-0.08797768624999999,0.28688824150000003,0.816616869125,6.66341785
374,1778428590850,0.24794129000000004,-1.3051676,-0.23452587,-0.109188944,1.3819655,7.650403999999999
375,1778428590860,0.40200898375,-1.36479385,-0.27524853875,-0.5366293235,1.6293587,8.057743250000001
376,1778428590870,0.4944496,-1.4005696,-0.29968214,-0.67910945,1.7118231,8.193523
377,1778428590880,0.8718573,-1.550456325,-0.2847422275,-1.7265025375,1.6767757125,8.855147375
378,1778428590890,1.2014420499999998,-1.637077275,-0.1493456025,-2.532496425,1.4412177375,9.379788625
379,1778428590900,1.3456882,-1.6451265,0.0,-2.7334652,1.0649358,9.670552
380,1778428590910,1.64383065,-1.6512854625,0.11912280750000001,-2.6207639,0.46155238625,9.786765625
381,1778428590920,1.8654518,-1.625880025,0.16211311,-2.3674817375000003,0.022830415624999996,9.688877999999999
382,1778428590930,1.9643219,-1.532132,0.15229547,-1.9991504000000002,-0.23319094,9.406666
383,1778428590940,1.933878175,-1.421508225,0.08645702575,-1.744198025,-0.2147891675,9.212722
384,1778428590950,1.8576151444444444,-1.263654388888889,0.025590924666666667,-1.538096411111111,-0.1562241877777778,9.150449777777776
385,1778428590960,1.8591329,-1.1721416,0.029788323,-1.5000882,-0.20325942,9.354744
386,1778428590970,1.8591328999999999,-1.1721416,0.029788323,-1.5000882,-0.20325942,9.354744
387,1778428590980,2.272121975,-1.00254325,-0.13410843675,-1.642568275,0.05567300124999999,9.647187
388,1778428590990,2.6576855555555556,-0.7840091466666667,-0.27235668555555553,-2.144888277777778,0.7368429999999999,9.599693888888888
389,1778428591000,2.856813,-0.69650406,-0.24842913,-2.5288312,1.1278532,9.249067
390,1778428591010,2.983718325,-0.485340826,0.054119012499999994,-2.4692641125,0.97727926625,8.7025784375
391,1778428591020,3.1686165222222225,-0.09764458911111112,0.596776021111111,-1.8748090277777776,0.1803526433333333,7.223964733333332
392,1778428591030,3.2441223,0.08174257,0.78876555,-0.90939885,-0.65101045,6.1629906
393,1778428591040,3.38264035,0.331814315,0.7251528225,0.12462239375,-1.3278292250000001,4.973613675
394,1778428591050,3.336485511111111,0.5688543233333333,0.37320603555555554,1.3156547555555553,-1.7607842,3.0702540666666667
395,1778428591060,3.1037786,0.6106149,0.10177423,1.6354672,-1.7743586,1.839261
396,1778428591070,2.780005875,0.6089379874999999,-0.09404893,1.5985872625,-1.4435084999999999,1.121439175
397,1778428591080,2.4158117000000003,0.7160275666666666,-0.20905691333333334,1.2868769833333333,-0.8736303755555554,0.8373358555555556
398,1778428591090,2.2815967,0.8453847,-0.25135612,0.91222405,-0.26495498,1.1783243
399,1778428591100,2.556765111111111,1.062463811111111,-0.3140596522222222,0.5051367444444445,0.2484875822222222,1.5313940333333333
400,1778428591110,3.2597670874999998,1.1302679625,-0.47648359375,-0.1663031575,0.92940411875,1.5512466375
401,1778428591120,3.6580184,1.0730809,-0.55228835,-0.52212167,1.2787324,1.2809467
402,1778428591130,3.6580184,1.0730809,-0.55228835,-0.52212167,1.2787324,1.2809467
403,1778428591140,4.006754666666667,0.8982536188888888,-0.47874407666666663,-1.2525592677777777,2.1902012777777777,-0.5284422555555556
404,1778428591150,4.024076,0.69943106,-0.29870647,-1.8482711,2.9305396,-2.5455532
405,1778428591160,4.024076,0.69943106,-0.29870647,-1.8482711,2.9305396,-2.5455532
406,1778428591170,3.5089852875000003,0.457099855,0.08218466587500001,-1.3227134125,2.4408214624999998,-3.4656419
407,1778428591180,3.1589344,0.3065118,0.3143171,-0.69071555,1.7826813,-3.929733
408,1778428591190,3.153537733333333,0.29843205777777776,0.3100621111111111,-0.6236580933333333,1.723429122222222,-3.9376740000000003
409,1778428591200,3.114267,0.21476863,0.21379296,0.13087402,1.1382375,-4.0958834
410,1778428591210,3.1179564,0.17937022,0.16961356,0.3153499,1.2371948,-4.356715
411,1778428591220,3.1019390666666666,0.12166698888888888,0.14329765555555554,0.3217977433333334,1.5768258666666666,-4.573362322222222
412,1778428591230,3.0646037714285717,0.03532000228571429,0.12254199285714286,0.28733819285714285,2.044560342857143,-4.787449814285714
413,1778428591240,3.0435007,-0.025855167,0.12689765,0.2585411,2.3953612,-4.9357986
414,1778428591250,2.8912763444444445,-0.12375383188888889,0.19724051222222222,0.3699189133333334,2.8433413,-5.342699333333333
415,1778428591260,2.5988372444444447,-0.22295000555555555,0.33713688333333336,0.7112128466666667,2.9134021666666667,-5.615408488888889
416,1778428591270,2.4343798,-0.2582163,0.41292045,0.93421453,2.852275,-5.7409716
417,1778428591280,2.18810946,-0.315914774,0.458511515,1.590264503,2.50836789,-6.01102707
418,1778428591290,1.9777678,-0.37682077,0.45295325,2.183397,2.1632392,-6.263857
419,1778428591300,1.7253683555555557,-0.47296459222222226,0.36580726333333335,2.887110155555556,1.675918888888889,-6.563308
420,1778428591310,1.535303,-0.57302123,0.2745587,3.409444,1.3153832,-6.7977376
421,1778428591320,1.2801933444444444,-0.7406360311111111,0.18009179777777778,4.197844166666666,0.5835627233333334,-7.136146433333333
422,1778428591330,1.1764712,-0.8383009433333333,0.05800134666666666,4.488878988888889,0.08275283222222221,-7.1870505
423,1778428591340,1.1557992,-0.89053977,-0.03734974,4.6067047,-0.31870955,-7.1514177
424,1778428591350,1.2136797000000001,-1.0336197624999999,-0.20538928125,4.4664387125,-0.621384375,-7.239761812499999
425,1778428591360,1.2251285625000001,-1.10772465,-0.26359008,4.293492425,-0.71850909,-7.4065994625
426,1778428591370,1.1764744444444444,-1.2366811666666666,-0.32304730888888883,3.927781733333333,-0.68521791,-7.761128522222222
427,1778428591380,1.091809125,-1.287521775,-0.3248969875,3.6521030375000003,-0.64627638875,-7.955445725
428,1778428591390,0.9759613755555555,-1.314057077777778,-0.32239686666666667,3.3428531111111113,-0.5994957022222223,-8.043535111111112
429,1778428591400,0.9058378899999999,-1.34969005,-0.33562934250000004,2.98437065,-0.4232408,-8.07059025
430,1778428591410,0.82565034125,-1.364343975,-0.33367799875000004,2.8186784,-0.3113794,-8.088534
431,1778428591420,0.6952201388888889,-1.3364702444444445,-0.3358122711111111,2.475992966666667,-0.2807012933333333,-8.099326222222222
432,1778428591430,0.57485825,-1.339323625,-0.36710222249999996,2.1500296,-0.334820655,-8.077843999999999
433,1778428591440,0.40637533111111107,-1.3348407777777778,-0.39075113,1.8322278555555558,-0.4020562777777778,-8.019304777777776
434,1778428591450,0.07846495,-1.228288225,-0.391753035,1.401970775,-0.559536125,-7.79362825
435,1778428591460,-0.15619814,-1.1397007,-0.35898435,1.1064734,-0.6882722,-7.546636
436,1778428591470,-0.39668855,-1.0534989625,-0.228721408,0.85969114,-0.88557583,-7.191123
437,1778428591480,-0.6707742444444444,-0.9432426866666668,-0.044335245333333335,0.5878471344444445,-1.4019454111111112,-6.224016199999999
438,1778428591490,-0.8117851466666667,-0.8285340933333334,0.029280163666666668,0.5123141622222223,-1.5942265333333332,-5.5173251555555565
439,1778428591500,-0.8501410300000001,-0.768002085,0.015503954,0.27732464500000004,-1.458855975,-4.446357
440,1778428591510,-0.8344084,-0.76214814,-0.030276157,-0.052991,-1.1244171,-3.61026
441,1778428591520,-0.8486470322222223,-0.8488537088888889,-0.07629510222222222,-0.6734760888888889,-0.5228004355555556,-2.8062409555555554
442,1778428591530,-0.95715185,-0.8395306925,-0.02904133125,-1.3870814,0.10827268,-2.0225916
443,1778428591540,-1.1139598,-0.8437382625,0.119458195,-2.12133895,0.833272025,-1.0459995925
444,1778428591550,-1.3298134,-0.8472547166666666,0.3475304533333333,-2.3698753333333333,1.1795037,-0.3198718611111111
445,1778428591560,-1.475269,-0.84221375,0.49688876,-2.3095372,1.2640721,0.26694027
446,1778428591570,-1.6196032555555555,-0.8321488222222223,0.6246807611111111,-1.5202546444444445,0.7491956822222222,1.4605357633333333
447,1778428591580,-1.757198525,-0.8296596825,0.74262718625,-0.7792884,0.2189124,2.3816934
448,1778428591590,-1.6076513777777777,-0.9141217233333333,0.605045511111111,0.18572301333333333,-0.4822130055555556,3.5778087666666667
449,1778428591600,-1.2357632,-1.0194598866666666,0.29660266333333335,0.8543292533333333,-0.91347115,4.671225455555556
450,1778428591610,-0.9889676949999999,-1.0856198375000001,0.09877101375000001,1.1113602,-1.0260707,5.368202
451,1778428591620,-0.6511728255555556,-1.195618488888889,-0.15073034444444444,1.0249592833333334,-0.8599881077777778,6.630356555555555
452,1778428591630,-0.41731095,-1.2778184,-0.29846254,0.6739077025,-0.59656872,7.60040025
453,1778428591640,-0.1557026875,-1.3921010249999999,-0.37175188000000003,0.09193250624999999,-0.32947573625,8.72121925
454,1778428591650,0.28413581111111114,-1.5926708777777778,-0.43484922000000004,-0.4011739377777778,-0.15072656696666667,9.58170788888889
455,1778428591660,0.68845478,-1.739446025,-0.4284319875,-1.0329427249999998,0.0365744793125,10.649692625
456,1778428591670,1.0793956444444444,-1.806202922222222,-0.42633925222222224,-1.4193884444444445,0.032188254666666666,11.300233555555556
457,1778428591680,1.5184728,-1.8335215,-0.47710103,-1.8232263,-0.16355436,11.924044
458,1778428591690,1.8428057500000001,-1.8695526,-0.530827485,-2.0986038875,-0.318175075,11.994596875000001
459,1778428591700,2.707241388888889,-1.9272737999999998,-0.6174140433333334,-2.7100491666666664,-0.6671639644444444,11.842190111111112
460,1778428591710,2.9188593249999997,-1.8844773,-0.4924372625,-2.9723065,-0.8257128,11.392607
461,1778428591720,2.891959925,-1.747068375,-0.28627432,-2.9996418125,-0.8993962375,10.69449425
462,1778428591730,2.8590083,-1.6341501,-0.15814948,-2.8800685,-0.9417738,10.167171
463,1778428591740,2.691826175,-1.49325785,-0.11793371425,-2.6180913625,-1.0088905750000001,9.599235624999999
464,1778428591750,2.3796918,-1.2330089,0.006921136666666661,-2.221956866666667,-1.2449576666666669,9.294473333333334
465,1778428591760,2.459967333333333,-1.0865233888888888,0.16435580777777778,-1.880374488888889,-1.745037911111111,9.685008444444444
466,1778428591770,2.757973375,-1.10354,0.18422188375,-1.469851275,-2.3053376625,10.388907875000001
467,1778428591780,3.244854,-1.113571,0.20281671,-1.0871555,-2.276475,10.337597
468,1778428591790,3.244854,-1.113571,0.20281671,-1.0871555,-2.276475,10.337597
469,1778428591800,3.6580183125,-0.70857791125,0.287970305,-0.23517620125,-1.429458975,8.4385783125
470,1778428591810,3.523054588888889,-0.25709156333333333,0.2845321877777778,0.4356868233333333,-1.0647576777777779,6.7146537777777775
471,1778428591820,3.4974298,-0.22233005,0.28090054,0.54197425,-1.0395093,6.434207
472,1778428591830,2.5536212666666662,0.45894276111111115,0.027193322,2.208569172222222,-2.0187737555555554,3.5973559444444447
473,1778428591840,2.09923075,0.6251889375,-0.29152616249999996,2.924202075,-2.7368247500000003,2.525853375
474,1778428591850,1.9008154777777777,0.638096188888889,-0.5891875044444445,2.9933805,-2.8495262,2.2418094
475,1778428591860,1.80149615,0.6250859974999999,-0.880920325,2.3314512625,-2.2290293625,2.1642319
476,1778428591870,1.8411068333333336,0.5326936866666666,-1.0657465,1.2432778066666668,-1.1822439833333334,2.3012652666666664
477,1778428591880,1.9872806,0.34971553,-1.1409202,0.34283802,-0.28755635,2.459271
478,1778428591890,2.0890684000000004,0.35391969777777776,-0.9640670866666667,-0.8605989311111111,0.7636439277777778,2.733566888888889
479,1778428591900,2.155187,0.4375865,-0.79218036,-1.5153593,1.2665155,2.924813
480,1778428591910,2.155187,0.4375865,-0.79218036,-1.5153593,1.2665155,2.924813
481,1778428591920,3.1122141333333335,0.6474564644444444,-0.4731373733333333,-1.9599204777777777,1.4229601777777776,2.9514782333333334
482,1778428591930,3.696326342857143,0.6660275485714285,-0.43988629714285715,-2.0193956285714285,1.3650364,2.3472241142857144
483,1778428591940,4.1736884,0.7584894,-0.456612,-2.0162542,1.3477582,1.2131426
484,1778428591950,4.3958891,0.6614867999999999,-0.472344645,-2.1189337750000004,1.3949460999999999,0.13188572
485,1778428591960,4.3479022249999995,0.41455160375,-0.388665955,-2.2433269125,1.8678182374999999,-1.9579278
486,1778428591970,3.8966908,0.20720722,-0.19498089,-2.0877233,2.3739815,-3.198549
487,1778428591980,3.531147175,0.11851681875,-0.064245364125,-1.7250326375,2.2902190375,-3.618811925
488,1778428591990,3.1095412222222225,0.040730696222222224,0.02349730588888889,-1.2274465888888888,1.9091267555555556,-3.740031177777778
489,1778428592000,3.025451,0.024391668,0.022928167,-0.96376425,1.6098115,-3.6640146
490,1778428592010,3.025451,0.024391668,0.022928167,-0.96376425,1.6098115,-3.6640146
491,1778428592020,3.100285866666667,0.07814819044444445,0.03194630833333333,-0.7065975511111111,1.4278469555555555,-3.823309911111111
492,1778428592030,3.1951732285714285,0.10744964628571428,0.041984157,-0.6131379285714286,1.5029133,-4.162902157142858
493,1778428592040,3.2411952,0.074181154,0.050765157,-0.6461237,1.7044929,-4.4953775
494,1778428592050,3.1449260666666667,-0.016349192988888886,0.08779983533333333,-0.6671639555555555,2.1225161555555556,-5.067147555555555
495,1778428592060,2.8615426375,-0.0902910925,0.18386362375,-0.616803,2.4204059,-5.422109
496,1778428592070,2.6603687,-0.12811723,0.23891638,-0.38468108,2.67574,-5.7812877
497,1778428592080,2.2443115625,-0.1737029725,0.2968504075,0.058049575000000006,2.613128225,-6.006842875
498,1778428592090,1.9147763000000002,-0.20940247,0.3392271,0.6068004,2.3849769,-6.171619
499,1778428592100,1.7969035,-0.23696505,0.33264136,0.6068004,2.3849769,-6.171619
500,1778428592110,1.564817,-0.3523986,0.2550149,1.7613017499999999,1.5389534,-6.40343545
501,1778428592120,1.4388001222222222,-0.41846614,0.23205962111111111,1.9848719000000001,1.4021236,-6.5094175
502,1778428592130,1.2377094874999999,-0.51569701,0.19687506500000002,2.3686366625,1.1599989375000002,-6.702368825
503,1778428592140,1.07618325,-0.60529445,0.1599102525,2.72194495,0.8913788650000001,-6.8728716499999996
504,1778428592150,0.8625464875,-0.7397420625,0.0975018775,3.353551525,0.30319022,-7.1856254999999996
505,1778428592160,0.7846189,-0.816816,0.04198416,3.5542147,0.02275406,-7.299243
506,1778428592170,0.7846189,-0.816816,0.04198416,3.5542147,0.02275406,-7.299243
507,1778428592180,0.6994805875,-0.92402112875,-0.09014245000000001,3.59323265,-0.410107565,-7.323677
508,1778428592190,0.6601605,-1.0030463,-0.18083371,3.49313,-0.6815528,-7.264424999999999
509,1778428592200,0.6601605,-1.0030463,-0.18083371,3.49313,-0.6815528,-7.264425
510,1778428592210,0.6690808642857143,-1.0781334571428571,-0.25412196428571426,3.110172457142857,-0.5638338242857143,-7.107262542857143
511,1778428592220,0.6589409,-1.1536039,-0.33264136,2.3110642,-0.12384928,-6.8466053
512,1778428592230,0.6589409,-1.1536039,-0.33264136,2.3110642,-0.12384928,-6.8466053
513,1778428592240,0.473023035,-1.126826425,-0.3192793,1.5399459625,0.49393679,-6.460473475000001
514,1778428592250,0.3773560177777778,-1.0847042333333332,-0.2771841788888889,1.1845940444444443,0.7204858444444445,-6.197478077777778
515,1778428592260,0.24244173,-1.0247740374999998,-0.21315266875,0.9452097899999999,0.766995125,-5.830002525
516,1778428592270,0.1859712175,-0.9908809999999999,-0.21537841500000002,0.81876437,0.719043625,-5.5853582500000005
517,1778428592280,0.12526814777777778,-0.957535571111111,-0.21726201222222224,0.727816,0.6866856666666666,-5.430661
518,1778428592290,0.03222749,-0.92932254,-0.21184163,0.6788804,0.6776587,-5.375074
519,1778428592300,-0.18841545999999998,-0.9049206666666666,-0.18091503666666667,0.6733148555555556,0.6135876044444444,-5.3335365
520,1778428592310,-0.46180284499999996,-0.8532967075,-0.1279495425,0.70865918125,0.369323973125,-5.2322790375
521,1778428592320,-0.7725907999999999,-0.7120536975,-0.0480134715,0.8125795537499999,-0.07826480312499999,-4.964050225
522,1778428592330,-1.0794939222222222,-0.5160971599999999,0.02656659088888889,0.94887483,-0.7640172,-4.486215
523,1778428592340,-1.198515,-0.44075742,0.04613074,1.0380585,-1.3608149,-3.7531984
524,1778428592350,-1.2104669375000001,-0.42053521375,0.013964227749999999,0.9730796775,-1.7057145875000002,-2.8008015
525,1778428592360,-1.1463778666666666,-0.33873927666666664,-0.017643304999999998,0.7409662088888889,-1.5963983666666666,-1.7971889555555558
526,1778428592370,-1.0795066,-0.30571142500000004,-0.027810310375,0.3840702095,-1.02576525,-0.84411459
527,1778428592380,-0.9838548666666667,-0.23420066555555558,-0.024388279333333332,-0.08597674799999999,-0.025273799999999975,0.021125139999999987
528,1778428592390,-0.9943606125,-0.21040862000000002,0.016136612,-0.391324015,0.8113578750000001,0.600081075
529,1778428592400,-1.0715487625,-0.22973901875,0.126146841875,-0.5242596500000001,1.3706648875,1.1725213125
530,1778428592410,-1.1289953888888888,-0.2333605066666667,0.19233168222222222,-0.4783442977777778,1.5099720333333333,1.8715680888888886
531,1778428592420,-1.142010225,-0.2719823425,0.21202457000000002,-0.3938437675,1.4087665125000002,2.37712155
532,1778428592430,-1.05991704,-0.356099275,0.199481915,-0.223875528,1.09517282,3.2900234125
533,1778428592440,-0.87479698,-0.4597253333333333,0.14417846555555555,-0.041792135111111114,0.4626064977777778,4.899987566666667
534,1778428592450,-0.635623965,-0.56563513,0.07968452399999999,0.0067193197,0.10964708575,5.987372049999999
535,1778428592460,-0.286583026625,-0.69400768625,0.012348280625,-0.0029015243000000005,-0.062917267375,6.8946330875
536,1778428592470,0.08095746525,-0.8004659,-0.03806624525,-0.08261708749999999,-0.0271827,7.790765025
537,1778428592480,0.6467992522222222,-0.9717639999999999,-0.15988060222222222,-0.2922395,0.24757130666666663,8.705413
538,1778428592490,0.93154445125,-1.0614414374999999,-0.2451743675,-0.5111264375,0.52341975,9.076274125
539,1778428592500,1.2979720888888888,-1.165779411111111,-0.37687836,-1.0415454666666666,0.9751413000000001,9.217303666666666
540,1778428592510,1.587146675,-1.2394320125,-0.462648945,-1.5774366625,1.1857309,9.101165875
541,1778428592520,1.617228475,-1.2375036000000001,-0.41140359000000004,-1.9118182750000001,1.06539396,9.054054
542,1778428592530,1.5848485,-1.1846118,-0.2713878,-2.2472308,0.68376714,9.145224
543,1778428592540,1.6046973500000001,-1.1773552500000002,-0.11828053625,-2.3519909625,0.13103628125,9.470728375
544,1778428592550,1.9087766444444445,-1.2499035444444442,-0.037759657777777775,-2.2515745222222225,-0.4837740611111111,9.744261111111111
545,1778428592560,2.22320145,-1.214628825,-0.16869125000000001,-2.1543818874999996,-0.601531835,9.52265075
546,1778428592570,2.3269956,-1.1289684,-0.29919428,-2.275177125,-0.33451523125,8.9399025
547,1778428592580,2.2061958,-1.0179253,-0.3094388,-2.641838,0.06795676,8.216736
548,1778428592590,2.2061958,-1.0179253,-0.3094388,-2.641838,0.06795676,8.216736
549,1778428592600,1.87201855,-0.8713427425,0.47243992375,-1.8355673124999998,-0.56197948875,7.178142537499999
550,1778428592610,1.7517791,-0.8036444,0.73312205,-1.0419527,-1.0957073,6.9222736
551,1778428592620,1.7517791,-0.8036444,0.73312205,-1.0419527,-1.0957073,6.9222736
552,1778428592630,1.7154964625,-0.6717579275,0.39220275125,1.6693596625,-2.5328686625,7.1027792875
553,1778428592640,1.9801969666666668,-0.60750492,-0.03474795666666667,2.585131,-2.555275866666667,7.152359633333333
554,1778428592650,2.2769623,-0.53933024,-0.38682133,2.7142234,-2.1182656,7.0041275
555,1778428592660,2.4041989875,-0.33421538624999997,-0.7528792825,2.175532425,-1.085017445,6.33776935
556,1778428592670,2.2881785125,-0.108843999875,-0.889754635,0.9447993875,0.3468371625,5.4077259375
557,1778428592680,2.1612847,-0.006341833,-0.82706046,0.3281777,0.8615237,5.065222
558,1778428592690,2.1189573875,0.012672232500000002,-0.513558925,-0.36940986499999995,0.9470422749999999,4.7810253
559,1778428592700,2.2583481874999998,-0.03412927725,-0.2568213975,-0.71774551,0.48674981250000005,4.547223424999999
560,1778428592710,2.377029,-0.054423906,-0.18863906,-0.66322744,0.13392825,4.4024525
561,1778428592720,2.377029,-0.054423906,-0.18863906,-0.66322744,0.13392825,4.4024525
562,1778428592730,2.660954711111111,0.006125018655555558,-0.21014776000000002,-0.4247933755555555,0.06354507777777778,4.050808177777778
563,1778428592740,2.884992066666667,0.2150836911111111,-0.25727788888888886,-0.15873544444444446,0.18539214777777777,3.5478772777777774
564,1778428592750,3.0152063,0.33410487,-0.3155672,-0.15683503,0.3868954,3.3469086
565,1778428592760,3.4353087444444443,0.40661248111111115,-0.4552332166666667,-0.3365598788888889,0.9171108000000001,2.773373911111111
566,1778428592770,3.7616828888888896,0.44688244444444447,-0.5604697166666667,-0.6192464066666666,1.4290008666666667,1.8930156666666669
567,1778428592780,3.9074229999999996,0.4344156,-0.6006143,-0.79150534,1.6916652,1.2772816
568,1778428592790,4.01049305,0.23947279999999999,-0.583997505,-1.037982225,1.865451225,-0.24685866049999997
569,1778428592800,3.8156800000000004,0.062727239,-0.5394318866666666,-1.1500726666666665,1.7755548333333333,-1.4587796666666666
570,1778428592810,3.598472,-0.017318083,-0.49713266,-1.192832,1.6708963,-2.05741
571,1778428592820,3.1754329125,-0.09658719,-0.41050797499999997,-1.2629267,1.4190745,-2.59808615
572,1778428592830,2.7904372,-0.06540016,-0.3492277,-1.3485216,1.2657519375,-2.72743305
573,1778428592840,2.5805469,-0.011951917,-0.27968094,-1.4506096,1.260407,-2.6707768
574,1778428592850,2.5154718,0.03239348922222222,-0.13249757488888889,-1.5104725666666665,1.3213559888888888,-2.629307288888889
575,1778428592860,2.5551643,0.061741407,-0.008293167,-1.388914,1.3978476,-2.78897585
576,1778428592870,2.588596,0.06393666,0.036374073,-1.2917893,1.4509913,-2.9236677
577,1778428592880,2.56846145,0.059481369000000006,0.044274686375,-1.2162733000000001,1.477792225,-3.0385833375000004
578,1778428592890,2.3492795625,0.0301351425,0.10909172875,-0.5834354875,1.6383687,-3.9456151875
579,1778428592900,2.2188795,0.03320316,0.12494630999999999,-0.4097258,1.5933187,-4.1166525
580,1778428592910,2.107950825,0.047655219750000005,0.1500316125,-0.2567085575,1.485198775,-4.213318875000001
581,1778428592920,1.9196852,0.070522405,0.21940304,0.17241164,1.1437352,-4.4086375
582,1778428592930,1.837035675,0.07351039,0.24394716625,0.48829601125000005,0.9983534775,-4.56524325
583,1778428592940,1.786487725,0.078510679375,0.23434293875,0.7591017750000001,0.932534685,-4.71818425
584,1778428592950,1.6714761777777776,0.09017125555555555,0.16205552666666667,1.1742775,0.93543625,-4.9773364
585,1778428592960,1.5767155375,0.098542335,0.03589767375,1.2988904,1.1254097,-5.106836
586,1778428592970,1.5097188666666665,0.05185262088888889,-0.13174211777777778,1.2473077333333333,1.5462156555555557,-5.233959822222222
587,1778428592980,1.48673315,-0.0070049822500000015,-0.19360123,1.1295329,1.87323945,-5.3364381
588,1778428592990,1.481367,-0.024635585,-0.20793895,1.0924239,1.9647138,-5.3653007
589,1778428593000,1.385698175,-0.24246461687499998,-0.076174412375,1.1373212875,2.1154403375,-5.715392574999999
590,1778428593010,1.3183593333333332,-0.4196823388888889,0.043776264777777775,1.5243608555555557,1.7458947666666667,-6.042526622222223
591,1778428593020,1.24402075,-0.5760702,0.07980648500000001,1.9402800249999999,1.3003411,-6.306768975000001
592,1778428593030,1.1995111333333335,-0.6632602555555556,0.06133487888888889,2.4933004666666663,0.66584898,-6.588013
593,1778428593040,1.1645802,-0.7348295,0.04027674,2.7099476,0.41988114,-6.695115
594,1778428593050,1.1393957666666668,-0.8333006544444445,-0.016593109655555556,2.9510964555555557,0.09795614822222223,-6.8584146666666665
595,1778428593060,1.096428275,-0.89411466,-0.073396051,3.0278935750000002,-0.05818320225,-6.9988591
596,1778428593070,1.04270951875,-0.92130369625,-0.11345173474999999,3.0031543,-0.13606623,-7.0781164
597,1778428593080,0.9691012899999999,-0.9543748066666667,-0.13283294666666665,2.806665,-0.18147254333333335,-7.134517966666667
598,1778428593090,0.903581695,-0.98606365,-0.1237267225,2.636187725,-0.1916533225,-7.168216225
599,1778428593100,0.81134309,-0.98429524,-0.0998228975,2.49050055,-0.24739314,-7.1909702499999995
600,1778428593110,0.7087439166666667,-0.9798980022222222,-0.10193684444444445,2.3485974444444446,-0.37545049444444445,-7.1587484111111115
601,1778428593120,0.6225668,-0.9869174,-0.12982465,2.1699586,-0.50196373,-7.0805597
602,1778428593130,0.3715156,-0.9081830666666667,-0.12886931333333335,1.7716861,-0.6292236,-6.764955
603,1778428593140,0.14983344625,-0.7821721875,-0.07627732000000001,1.4288481000000002,-0.703085175,-6.3002020000000005
604,1778428593150,-6.859999999999852e-05,-0.7049420475,-0.0111134505,1.113192775,-0.7383616325,-5.740360900000001
605,1778428593160,-0.104041893125,-0.6584454225,0.06037318825,0.867097695,-0.73637635125,-5.271602425
606,1778428593170,-0.26814235333333336,-0.5701958977777778,0.15254616444444447,0.64528376,-0.6839962,-4.8380632
607,1778428593180,-0.41448683750000004,-0.42742205125,0.32217580125,0.497229675,-0.58870403,-4.1143618
608,1778428593190,-0.44151964250000003,-0.41075566500000005,0.41829040375000004,0.5336610125000001,-0.52716116625,-3.5769688625000002
609,1778428593200,-0.49337567555555556,-0.40348224111111114,0.48219617555555555,0.7273409444444445,-0.3960156633333333,-3.0250597555555556
610,1778428593210,-0.597786425,-0.34178825125,0.47981455875,1.0702807625,-0.08428737125,-2.3926887875
611,1778428593220,-0.69089395,-0.34434935,0.44587967,1.3385954,0.20119782,-1.9346297
612,1778428593230,-0.79803437,-0.37843671333333334,0.3693304866666667,1.5824591888888888,0.4253787622222222,-1.506086348888889
613,1778428593240,-0.927988625,-0.42518487000000005,0.2639940475,2.00197555,0.6962895499999999,-0.6393280100000001
614,1778428593250,-0.9971957222222222,-0.4553957888888889,0.1796310693333333,2.1802072,0.6066646844444444,0.09631874000000001
615,1778428593260,-1.07411755,-0.5166459999999999,-0.0169674545,2.2213461375000003,0.29319713249999996,1.06317966875
616,1778428593270,-1.0574838622222222,-0.5243700644444443,-0.1320266788888889,2.0598024777777777,-0.08509441666666667,2.1277252
617,1778428593280,-0.97031952125,-0.5277785024999999,-0.19101724750000001,1.704187525,-0.5062396625000001,3.45823535
618,1778428593290,-0.7440170066666666,-0.5829506933333334,-0.19270433333333334,1.4220100777777778,-0.7512573000000001,4.411275666666667
619,1778428593300,-0.5245809499999999,-0.665762925,-0.17747986,1.1263260375,-0.85762955,5.394945625
620,1778428593310,-0.17552094000000001,-0.802249525,-0.15949101249999997,0.84777965,-0.75248744625,6.3324243125
621,1778428593320,0.10833626444444446,-0.9066213044444444,-0.16367825888888887,0.5740012877777778,-0.31210901888888887,7.115505333333333
622,1778428593330,0.4272772025,-1.02169824375,-0.20679179,0.22341739,0.37452572,7.77944525
623,1778428593340,0.6505291355555555,-1.1098648111111111,-0.24930315888888888,-0.07620319555555556,0.9066585000000001,8.151103222222222
624,1778428593350,0.78169197,-1.1557992,-0.26943645,-0.424615215,1.3587532875000001,8.427783
625,1778428593360,1.0398282375,-1.197295475,-0.29288295125,-0.98354045,1.81146755,8.672350875
626,1778428593370,1.1960251,-1.2043420111111112,-0.29642989666666664,-1.5427795555555557,1.9535828,8.715798
627,1778428593380,1.2265883249999998,-1.202356775,-0.2845516775,-1.9139561999999999,1.8955354500000001,8.685866875
628,1778428593390,1.2082716,-1.1911976,-0.2508683,-2.2906008,1.7613018,8.6730385
629,1778428593400,1.2082716,-1.1911976,-0.2508683,-2.2906008,1.7613018,8.6730385
630,1778428593410,1.160692675,-1.164465825,-0.1410524375,-2.711016475,1.333861375,8.752753875
631,1778428593420,1.2266671,-1.1732087,-0.05800135133333333,-2.8726026111111107,0.9927880066666668,8.790863444444444
632,1778428593430,1.3530514500000002,-1.171310775,-0.0142843705,-2.796687875,0.9742250299999999,8.71289575
633,1778428593440,1.4432853,-1.121163,0.03442274,-2.665661,1.0356152,8.559421
634,1778428593450,1.5406387000000001,-1.0084125375,0.17494922499999999,-2.2517261,0.9771266000000001,8.3542529375
635,1778428593460,1.6743965,-0.9351765,0.26553378,-1.6173708,0.7448519,8.1489315
636,1778428593470,1.7995867,-0.8585562,0.2657777,-1.0639433,0.37773266,7.997976
637,1778428593480,1.7995867,-0.8585562,0.2657777,-1.0639433,0.37773266,7.997976
638,1778428593490,2.066957475,-0.587370425,-0.0891248725,0.07719581625000001,-0.5929704299999999,7.398811
639,1778428593500,2.2420751777777777,-0.33341713333333334,-0.4258852888888889,0.22983128311111115,-0.8946706611111112,6.771666022222222
640,1778428593510,2.3159354000000003,-0.22336287000000002,-0.513993425,-0.11667182649999999,-0.852590075,6.3583092375
641,1778428593520,2.5030762888888893,-0.15541218777777777,-0.48047518888888885,-0.5893827733333333,-0.6248118777777778,6.0507307444444445
642,1778428593530,2.6129992125,-0.16922481625,-0.4387984425,-1.1877925249999999,-0.16553961,5.590302299999999
643,1778428593540,2.792683277777778,-0.29747332222222217,-0.29315395555555557,-1.5733898333333334,0.29155230666666665,5.168047666666667
644,1778428593550,2.8643211,-0.2740098825,-0.1844467415,-1.7603091,0.5869478749999999,4.892810000000001
645,1778428593560,2.9934776000000003,-0.062147933333333336,-0.06760557166666667,-1.7960096444444444,0.7359607,4.650592255555556
646,1778428593570,3.1959868,0.0665054075,-0.016952208125,-1.639514,0.79005455,4.126349425
647,1778428593580,3.544536133333333,0.11373631666666666,-0.0025204723333333333,-1.3840272,0.7593085666666667,3.3165697666666665
648,1778428593590,3.808255875,0.15778360624999999,-0.006833478125,-1.2386456,0.7088119,2.8258557
649,1778428593600,4.010905,0.1586373,-0.039301075,-1.1091459,0.5066214,1.8111621
650,1778428593610,4.0848417,0.17424797,-0.025367333,-1.0553913,0.3679591,0.5778615
651,1778428593620,4.0364967,0.113840485,-0.015458218624999999,-1.00889065,0.5186856900000001,-0.510964175
652,1778428593630,4.0074897,0.077595994,-0.00951275,-1.0022477,0.54021806,-0.6665107
653,1778428593640,4.0074897,0.077595994,-0.00951275,-1.0022477,0.54021806,-0.6665107
654,1778428593650,4.0074897,0.077595994,-0.00951275,-1.0022477,0.54021806,-0.6665107
655,1778428593660,3.9778386125,0.05694311225,-0.0052137187500000005,-0.9878927875000001,0.5998520275000001,-0.79578125
656,1778428593670,2.91946925,-0.3641904625,0.05643622125,0.026495499812499997,1.2267339675,-3.0989044875
657,1778428593680,2.9024558,-0.33215353,0.07710816,0.23227467,0.65750074,-3.1924405
658,1778428593690,2.9024558,-0.33215353,0.07710816,0.23227467,0.65750074,-3.1924405
659,1778428593700,2.9024558,-0.33215353,0.07710816,0.23227467,0.65750074,-3.1924405
660,1778428593710,2.9024558,-0.33215353,0.07710816,0.23227467,0.65750074,-3.1924405
661,1778428593720,2.9024558,-0.33215353,0.07710816,0.23227467,0.65750074,-3.1924405
662,1778428593730,2.73986265,-0.373028625,0.05180180425,0.9176261925,0.50707959,-4.304564325
663,1778428593740,2.48820545,-0.37961817999999997,0.04314276474999999,1.19015955,0.657195285,-4.9076995750000005
664,1778428593750,2.268425,-0.35044727,0.06564408,1.2506334,0.78089184,-5.0854564
665,1778428593760,2.268425,-0.35044727,0.06564408,1.2506334,0.78089184,-5.0854564
666,1778428593770,2.268425,-0.35044727,0.06564408,1.2506334,0.78089184,-5.0854564
667,1778428593780,2.268425,-0.35044727,0.06564408,1.2506334,0.78089184,-5.0854564
668,1778428593790,2.268425,-0.35044727,0.06564408,1.2506334,0.78089184,-5.0854564
669,1778428593800,1.881352125,-0.29325262375,0.028553496799999998,1.461757475,0.9978953475,-5.298393575
670,1778428593810,1.52827515,-0.4038421725,-0.03043622825,1.687694625,1.18252395,-5.9029987
671,1778428593820,1.4420658,-0.45709983,-0.038325407,1.7509173,1.1852727,-6.092209
672,1778428593830,1.4420658,-0.45709983,-0.038325407,1.7509173,1.1852727,-6.092209
673,1778428593840,1.4420658,-0.45709983,-0.038325407,1.7509173,1.1852727,-6.092209
674,1778428593850,1.4420658,-0.45709983,-0.038325407,1.7509173,1.1852727,-6.092209
675,1778428593860,1.4420658,-0.45709983,-0.038325407,1.7509173,1.1852727,-6.092209
676,1778428593870,1.132013475,-0.77500711125,-0.036610369375,1.7921494875,1.12479885,-6.2757685
677,1778428593880,1.01298595,-0.986132245,0.020984456749999998,1.9584526750000002,1.1218209625,-6.3547965875
678,1778428593890,1.009876,-1.0576837,0.048082076,2.175456,1.0582166,-6.4397807
679,1778428593900,1.009876,-1.0576837,0.048082076,2.175456,1.0582166,-6.4397807
680,1778428593910,1.009876,-1.0576837,0.048082076,2.175456,1.0582166,-6.4397807
681,1778428593920,1.009876,-1.0576837,0.048082076,2.175456,1.0582166,-6.4397807
682,1778428593930,0.9671944,-1.0848346624999998,0.033927286,2.3206086125,0.95421983375,-6.553780075
683,1778428593940,0.4990467511111112,-1.2048772555555556,-0.08088208711111111,3.074012433333333,0.27530545444444443,-7.178566555555556
684,1778428593950,0.33386096,-1.1709219,-0.09201756,3.1082199,0.09605573,-7.146531
685,1778428593960,0.10359599,-1.104622375,-0.1171486075,3.094628525,-0.25212720250000004,-6.980228175000001
686,1778428593970,-0.13654761,-1.02865379375,-0.15662499,3.0411031250000002,-0.6442147925,-6.734972812500001
687,1778428593980,-0.37304345555555557,-0.9562516388888889,-0.18327287999999997,2.9403728444444446,-1.0469073755555556,-6.343742177777778
688,1778428593990,-0.54964717875,-0.8617804625,-0.1896756925,2.8046289250000003,-1.469087625,-5.803278025
689,1778428594000,-0.7181326075,-0.7063750875,-0.20169240000000002,2.6525278,-1.8690399,-5.248018
690,1778428594010,-0.8731454475,-0.57204555,-0.22586683500000002,2.2878519749999997,-2.245474575,-4.504082175
691,1778428594020,-0.9524370266666666,-0.40922780666666664,-0.22001961888888888,1.7417546444444445,-2.4748137444444445,-3.6178616
692,1778428594030,-0.8642348475,-0.35472344499999997,-0.153995265,1.2561310749999999,-2.4888875625,-2.90227845
693,1778428594040,-0.7295166375000001,-0.389138565,-0.094327145,0.76553479125,-2.315340125,-2.2239421125
694,1778428594050,-0.69382095,-0.37486944,-0.06027791,0.38437563,-1.9502826000000002,-1.7861936999999999
695,1778428594060,-0.76279224375,-0.28880495,0.014150977499999998,0.048256932249999995,-1.2601015624999998,-1.3306543875
696,1778428594070,-0.85273655875,-0.2666923925,0.10500993875,-0.21623993125000002,-0.263494695,-0.7003363675
697,1778428594080,-0.96619966125,-0.29166335,0.14726088874999999,-0.24433889625,0.4441622975,-0.15949795375
698,1778428594090,-1.150471025,-0.30190785124999997,0.134641998125,-0.22509721375,1.00980685,0.50242189375
699,1778428594100,-1.2461364222222224,-0.3152182388888889,0.080980335,-0.2414034466666667,1.4341590666666668,1.3858767444444444
700,1778428594110,-1.2505569875,-0.37963341875,0.042010833625,-0.29824617000000003,1.6006488749999999,2.349184975
701,1778428594120,-1.184876,-0.4848656611111111,-0.023422775777777776,-0.39092527777777775,1.5687490777777777,3.219445077777778
702,1778428594130,-1.046173875,-0.5823052875,-0.068700655,-0.556787275,1.3775369375000002,4.2013406
703,1778428594140,-0.7855145874999999,-0.7098051325,-0.106987943,-0.9233719874999999,0.8450308062499999,5.8612321125
704,1778428594150,-0.5305493,-0.80803496,-0.105920814,-1.1622896,0.44736925,6.801937
705,1778428594160,-0.045635288749999996,-0.9988921774999999,-0.096773938,-1.47443255,-0.024195279,7.9292078749999995
706,1778428594170,0.30688784,-1.138243988888889,-0.10047334333333333,-1.648524,-0.23746687,8.52277
707,1778428594180,0.7556996,-1.3127824000000001,-0.110433265,-1.8494928,-0.11407572625,9.10612975
708,1778428594190,1.1095617500000001,-1.42054015,-0.10207912,-1.95761275,0.152721360625,9.317101000000001
709,1778428594200,1.3918088222222222,-1.4637270333333334,-0.08749155222222223,-2.0478145333333333,0.69150455,9.288568666666668
710,1778428594210,1.534091,-1.493867675,-0.08707063000000001,-2.0781023999999997,0.93177114375,9.144154875
711,1778428594220,1.5765554,-1.4977094,-0.07954732,-2.104827,1.1028084,8.914323
712,1778428594230,1.568266,-1.444470725,-0.060216925,-2.1403992625,0.9838458550000001,8.643564375
713,1778428594240,1.6077768,-1.3759339,-0.04783816,-2.1800375,0.55060244,8.375556
714,1778428594250,1.7317511875,-1.2670518625,-0.08506975,-2.136734175,-0.29663315,7.8682569375
715,1778428594260,1.773906975,-1.188804125,-0.07261094850000001,-2.0154905,-1.090362325,7.285116875
716,1778428594270,1.700526,-1.0879598,-0.016586334,-1.8794242999999997,-1.3931899,7.028561
717,1778428594280,1.6447997714285714,-0.9783192885714286,0.07631978457142859,-1.6254863714285714,-1.5066329714285713,7.087028142857142
718,1778428594290,1.614233711111111,-0.8658940488888889,0.12166021111111111,-0.9757097522222222,-1.3551138,7.323804044444444
719,1778428594300,1.654890725,-0.79525604875,0.061947210625,-0.49303007375,-0.8918370250000001,7.5025787500000005
720,1778428594310,1.7454373,-0.7604407,-0.078327745,-0.2081462,-0.396898,7.647960000000001
721,1778428594320,1.9294419,-0.7089438,-0.26211897,-0.1525591,0.08933641,7.5551114
722,1778428594330,2.0552486111111112,-0.6169194488888888,-0.27983679222222224,-0.2300688288888889,-0.0009332400000000018,7.260411822222222
723,1778428594340,2.2357097,-0.49615702,-0.24013597,-0.2777828,-0.34070006,7.00596
724,1778428594350,2.4619729666666665,-0.35899453555555555,-0.26218332,-0.32766864777777777,-1.104462788888889,6.368778366666667
725,1778428594360,2.7314016625,-0.22237959000000002,-0.3587213875,-0.42194274,-1.4330477,5.824256675
726,1778428594370,2.827764125,-0.1683863515,-0.41494036,-0.6464290899999999,-1.2377291750000001,5.2173227
727,1778428594380,2.8488209749999998,-0.09487215525,-0.4128175025,-0.917416215,-0.6744421375,4.7320810875
728,1778428594390,2.7758024,0.06100966,-0.28382754,-1.2172658,0.2732778,4.3627477
729,1778428594400,2.9197817125,0.131360560625,-0.15469271125,-1.305151575,0.8513683625,4.295096
730,1778428594410,3.1742058625,0.14509611749999998,-0.10531102249999999,-1.3238587000000002,1.15167615,4.1539903250000005
731,1778428594420,3.634838675,0.1579512925,-0.14050363,-1.3689087,1.035462415,3.73769805
732,1778428594430,3.9754184777777777,0.2424260722222222,-0.1681229588888889,-1.484749088888889,0.93502898,2.8684622555555555
733,1778428594440,4.142437,0.35800868,-0.15522248,-1.6192033,0.976363,1.7390821
734,1778428594450,4.23170275,0.34776419750000004,-0.1490330975,-1.7143428375,1.1244171125,0.8261708875
735,1778428594460,3.987075666666667,0.16147960933333336,-0.07113897555555555,-1.7947201555555554,1.6375034333333334,-0.7757760222222223
736,1778428594470,3.6182371499999997,0.05082232625,0.0273872675,-1.7042638749999999,1.8440716000000001,-1.3024027
737,1778428594480,3.2084900666666667,-0.04530752266666667,0.13398139,-1.2897531333333334,2.2206588666666667,-2.3925614
738,1778428594490,3.0381346,-0.1086039,0.17888239,-1.0535588,2.1033762,-2.516767
739,1778428594500,2.8491831000000003,-0.11554790150000001,0.29767744500000004,-0.48531813124999995,1.6005725499999999,-2.60030055
740,1778428594510,2.81275555,-0.0725652085,0.3150755425,-0.06482616375,1.2234506425,-2.717659425
741,1778428594520,2.8392271555555557,-0.05575189933333333,0.2836852711111111,0.2869794311111111,0.973987488888889,-2.951902377777778
742,1778428594530,2.8956644249999997,-0.0574728645,0.2189076025,0.47654676875,0.96177899,-3.1987016500000003
743,1778428594540,2.9199570875,-0.07080062375,0.19019402125,0.5920637062499999,1.0944855125000001,-3.4987803875
744,1778428594550,2.8839046333333336,-0.11281145444444445,0.1738685388888889,0.6761655111111112,1.3265142,-3.8768609555555553
745,1778428594560,2.7950716,-0.15741771,0.17424797,0.7479061,1.5194062,-4.1600227
746,1778428594570,2.53008675,-0.2089146275,0.242521775,1.0423345,1.70647815,-4.58654655
747,1778428594580,2.2686722444444443,-0.22075814222222223,0.28759471111111107,1.2873521555555554,1.673679077777778,-4.740870444444444
748,1778428594590,2.1012506,-0.21354906,0.29480377,1.576215,1.5542245,-4.85761
749,1778428594600,1.9205727444444445,-0.20130917888888888,0.28331258666666664,1.8863217777777779,1.3848162,-4.961589822222223
750,1778428594610,1.7051605,-0.18741947,0.2689486,2.2670832,1.1596172,-5.077515
751,1778428594620,1.5782424555555556,-0.22148651,0.21493463555555556,2.4827801111111114,0.9961815888888889,-5.122649988888889
752,1778428594630,1.526967875,-0.24615385625,0.19371939125,2.6364930625,0.89244784,-5.1701635625
753,1778428594640,1.343172875,-0.39664661749999996,0.11707238375000001,3.0667014249999998,0.5295282075000001,-5.46838105
754,1778428594650,1.2544025,-0.44661143000000003,0.084669575,3.3104868,0.25739577,-5.7220354
755,1778428594660,1.2544025,-0.44661143,0.084669575,3.3104868,0.25739577,-5.7220354
756,1778428594670,1.1341134425000001,-0.49999869374999995,0.02238316625,3.3970743625,0.04746474875000002,-5.8600105625
757,1778428594680,0.94054264,-0.6172006,-0.11323831,3.5346677,-0.3284831,-6.1056476
758,1778428594690,0.9405426399999999,-0.6172006,-0.11323831,3.5346677,-0.3284831,-6.1056476
759,1778428594700,0.94054264,-0.6172006,-0.11323831,3.5346677,-0.3284831,-6.1056476
760,1778428594710,0.8773140533333333,-0.7334438255555555,-0.12706364222222222,3.401409711111111,-0.4548606144444444,-6.162524233333333
761,1778428594720,0.7938878,-0.86880064,-0.13055639,3.2261136,-0.65467554,-6.2107134
762,1778428594730,0.8021809555555556,-0.8910377466666666,-0.13300233666666667,3.1609564555555556,-0.7261446766666667,-6.192591544444444
763,1778428594740,0.8236456,-0.94078666,-0.14449014,2.9670463666666667,-0.8522507333333333,-6.200872
764,1778428594750,0.8131572,-1.0149982,-0.13080032,2.7856925,-0.8495358,-6.459328
765,1778428594760,0.8131572,-1.0149982,-0.13080032,2.7856925,-0.8495358,-6.459328
766,1778428594770,0.61045483,-1.020181475,-0.13201990125000002,2.5788444375,-1.0422581,-6.671292
767,1778428594780,0.43417168,-1.0193888,-0.12982465,2.303734,-1.2624686,-6.84294
768,1778428594790,0.43417168,-1.0193888,-0.12982465,2.303734,-1.2624686,-6.84294
769,1778428594800,0.1946522827777778,-0.9994790911111111,-0.09156699711111112,2.1523796444444443,-1.4644554111111112,-6.757421466666667
770,1778428594810,-0.13372731,-0.96423316,-0.037837572,1.9909803,-1.7389294,-6.5533986
771,1778428594820,-0.13372731,-0.9642331599999999,-0.037837572,1.9909803,-1.7389294,-6.5533986
772,1778428594830,-0.642568,-0.69357705,0.017318083,1.9549403,-2.1616356,-5.384237
773,1778428594840,-0.7686186666666667,-0.57470833,0.0030083054888888888,1.854218311111111,-2.2557061888888885,-4.741362444444444
774,1778428594850,-0.8015372500000001,-0.5022515266666666,-0.01117273821111111,1.7048322111111112,-2.2596427777777777,-4.230202
775,1778428594860,-0.7825913725,-0.25135611,-0.05417999025,0.969643625,-1.9440213249999998,-2.3689991999999997
776,1778428594870,-0.6495805933333334,-0.20921950666666667,-0.029127715533333334,0.55912885,-1.3587788333333333,-1.5616056
777,1778428594880,-0.6006143,-0.1381178,0.0019513334,0.35749835,-0.9332219,-1.2077214
778,1778428594890,-0.5830294300000001,-0.136296057,0.01323247935,0.09063446250000001,-0.108797622,-0.71896724125
779,1778428594900,-0.6126373800000001,-0.20287768666666667,-0.01708433,-0.15602057333333333,0.7515711733333333,-0.2659985386666667
780,1778428594910,-0.7017292025,-0.238981165,-0.0574156975,-0.2785463625,1.1446513375,-0.01747596149999999
781,1778428594920,-0.8975219,-0.28099199,-0.09722112,-0.5086830666666667,1.338799,0.5302154133333333
782,1778428594930,-0.9939909,-0.31971377,-0.11104306,-0.6503996,1.2695696,0.92848784
783,1778428594940,-1.001857211111111,-0.3302597755555555,-0.11199162444444445,-0.6503996,1.2695696,0.92848784
784,1778428594950,-0.993091425,-0.583890785,-0.073876259,-1.117086875,0.38473833749999997,3.285518325
785,1778428594960,-0.8340730333333334,-0.7129481033333334,-0.046049435,-1.2408853,0.03924693666666666,4.480641033333334
786,1778428594970,-0.7104073,-0.79608303,-0.040520657,-1.3052279,-0.11102149,5.2344265
787,1778428594980,-0.39020951000000004,-0.97390208125,-0.03308119875,-1.42403775,-0.17943638750000002,6.56263775
788,1778428594990,-0.15637343850000002,-1.10938635,-0.03582526075,-1.5249802,-0.1006370835,7.543524625
789,1778428595000,0.060521826,-1.2307425,-0.042228073,-1.6106515,0.014813046,8.2197895
790,1778428595010,0.3913880028888889,-1.4215328333333332,-0.047431628777777776,-1.756847577777778,0.2907123828888889,9.104161055555556
791,1778428595020,0.70147001875,-1.5976656125,-0.024021980624999998,-1.8620914375,0.41491799625000003,9.652608
792,1778428595030,1.0335358,-1.7642188,0.016342416,-1.9417307,0.33741677,10.040114
793,1778428595040,1.2907537125,-1.8868212500000001,0.156102852,-1.7832922375,-0.10184922874999999,10.0203385
794,1778428595050,1.3849589,-1.9196852,0.2689486,-1.6014888,-0.47630814,9.931994
795,1778428595060,1.4150825666666667,-1.7990481111111112,0.4545522533333334,-0.8402373688888889,-1.7265089044444444,9.634172666666666
796,1778428595070,1.501646325,-1.6838558375,0.43174010625000003,-0.2174616175,-2.5666465499999997,9.43415425
797,1778428595080,1.63780135,-1.54726255,0.2589327715,0.4964852025,-2.980705525,9.1415585
798,1778428595090,1.7463367,-1.421028075,0.0707739405,1.03164465,-2.629449175,8.6788415
799,1778428595100,1.8412253555555556,-1.2386427555555555,-0.10015828666666667,1.181811311111111,-1.7333638888888887,8.360216555555557
800,1778428595110,1.9032284124999999,-1.1280193374999998,-0.21493252000000002,1.1067789375000001,-0.3284640274999999,8.241321875
801,1778428595120,1.9880664666666665,-1.0791923444444445,-0.3638423866666667,0.8789667833333333,1.131246708888889,8.206826444444443
802,1778428595130,2.01972525,-0.97818970625,-0.44030771,0.5815170537500001,2.2012644875,8.272322875
803,1778428595140,2.1128130666666665,-0.8729676111111111,-0.5845632555555555,0.1262587388888889,2.906860866666667,8.609646000000001
804,1778428595150,2.2812154749999998,-0.7764248899999999,-0.7877822375,-0.39132402,3.123491125,8.768712375
805,1778428595160,2.421787625,-0.597733045,-0.9337206124999999,-1.3855543,2.983358975,8.358891375
806,1778428595170,2.592011,-0.5085967,-0.9520373,-2.0095348,2.6543603,7.8397665
807,1778428595180,2.7445571777777777,-0.4680218844444444,-0.7359745244444444,-2.5943956333333333,1.7682246666666666,6.854469666666667
808,1778428595190,2.8678655500000003,-0.457038895,-0.32275513125,-2.6732966,0.94429346,6.02600825
809,1778428595200,2.9728335875000003,-0.44258301,-0.10201434312499999,-2.212851425,0.420033855,5.378796375
810,1778428595210,3.089468911111111,-0.37754234888888893,-0.057737111111111114,-1.7242012555555555,0.29201045222222227,4.968504177777778
811,1778428595220,3.1154866,-0.2057437,-0.15449072,-1.3229425,0.34902287,4.5417256
812,1778428595230,3.3263120222222224,-0.1355804011111111,-0.26039799,-1.1816331222222223,0.49128239666666673,4.185398
813,1778428595240,3.7272145500000002,-0.20836580999999998,-0.30183926250000004,-1.1268604500000001,0.5484644875,3.6674505
814,1778428595250,4.0182336,-0.16532214625,-0.24869591875,-1.03454618375,0.48569992875,3.09637515
815,1778428595260,4.2389595,0.143038075,-0.18740040875,-0.74889872875,0.6288672387500001,1.6678419899999999
816,1778428595270,4.316441,0.1996153,-0.20769504,-0.64429116,0.79799557,0.87717664
817,1778428595280,4.228481555555556,0.06498007555555556,-0.31711877777777775,-0.5249044577777778,1.3195234044444444,-0.6107709522222222
818,1778428595290,3.852084425,-0.096697715,-0.38840681,-0.36253785250000004,1.9706695,-2.23976705
819,1778428595300,3.402492725,-0.1913373825,-0.37522769,-0.18065807425,2.179121125,-2.986890425
820,1778428595310,3.0318707666666667,-0.2846947866666667,-0.3660037422222222,0.14363394577777777,1.9697362666666665,-3.4187255555555556
821,1778428595320,2.7105163,-0.2948571375,-0.361789425,0.453420455,1.45129665,-3.52153455
822,1778428595330,2.50288215,-0.23201811,-0.3672851675,0.68353808125,0.8098307437500001,-3.484807275
823,1778428595340,2.4663632555555552,-0.1915660588888889,-0.37614322222222224,0.7643990111111111,0.2683146487777778,-3.4200150777777782
824,1778428595350,2.5547449625,-0.16101549125,-0.39715731249999997,0.6972058000000001,-0.004275930975000001,-3.400281275
825,1778428595360,2.6707656,-0.14896195,-0.41023734666666667,0.5076904555555556,0.0830412881888889,-3.4513038222222225
826,1778428595370,2.7607748125,-0.15311869749999998,-0.4260919225,0.19791451499999999,0.53029178,-3.6203389
827,1778428595380,2.798093388888889,-0.2002183211111111,-0.3952093666666667,-0.17556768222222222,1.2277606333333333,-3.9245070888888893
828,1778428595390,2.7164695,-0.2552588,-0.2930964,-0.48058408,1.996478,-4.3316708
829,1778428595400,2.4749478666666667,-0.31180342111111115,-0.09925714333333334,-0.5055609566666667,2.551941766666667,-4.786208988888889
830,1778428595410,2.183785925,-0.36283366250000004,0.11182054875,-0.26999448375,2.8197472625,-5.1718241
831,1778428595420,1.9680796625,-0.38709576125,0.2126762925,0.23840223,2.61160105,-5.4167644
832,1778428595430,1.8359150499999999,-0.40212712500000003,0.232635535,0.767605925,2.241274925,-5.60032395
833,1778428595440,1.7464129,-0.41657916,0.22111045,1.1565629,1.9164569,-5.7318087
834,1778428595450,1.6458310777777778,-0.46078567111111113,0.14841651111111112,1.5252432111111112,1.5465550000000001,-5.919949722222222
835,1778428595460,1.4955581111111111,-0.5294719888888889,0.06575248066666667,2.0042831,1.0614065555555556,-6.292566544444444
836,1778428595470,1.4059662,-0.57863134,0.042228073,2.183397,0.8822925,-6.4849834
837,1778428595480,1.4059662,-0.57863134,0.042228073,2.183397,0.8822925,-6.4849834
838,1778428595490,1.1955881,-0.70967555,-0.016342416,2.5150871,0.59580517,-6.8130083
839,1778428595500,1.1038754000000002,-0.761850875,-0.0509480945,2.5599844875000004,0.51456249625,-6.863250537500001
840,1778428595510,1.0828376,-0.8070593,-0.07125416,2.5643622444444443,0.49107880888888883,-6.872464155555556
841,1778428595520,1.0783773857142858,-0.9363351357142857,-0.089848445,2.5031320714285714,0.33846392285714283,-6.983434714285714
842,1778428595530,1.0655907333333332,-0.9986355333333334,-0.07369332099999999,2.4840697333333335,0.2899064155555555,-7.081034688888889
843,1778428595540,1.045244,-1.0235354,-0.054667823,2.4845448,0.21769069,-7.1446986
844,1778428595550,1.0001193777777777,-1.0532390444444444,-0.05640234122222222,2.481287022222222,0.11065667666666666,-7.184878866666667
845,1778428595560,0.95638965,-1.0774905,-0.057015522124999996,2.4815669875,0.051311169,-7.2302934375
846,1778428595570,0.9083457000000001,-1.093326,-0.05198474,2.4790473,-0.031000499,-7.3053513
847,1778428595580,0.9083457,-1.093326,-0.05198474,2.4790473,-0.031000499,-7.3053513
848,1778428595590,0.9083457,-1.093326,-0.05198474,2.4790473,-0.031000499,-7.3053513
849,1778428595600,0.9083457,-1.093326,-0.05198474,2.4790473,-0.031000499,-7.3053513
850,1778428595610,0.9083457000000001,-1.093326,-0.05198474,2.4790473,-0.031000499,-7.3053513
851,1778428595620,0.35075979500000004,-1.0023832125,-0.069638207,2.124297725,-0.65101047225,-7.3403224
852,1778428595630,-0.0219525,-0.9283469,-0.08052299,1.707852575,-1.134037975,-7.046504775
853,1778428595640,-0.35459387,-0.76580685,-0.04393549,1.3697486,-1.3388245,-6.5961576
854,1778428595650,-0.35459387,-0.76580685,-0.04393549,1.3697486,-1.3388245,-6.5961576
855,1778428595660,-0.35459387,-0.76580685,-0.04393549,1.3697486,-1.3388245,-6.5961576
856,1778428595670,-0.35459387,-0.76580685,-0.04393549,1.3697486,-1.3388245,-6.5961576
857,1778428595680,-0.35459387,-0.76580685,-0.04393549,1.3697486,-1.3388245,-6.5961576
858,1778428595690,-0.8826865071428571,-0.3788330857142857,0.3354986714285714,-0.3982942214285714,0.17129901621428573,-2.4025931714285713
859,1778428595700,-0.99900645,-0.3475202925,0.364533485,-0.3390202325,0.75569438,-1.806809825
860,1778428595710,-1.1121075,-0.35191077,0.37166804,-0.22402823,1.184051,-1.3390535
861,1778428595720,-1.1121075,-0.35191077,0.37166804,-0.22402823,1.184051,-1.3390535
862,1778428595730,-1.1121075,-0.35191077,0.37166804,-0.22402823,1.184051,-1.3390535
863,1778428595740,-1.1121075,-0.35191077,0.37166804,-0.22402823,1.184051,-1.3390535
864,1778428595750,-1.1915900625,-0.4525301925,0.2313854575,0.25163089250000004,0.9933903625,0.6815147000000001
865,1778428595760,-0.9210394866666667,-0.6428220666666666,-0.037573329333333336,0.5601554266666666,0.03273123333333334,4.368923833333334
866,1778428595770,-0.649168965,-0.7279236,-0.0962022575,0.368188185,-0.187988245,5.5624704000000005
867,1778428595780,-0.39584628,-0.8251092,-0.13738607,0.17302248,-0.17882554,6.3523536
868,1778428595790,-0.39584628,-0.8251092,-0.13738607,0.17302248,-0.17882554,6.3523536
869,1778428595800,-0.39584628,-0.8251092,-0.13738607,0.17302248,-0.17882554,6.3523536
870,1778428595810,-0.39584628,-0.8251092,-0.13738607,0.17302248,-0.17882554,6.3523536
871,1778428595820,-0.14502371749999998,-0.9430848075,-0.152428865,-0.08674032000000001,0.11675772749999999,6.7523917375
872,1778428595830,1.0972286,-1.5253024,-0.19815181,-1.6668495,1.9390583,8.877062
873,1778428595840,1.1107126250000001,-1.528168425,-0.19821278750000002,-1.6980027,1.9460830375,8.88057425
874,1778428595850,1.312945888888889,-1.5238049666666664,-0.19183707111111112,-2.2567328444444446,1.7789484666666668,8.813330222222222
875,1778428595860,1.33715125,-1.4844121,-0.18141301875000002,-2.345577,1.5413967,8.742064
876,1778428595870,1.3504954666666669,-1.3894205444444443,-0.15586613777777777,-2.3517534777777778,1.0166789399999998,8.621524
877,1778428595880,1.4084053,-1.2871178,-0.13592257,-2.2692213,0.40094486,8.52216
878,1778428595890,1.477525175,-1.2246217625,-0.1401034475,-2.185077,-0.069703406875,8.49054825
879,1778428595900,1.606330188888889,-1.1643870777777776,-0.15651657666666666,-2.074072511111111,-0.44427262666666667,8.426731444444446
880,1778428595910,1.7268691,-1.1311636,-0.13201989,-1.9276812,-0.50746137,8.310806
881,1778428595920,1.8032950625,-1.0409791937500001,-0.02861066125,-1.5995035,-0.41033664000000003,8.2045086875
882,1778428595930,1.8987083666666666,-0.8607175599999999,0.04959638922222223,-1.0401201,-0.36879903,7.9918675
883,1778428595940,1.969726175,-0.7102434475,-0.029250944875,-0.3900259675,-0.644138435,7.6141348875
884,1778428595950,2.0690231,-0.5739969,-0.16058864,0.07711947,-1.1219738,7.347423600000001
885,1778428595960,2.0690231,-0.5739969,-0.16058864,0.07711947,-1.1219738,7.3474236
886,1778428595970,2.3767011499999997,-0.43364191750000003,-0.35075981,0.1655396035,-1.5588058875,7.1398118375
887,1778428595980,2.7948277,-0.33324354,-0.5292153749999999,-0.1539335215,-1.371810225,6.60402225
888,1778428595990,3.024248177777778,-0.2950409333333333,-0.5870532444444445,-0.7344250999999999,-0.69044404,5.906214355555556
889,1778428596000,3.127713,-0.22672056,-0.54225725,-1.4432794,0.11010522,5.1507406
890,1778428596010,3.0093863333333335,-0.06622337388888888,-0.3505522944444444,-2.0784417444444445,0.8331532311111112,4.474736155555555
891,1778428596020,2.8814485,0.053936075,-0.11177482,-2.505619,1.3153832,4.037166
892,1778428596030,2.9425954375,0.123665748125,0.1539076075,-2.479887175,1.0825740375000001,3.8934641375
893,1778428596040,3.25619985,0.1785469975,0.39514882375,-2.2655466124999997,0.70629214625,3.7765631375
894,1778428596050,3.6960998,0.15912513,0.46368557,-1.8464385000000003,0.23540527000000003,3.44892
895,1778428596060,4.2103863,0.1949656475,0.39409693,-1.3014101125000002,0.112252730625,2.4503374625
896,1778428596070,4.431081600000001,0.39023619000000004,0.19644439000000002,-1.0097813777777778,0.7395579011111111,0.8204866622222222
897,1778428596080,4.344338925,0.376492995,0.057770136,-1.0654703749999999,1.5797274,-0.5861843025
898,1778428596090,3.9768174375000003,0.18018963375,0.006536203875000002,-1.21069925,2.403912975,-1.8849982875
899,1778428596100,3.692197,0.08271824,0.041008487,-1.252695,2.7337706,-2.4446871
900,1778428596110,3.101964475,0.033195535750000005,0.1699032,-1.0795197925,2.507451625,-2.793996325
901,1778428596120,2.8402267,0.021464668,0.25355136,-0.79211617,1.9445559,-2.9682596
902,1778428596130,2.6953504111111113,0.10416258311111111,0.3807403844444444,-0.37959067333333335,1.062831811111111,-2.8722887333333333
903,1778428596140,2.75158595,0.15565314,0.4160303875,-0.1358371575,0.59794310875,-2.8415088125000003
904,1778428596150,3.0264266,0.2013532,0.3916997,0.09437590375,0.35398597374999996,-3.0230066125
905,1778428596160,3.2993829777777774,0.21597465222222223,0.30379144555555554,0.06958568586666666,0.9242373333333335,-3.5780887
906,1778428596170,3.3396080374999997,0.18201518575,0.2897463325,-0.019165332099999998,1.5477342250000001,-4.0543460125
907,1778428596180,3.2115898,0.050445018499999994,0.375220075,-0.0639862475,2.4495929,-4.7632344
908,1778428596190,3.010816,-0.041252404,0.47661316000000004,0.04046863,2.8798394,-5.1838026
909,1778428596200,2.8024273,-0.0903025225,0.53662428125,0.33553648625,2.8831131625,-5.39671145
910,1778428596210,2.20618065,-0.2022717075,0.65048764375,1.3405043,2.5939627874999998,-5.9014716875
911,1778428596220,2.0003640666666667,-0.2549911588888889,0.5639353266666667,1.9431305666666665,2.132289588888889,-5.982459855555556
912,1778428596230,1.86865325,-0.31847896,0.43786855999999996,2.436593275,1.71579355,-6.1108397750000005
913,1778428596240,1.706852575,-0.4125088225,0.27875101999999996,2.8373090999999997,1.3775368875,-6.291650375000001
914,1778428596250,1.583796675,-0.5176293,0.17838693,3.093273225,1.2003911999999999,-6.49170285
915,1778428596260,1.4772609777777779,-0.6432692733333334,0.11705289777777778,3.285441877777778,1.0945958888888887,-6.735159533333334
916,1778428596270,1.3817879,-0.79608303,0.06637583,3.4479272,0.9568159,-6.990765
917,1778428596280,1.2853799,-0.91615105,0.02414775,3.5897203125,0.73591823,-7.226857475
918,1778428596290,1.123034275,-1.0448780687499999,-0.021079736,3.7283825375,0.375737875,-7.4320258125
919,1778428596300,0.96770131,-1.1922799499999999,-0.08065257249999999,3.7601466125,0.010078980000000001,-7.484024325
920,1778428596310,0.9204026066666666,-1.2869891444444443,-0.10852598444444445,3.7139173111111115,-0.2888459188888889,-7.506862988888888
921,1778428596320,0.86855674,-1.4032831,-0.1527833,3.625073,-0.47081053,-7.5044875
922,1778428596330,0.81990892,-1.4502268777777778,-0.16560248,3.534328266666667,-0.5021673644444444,-7.474556199999999
923,1778428596340,0.71708071875,-1.503231725,-0.17315035750000002,3.2519887,-0.4745519675,-7.3334505
924,1778428596350,0.6311725125000001,-1.523038625,-0.155580725,3.0639336249999998,-0.38804072500000003,-7.182112999999999
925,1778428596360,0.52908195375,-1.4996607124999999,-0.13137960625,2.858688875,-0.310463115,-6.98557285
926,1778428596370,0.44368443,-1.4808791,-0.13372731,2.751485,-0.28389126,-6.8728714
927,1778428596380,0.32974866125,-1.4316193499999998,-0.15356459125,2.644586875,-0.29038151624999997,-6.7747540875
928,1778428596390,0.062473156,-1.3268762,-0.21110988,2.4512197333333337,-0.2698417677777778,-6.612175522222222
929,1778428596400,-0.26515648475000003,-1.2175139,-0.22894627499999998,2.3248083,-0.2916795675,-6.46711625
930,1778428596410,-0.5784407625,-1.1343002125,-0.251055025,2.2139394,-0.39078954,-6.295621
931,1778428596420,-0.9670686000000001,-1.0698998333333334,-0.24796163999999996,2.0198936666666665,-0.7101268866666666,-5.796626366666667
932,1778428596430,-1.290418275,-0.94799737625,-0.22214711,1.8161252,-1.06684465,-5.184251049999999
933,1778428596440,-1.4977094,-0.82779217,-0.21086596,1.5071893,-1.4420576,-4.2033925
934,1778428596450,-1.63278965,-0.65483241,-0.18296799375,1.0976161625,-1.566975925,-3.140499375
935,1778428596460,-1.6204705777777777,-0.58806276,-0.13992347111111111,0.6031862144444444,-1.442804288888889,-1.9994472355555557
936,1778428596470,-1.4879145875000002,-0.596254265,-0.057038385500000004,0.07849386624999999,-0.99453569125,-0.7837933837500001
937,1778428596480,-1.3793183111111111,-0.5719609,0.043454432,-0.30642475555555554,-0.1330629011111111,0.30767188777777776
938,1778428596490,-1.3322424,-0.5244513,0.16058864,-0.47508645,0.58297735,0.99995697
939,1778428596500,-1.305834575,-0.5555507187500001,0.266113085,-0.48180577625,1.4640481625,2.0235174
940,1778428596510,-1.2609882,-0.58180225,0.26846078,-0.36635566,1.9616597,3.0738597
941,1778428596520,-1.2609882,-0.58180225,0.26846078,-0.36635566,1.9616597,3.0738597
942,1778428596530,-1.2609882,-0.58180225,0.26846078,-0.36635566,1.9616597,3.0738597
943,1778428596540,-1.2609882,-0.58180225,0.26846078,-0.36635566,1.9616597,3.0738597
944,1778428596550,-0.657219914,-0.8719038722222222,0.033352218888888896,-0.4389107333333333,1.4034809888888888,5.4718849
945,1778428596560,0.035543234874999996,-1.1913271,-0.16952588875,-0.70690298875,0.7192726875,7.6555198749999995
946,1778428596570,0.44377211,-1.346705875,-0.21248191625,-1.0934165625,0.460731565,8.301214
947,1778428596580,0.7145979466666668,-1.419689911111111,-0.21530388666666667,-1.3651587111111112,0.34528140111111116,8.719191444444444
948,1778428596590,1.128167925,-1.53992975,-0.196139485,-1.92861655,0.142632835,9.650394
949,1778428596600,1.4486517,-1.6563467,-0.18424855,-2.209969,0.15225367,10.046223
950,1778428596610,1.4486517,-1.6563467,-0.18424855,-2.209969,0.15225367,10.046223
951,1778428596620,1.8901942125,-1.7578921875,-0.12974079875,-2.5199741,0.4682716925,10.122579125
952,1778428596630,2.31233,-1.7732437,-0.06491233,-2.7249134,0.7747834,9.666887
953,1778428596640,2.31233,-1.7732437,-0.06491233,-2.7249134,0.7747834,9.666887
954,1778428596650,2.309850144444445,-1.4968793,0.04859023036666667,-2.560188177777778,-0.057105718888888886,9.190833111111111
955,1778428596660,2.3350446,-1.346176,0.11323831,-2.3083155,-0.8379297,8.980294
956,1778428596670,2.3350446,-1.346176,0.11323831,-2.3083155,-0.8379297,8.980294
957,1778428596680,2.5390924624999998,-1.1629146375000001,0.268758055,-1.58891874,-1.4797010625,8.854689
958,1778428596690,2.8609595,-0.99057615,0.37950385,-0.75302196,-2.0296926,8.658378
959,1778428596700,2.8609595,-0.99057615,0.37950385,-0.75302196,-2.0296926,8.658378
960,1778428596710,2.9505582555555554,-0.8142108388888889,0.30444527666666665,-0.35664995555555556,-1.5811950000000001,7.832478711111111
961,1778428596720,2.780329925,-0.37029979,0.125129255,0.3264215075,-0.4492017975,5.929417825
962,1778428596730,2.4260561,-0.12640981,0.07613249,0.35322243,-0.36757734,5.805034
963,1778428596740,2.335834055555556,0.054671215,0.15754984111111112,0.8739357888888889,-0.36201183366666667,5.035629622222222
964,1778428596750,2.39433935,0.34569854,0.1794464425,1.3599751,-1.0083561,4.8373756
965,1778428596760,2.5422215,0.567899,0.09031015,1.3599751,-1.0083561,4.8373756
966,1778428596770,2.754238375,0.811587005,-0.2805194175,2.1134551999999998,-1.5639216500000002,3.363840525
967,1778428596780,2.8890711000000002,0.8914273777777778,-0.6024369222222222,1.9164569,-1.0260707,2.5789971
968,1778428596790,2.9131882,0.8697763,-0.83099365,1.9164569,-1.0260707,2.5789971
969,1778428596800,2.7320955749999998,0.7770956,-0.9319979187499999,0.7181559375,0.6171561400000001,0.76768230625
970,1778428596810,2.3647347555555553,0.6552990555555556,-0.8566522622222222,-0.6858966222222223,1.909058888888889,-0.39671137222222225
971,1778428596820,2.1388137,0.5798509,-0.74897665,-1.3431004,2.2328758,-0.55533653
972,1778428596830,2.0730918333333332,0.5484127222222223,-0.6060143477777777,-1.699428011111111,2.2300250888888886,-0.3562681733333333
973,1778428596840,2.46661495,0.58937889375,-0.43413738625,-1.9360040375,1.9089739875,-0.06276455325
974,1778428596850,2.8709602,0.582534,-0.38926053,-1.9276812,1.6562359,-0.091092594
975,1778428596860,3.4055308222222225,0.4644241111111111,-0.4238865077777778,-1.9191293777777778,1.6183634333333332,-0.797503506
976,1778428596870,3.651840575,0.45575448375,-0.40361729749999997,-1.99204935,1.7244217875,-1.5919443375
977,1778428596880,3.8000388,0.40877387,-0.34361762,-2.109103,1.8810278,-2.3017488
978,1778428596890,3.8616005666666666,0.17259816111111112,-0.2507937777777778,-2.230525666666667,2.228803488888889,-3.3086287333333333
979,1778428596900,3.756309125,-0.2125657525,-0.10896976625,-2.273497175,2.770287775,-4.312429
980,1778428596910,3.5701475,-0.3670336,0.039301075,-2.2111907,3.013615,-4.701844
981,1778428596920,3.320407175,-0.48008136874999996,0.284467806875,-1.8167456624999998,2.8770715,-4.965424875
982,1778428596930,3.1096325,-0.54936135,0.49835226,-1.3834163,2.607936,-5.10256
983,1778428596940,3.1096325,-0.54936135,0.49835226,-1.3834163,2.607936,-5.10256
984,1778428596950,2.8833504,-0.4516155375,0.6077069775,-0.14782503325,1.792684,-5.2389981875
985,1778428596960,2.780131566666667,-0.3907782211111111,0.5954886777777778,0.4365182322222222,1.5350845777777777,-5.341409455555556
986,1778428596970,2.68799975,-0.3768817425,0.57710682,0.6812474000000001,1.6045429750000002,-5.3981335125
987,1778428596980,2.5690727000000004,-0.39221798666666663,0.5684952044444445,0.9841682611111112,1.9222260111111114,-5.524799444444445
988,1778428596990,2.264732388888889,-0.4783341555555556,0.5463665555555556,1.4082320333333334,2.2827615666666663,-5.734049000000001
989,1778428597000,2.0710468375,-0.5305225875,0.5299661375,1.7999379000000002,2.41788605,-5.873754875
990,1778428597010,1.7441599666666667,-0.5979346311111111,0.46091443333333326,2.5488875,2.1528548333333335,-6.008319
991,1778428597020,1.4905557125,-0.64025460625,0.387884675,2.9743775,1.8131474125,-6.043799125
992,1778428597030,1.2149337,-0.7174885125,0.3184789575,3.56108685,1.0084324425,-6.0445626
993,1778428597040,1.081778025,-0.7643433749999999,0.24068479125000003,4.01341925,0.1550597575,-6.0554051499999995
994,1778428597050,1.0218279,-0.7680021,0.21354906,4.3189955,-0.47814068,-6.1099234
995,1778428597060,1.0143749444444445,-0.81295396,0.13732169666666666,4.571004200000001,-1.2827622333333333,-6.2350113333333335
996,1778428597070,1.0388715375,-0.89828791625,0.038988554999999994,4.7253618500000005,-1.9034764375,-6.56019425
997,1778428597080,1.0500688999999999,-0.9666188800000001,-0.0981002325,4.67550125,-2.2780785125,-7.045741575
998,1778428597090,1.0634529555555554,-1.0315913777777779,-0.2147516777777778,4.4280656,-2.360704055555556,-7.532798933333333
999,1778428597100,1.0084125,-1.0930821,-0.30016994,4.1033664,-2.2477653,-7.9743056
1000,1778428597110,0.9176145,-1.1445789,-0.32776302,3.7276955,-2.1176548,-8.156949
