id,timestamp,acc_x,acc_y,acc_z,gyro_x,gyro_y,gyro_z
0,1778427601030,-0.07726060600000001,0.0306115425,0.9157851,-0.136222955,-0.918206825,0.14286610105
1,1778427601040,-0.06030839699999999,-0.00036587500000000004,0.8865151,-0.13454308,-0.96867955,0.2866485
2,1778427601050,-0.060308397,-0.000365875,0.8865151000000001,-0.13490959200000002,-0.9921367699999999,0.31456504399999996
3,1778427601060,0.050663523833333335,-0.011047392833333334,0.7677378633333333,-0.12693271,-1.0474302666666666,0.4910847266666667
4,1778427601070,0.09890821,-0.012012896,0.7121147,-0.16920967,-1.0906999,0.516792
5,1778427601080,0.09890821,-0.012012896,0.7121147,-0.16920967,-1.0906999,0.516792
6,1778427601090,0.11500671333333334,-0.021363036666666668,0.6865035,-0.19130263,-1.0841840333333332,0.48909944
7,1778427601100,0.12387482428571428,-0.09770604914285715,0.5893898,-0.2500402257142857,-0.9826640099999999,0.4559454628571428
8,1778427601110,0.10488416333333334,-0.15807832833333332,0.44270876666666664,-0.32370766666666667,-0.9886854166666668,0.49668433333333334
9,1778427601120,0.05256404,-0.17763231999999998,0.2967856,-0.5308419,-1.2705997,0.64965516
10,1778427601130,0.05256404,-0.17763231999999998,0.2967856,-0.62163175,-1.3470342000000002,0.72692963
11,1778427601140,0.07324469214285714,-0.23198217999999998,0.18839950285714285,-0.9983065142857143,-1.489311242857143,1.007884042857143
12,1778427601150,0.07335794,-0.23464783999999997,0.17726645,-1.045954,-1.500285,1.0418307
13,1778427601160,0.15095393999999998,-0.266865165,0.11984439166666666,-1.6907732,-1.3318135166666667,1.4513394833333333
14,1778427601170,0.25355136,-0.28355312,0.045063604,-2.1519256,-1.0361801,1.6607898
15,1778427601180,0.3470411257142857,-0.31501837714285713,-0.025985838285714286,-2.376723942857143,-0.9067639628571429,1.6779813428571428
16,1778427601190,0.6214387,-0.32965338,-0.16165577,-3.0709722,-0.73563445,1.577254
17,1778427601200,0.7036792666666667,-0.2983507266666667,-0.17324181000000002,-3.2521956000000003,-0.8061894166666667,1.4676037333333334
18,1778427601210,0.9256637833333334,-0.15370814666666666,-0.124641414,-3.5799249,-1.4006121666666667,0.9850711
19,1778427601220,1.1784225,0.0015244792,0.011159187,-3.7317321,-2.2325815714285713,0.37891099285714286
20,1778427601230,1.4375940666666667,0.13613599153333333,0.2219336745,-3.6188165666666667,-2.9962431666666665,-0.2683734466666667
21,1778427601240,1.6068925500000002,0.21334577833333335,0.3236977416666667,-3.467882,-3.5796704,-0.8550586
22,1778427601250,1.8137339333333333,0.2813680333333333,0.36818204166666674,-3.431612,-3.6998071500000003,-1.1827624333333333
23,1778427601260,2.1260996,0.3582526,0.40106,-3.6979164857142854,-3.8200894,-1.8052595714285715
24,1778427601270,2.3084273,0.35989904,0.48265012999999996,-4.5857654,-4.083023,-3.026379
25,1778427601280,2.4127829666666667,0.33758068,0.8344186433333333,-5.2299733999999996,-4.192597166666666,-3.38729875
26,1778427601290,2.7229028833333335,0.39761464999999996,1.7216248166666668,-5.471825583333334,-3.5767942500000003,-3.636506283333334
27,1778427601300,2.9921867285714288,0.3073698457142857,2.0274876,-5.403495871428571,-2.950959157142857,-3.772703742857143
28,1778427601310,3.0942251833333336,0.300495175,2.1082835833333333,-5.0860639999999995,-1.6927076,-4.192749849999999
29,1778427601320,3.4929783000000003,0.419414725,2.44642325,-4.6161813333333335,-0.29372436333333335,-5.015127266666667
30,1778427601330,3.6960083333333333,0.4981591666666667,2.6518416666666664,-4.3747115,0.34468073000000005,-5.7009
31,1778427601340,3.734625614285714,0.3308381314285715,2.8306356,-4.243287928571428,1.1397654757142859,-6.557245885714286
32,1778427601350,3.654867733333333,0.22722871333333336,2.8604718666666664,-4.193284333333334,1.5240070000000001,-6.989265800000001
33,1778427601360,3.0985038,-0.21074399999999996,3.0084987499999998,-3.912693666666667,2.3459262,-7.982939666666667
34,1778427601370,2.506670666666667,-0.7844359833333333,3.4771744666666664,-3.1410180833333334,2.2748114,-7.7571485
35,1778427601380,2.708302657142857,-1.0205212285714285,3.880792742857143,-1.8586011357142858,1.9762800142857144,-6.977651685714285
36,1778427601390,3.1646357,-1.1674461,4.121948,-0.23640485,1.8649715999999998,-6.3361998
37,1778427601400,3.2261433999999998,-1.1728021,4.123330166666666,0.24195353333333336,1.8420641666666668,-6.288297866666667
38,1778427601410,3.8488830285714286,-1.3305828571428573,3.9584452857142858,3.2369749142857143,1.4834207428571429,-6.491817642857143
39,1778427601420,3.9960868,-1.4552679,3.799368,3.8313468,1.3678800000000002,-6.6378145
40,1778427601430,3.916744214285714,-1.5340268428571429,3.4966064285714284,4.312795885714285,1.315912842857143,-6.7384762857142855
41,1778427601440,3.7540605,-1.642352,2.9890157999999993,4.954728,1.2466233,-6.872692
42,1778427601450,3.7540605,-1.642352,2.9890158,5.362611428571428,1.2875949,-6.955813428571429
43,1778427601460,3.666024042857143,-1.6330831428571428,2.8898113999999997,5.430592,1.2944235,-6.969667
44,1778427601470,3.0353599333333334,-1.5031771333333335,2.313387,5.4792067,1.5656476166666666,-6.860322166666666
45,1778427601480,2.774785883333333,-1.4029782166666667,2.072600583333333,5.412317083333334,1.7317011666666666,-6.587010966666667
46,1778427601490,2.6643627000000003,-1.3856906,1.9317591,5.4502926,1.7551686,-6.468757599999999
47,1778427601500,2.5817563666666667,-1.4191478666666668,1.8428921,5.617440433333333,1.5979217,-6.499351699999999
48,1778427601510,2.332209,-1.4919773,1.6416812,5.8782034,1.3458889,-6.5521407
49,1778427601520,2.332209,-1.4919773,1.6416812,5.8782034,1.3458889,-6.5521407
50,1778427601530,2.0647024285714286,-1.6096845285714285,1.3819622,6.306507257142857,0.69095406,-6.638359957142858
51,1778427601540,1.903821885714286,-1.7149171714285714,1.1703731285714285,6.615212571428572,0.032441309714285715,-6.764481857142856
52,1778427601550,1.8028055285714284,-1.7563220142857143,1.0323947085714287,6.595577642857143,-0.23832471828571428,-6.827226485714285
53,1778427601560,1.6009471,-1.7994953,0.7729719,6.3778915,-0.70952,-6.915453
54,1778427601570,1.5259833666666667,-1.7640460333333332,0.7034150066666668,6.112165166666666,-0.8158105333333333,-6.893767
55,1778427601580,1.4127131,-1.6529709571428572,0.5863147085714286,5.582021085714286,-0.9918706,-6.835146
56,1778427601590,1.3936179,-1.6068621,0.559179,5.185686266666667,-1.1360565666666667,-6.783913000000001
57,1778427601600,1.38764195,-1.5621847000000002,0.5490462850000001,4.614934333333333,-1.4403184333333332,-6.725575500000001
58,1778427601610,1.3864833,-1.5102102000000002,0.53936076,4.113872,-1.7321084000000002,-6.6836294999999994
59,1778427601620,1.3561563666666665,-1.4700959666666666,0.5582947666666667,3.7715329,-1.8996382,-6.625520949999999
60,1778427601630,1.3143653333333332,-1.3973985333333332,0.6271605666666666,3.195054333333333,-2.0819559,-6.418615616666667
61,1778427601640,1.3159915,-1.3281872,0.6871742,2.909093,-2.0917554,-6.1892867
62,1778427601650,1.3159915000000002,-1.3281872,0.6871742,2.8535915142857142,-2.075872914285714,-6.116637357142857
63,1778427601660,1.4236502,-1.2015843166666667,0.7676464183333334,2.6913704166666665,-1.8591428833333332,-5.935217583333333
64,1778427601670,1.6177163000000003,-1.1092111,0.8012053,2.75882,-1.6543757999999997,-6.135530499999999
65,1778427601680,1.6312537,-1.124029,0.7413237,2.8079184,-1.5651895,-6.25984175
66,1778427601690,1.5998929,-1.1609824,0.67802736,2.9254772285714283,-1.3766502285714286,-6.574219285714285
67,1778427601700,1.4482755,-1.2376739,0.57560269,3.0108021,-1.3653856,-6.7534209999999995
68,1778427601710,1.150433,-1.3151377,0.45380697,3.1519120333333333,-1.6104443666666668,-6.7995920666666665
69,1778427601720,1.0006942714285714,-1.3325865,0.42681062857142854,3.386440428571429,-2.009223,-6.666590628571429
70,1778427601730,0.7121757,-1.4127654000000003,0.34550798,3.712381,-2.499966,-6.4379086
71,1778427601740,0.49387029999999993,-1.5346627,0.1887915,4.063628,-2.8793132,-6.319554000000001
72,1778427601750,0.3199576866666667,-1.6779231000000001,-0.000406526666666666,4.161875666666666,-3.0393599333333334,-6.313444999999999
73,1778427601760,-0.15238695,-2.0320697,-0.4617343,3.9193114166666665,-3.1809788833333332,-6.349842583333333
74,1778427601770,-0.2642633933333333,-2.083861366666667,-0.52139225,3.4396039666666667,-3.11274025,-6.338261583333334
75,1778427601780,-1.2313522966666666,-2.3385206166666666,-0.7545358833333333,2.152434583333333,-2.645224616666667,-6.00195455
76,1778427601790,-1.8306962333333334,-2.4835799333333335,-0.6729457766666666,0.8086074166666667,-2.0873774666666667,-5.326007
77,1778427601800,-2.4327290857142856,-2.6797207999999997,-0.3238342328571429,-0.2094831457142857,-1.5069172285714285,-4.2967172
78,1778427601810,-2.9004740000000004,-2.874131,0.15311868,-0.5839362783333333,-1.0356965666666667,-3.2848004833333335
79,1778427601820,-3.0308170833333334,-2.9769826666666668,0.36603758833333333,-0.596509905,-0.73693255,-2.5460863000000002
80,1778427601830,-3.039916042857143,-3.047068085714286,0.41374363857142854,-0.27990716962857143,-0.12212940285714284,-0.81122908
81,1778427601840,-2.956148,-3.0933514,0.35526463,-0.0062613687,0.29749137,0.43066
82,1778427601850,-2.956148,-3.0933514,0.35526463,-0.0062613687,0.29749137,0.43066
83,1778427601860,-2.7169354857142856,-3.0439755714285712,0.15570594868571427,-0.4521929865857143,1.0015572157142858,1.5443546285714282
84,1778427601870,-2.5084999,-2.9708034333333333,0.0152244659,-1.0647890333333334,1.7555248666666667,2.647286333333333
85,1778427601880,-2.449524471428571,-2.8710299,0.09724434857142857,-2.0270472571428573,2.6092890857142854,3.7155006714285714
86,1778427601890,-2.2525705,-2.7897664,0.220348205,-2.2985332,2.8968756,4.1318927
87,1778427601900,-2.0522844333333334,-2.7644600166666664,0.26731232666666666,-2.3769275666666667,3.0228665833333337,4.314923149999999
88,1778427601910,-1.7749816,-2.7685761,0.25044146,-3.0545225428571428,4.230351071428571,6.117967914285714
89,1778427601920,-1.5756204,-2.7511361,0.23938388666666666,-3.2399529499999997,4.5561385,6.7073003
90,1778427601930,-0.9695382666666666,-2.704558283333333,0.1839334916666667,-3.6865718333333333,5.035005666666667,7.923838866666666
91,1778427601940,-0.4998288102857143,-2.7209600571428574,0.17414778,-4.162981142857142,5.230097228571428,8.865792714285714
92,1778427601950,-0.028477272,-2.7784548,0.2183664,-4.467792,5.17456315,9.31057875
93,1778427601960,0.5066149,-2.8649843,0.27495506,-5.0391293333333325,4.8670179000000005,10.000373166666668
94,1778427601970,0.9944657,-3.0219272142857143,0.34424483142857143,-5.582370314285714,4.122533171428572,10.490781428571427
95,1778427601980,1.4078261,-3.1893933000000003,0.41953668,-6.1274366,3.103959,10.95205
96,1778427601990,2.2065312,-3.444774066666667,0.7964184466666667,-6.600475266666667,1.40193575,11.548153333333333
97,1778427602000,2.7295496,-3.56222,1.121285,-6.785185833333333,-0.15981761666666666,12.0062765
98,1778427602010,3.164261428571429,-3.5427240285714285,1.5068648857142857,-6.547406,-1.3926201,12.17714
99,1778427602020,3.4825406,-3.4116625000000003,1.9165955333333333,-6.085363,-1.5465581000000002,12.001897999999999
100,1778427602030,3.5767329999999995,-3.1364634,2.204214,-5.3436455,-1.5875369333333333,11.676179666666668
101,1778427602040,3.4626845000000004,-3.0405868,2.0872995285714286,-4.524264257142857,-1.2426962428571429,11.200803142857142
102,1778427602050,3.0465803,-2.792785,1.5738723,-3.445891,-0.6739371,10.199006
103,1778427602060,2.9615142,-2.8529713,1.188484,-3.7264307,-0.41523563999999996,9.861045
104,1778427602070,2.9599287333333333,-2.850816833333333,1.0954704666666668,-3.8269689166666665,-0.3927354383333333,9.812735666666667
105,1778427602080,2.8762479285714284,-2.793987242857143,1.1672632,-5.362328,-0.2817616,9.18558
106,1778427602090,2.781015883333333,-2.7108188166666665,1.4455416333333335,-5.64256225,-0.34717507833333333,8.984962333333334
107,1778427602100,2.6733267,-2.6232018,1.7343085,-5.751856,-0.315410096,8.521137333333334
108,1778427602110,2.5309200666666665,-2.5390302333333334,1.76955445,-5.477476,-0.124769226,8.319679
109,1778427602120,2.356600828571428,-2.408032557142857,1.6928688285714286,-5.049041285714286,0.2905973214285714,8.413468285714286
110,1778427602130,2.3142204,-2.2829382,1.6089354,-4.918687,0.4092797000000001,8.584184
111,1778427602140,2.388710828571429,-2.0173128285714284,1.5674346857142856,-4.775111842857143,0.5014767085714286,8.808829714285714
112,1778427602150,2.56666395,-1.5920135333333334,1.5001688666666666,-4.686405583333333,0.4635703666666667,8.779151749999999
113,1778427602160,2.7904067,-1.3150157,1.4835012,-4.683351,0.3211624,8.5941105
114,1778427602170,3.211315283333333,-0.9871510333333333,1.4750148666666665,-4.791906833333333,0.10252355,7.763588083333334
115,1778427602180,3.407455,-0.8504764333333333,1.4952701333333334,-4.974581333333333,0.007788531333333332,6.8023408000000005
116,1778427602190,3.488313257142857,-0.8297174,1.5828712,-5.273752,0.11270463499999998,5.680894
117,1778427602200,3.4843292666666663,-0.8066121,1.6562552000000001,-5.407531666666666,0.2959641983333334,5.2004484
118,1778427602210,3.3823085375,-0.5897828712500001,1.7778095999999999,-5.47541415,0.39333993625,4.7346637375
119,1778427602220,3.3765733142857144,-0.24156461,1.9113224,-5.4254434428571425,0.25795966428571426,3.9382919000000003
120,1778427602230,3.5184371,-0.19696271,1.9486504,-5.3918023,-0.044287730000000004,3.2183435
121,1778427602240,3.5624814714285713,-0.22834084999999998,1.976108457142857,-5.3815482999999995,-0.1787871657142857,2.5996242857142855
122,1778427602250,3.625760466666667,-0.3405686666666667,2.1705332,-5.299459566666667,-0.35160384666666666,1.7648914666666666
123,1778427602260,3.565931,-0.3454382857142857,2.3374795714285717,-5.151492071428572,-0.4876886571428571,1.271428757142857
124,1778427602270,3.7343035000000007,-0.28696796,2.6299706,-4.60801125,-0.45761445000000006,0.8630253416666668
125,1778427602280,3.9594994,-0.3204455,2.7211344,-4.0311,-0.11178834,0.38163805
126,1778427602290,4.0500534,-0.4063825857142857,2.760509614285714,-3.764064428571429,0.21676990285714284,0.11776608928571429
127,1778427602300,4.175761916666667,-0.501431695,2.79714495,-3.1985922,1.0401252833333334,-0.2815070741666667
128,1778427602310,4.217136014285715,-0.4974506285714286,2.793177,-2.9293825285714283,1.4768539857142857,-0.4285001642857143
129,1778427602320,4.3926853333333336,-0.42651879333333337,2.7369991666666666,-2.54545005,2.2295818166666663,-0.797993625
130,1778427602330,4.4109893,-0.38996178,2.7570512,-2.1575759666666667,2.720742833333333,-1.3713415766666666
131,1778427602340,4.346026083333333,-0.4094446166666666,2.766106583333333,-1.86932395,2.8806876999999997,-1.7370717000000002
132,1778427602350,4.02121,-0.5068588,2.8113835000000003,-1.1025681428571428,3.0090785,-2.4281239285714284
133,1778427602360,3.875653,-0.57472867,2.7699177,-0.16859879999999997,2.9342911,-2.997363
134,1778427602370,3.5510606999999994,-0.6999189,2.6067984,0.20255273333333335,2.8201611666666664,-3.1683543333333333
135,1778427602380,3.4267937714285712,-0.7291017571428571,2.5055731142857143,1.4325663,2.3919518714285712,-3.7755179999999995
136,1778427602390,3.377087,-0.7407749,2.465083,1.6276505,2.3119721,-3.8815904
137,1778427602400,3.0143016666666664,-0.8685465666666667,2.1907985333333335,2.3745350333333333,2.2814289666666667,-4.501313466666667
138,1778427602410,2.7468066,-0.9623732,1.9743226,2.8101633,2.38564268,-4.8907094
139,1778427602420,2.5797643333333333,-1.0198156,1.8023206666666667,2.808605666666667,3.156188,-4.988580066666667
140,1778427602430,2.3867855,-1.0738431,1.6437545,2.6941703333333336,4.041179,-4.989089
141,1778427602440,2.3467425333333334,-1.0677452,1.6314976666666665,2.6412287,4.298506,-4.9698467
142,1778427602450,2.2446838000000002,-1.0577853333333334,1.6006421666666668,2.663117966666667,4.780173333333333,-4.9154798
143,1778427602460,2.2016616,-1.090420857142857,1.5920876714285714,2.8480500714285713,5.916949928571428,-4.796928642857142
144,1778427602470,2.2406388333333336,-1.3049745333333334,1.6151146,3.8709511833333337,5.9739820833333335,-4.80058645
145,1778427602480,2.3075125,-1.3961180000000002,1.6116184,4.513225,5.829029000000001,-4.845994
146,1778427602490,2.41214275,-1.58118975,1.5306685666666666,5.398980000000001,5.465691499999999,-4.99921925
147,1778427602500,2.5156956,-1.8037027,1.3886786,6.612616,4.7817006,-5.225494
148,1778427602510,2.5464594833333334,-1.9416070833333334,1.0944236166666668,7.009907633333333,4.486398166666667,-5.3195672499999995
149,1778427602520,2.563625,-2.0348747,0.8573670999999999,7.8910046,3.7401752,-5.5520015
150,1778427602530,2.5636249999999996,-2.0348747,0.8573671,7.8910046,3.7401752,-5.5520015
151,1778427602540,2.6000093,-1.9158129666666666,0.4068631676666667,7.406333933333333,3.2558098999999996,-5.7331484999999995
152,1778427602550,2.6293607,-1.7434554,0.073175006,6.437603499999999,3.009275,-5.9388320000000006
153,1778427602560,2.6617842,-1.6795143857142858,0.030663812571428573,5.910841,3.1146491428571426,-6.019226285714285
154,1778427602570,2.7233906,-1.5791775,-0.03585575,5.5236979999999996,3.2048536,-6.0815198
155,1778427602580,2.7233905999999997,-1.5791775,-0.03585575,5.435479,3.228881,-6.0965877
156,1778427602590,2.8329092333333334,-1.7036869000000001,0.3539637633333334,2.4594963,5.00375,-7.0951996
157,1778427602600,2.731196,-1.8340094999999998,0.60905993,2.4535403,5.2053356,-7.3586354
158,1778427602610,2.6586308666666665,-1.8712067666666667,0.6821536233333334,2.57960765,5.16547655,-7.4007852000000005
159,1778427602620,2.3874564,-1.9720662,0.83139,3.7258198,4.387387,-7.392386
160,1778427602630,2.3347704,-1.9791399,0.8363293,4.384791,3.823253,-7.255399
161,1778427602640,2.2820845,-1.9393815000000003,0.7379089,5.1101933,3.1392365000000004,-7.0936728
162,1778427602650,2.3398113666666664,-1.9209657,0.6259511666666667,5.458691900000001,2.7833056333333333,-7.060991333333334
163,1778427602660,2.3874476571428573,-1.8832282285714286,0.43420652857142855,5.730243257142858,2.4126558714285715,-7.133204257142857
164,1778427602670,2.2123589428571426,-1.8206115,0.22107562,5.883287142857142,1.8634662714285712,-7.425786957142857
165,1778427602680,2.0435338,-1.791385,0.16885132,5.8753020000000005,1.6363553,-7.508908299999999
166,1778427602690,1.6758817428571429,-1.7244821714285712,0.11203615857142857,5.904536071428572,1.1516991571428572,-7.438440585714285
167,1778427602700,1.1800689,-1.6543038999999997,0.018476687,5.986174000000001,0.6215554,-7.1379604
168,1778427602710,1.1457986,-1.6473726,0.011890936999999999,6.038912,0.5198463333333333,-7.0203688
169,1778427602720,0.86866857,-1.6141694166666667,-0.1006766025,6.176764000000001,0.15714508,-6.740592500000001
170,1778427602730,0.25582793333333337,-1.6383170666666667,-0.5661814000000001,5.982279899999999,-0.014991649999999997,-6.7519955
171,1778427602740,-0.163912,-1.7227224,-0.90273565,5.132438933333333,-0.13077606333333333,-6.936323833333334
172,1778427602750,-0.63119537,-2.0086539,-1.1573236,4.475046,-0.02611449,-7.0764155
173,1778427602760,-1.07197891,-2.5114704428571426,-1.2555872142857143,3.3934218857142855,0.43661595857142854,-7.016463585714286
174,1778427602770,-1.5174665,-3.1199992,-1.2192174,2.750604,0.8412836199999999,-6.835551359999999
175,1778427602780,-1.9724931166666668,-3.295944366666667,-1.19038445,1.7661132000000002,1.7301739666666667,-6.285141666666667
176,1778427602790,-2.90706,-3.5545978999999996,-1.2741597,1.149343,2.6325238,-4.4542766
177,1778427602800,-3.3340359,-3.600088,-1.3945326,1.0790935,2.4489589,-3.3388367
178,1778427602810,-3.3535928,-3.605489,-1.4124082142857142,1.0849839857142858,2.3682374000000004,-3.143381642857143
179,1778427602820,-3.4709342,-3.637895,-1.5196619,1.0637200333333334,1.3293445333333331,-0.9282097533333333
180,1778427602830,-3.381721633333333,-3.601165283333333,-1.5656706500000002,1.0354166,1.0520626,-0.40698898
181,1778427602840,-2.8385599,-3.3970375333333336,-1.4912963833333333,0.4833725848333333,0.64285929,0.9917397756666667
182,1778427602850,-2.575943,-3.283972,-1.3980694,-0.037415497,0.31535918,2.2301164
183,1778427602860,-2.3773643,-3.17994165,-1.27925145,-0.44539714849999995,0.41187588999999997,2.94269065
184,1778427602870,-1.9718833400000002,-2.9879915,-1.0474513399999998,-1.19680716,0.7171252800000001,4.28998456
185,1778427602880,-1.5690376428571429,-2.808552514285714,-0.8360156857142858,-1.8076593285714286,1.1764391857142857,5.469403857142857
186,1778427602890,-0.9683288833333333,-2.5792153666666664,-0.5896380833333333,-2.6461156333333338,1.9395481166666668,7.1477596666666665
187,1778427602900,-0.5402449166666666,-2.4243589166666664,-0.48696949166666664,-3.3695836166666666,2.2604050833333336,8.291757333333333
188,1778427602910,0.182368365,-2.2339820833333333,-0.38685183500000003,-3.9390118333333333,2.2084815166666667,8.982442333333333
189,1778427602920,0.51155424,-2.1440885,-0.28288236,-4.310876,1.9712621,9.354179
190,1778427602930,0.8717378,-2.092103766666667,-0.15099458166666666,-4.62165375,1.6419039333333334,9.579435666666667
191,1778427602940,1.5142549166666666,-2.015849333333333,0.14933798,-4.940474433333333,1.0205522066666666,9.687508333333334
192,1778427602950,1.800349,-1.9993849999999997,0.34691048,-5.1557026,0.23640485,9.62632
193,1778427602960,1.944463,-2.00553375,0.5010861383333333,-5.143459883333333,0.129172545,9.6125755
194,1778427602970,2.0771944,-1.9857459000000002,0.7227047566666668,-4.929835166666667,-0.6715954599999999,9.512800333333333
195,1778427602980,2.17824908,-1.9932382,0.939152336,-4.714902159999999,-0.9092729399999999,9.475038800000002
196,1778427602990,2.2346774857142857,-2.035519485714286,1.0949593714285715,-3.9417606571428574,-1.0795297714285714,9.38040292857143
197,1778427603000,2.26404662,-2.0497172,1.04431706,-3.4767396000000006,-0.9640981,9.313557
198,1778427603010,2.282816,-2.0429852,0.9874967,-3.2191072,-0.84299403,9.184665
199,1778427603020,2.2876945,-2.0446925,0.85194,-3.1357676285714287,-0.79183408,8.964535
200,1778427603030,2.14948515,-2.0281976,0.64464127,-3.1792737333333334,-0.8668177666666667,8.482551333333333
201,1778427603040,2.057437,-2.022679,0.58820504,-3.3336443999999994,-1.0638218,8.119468
202,1778427603050,1.9396456666666666,-2.059724,0.5681327316666667,-3.4983234833333334,-1.415451133333333,8.012693833333334
203,1778427603060,1.8622428,-2.1255507,0.6143041,-3.6784778,-1.8397733999999997,8.045095
204,1778427603070,1.8424246333333334,-2.1560405333333335,0.7319938916666667,-3.7441458,-1.9619463999999998,8.186994166666667
205,1778427603080,1.8074937,-2.1564978666666668,0.8583123083333334,-3.7216455666666666,-1.8452456666666668,8.3473465
206,1778427603090,1.7694935999999999,-2.1417103,0.9080407999999999,-3.5466835,-1.1916454,8.523403
207,1778427603100,1.7998524142857144,-2.1158463857142857,0.7406529657142856,-3.506061,-0.75900006,8.511033
208,1778427603110,1.8343143,-2.0973785,0.6340614,-3.5312083,-0.6812929133333333,8.482296833333333
209,1778427603120,1.9916406,-2.0641448,0.4631368,-4.0135374666666666,-0.2599231716666667,8.083070166666667
210,1778427603130,2.0796944666666666,-2.0904472,0.46472223999999995,-4.3088144999999995,-0.404469135,7.9133770000000005
211,1778427603140,2.25823125,-2.0644294333333337,0.6603129166666667,-5.002528,-1.2360858,7.746993
212,1778427603150,2.4688025,-2.0210326,0.9562143,-5.229312,-1.7989980999999997,8.083733
213,1778427603160,3.091359333333333,-1.8506770666666668,1.4882169,-5.0793955833333335,-1.9902753499999999,8.304280499999999
214,1778427603170,3.3695870000000006,-1.755956,1.7077824999999998,-4.719443166666667,-1.9150116,8.257371333333333
215,1778427603180,3.6171797857142858,-1.6594957142857143,1.7721765571428574,-3.8736710285714286,-1.4055572857142857,7.796255214285715
216,1778427603190,4.09365355,-1.2883373500000002,1.76205405,-2.9714776166666668,-1.0537934666666666,6.7270008500000005
217,1778427603200,4.220978,-0.5871684,1.4468527,-2.154369,-0.9472992999999998,5.4157786
218,1778427603210,3.9818788,-0.14830133,1.2183027,-2.0011945,-1.5699236000000003,4.30996
219,1778427603220,3.7989920500000003,-0.021769562083333336,1.0712921166666667,-2.2264512,-1.8009834,3.6103663000000004
220,1778427603230,3.652001566666667,-0.047807669500000004,0.9495676,-2.745483066666667,-1.5377004666666665,3.1429525666666667
221,1778427603240,3.576021466666667,-0.15460251333333333,0.9079391866666667,-3.3840409,-1.1443032666666666,2.815376133333333
222,1778427603250,3.5449221333333334,-0.39620198,1.0018471199999999,-4.699666616666668,-0.26979881666666666,2.7013225833333334
223,1778427603260,4.093470666666667,-0.30533285000000004,1.5549179666666666,-4.966385666666667,-0.11568260666666667,2.8208230833333334
224,1778427603270,4.2021356,-0.2792236,1.6570479,-5.755470533333334,0.3104213533333333,3.3593006666666665
225,1778427603280,4.960553666666667,-0.021891513333333334,1.9152743666666667,-5.5219673,0.2810489233333333,2.5022567666666666
226,1778427603290,5.4798927,0.46484416999999995,2.242082,-5.2520666,0.22968534,1.5022703
227,1778427603300,5.411342116666667,0.6117023616666667,2.3421388333333333,-5.078988266666666,0.21110484,0.9369654666666666
228,1778427603310,5.069381,0.7809602,2.5637472,-5.0443726,0.20738874,0.8239044999999999
229,1778427603320,4.9319165,0.7789217428571428,2.630780657142857,-4.426525985714286,0.5917102799999999,-0.1908299428571429
230,1778427603330,4.4705048,0.7032117000000001,2.8596182,-3.465693083333333,1.1604404166666666,-1.5951982333333337
231,1778427603340,4.325984,0.59351027,2.9204142,-2.7805060000000004,1.4419475000000002,-1.8521434
232,1778427603350,4.305129,0.561252265,2.9121211000000002,-2.4196882,1.598736233333333,-1.9799161333333333
233,1778427603360,4.1784550000000005,0.4252483866666667,2.8249209333333334,-1.3909910600000002,2.0522018666666666,-2.5180374999999997
234,1778427603370,3.931275916666667,0.22235036666666666,2.7198639,-0.2848413733333333,2.397289583333333,-3.1686345
235,1778427603380,3.6907030000000005,0.05904815826666667,2.5805572,0.5930483133333334,2.5296946666666664,-3.6220237333333336
236,1778427603390,3.3232253571428574,-0.1984349168,2.2185963142857146,1.8318757428571428,2.621702714285714,-4.155563685714285
237,1778427603400,3.2079615,-0.264070265,2.0702427,2.3417518999999998,2.6366471333333332,-4.360916333333333
238,1778427603410,2.8531366428571423,-0.35676296571428573,1.6054421714285714,3.2159002,2.6462681,-4.807662
239,1778427603420,2.6415565,-0.37416816,1.37008,3.379179366666667,2.7611871833333335,-5.063716416666666
240,1778427603430,2.5521306000000004,-0.39243143,1.2628481,3.2947018,3.054479,-5.23313
241,1778427603440,2.3904952,-0.4418448666666667,1.0652146166666665,3.029229883333333,3.553479416666667,-5.296507166666666
242,1778427603450,2.3648737833333335,-0.45211985000000005,1.0331700616666666,2.9761355,3.6532795,-5.3091826
243,1778427603460,2.3089762,-0.4723446,0.96334887,2.7365890142857148,4.195073328571428,-5.337980371428571
244,1778427603470,2.2786288666666668,-0.56505325,0.8979182333333333,2.3537655833333333,5.150485083333334,-5.385413333333333
245,1778427603480,2.3857998666666664,-0.8074149949999999,0.9446282666666667,2.2488750166666667,5.565542333333333,-5.421403416666667
246,1778427603490,2.5382578,-1.1217728,1.0247549,2.443897171428571,6.0345632857142855,-5.543013
247,1778427603500,2.620661,-1.3269066666666667,1.0514638333333333,2.9738701666666665,5.992486333333333,-5.590816666666666
248,1778427603510,2.6837454,-1.4990072857142855,1.0588249,3.284557,5.912390228571428,-5.592732857142857
249,1778427603520,2.7384524,-1.6728414999999999,1.0438414,3.8261545,5.7386208,-5.58117
250,1778427603530,2.817603533333333,-1.8757395333333333,0.9094230033333334,5.1180329,5.081126,-5.506644766666667
251,1778427603540,2.8904736,-1.9646878,0.7955342499999999,6.072000499999999,4.350582,-5.5342865
252,1778427603550,2.9250401142857143,-1.9607154,0.7052153642857143,6.335545128571428,3.9870301142857145,-5.643020385714286
253,1778427603560,2.9944633333333335,-1.9562625999999999,0.5428060333333333,6.6961011,3.1645874499999995,-5.936973883333334
254,1778427603570,3.0740514999999995,-1.96816365,0.49226450000000005,6.733185766666666,2.5873452,-6.186308583333333
255,1778427603580,3.223054,-1.9846889,0.5158838,6.689738000000001,1.8892535,-6.550461000000001
256,1778427603590,3.2450760857142855,-1.995055357142857,0.5392649314285715,6.704442371428572,1.7401151285714285,-6.691134428571429
257,1778427603600,3.3001313,-2.0209715,0.59771776,6.7412033,1.3672692000000002,-7.042818
258,1778427603610,3.19979025,-2.10097625,0.56731966,6.9242339,0.9915106799999999,-7.646887499999999
259,1778427603620,2.9590344,-2.2398462,0.43972076666666665,7.121619833333334,0.45173484,-8.530835
260,1778427603630,2.6836235714285714,-2.279105257142857,0.23473493857142858,6.950381071428572,0.17062774285714286,-8.888067428571429
261,1778427603640,2.5272206666666666,-2.2574894666666667,0.12029156666666667,6.6312983333333335,-0.04907284333333334,-8.977326333333332
262,1778427603650,2.4047947666666665,-2.2102915333333333,0.051385111133333335,6.09129355,-0.38532869833333333,-8.958822666666666
263,1778427603660,2.1331124,-2.048839,-0.01981823,5.467549299999999,-0.75777835,-8.85831
264,1778427603670,2.0125913285714288,-1.9935222857142858,-0.02068936071428571,5.201692042857142,-0.9288642528571429,-8.792728285714286
265,1778427603680,1.7253954,-1.8858722666666665,0.03506301866666667,4.6312747,-1.4167492,-8.608924
266,1778427603690,1.4545361,-1.8677048571428572,0.052834092714285706,4.454167714285714,-1.6219345142857142,-8.49700442857143
267,1778427603700,1.1321493833333334,-1.8781686333333332,-0.01266334,4.367992,-1.6847663,-8.423373
268,1778427603710,0.8712093,-1.8943788,-0.1451914,4.218075333333334,-1.6408603833333333,-8.369540500000001
269,1778427603720,0.39404735142857145,-1.9513594428571428,-0.4071491942857143,3.644901942857143,-1.5169747714285715,-8.270068
270,1778427603730,-0.11281146000000002,-2.0235326,-0.6832106000000001,2.6751316,-1.3799446,-8.123897
271,1778427603740,-0.21141478,-2.05768095,-0.7103158500000001,2.2519801000000004,-1.3780355999999998,-8.071718666666667
272,1778427603750,-1.0092052142857144,-2.3993995714285714,-0.5841717214285714,0.5843798628571429,-1.1223994000000002,-7.6901826571428575
273,1778427603760,-1.659783214285714,-2.7801883571428574,-0.2835008528571429,-0.5446082228571428,-0.5452190542857143,-7.0797538
274,1778427603770,-1.9742615,-2.974015,-0.16507061,-0.8394816,-0.24510968,-6.6975264999999995
275,1778427603780,-2.1523206714285714,-3.1033082285714286,-0.1219147812857143,-0.7909178114285715,-0.21312652,-6.383280071428572
276,1778427603790,-2.886469266666667,-3.5240267,0.002845694166666667,-0.30477084833333334,-0.28881202,-4.640896083333334
277,1778427603800,-3.0309696,-3.5727694,0.011281146,-0.23182335,-0.3199407,-4.4495425
278,1778427603810,-3.3332228999999995,-3.671189666666667,0.023822527833333332,0.06994407666666666,-0.5081890066666667,-3.6717075
279,1778427603820,-3.458392866666667,-3.7126352,-0.004614089999999999,0.55542925,-0.7454082933333334,-2.0764837066666666
280,1778427603830,-3.419616142857143,-3.652956971428572,-0.10687905685714284,0.48655418,-0.5010622,0.44501534
281,1778427603840,-3.1398783,-3.5064242,-0.09762765,0.10909035499999999,-0.06314819166666667,1.7274505566666667
282,1778427603850,-2.8497393,-3.416941571428571,-0.06762590142857143,-0.39813143,0.62888575,3.2328515
283,1778427603860,-2.4215843833333337,-3.21970005,-0.05413933916666667,-0.690583165,1.089478125,3.9822304
284,1778427603870,-2.0883332333333335,-3.045055833333334,-0.04849876366666667,-1.3770429833333333,2.160554,5.627417883333333
285,1778427603880,-1.3601752285714286,-2.7553872428571426,-0.043347476142857146,-2.089682757142857,3.1588932714285716,7.319256442857143
286,1778427603890,-0.7885826000000001,-2.5987492,-0.06299148,-2.6314547,3.7493382,8.773247
287,1778427603900,-0.6018034066666667,-2.5600273999999996,-0.06791046666666667,-2.9229138,3.8240165000000004,9.18214475
288,1778427603910,0.16852028857142856,-2.362576942857143,0.01946977771428571,-3.6868773,3.7044396,10.426858999999999
289,1778427603920,0.5589350333333334,-2.2994839333333332,0.08844011533333333,-3.829514233333333,3.5267796666666666,10.654812999999999
290,1778427603930,1.162271632857143,-2.199117971428571,0.20895818085714285,-4.1466623857142855,2.8965485285714285,11.017892857142856
291,1778427603940,1.7584563,-2.12433125,0.39200458,-4.3021458,2.1577542666666667,11.093770833333332
292,1778427603950,1.9822499,-2.1143308,0.47472283,-4.376544,1.4266758,11.10385
293,1778427603960,2.212751185714286,-2.107666442857143,0.5940242371428572,-4.320148285714285,0.7655232285714285,10.966187142857143
294,1778427603970,2.5070772333333333,-2.1032121,0.72699362,-4.2687265,0.40067668000000006,10.856602333333335
295,1778427603980,2.7063775,-1.9961530000000003,0.9815207,-3.6424366999999997,-0.68203104,9.930225
296,1778427603990,2.689974,-1.9852378,0.9970704,-3.498832466666667,-0.7184538833333334,9.793722333333333
297,1778427604000,2.4659364,-2.0126784,0.96981263,-2.8823676,-0.8426886,9.217499
298,1778427604010,2.3030612,-2.063291,0.9125532499999999,-2.6138923,-0.65179324,9.094562
299,1778427604020,2.2682624666666666,-2.0798774,0.8912105333333334,-2.55089685,-0.58246002,9.1193785
300,1778427604030,2.1551259,-2.1703706,0.7543123399999999,-2.4604125,-0.442495515,9.213681
301,1778427604040,2.165797316666667,-2.1949146,0.7061387733333334,-2.448806,-0.3042109,9.348988
302,1778427604050,2.1820582666666666,-2.1705024833333333,0.5804404266666666,-2.6195938333333335,-0.19005545,9.292609666666666
303,1778427604060,2.1195342666666668,-2.091666716666667,0.48628853333333333,-3.0181324000000003,-0.04810564,9.027061
304,1778427604070,2.096881942857143,-2.0690405857142857,0.4642953714285714,-3.0617438285714287,-0.044702247571428565,8.998961142857143
305,1778427604080,2.0069158000000002,-2.02563645,0.40432239,-3.4496069333333335,-0.02815070633333333,8.779915
306,1778427604090,1.9240452000000001,-2.034691883333333,0.4123919516666667,-4.1270056,0.03481932,8.587391
307,1778427604100,1.8607488833333334,-2.0367142166666667,0.4997547766666666,-4.5493172,0.17816902666666667,8.542390333333334
308,1778427604110,1.8651698,-2.0407288,0.57704586,-5.180443,0.32436943,8.541882
309,1778427604120,1.9419628,-2.0332893333333333,0.6537576866666667,-5.2867334999999995,0.28275424,8.587314999999998
310,1778427604130,2.2074459,-1.9459672,0.7305914,-5.456554,0.12095132,8.565858
311,1778427604140,2.567568516666667,-1.7618507166666666,0.7698315083333332,-5.529094,-0.03978259666666667,8.396215916666668
312,1778427604150,2.9763932,-1.4964287,0.90602845,-5.629759750000001,-0.3848705633333333,7.810217916666667
313,1778427604160,3.0887473666666665,-1.3335127,1.0255476583333334,-5.61988415,-0.5786421,7.392691500000001
314,1778427604170,3.1112182,-1.3009295,1.0494515,-5.454895857142858,-0.8907287714285715,6.671848714285715
315,1778427604180,3.3602165666666663,-1.1254822833333333,1.3025861333333333,-5.07797015,-1.12338115,5.972353300000001
316,1778427604190,3.8340044,-1.0038391,1.4352666,-4.463388899999999,-1.3069970666666666,5.1577898666666675
317,1778427604200,3.82565,-0.7197981,1.3666651,-3.8792125285714283,-1.6678802857142858,4.2826236
318,1778427604210,3.7763788666666667,-0.5156805,1.3455256333333334,-3.8284198000000003,-1.8882353833333336,3.7825794
319,1778427604220,3.68776605,-0.22168975833333335,1.4228167333333335,-4.064494,-1.937002766666667,3.2066352000000005
320,1778427604230,3.7574143,-0.09439575,1.7075387,-4.268879,-1.5045611,3.0190487
321,1778427604240,3.8820251500000005,-0.086255033,1.8151059500000002,-4.2734605,-1.1861476,2.9642999
322,1778427604250,4.166889333333334,-0.044047286666666664,1.9981044000000001,-3.9348120000000004,-0.009468416666666655,2.649042516666667
323,1778427604260,4.634930671428571,0.070535474,2.1660584285714286,-3.4470253285714287,0.26609726,2.2038273
324,1778427604270,5.0821867,0.17214419,2.1588454,-2.6855163999999996,0.23839016,1.4482088
325,1778427604280,5.237745,0.25885656,2.165553,-2.07057865,-0.3396410566666667,0.8281805833333333
326,1778427604290,5.339376666666666,0.40866203500000003,2.17866375,-1.4507541,-1.0219520500000001,0.15757778416666665
327,1778427604300,5.3348846,0.6082672,2.192079,-0.627664,-1.8457294,-0.99280876
328,1778427604310,5.2757344,0.6336955,2.1670167,-0.4127158166666667,-1.8705457333333335,-1.5979471266666667
329,1778427604320,5.042611,0.4545387,2.1229286,-0.33665219142857145,-1.5678947714285714,-2.196235142857143
330,1778427604330,4.8755584999999995,0.38014413500000005,2.1239043,-0.333608775,-0.6977608665,-2.8470138499999997
331,1778427604340,4.708506,0.30574957,2.12488,-0.361326785,0.32314771350000004,-3.22292495
332,1778427604350,4.405826033333333,0.23136513333333333,2.0455360166666665,-0.34641149499999996,1.5948419366666666,-3.5323282
333,1778427604360,4.1186954,0.18165694333333335,1.9492803666666667,-0.29061913,2.467743,-3.8209622
334,1778427604370,3.7052598285714287,-0.007343633571428575,1.8155066285714285,0.04070980714285715,2.8805787,-4.300207771428572
335,1778427604380,3.4384933,-0.19312102,1.7008309,0.63270366,3.2042937,-4.975192
336,1778427604390,3.334715457142857,-0.26284634285714287,1.6300341571428572,1.06347276,2.9884182714285714,-5.314440214285715
337,1778427604400,2.9941816857142856,-0.4861694971428571,1.3540337142857144,1.6839372714285716,2.474920585714286,-5.8433404285714285
338,1778427604410,2.9095600000000004,-0.5405803,1.2866604,1.9309450000000001,2.219579,-6.104987
339,1778427604420,2.6306415,-0.64034224,1.161958,2.1491766,2.185523,-6.5463376
340,1778427604430,2.5484064999999996,-0.67649414,1.1378277142857143,2.1723459428571426,2.4162992857142855,-6.687447314285714
341,1778427604440,2.4593202499999998,-0.7250423,1.1000946500000002,2.19628965,2.70819475,-6.775259299999999
342,1778427604450,2.3932798500000003,-0.78858262,1.0610375,2.2678372,3.2116240499999997,-6.8501666000000005
343,1778427604460,2.4668512,-0.89066166,1.0355482,2.6184738,3.764457,-6.8704014
344,1778427604470,2.5866754,-0.9822524,0.98072803,2.9755247,3.8515053,-6.918507000000001
345,1778427604480,2.7280453166666665,-1.1172197333333334,0.9164457133333334,3.4079662833333333,3.7759107166666666,-7.026554
346,1778427604490,2.8297555857142855,-1.2646470571428572,0.8240985714285715,3.658471942857143,3.712489857142857,-7.091403857142857
347,1778427604500,2.9172230333333338,-1.4283964666666666,0.7152246333333334,4.4335071,3.3964616666666667,-7.286349666666666
348,1778427604510,2.9706610833333333,-1.621253066666667,0.5639251333333334,4.904026,3.0439415000000003,-7.403687000000001
349,1778427604520,2.97067125,-1.6547712666666667,0.50784463,4.993848666666667,2.891556083333333,-7.4456585
350,1778427604530,2.95922755,-1.6889399999999999,0.30462143,5.5327589999999995,1.8451948499999997,-7.743404300000001
351,1778427604540,2.990975914285714,-1.7908362285714285,0.13634941714285714,5.8478785,0.3302162857142857,-8.369050657142859
352,1778427604550,2.932976,-1.8710848,0.04414892,5.894850000000001,-0.7672467,-8.820742
353,1778427604560,2.9097530833333334,-1.9091459666666666,-0.004380335833333333,5.779548600000001,-1.4023939,-9.011942
354,1778427604570,2.9345962142857145,-1.9874939857142857,-0.03089901557142857,5.401270428571428,-2.1303270714285714,-9.310066285714285
355,1778427604580,2.9251705833333332,-2.0175262166666665,-0.0398193975,5.1347804,-2.5386033,-9.497122
356,1778427604590,2.819067,-2.0262158,-0.05079565,4.112803066666666,-3.0910291,-9.834981333333333
357,1778427604600,2.8076028857142856,-2.027818657142857,-0.08480460085714285,3.6577084,-3.1202996,-9.995588
358,1778427604610,2.7698364333333334,-2.037395233333333,-0.140496006,3.6577084,-3.1202996000000005,-9.995588
359,1778427604620,2.7114996999999996,-2.0541441,-0.20086539,3.444160066666667,-3.0992756666666668,-10.031832666666666
360,1778427604630,2.675664266666667,-2.0693076166666664,-0.20109914166666668,3.0170634,-3.0572278,-10.104322
361,1778427604640,2.4964871,-2.1451252,-0.20226789999999997,3.0170634,-3.0572278,-10.104322
362,1778427604650,2.4964871,-2.1451252,-0.2022679,3.0170634,-3.0572278,-10.104322
363,1778427604660,2.4964871,-2.1451252,-0.20226789999999997,3.0170634,-3.0572278,-10.104322
364,1778427604670,2.4964871,-2.1451252,-0.20226789999999997,2.18628665,-2.8340074666666664,-10.0718695
365,1778427604680,2.4964871,-2.1451252,-0.20226789999999997,1.8307630999999998,-2.695290066666667,-9.992177
366,1778427604690,2.4964871,-2.1451252,-0.20226789999999997,1.736079,-2.6482534,-9.955576
367,1778427604700,2.4964871,-2.1451252,-0.20226789999999997,1.736079,-2.6482534,-9.955576
368,1778427604710,2.4213607,-2.151101,-0.16909523,1.6145168166666666,-2.5418865333333334,-9.849081833333335
369,1778427604720,1.6792356428571427,-1.9522741714285714,-0.05826995185714286,1.02250116,-1.7564557714285713,-8.713774428571428
370,1778427604730,-0.8355060316666667,-2.3618451166666667,-0.11546405166666666,-0.6103307383333333,-1.8394679500000002,-7.0363785000000005
371,1778427604740,-2.4705708,-3.1191453999999994,0.7894362999999999,-1.7662150666666667,-0.9317222100000001,-5.7039542333333335
372,1778427604750,-2.9921257000000003,-3.1328657,1.0526224,-1.3443617,-0.54290646,-3.624416
373,1778427604760,-3.2187854999999996,-3.0312438,1.1665924,-0.9446267416666667,-0.4923828266666666,-2.7354800000000004
374,1778427604770,-3.272874,-2.9662704000000004,1.1638484,-0.25671613,-0.24770586000000003,-1.45615
375,1778427604780,-3.3209867,-2.9122431,1.0882342,-0.071318515,-0.12660182,-1.1009319
376,1778427604790,-3.474349,-2.7333912999999996,0.81895024,0.09738210833333334,0.08618291333333332,-0.1971567533333333
377,1778427604800,-3.46215305,-2.69015695,0.78617394,0.13515393666666667,0.41910446333333334,0.8970301366666668
378,1778427604810,-3.4499571,-2.6469226,0.75339764,0.12583824,0.46441030000000005,1.02549
379,1778427604820,-3.4499571,-2.6469226,0.75339764,0.07465645714285715,0.7669195,1.8942713142857142
380,1778427604830,-3.3531628333333336,-2.5474453333333336,0.7328679733333333,0.06612616,0.8173377,2.0390682
381,1778427604840,-3.3047656999999995,-2.4977067,0.72260314,0.06612616,0.8173377,2.0390682
382,1778427604850,-3.3047657,-2.4977067,0.72260314,0.06612616,0.8173376999999998,2.0390682
383,1778427604860,-3.1564035500000003,-2.4521857500000004,0.69619917,0.06612616,0.8173377,2.0390682
384,1778427604870,-3.0080414,-2.4066648,0.6697952,0.06612616,0.8173377000000001,2.0390682
385,1778427604880,-3.0080414,-2.4066648,0.6697952,0.047800206,1.1047498,2.7948613
386,1778427604890,-3.0080414,-2.4066648,0.6697952,0.047800206,1.1047498,2.7948613
387,1778427604900,-3.0080414,-2.4066648,0.6697951999999999,0.04286237833333333,1.1462631833333334,2.9065987166666667
388,1778427604910,-3.0080414,-2.4066648,0.6697951999999999,0.01817324,1.3538301,3.4652858
389,1778427604920,-3.0080414,-2.4066648,0.6697951999999999,0.01817324,1.3538301,3.4652858
390,1778427604930,-3.0080414,-2.4066648,0.6697951999999999,0.01817324,1.3538301,3.4652858
391,1778427604940,-2.5990743166666666,-2.2710472333333334,0.5375821916666667,0.01817324,1.3538301,3.4652858
392,1778427604950,-2.718939,-2.3131838,0.5760702,-0.03471023714285714,1.48185,3.8499345714285718
393,1778427604960,-2.718939,-2.3131838,0.5760702,-0.10522154000000002,1.6525431999999998,4.3627996
394,1778427604970,-2.718939,-2.3131838,0.5760702,-0.3023783,1.9176587,5.101794
395,1778427604980,-2.718939,-2.3131838,0.5760702,-0.3023783,1.9176586999999998,5.101794
396,1778427604990,-2.718939,-2.3131838,0.5760702,-0.3023783,1.9176586999999998,5.101794
397,1778427605000,-2.30763455,-2.16610205,0.46027077,-0.3023783,1.9176586999999998,5.101794
398,1778427605010,-1.8963301,-2.0190203,0.34447133999999996,-0.3023783,1.9176586999999998,5.101794
399,1778427605020,-1.5261866,-1.9339033833333332,0.291165365,-0.6391177633333333,2.34630795,5.90301995
400,1778427605030,-1.2410393142857143,-1.8910249,0.2505111328571429,-0.9499826857142858,2.7620709142857143,6.555522285714285
401,1778427605040,-0.3632020999999999,-1.8403716333333335,0.167580925,-1.3851623333333336,3.0461051166666664,7.199326916666666
402,1778427605050,1.9050065714285715,-1.5776791857142858,0.6158895857142858,-3.0065260428571428,1.9794870142857144,7.6331539571428575
403,1778427605060,1.33983425,-1.5270302166666667,0.7227148833333333,-3.4607553,1.5998306,7.369656333333334
404,1778427605070,1.2339134,-1.5565542,0.7952293,-3.16283125,0.8595891999999999,7.465027916666667
405,1778427605080,1.2339134,-1.5576692285714286,0.7930340428571429,-2.8195140000000003,0.27931812857142857,7.497716428571429
406,1778427605090,1.270379,-1.5485455666666665,0.7548814333333334,-2.1719313,-0.72158456,7.490735
407,1778427605100,1.3333399333333336,-1.5187980166666666,0.6777732833333333,-1.8453730000000002,-1.2415327999999999,7.406079299999999
408,1778427605110,1.3344071,-1.4632561,0.5935712,-1.6980525999999998,-1.5169312,7.3375607
409,1778427605120,1.3484933000000001,-1.4683174,0.56826484,-1.9075794000000001,-1.3785701999999997,7.373907
410,1778427605130,1.3849893,-1.51258825,0.57155772,-2.0950387,-1.20508445,7.4566793
411,1778427605140,1.618997,-1.6754028,0.7027849,-2.9281826,-0.34972036,7.9093304
412,1778427605150,1.9415158000000001,-1.7687008000000002,0.92413926,-3.532481,0.4474588,8.341212
413,1778427605160,2.3162834666666665,-1.7036054666666667,1.0974217933333335,-3.812359133333333,0.9491828,8.493928666666667
414,1778427605170,2.771798,-1.5507917333333332,1.2344723833333333,-4.1439572,1.8457802166666666,8.371882833333334
415,1778427605180,3.0290181166666663,-1.348330716666667,1.20037495,-4.277584,2.1961369,8.1133595
416,1778427605190,3.23623545,-1.0326212166666666,1.1637976166666666,-4.509356466666667,2.4530312333333333,7.673282
417,1778427605200,3.3706438666666667,-0.8551108666666667,1.1928542,-5.023730483333334,2.335286866666667,6.7811895
418,1778427605210,3.9650078333333334,-0.5368402233333333,1.3960266333333333,-5.172603433333333,1.8647679666666666,6.155638
419,1778427605220,4.19744,-0.38825434,1.4876478,-5.184675171428571,0.9783443314285715,4.987627357142856
420,1778427605230,4.3179756,-0.27682508,1.5645628666666667,-5.1479905,0.387364925,4.2589525
421,1778427605240,4.575999,-0.23165986,1.7890678999999998,-5.0481906,-1.180497,2.489276
422,1778427605250,4.578943285714286,-0.3641937257142857,2.0419745,-4.861352742857142,-2.050107357142857,1.293419857142857
423,1778427605260,4.487884,-0.52124995,2.3430026,-4.6470046,-2.405282,0.62125
424,1778427605270,4.457343416666666,-0.5626141333333333,2.4758354333333332,-4.449618683333333,-2.408718,0.4082107083333333
425,1778427605280,4.50286014,-0.531409028,2.6232872400000002,-4.26298418,-2.32797688,0.35057556599999995
426,1778427605290,4.727572566666667,-0.34971553333333333,2.8487638,-3.6301177333333334,-1.9247346,0.3074688333333333
427,1778427605300,4.9359762571428565,-0.15284864999999997,2.9649986999999998,-3.0623984285714285,-1.5482816142857143,0.10168723999999998
428,1778427605310,5.160606,0.16049717,3.0531048999999997,-1.9676479,-0.8551604166666666,-0.7919868000000001
429,1778427605320,5.094687416666667,0.29760883666666665,3.0290284499999998,-1.5661057000000003,-0.59696805,-1.2061534
430,1778427605330,4.9651065,0.36392367,2.9650512,-0.8634580399999999,0.032223143,-2.0604484
431,1778427605340,4.665007766666666,0.3469308033333333,2.7864634,-0.4922555866666667,0.5145012476666667,-2.6725354666666665
432,1778427605350,4.208782,0.24422157,2.5372822,-0.08651379,1.1301007,-3.4717762166666666
433,1778427605360,3.68283675,0.03501220583333333,2.301648533333333,0.28252518,1.8002199,-4.3424883
434,1778427605370,3.1089618,-0.1636681,2.0993907,0.6258314,2.1068742,-4.80079
435,1778427605380,2.8003464,-0.2987979,1.9534677,0.86529064,2.1875083,-4.946634
436,1778427605390,2.6534737714285717,-0.3903189342857143,1.842868842857143,0.97158118,2.224225771428572,-5.000760985714286
437,1778427605400,2.58346375,-0.44581865666666665,1.7828682,1.1913909,2.3285674666666663,-5.129435433333334
438,1778427605410,2.5375565,-0.4955167,1.7338816499999998,1.3465761,2.5337162999999996,-5.2768067499999995
439,1778427605420,2.4015427,-0.60314494,1.5975931999999997,1.698358,3.3148603,-5.6094227
440,1778427605430,2.3580644,-0.6540625,1.5194789,1.8952094,3.7606392,-5.7270145
441,1778427605440,2.346397,-0.6787387666666667,1.4591501666666666,2.0121901999999996,3.9492438,-5.78878825
442,1778427605450,2.34156955,-0.72900595,1.3812391,2.366593866666667,4.323144133333333,-5.999511333333333
443,1778427605460,2.3536232,-0.7947923166666667,1.3230751333333333,2.5661685833333334,4.425082333333333,-6.127029449999999
444,1778427605470,2.4704388833333333,-1.1432883,1.2288725833333334,3.3120604666666664,4.381431,-6.589454233333334
445,1778427605480,2.5530148,-1.4423403,1.170739,4.37476225,3.8839066166666663,-7.035895050000001
446,1778427605490,2.5915841333333334,-1.6164866333333332,1.0932446666666666,5.0087895,3.4610097,-7.2143188
447,1778427605500,2.6208236,-1.74882155,0.9768253000000001,5.477704883333334,3.0050243,-7.335040916666667
448,1778427605510,2.6185672,-1.9199902,0.7062607399999999,5.9837303,2.364354,-7.484168
449,1778427605520,2.5955782,-1.92785645,0.6692463700000001,6.0210441,2.2699753333333335,-7.501017866666667
450,1778427605530,2.5225557666666667,-1.9202746666666666,0.551515925,6.121709766666666,1.6613244166666667,-7.562282833333334
451,1778427605540,2.4599607,-1.8948057999999999,0.4494165,6.0901737,1.2638801,-7.587404699999999
452,1778427605550,2.4652657999999996,-1.8861060666666667,0.43211873333333334,6.040133633333333,1.1849767333333332,-7.6014037
453,1778427605560,2.5467645666666665,-1.8434612,0.37676993833333333,5.7519073,0.8197812,-7.709272000000001
454,1778427605570,2.5926514,-1.8407172,0.36172843000000005,5.629785166666667,0.7368562000000001,-7.835924666666666
455,1778427605580,2.5603323,-1.8546203,0.32184806,5.3986745,0.6666067,-8.121758
456,1778427605590,2.4783153833333333,-1.8529434666666669,0.3075179433333333,5.196478,0.56062156,-8.329147
457,1778427605600,2.3578408333333334,-1.86414335,0.2888481533333333,5.128061,0.47224972,-8.369566333333333
458,1778427605610,2.219154,-1.8579133,0.30459094,5.015051,0.1647809,-8.313265
459,1778427605620,2.146405742857143,-1.8341924285714286,0.3126576128571429,5.015596214285714,0.022318400000000006,-8.243779285714286
460,1778427605630,2.0425582,-1.7906532000000002,0.298554,5.07537405,-0.4660901833333333,-8.032470833333333
461,1778427605640,2.0131357833333334,-1.7384142833333334,0.220399025,5.112356833333334,-1.1197159833333332,-7.853487416666667
462,1778427605650,1.96160835,-1.6911961,0.173302785,5.065854533333334,-1.5330172666666666,-7.811897633333333
463,1778427605660,1.80930265,-1.6407562833333333,0.09935539,4.879108133333333,-2.1618267166666665,-7.797695133333334
464,1778427605670,1.6756871666666668,-1.629404,0.08813522666666666,4.752837166666667,-2.4953335666666665,-7.785579600000001
465,1778427605680,1.4047770333333334,-1.6266802666666667,0.13901217333333335,4.4894013,-3.1778736,-7.7014837
466,1778427605690,0.9691419,-1.606984,0.17159538,4.438001528571428,-3.2616495428571426,-7.620151300000001
467,1778427605700,0.65692854,-1.5916783,0.080614455,4.3041563,-3.2224669999999995,-7.3931494
468,1778427605710,0.17336378,-1.5993006,-0.22598879,4.03171062,-2.88881236,-7.1583326
469,1778427605720,-0.072168845,-1.62651765,-0.43605186166666665,3.42023445,-2.420604433333333,-6.947319333333333
470,1778427605730,-0.74540937,-1.6934525,-1.0115834,2.1395555,-1.7959439,-6.7642636
471,1778427605740,-0.7915705959999999,-1.6984649600000001,-1.03245048,1.99652142,-1.76243792,-6.758643599999999
472,1778427605750,-1.3784602,-2.0980578571428574,-0.9834633142857143,0.10216728571428571,-1.4694363285714285,-6.6955846999999995
473,1778427605760,-1.8954154000000003,-2.7296104,-0.6279634,-2.891225,-1.0742066,-6.570313999999999
474,1778427605770,-1.8954154,-2.7296104,-0.6279634,-2.891225,-1.0742066,-6.570314
475,1778427605780,-1.8954154,-2.7296104,-0.6279634,-2.891225,-1.0742066,-6.570314
476,1778427605790,-3.4107986333333336,-3.474054366666667,0.6007260833333333,-2.7266733333333337,-0.7821366,-5.326439833333333
477,1778427605800,-4.11159175,-3.6843410333333337,0.8175273616666666,-0.4669301129999999,-1.2350168499999998,-2.32281515
478,1778427605810,-4.198538,-3.6525301999999997,0.56436217,0.091477074,-1.3976597,-1.3391694
479,1778427605820,-3.7856965200000006,-3.50766816,0.232257443,0.3107166108,-1.43431166,0.33615913199999997
480,1778427605830,-3.2109802,-3.337024,0.075126335,0.04385503666666666,-1.1635710333333333,2.40266025
481,1778427605840,-2.63827598,-3.15412292,0.08884665,-0.36300668,-0.7788532,3.2493449999999995
482,1778427605850,-2.0710963666666666,-2.9902354,0.16978632999999999,-1.0340421,-0.09544769999999998,4.2940774
483,1778427605860,-1.7849821,-2.915353,0.23800169000000002,-1.5816828,0.5757405,5.289788
484,1778427605870,-1.4982885833333333,-2.7938723000000003,0.31263003166666664,-1.8868355,1.0486774333333335,6.266790383333333
485,1778427605880,-1.1229314,-2.646252,0.4177073,-2.1340578,1.4989105,7.6014543
486,1778427605890,-0.6414398514285714,-2.5172549142857146,0.5264767228571429,-2.0806506,1.6135787285714287,8.527308042857142
487,1778427605900,-0.17604686,-2.3995912,0.61088926,-1.9011654,1.6751453,9.441686
488,1778427605910,0.22720838,-2.3378804,0.63942754,-1.6571683714285714,1.6538086142857142,10.114248285714286
489,1778427605920,0.6436961324999999,-2.2803922500000002,0.64474035375,-1.498987,1.6153567999999998,10.4500715
490,1778427605930,1.1257365,-2.2237272,0.646867,-1.1652255,1.42322438,10.958769199999999
491,1778427605940,1.26147605,-2.2209831,0.659581165,-0.9152288749999999,1.1686615999999999,11.25061
492,1778427605950,2.157382,-2.1845787,0.7100414,-0.24663684,0.20341812,11.45357
493,1778427605960,2.5888095,-2.133966,0.69040614,0.24495696999999997,-0.5656612,11.035128
494,1778427605970,2.864842,-1.9692714166666667,0.6835459983333334,0.5176828283333333,-0.8824202833333333,10.470459666666667
495,1778427605980,2.9455378,-1.7961414,0.64351314,0.7985536,-0.8524625,9.365786
496,1778427605990,2.8391595333333335,-1.7670848166666666,0.61226132,0.7995716833333333,-0.6908376666666666,9.074988916666667
497,1778427606000,2.4801447,-1.7114413,0.52405494,0.39278634166666665,0.4107559666666667,8.35378575
498,1778427606010,2.2998903,-1.7891898,0.46941763,-0.16157386,1.3249667,8.175363
499,1778427606020,2.2088136,-1.845560657142857,0.4696005742857143,-0.6397504485714285,1.8262034571428571,8.31804342857143
500,1778427606030,2.007373,-2.0110319,0.5153959,-1.4341589,2.630233,8.582962
501,1778427606040,1.9901974166666667,-2.0539205666666667,0.5494934833333333,-1.7095063999999998,2.7898216,8.763473
502,1778427606050,2.0381677,-2.1273193,0.65345275,-2.0874284000000003,2.862769,9.131875666666666
503,1778427606060,2.124829216666667,-2.11624135,0.6630569833333334,-2.1444426,2.897181,9.183901
504,1778427606070,2.1651263,-2.1056716,0.6625996,-2.2026784,2.9754736666666664,9.156004333333334
505,1778427606080,2.1170137,-2.054937,0.6519283,-2.3170882666666666,3.21121675,9.030879
506,1778427606090,2.0911891666666667,-2.0226891166666667,0.5982970833333333,-2.3548856,3.215289,9.009499
507,1778427606100,2.089512,-2.0260937,0.5048465,-2.5121834,3.008206,9.067684
508,1778427606110,2.1308255,-2.03493585,0.43078732000000003,-2.8599947333333335,2.7594055833333333,9.279450666666667
509,1778427606120,2.2834463333333335,-1.9720256666666665,0.36404564666666667,-3.27342325,2.4851525833333334,9.452121499999999
510,1778427606130,2.5930781499999997,-1.7580802333333334,0.477416085,-3.6754234999999995,2.200692933333333,9.465255
511,1778427606140,2.9360249999999994,-1.4866111,0.658636,-4.034052133333334,1.9151643333333332,9.228697333333335
512,1778427606150,3.0924669999999996,-1.3409928500000001,0.738305285,-4.338924883333333,1.59568175,7.780488616666666
513,1778427606160,3.3433048,-1.0956940000000002,0.88192139,-4.4173193,1.4564555,6.8438287
514,1778427606170,3.4016008,-0.97084934,0.91773653,-4.525137,1.3063353,6.1156774
515,1778427606180,3.4075972166666664,-0.8757218066666667,0.931202755,-4.701142833333333,1.1061496333333334,5.7007979
516,1778427606190,3.41538216,-0.74510446,0.9918505999999999,-4.9031101,0.8809287579999999,5.404324839999999
517,1778427606200,3.649969,-0.3653262,1.2774526,-5.424178,0.4601342400000001,4.532162
518,1778427606210,3.797183,-0.20799994999999996,1.4437224333333336,-5.642307666666667,0.6115779566666667,3.859446666666667
519,1778427606220,3.7971523333333335,-0.11360419333333333,1.5772668,-5.89149,0.9512699000000001,3.0676126
520,1778427606230,3.7305836999999995,-0.013049542,1.7810185,-6.051842,1.3379476,2.410169
521,1778427606240,3.7581868333333333,0.011586042,1.8891143,-6.057187,1.34787415,2.2182045
522,1778427606250,3.9669995,0.029574897,2.1886034,-5.764989833333334,0.747037315,1.6239597833333335
523,1778427606260,4.19994,0.030855457999999995,2.3799558,-5.380654,0.14126259,1.4146112
524,1778427606270,4.6260218,0.12342183266666668,2.6340764666666665,-5.0277266,-0.23273964,1.2223922666666667
525,1778427606280,5.0916996,0.3117255,2.8606548000000003,-3.6209037,-1.4340062,0.19960022
526,1778427606290,5.14211712,0.32175047599999995,2.87231396,-3.6209037000000004,-1.4340062,0.19960022
527,1778427606300,5.031191,0.20941987285714286,2.947358214285714,-2.8332584142857145,-0.9865255185714286,-1.6213017971428572
528,1778427606310,4.881809,0.11403104999999998,3.0069436999999994,-2.5216517,-0.44119743000000006,-2.3857343
529,1778427606320,4.6376892,-0.008211856666666665,3.106664966666667,-2.0353775333333335,0.2628247616666667,-2.7008387999999997
530,1778427606330,4.373425966666667,-0.08860273,3.2144557333333332,-1.3203852833333334,0.8816312833333333,-2.863379866666667
531,1778427606340,4.216161,-0.089517415,3.234518,-0.5006041,1.398576,-3.1148019999999996
532,1778427606350,4.0317597,-0.10439633600000002,3.1106694000000004,0.46499571,1.8915951333333334,-3.634571916666667
533,1778427606360,3.7626485499999998,-0.271489415,2.7798878333333334,1.4396566,2.2815816,-4.2151227
534,1778427606370,3.4960168,-0.43730195,2.4404167833333332,2.2189679666666664,2.3000602666666663,-4.6903251
535,1778427606380,3.3186693,-0.529787,2.1951282,2.8892398,2.2569942,-5.0935473
536,1778427606390,3.2878443166666664,-0.5468713333333334,2.1402875833333335,3.037680066666667,2.1845048666666664,-5.2018230333333335
537,1778427606400,2.9991688666666665,-0.6565220583333333,1.69919465,3.4535775333333336,1.9231564666666667,-5.602245166666666
538,1778427606410,2.8657160000000004,-0.66955125,1.5491146999999998,3.527085,1.8606445999999999,-5.794973166666668
539,1778427606420,2.83229944,-0.6576481700000001,1.44403542,3.4551147999999996,2.1718091999999998,-6.0615546600000005
540,1778427606430,2.8131722333333333,-0.6861782666666666,1.3838612000000001,3.4052683666666663,2.4879523,-6.285956133333333
541,1778427606440,2.7964232333333334,-0.7426652666666667,1.3530870333333331,3.396054533333333,2.7607036333333332,-6.472931766666666
542,1778427606450,2.7630272,-0.98853326,1.2735499,3.5553885,3.406948,-6.9750123
543,1778427606460,2.7693079,-1.115065,1.2331208,3.7065775,3.5193473999999996,-7.13063
544,1778427606470,2.8207135,-1.431486,1.1312855,4.1515927,3.4110715,-7.3946767
545,1778427606480,2.8759605,-1.624424,1.0733147,4.469344633333333,3.1413745,-7.539044566666667
546,1778427606490,2.9273354,-1.8576082999999999,0.9949666,4.8863110999999995,2.7221682,-7.7199624
547,1778427606500,2.9434136333333334,-2.12695335,0.8726321499999999,5.45810635,2.039348233333333,-7.970340716666667
548,1778427606510,2.9024255,-2.2757425,0.73803085,5.82096035,1.4605788333333332,-8.140109916666667
549,1778427606520,2.8202255,-2.3440392,0.5219207,5.8982096,1.055117,-8.1929245
550,1778427606530,2.79315086,-2.3286236000000002,0.44962380399999996,5.814154240000001,0.9757045200000001,-8.1926801
551,1778427606540,2.7704360833333332,-2.2622559333333334,0.35120952166666664,5.445660033333334,0.8832856966666668,-8.216595833333335
552,1778427606550,2.7604659,-2.1617725,0.24684367,5.0039024,0.7971791600000001,-8.261342
553,1778427606560,2.7714595857142856,-2.121744085714286,0.2525757128571428,4.826315314285715,0.7380997542857143,-8.309250571428572
554,1778427606570,2.7872968,-2.0361555,0.26922303,4.3945646,0.37950003,-8.565247
555,1778427606580,2.7860773,-1.9983484166666667,0.24945561333333333,4.258137933333334,0.08692103333333334,-8.738580333333333
556,1778427606590,2.7581749714285713,-1.9752372857142857,0.1954992157142857,4.123623814285715,-0.23023074028571427,-8.930435571428571
557,1778427606600,2.68088822,-1.95551656,0.127678182,3.9975936599999997,-0.46575419800000006,-9.0691194
558,1778427606610,2.588362566666667,-1.9437516666666668,0.07587841000000001,3.7842084333333332,-0.8061894000000001,-9.228850666666666
559,1778427606620,2.4102017,-1.9111176666666667,0.04853941666666667,3.5474472,-1.324814,-9.296911
560,1778427606630,2.2458222,-1.8813700333333332,0.040876367999999996,3.4848335,-1.7020232999999998,-9.202838
561,1778427606640,2.021703366666667,-1.8135204833333332,0.017135145833333334,3.5094716333333333,-1.9875009,-9.055314000000001
562,1778427606650,1.7858562666666666,-1.7791282166666667,-0.06108080416666667,3.5747833,-2.5033257,-8.720101
563,1778427606660,1.5252313166666667,-1.7624402166666666,-0.16941029,3.586593433333333,-2.7493008999999997,-8.451218333333333
564,1778427606670,1.1031741,-1.7292473000000002,-0.3731925,3.49280532,-3.0416201999999997,-8.087336400000002
565,1778427606680,0.9823540333333334,-1.6984325,-0.4190082,3.1848986,-3.2704198000000004,-7.666206
566,1778427606690,0.56680136,-1.5715145,-0.5561910166666667,2.3188446,-3.1609223000000006,-6.804275
567,1778427606700,0.22290935666666667,-1.5358315333333332,-0.7770575000000001,1.7344500166666668,-2.892014383333333,-6.513350833333334
568,1778427606710,-0.0190011048,-1.6104354400000003,-0.8936618920000001,0.6405532839999999,-2.52999016,-6.45650984
569,1778427606720,-0.255319783,-1.7496447999999998,-0.76791067,-0.26320657000000003,-2.3837490000000003,-6.558783899999999
570,1778427606730,-0.7378885466666666,-2.1797410166666666,-0.23845903499999999,-1.292590885,-2.2149210666666668,-6.736978316666666
571,1778427606740,-1.5523873333333331,-2.8801680666666667,0.46045369,-1.8498017666666666,-1.8742873666666668,-6.7666052
572,1778427606750,-2.064206,-3.1709168,0.67156357,-1.6276505000000001,-1.7069103,-6.527553
573,1778427606760,-2.284544,-3.232017866666667,0.69776428,-1.6276505,-1.7069102999999999,-6.527553
574,1778427606770,-3.0391408500000003,-3.40196675,0.73745155,-1.2712105666666667,-1.6928603666666666,-5.8987692
575,1778427606780,-3.4371517,-3.4708729999999997,0.7107122,-0.7108180666666666,-1.7573574833333332,-4.057341466666666
576,1778427606790,-3.47224525,-3.51322325,0.69004025,-0.6527858783333332,-1.6832900666666666,-3.432935383333333
577,1778427606800,-3.5035582,-3.5644763000000004,0.6147919,-0.96236729,-0.7555894133333334,-0.87277372
578,1778427606810,-3.38291085,-3.4147113499999997,0.61027955,-1.17217405,-0.37575849,-0.013439039999999985
579,1778427606820,-3.2887285,-3.3641595999999994,0.644062,-1.5488489,0.14523321,1.643533
580,1778427606830,-3.2887285,-3.3641596,0.644062,-1.5488489,0.14523321,1.6435330000000001
581,1778427606840,-2.7495420000000004,-3.2159368142857145,0.7233348857142857,-1.5501579,0.7160649885714285,3.1576060714285714
582,1778427606850,-1.9081601,-2.9915159,0.67266124,-1.3443617,1.2670872,4.8659997
583,1778427606860,-1.9081601,-2.9915159,0.67266124,-1.3443617,1.2670872,4.865999699999999
584,1778427606870,-1.20525325,-2.7894920000000005,0.48508931499999997,-1.22845,1.4295774,5.3885948500000005
585,1778427606880,-0.5891400866666666,-2.5640113333333336,0.28837049,-0.98591105,1.9291887666666667,7.147810333333333
586,1778427606890,0.13170482833333333,-2.3319552833333335,0.09827808666666667,-1.125112,2.0361156333333335,8.1403389
587,1778427606900,0.6803446000000001,-2.1755538,0.070613876,-1.357648,2.005776,8.737511
588,1778427606910,0.9435916599999998,-2.1176358,0.11009179039999999,-1.53330232,2.03509758,9.0367736
589,1778427606920,1.4428382,-2.0021899666666667,0.19413733333333336,-1.8872682,2.1250474,9.552863
590,1778427606930,1.7397152333333334,-1.9314338666666666,0.24562409499999996,-1.9635245000000001,2.1578305333333336,9.597609
591,1778427606940,2.2117246166666664,-1.8200960000000002,0.3644420116666667,-2.3323344166666664,2.294384433333333,9.558921
592,1778427606950,2.669363,-1.7027822,0.46899077,-2.4376578,2.234545,9.314473
593,1778427606960,2.7682712142857144,-1.719656114285714,0.5271910314285714,-2.471931585714285,1.9028888857142856,8.8184505
594,1778427606970,2.7548559000000004,-1.72443,0.5955225,-2.4281893,1.5204436,8.451168
595,1778427606980,2.6259153666666664,-1.8123923666666666,0.7149299,-1.7756325166666667,0.46532660333333337,8.008952666666667
596,1778427606990,2.34612476,-1.9666147000000003,0.787948432,-1.033584,-0.50594914,7.733859499999999
597,1778427607000,2.1461618,-2.0614007,0.75345856,-0.25213462,-1.1878275,7.800290999999999
598,1778427607010,2.004080383333333,-2.1276138666666666,0.6530970516666667,0.5033020633333334,-1.6084335833333334,8.056726833333334
599,1778427607020,1.8960862,-2.1505421499999997,0.4115077733333334,1.3266466,-1.8684839999999998,8.643591
600,1778427607030,1.9198070285714286,-2.178933814285714,0.23093683914285715,1.6015359,-1.8162551,8.897557
601,1778427607040,1.9761519999999997,-2.2178733,0.041465834,1.51809182,-1.42640086,9.224003399999999
602,1778427607050,2.0294302857142856,-2.2539031857142855,-0.07257392071428571,1.0948450857142855,-0.8243190085714286,9.549612714285715
603,1778427607060,2.0620105,-2.2961094,-0.10079856,0.5121087083333333,-0.3173699566666666,9.850049166666667
604,1778427607070,2.1557965,-2.3689797,-0.027501603999999995,-0.06688975,0.08032878,10.204504
605,1778427607080,2.18868864,-2.37129696,-0.015561883199999998,-0.137627942,0.14834862399999998,10.2727988
606,1778427607090,2.3594668333333333,-2.3688579666666665,0.027491441000000002,-0.4873431916666667,0.4876995333333334,10.598588666666666
607,1778427607100,2.6291342714285717,-2.2843145714285713,0.0025524138142857147,-0.9218829142857142,0.8760898428571429,10.9050355
608,1778427607110,3.111523,-1.9785299,0.24409962,-1.248914,0.5725334,10.845453999999998
609,1778427607120,3.2003999999999997,-1.74294715,0.3829288533333333,-0.9305005,0.15841771166666666,10.532767333333334
610,1778427607130,3.37401398,-1.5615666799999999,0.376558548,-0.517036336,-0.26294692519999996,10.244209999999999
611,1778427607140,3.677592816666667,-1.5179747,0.20402611999999998,-0.032350402333333333,-0.5812637333333334,10.056572833333332
612,1778427607150,3.8980324,-1.5229547000000003,0.04969802,0.12186762,-0.6611089,10.132116
613,1778427607160,4.4765619333333335,-1.1950494333333335,-0.3164615533333333,-0.4375831466666667,-0.3773111,10.196765999999998
614,1778427607170,5.289282283333333,-0.51058875,-0.6639309983333334,-1.4971288999999999,0.11580986666666665,9.581523333333331
615,1778427607180,5.561335057142857,-0.1944190125714286,-0.5584733471428571,-2.7278187000000003,0.5151557585714286,8.75387357142857
616,1778427607190,5.622401,0.12122658000000001,0.022562291,-4.526817,1.0578659,6.714173
617,1778427607200,5.273854333333333,-0.034727636666666666,0.7036487485,-4.946787,1.3005321,5.334839
618,1778427607210,5.157591857142856,-0.2361723142857143,0.9795954628571428,-4.8760355,1.2469286942857143,4.9573025714285714
619,1778427607220,5.1529226,-0.36081374,1.0446341,-4.76536,0.93599826,4.562094
620,1778427607230,5.197600066666666,-0.3339829066666667,1.1271999,-4.763527333333333,0.82527894,4.537965
621,1778427607240,5.587765,0.023598937,1.674488,-4.5408415,0.5760968000000001,4.364351999999999
622,1778427607250,5.827996685714285,0.4239968571428571,1.8077186285714286,-4.2581454,0.6664321428571428,4.135404928571428
623,1778427607260,5.990593399999999,0.7555929,1.8508397,-3.201722933333334,0.8068257499999999,2.8201866333333334
624,1778427607270,6.0556583,1.0267063,1.8262651,-2.5321891,0.567952,1.8640553
625,1778427607280,6.0556583,1.0267063,1.8262650999999999,-2.0169243,0.2509129133333334,1.0514009
626,1778427607290,5.8846014166666665,1.1813393,1.7777968333333334,-1.3766612,-0.140040865,-0.05184720000000004
627,1778427607300,5.668989342857143,1.2207855285714284,1.739247757142857,-0.7780241828571429,-0.42363505428571424,-1.2936162
628,1778427607310,5.252414585714285,1.110108257142857,1.7135234,-0.4131848971428571,-0.18771016857142858,-2.729433214285714
629,1778427607320,4.9108963,0.9471894,1.72382,-0.31871894,0.16157386,-3.4474180000000003
630,1778427607330,4.5469523,0.7325427333333333,1.6850983333333334,-0.20329085666666666,0.7010442266666667,-4.138713999999999
631,1778427607340,4.0113316,0.44978234,1.5594813,-0.022907447,1.5242615,-4.8953214
632,1778427607350,3.721802483333333,0.2867850416666667,1.4458567333333334,0.082161374,1.8924606,-5.1482196
633,1778427607360,3.4416034000000004,0.11665315,1.3027589,0.3730204991428572,2.3055800571428575,-5.525865085714286
634,1778427607370,3.30751,0.02420873,1.2302547,0.56016341,2.3448063,-5.71159
635,1778427607380,3.2215294,-0.07870668142857142,1.1791889571428573,1.3675091,1.9390826285714287,-6.428985828571428
636,1778427607390,3.1543305,-0.23641623999999997,1.1054304,1.6490307,1.8012888,-6.702566
637,1778427607400,3.08863555,-0.33485695,1.0359039066666667,1.9293924,1.7075210499999998,-7.0414946333333335
638,1778427607410,3.0195461333333333,-0.5825136466666666,0.89846704,2.3505076166666665,1.55444845,-7.613519033333333
639,1778427607420,3.0659715999999997,-0.7512633000000001,0.84065884,2.5416577,1.4495832,-7.9586577
640,1778427607430,3.1687214000000004,-1.0506101,0.78260666,2.6914722999999996,1.425454,-8.302116
641,1778427607440,3.2435224833333334,-1.3914836833333333,0.7007929433333334,2.8334984333333337,1.415782,-8.623329666666665
642,1778427607450,3.26997735,-1.6013738999999998,0.64750732,3.057533266666667,1.3353005333333332,-9.023752166666666
643,1778427607460,3.2328105,-2.0717063,0.46929567999999994,3.2452215999999994,1.2125676,-9.290802
644,1778427607470,3.208175,-2.1359174,0.42734203,3.2918510666666663,1.1275554666666665,-9.345983333333333
645,1778427607480,3.0764091666666666,-2.2176294,0.3559963883333333,3.377652133333333,0.88168215,-9.471694833333334
646,1778427607490,3.050056,-2.2339718,0.34172726000000003,3.3901494,0.8410087,-9.491319
647,1778427607500,3.01102935,-2.2376305999999997,0.34075159,3.4167221,0.6957755,-9.509339500000001
648,1778427607510,2.891245983333333,-2.2315528833333333,0.381668605,3.6710709500000003,-0.08735373499999999,-9.6172335
649,1778427607520,2.8461010833333336,-2.2214508,0.39107971166666666,3.8579959,-0.5444845616666667,-9.693184333333333
650,1778427607530,2.8307140499999996,-2.21002735,0.30091186833333333,3.9598831000000003,-1.0803406666666666,-9.8228405
651,1778427607540,2.801505,-2.195921,0.21586627,3.9058071142857145,-1.3841551571428572,-9.890933714285714
652,1778427607550,2.7619498,-2.1887253333333336,0.18362861,3.6919678,-1.6426675333333334,-9.880694333333333
653,1778427607560,2.6414955,-2.1255507,0.15232596,3.48239,-1.851838,-9.845315
654,1778427607570,2.5803538333333336,-2.1008745666666666,0.14948026666666667,3.3567045000000006,-1.9326248999999998,-9.78148
655,1778427607580,2.327453,-2.0179226,0.10201814999999999,3.114191,-2.121993,-9.53133
656,1778427607590,2.1143308,-1.9449916,0.08762706000000002,2.9594385000000005,-2.3817381666666666,-9.233025
657,1778427607600,2.1143308,-1.9449916,0.08762706000000002,2.928488,-2.4336872,-9.173364
658,1778427607610,1.9798455999999998,-1.871999542857143,0.13485107142857142,2.918343242857143,-2.872855657142857,-8.799579857142858
659,1778427607620,1.6725975,-1.7151611000000002,0.25775895,2.972012,-3.7444513,-8.065712
660,1778427607630,1.4324616,-1.5764334,0.29312685,3.1687107,-4.131587,-7.5780888
661,1778427607640,1.2270838,-1.4728909000000001,0.24629486999999997,3.220787,-4.179998,-7.334658999999999
662,1778427607650,1.033098905,-1.40405555,0.16360711348333332,3.1228958666666666,-4.185979483333333,-7.176928333333334
663,1778427607660,0.67455155,-1.2933072,-0.0037197291000000006,2.8426613999999994,-4.1825943,-6.816187
664,1778427607670,0.45514852666666666,-1.2861015,-0.14560808651666665,2.4412719,-4.083964883333333,-6.518771999999999
665,1778427607680,0.12238519166666666,-1.3412876666666669,-0.3402840866666666,1.77089825,-3.8541014,-6.2945845
666,1778427607690,-0.1273245,-1.475391,-0.39587676999999993,-0.25579983,-3.3261611,-6.1617975
667,1778427607700,-0.48778979999999994,-1.881137657142857,-0.09987517142857143,-1.8941404042857144,-2.991472657142857,-6.250504071428572
668,1778427607710,-0.8219382,-2.2048848,0.3406906,-3.3171510000000004,-2.3738225,-6.319247999999999
669,1778427607720,-1.0563522833333334,-2.3866534666666666,0.6183999333333333,-3.7089955833333335,-1.86973125,-6.322557166666667
670,1778427607730,-1.72308835,-2.7461967,1.0537912166666668,-3.8360301666666667,-1.0586803666666667,-6.177018333333334
671,1778427607740,-2.126561357142857,-2.901562957142857,1.2348629571428573,-3.488869571428571,-0.47160978428571426,-5.820913
672,1778427607750,-2.6709891666666667,-3.1781529,1.3904062999999998,-3.426954,-0.43295074000000006,-5.7737455
673,1778427607760,-3.1128645,-3.457031,1.4209975,-2.237948457142857,-0.7472627514285713,-4.891809
674,1778427607770,-3.197574866666667,-3.512623716666667,1.24648534,-0.96761054,-1.042747,-3.211166
675,1778427607780,-3.0996017166666667,-3.593360016666667,0.9323105166666666,-0.6545930066666666,-0.7778860033333334,-1.7941876499999998
676,1778427607790,-3.0098097,-3.613778033333333,0.6874994733333334,-0.8117890166666667,-0.266184515,-0.3116176383333334
677,1778427607800,-2.9305366999999998,-3.5700252,0.59613234,-1.1398746,0.10873401,0.65316767
678,1778427607810,-2.6553988,-3.4210534,0.6258292,-1.5338825999999999,0.6446410016666667,1.9353482783333333
679,1778427607820,-2.4137471571428573,-3.3266661857142856,0.6374152000000001,-1.7543831571428572,1.261327657142857,3.2561299285714287
680,1778427607830,-1.7662817666666666,-3.0019028333333337,0.5238720483333333,-1.8611537,2.05266,5.0081787
681,1778427607840,-1.4002036,-2.812664,0.45100194,-1.7989982,2.3031401166666665,6.483392916666666
682,1778427607850,-1.1354727333333334,-2.705462733333333,0.4278704933333333,-1.6966782,2.2536347,7.452250500000001
683,1778427607860,-0.5074512,-2.524067157142857,0.40553758999999995,-1.5757269,2.1406245,8.298451
684,1778427607870,-0.09185495,-2.4209746666666665,0.39646620666666665,-1.5058846333333333,2.0519473,8.763931
685,1778427607880,0.661441,-2.2114706,0.38209546,-1.4089607,1.7676913,9.5976095
686,1778427607890,1.2107616666666665,-2.132421133333333,0.40339752333333334,-1.4511613,1.5144368000000001,9.774403833333333
687,1778427607900,1.8218746,-2.0756698,0.41874394,-1.5248724,1.3515394,9.827446999999998
688,1778427607910,2.1255509333333333,-2.11911755,0.39567349,-1.84824915,1.6011032333333333,9.636424499999999
689,1778427607920,2.3386527999999998,-2.1913778666666666,0.4286530333333333,-2.5285748666666668,2.0377446333333333,9.485820833333333
690,1778427607930,2.412153,-2.1957989,0.5395436,-3.084182316666667,2.3811782333333333,9.431555333333334
691,1778427607940,2.3621502,-2.2645833,0.8322436,-3.2746958999999998,2.4233024,9.546602
692,1778427607950,2.3586538666666663,-2.2851943,0.9595681333333334,-3.2746958999999998,2.4233024,9.546602
693,1778427607960,2.40937835,-2.30912865,1.07189175,-2.787225433333333,2.1001548333333333,10.065634
694,1778427607970,2.5120367499999996,-2.3020855499999997,1.1155529,-2.478433,1.98729745,10.2026715
695,1778427607980,2.5443556857142857,-2.2333009857142856,0.9877231428571428,-2.1070706571428572,2.1237822714285715,10.044064571428573
696,1778427607990,2.3816226333333335,-2.2092753,0.8773682800000001,-2.1552598,2.40159135,9.845467750000001
697,1778427608000,2.1650653,-2.1976893,0.78968024,-2.4646630833333334,2.7051659333333333,9.711332166666667
698,1778427608010,1.9942018000000001,-2.221349,0.7702279,-2.6913195,2.7499626,9.716423
699,1778427608020,1.8632896499999998,-2.304179083333333,0.8071507833333333,-2.76533605,2.437148666666667,9.9168885
700,1778427608030,1.8299849000000001,-2.4283123,0.9098092000000001,-2.8104384000000002,1.9179641,10.233673
701,1778427608040,1.8299849000000001,-2.4283123,0.9098092000000001,-2.8104384000000002,1.9179641,10.233673
702,1778427608050,2.0400378,-2.511487966666667,1.0182301333333335,-2.4313965,1.4363986833333333,10.622387
703,1778427608060,3.0732992333333335,-2.4469822333333333,1.1823251166666666,-1.00846215,0.2585487183333333,11.4676965
704,1778427608070,3.4220116857142857,-2.186686942857143,1.0633199085714284,-0.5793402,0.30006572,11.041454428571429
705,1778427608080,3.3977898833333335,-1.8196997499999998,0.9140269333333334,-0.5367978,0.62796944,10.270325
706,1778427608090,3.2384308166666664,-1.6326562666666666,0.8285951083333334,-0.800360725,1.05254628,9.859721666666667
707,1778427608100,2.9988334,-1.4896601,0.68016165,-1.9154188666666665,2.282192633333333,9.346136666666666
708,1778427608110,3.00402695,-1.4825559833333333,0.5423588416666667,-2.521499,2.6710083,9.485516
709,1778427608120,3.3081300499999995,-1.4431532666666669,0.6545706833333333,-3.8690677,3.1468723,9.955576
710,1778427608130,3.7734518,-1.3475176,0.9394451,-5.0439143,3.212693,10.12112
711,1778427608140,4.149510385714286,-1.0885303928571428,1.2461092857142855,-5.335078771428571,3.029804342857143,9.639147957142857
712,1778427608150,4.8834558,-0.44746515,1.8777925,-5.4313555,2.3113613,7.937124700000001
713,1778427608160,5.057449633333333,-0.05043993833333333,2.09020325,-4.707607583333334,1.502601216666667,6.09320245
714,1778427608170,4.853454,0.07360186,1.9155996,-3.998851166666667,0.5021312139999999,3.84542205
715,1778427608180,4.6467957,-0.30312744,1.4877697,-4.154495,-0.021685716000000004,2.6184738
716,1778427608190,4.638127842857143,-0.44847562571428573,1.4425579857142858,-4.3918159999999995,-0.08837911200000001,2.4752695714285715
717,1778427608200,4.692416614285714,-0.7498172714285715,1.6806380714285714,-5.742351428571429,-0.030368730000000003,2.1378321
718,1778427608210,4.810464,-0.8143158600000001,2.1070132,-6.982342200000001,0.5180137,2.0134118
719,1778427608220,4.7348495,-0.573692,2.5840533,-7.5968729999999995,1.3784174,1.7973182
720,1778427608230,4.8517466,-0.33111688,3.0719476,-7.631845000000001,2.0077612,1.599856
721,1778427608240,4.8517466,-0.33111688,3.0719476,-7.551210833333333,2.0125463333333333,1.5402966666666666
722,1778427608250,5.2140236571428575,0.06803532571428572,3.690650814285714,-6.786102285714286,1.9492491714285711,0.9893399599999999
723,1778427608260,5.308663433333334,0.32581169000000004,3.9773864666666667,-4.727537133333333,1.5081244999999999,-0.5791003133333333
724,1778427608270,5.133775,0.2762356,3.8701649000000002,-3.0423635000000004,1.2662727666666667,-2.1537581333333335
725,1778427608280,4.723944416666666,0.06377404166666667,3.626908566666667,-1.6537394833333332,1.0440704666666667,-3.6667695000000005
726,1778427608290,4.282323,-0.164308385,3.4475791500000006,-0.7560984416666666,0.8884525833333333,-4.680806
727,1778427608300,3.1896982,-0.562045,3.1923203,0.109650314,1.0482447,-5.1836495
728,1778427608310,2.8229697,-0.5836926,3.1279263,0.56077427,1.3819299,-5.1176763
729,1778427608320,2.5566649142857143,-0.5806000642857142,2.886274657142857,1.1124728585714287,2.0811960714285713,-4.777773271428572
730,1778427608330,2.399286333333333,-0.5391981499999999,2.540168533333333,1.7637716,3.1511483666666664,-4.2997786666666675
731,1778427608340,2.3557167499999996,-0.46794398333333326,2.26625005,1.9235637666666665,3.544087466666667,-4.154800000000001
732,1778427608350,2.3416002,-0.43819633,2.1581745,2.3102922,4.3482914,-4.061643
733,1778427608360,2.3526460428571427,-0.4846275942857143,2.1303507285714285,2.7332729428571425,4.620693885714286,-4.192368171428571
734,1778427608370,2.3601377,-0.5653988,2.0728648,3.2876768,4.8408017,-4.3484445
735,1778427608380,2.3286827,-0.7177451,1.9488738833333332,4.1722097,4.756044,-4.618905
736,1778427608390,2.329029714285714,-0.8236369057142856,1.8832805857142856,4.527558557142857,4.625667999999999,-4.748670142857143
737,1778427608400,2.3378804,-0.9242003,1.8288871,4.7940702,4.527886,-4.845994
738,1778427608410,2.444123357142857,-1.3259135714285715,1.6098587285714285,5.966909785714286,3.764239071428572,-5.402165142857143
739,1778427608420,2.4582531,-1.3792268000000003,1.5808849,6.030767,3.712381,-5.437159
740,1778427608430,2.476486,-1.9871283,1.1750076,7.2931204,2.0934353,-6.3730044
741,1778427608440,2.4320844428571426,-2.0336205142857144,1.1076865942857144,7.456461257142857,1.6059429514285715,-6.550111685714286
742,1778427608450,2.2614126,-2.1683583,0.8753559599999999,7.6255836,0.82924956,-6.7825894
743,1778427608460,2.2433218666666668,-2.157788566666667,0.8378333866666666,7.549301766666666,0.535805185,-6.858107816666667
744,1778427608470,2.2776937,-2.109635,0.7573003000000001,7.3135843,-0.08200866,-7.05473
745,1778427608480,2.321904,-2.0769506,0.73077434,7.116071216666666,-0.4298200683333333,-7.29093125
746,1778427608490,2.321904,-2.0769506,0.73077434,7.006275342857143,-0.6378087571428571,-7.456111999999999
747,1778427608500,2.3420472,-2.0492049666666667,0.7113423266666666,6.7008862,-1.1983649,-7.9470515
748,1778427608510,2.3331341666666665,-2.0526706166666666,0.6894406316666667,6.503678466666667,-1.4938201,-8.126951166666666
749,1778427608520,2.3397618999999996,-2.0263378714285714,0.6769297099999999,6.2673466428571425,-1.9132081285714284,-8.331852857142858
750,1778427608530,2.3541617,-1.9866405,0.6573554,6.129116499999999,-2.2182045,-8.47545
751,1778427608540,2.3276866999999997,-1.9567096666666668,0.6335227083333334,6.050976416666667,-2.5055656666666666,-8.625366666666666
752,1778427608550,2.2149811571428573,-1.920878557142857,0.5289768814285714,5.962568485714286,-2.9519408428571423,-8.766221428571429
753,1778427608560,2.15707705,-1.8977327,0.47021038,5.889759033333333,-3.256115466666667,-8.798648
754,1778427608570,2.0190814,-1.7587613,0.28026026,5.5345917,-4.236045,-8.755074
755,1778427608580,1.9994284857142859,-1.7222260142857142,0.2335328,5.334053614285714,-4.582667228571429,-8.736092571428571
756,1778427608590,1.9431519166666666,-1.5770534666666667,0.05347873166666667,4.785365733333333,-5.1413474,-8.695361666666665
757,1778427608600,1.9325517,-1.5492368,0.0190255,4.5277333,-5.391802299999999,-8.676578
758,1778427608610,1.8871483857142857,-1.4906270285714285,-0.019931477142857142,4.107894271428572,-5.556474128571429,-8.63181
759,1778427608620,1.7905749285714285,-1.3965449285714284,-0.052259145,3.6594973142857143,-5.704892571428571,-8.57921
760,1778427608630,1.5082238571428572,-1.3373601857142856,0.11098208214285714,1.9537433571428573,-5.166894857142857,-8.11704642857143
761,1778427608640,1.252695,-1.3225771,0.09098092,1.6626225000000001,-4.698012,-7.876191000000001
762,1778427608650,0.8548568166666666,-1.3251890833333333,-0.10083921333333334,1.0070622466666668,-3.651116116666667,-7.2930185
763,1778427608660,0.5731693257142858,-1.3456882857142858,-0.28635818,0.49418998,-2.9798007000000006,-6.968751
764,1778427608670,0.11779142666666666,-1.3922052,-0.5000596900000001,-0.7388415299999999,-1.9468275000000002,-6.6668305
765,1778427608680,-0.15854584,-1.4747812,-0.52765274,-1.9552269,-1.5015068,-6.639342
766,1778427608690,-0.5688238566666667,-1.8086218,-0.20333502999999997,-3.0389018,-1.4337007,-6.742730599999999
767,1778427608700,-0.8971865,-2.1350636,0.1733028,-3.4673365142857144,-1.3439035,-6.8412980857142855
768,1778427608710,-1.0441463,-2.2700105333333336,0.2811139733333334,-3.5890368333333336,-1.1354967,-6.8908144
769,1778427608720,-2.4154370857142857,-3.078960157142857,0.8252397714285714,-3.196832457142857,-0.6745043242857143,-6.450824214285714
770,1778427608730,-2.6512523,-3.1551843,0.8964548,-3.021034,-0.62109727,-6.1608814999999995
771,1778427608740,-3.1430290333333333,-3.2838501,1.0815468666666666,-2.414852,-0.5749769566666667,-5.1271955
772,1778427608750,-3.587709483333333,-3.4708528333333333,1.2135768999999998,-1.448336,-0.51004705,-3.5596645833333334
773,1778427608760,-3.6498733,-3.5419052,1.2038594428571427,-1.0513645571428571,-0.37134062285714287,-2.663394342857143
774,1778427608770,-3.7577803,-3.8472366,0.98030114,-0.70524395,-0.13790283,-1.5858061000000003
775,1778427608780,-3.7684517,-3.9229727000000003,0.87700236,-0.64934975,0.07422013,-0.52412236
776,1778427608790,-3.5777698,-3.99255,0.6830276,-0.7409795428571428,0.3288200371428571,0.89308504
777,1778427608800,-3.120131366666667,-3.824166266666667,0.6286443933333333,-1.093296,1.0989466,3.7001636
778,1778427608810,-2.5304874571428573,-3.6312399142857146,0.5472793142857143,-1.2016809857142856,1.392881842857143,4.305443771428572
779,1778427608820,-1.9607241,-3.4847157,0.42240269999999996,-1.7376062,2.7061331,6.6636233
780,1778427608830,-1.5882111857142858,-3.387915385714286,0.3252367457142857,-2.2504058,3.282026257142857,7.965159328571429
781,1778427608840,-0.6480866,-3.0929244,0.35026434,-2.6245317,3.5027521999999998,8.992140333333333
782,1778427608850,-0.07370094725,-2.87458845,0.41930797375,-2.6571112,3.1784847,9.569662
783,1778427608860,0.38144500766666667,-2.7138169333333333,0.503972475,-2.5189028666666666,2.798348283333333,9.860077
784,1778427608870,0.86858726,-2.5066707,0.59338826,-2.121993,2.2111795,10.2371855
785,1778427608880,1.145676597142857,-2.430568585714286,0.6046084542857143,-1.979377842857143,2.088068285714286,10.323383000000002
786,1778427608890,1.6203689,-2.3072076999999998,0.62656095,-1.55358305,1.7846428,10.5492615
787,1778427608900,1.8872442000000003,-2.2409234,0.6400983,-0.9149234,1.5097534999999997,10.694571000000002
788,1778427608910,2.3548237714285714,-2.1736719714285715,0.6227628000000001,-0.9149234,1.5097535,10.694571
789,1778427608920,2.56219215,-2.1368216666666666,0.6111230499999999,-0.8294277250000001,1.44204925,10.630353666666666
790,1778427608930,2.6638749,-2.087073,0.5875953,-0.40194935,1.103528,10.309267
791,1778427608940,2.6647692666666667,-1.9980230666666667,0.5348584683333334,-0.448222385,1.0121527833333335,9.724414666666666
792,1778427608950,2.5793579,-1.8990132,0.45240447,-0.7076873999999999,0.9941832,8.813563
793,1778427608960,2.4922490500000003,-1.90834305,0.466094285,-0.9506081333333333,1.1081095333333335,8.689455666666667
794,1778427608970,2.4051402000000004,-1.9176729,0.4797841,-1.1000810428571428,1.1797771285714287,8.621773428571428
795,1778427608980,2.4051402,-1.9176729,0.4797841,-1.1701124,1.2165382,8.607702
796,1778427608990,2.1700743142857144,-2.201679085714286,0.6943262528571429,-1.8211638285714287,1.7618881285714285,8.666367142857142
797,1778427609000,2.0351188,-2.3485518,0.82834107,-2.36440485,2.301994666666667,8.855535
798,1778427609010,1.921288,-2.4276416714285713,0.9021519742857143,-2.1508783857142855,2.260354114285714,9.114436714285715
799,1778427609020,1.8377292,-2.4771569,0.9004794,-1.7174730833333332,2.0172552500000003,9.530235833333334
800,1778427609030,1.9018793,-2.53216,0.8058397,-1.382388,1.6997325000000003,9.86303
801,1778427609040,1.9914881666666666,-2.5163968833333334,0.7685306166666667,-1.2805007733333333,1.5654185166666668,9.9464895
802,1778427609050,2.4647343285714283,-2.4134509714285715,0.5733087357142858,-0.3492622,0.28695396,10.603857
803,1778427609060,2.6441888166666665,-2.2364415,0.5145015816666666,-0.15465071,0.12527828333333332,10.583342333333334
804,1778427609070,2.7854064,-2.075304,0.48075974000000005,-0.16584991,0.25977045,10.465649
805,1778427609080,2.822685,-1.9709076,0.49230514000000003,-0.2508619966666667,0.50432015,10.286461666666668
806,1778427609090,2.9499106714285714,-1.8284428714285714,0.5208404900000001,-0.4166755485714286,0.9219047485714286,9.860848285714285
807,1778427609100,3.0285912,-1.8205940000000003,0.5291162,-0.44785586000000005,0.9566454959999999,9.6185618
808,1778427609110,3.167908433333333,-1.7568504999999999,0.5024480100000001,-0.34040465999999997,0.6640614,9.348478333333334
809,1778427609120,3.3736727,-1.6496084,0.43624496000000007,-0.1394736257142857,0.28261243571428574,9.145176714285714
810,1778427609130,3.52612045,-1.4253067333333334,0.31057706,-0.035888333,-0.045814894,8.728195
811,1778427609140,3.6049969666666666,-0.9191694733333332,0.20491032666666667,-0.4684827521666666,0.03733913766666667,8.184423
812,1778427609150,3.67939155,-0.8163890899999999,0.2587549333333334,-1.01317095,0.2764674283333333,7.731619666666667
813,1778427609160,3.984640257142857,-0.7581888342857143,0.43587038,-1.7874571428571429,0.7830637885714287,7.131655542857142
814,1778427609170,4.25659,-0.8260848,0.54484886,-2.2029328,1.2417363,6.6915708
815,1778427609180,4.25659,-0.8260848,0.54484886,-2.2029328,1.2417363,6.6915708
816,1778427609190,4.25659,-0.8260848,0.54484886,-2.2029328,1.2417363,6.6915708
817,1778427609200,4.687067971428571,-0.6624863999999999,0.48902678000000005,-3.750428914285714,2.6731681857142857,5.481642828571429
818,1778427609210,4.84799655,-0.5123977916666667,0.8349267916666666,-4.528115000000001,2.8144089,4.75925115
819,1778427609220,4.9856567,-0.37044844,1.2616589,-4.835151,2.16399,3.7088683
820,1778427609230,5.069381,-0.08774903,1.6047888,-4.56092975,1.991038875,3.3814827375
821,1778427609240,5.151154,0.19269417,1.7396747,-3.865148,1.7262034000000002,2.680782133333333
822,1778427609250,5.189753857142857,0.3153494057142857,1.6946285285714284,-3.2601660000000003,1.5504414285714285,2.0358393571428572
823,1778427609260,5.333212057142857,0.5694060285714285,1.4772464714285716,-2.467437571428572,1.1327404857142855,0.7216936714285714
824,1778427609270,5.4186697,0.5251526,1.3908739,-2.1862867,0.7099781,-0.2574797
825,1778427609280,5.475634616666667,0.3977569583333333,1.4403178166666668,-2.0999510333333333,0.4028147133333333,-0.9411396999999999
826,1778427609290,5.47858195,0.34399365833333334,1.4612336666666668,-2.0363955833333334,0.20866138666666667,-1.422628783333333
827,1778427609300,5.240262271428571,0.13362277857142857,1.580571357142857,-1.8518815714285712,-0.030630529999999996,-2.7040822714285717
828,1778427609310,4.732882925,-0.004268544750000002,1.705678825,-1.61119525,0.2091831675,-3.7881282499999998
829,1778427609320,4.224758742857143,-0.17364253514285716,1.7703036714285714,-1.2745703,0.59559363,-4.5556803
830,1778427609330,3.750515142857143,-0.38039677,1.744570542857143,-0.9034478571428571,0.9104291971428572,-4.947768614285715
831,1778427609340,3.4822764,-0.49569967,1.6495476,-0.4017966,1.3083206,-5.398063699999999
832,1778427609350,3.4061744,-0.5218292349999999,1.60826465,-0.276111085,1.3939945,-5.4839666
833,1778427609360,3.3300724,-0.5479588,1.5669817000000001,-0.15042557,1.4796684000000002,-5.5698695
834,1778427609370,3.06342268,-0.56217912,1.4180705,0.4372878780000001,1.81668268,-5.97212398
835,1778427609380,2.9354675857142856,-0.5719235785714286,1.3392332,0.7658068428571428,1.977348957142857,-6.2394866
836,1778427609390,2.727449942857143,-0.6308556428571428,1.2381819714285716,1.0430524,2.0367775,-6.512282
837,1778427609400,2.690604066666667,-0.6659128666666666,1.2353769000000001,1.4240287,2.155081733333333,-6.7992864666666675
838,1778427609410,2.6635702,-0.6991262,1.2336695,1.7635679,2.245388,-7.0302954
839,1778427609420,2.63901988,-0.847451918,1.15873832,2.02150574,2.3010072800000003,-7.199352360000001
840,1778427609430,2.622653,-0.94633573,1.1087842,2.1934643,2.3380868,-7.312057
841,1778427609440,2.6989381,-1.29971,0.96773934,3.0309606,2.219579,-7.861072
842,1778427609450,2.72808605,-1.4113323500000001,0.923498985,3.2340733,2.0826688,-8.0215005
843,1778427609460,2.764084,-1.6327375000000002,0.8372236533333334,3.7107773,1.6690366,-8.4220755
844,1778427609470,2.7697869857142856,-1.8919744571428574,0.7346509,4.082608914285714,1.2661272714285714,-8.746782999999999
845,1778427609480,2.7394715857142855,-2.0179400285714286,0.6663542428571428,4.464923142857143,0.5975789,-9.062426142857143
846,1778427609490,2.653101866666667,-2.2462286333333332,0.47147058000000003,4.532671,0.20937405533333334,-9.158957333333333
847,1778427609500,2.617788211111111,-2.2685132444444442,0.40162235,4.545601,0.056963183,-9.190315
848,1778427609510,2.606972642857143,-2.2617610285714287,0.3896830228571429,4.4668866,-0.08593565214285714,-9.193325571428572
849,1778427609520,2.5722842,-2.1679924,0.3501424,4.128838242857143,-0.600807782857143,-9.220378071428572
850,1778427609530,2.5722842,-2.1679924,0.3501424,4.0723333,-0.6638578,-9.2281885
851,1778427609540,2.583885525,-2.1545922500000003,0.33870880000000003,3.9836432750000004,-0.7197519750000001,-9.267092875
852,1778427609550,2.651966642857143,-2.0987113714285712,0.2740055357142857,3.5894660000000003,-0.8932813285714286,-9.438871142857142
853,1778427609560,2.6475327,-2.0670109,0.18988912,3.2095078,-0.8255843657142857,-9.535126571428572
854,1778427609570,2.6416987,-2.0527926666666665,0.14401247166666667,3.1024318,-0.8035932,-9.53408
855,1778427609580,2.6338732,-2.025606,0.06372323,2.7631833714285716,-0.7092363785714285,-9.488701428571428
856,1778427609590,2.5463244571428567,-1.9613688,0.0041901397142857155,2.204002,-0.6078108999999999,-9.382585
857,1778427609600,2.531733,-1.9506626,-0.005732042,2.204002,-0.6078109,-9.382585
858,1778427609610,2.3030611428571426,-1.9010952428571426,-0.012178410571428572,1.8576630714285716,-0.7905250714285714,-9.245576428571429
859,1778427609620,2.100392614285714,-1.8636714428571428,0.019173592,1.659240857142857,-0.9351692114285715,-9.083980857142857
860,1778427609630,2.0559127,-1.8566327,0.032745812,1.6352862,-0.9637926,-9.041264
861,1778427609640,1.6627189,-1.6836349,0.07262619,1.6006197,-1.0549643,-8.236754
862,1778427609650,1.6378190833333335,-1.6732176166666666,0.06806291499999999,1.6006197,-1.0549643,-8.236754
863,1778427609660,1.3109388857142859,-1.530864542857143,-0.02834660057142857,1.4984088285714285,-0.7336273514285715,-7.5785032857142856
864,1778427609670,1.0153793675,-1.4959256,-0.132019893,1.313703875,-0.6250678525,-7.3878804250000005
865,1778427609680,0.61893857,-1.5034413,-0.25135612,0.9865474428571429,-0.4743368614285714,-7.380255542857143
866,1778427609690,-0.040246252,-1.4864283,-0.31331098,0.6017023,-0.34697145,-7.6245146
867,1778427609700,-0.36736463114285717,-1.5616417285714286,-0.3035107514285714,0.2990621857142857,-0.25429447285714285,-7.728710828571429
868,1778427609710,-1.17000729,-1.857506833333333,-0.2523521266666667,-0.29723684166666664,-0.0346156975,-7.703265166666667
869,1778427609720,-1.8477906999999998,-2.3253186,-0.14525238,-0.4137303071428571,0.03368485642857143,-7.619060228571429
870,1778427609730,-2.2395514000000003,-2.5488378,-0.11518964999999999,-0.5258022833333332,0.17091501166666667,-7.330280916666666
871,1778427609740,-2.9570323,-2.8717225,-0.09549338,-0.503963825,0.4676173350000001,-6.1882175
872,1778427609750,-3.6062905,-3.0279554857142856,-0.11312506,-0.38892481000000007,0.6203772857142857,-4.921413971428571
873,1778427609760,-3.838221916666667,-3.1853077333333335,-0.15595422166666664,-0.25134559500000003,0.6806566083333334,-3.7859646333333328
874,1778427609770,-4.007524685714285,-3.3496816285714286,-0.28145370714285717,-0.20795598142857144,0.7595673071428573,-3.1495993857142857
875,1778427609780,-4.2283564,-3.4848986,-0.44862375,-0.23884831,0.9897544399999999,-2.0086777
876,1778427609790,-4.274192316666667,-3.5846503500000004,-0.584454875,-0.44552438499999997,1.0894018233333334,-0.9107746166666666
877,1778427609800,-4.15634,-3.6191747,-0.6577823,-0.6162539457142857,1.1258246571428572,-0.1473712285714286
878,1778427609810,-3.7685735,-3.550939,-0.6034498,-1.2121093,1.272585,2.6019804
879,1778427609820,-3.350652816666667,-3.46470425,-0.5185464866666667,-1.4607823833333333,1.3826680833333331,3.4095950666666663
880,1778427609830,-2.3080616,-3.2212245000000004,-0.36038688,-1.8613064,1.8706219999999998,5.258023
881,1778427609840,-1.7786751714285713,-3.0762248571428574,-0.4061648228571429,-2.4451408,2.556929,6.4566927
882,1778427609850,-1.22315062,-2.9188594,-0.45530097499999994,-2.9650126333333335,2.900031916666667,6.96129295
883,1778427609860,-0.39099842,-2.6869252,-0.4693567,-3.8163805,3.2523992,7.5483093
884,1778427609870,-0.11333994466666668,-2.6135874666666665,-0.38979919333333335,-4.330016433333333,3.3352733333333333,7.8181077666666665
885,1778427609880,0.50332206,-2.4765468,-0.10464026,-5.54742,3.258508,8.442768
886,1778427609890,0.90095701,-2.4383841333333334,0.17535576500000002,-5.8779233333333325,2.9963449166666667,8.598666333333334
887,1778427609900,1.4236196,-2.376785,0.54869056,-6.066579,2.5240696333333337,8.579195166666667
888,1778427609910,1.7154833428571428,-2.355250742857143,0.7548349942857142,-5.913939,1.7556267,8.267908
889,1778427609920,1.9103118714285714,-2.3267559571428573,0.9314568000000001,-5.708971857142857,1.3543100571428572,8.029670857142857
890,1778427609930,1.9320028999999999,-2.3306239,1.0042659,-5.5612406666666665,1.10342625,7.8791945000000005
891,1778427609940,1.9608024714285714,-2.3677339857142856,0.9962166685714287,-4.9967687142857145,0.2640465,7.492284
892,1778427609950,1.9190754333333333,-2.3672926333333333,1.0897180333333334,-4.5594983,-0.43020186,7.452098
893,1778427609960,1.9178559,-2.4157507,1.0975641,-4.352567657142857,-0.6066982457142858,7.525838
894,1778427609970,1.9139328666666666,-2.4738943333333334,1.0810590333333334,-4.1980186999999995,-0.6869179500000001,7.62566
895,1778427609980,1.8880196142857142,-2.546237428571428,1.0321334285714285,-4.081081714285714,-0.5131486285714285,7.911185000000001
896,1778427609990,1.8864515,-2.5624056,1.0196936,-4.096768,-0.36957347,8.072737
897,1778427610000,1.9104874166666665,-2.6265862666666666,0.9735019,-4.432820116666666,0.18180876666666665,8.49354675
898,1778427610010,1.9050502,-2.636861,0.9724958,-4.665178,0.5421429,8.7474375
899,1778427610020,1.9010255714285713,-2.6232191428571427,0.9792906285714286,-4.771970357142857,0.6226462285714286,8.789216428571429
900,1778427610030,1.8531772333333334,-2.5602103333333335,1.0054754,-4.86050205,0.6036875933333333,8.779584666666667
901,1778427610040,1.7953398857142857,-2.5193629142857143,1.0207128571428572,-4.845317857142858,0.48428523142857144,8.748397714285714
902,1778427610050,1.72127415,-2.496289,0.9999592475,-4.6497536,0.1217149,8.67169
903,1778427610060,1.6931473999999997,-2.503378,0.96401966,-4.5796566,-0.038789943,8.670927
904,1778427610070,1.7730302571428571,-2.578861428571429,0.93331226,-4.640306885714286,-0.1655444765714286,8.735940571428571
905,1778427610080,2.047732642857143,-2.7123882571428575,1.0138396571428572,-4.968625,-0.2930626,8.988577
906,1778427610090,2.14604,-2.7021089,1.0970762,-5.166851,-0.24404067,9.08265
907,1778427610100,2.2656549714285714,-2.6723945857142857,1.2361348142857143,-5.294020014285715,-0.14220070499999998,9.081864428571427
908,1778427610110,2.5208178,-2.4546554,1.7543095,-5.283198857142858,0.2545344628571428,8.896816428571428
909,1778427610120,2.5450568833333334,-2.2341445666666666,1.9303971500000001,-4.780224166666667,0.464715755,8.688336166666668
910,1778427610130,2.6125915,-2.063352,2.0103002,-4.327675,0.47693303,8.561582
911,1778427610140,2.8698829666666668,-1.8720400666666668,1.8589905333333334,-3.90327625,0.292528088,8.4794205
912,1778427610150,3.231643271428571,-1.6275775857142858,1.6719529000000002,-3.4788775,0.10812314599999999,8.397259
913,1778427610160,3.4057475333333334,-1.4691711333333333,1.6403598666666668,-3.4380513333333336,-0.32126420266666667,8.1743951
914,1778427610170,3.790848457142857,-1.0288231142857143,1.6855425285714285,-3.3952326285714287,-1.3492049571428573,7.555268728571428
915,1778427610180,4.119891771428572,-0.5415821257142858,1.9575445285714286,-3.5939820142857144,-1.7977763857142857,6.393358985714286
916,1778427610190,4.292062,-0.3227365985714286,2.128861214285714,-3.8551487142857144,-1.3942998714285715,5.265069057142857
917,1778427610200,4.355018642857142,-0.31583723142857145,2.2152686,-4.552276999999999,0.10258172714285715,3.451715885714286
918,1778427610210,4.344663866666667,-0.40632452,2.241858433333333,-5.111567666666667,0.8858563966666667,2.8775316666666666
919,1778427610220,4.3622665,-0.5116152,2.3336117,-5.916076999999999,1.7026341,2.2110267
920,1778427610230,4.418585071428572,-0.48848667142857144,2.5735211999999996,-6.1082377999999995,1.6984453571428573,1.9666805857142857
921,1778427610240,4.4838589,-0.4644173266666667,2.7516646666666666,-6.194428133333333,1.4226542666666664,1.5030339333333333
922,1778427610250,4.638693699999999,-0.33900061,3.120870357142857,-5.5008414,0.5306455468571428,0.5679737888571428
923,1778427610260,4.724422,-0.17744937999999996,3.4403833999999995,-4.842633999999999,-0.027488936,-0.019089539
924,1778427610270,4.866851714285715,-0.07291365999999999,3.5650945999999997,-4.006316114285714,-0.574256948,-0.5019785055714285
925,1778427610280,5.073371085714285,0.0029444222857142855,3.658271,-3.016867114285714,-0.93202765,-1.1678434
926,1778427610290,5.1428306,0.011311635,3.67109845,-2.7547732000000003,-0.9620364166666665,-1.4016047833333332
927,1778427610300,5.062412142857143,-0.0787415297142857,3.5977797285714286,-2.053467228571429,-0.8022188285714285,-2.259110457142857
928,1778427610310,4.45587,-0.3904496,3.3644037,-1.1738648285714286,0.4775002714285715,-3.9964985714285715
929,1778427610320,4.062989642857143,-0.5846247071428572,3.189393414285714,-0.8768970285714286,1.7113389,-4.596368571428571
930,1778427610330,3.4452012,-0.7969977,2.8733995,-0.6592545142857142,2.838254385714286,-4.795074171428572
931,1778427610340,3.4452012,-0.7969977,2.8733995,-0.5510005,3.4037411,-4.8455358
932,1778427610350,3.4452012,-0.7969977,2.8733995,-0.5510005,3.4037411,-4.8455358
933,1778427610360,3.0012552714285716,-0.9488009857142857,2.472809857142857,0.05801035714285715,4.249462457142857,-4.881642371428572
934,1778427610370,2.6764977,-1.0607935,2.247692,0.3016147,4.587751,-4.896085
935,1778427610380,2.566796,-1.106589,2.1943352,1.6856826999999999,3.885561,-5.216331000000001
936,1778427610390,2.5185006,-1.150563642857143,2.1530000857142855,2.137635671428572,3.7014288285714287,-5.334053285714286
937,1778427610400,2.4070308,-1.2618419,2.0471926,2.4766004,3.5633297,-5.422345
938,1778427610410,2.4070308,-1.2618419,2.0471926,2.4766004,3.5633297,-5.422345
939,1778427610420,2.3140883,-1.4644959833333333,1.8548541833333332,4.409225066666667,3.2559881166666664,-5.88813
940,1778427610430,2.2779378,-1.6137962571428572,1.6330307857142858,5.739384,2.9714012,-6.1926465
941,1778427610440,2.3719416571428567,-1.7957232714285714,1.4192639285714286,6.311547,2.6474244714285717,-6.416026842857144
942,1778427610450,2.4573994,-1.9545653,1.2654397,6.934542,2.1375701,-6.7751064
943,1778427610460,2.490458828571428,-2.0428543714285716,1.2003226999999999,7.035727571428572,2.014524442857143,-6.855827857142858
944,1778427610470,2.5215497,-2.3412342,0.94127446,7.867791614285714,0.7303984714285715,-7.561071785714285
945,1778427610480,2.4957815,-2.4042691714285715,0.8455719657142858,8.128849471428572,-0.011453725714285712,-7.841458871428571
946,1778427610490,2.4914868,-2.414775,0.82962155,8.203047857142858,-0.47937649857142856,-7.999520685714286
947,1778427610500,2.429706257142857,-2.407196228571429,0.7295808757142856,8.152368142857142,-1.2081823714285715,-8.288110285714286
948,1778427610510,2.3057356714285713,-2.3457206142857143,0.5255533242857143,7.942731642857143,-1.5454235857142857,-8.449640857142857
949,1778427610520,2.2075677,-2.2695227,0.40148684,7.5896955,-1.9344575,-8.57609
950,1778427610530,2.1842889750000003,-2.1957989749999998,0.339425285,7.270708875,-2.2106069,-8.643896000000002
951,1778427610540,2.2169662625,-2.1034688,0.23810078125,6.8142398875,-2.5284286,-8.7411
952,1778427610550,2.2765353,-1.9944456,0.1203119,5.9621973,-2.9863675,-8.933905
953,1778427610560,2.262771442857143,-1.9444426857142856,0.080326988,5.764408028571429,-3.0412799285714285,-8.985479285714286
954,1778427610570,2.2283618,-1.8194354,-0.019635292,5.00191735,-3.1909310000000004,-9.1448055
955,1778427610580,2.216479571428571,-1.8116474857142857,-0.022065747428571425,4.285764971428572,-3.252792,-9.231962571428571
956,1778427610590,2.0729767833333335,-1.7251312499999998,-0.026891813333333334,2.9814806,-3.165351,-9.211542
957,1778427610600,1.9998206142857142,-1.6771449285714286,0.0015419021428571425,2.4295638,-2.9823968,-8.967349
958,1778427610610,1.9763349,-1.6611335,0.012134855,2.3597069999999998,-2.9444795428571426,-8.898626714285715
959,1778427610620,1.904893357142857,-1.5977151142857144,0.029932059528571427,1.940413457142857,-2.6814803428571428,-8.212646714285714
960,1778427610630,1.8099227,-1.4290468,0.0009756667,1.755103114285714,-2.5462172142857145,-7.675085428571428
961,1778427610640,1.764014057142857,-1.3656285142857143,-0.08387249094285713,1.4827881142857144,-2.385472357142857,-7.160911428571429
962,1778427610650,1.6773365714285713,-1.28815,-0.14797030485714285,1.3275629,-2.32984,-6.95409
963,1778427610660,1.539933,-1.255726542857143,-0.10638251557142857,1.2054989,-2.3103141428571425,-6.790792428571429
964,1778427610670,1.2957027571428572,-1.2483743142857142,-0.000531389142857143,1.0843293857142857,-2.3198698285714285,-6.510645628571429
965,1778427610680,1.1161627,-1.2465972,0.04494165,1.1122329,-2.334727,-6.395301
966,1778427610690,0.5534469399999999,-1.250621742857143,0.14330974714285713,1.3134257571428571,-2.3916683714285716,-6.102871285714286
967,1778427610700,0.05067369,-1.2564148,0.09122483399999999,1.3408492333333335,-2.3712262,-5.843995266666667
968,1778427610710,-0.017440040000000004,-1.302637,0.03465649466666667,1.3377948999999998,-2.35626,-5.7389264
969,1778427610720,-0.2744062666666667,-1.4825661666666665,-0.12647079266666666,0.7660250466666668,-2.1475986333333332,-5.7738472666666665
970,1778427610730,-1.1831875271428574,-2.139758957142857,-0.088986024,-0.46534843142857135,-1.7461801142857143,-6.110332285714286
971,1778427610740,-1.8504433333333334,-2.6571468666666664,0.13842271666666667,-1.9767600333333337,-0.9475028866666667,-6.226091333333334
972,1778427610750,-2.493621,-2.9646852000000004,0.49454108,-3.5046866,0.39538252,-5.7615285
973,1778427610760,-2.6242281666666667,-2.9856721999999998,0.5630003566666667,-3.5046866,0.39538252,-5.7615285
974,1778427610770,-3.738267,-3.134695,1.1448839,-3.5501088714285713,1.1062551571428572,-4.702986014285714
975,1778427610780,-3.9376687714285716,-3.1470826857142855,1.2582005857142857,-3.0151872571428577,1.0758209857142857,-3.904825157142857
976,1778427610790,-4.0216892571428575,-3.177241157142857,1.261928985714286,-1.0117673714285715,0.53206364,-1.7512634142857142
977,1778427610800,-3.936318542857143,-3.185447242857143,0.9373456142857143,0.07963065428571427,0.25139285857142857,-0.6036876
978,1778427610810,-3.7831826000000004,-3.1187009857142862,0.3663018842857143,0.3344269077142857,0.30730884857142854,0.21225384571428568
979,1778427610820,-3.747536,-3.08768,0.24501431000000004,0.123547494,0.61575216,1.2707524
980,1778427610830,-3.645003714285714,-3.0720870000000002,0.20071728857142856,-0.3392920202857143,0.9662797314285714,2.255510857142857
981,1778427610840,-2.829468185714286,-2.9021902285714285,0.3709275771428571,-0.9608256,1.4891803428571428,3.8205694142857145
982,1778427610850,-2.4417279,-2.8179083000000005,0.46069762,-1.0419834,1.7203492,4.7702465
983,1778427610860,-2.1070741857142856,-2.7524689285714286,0.4743221,-0.9145743571428572,1.8001980571428573,5.519974500000001
984,1778427610870,-1.5532714833333332,-2.64723765,0.4639599933333334,-0.8249480583333334,1.8365663666666665,5.950209133333334
985,1778427610880,-1.0643739971428572,-2.5501835571428573,0.38996178000000004,-0.46761733,1.8773416,7.1420836
986,1778427610890,-0.34884149666666664,-2.4277432666666665,0.22053115999999998,-0.4118759,2.0673208,8.130464
987,1778427610900,0.31245726,-2.3381243,0.076102,-0.61208695,2.2997549,8.544325
988,1778427610910,0.5636217400000001,-2.2922679571428572,0.050769512571428574,-0.8510225214285715,2.4641649,8.83038442857143
989,1778427610920,1.0914052,-2.1959817,0.05250306,-1.5448782,2.7747025,9.523848
990,1778427610930,1.3320289333333333,-2.153174433333333,0.11470181333333333,-1.7330246666666669,2.7888542333333333,9.694991333333334
991,1778427610940,2.0027997,-2.0238986,0.36965573,-2.0849702714285714,2.5864907571428573,10.106110999999999
992,1778427610950,2.4612847714285713,-1.9033515142857145,0.5708085428571429,-2.0151791,2.1864611999999997,10.022683857142855
993,1778427610960,2.6237507,-1.8547423,0.6530869,-1.7820467,1.7751743999999998,9.711535
994,1778427610970,2.7323443666666667,-1.8411745499999999,0.67620815,-1.597565366666667,1.5042556666666667,9.448151000000001
995,1778427610980,2.7531992666666665,-1.8079712499999998,0.6785457083333334,-1.3390674999999999,1.0108292733333333,8.906771666666666
996,1778427610990,2.622051857142857,-1.7775252285714287,0.6788723914285714,-1.1821987857142857,0.7679012171428571,8.162272428571429
997,1778427611000,2.4539237,-1.8285823,0.63034165,-1.2017246,0.8382598,7.7899065
998,1778427611010,2.1960529833333333,-1.9002024000000002,0.575602725,-1.2992594333333332,0.9875654666666667,7.750403866666666
999,1778427611020,2.0332894,-1.9619439000000003,0.55649585,-1.8950821,1.7814867166666666,7.798534766666666
1000,1778427611030,1.9352957999999998,-2.0492659,0.5776557,-2.2783237,2.1789562333333334,7.968228000000001
