id,timestamp,acc_x,acc_y,acc_z,gyro_x,gyro_y,gyro_z
0,1778427376150,-0.0945481995,0.5850341299999999,0.5783569,-0.15615242899999998,0.008895725575,-0.48201086
1,1778427376160,-0.06752426299999999,0.5683664966666667,0.54901575,-0.3777692433333333,0.03385211691666667,-0.4671592
2,1778427376170,-0.05927175,0.5587521,0.5420438,-0.59437186,0.17256944,-0.4633413
3,1778427376180,-0.049962264,0.53543774,0.5706836666666666,-0.7059056733333332,0.24480425333333333,-0.45494189999999995
4,1778427376190,-0.031343292,0.48880902,0.6279634,-0.9414451333333332,0.4093051733333333,-0.43188173333333335
5,1778427376200,0.014391082800000001,0.42744365,0.7050411533333333,-0.9989682866666668,0.5515604266666667,-0.3864231866666667
6,1778427376210,0.05457635,0.334836615,0.7155600300000001,-0.9733119499999999,0.6119088033333334,-0.34786231166666665
7,1778427376220,0.08052734114285716,0.25677456,0.6828882714285714,-0.8516334,0.3987422957142857,-0.2633265457142857
8,1778427376230,0.102688916,0.199036,0.6571725,-0.7959574000000001,0.27351493,-0.21899517999999998
9,1778427376240,0.19598705,0.08921252,0.61759704,-0.5888741,-0.30573806,-0.14156802
10,1778427376250,0.21062204666666665,0.05632442383333334,0.598032885,-0.4504876666666667,-0.8205193099999999,-0.104127069
11,1778427376260,0.24429996428571427,-0.017021900714285713,0.5584559614285715,-0.22351122742857146,-1.7534668857142857,0.0012653628571428588
12,1778427376270,0.34434935000000005,-0.18336436,0.49399224,-0.07416922166666667,-2.3210079666666665,0.09185885916666665
13,1778427376280,0.36912432,-0.3543412342857143,0.37630244714285715,0.1301142957142857,-2.9601657714285716,0.32574389142857146
14,1778427376290,0.3678873200000001,-0.37611952,0.34971552999999994,0.21991149,-3.2125404,0.46196683999999993
15,1778427376300,0.37013486,-0.40052859999999996,0.2851124585714286,0.3124575814285714,-3.539658685714286,0.6639450628571428
16,1778427376310,0.3801339733333333,-0.41282898333333334,0.10668306100000001,0.36875899500000003,-3.8365901,0.8500953333333333
17,1778427376320,0.4081074257142857,-0.4195279428571429,0.049471529714285714,0.46074513,-4.43702,1.2244794
18,1778427376330,0.51738791,-0.45362404,-0.06095883866666666,0.50831625,-5.8028381,1.8489364000000001
19,1778427376340,0.57527745,-0.47801572,-0.08738313999999998,0.50686544,-6.1236186,1.9532416
20,1778427376350,0.6210525033333333,-0.48045486,-0.094497384,0.5005531733333334,-6.472931733333333,2.0789779999999998
21,1778427376360,0.6812287850000001,-0.502590295,-0.115677488,0.4817690666666667,-6.725295416666666,2.1854721833333333
22,1778427376370,0.7238227266666666,-0.5276324066666667,-0.13927642666666665,0.37731109,-7.161580333333333,2.4347562000000003
23,1778427376380,0.7718569000000001,-0.5170685314285713,-0.18107327428571432,0.046447567142857145,-7.421096371428571,2.687850685714286
24,1778427376390,0.7975465666666667,-0.5025699966666667,-0.1726320166666667,-1.1377366,-7.5240273,3.399618
25,1778427376400,0.96310496,-0.44392833000000004,-0.033294626,-2.053958,-7.093494499999999,3.9389354166666664
26,1778427376410,1.2490537742857144,-0.33207512285714286,0.2840148097142857,-2.855337,-6.329022,4.424955
27,1778427376420,1.4155095,-0.269284,0.43874508000000007,-3.6459492,-5.251074099999999,4.483369199999999
28,1778427376430,1.7290440833333334,-0.12593214166666666,0.5857557133333333,-4.272875216666667,-4.441855833333333,4.339764883333333
29,1778427376440,1.8709802142857144,0.0064463700000000025,0.7934347828571429,-4.8586693,-3.8734964999999995,3.9054143
30,1778427376450,1.8698739,0.13051284314285713,1.079435802857143,-4.8586693,-3.8734964999999995,3.9054143
31,1778427376460,1.7850431666666668,0.2822522433333334,1.5116329666666666,-5.147812233333333,-3.7487781666666664,3.196199633333333
32,1778427376470,1.6785735,0.468381,2.0656693,-4.836394585714286,-3.9521890714285712,2.5245314142857143
33,1778427376480,1.6352377,0.9252369000000001,3.0237536333333335,-3.5527923,-4.4994807,2.2110267
34,1778427376490,1.6524745,1.1482987,3.2743373,-3.177153814285714,-4.553934957142857,2.1771237
35,1778427376500,1.7165839,1.3231463,3.1585176999999995,-1.2124657253333333,-4.1306199,1.8932495833333334
36,1778427376510,1.7667668428571428,1.4554246285714285,3.057617585714286,-0.002443461,-3.3115005,1.6100881
37,1778427376520,1.9732247857142855,1.8640548,2.5126205285714285,0.08395033957142858,-2.805878614285714,1.3731596428571429
38,1778427376530,1.9381516166666666,1.98396745,2.3067708000000002,0.03642284500000001,-1.6374243,0.77999857
39,1778427376540,1.7962633,2.1176236,2.1009152,-0.20647245,0.006261366666666657,-0.09526952666666667
40,1778427376550,1.7962633,2.1176236,2.1009152,-0.23258694,0.17715092000000002,-0.18723019999999999
41,1778427376560,1.6085288333333334,2.0329744,2.0032877166666667,0.082721335,1.3370058366666668,-1.0530807666666666
42,1778427376570,1.4644147500000002,1.8918177500000002,1.8466931000000002,0.37766742666666664,1.7350099666666665,-1.451314
43,1778427376580,1.4936237833333335,1.6932593333333334,1.5977050333333336,1.4016303,1.771051,-2.1610885
44,1778427376590,1.5943613000000003,1.5643595,1.4583777,1.8209892999999997,1.6258179,-2.5654814
45,1778427376600,1.7553463,1.4136800999999999,1.364043,2.17613105,1.49211475,-2.8403452333333328
46,1778427376610,1.943772,1.273123,1.3409319,2.6277895,1.2922854,-3.2727106
47,1778427376620,2.028609225,1.211884675,1.353874725,2.698649875,1.269148875,-3.3546047
48,1778427376630,2.2314107,0.9880454499999999,1.3272116,3.1764076,1.1793974999999999,-3.8760925999999998
49,1778427376640,2.281779466666667,0.8943408133333334,1.2582644666666667,3.4191656,1.1571314,-4.123646
50,1778427376650,2.3491004,0.7591297,1.1628118,3.72663435,1.0849730666666666,-4.437350666666667
51,1778427376660,2.3695488,0.6485541,1.1119958,3.9225185000000002,1.0245228666666666,-4.655658533333334
52,1778427376670,2.342819533333333,0.41053207333333336,0.9913282,4.123315116666666,0.8999827116666667,-4.857244266666666
53,1778427376680,2.23238625,0.156899395,0.81507805,4.36061055,0.6420193983333333,-5.0246976666666665
54,1778427376690,2.1811028,0.06628435,0.7379699,4.579758533333333,0.28420505533333335,-5.086522333333334
55,1778427376700,2.0757918,-0.10512808,0.5748506,4.676479,0.071013086,-5.089271
56,1778427376710,2.0757918,-0.10512808,0.5748506000000001,4.676479,0.071013086,-5.089271000000001
57,1778427376720,1.8857096333333334,-0.4126155316666667,0.32720404833333333,4.611829,-0.39019017133333334,-4.959055
58,1778427376730,1.7153846666666668,-0.6768890833333333,0.12595247499999998,4.324646,-0.912785365,-4.7374890333333335
59,1778427376740,1.5722055,-0.8141125666666666,0.09598121,4.166101,-1.0542006,-4.6442556
60,1778427376750,1.4330105,-0.9346887,0.08451713,3.8924843333333334,-1.1936816,-4.449160516666667
61,1778427376760,1.2044605,-1.0602448,0.037563168,3.6916113,-1.2935071,-4.204433
62,1778427376770,0.9475450966666665,-1.1381050166666666,-0.034056867,3.5942802166666667,-1.4048882666666664,-3.8927133166666668
63,1778427376780,0.73894554,-1.1965941,-0.093785964,3.5159876000000003,-1.5053247,-3.62182
64,1778427376790,0.7161799933333333,-1.20531415,-0.09942653666666668,3.504483,-1.5168802333333335,-3.5828773333333337
65,1778427376800,0.35575247,-1.4583168,-0.31032297,3.2188017,-1.7692184,-2.729804
66,1778427376810,0.35575247,-1.4583168,-0.31032297,3.2188017,-1.7692184000000002,-2.729804
67,1778427376820,-0.21435047914285715,-1.514705042857143,-0.21822702714285716,2.267946285714286,-1.6161530714285715,-1.1057969857142855
68,1778427376830,-0.29757833,-1.5646034,-0.12659276,2.046704,-1.3996450000000003,-0.63255095
69,1778427376840,-0.49832177714285714,-1.5487837857142857,-0.24752316142857142,1.6183566,-0.6923066457142857,0.7771951414285715
70,1778427376850,-0.56637454,-1.5457,-0.25471,1.4407257,-0.37048978,1.4013248999999999
71,1778427376860,-0.59854102,-1.5269489,-0.2777906,1.2841151,-0.20838141,1.84466035
72,1778427376870,-0.6321303666666667,-1.5047626333333335,-0.3025379733333333,1.0615819166666667,0.011377365833333333,2.4732915500000003
73,1778427376880,-0.6349761,-1.4978923,-0.30587152,1.0483974,0.022907447,2.5103507
74,1778427376890,-0.6349761,-1.4978923,-0.30587152,1.0483974,0.022907447,2.5103507
75,1778427376900,-0.5213109,-1.4428716142857143,-0.3798131085714286,1.0483974,0.022907447,2.5103507
76,1778427376910,-0.39294973333333333,-1.3897659999999998,-0.43420216666666667,0.51648652625,0.2302198485,3.7336085000000003
77,1778427376920,-0.1773884,-1.3305655,-0.4288665,-0.0154243475,0.43753225,4.9568663
78,1778427376930,0.16109680666666668,-1.1546507333333333,-0.4068834966666666,-0.55774545,0.17325664999999998,6.873684633333333
79,1778427376940,0.7182387971428571,-0.8555638885714286,-0.4910652357142857,-0.41879177142857144,-0.3126539428571428,7.228804871428571
80,1778427376950,0.75973946,-0.83145094,-0.49960235,-0.3660101,-0.8450812000000001,7.760228633333334
81,1778427376960,1.4086188,-0.39410836,-0.50515145,-0.3118467,-1.2942708,7.8007493
82,1778427376970,1.4086188,-0.39410836,-0.50515145,-0.24776694,-1.319866,7.53428982
83,1778427376980,1.5764578,0.086505048,-0.30265180999999997,-0.120615348,-1.33199168,7.04260412
84,1778427376990,2.1366664,0.5206314314285715,-0.14419830742857145,0.048411072857142856,-1.1868021,6.596799057142857
85,1778427377000,2.2670834,0.83767086,-0.052015226000000005,0.1690133207142857,-1.0335621385714286,6.216273785714286
86,1778427377010,2.2782426,1.3357487,-0.11250656,0.2762638,-0.70402217,5.5616226
87,1778427377020,2.2277954857142857,1.951899557142857,-0.22573617999999998,-0.058926679999999995,-0.25257097,4.727748028571428
88,1778427377030,2.183394057142857,2.4350635428571428,-0.22206000285714286,-0.6928739,0.094989546,3.8398988
89,1778427377040,2.224947,2.7388184,-0.11049425,-1.12758085,0.311846715,2.9385671500000003
90,1778427377050,2.4314833,3.0240178,0.13220283,-1.2475395,0.4173737,2.5178337
91,1778427377060,2.7120919428571426,3.2646590142857144,0.22278302714285717,-1.2931362285714285,0.7135123999999999,1.5078335142857144
92,1778427377070,2.7871747,3.3088515,0.2189152,-1.3405183333333335,0.9247482000000001,0.4644357133333333
93,1778427377080,2.8848026,3.2834234,0.21476863,-1.391551,1.0044152,-0.33337972
94,1778427377090,2.8848026,3.2834234,0.21476863,-1.391551,1.0044152,-0.33337972
95,1778427377100,2.8263496714285714,3.0460401142857143,0.2692578657142857,-1.391551,1.0044152,-0.33337972
96,1778427377110,2.7541329142857145,2.8762392285714284,0.2978919371428571,-1.2271409685714285,1.216363657142857,-2.8572784714285717
97,1778427377120,2.4352466571428573,2.311981685714286,0.34231962,-0.6213590291428571,1.2274245942857143,-4.246866071428571
98,1778427377130,2.3025124,1.9085871,0.3439225,-0.008093964,0.99280876,-4.8472157
99,1778427377140,2.4774209,1.6563161333333334,0.27202807333333334,0.41179954166666666,0.721991805,-5.128009916666667
100,1778427377150,2.54462,1.5686891,0.24153849000000002,0.9456448666666667,0.3581197483333334,-5.500077666666667
101,1778427377160,2.654649714285714,1.3926335285714286,0.18522858714285714,1.1007792,0.24663684,-5.616906
102,1778427377170,2.7130038666666665,1.2434058333333333,0.12049483833333334,1.8051067333333333,-0.3067052666666667,-6.237086766666667
103,1778427377180,2.7121096000000002,1.1382371,0.054637335,2.01219,-0.45830166,-6.4820437
104,1778427377190,2.7121096,1.1382371,0.054637335,2.01219,-0.45830166,-6.482043700000001
105,1778427377200,2.455123,0.6509526666666666,-0.34827235333333334,1.8563177,-0.3573561666666667,-6.8922399
106,1778427377210,2.294872642857143,0.39961394428571434,-0.4714996342857143,1.7403551,-0.2929099,-6.8907127
107,1778427377220,2.1854935,0.23751387,-0.5438732,1.7403550999999997,-0.2929099,-6.890712699999999
108,1778427377230,2.0753649000000003,0.09933506799999998,-0.5987544666666667,0.9181813600000001,0.006974042333333337,-6.674313616666667
109,1778427377240,1.8647777142857145,-0.1806812742857143,-0.6346711714285714,0.038986295714285725,0.30429815857142856,-6.498907928571429
110,1778427377250,1.7125388499999998,-0.3384648666666667,-0.5689152916666667,-0.7625889200000001,0.656527415,-6.374989500000001
111,1778427377260,1.488664,-0.5091557333333333,-0.40482035333333327,-1.1443797166666667,0.8891398166666667,-6.275647416666668
112,1778427377270,1.3032568833333333,-0.66126825,-0.2423617133333333,-1.5415693499999998,1.2530119166666667,-6.023691083333333
113,1778427377280,1.1728123,-0.804925,-0.11567748,-1.7311921000000001,1.5140295000000001,-5.758474
114,1778427377290,1.0598615142857144,-0.9512488885714285,-0.015497419828571429,-1.764571557142857,1.715353242857143,-5.435282542857143
115,1778427377300,0.8803968666666666,-1.1723651666666666,0.13128814,-1.5909985500000001,1.8674913999999998,-4.82873705
116,1778427377310,0.8285442466666666,-1.2161888666666665,0.15470414,-1.4552337499999999,1.8760435500000001,-4.6131015
117,1778427377320,0.6729138214285715,-1.3234395714285714,0.18494109857142857,-1.2320279428571428,1.8490018714285714,-4.336685
118,1778427377330,0.55283713,-1.3997158,0.19354787000000004,-0.8950703,1.7838793,-3.862501
119,1778427377340,0.3767597966666667,-1.5572961333333335,0.20000150333333333,-0.8950703,1.7838793,-3.862501
120,1778427377350,0.34154433,-1.5888122000000002,0.20129223,-0.5721262066666667,1.6331991666666665,-3.414125866666667
121,1778427377360,0.18192699,-1.7261983,0.19891404428571427,0.5265440285714286,0.8089382928571428,-2.1756838428571426
122,1778427377370,0.04215402771428572,-1.7699638857142859,0.08203440752857143,1.1824824,0.24174992999999997,-1.6319265
123,1778427377380,-0.150191691,-1.77809155,-0.09091993455000001,1.8249598999999999,-0.40263655,-0.9892962999999999
124,1778427377390,-0.3384953566666667,-1.7459962333333332,-0.21915912666666668,2.0063868499999997,-0.6511059833333332,-0.67897674
125,1778427377400,-0.536159325,-1.6848239166666668,-0.3317978283333333,2.1346686,-0.9317222,-0.22693644
126,1778427377410,-0.8892592,-1.5667073,-0.5930224350000001,2.06154295,-1.2465724166666667,0.5378923000000001
127,1778427377420,-1.0150592,-1.5292356,-0.7014434,1.7898352,-1.40667,1.5092953
128,1778427377430,-1.0365325714285716,-1.5261692142857142,-0.7149285042857143,1.588424192857143,-1.3602006000000002,2.0783817285714283
129,1778427377440,-0.9304376428571428,-1.5216828571428571,-0.9095827228571428,0.5998260357142857,-1.0310750857142856,4.855266057142857
130,1778427377450,-0.8123645,-1.5321625,-0.9451771399999999,0.4025602,-0.9358455500000001,5.3873734
131,1778427377460,-0.8123645,-1.5321625,-0.9451771399999999,0.4025602,-0.9358455500000001,5.3873734
132,1778427377470,0.04535106571428572,-1.5212386428571427,-1.09905362,-0.6252642285714286,-1.013861792857143,7.659791628571428
133,1778427377480,0.39392540500000006,-1.45810335,-1.1101867,-0.9788351500000001,-1.19011825,8.461476
134,1778427377490,0.59954715,-1.3967887,-1.0956737,-1.161102,-1.353372,8.884424
135,1778427377500,1.778406575,-0.9056015999999999,-0.7375226833333333,-1.2916236666666667,-2.064826266666667,10.252456666666665
136,1778427377510,3.457362057142857,-0.20420180714285713,-0.33793782857142857,-0.9966484514285714,-2.174483885714286,11.038552999999999
137,1778427377520,4.3283320000000005,0.2584602,-0.19595655,-0.8074111466666666,-1.4938709333333335,10.421157666666666
138,1778427377530,4.516239428571429,0.5658953857142858,-0.17698768285714286,-0.7686212057142857,-0.9890562485714287,9.841584714285714
139,1778427377540,4.428002500000001,1.0378857333333333,-0.16633084666666667,-0.7717264299999999,-0.19898935566666665,8.668839333333333
140,1778427377550,4.2728715,1.2461092,-0.14824036,-0.7916813499999998,0.018478673,8.06846
141,1778427377560,3.996339642857143,1.4145336857142856,-0.12059065999999999,-0.8080001857142857,0.076685403,7.633262657142857
142,1778427377570,3.6553354,1.574787,-0.05116152,-0.83169305,0.21746802,6.8455086
143,1778427377580,3.3682759,1.6128989166666667,0.06825601333333334,-0.7270823833333333,0.27130052833333335,6.2625139333333335
144,1778427377590,3.0590547714285714,1.7107879857142856,0.142578,-0.5203262985714285,0.4079052757142857,5.6233635714285715
145,1778427377600,2.8580935000000003,1.8274237,0.19952384,-0.36147952,0.46471575000000004,5.134322
146,1778427377610,2.5716396,1.8665375,0.20370526285714288,-0.31252301714285713,0.6033385071428572,4.681147571428572
147,1778427377620,2.2059315833333333,1.9363223333333333,0.212725825,-0.3661882533333333,0.9595165833333333,3.946927533333333
148,1778427377630,2.048656,1.999385,0.22111045,-0.39584067,1.1129965,3.6826012
149,1778427377640,1.8154717333333332,2.158947066666667,0.22342767,-0.4210388666666667,1.1829914333333333,3.087923866666667
150,1778427377650,1.6190579000000003,2.308854,0.23544057,-0.42439863,1.176221,2.5077546
151,1778427377660,1.5841777857142856,2.3758615428571432,0.22875029,-0.3923936571428572,1.0940814457142858,2.2062271285714288
152,1778427377670,1.5236864,2.488438,0.1949504,-0.30955598,0.7472409000000001,0.93691456
153,1778427377680,1.26568355,2.409043,0.12689765,-0.36489017166666665,0.65586565,0.10987938333333332
154,1778427377690,1.03089341,2.2863529333333332,0.107831495,-0.6016004666666667,0.72285722,-1.2525792000000002
155,1778427377700,0.8437484066666666,2.1346163666666667,0.13817879666666666,-0.77121736,0.8869254066666666,-1.9057468333333334
156,1778427377710,0.7237007600000002,2.0067635,0.16903426,-0.8762862,1.0377073,-2.3544273
157,1778427377720,0.6489403000000001,1.8216306,0.20513393,-0.9390307642857143,1.3126621142857142,-3.0098641
158,1778427377730,0.6886115785714286,1.674191742857143,0.23571933857142854,-0.92057395,1.3616186,-3.1682527
159,1778427377740,0.9156835,1.5020998333333333,0.25950702000000003,-0.5882123383333333,1.2653309666666666,-3.8559339499999994
160,1778427377750,0.9884723000000001,1.4746592000000003,0.2573321,-0.47067168,1.2137892,-4.07386
161,1778427377760,1.4246562999999999,1.3747143,0.27178416,-0.208737751,0.9398670633333333,-4.652375266666667
162,1778427377770,1.5608838000000003,1.3330655,0.2763576,-0.027205321142857144,0.7880379857142856,-5.183649928571429
163,1778427377780,1.8290497333333333,1.2614556666666665,0.2725159,0.00682132875,0.8185594333333333,-5.533293916666666
164,1778427377790,2.1124229142857147,1.1672806571428571,0.24399506571428572,-0.07430739642857143,1.097724857142857,-6.269986371428572
165,1778427377800,2.3013132333333335,1.0827257666666668,0.22836698,-0.25203282666666665,1.3716470333333335,-6.6724302
166,1778427377810,2.395129666666667,1.0359547500000001,0.2706458666666667,-0.42801292333333335,1.6354898333333334,-6.959969666666666
167,1778427377820,2.4749615,0.98646,0.3795953,-0.6171266399999998,2.0022635,-7.242112999999999
168,1778427377830,2.5995215999999997,0.9232043000000001,0.69140214,-0.5445354666666667,2.2389737666666667,-7.335372
169,1778427377840,2.6580209666666668,0.8951132333333334,0.81392964,-0.3733914,2.3477077,-7.347182
170,1778427377850,2.7153414166666665,0.8432504,0.9121874066666668,0.28176159333333334,2.2984314666666665,-7.2773392
171,1778427377860,2.705724228571429,0.70270647,0.9776702657142857,0.9149015857142857,2.2238331714285713,-7.204086500000001
172,1778427377870,2.6490876333333335,0.637933575,0.9624748333333334,1.3300063333333334,2.153987283333333,-7.11846375
173,1778427377880,2.5420298285714287,0.48799015714285715,0.8001163428571428,1.9247927714285713,1.8364136285714285,-6.896079642857143
174,1778427377890,2.4907754333333334,0.360234435,0.6468771333333333,2.637588883333333,1.0695742,-6.459899916666667
175,1778427377900,2.4634366,0.24849011,0.5274088,2.8583912999999996,0.6577492,-6.262132
176,1778427377910,2.3063453714285713,-0.005758177142857146,0.279162629,2.953948028571429,-0.0979347842857143,-5.837232014285715
177,1778427377920,2.0272524,-0.2948343,0.005610082999999999,2.8901562999999997,-0.30024028,-5.656765
178,1778427377930,1.7471039833333333,-0.4617139083333333,-0.13504853616666665,2.304641866666667,-0.11133019566666667,-5.138242133333333
179,1778427377940,1.4540685666666668,-0.6186742966666666,-0.24363210666666665,1.8467474666666668,0.09766208250000001,-4.727028
180,1778427377950,0.9246619428571429,-0.9020561085714286,-0.36417630285714286,1.1689561142857143,0.34919675857142857,-4.106737857142857
181,1778427377960,0.7416896,-0.9994486,-0.38801044,0.7655669,0.49602258,-3.7472
182,1778427377970,0.5306581142857143,-1.0958827428571427,-0.36788731857142853,0.12873986085714287,0.8359472657142858,-3.1792482
183,1778427377980,0.14282336333333334,-1.2523901499999999,-0.21273598666666668,-0.7217881916666666,1.4067462833333335,-2.293671766666667
184,1778427377990,-0.05049075,-1.317211,-0.09524946,-1.0345512000000001,1.8081611333333332,-1.5766432000000001
185,1778427378000,-0.34262163333333334,-1.3903250666666667,0.11248623333333334,-0.9410378666666667,2.0401372666666666,-0.7917831553333333
186,1778427378010,-0.55222735,-1.44450495,0.22376306,-0.4112650216666667,2.0046561333333335,0.2604831226666667
187,1778427378020,-0.5979617,-1.4608779,0.22653762,0.077121735,1.8072448,0.9250027
188,1778427378030,-0.5392388066666667,-1.5400593333333334,0.0054779639999999975,1.0247773566666665,1.1695524016666667,2.0393227499999997
189,1778427378040,-0.5144203,-1.5627131,-0.072138354,1.6852244999999997,0.70402217,2.8232665000000003
190,1778427378050,-0.38575423,-1.5633229,-0.23251356,2.02624,0.35124752,3.3008103
191,1778427378060,-0.38575423000000003,-1.5633229,-0.23251356,2.02624,0.35124752,3.3008103
192,1778427378070,-0.2142111134285714,-1.5193918,-0.42028584857142853,2.3177536714285716,-0.11514809571428572,3.9584721714285718
193,1778427378080,0.12693830533333336,-1.3899489999999999,-0.8362581166666666,2.3931411,-0.7571674566666666,4.954422366666667
194,1778427378090,0.214656835,-1.32092055,-1.0094490833333334,1.866117,-0.9273698,5.565669500000001
195,1778427378100,0.41066420500000006,-1.2133635,-1.13384665,1.5630259666666666,-0.980286,5.828265166666667
196,1778427378110,0.6107267,-1.1216508,-1.1895815666666667,0.9798024216666666,-1.1725813,6.091700916666667
197,1778427378120,0.8282393666666668,-1.0261167466666665,-1.1822234333333335,0.49632803,-1.3857478,6.2749605
198,1778427378130,1.0774060285714284,-0.8683172014285715,-1.07345986,0.01060287428571427,-1.5549574428571429,6.4383015285714285
199,1778427378140,1.2850953,-0.7154075666666667,-0.9343634466666666,-0.64828076,-1.6510159833333333,6.6645397
200,1778427378150,1.5804581000000002,-0.4915226,-0.7883996299999999,-0.88270026,-1.6120734,6.777549699999999
201,1778427378160,1.8900581428571428,-0.249256715,-0.6533046285714285,-1.43154086,-1.4219633999999999,7.0502793142857145
202,1778427378170,2.1536014,0.009228176666666662,-0.5012284233333334,-1.9036088666666666,-1.1963795666666668,7.302995766666666
203,1778427378180,2.4455289,0.33631025,-0.2983914093333333,-2.12774555,-1.0532589,7.4870188
204,1778427378190,2.7886384,0.6775395,-0.072870106,-2.0286325333333335,-1.1392636333333332,7.464671533333333
205,1778427378200,3.201386,1.2616996333333332,0.2877607,-1.4772248666666667,-1.4887804333333332,7.021998
206,1778427378210,3.31461415,1.5468279999999999,0.412707,-1.2667818,-1.6316211,6.848716
207,1778427378220,3.349006316666667,1.7369508500000002,0.468706195,-0.7494298550000001,-1.5403985333333334,6.256354666666667
208,1778427378230,3.325446428571429,2.028289142857143,0.4760295428571429,-0.5083707971428572,-1.157000622857143,5.902332642857142
209,1778427378240,3.2764715999999994,2.3085494,0.43154958,-0.41513383333333337,-0.4658865483333334,5.383580866666667
210,1778427378250,3.2764715999999994,2.3085494,0.43154958,-0.43066,0.01695151,4.9156327
211,1778427378260,3.244904733333333,2.359609266666667,0.41339812000000004,-0.45641815,0.23793200666666667,4.5951319999999996
212,1778427378270,2.5972857,2.740038,0.3325804,-0.50793445,0.679893,3.9541306000000005
213,1778427378280,2.5972857,2.740038,0.3325804,-0.49228103333333334,0.863407125,3.4513121833333336
214,1778427378290,2.3672317,2.8480524000000003,0.2649341666666667,-0.2802344366666667,0.8984809500000001,2.6302329666666666
215,1778427378300,2.2017545000000003,2.893644533333333,0.12285269666666666,-0.137215605,0.9394089083333332,1.8155169500000001
216,1778427378310,2.00767825,2.817054533333333,-0.11549454833333334,-0.26414832166666663,1.07145765,0.9797515083333334
217,1778427378320,1.7802955571428571,2.660442685714286,-0.22611946428571428,-0.59127392,1.307775242857143,-0.10118545999999999
218,1778427378330,1.6755854999999997,2.5647228,-0.24605095,-0.7247916,1.4123205,-0.5366451
219,1778427378340,1.6755854999999997,2.5647228,-0.24605095,-0.7247916,1.4123205,-0.5366451
220,1778427378350,1.5290787,2.4295058571428574,-0.22268721142857142,-0.7722427285714285,1.430908242857143,-1.0663307142857144
221,1778427378360,1.3337363,2.2492166,-0.19153556000000002,-0.8355109,1.4556919,-1.7725782
222,1778427378370,1.2070738714285714,2.0434990285714285,-0.18160467428571428,-0.7479171857142857,1.3444271857142858,-2.1904754142857144
223,1778427378380,1.1622832666666667,1.8393349333333333,-0.16301764333333335,-0.5951863566666666,1.1247556566666665,-2.8834366
224,1778427378390,1.174032,1.5955808,-0.13378829,-0.4054618199999999,0.83108217,-3.776827
225,1778427378400,1.1981100571428571,1.5469542857142857,-0.12544285571428573,-0.39378992714285715,0.8286823557142856,-4.0292455714285715
226,1778427378410,1.3277807333333334,1.3085519333333335,-0.08246415666666666,-0.38912116999999996,0.8473718766666667,-4.4366634000000005
227,1778427378420,1.4011357142857144,1.1457113914285715,-0.034235444857142854,-0.3798709228571429,0.88069312,-4.791299771428571
228,1778427378430,1.5400289,0.8443785199999999,0.094609182,-0.30937778833333335,0.99123065,-5.516774833333333
229,1778427378440,1.5730796,0.7566295,0.120921694,-0.20540343,1.0894781,-5.864459000000001
230,1778427378450,1.6277866,0.6676870428571429,0.12479822685714284,-0.20540343,1.0894781,-5.864459000000001
231,1778427378460,1.7118246571428573,0.5229050685714286,0.12984207142857143,-0.11680615828571428,1.1652036142857143,-6.107954214285714
232,1778427378470,1.7816690333333334,0.3473373233333333,0.126267528,0.12069678666666667,1.3233377,-6.815525433333334
233,1778427378480,1.8049223,0.19806032999999998,0.110860124,0.19501872,1.3439035,-7.0927563
234,1778427378490,1.7845553833333332,0.07326647016666667,0.09176348499999999,0.18010343333333334,1.4104369333333333,-7.2709763333333335
235,1778427378500,1.752084016666667,-0.0282130275,0.10050382833333334,0.13235413333333332,1.5181019166666667,-7.3419385833333335
236,1778427378510,1.7269301,-0.09579827,0.14293517000000003,0.0870483,1.6690365,-7.3699365
237,1778427378520,1.6880049333333333,-0.12583052,0.17809981166666666,0.0940478,1.7517579166666666,-7.366118583333333
238,1778427378530,1.4810010375,-0.10983873,0.3430535475,0.43873488000000005,1.7646751375,-6.9996566375
239,1778427378540,1.4180706,-0.08829784,0.40264543999999997,0.61834836,1.7026341,-6.80061
240,1778427378550,1.4180706,-0.08829784,0.40264544,0.61834836,1.7026340999999998,-6.80061
241,1778427378560,1.2843229333333335,-0.1352517983333333,0.43465949000000004,1.2694288933333333,1.1947251,-6.3054275
242,1778427378570,1.2575734,-0.14464259,0.4410623,1.399645,1.0931433,-6.206391000000001
243,1778427378580,0.974172725,-0.22983049,0.408895805,2.4104743,0.14660765,-5.20671
244,1778427378590,0.6953454599999999,-0.3000175,0.31221333,2.730545842857143,-0.20149825857142858,-4.505807542857143
245,1778427378600,0.5488212371428571,-0.37780949714285716,0.12294271428571428,3.0324878714285717,-0.39723695000000003,-3.7509526571428573
246,1778427378610,0.41057270000000007,-0.43325698000000007,-0.03518498,3.0500503,-0.41829,-3.3815973000000006
247,1778427378620,0.13193277571428572,-0.46042755571428573,-0.2194291642857143,2.7486755142857144,-0.19669861828571428,-2.6863017142857144
248,1778427378630,-0.07144145,-0.4796882714285714,-0.33840822571428575,2.303638285714286,0.12119130285714286,-1.7938930142857141
249,1778427378640,-0.20331471166666668,-0.5024886933333333,-0.38749211333333333,1.9239200166666668,0.3307835333333333,-1.2253193133333333
250,1778427378650,-0.477497385,-0.59058323,-0.44981281500000003,0.9324094249999999,0.678136775,0.21517727499999997
251,1778427378660,-0.556191,-0.6297928,-0.45466064999999994,0.66630125,0.73838335,0.60994893
252,1778427378670,-0.6477207500000001,-0.7474217,-0.424476,0.021227567,0.8239045,1.6748397
253,1778427378680,-0.6201886525,-0.864120575,-0.371972925,-0.27740918150000005,0.83864165,2.22561105
254,1778427378690,-0.57564336,-0.9612756,-0.3266654,-1.010982,0.88086766,3.6360226
255,1778427378700,-0.37544001714285713,-1.1635087142857141,-0.19562988857142857,-1.6892605571428572,1.0391690857142857,5.280733714285715
256,1778427378710,-0.266357,-1.2306206,-0.13897152,-1.8023579,1.0630583,5.603925
257,1778427378720,-0.031355488800000005,-1.33817564,-0.10900636000000001,-2.1031478800000003,0.9335242499999999,6.628896
258,1778427378730,0.25092927,-1.4209060500000001,-0.094273795,-2.287385,0.76052725,7.235852
259,1778427378740,0.3530084,-1.4444135000000002,-0.08280971,-2.417448333333333,0.5654321583333333,7.667402583333334
260,1778427378750,0.6807017857142856,-1.4768369571428572,-0.041596502285714286,-2.5477662000000003,0.16752978999999998,8.348848
261,1778427378760,0.9740813,-1.4668539,-0.010549396,-2.4301746,-0.1085813,8.651532
262,1778427378770,1.0543095333333332,-1.4408361,-0.003557118,-2.2172626,-0.34821864999999996,8.720381166666668
263,1778427378780,1.4878308,-1.2476947,0.012378771,-1.6598735999999998,-0.8005389,8.609229
264,1778427378790,1.5624692500000001,-1.20162495,0.0008537079999999999,-1.468291,-0.92927875,8.5135525
265,1778427378800,1.881923825,-0.8922395750000001,-0.15054993625000002,-0.358272473125,-1.6392568875,7.548271025
266,1778427378810,2.0060318,-0.6893695000000001,-0.26001516,-0.013439035,-1.8643607,7.117649
267,1778427378820,1.9695662,-0.52960406,-0.2970905,0.18280142749999997,-2.0306942833333332,6.6850802499999995
268,1778427378830,1.9513334,-0.44972134,-0.31562817,0.22204951999999997,-2.063961,6.5985665
269,1778427378840,2.0276590666666667,-0.13771129000000001,-0.26155997833333333,0.23872105333333335,-2.0656154166666663,6.363256083333333
270,1778427378850,2.0936588666666665,0.039575479999999996,-0.20283704000000002,0.20606521666666666,-2.0107648,6.325407800000001
271,1778427378860,2.1951282,0.269345,-0.10701844,0.13408493,-1.9004017999999998,6.343835399999999
272,1778427378870,2.4574605166666665,0.6154220866666666,-0.00914687716666667,-0.06574436833333333,-1.2912927583333333,6.032676083333333
273,1778427378880,2.6313034,0.9880541857142857,0.061048857428571426,-0.2403100242857143,-0.6953391714285715,5.476406814285715
274,1778427378890,2.6335559799999997,1.3187599200000002,0.09454210599999999,-0.27656925,-0.6560693,5.2500815
275,1778427378900,2.6808270999999997,1.627168,0.14635001,-0.30069843,-0.8252789399999999,4.716337700000001
276,1778427378910,2.7517154,1.7318998500000002,0.17263203000000002,-0.280921665,-0.89568117,4.47573335
277,1778427378920,2.9544408,2.026033,0.20336552,-0.21827524285714286,-0.9678287142857143,3.869264214285714
278,1778427378930,3.093473257142857,2.2814137142857143,0.1811865314285714,-0.19475693142857145,-0.9692686114285715,3.1710887571428574
279,1778427378940,3.2446404500000003,2.5455753499999996,0.132324795,-0.303294585,-0.8803331550000001,2.278451
280,1778427378950,3.267609116666667,2.6698610166666668,0.07861231183333334,-0.45308382666666674,-0.7276168516666667,1.551954
281,1778427378960,3.0931072,2.7162561000000003,-0.023476979,-0.73853606,-0.39202275999999997,0.6435465
282,1778427378970,2.6363906714285714,2.614229185714286,-0.10386494557142857,-1.211476665714286,0.056308682857142855,-0.14028084
283,1778427378980,2.3809401142857145,2.530800942857143,-0.10173938285714286,-1.4990196571428573,0.31618821571428574,-0.5049674028571428
284,1778427378990,2.145592633333333,2.378726116666667,-0.018425873333333332,-2.1934643499999997,0.9589057149999999,-1.2811116333333332
285,1778427379000,1.9674318,2.1786637,0.09524946,-2.5919013,1.374905,-1.8226691
286,1778427379010,1.8785678714285712,1.9779550714285714,0.28249906571428574,-2.6407269,1.4564554571428572,-1.9726802428571428
287,1778427379020,1.8184597,1.8157157,0.4487457000000001,-2.55372215,1.5581645,-2.30845975
288,1778427379030,1.843252157142857,1.6824848714285714,0.5762270285714287,-2.1120885428571428,1.6731162857142858,-2.9203067714285713
289,1778427379040,1.8825489,1.583568,0.65211123,-1.7925404571428574,1.7045540714285714,-3.1686669714285713
290,1778427379050,1.9407404714285714,1.4047073714285714,0.7013475442857143,-0.9770790057142857,1.7861917857142857,-3.734328242857143
291,1778427379060,1.9655416,1.3461150999999998,0.70717543,-0.44028112,1.8165605000000002,-4.0818014
292,1778427379070,1.9655416,1.3461150999999998,0.70717543,-0.44028112,1.8165605000000002,-4.0818014
293,1778427379080,2.078231,1.0626229,0.54369026,0.52610767,1.7846428,-4.871956
294,1778427379090,2.069624257142857,0.9928976428571429,0.4926419971428571,0.7081455328571428,1.7989545142857144,-5.0774684
295,1778427379100,1.9617609,0.7326037,0.30916438,1.181108,1.8845192999999998,-5.7221274
296,1778427379110,1.8256031571428573,0.5012748828571428,0.14728210714285714,1.2901692142857144,1.9194040857142858,-5.955238
297,1778427379120,1.772255085714286,0.41682744714285713,0.09197400571428571,1.3814281428571429,1.9478311285714285,-6.2840364285714285
298,1778427379130,1.6777807666666666,0.28581951833333336,0.027928461099999996,1.3691526333333333,1.9484056,-6.369033866666666
299,1778427379140,1.5803448142857144,0.13873632,-0.0213339974,1.3091715,1.9465875428571429,-6.435007257142857
300,1778427379150,1.5580584,0.08902958533333334,-0.025326680333333334,1.2514083333333332,1.9628627666666667,-6.450126233333333
301,1778427379160,1.5497246,0.041953668,-0.017805915,1.1925616,1.9955441,-6.4510426999999995
302,1778427379170,1.5341139142857145,-0.07610200514285714,0.0006969061428571439,1.1570878142857144,2.1383338142857142,-6.458416514285715
303,1778427379180,1.5224059,-0.16464376,0.014574022,1.1282681,2.2809708,-6.4628015
304,1778427379190,1.4473753285714286,-0.2729427485714286,0.04144841171428571,1.1979066714285713,2.3788183714285713,-6.401867771428571
305,1778427379200,1.394166757142857,-0.32813760714285717,0.060038345714285714,1.2763156142857142,2.424153371428571,-6.332709171428571
306,1778427379210,1.33730974,-0.36826539399999997,0.0801510176,1.45013302,2.3945001599999998,-6.16808956
307,1778427379220,1.2504213285714287,-0.42274244857142856,0.11225393000000002,1.5857189571428572,2.3623903714285714,-6.022476871428572
308,1778427379230,1.1988504,-0.45392892,0.12884897,1.6594155,2.3437371,-5.9402064999999995
309,1778427379240,1.1163978285714287,-0.48232778428571427,0.14226439142857142,1.7717709999999998,2.2934498857142853,-5.795998714285714
310,1778427379250,0.9385303428571429,-0.5051601614285715,0.13487721285714288,2.0565869857142856,2.096882285714286,-5.375396085714286
311,1778427379260,0.7902595,-0.53512272,0.1046097675,2.4062237166666667,1.6371443333333333,-4.6349401666666665
312,1778427379270,0.6819503333333333,-0.5664151866666667,0.07789072333333334,2.532749133333333,1.4137458,-4.334445333333334
313,1778427379280,0.6340614,-0.58088756,0.06561358,2.687807,1.1142182,-3.960392
314,1778427379290,0.5352954733333334,-0.5976873266666667,-0.009319649999999997,2.8716265666666665,0.5441027633333334,-3.3759721999999996
315,1778427379300,0.49478498,-0.608877,-0.05567397999999999,2.979037,0.07666359,-2.9000828
316,1778427379310,0.49478498000000004,-0.608877,-0.05567398,2.979037,0.07666359,-2.9000828
317,1778427379320,0.34093452571428573,-0.6881324828571429,-0.21840124285714285,2.5212371999999994,-0.6152503714285714,-1.6114625142857142
318,1778427379330,0.26239336,-0.6887597,-0.24885598,2.2417228,-0.6229298,-1.2425
319,1778427379340,0.049535408333333336,-0.6651099666666667,-0.27452821666666666,1.6966782666666667,-0.3862959125,-0.6351217183333333
320,1778427379350,-0.18153498999999998,-0.6412569,-0.2787358,1.195616,-0.124311075,-0.03191771
321,1778427379360,-0.31350405666666664,-0.6422732333333333,-0.2568340833333333,0.54970237,0.2471968025,1.090114465
322,1778427379370,-0.4846798457142857,-0.6973838971428572,-0.2123904414285714,0.05065818285714285,0.49661162857142865,2.1984167714285716
323,1778427379380,-0.54082423,-0.73693323,-0.1952553,-0.17256944,0.57925296,2.8283062
324,1778427379390,-0.4606061283333333,-0.8659245050000001,-0.18694180166666666,-0.6439537766666668,0.45402560000000003,4.851644533333334
325,1778427379400,-0.42051232,-0.9109067999999999,-0.18598646,-0.70631295,0.40210205000000004,5.1725016
326,1778427379410,-0.04082555200000001,-1.0081381,-0.21501254,-0.9937250666666667,0.14116077333333332,6.396370133333334
327,1778427379420,0.2680469977142857,-1.0742787285714286,-0.2338812357142857,-1.2539536857142857,0.05613415,7.142869142857143
328,1778427379430,0.5986324714285713,-1.128872457142857,-0.2349266014285714,-1.902954357142857,0.2657263885714286,8.196109857142858
329,1778427379440,0.9338349499999999,-1.15464055,-0.202572805,-2.2020165,0.40347651,8.5515025
330,1778427379450,1.0882952,-1.1579335,-0.1783031,-2.405347328571429,0.46862092857142856,8.812429428571429
331,1778427379460,1.5043560666666667,-1.01792525,-0.03301005333333334,-2.3611978,0.25182920999999997,9.005783
332,1778427379470,1.8439287999999998,-0.8333820099999999,0.08848077333333333,-2.1389446,-0.11957687,9.074403
333,1778427379480,2.271657,-0.546800195,0.15071002,-1.6286685499999998,-0.7325546849999999,8.882617
334,1778427379490,2.7165174285714286,-0.17949652885714285,0.17251878285714287,-0.6509860085714285,-1.6918349,8.192051828571428
335,1778427379500,2.8740091500000005,0.04791946166666666,0.139500005,-0.26893342,-1.9413297,7.713395600000001
336,1778427379510,2.66588725,0.28797412,-0.013506885000000003,0.1501201375,-1.7628044,6.509761700000001
337,1778427379520,2.4891696,0.3667897,-0.08957840000000002,0.21731532,-1.5812247,6.116746400000001
338,1778427379530,2.1072469166666665,0.5813855666666666,-0.12622687166666666,0.010995575000000002,-1.2233085666666665,6.030410816666667
339,1778427379540,2.0144468142857144,0.8281406514285715,-0.03278936542857143,-0.19608774285714287,-1.1093530857142857,6.2681973428571425
340,1778427379550,2.1583576,0.9585925300000001,0.076711796,-0.26633725,-1.1456778,6.4605107
341,1778427379560,2.5383189,1.1121382,0.019635292,-0.3991240833333333,-0.79175774,6.157318083333333
342,1778427379570,2.6837237666666667,1.1845812999999998,-0.0717318245,-0.7395541916666667,-0.26816984125000004,5.3889514
343,1778427379580,2.7226589,1.2072656,-0.036587503,-0.9240864,-0.0154243475,4.8279734
344,1778427379590,2.1555874285714287,1.3302867142857142,0.046666485,-1.111927457142857,0.18751381214285714,3.617805785714286
345,1778427379600,1.6284487,1.4042283,0.04652710299999999,-1.2869403,0.30543262,2.8725939
346,1778427379610,1.4245953142857144,1.4131225714285713,0.09619028042857143,-1.4131494857142857,0.2923862857142857,2.8040459285714285
347,1778427379620,1.3127391666666668,1.4597091166666667,0.20583518,-1.4610878500000002,0.19422969566666667,2.7957774166666667
348,1778427379630,1.3275775,1.5096612,0.26117378,-1.4078916,0.117744274,2.7950139999999997
349,1778427379640,1.4772304166666668,1.6664793666666666,0.3701740466666667,-0.9751190733333334,-0.25821784266666664,2.600275116666667
350,1778427379650,1.8208466142857145,1.9653411857142855,0.42907556571428573,-0.4032583257142857,-0.6582945899999999,2.183821357142857
351,1778427379660,2.19303435,2.2246927833333334,0.3163802416666666,-0.10552697,-0.8003861899999999,1.6155858499999998
352,1778427379670,2.2260444,2.2484848,0.30215177,0.0290161,-0.84223044,1.2592987
353,1778427379680,2.314455542857143,2.3559911285714286,0.0927231757142857,0.08124508,-0.64996064,0.23182335
354,1778427379690,2.274299333333333,2.394082716666667,-0.11298423833333333,-0.11677707166666666,-0.403196505,-0.5100215833333334
355,1778427379700,2.216923771428571,2.335824457142857,-0.19951512571428573,-0.4154101714285714,-0.17416204577142858,-1.1305806714285713
356,1778427379710,2.2184424333333332,2.2396428,-0.21889488666666668,-0.7673485333333333,0.09952012973333335,-1.7281887333333332
357,1778427379720,2.2333212999999996,2.1294331,-0.22054131833333335,-1.0084112166666668,0.33951380833333333,-2.165161116666667
358,1778427379730,2.189004042857143,1.9150420857142856,-0.22634596428571427,-1.2015065,0.5648321657142857,-2.6481662999999998
359,1778427379740,2.1417611666666665,1.7922083333333332,-0.22335653833333333,-1.3498595,0.7192938300000001,-3.1366403
360,1778427379750,2.0462168,1.6239871000000001,-0.20216626333333332,-1.4157565666666667,0.719090215,-3.65335585
361,1778427379760,1.977475942857143,1.4234192285714287,-0.1682328157142857,-1.4214834,0.69898254,-3.9385536
362,1778427379770,1.9673098,1.3750191999999999,-0.16031423,-1.4023939,0.70081514,-4.1572433
363,1778427379780,2.0137063,1.2849268571428571,-0.10620829142857144,-1.3345005285714286,0.6978044485714285,-4.402156842857143
364,1778427379790,2.0757308,1.2310475,-0.060125455,-1.2439761333333335,0.7176139416666668,-4.678845983333333
365,1778427379800,2.1396109285714284,1.1341166571428571,-0.016290148285714286,-1.1212431,0.912479957142857,-5.084864114285714
366,1778427379810,2.142238916666667,0.8794923833333333,0.057828576,-1.0073676666666667,1.1174761666666666,-5.4076846
367,1778427379820,2.1187300000000002,0.8391866071428572,0.06364482628571429,-0.9191776628571429,1.2888821,-5.655346485714285
368,1778427379830,1.9539554,0.628603755,0.090218674,-0.69944072,1.5120442,-6.04451155
369,1778427379840,1.8337131714285715,0.45133296285714286,0.124336516,-0.5567164042857142,1.575835957142857,-6.2121288
370,1778427379850,1.8037637,0.39038864,0.14006914,-0.36926803,1.5746579,-6.3326874
371,1778427379860,1.7543706714285714,0.20063018000000002,0.16432143142857145,-0.08678649571428572,1.5876169571428573,-6.4691502
372,1778427379870,1.7322353,0.10573788,0.17251006,0.04886922,1.6087136,-6.5322876
373,1778427379880,1.6993877666666668,-0.077626482,0.16874968999999998,0.17905987,1.6953801833333333,-6.590701266666667
374,1778427379890,1.6480839,-0.2595447657142857,0.14706433142857142,0.43528511428571426,2.006146857142857,-6.726041
375,1778427379900,1.6153991,-0.34062964,0.13598356,0.53310716,2.1907662833333332,-6.765638166666666
376,1778427379910,1.5496026,-0.46929567999999994,0.13061738,0.6350962066666667,2.431396466666667,-6.7575951
377,1778427379920,1.4777691,-0.5690576,0.12799528,0.6789767000000001,2.553264,-6.7262373
378,1778427379930,1.4017077666666669,-0.6538186333333333,0.14080089666666665,0.7457901133333333,2.71710315,-6.628117033333333
379,1778427379940,1.3167841,-0.7469338,0.158058,0.9272280142857143,3.0513809999999997,-6.377869285714286
380,1778427379950,1.2547073,-0.80535185,0.16189969,1.0312933,3.1734449999999996,-6.249151
381,1778427379960,1.0104248333333334,-0.91424031,0.14183754666666668,1.38539145,3.280320866666667,-5.881130416666667
382,1778427379970,0.9131021,-0.92920053,0.12756842,1.6249015,3.2684345,-5.641035
383,1778427379980,0.7417709166666667,-0.9383880766666667,0.07683375199999999,1.9980129166666665,2.9751173833333335,-5.234631566666667
384,1778427379990,0.5328969499999999,-0.9495472833333333,0.014787447333333334,2.3514238833333336,2.513710533333333,-4.766174166666667
385,1778427380000,0.291266985,-0.9303287,-0.057625315,2.6757424000000003,1.8640044,-4.155411033333333
386,1778427380010,0.09039145,-0.8954994333333334,-0.140455356,3.001129966666667,0.9555459866666666,-3.2621223
387,1778427380020,-0.03603869,-0.8695629,-0.2061096,3.0825787,0.49128836,-2.7375927
388,1778427380030,-0.17031481166666665,-0.8225073466666667,-0.28744563666666667,2.9749391500000004,0.16702073333333334,-2.064037416666667
389,1778427380040,-0.30166394,-0.7426042599999999,-0.37459501999999995,2.6239716000000004,-0.22472205,-0.7850891099999999
390,1778427380050,-0.402493,-0.6782712700000001,-0.45344108499999997,2.0702222999999997,-0.1495092685,0.201738255
391,1778427380060,-0.47905233999999997,-0.6402507700000001,-0.5128043,1.6159421999999999,-0.040775255,0.93324938
392,1778427380070,-0.48850408,-0.6369884,-0.5189327,1.5247196,-0.011148291,1.0627528
393,1778427380080,-0.50556809,-0.64453965,-0.5214023583333334,0.9035714666666667,0.09035715266666666,1.9498818666666666
394,1778427380090,-0.5815075166666667,-0.6992176166666666,-0.5253253583333334,-0.41750096,0.28471411333333335,3.8700858999999994
395,1778427380100,-0.45518918666666663,-0.8281987000000001,-0.4566119933333333,-1.10711688,0.16752979,5.2584807
396,1778427380110,-0.17088802279999998,-0.95548258,-0.374192564,-1.402852,0.0936151,5.917146
397,1778427380120,0.05632732828571429,-1.0239361,-0.32400844571428566,-1.8630298571428572,-0.08050331285714285,7.059398714285714
398,1778427380130,0.2903828,-1.0878073,-0.28611428,-2.047162,-0.17486018,7.508603
399,1778427380140,0.5253965333333334,-1.1331758333333333,-0.2664383066666667,-2.276058433333333,-0.323173165,7.948833166666667
400,1778427380150,1.0304503600000001,-1.18630086,-0.23419658200000004,-2.5303566,-0.47693303,8.354499
401,1778427380160,1.4000467857142858,-1.1789624571428572,-0.15565367714285716,-2.9761355142857147,-0.7396487042857143,8.585994428571428
402,1778427380170,1.5381384999999999,-1.1585432,-0.0863465,-3.14336,-0.8391761,8.632136
403,1778427380180,1.7689040166666665,-1.0026906833333333,0.11459001666666667,-2.8404724333333333,-1.0309369000000002,8.658301999999999
404,1778427380190,1.9501868999999998,-0.817389234,0.25207568199999997,-2.4409869800000004,-1.3344962599999999,8.6664978
405,1778427380200,2.2869321,-0.467832195,0.34761174,-1.23837654,-2.2292508333333334,8.482016999999999
406,1778427380210,2.49390565,-0.27217035666666667,0.3650416216666667,-0.7529677550000001,-2.5185464166666667,8.314309166666666
407,1778427380220,2.6144920333333332,-0.11754750566666666,0.2570068656666667,-0.05487606166666667,-2.6703975166666667,7.787895766666666
408,1778427380230,2.6305499,0.139977683,-0.045277028000000004,0.19417879000000002,-2.4694228,7.133379000000001
409,1778427380240,2.6239946,0.2687352,-0.14531335,0.17318029999999998,-2.370768,6.8806334
410,1778427380250,2.6077436333333335,0.3799002233333333,-0.15627943833333333,-0.11056660233333333,-2.171931466666667,6.463590666666666
411,1778427380260,2.546646857142857,0.7532669585714286,-0.11929267685714286,-0.6597562671428572,-1.8060449571428572,5.907830628571429
412,1778427380270,2.535148,0.84029293,-0.04890529400000001,-1.040761675,-1.29373625,5.4669385
413,1778427380280,2.4380488000000002,1.0959378666666666,0.11319765999999999,-1.3174836,-0.7767660533333333,5.0761881
414,1778427380290,2.3791022,1.1672022,0.13958131,-1.4811954,-0.4311181599999999,4.8307223
415,1778427380300,2.3001952,1.335017,0.21190260000000002,-1.61146245,-0.179288957,4.61921015
416,1778427380310,2.2593042999999997,1.4163718571428572,0.2528980185714286,-1.9244000714285716,0.3799145428571428,3.7439276571428572
417,1778427380320,2.1654923,1.5259425999999998,0.32733616,-1.9103283,0.264122865,3.1658854499999998
418,1778427380330,2.1046554166666667,1.6167304166666667,0.3940575416666667,-1.8305339999999999,0.07701992666666667,2.7261897166666667
419,1778427380340,2.098964,1.7547974999999998,0.4816135000000001,-1.6308575,-0.19837849,2.3805418
420,1778427380350,2.1395659166666667,1.8161222333333333,0.48968306,-1.30032845,-0.4384994416666667,1.8929952333333333
421,1778427380360,2.192584357142857,1.9310099285714286,0.4169058628571429,-0.9784752,-0.5502587285714285,1.1981685885714286
422,1778427380370,2.162107783333333,1.9795769333333333,0.30862572,-0.9499209333333333,-0.5410484566666666,0.8212574033333334
423,1778427380380,2.1726267,2.0122516,0.22543996999999996,-1.1398236666666668,-0.4609487266666667,0.290619132
424,1778427380390,2.2092144,2.0181665,0.17031482,-1.3055718,-0.37430769999999997,0.011759156
425,1778427380400,2.2063686666666666,2.010035933333333,0.16029390666666668,-1.4515685666666667,-0.26338474666666667,-0.18855372933333334
426,1778427380410,2.155552685714286,1.9686514857142856,0.18001050285714287,-2.034682957142857,0.23457225714285715,-0.9824021857142856
427,1778427380420,2.082022,1.91241855,0.2747924583333334,-2.341701,0.5319618199999999,-1.4112005333333333
428,1778427380430,2.0236750666666663,1.8042922666666665,0.44781069,-2.5389596666666665,0.78374012,-1.8533142666666667
429,1778427380440,2.0535243833333334,1.7578668000000002,0.551607375,-2.7262916999999995,1.1097895,-2.4830146
430,1778427380450,2.1422591166666667,1.6938286,0.7183244333333333,-2.6168448166666667,1.2153418666666667,-2.8686485499999996
431,1778427380460,2.2035432,1.6551576,0.8341341,-2.4200954,1.3238977,-3.2184963
432,1778427380470,2.220251466666667,1.6386119,0.8731404133333333,-2.4200954,1.3238977,-3.2184963
433,1778427380480,2.253668,1.6055205,0.95115304,-2.3502022,1.3588188333333333,-3.3025921
434,1778427380490,2.253668,1.6055205,0.95115304,-2.2104158,1.4286611,-3.4707837
435,1778427380500,2.253668,1.6055205,0.95115304,-2.10919035,1.4846316333333334,-3.572263716666667
436,1778427380510,2.2687095,1.5001281666666666,1.0243280899999998,-1.6030631,1.7644843000000001,-4.0796638
437,1778427380520,2.2717178,1.4790497,1.0389631,-1.30335735,2.015193633333334,-4.3332998
438,1778427380530,2.2607009333333337,1.4047364333333334,1.0259135666666666,-1.2434162,2.0653355,-4.384027
439,1778427380540,2.2551925,1.3675798,1.0193888,-1.2434162,2.0653355,-4.384027
440,1778427380550,2.2551925,1.3675798,1.0193888,-1.2434162,2.0653355,-4.384027
441,1778427380560,2.2372239333333335,1.3148328333333332,0.9981680133333333,-0.7848091,2.4985917,-4.7033567
442,1778427380570,2.1661222666666666,1.1201873,0.91934226,-0.7848091,2.4985917,-4.7033567
443,1778427380580,2.14854,1.0756115,0.9011501699999999,-0.26740626,2.8376217,-4.980995
444,1778427380590,2.1369946166666667,1.0478456666666667,0.8838015916666667,0.20433442,2.9526172,-5.190522
445,1778427380600,2.0792677,0.9090165,0.7970587,0.20433442,2.9526172,-5.190522
446,1778427380610,2.0638602833333333,0.8750206,0.7732565,0.56275961,2.9420798,-5.309869999999999
447,1778427380620,1.9868232,0.7050411,0.6542455,0.9211848,2.9315424,-5.429218
448,1778427380630,1.9868232,0.7050411,0.6542455,1.4171637428571429,2.8494682285714283,-5.6075028571428565
449,1778427380640,1.9868232,0.7050411,0.6542455,1.4998269,2.8357892,-5.637217
450,1778427380650,1.9868232,0.7050411,0.6542455,1.4998269,2.8357892,-5.637217
451,1778427380660,1.924533,0.4663687,0.48072925,1.4998268999999997,2.8357891999999993,-5.637217
452,1778427380670,1.8850489666666668,0.37290793833333336,0.40821486999999995,1.4998268999999997,2.8357891999999993,-5.637217
453,1778427380680,1.8228503,0.22940363000000003,0.29794422,1.4998269,2.8357892,-5.637217
454,1778427380690,1.8228503,0.22940363,0.29794422,1.7102700000000002,2.7775279499999996,-5.7153315000000005
455,1778427380700,1.8228503,0.22940363,0.29794422,2.2719605499999997,2.6131288500000003,-5.9406645000000005
456,1778427380710,1.78120145,0.10570738749999999,0.179156796,2.7863600833333333,2.4445045833333334,-6.167295499999999
457,1778427380720,1.7292349999999999,-0.15036243600000002,-0.015293575199999998,2.8189905,2.4320073,-6.183178
458,1778427380730,1.7223566000000001,-0.23861149,-0.06573554,2.85729675,2.4899122166666667,-6.312732166666667
459,1778427380740,1.7223566000000001,-0.23861149,-0.06573554,2.363743,2.5964828,-5.9815927
460,1778427380750,1.7733961,0.12781233,0.20556077000000003,2.363743,2.5964828,-5.9815927
461,1778427380760,1.7733961,0.12781233,0.20556077,2.363743,2.5964828,-5.9815927
462,1778427380770,1.7418901666666666,-0.06602010999999999,0.045429479333333335,2.5316800666666666,2.551431433333333,-6.080603633333333
463,1778427380780,1.7261371999999997,-0.16293633,-0.034636166,2.8675542,2.4613287,-6.2786255
464,1778427380790,1.7261372,-0.16293633,-0.034636166,2.8177685999999995,2.6250408,-6.462343
465,1778427380800,1.6861348799999998,-0.349630162,-0.10732332919999998,2.78679774,2.6719551,-6.49038202
466,1778427380810,1.6761343,-0.39630362,-0.12549512,2.7661505,2.7032313,-6.5090747
467,1778427380820,1.64657166,-0.45772184400000004,-0.14061796,2.75607126,2.7193887,-6.51521388
468,1778427380830,1.549524257142857,-0.5931878857142857,-0.16523612142857141,2.6652051285714284,2.827717,-6.495024885714286
469,1778427380840,1.12613894,-0.781594364,-0.130910076,2.6166413,2.859002,-6.433633
470,1778427380850,-0.09144260428571427,-0.7660028585714286,-0.2948952457142857,3.218779871428571,1.5789339714285713,-3.2994361000000003
471,1778427380860,-0.5742001566666667,-0.6699984666666667,-0.48346320000000004,-0.57156622,-0.4647920966666667,4.1317654
472,1778427380870,-0.48639013,-0.7961745533333334,-0.371891605,-1.4770721,-0.4821254,5.5155025
473,1778427380880,-0.13945932333333336,-0.9203382333333333,-0.2655846,-2.3159428,-0.5711589666666667,7.3437709333333325
474,1778427380890,0.637201815,-1.0813435,-0.08671237749999999,-2.7826946666666665,-0.7899505666666666,8.333220133333333
475,1778427380900,1.1483902166666666,-1.0760384166666668,0.017795752499999998,-3.1277828,-1.0227411,8.77569
476,1778427380910,1.776628057142857,-0.9765291142857143,0.21810505857142856,-3.303733814285714,-0.9004154,8.766570285714286
477,1778427380920,2.4442381333333336,-0.6186946566666667,0.5611912600000001,-3.11391105,-0.6247878833333332,8.3155555
478,1778427380930,2.5470388,-0.44276973999999997,0.64076906,-2.69854815,-0.5893831466666667,7.762239000000001
479,1778427380940,2.3452181166666666,-0.21007323166666667,0.52969555,-1.8099937,-0.6827946333333333,6.693861233333333
480,1778427380950,2.1686022,-0.08732217000000002,0.40843846999999994,-1.6136004999999998,-0.7787004999999999,6.5212917
481,1778427380960,2.1686022,-0.08732217000000002,0.40843846999999994,-1.6136004999999998,-0.7787004999999999,6.5212917
482,1778427380970,1.9502968,0.08482202,0.13330047,-1.3489432,-1.0742066,6.3484173
483,1778427380980,1.9677773833333332,0.192246995,0.019879210333333334,-1.3489432,-1.0742066,6.3484173
484,1778427380990,2.0908740166666666,0.300129305,0.027135727866666664,-1.5170074500000001,-1.150132,6.352413133333333
485,1778427381000,2.4847789833333334,0.7332745116666667,0.2693551383333333,-2.0768145666666666,-0.4645630316666667,5.628207083333334
486,1778427381010,2.3462954,0.9853014,0.34245902,-2.2342396,0.419359,4.5390344
487,1778427381020,2.0179835166666664,0.9920091166666666,0.3041031033333333,-2.3889921666666667,0.6054438350000001,4.13853595
488,1778427381030,1.8850491000000003,1.0493295,0.44709927,-2.372448,0.38362336,4.0159807
489,1778427381040,1.9666391166666666,1.1271287833333334,0.545438295,-2.263103,0.12247848499999998,3.9432878
490,1778427381050,2.085833083333333,1.18641065,0.6082163733333333,-1.9013180666666667,-0.13525574666666668,3.5095226000000004
491,1778427381060,2.1320755,1.2486094,0.64759874,-1.777007,-0.12751812,3.2837062
492,1778427381070,2.0706957000000004,1.3821190571428572,0.72009426,-1.6064010571428573,-0.07908523200000002,3.019463342857143
493,1778427381080,1.9942018,1.461,0.71802974,-1.0987939,0.021380283,2.3977988
494,1778427381090,1.9267239142857144,1.5155152285714286,0.6209683057142856,-0.8242099000000002,0.007330383,2.0993912
495,1778427381100,1.8906895333333333,1.6483076166666668,0.49476463499999995,-0.6264422916666667,-0.1676061506666667,1.7622444666666668
496,1778427381110,1.8837684,1.7305889,0.42947626000000005,-0.43237043399999997,-0.37986654,1.2207837119999998
497,1778427381120,1.8820174428571428,1.8562319857142857,0.2916895057142857,-0.41355577,-0.3727805,0.90484416
498,1778427381130,1.8283993,1.9137702,0.18946227000000002,-0.506839995,-0.22400936666666668,0.4287510433333333
499,1778427381140,1.7471749999999997,1.9715784,0.10604277,-0.698219,-0.03970624,-0.10445796
500,1778427381150,1.6921718666666667,2.0342854666666668,0.08451712666666666,-0.9045132499999999,0.004836016666666667,-0.5781330766666667
501,1778427381160,1.7667493666666667,2.048188666666667,0.11649053333333333,-1.1841113666666667,-0.09330966833333333,-1.3077097999999998
502,1778427381170,1.920234,1.99551285,0.16031422999999997,-1.2975796,-0.04846197933333333,-1.6378315333333333
503,1778427381180,1.9809083,1.9541385,0.17311986,-1.4227052,0.07391469,-1.996613
504,1778427381190,1.9809083,1.9541384999999998,0.17311986,-1.5288124399999998,0.245262396,-2.27141072
505,1778427381200,1.9673447,1.8319100285714285,0.24448291142857143,-1.6251851285714285,0.41146138,-2.5261677
506,1778427381210,1.8997652166666665,1.7016541666666667,0.333068225,-1.816356833333333,0.8199847933333334,-3.1237102333333335
507,1778427381220,1.8655356,1.5044171000000002,0.4961265000000001,-1.8193093999999999,0.9443976800000001,-3.4464252500000003
508,1778427381230,1.8760851999999997,1.3644698,0.64211065,-1.5499433166666667,1.1403581999999999,-4.092186083333334
509,1778427381240,1.8686456666666666,1.2813755999999998,0.6967480166666666,-1.3232869,1.2420417,-4.3288965
510,1778427381250,1.8289685,1.1126360833333333,0.7661829333333333,-0.9815840916666666,1.3886493666666666,-4.586223583333333
511,1778427381260,1.8091909000000002,0.9487952233333333,0.7839075000000001,-0.6892595883333333,1.5076918166666669,-4.7654615
512,1778427381270,1.8082152999999999,0.80760807,0.7811431,-0.07546730416666667,1.7242945,-5.092376333333333
513,1778427381280,1.8245315857142859,0.6678525628571429,0.7266538857142857,0.39699696285714287,1.8582739142857143,-5.355760971428572
514,1778427381290,1.8193135,0.5076312533333334,0.6318254733333334,0.9166032999999999,1.97508,-5.692958999999999
515,1778427381300,1.7850431,0.40929215999999996,0.5477149,1.3049608,2.0470095,-5.9831195
516,1778427381310,1.7545535666666667,0.36006165333333334,0.49409388000000004,1.3587169666666667,2.0591759,-6.025931
517,1778427381320,1.66964005,0.17537608333333332,0.3392271116666667,1.6337082166666665,2.232279783333333,-6.2638885
518,1778427381330,1.614676157142857,0.03114293142857143,0.2517829714285714,1.7123644285714286,2.3695898571428566,-6.340170114285714
519,1778427381340,1.5870539666666665,-0.098034175,0.19843636499999998,1.7304286,2.4126122,-6.358496
520,1778427381350,1.5383417666666668,-0.25592956,0.14900259833333332,1.8387298166666668,2.7058275166666665,-6.419531583333334
521,1778427381360,1.4763259666666666,-0.39744187999999997,0.11520997666666666,1.9019289,2.8231136666666665,-6.403802
522,1778427381370,1.35882925,-0.590583235,0.08741364,1.9654589,2.9064968000000007,-6.369797000000001
523,1778427381380,1.308125,-0.65619683,0.08043153,2.1627684,2.9768991,-6.2015038
524,1778427381390,1.1900085,-0.75211704,0.057564333,2.3985878166666663,2.8993191666666664,-5.934072366666666
525,1778427381400,1.0942101,-0.8204747,0.028782167,2.5288293,2.8409815,-5.773440400000001
526,1778427381410,1.0435161,-0.8485861133333333,0.015000875000000002,2.6520714,2.717841283333333,-5.54398405
527,1778427381420,0.8201698,-0.9582266,-0.041038983,2.8345675,2.5117252,-5.1676145
528,1778427381430,0.6306466,-1.0368288,-0.062442668,3.0368403,2.12420755,-4.3994515
529,1778427381440,0.39014471666666667,-1.0982753666666667,-0.09020851333333334,3.1172709,1.9251927500000001,-3.9644901666666663
530,1778427381450,0.2584297,-1.1115892,-0.11134795999999998,3.2082643999999996,1.6429219999999998,-3.329063
531,1778427381460,0.17641272499999996,-1.1029607,-0.13534326,3.2432872666666666,1.4210761333333333,-2.8631763333333335
532,1778427381470,-0.002561125,-1.0514638,-0.23098910000000003,3.2238668333333336,1.1181888116666667,-2.2160409333333333
533,1778427381480,-0.046506776,-1.0156689333333333,-0.30202982666666667,2.933375,0.5603670533333333,-0.70366586
534,1778427381490,-0.07439458,-0.9845696,-0.3510570800000001,2.620612,0.44532076,0.08170322
535,1778427381500,-0.10403045,-0.9296274,-0.38715672,2.20626208,0.585789244,0.774607688
536,1778427381510,-0.13269066666666665,-0.9151448999999999,-0.394982395,1.6775378000000003,0.8125017,1.6045902666666667
537,1778427381520,-0.13842271,-0.9122484,-0.39654753,1.403340732,0.9473909199999999,2.0158858000000004
538,1778427381530,-0.27552420166666663,-0.9010689,-0.42271775500000003,0.5732970199999999,1.2601132,3.339753
539,1778427381540,-0.24022307714285715,-0.9639064,-0.41962381142857147,-0.07374016285714287,1.0119855542857141,4.6689957714285715
540,1778427381550,-0.08902958166666668,-1.04759165,-0.39083582,-0.65118235,0.63697976,5.9541034999999995
541,1778427381560,0.2525234357142857,-1.1490392,-0.32106403714285714,-0.8347691714285714,0.43166357428571434,6.4247534
542,1778427381570,0.521006,-1.1995212,-0.26757658,-1.4239778333333335,-0.28720848,7.986782933333333
543,1778427381580,0.8004735999999999,-1.2262301,-0.20184104,-1.7115833200000001,-0.6511212399999999,8.777277999999999
544,1778427381590,1.5033092666666665,-1.2808877166666666,-0.06546113466666666,-1.9859483666666666,-0.9029351666666666,9.508805
545,1778427381600,1.9634682,-1.290685,0.020793896,-2.0670152,-0.959822,9.6955
546,1778427381610,2.3311217,-1.1780768333333334,0.10753676266666667,-2.05342355,-1.03144595,9.6932095
547,1778427381620,2.686559133333333,-0.9556655166666667,0.19775544199999998,-1.9426024333333334,-1.2715669,9.578927
548,1778427381630,2.9012058,-0.7852288,0.24269708,-1.7608191,-1.4616479,9.306837
549,1778427381640,3.01667,-0.39005325,0.17013187500000002,-1.4915038999999999,-1.6777414000000002,8.59090375
550,1778427381650,2.9987116,-0.3193479,0.16055815,-1.4818064,-1.6913332,8.521265
551,1778427381660,2.9365738500000003,-0.193822285,0.130495422,-1.4814245499999998,-1.7364608,8.372901
552,1778427381670,2.938647,0.16872935,0.10445730999999998,-1.5381587,-1.9985983,8.177501
553,1778427381680,3.111522916666667,0.296328275,0.15232596,-1.5760832,-2.0417408,8.097197666666666
554,1778427381690,3.378276516666667,0.5220629683333333,0.24945561500000002,-1.6543757833333335,-1.4119386666666667,7.028055500000001
555,1778427381700,3.395869,0.8437687,0.11689706,-1.7704402000000001,-0.83658,6.396828
556,1778427381710,3.12751176,1.02779166,0.039112037499999995,-2.3663392,0.2302962,5.403867
557,1778427381720,2.8546178,1.0709162,0.07482144,-2.8280515333333334,0.8187630666666665,4.864523416666667
558,1778427381730,2.3810738666666666,0.9717233799999999,0.29074866,-3.300937616666667,1.3366494666666666,3.9871938
559,1778427381740,2.004995,0.9282248599999999,0.5695454,-3.3374621999999996,1.2202033,3.1277828
560,1778427381750,1.5699086,1.0181081,0.8441956000000002,-2.6777277,0.7770206,2.6678011
561,1778427381760,1.3237052666666667,1.0428556,0.7333151833333335,-2.1245129499999997,0.5842162416666666,2.6110416
562,1778427381770,1.2636103,1.01658375,0.647964635,-1.7187457000000002,0.657749135,2.5075254499999997
563,1778427381780,1.2164734,1.0369304333333333,0.5492190666666666,-1.0360274,0.6666067,2.1734586
564,1778427381790,1.176837,1.1192117,0.4841746,-0.10445796,0.11682798,1.6439911
565,1778427381800,1.1608503000000001,1.1420686833333333,0.3744730783333334,0.52732944,-0.43401973999999993,1.2137892
566,1778427381810,1.21092428,1.2127659000000002,0.29182188,0.735023624,-0.63426138,1.05679684
567,1778427381820,1.2545854,1.3098935,0.2856264,1.3822862333333334,-1.2690725566666667,0.5389104
568,1778427381830,1.2889573333333333,1.4035982,0.08441549,1.7291813333333332,-1.5931111166666667,0.12634729666666666
569,1778427381840,1.320138,1.4628292,-0.10726235000000002,1.8096883,-1.6435330000000001,-0.12308934
570,1778427381850,1.35482495,1.5167246499999998,-0.21775660500000002,1.5915839166666668,-1.4398348933333331,-0.20066922666666667
571,1778427381860,1.54970012,1.64087628,-0.4516604920000001,0.9482155999999999,-0.93508196,-0.35216382
572,1778427381870,1.6666826,1.6742441999999997,-0.53259206,0.30044390000000004,-0.6552293266666667,-0.5461135533333333
573,1778427381880,1.9402656333333332,1.7046116833333331,-0.4243336866666667,-0.40434190666666664,-0.37642026666666667,-0.7778350833333333
574,1778427381890,2.1126232,1.7168075,-0.32245782,-1.52970835,0.10074186,-1.4102078333333334
575,1778427381900,2.2113587,1.6870801666666668,-0.21157737000000001,-1.9399298166666668,0.3763948066666667,-1.8962784666666668
576,1778427381910,2.4238172857142857,1.5345407857142859,0.09810677142857142,-2.248136771428572,0.7332782857142857,-2.6137395857142853
577,1778427381920,2.47471744,1.45463368,0.225354614,-2.3069327,0.8969029,-2.9336803
578,1778427381930,2.4982555,1.3103203499999998,0.39779760000000003,-2.276542,1.1007792,-3.296229
579,1778427381940,2.5200511428571426,1.2259513285714285,0.49120460714285713,-1.9966785142857142,1.2328133142857143,-3.7291141714285714
580,1778427381950,2.5388675,1.1944599,0.5263112,-1.8083137999999999,1.2513574,-3.9374847
581,1778427381960,2.6307224833333334,1.0168886333333333,0.6221297766666667,-1.3604732166666667,1.2721014000000002,-4.317748283333334
582,1778427381970,2.6816809999999998,0.8666359,0.63095146,-0.6981680466666668,1.4815518666666667,-4.928918833333333
583,1778427381980,2.6429388,0.6207679533333333,0.5497678433333334,-0.34452798833333337,1.6915877333333336,-5.2740579
584,1778427381990,2.628446,0.5614962,0.5260063,-0.087659165,1.8512272,-5.5086303
585,1778427382000,2.6108108000000003,0.5063222279999999,0.49922425,0.11866057999999999,1.9416350999999998,-5.6703568
586,1778427382010,2.5045974,0.22635466,0.36715558,0.5027203057142857,2.0387627571428575,-5.970509542857143
587,1778427382020,2.4103847,0.0026830835,0.26495448,0.8993463499999999,2.0511327,-6.2041
588,1778427382030,2.3643452000000003,-0.07826675691666667,0.22084622166666668,0.9962703166666667,2.0435988333333333,-6.2636595999999995
589,1778427382040,2.2261867499999997,-0.25112235749999995,0.12116560133333333,1.2477431833333332,2.0429370833333333,-6.447733666666667
590,1778427382050,2.101708,-0.38538834,0.042502478,1.396997933333333,2.0524564,-6.581665800000001
591,1778427382060,1.8178499666666665,-0.6156659866666666,-0.06624370066666667,1.4161129166666668,2.0640628500000004,-6.6004245
592,1778427382070,1.6793053,-0.7086389,-0.10006681,1.391551,2.1142046,-6.5639
593,1778427382080,1.59100745,-0.7592211,-0.10018877,1.3720796666666668,2.255136333333333,-6.393213983333333
594,1778427382090,1.3263578,-0.8879787,-0.090554066,1.3681599333333334,2.385479716666667,-6.204736583333333
595,1778427382100,1.0609765633333332,-0.9812666266666666,-0.054911743000000006,1.4375949833333335,2.4926101333333333,-5.8933480000000005
596,1778427382110,0.8951539066666667,-1.0346539,-0.03270516166666667,1.65796465,2.58930505,-5.251456
597,1778427382120,0.8274264,-1.0476221,-0.025184397000000004,1.7366899,2.6021333,-5.052314
598,1778427382130,0.7708376933333333,-1.0512402333333333,-0.025834842333333333,1.9091575666666667,2.5623251000000002,-4.656167733333334
599,1778427382140,0.6974797,-1.0716479,-0.03140427,2.1948388,2.4738514,-3.995975
600,1778427382150,0.6565627,-1.0721967,-0.033843435,2.2562307400000003,2.4610233399999997,-3.8412121999999997
601,1778427382160,0.58865225,-1.0777458166666667,-0.027928457666666667,2.4260512999999997,2.4485006333333335,-3.4105114666666663
602,1778427382170,0.46545399000000004,-1.1037229666666668,-0.028843146,2.7350982666666668,2.3858360333333333,-2.7097473
603,1778427382180,0.37715616999999996,-1.1268951,-0.040429186,2.9393308499999997,2.3162483000000003,-2.2485949499999998
604,1778427382190,0.107933134,-1.1861058,-0.08110229,3.0114129,2.2892175,-2.054798
605,1778427382200,-0.010315639333333336,-1.1218743833333333,-0.08816571499999999,3.09413415,2.303725666666667,-1.58926775
606,1778427382210,-0.06074541016666666,-0.9758496166666667,-0.13186745,3.331379,1.9244800666666668,-0.7399359333333333
607,1778427382220,-0.23422096999999997,-0.9546288466666667,-0.25660033,3.4071009999999995,1.6279559,-0.5140431
608,1778427382230,-0.44057447,-0.9579217400000001,-0.41539007,3.4071009999999995,1.6279559,-0.5140431
609,1778427382240,-0.44057447,-0.9579217400000001,-0.41539007,3.4071009999999995,1.6279559,-0.5140431
610,1778427382250,-0.44057446999999994,-0.95792174,-0.41539007000000006,3.407101,1.6279559,-0.5140431
611,1778427382260,-0.44057447,-0.9579217400000001,-0.41539007,3.4071009999999995,1.6279559,-0.5140431
612,1778427382270,-0.44057446999999994,-0.95792174,-0.41539007000000006,3.407101,1.6279559,-0.5140431
613,1778427382280,-0.44057447,-0.9579217400000001,-0.41539007,3.4071009999999995,1.6279559,-0.5140431
614,1778427382290,-0.44057446999999994,-0.95792174,-0.41539007000000006,3.407101,1.6279559,-0.5140431
615,1778427382300,-0.44057446999999994,-0.95792174,-0.41539007000000006,3.407101,1.6279559,-0.5140431
616,1778427382310,-0.44057447,-0.9579217400000001,-0.41539007,3.4071009999999995,1.6279559,-0.5140431
617,1778427382320,-0.44057446999999994,-0.95792174,-0.41539007000000006,3.407101,1.6279559,-0.5140431
618,1778427382330,-0.44057446999999994,-0.95792174,-0.41539007000000006,3.407101,1.6279559,-0.5140431
619,1778427382340,-0.5059136350000001,-0.9175840000000001,-0.492589685,3.18856385,1.0788643999999998,0.217544375
620,1778427382350,-0.6254632999999999,-0.86648345,-0.60476085,1.5870279,0.03924809,2.5819747
621,1778427382360,-0.6796738000000001,-0.85572064,-0.6397324,1.5870279,0.03924809,2.5819747
622,1778427382370,-0.6451596333333334,-0.8641764366666668,-0.6189995333333334,1.4989615166666665,0.12443833833333333,2.690581416666667
623,1778427382380,-0.53487878,-1.005017985,-0.5823713766666666,0.44231733833333337,0.2730313,3.90037455
624,1778427382390,-0.46458283028571434,-1.122173457142857,-0.52894201,-0.86627236,0.5812818771428571,5.599147328571428
625,1778427382400,0.022867188,-1.3752021999999997,-0.49569967,-2.2511911,0.73548174,7.5304413
626,1778427382410,1.8382475146666668,-1.5820333333333334,0.065013955,-3.886782683333333,0.16406822083333333,8.870654383333333
627,1778427382420,2.7735242,-1.375088942857143,0.42906684428571434,-4.0716350142857145,-0.9927651228571428,8.840812571428572
628,1778427382430,3.2067521000000005,-1.1753532166666665,0.69022315,-3.8589885333333336,-1.2577206333333333,8.525846666666666
629,1778427382440,3.208784816666667,-0.8442362583333334,0.9326154066666666,-3.0876183000000004,-1.1542553333333332,7.992739033333333
630,1778427382450,3.3153677714285714,-0.3287212485714286,1.0107819571428571,-1.6730507428571428,-1.1040080428571428,7.353639571428571
631,1778427382460,3.5098388666666662,0.09984322333333334,0.7607151233333335,-1.1307878500000001,-1.1262573999999999,6.9936435999999995
632,1778427382470,3.49043,0.34914058285714283,0.7623180128571428,-0.7682066471428571,-0.61959188,5.821436614285714
633,1778427382480,3.1534767,0.8272434,0.7344331,-0.08720101399999998,-0.376293,4.361578
634,1778427382490,2.808700416666667,1.07430045,0.5451131283333334,-0.033063081833333334,0.5601379666666667,3.4907385833333335
635,1778427382500,2.5022802,1.2350111,0.33910516000000007,0.07796167450000001,0.9020188849999999,2.7386616499999996
636,1778427382510,2.2825925999999996,1.2612321666666666,0.23958714666666667,0.17381661333333334,1.2128220616666667,1.4699962666666666
637,1778427382520,1.9629803,1.2564148,0.13769096,0.18509217000000003,1.3249666999999998,1.071763
638,1778427382530,1.5313698,1.1879961,-0.003963646,0.24129177999999998,1.3371841,0.53023106
639,1778427382540,1.4894466333333334,1.1802619166666668,-0.025712881666666663,0.24129177999999998,1.3371841,0.53023106
640,1778427382550,1.2798308,1.141591,-0.13445906,0.2999602966666667,1.2005030166666666,0.19234619833333333
641,1778427382560,1.1362858,1.1165895,-0.2499536,0.3500766866666667,0.9316713599999998,-0.08964447799999999
642,1778427382570,1.107961,1.1334198,-0.28669355,0.38596501,0.46578474666666664,-0.3783801233333333
643,1778427382580,1.1178396499999999,1.1803737666666667,-0.3544617366666667,0.3442225666666667,-0.2242384523333333,-0.7958556366666666
644,1778427382590,1.3374125142857145,1.2827316142857141,-0.4891313085714285,0.22780911714285715,-0.5698936428571428,-1.0886927857142856
645,1778427382600,1.4241176166666667,1.2963357166666667,-0.5524509166666667,-0.3750712600000001,-0.59483004,-1.6481144
646,1778427382610,1.4613657,1.2898313,-0.5633255,-0.7613162933333334,-0.49238284000000004,-1.8550450666666667
647,1778427382620,1.5512368,1.27245228,-0.47396667400000003,-1.45107982,-0.37033706,-2.1989622
648,1778427382630,1.7026603571428571,1.2328507285714285,-0.28713347857142857,-2.0122991428571426,-0.29288806714285714,-2.536945285714286
649,1778427382640,1.8559880857142856,1.1978834999999999,-0.07458622742857143,-2.3309090000000006,-0.25702155,-2.816547
650,1778427382650,1.9496870000000002,1.1622019,0.025245375999999996,-2.5372288,-0.19272798,-3.0416508
651,1778427382660,2.065486433333333,1.1305842,0.13174549233333332,-2.5822292,-0.09091710833333333,-3.1572061666666666
652,1778427382670,2.3500152,1.0521955,0.38148567,-2.6553038333333334,0.2043344225,-3.4782922333333333
653,1778427382680,2.6544841666666668,0.9421281433333334,0.6681894,-2.2986095333333334,0.4660392766666667,-3.9407170333333332
654,1778427382690,2.7349765,0.88090503,0.772789,-1.8817958499999998,0.600302375,-4.317646333333333
655,1778427382700,2.7715641499999997,0.78582836,0.8120086999999999,-1.4329371,0.70707655,-4.615698
656,1778427382710,2.7832723,0.6735759,0.8324875,-0.9931141833333333,0.8077420416666666,-4.886260083333333
657,1778427382720,2.7589617499999997,0.5674721466666667,0.7836432716666667,-0.56973364,0.9331730433333333,-5.129282583333333
658,1778427382730,2.7333912999999996,0.45094094,0.71961516,-0.08933904,1.1078042,-5.407379
659,1778427382740,2.6985315500000002,0.38980932333333335,0.6619390266666666,0.16814066000000003,1.2643384,-5.592624
660,1778427382750,2.6073269333333333,0.28688665333333335,0.5567804399999999,0.2706896616666667,1.3645966166666668,-5.704845083333333
661,1778427382760,2.4359755333333335,0.13636974666666668,0.4349644,0.56398135,1.6727017,-6.007248999999999
662,1778427382770,2.3380836666666664,0.05825543386666667,0.3839858133333333,0.620868175,1.7482962833333335,-6.047209416666667
663,1778427382780,2.1172578333333334,-0.1267045514,0.3035238083333333,0.7952192666666668,1.8897879666666668,-6.093559
664,1778427382790,2.014324866666667,-0.27674377666666666,0.25326682,0.8472700999999999,1.9092592999999998,-6.081469000000001
665,1778427382800,1.9061391142857143,-0.46710911571428576,0.17339862714285714,1.1178834,1.9364429,-6.043748
666,1778427382810,1.8322614333333334,-0.5651142583333334,0.11195775533333334,1.3037392,1.996613,-6.042832
667,1778427382820,1.7515656,-0.6603434,0.051283482,1.4062881333333335,2.0647499,-6.016233633333333
668,1778427382830,1.5916476833333333,-0.7897717333333333,-0.04287851633333333,1.4827736,2.155488866666667,-5.910121266666667
669,1778427382840,1.463439,-0.8737705,-0.1042134,1.4715744,2.166281,-5.839261
670,1778427382850,1.2599950999999998,-1.0385710571428572,-0.1606104142857143,1.3997977,2.1717787,-5.594762
671,1778427382860,1.2011067,-1.0970762,-0.16994893999999997,1.3330606,2.1881194,-5.386914999999999
672,1778427382870,1.0621352,-1.2079058500000002,-0.1674183,1.2426017,2.2546526666666664,-5.053382666666667
673,1778427382880,0.9999974000000001,-1.2501949,-0.16397297,1.19581955,2.3063470833333333,-4.79193245
674,1778427382890,0.8745632149999999,-1.3076982499999998,-0.16284487,1.18614755,2.2907447,-4.47588585
675,1778427382900,0.7981156683333333,-1.3438182666666665,-0.16359694666666666,1.2096659,2.2161428,-4.17618
676,1778427382910,0.70735836,-1.3945326,-0.17421748,1.2308935,2.1717787,-4.045913
677,1778427382920,0.62645932,-1.4229896,-0.18214476666666668,1.2970705833333334,2.0530417,-3.78884075
678,1778427382930,0.4400500640000001,-1.4486333,-0.202889898,1.3525167599999999,1.9321667400000002,-3.5792121800000003
679,1778427382940,0.10992801531428573,-1.4305626,-0.25508458,1.5373515,1.3631457428571427,-2.682069342857143
680,1778427382950,-0.026180388083333336,-1.40772445,-0.2873440133333333,1.5885551333333332,1.02935882,-2.1634811
681,1778427382960,-0.21410801666666668,-1.3503023666666667,-0.33945071,1.5774577,0.63270368,-1.5428929
682,1778427382970,-0.38452244,-1.2828431,-0.374253538,1.5059355799999998,0.34672710920000005,-0.9828516159999999
683,1778427382980,-0.5773710666666667,-1.2092879666666667,-0.4338667583333333,1.3477214999999998,0.084910266,-0.23197608
684,1778427382990,-0.7424945399999999,-1.15245754,-0.5123348,1.1716396,-0.008246681,0.30390546
685,1778427383000,-0.8195498683333332,-1.1426582166666666,-0.5609575633333334,0.730849375,-0.1430188235,1.4875841433333334
686,1778427383010,-0.8514216833333333,-1.1916143000000001,-0.6050962966666666,0.2649882575,-0.30795243833333336,2.787429083333333
687,1778427383020,-0.7812346,-1.2694948499999998,-0.638970215,-0.1569160025,-0.7116580149999999,4.28132525
688,1778427383030,-0.7145539,-1.2984904,-0.6460133,-0.3231477,-0.9447031,4.946481
689,1778427383040,-0.496583865,-1.3625185333333334,-0.6690431,-0.43142357000000003,-1.1903473,5.4870205
690,1778427383050,0.17360768666666668,-1.5432201333333333,-0.7157531233333333,-1.00746955,-2.23767565,7.755621499999999
691,1778427383060,0.8014927257142856,-1.6126812714285716,-0.67225174,-1.4787084571428573,-2.632632842857143,8.983166142857142
692,1778427383070,1.349225,-1.6380834999999998,-0.6084501,-1.7878753333333333,-2.826677166666667,9.698529666666667
693,1778427383080,2.0397124,-1.5494196333333334,-0.47706033333333336,-2.1438315,-3.0079005,10.427623
694,1778427383090,3.103813314285714,-1.322368057142857,-0.2691968785714286,-2.304838142857143,-3.1389092857142855,10.579248000000002
695,1778427383100,3.5643907599999998,-1.0760261899999999,-0.13020271,-2.41001608,-3.19910134,10.18514
696,1778427383110,4.256529,-0.38301015,0.19830425,-2.4381158,-2.8896980000000005,9.245445
697,1778427383120,3.982813866666666,-0.24515657666666665,0.23025733666666667,-2.5000169333333333,-2.5071945333333336,9.007207666666668
698,1778427383130,3.6627646333333335,-0.004014460833333332,0.19760299666666667,-2.591799416666667,-1.9256254666666666,9.0040265
699,1778427383140,3.805405,0.3148964,0.43203737999999997,-2.661590766666667,-2.0074559,9.037217
700,1778427383150,4.165216814285714,0.49398355,0.6389223314285715,-2.4225824571428576,-1.9024525714285716,8.369705
701,1778427383160,4.25535,0.7234263666666667,0.7701161166666667,-2.0355047666666666,-1.8383480666666667,7.5172061
702,1778427383170,4.0453277,1.0149067666666667,1.0629685666666668,-1.3926709666666668,-1.6999870333333333,6.505104066666667
703,1778427383180,3.7777812,1.1604946,1.1214069,-0.8738427,-1.5688547,5.8850756
704,1778427383190,3.3929927,1.3251992666666668,1.00241618,-0.44229186666666664,-1.30249195,5.353368433333333
705,1778427383200,3.152562,1.4590485,0.93237144,0.23945917,-0.8491026999999999,4.3432517
706,1778427383210,2.9572253333333336,1.5275484166666666,0.8024350733333333,0.4070653366666667,-0.6103562,3.8280887833333335
707,1778427383220,2.5326782333333333,1.5274976333333334,0.59949638,0.44071382,-0.004352416666666664,2.7895925
708,1778427383230,2.0365822,1.501673,0.47624728,0.35888332000000006,0.37705657,2.1966715
709,1778427383240,1.6599545833333333,1.46216865,0.3388002616666666,0.24668774000000002,0.6032803233333334,1.8977547666666668
710,1778427383250,1.2542399333333332,1.3787694833333335,0.21636423833333332,-0.15859589,1.1570042833333334,1.2768102000000001
711,1778427383260,1.0588626333333333,1.3266018333333334,0.18651493666666666,-0.35501451333333334,1.3918565,1.0254391666666667
712,1778427383270,0.9581657,1.3006247,0.17427845,-0.44623705999999996,1.5115861,0.8881981
713,1778427383280,0.9581657,1.3006247,0.17427845,-0.44623706,1.5115861,0.8881981
714,1778427383290,0.7964489266666667,1.2524917666666668,0.14695979666666667,-0.48930308,1.61993825,0.6171266249999999
715,1778427383300,0.629416805,1.1668565666666666,0.0315363925,-0.18534670333333333,1.1658362999999998,-0.4217515566666667
716,1778427383310,0.63576883,1.1578114,0.03280679,-0.09972375,1.0167851,-0.57864213
717,1778427383320,0.5783162333333333,1.113195,-0.021667929833333332,0.16478089999999998,0.644233765,-1.18584215
718,1778427383330,0.5614962,1.097442,-0.078480184,0.18234327,0.61575216,-1.3061826
719,1778427383340,0.6088261833333334,1.1377493166666668,-0.13656284566666668,0.06696610166666667,0.4888194333333334,-1.55340485
720,1778427383350,0.70351666,1.1987895,-0.15476513,-0.06780604,0.34742960000000006,-1.7220291
721,1778427383360,0.9520982066666667,1.2714765833333332,-0.09519864500000001,-0.1978185266666667,0.05920302666666668,-1.9635245000000001
722,1778427383370,1.2718119333333335,1.3498347666666666,-0.0368619085,-0.28812477333333336,-0.43427431333333333,-2.3368649666666665
723,1778427383380,1.6214274142857144,1.3860477857142857,0.007326211571428571,-0.3498512485714285,-0.6509205885714285,-2.5701718714285713
724,1778427383390,1.953162866666667,1.3730272666666667,0.062462991999999995,-0.503072985,-0.902477055,-3.0161726333333334
725,1778427383400,2.1392306666666667,1.3119667666666668,0.10514840666666665,-0.72158456,-0.89980453,-3.5172092999999998
726,1778427383410,2.1789076,1.2595247,0.10848194,-1.04921196,-0.5320381933333334,-3.9572105500000005
727,1778427383420,2.2567780333333336,1.1380542333333332,0.14559792666666668,-1.6278540000000001,0.18468493333333333,-4.407087233333333
728,1778427383430,2.3765717166666667,1.0728879166666665,0.21676061666666668,-1.9741891666666669,0.55583649,-4.5446590166666665
729,1778427383440,2.653955633333333,0.9698330666666667,0.39986071333333334,-2.2687535333333333,0.8480336933333333,-4.7358854
730,1778427383450,2.7913213,0.9068212,0.53698254,-2.3338106,0.9595166,-4.891045
731,1778427383460,2.853896316666667,0.8247838499999999,0.658331095,-2.1548526999999997,1.2590695833333332,-5.1827587
732,1778427383470,2.8568537333333333,0.64467178,0.8261051199999999,-1.9426534333333334,1.5510377333333334,-5.400303166666667
733,1778427383480,2.7711373333333333,0.5525728766666667,0.8541148666666666,-1.6367625,1.8225673999999998,-5.512906200000001
734,1778427383490,2.6500328,0.44911155,0.8698067999999999,-1.2866349,2.092977,-5.590486
735,1778427383500,2.496792,0.30520073,0.81773067,-0.6629415,2.2832615,-5.603619599999999
736,1778427383510,2.439268333333333,0.24844946333333331,0.7628494233333333,-0.45051311499999996,2.2864686,-5.5891116
737,1778427383520,2.3982496999999996,0.18677919833333334,0.6901419333333333,0.05319617666666666,2.237217616666667,-5.5465037
738,1778427383530,2.288050183333333,0.008974099166666664,0.41103007999999996,0.558865355,2.2325596500000002,-5.550474
739,1778427383540,2.1341246,-0.125324386,0.204572912,0.72509706,2.2901337,-5.584988
740,1778427383550,2.020118,-0.19751152000000002,0.11171384,0.7136432999999999,2.4984388,-5.5880427
741,1778427383560,1.8009891666666666,-0.30587150999999996,0.0228367,0.6656904,2.6222918,-5.552918000000001
742,1778427383570,1.5400898333333333,-0.40374307333333337,-0.04254313099999999,0.585437975,2.790585166666667,-5.447798283333333
743,1778427383580,1.31949765,-0.473076385,-0.0760410215,0.47871471000000004,3.0117692666666667,-5.2467217999999995
744,1778427383590,1.1801298,-0.51557887,-0.09311519,0.43554692999999994,3.1035008000000004,-5.114164
745,1778427383600,1.0388411,-0.5511907,-0.09531044,0.42679119000000004,3.1275282000000004,-5.012353133333334
746,1778427383610,1.0124574566666666,-0.5573394333333334,-0.09381645,0.43198354,3.1380656666666673,-4.881984233333333
747,1778427383620,0.7919872683333334,-0.6094359383333333,-0.08104131166666667,0.4964297933333333,3.142239866666667,-4.525137099999999
748,1778427383630,0.6470702666666667,-0.6341223533333333,-0.08189502333333333,0.5591707833333334,3.1636202,-4.25806175
749,1778427383640,0.557178844,-0.63604928,-0.080309566,0.7247610919999999,3.24564918,-3.60208916
750,1778427383650,0.5065132666666666,-0.6370290233333333,-0.07250422866666667,0.8032623583333333,3.276782966666667,-3.3580281666666667
751,1778427383660,0.4684826066666667,-0.6366022033333333,-0.06260528066666667,0.9222538,3.3124168,-3.03936
752,1778427383670,0.46734433,-0.6432387549999999,-0.056405728999999995,1.0587822,3.3327281,-2.7510315999999997
753,1778427383680,0.49502889333333333,-0.6726611933333334,-0.061690588666666664,1.2761992666666666,3.3038647,-2.435723266666667
754,1778427383690,0.5387001333333333,-0.7179585666666667,-0.07559383933333333,1.5974125666666668,3.214143833333333,-2.02695255
755,1778427383700,0.5594838,-0.7438239000000001,-0.091651686,1.8952094,3.058755,-1.7617353
756,1778427383710,0.5141560066666667,-0.7042077666666667,-0.12728384533333334,1.8952094,3.058755,-1.7617353
757,1778427383720,0.45228252,-0.6613191,-0.16019227,2.4054346833333335,2.5258260166666666,-1.5494087833333332
758,1778427383730,0.30194850666666667,-0.6508713333333332,-0.204056625,2.80718045,1.8849773666666667,-1.4220433833333332
759,1778427383740,0.041099962,-0.6686975749999999,-0.29084013999999997,3.1467197,1.2657127,-1.2522738
760,1778427383750,-0.047380816,-0.67199045,-0.32965338,3.4156530000000003,0.66630125,-0.9561568499999998
761,1778427383760,-0.0823015525,-0.6147411733333333,-0.46089070000000004,3.54614915,0.04998914166666668,-0.61078891
762,1778427383770,-0.3278036833333333,-0.59858165,-0.6149240833333334,3.5472944,-0.559858,-0.32177326
763,1778427383780,-0.50540754,-0.570423514,-0.7313842,2.88969802,-0.84736172,0.49095239199999996
764,1778427383790,-0.6881499,-0.49539477000000004,-0.910419,2.3533074333333333,-0.9257153666666667,1.1351403333333334
765,1778427383800,-0.8009004,-0.5080174,-0.9713372,1.8895589000000002,-0.9662361,1.6815593
766,1778427383810,-0.8009004000000001,-0.5080174,-0.9713372000000001,1.13086426,-1.0892236333333334,2.6732991
767,1778427383820,-0.8240115,-0.611682,-0.9520067600000001,0.05100725,-1.3836097999999997,4.322941
768,1778427383830,-0.623219284,-0.777886832,-0.806193352,-0.582215668,-1.6572773600000001,5.7655907
769,1778427383840,0.23894685200000002,-1.0222852,-0.5437512400000001,-1.289842,-1.9850066,7.6675806
770,1778427383850,0.529726,-1.0779287,-0.49143111999999994,-1.7618372333333332,-2.1344649666666666,9.414807333333334
771,1778427383860,1.4753706,-1.0833254266666668,-0.3610779783333333,-1.8713857,-2.1755965,9.966724
772,1778427383870,2.5811872,-0.97591066,-0.23348923,-1.8486615399999997,-2.34346226,10.28694
773,1778427383880,3.082527483333333,-0.81396013,-0.17465449866666669,-1.7179821833333333,-2.6026168,10.044660666666667
774,1778427383890,3.8089012666666666,-0.5027935366666667,-0.092728985,-1.1876238499999998,-3.2365676333333333,8.381529
775,1778427383900,3.7344861999999996,-0.18142317649999998,-0.12012895666666668,-0.9358455500000001,-3.3637295,7.440490999999999
776,1778427383910,3.3603792,0.020367041,-0.19513334000000002,-0.8368853833333333,-3.302133833333333,6.907307666666667
777,1778427383920,3.0574142,0.15802750683333333,-0.27643890666666665,-0.8706357166666666,-3.14,6.492581416666667
778,1778427383930,2.7482213599999996,0.29898088,-0.325384828,-1.09790812,-2.9891164000000003,6.57523138
779,1778427383940,2.6842725499999998,0.383497985,-0.31910397500000004,-1.3828462000000001,-2.8515954000000003,6.80725315
780,1778427383950,2.918930533333333,0.5423893433333333,-0.22178123200000002,-2.0840939499999998,-2.3093506666666666,7.095708783333333
781,1778427383960,3.1926863,0.64052516,-0.124031626,-2.556751033333333,-1.8840356833333332,6.852100733333333
782,1778427383970,3.2880578,0.9193219500000002,0.26403978,-2.840676,-1.4396566,6.081469
783,1778427383980,3.217321966666667,1.085439325,0.4492639966666667,-2.6836328833333334,-1.2126693000000002,5.3672403
784,1778427383990,2.942061916666667,1.2099181666666665,0.630077415,-2.4036021,-0.9482156,4.5565968
785,1778427384000,2.66282604,1.24297498,0.8342803719999999,-1.7713870500000002,-0.8255233000000001,3.69158092
786,1778427384010,2.2586074,1.3180037,0.92901766,-0.881122235,-0.8539641833333333,2.830418733333333
787,1778427384020,1.8446807999999997,1.2180588,0.7281522,-0.24828618920000003,-0.8198727800000001,2.23439232
788,1778427384030,1.6056933000000002,1.1353813,0.6241827833333333,0.052381694,-0.7695374999999999,1.9094120000000003
789,1778427384040,1.3360942,1.0716072,0.53371,0.4186717690000001,-0.7819584433333334,1.51723655
790,1778427384050,1.009815008,1.0408411999999998,0.41882930599999996,0.674120368,-0.8282722,1.2881315
791,1778427384060,0.7988067433333333,1.0944134333333333,0.3086968766666667,0.894154,-0.8579602,1.1511755
792,1778427384070,0.77291095,1.1314075,0.26483253,1.0690142,-0.8764389,1.0656544
793,1778427384080,0.7857674083333333,1.2206403333333333,0.20110928833333333,1.1333586666666668,-0.9002626333333333,0.9850202
794,1778427384090,0.83181685,1.373068,0.10732334000000002,1.2336423,-1.03786,0.6748534
795,1778427384100,0.8391750099999999,1.48696685,0.03553052866666667,1.1797589833333333,-1.1806243333333333,0.41263948333333333
796,1778427384110,0.85157406,1.6326561,-0.037136313,0.9660834,-1.3347404999999999,0.07819075
797,1778427384120,0.93872346,1.7494720166666664,-0.06754458883333334,0.5789475666666667,-1.2577460833333334,-0.10315986666666667
798,1778427384130,1.1233988333333333,1.8638485999999999,-0.14795578666666667,-0.03588833,-0.9279552,-0.3596978133333333
799,1778427384140,1.1681169,1.8830367,-0.16482669,-0.47021353,-0.6559166,-0.5525276
800,1778427384150,1.3272202714285712,1.9413153285714286,-0.09179106571428572,-0.9372637042857141,-0.3794564171428571,-0.8077819999999999
801,1778427384160,1.44134425,1.9628380666666667,0.0032522233333333365,-1.5828281499999999,-0.09997828083333334,-1.2958743166666666
802,1778427384170,1.572043,1.9587729000000003,0.10701844,-1.9429587666666663,0.007788532333333334,-1.7142406333333333
803,1778427384180,1.572043,1.9587729000000003,0.10701844,-2.101325633333333,0.057752219166666674,-1.9432896166666669
804,1778427384190,1.8347208666666666,1.8108678666666667,0.20508310666666665,-2.4956137166666665,0.4608978383333333,-2.67197545
805,1778427384200,2.0348923142857145,1.6899505,0.2636739285714286,-2.6285969000000002,0.713926942857143,-2.9289678428571433
806,1778427384210,2.1552681333333332,1.5982639666666667,0.31083115666666666,-2.7635543000000005,1.0858129,-3.2507193
807,1778427384220,2.2283008333333334,1.4940201000000002,0.3665051283333334,-2.7762299,1.4413365,-3.6490035000000005
808,1778427384230,2.206144866666667,1.3349966,0.41069469,-2.622953566666667,1.7315993,-4.108425133333333
809,1778427384240,2.1465886,1.2422676,0.42081723,-2.412917783333333,2.00323075,-4.529387533333334
810,1778427384250,2.0886148714285713,1.1726816428571427,0.42056461,-2.114968257142857,2.137875657142857,-4.807313257142858
811,1778427384260,1.8897037,0.9320665666666667,0.3905919,-1.79067515,2.3085362000000003,-5.008408
812,1778427384270,1.8676698,0.8956620000000001,0.38093686,-1.6875153,2.3906212,-5.048496
813,1778427384280,1.8334301000000002,0.8435248,0.35791723,-1.6527468666666667,2.4324909166666666,-5.0551391
814,1778427384290,1.778244,0.74888515,0.319866235,-1.4789047,2.6418395,-5.0883546
815,1778427384300,1.7354365999999999,0.65192828,0.28745581,-1.2754357166666668,2.9074895166666668,-5.128697266666667
816,1778427384310,1.7135756,0.59747386,0.27007675,-1.0934488,3.1086931,-5.1670036
817,1778427384320,1.68640935,0.545275705,0.25169152499999997,-0.99245241,3.1920253333333335,-5.1816134
818,1778427384330,1.6307049000000002,0.43998501,0.21159771333333333,-0.754418575,3.3821826666666666,-5.214981833333334
819,1778427384340,1.5999307333333335,0.37796919333333334,0.18864921666666667,-0.48334710000000003,3.5483125666666666,-5.229006533333333
820,1778427384350,1.5669206000000002,0.3070301,0.16446081,-0.3016147,3.6456436999999995,-5.2155676
821,1778427384360,1.5385856666666669,0.24515657333333332,0.14315875666666666,-0.06910412833333333,3.7184384500000003,-5.183369933333333
822,1778427384370,1.5244182,0.21421981000000004,0.13250773,0.0076576322857142875,3.735659042857143,-5.170145414285714
823,1778427384380,1.5249466833333332,0.19711515433333335,0.12281204333333333,0.27127507333333334,3.7504581,-5.113960233333333
824,1778427384390,1.5275891,0.11159187600000002,0.07433361,0.4353942,3.7481165,-5.0830097
825,1778427384400,1.5313524714285713,0.07599746742857143,0.055360374,0.4951499142857143,3.7534178857142857,-5.079409828571428
826,1778427384410,1.5010226166666667,-0.06457693516666667,-0.014868753816666663,0.8884780833333333,3.8823285,-5.030195166666666
827,1778427384420,1.4392404833333332,-0.15770228083333335,-0.057188296666666666,1.0768027166666667,3.990782533333333,-4.975141116666666
828,1778427384430,1.3252602166666667,-0.24484152,-0.09849151833333335,1.2344822833333333,4.03438305,-4.875773400000001
829,1778427384440,1.0749408,-0.30068827,-0.07195542,1.5844318,3.8038578,-4.6425757
830,1778427384450,1.02746847,-0.29529162,-0.0583570635,1.6907223,3.7018434,-4.54514285
831,1778427384460,0.8988764542857143,-0.2984843157142857,-0.02618619614285714,2.1054343285714285,3.295792542857143,-4.166733642857143
832,1778427384470,0.8481592,-0.3128841,-0.021708583,2.4744625,2.9315424,-3.8337903
833,1778427384480,0.7928917999999999,-0.3291655533333333,-0.07821594533333333,3.080059,2.144773283333333,-3.3680564166666667
834,1778427384490,0.7646788,-0.3234335,-0.13391025,3.359148,1.6409367,-3.175125
835,1778427384500,0.6991348857142857,-0.3224404142857143,-0.22255653,3.4682529,1.2988958142857143,-3.0610458428571428
836,1778427384510,0.58403815,-0.34722554999999994,-0.384798885,3.5840736,0.31876984166666666,-2.6302329666666666
837,1778427384520,0.39356970666666663,-0.36806008833333337,-0.5119404399999999,3.4455345166666667,-0.013337225,-2.362852333333333
838,1778427384530,0.22214709,-0.37605852,-0.58887583,2.9596422,-0.29968029999999996,-1.8501581666666667
839,1778427384540,0.07988271,-0.37215585,-0.60558414,2.41561565,-0.5132795099999999,-1.1815151666666666
840,1778427384550,-0.1812097566666667,-0.36936097500000004,-0.5618315566666667,1.845322066666667,-0.6190610333333333,-0.5556328333333332
841,1778427384560,-0.35838473333333337,-0.357266775,-0.4971834816666667,1.0128145,-0.8028296,0.6375906
842,1778427384570,-0.43053904857142855,-0.36310481142857143,-0.45252638142857143,0.6340999342857143,-0.8409214757142858,1.360331457142857
843,1778427384580,-0.40274707333333337,-0.44248518333333337,-0.4124631,-0.02397646,-0.82512623,2.7065910999999994
844,1778427384590,-0.34160530000000006,-0.49191895,-0.39319370000000003,-0.40042216,-0.7646506,3.5146132
845,1778427384600,-0.31200426857142854,-0.50894085,-0.39247936285714285,-0.5232497057142858,-0.7493353428571429,3.7818230571428573
846,1778427384610,-0.21190261666666665,-0.5716186933333333,-0.39248225333333336,-1.1237884283333333,-0.6811401999999999,5.04989545
847,1778427384620,-0.07458623714285714,-0.6390878114285714,-0.38553643428571427,-1.4313009714285716,-0.6766859428571428,5.666015
848,1778427384630,0.21785824,-0.7319024566666666,-0.36567175999999996,-2.002492616666667,-0.7286095166666667,6.7684377
849,1778427384640,0.5471152433333334,-0.7823424499999999,-0.357663155,-2.4465662,-0.8567893999999999,7.590331666666667
850,1778427384650,1.0284949866666666,-0.6722343333333333,-0.28397997666666663,-2.7567839,-1.159524,8.200967666666665
851,1778427384660,1.1343955,-0.6324759,-0.260503,-2.8803822999999995,-1.4178182,8.491943
852,1778427384670,1.7065426333333333,-0.3940473666666666,-0.1401098,-2.8956539666666665,-1.6611970999999999,8.5057385
853,1778427384680,2.2213897333333334,-0.12344217,-0.040144616,-2.896290366666667,-2.0477221166666664,8.367123333333334
854,1778427384690,2.5662778000000004,0.17238810000000002,0.048844311,-2.815019766666667,-2.1943297666666663,7.255551999999999
855,1778427384700,2.6662096571428573,0.35311293571428565,0.11144378142857143,-2.769357557142857,-2.220167857142857,6.674357285714286
856,1778427384710,2.6275313,0.5292992,0.18043736,-2.7044532,-2.2472205,5.987243
857,1778427384720,2.25598535,0.7624530000000002,0.302487165,-2.5721244,-2.2913555000000003,5.2403075
858,1778427384730,2.0813207,0.8359125500000001,0.34310945000000004,-2.4701099,-2.31861535,4.86264
859,1778427384740,1.9675945333333331,0.8973491,0.4341920000000001,-2.344500866666667,-2.3507621666666663,4.7074294666666665
860,1778427384750,1.8964522,0.9786547,0.5769239,-2.160325,-2.3926065,4.5680504
861,1778427384760,1.8895004999999998,1.050854,0.8177916399999999,-1.8044959,-2.5537221,4.2676573
862,1778427384770,1.8136321833333333,1.1523030333333333,1.0129554233333333,-1.095764985,-2.6349927,3.8543561
863,1778427384780,1.6057731142857143,1.2652219714285715,1.0651753857142858,0.43932118285714283,-2.6476426142857146,3.074462857142857
864,1778427384790,1.5811898,1.270623,1.0534151,0.5881105,-2.6277895,3.003777
865,1778427384800,1.3657097333333332,1.2814568666666666,0.830455,1.792635,-2.3460789,2.3037764333333333
866,1778427384810,1.2797698,1.2932462,0.7321159,2.005343416666667,-2.2948679999999997,2.156812416666667
867,1778427384820,1.2121560800000002,1.3131742,0.6605019560000001,2.2139285,-2.254398,1.9834795
868,1778427384830,1.023666,1.4006043428571429,0.4372206328571428,2.2619686142857143,-2.2104157285714288,1.9220220571428572
869,1778427384840,0.9662759,1.4930139999999998,0.3093473,2.296395,-2.0893118,1.831374
870,1778427384850,1.0321740333333334,1.6435308333333332,0.15551720066666666,1.9991582833333332,-1.7363844166666667,1.7363589833333333
871,1778427384860,1.091893,1.7782135,0.017440042,1.6111571,-1.3452779999999998,1.6021469
872,1778427384870,1.1300659,1.8757801,-0.06433302,1.10322264,-1.0130182766666667,1.4108696666666667
873,1778427384880,1.2099573428571428,2.0115547714285715,-0.1219147842857143,0.53893584,-0.72692966,1.173014
874,1778427384890,1.3387062,2.1541196499999997,-0.12125707000000001,-0.1720349,-0.453949245,0.74479745
875,1778427384900,1.4406837333333335,2.2423970499999997,-0.097668295,-0.71791935,-0.24098633166666664,0.36959891116666665
876,1778427384910,1.5281378999999997,2.2878773000000003,-0.060979170000000006,-1.0760391,-0.07147124,0.035277467
877,1778427384920,1.6229606,2.3100128,0.030123709,-1.5543466666666668,0.21517728333333333,-0.54524813
878,1778427384930,1.7052417833333333,2.2830599333333335,0.1495412465,-1.8057686166666667,0.40945789166666663,-0.9270389250000001
879,1778427384940,1.7605499,2.239094,0.23413968,-1.9711093666666668,0.6804020666666667,-1.4048373666666667
880,1778427384950,1.8057150999999998,2.1821396,0.30581054,-2.0263927,0.895223,-1.7566957
881,1778427384960,1.8153846142857142,2.0804264,0.3426071,-1.9920969571428573,1.1389582571428571,-2.1441588142857144
882,1778427384970,1.7653469333333334,1.89966375,0.35641307000000005,-1.8861482333333335,1.40748445,-2.6215536166666666
883,1778427384980,1.7346745,1.7783965000000002,0.36069179999999995,-1.7956384000000003,1.5613716,-2.9347494
884,1778427384990,1.7211574166666666,1.697599,0.369076425,-1.7130698000000002,1.6458746,-3.1428507999999997
885,1778427385000,1.6059372333333333,1.4135885166666666,0.38605911499999995,-1.3773484,1.9458603333333333,-3.7267361666666665
886,1778427385010,1.503421033333333,1.1825283,0.3962222933333333,-1.0816387,2.1724913333333333,-4.064137333333334
887,1778427385020,1.4784195999999998,1.1003080666666667,0.39278714000000003,-0.8009970666666666,2.3310618333333335,-4.256203533333333
888,1778427385030,1.4661831333333335,0.9839598333333331,0.3777456266666667,-0.46756647333333334,2.4618888333333335,-4.431216399999999
889,1778427385040,1.4919163333333332,0.8512285333333333,0.3436786,-0.05902486500000001,2.5365416,-4.6397505
890,1778427385050,1.501734,0.81547445,0.3325804,0.14508049,2.5566237,-4.746881
891,1778427385060,1.5270838857142857,0.7089873571428571,0.28710736285714283,0.5322817857142857,2.5427265,-4.990485357142857
892,1778427385070,1.5226294666666667,0.5188514266666667,0.18797844,0.92854065,2.5240951,-5.277544649999999
893,1778427385080,1.495514,0.45173368,0.15793604,1.1363621,2.5004241,-5.4293704
894,1778427385090,1.4130905166666665,0.32789514000000003,0.10610375366666668,1.45426655,2.37188795,-5.5895188000000005
895,1778427385100,1.3475583,0.21932173333333335,0.04847844156666667,1.7643315666666666,2.1843523333333335,-5.709960966666667
896,1778427385110,1.3186135,0.16000934,0.0070126047,1.8060231,2.1508565,-5.7245707999999995
897,1778427385120,1.2685395,0.08746445583333333,-0.07562433416666667,1.8387807,1.98912995,-5.7173933
898,1778427385130,1.2486705,0.054637334999999995,-0.120494835,1.8089247,1.9425515,-5.701969
899,1778427385140,1.2291571,0.014330104000000001,-0.1445816,1.7544813499999998,1.9357556,-5.700671
900,1778427385150,1.1645090500000002,-0.04347814766666667,-0.15108605,1.4746795666666668,2.0073540666666667,-5.6961656666666665
901,1778427385160,1.0374589,-0.09992452666666667,-0.11142927166666666,1.3669637000000001,2.051438,-5.665316999999999
902,1778427385170,0.9133460166666666,-0.13051573833333333,-0.057940370166666665,1.3156510499999998,2.025171,-5.3870678000000005
903,1778427385180,0.7944366,-0.15561883,-0.002500146,1.3435981000000001,1.986381,-5.2482486
904,1778427385190,0.6639208333333334,-0.16509092666666667,0.04884431533333333,1.5624406333333336,1.7389297333333333,-4.741892
905,1778427385200,0.6038767,-0.1589117,0.061771900000000005,1.7481437,1.534188,-4.360814
906,1778427385210,0.5694845,-0.14250831,0.053844605,1.8457294,1.4011722,-4.158923
907,1778427385220,0.50152318,-0.1238588525,-0.0203467149,2.098093066666667,0.9258426583333333,-3.58509175
908,1778427385230,0.4683810066666667,-0.11693771999999998,-0.08661074133333334,2.2660046,0.33353242,-2.922532
909,1778427385240,0.43754993999999997,-0.1006766076,-0.17858358400000002,2.1619132399999996,-0.130541908,-2.2712275600000003
910,1778427385250,0.41235131,-0.09209887,-0.23804234000000002,2.0184515,-0.44303003,-1.7550159
911,1778427385260,0.35697204,-0.09979241,-0.279802905,1.724778,-0.5290093,-1.2718215
912,1778427385270,0.31196941,-0.11418349500000001,-0.264344685,1.119716,-0.3822998266666667,-0.4451680433333333
913,1778427385280,0.2894681,-0.12098267,-0.2494048,0.75696384,-0.21403190833333333,0.040113481666666666
914,1778427385290,0.19750135666666666,-0.13742672166666667,-0.22901743333333333,0.34768412666666665,0.048869216666666666,0.6288857933333333
915,1778427385300,0.13134912399999998,-0.157984832,-0.22972072400000002,-0.095386602,0.341962368,1.2981192
916,1778427385310,0.07931356833333332,-0.18710441333333336,-0.22285852666666664,-0.33729942333333335,0.45631635333333337,1.7143932666666668
917,1778427385320,0.0026830843333333354,-0.23686341,-0.18769387666666668,-0.6418157533333333,0.5145521733333334,2.3744840333333332
918,1778427385330,-0.055334238714285715,-0.2868895842857143,-0.15027009285714285,-0.8262388857142857,0.3944444228571428,3.0592786142857142
919,1778427385340,-0.05795053566666667,-0.31339228999999996,-0.14389050666666667,-0.9030624666666668,0.27290405333333334,3.4848845333333336
920,1778427385350,-0.03417882383333334,-0.3431500916666666,-0.13946951333333335,-0.9898562333333333,0.10099638733333334,4.030285433333334
921,1778427385360,0.10472155733333334,-0.38811206666666664,-0.12935714666666667,-1.0713813,-0.063911779,4.60027365
922,1778427385370,0.230354906,-0.424634522,-0.13201990000000002,-1.1527027,-0.17321084,5.10487884
923,1778427385380,0.297761275,-0.44015779166666663,-0.13827026166666667,-1.2640329,-0.19333884999999998,5.568876800000001
924,1778427385390,0.44414177000000005,-0.41865250000000004,-0.14552678500000002,-1.3486886666666666,-0.221795,5.8870103333333335
925,1778427385400,0.524115964,-0.383766304,-0.137544612,-1.4025466,-0.300393,6.130949
926,1778427385410,0.6415618,-0.3235758,-0.10816688,-1.3743195666666665,-0.5887977383333334,6.4342185
927,1778427385420,0.9514375999999999,-0.17588425,-0.0356118338,-1.2082914583333333,-0.9629526749999999,6.652348166666666
928,1778427385430,1.2058630333333333,-0.048132885333333326,0.01882223573333333,-0.8838965483333334,-1.3407982666666667,6.704424216666666
929,1778427385440,1.4064845000000001,0.069943105,0.044260710499999995,-0.62873304,-1.5215126,6.6243753
930,1778427385450,1.5629222142857144,0.22820145857142857,0.011037229285714286,-0.16543540114285715,-1.7342900714285714,6.282618285714285
931,1778427385460,1.624729,0.33343408,-0.03225798,-0.019700404,-1.774869,6.127284
932,1778427385470,1.6804231666666667,0.5108834883333333,-0.114122505,0.19066631599999997,-1.833792,5.7698004166666665
933,1778427385480,1.70311765,0.7440678,-0.167418305,0.32788192,-1.8989255333333332,5.2875988666666665
934,1778427385490,1.6738781714285713,0.9344970571428571,-0.2288635242857143,0.2969459642857143,-1.8607609857142857,4.797190428571428
935,1778427385500,1.6638776,0.9724958,-0.24659975,0.27565295,-1.8406896999999998,4.700761
936,1778427385510,1.6638776,0.9724958,-0.24659975,0.09442958666666666,-1.7309885333333332,4.500829833333333
937,1778427385520,1.5198447666666668,1.20129975,-0.20212560833333335,-0.3120503393333333,-1.5023721666666665,4.161595916666666
938,1778427385530,1.4500236857142856,1.3337973,-0.11609562171428571,-0.5355760971428571,-1.3639747999999998,3.953454528571428
939,1778427385540,1.4090456833333331,1.4176131666666665,-0.08235236616666668,-0.6421466166666667,-1.31178215,3.84460775
940,1778427385550,1.3870931000000002,1.5208205,-0.026708877000000002,-0.734005525,-1.2951870333333333,3.7233255
941,1778427385560,1.4130702833333333,1.6158767333333335,0.027918296500000005,-0.7586946500000001,-1.2974777,3.652058
942,1778427385570,1.4846598,1.7791891,0.12787332,-0.7505788357142856,-1.3294172428571431,3.4845061999999998
943,1778427385580,1.5593593,1.873158,0.1823277,-0.6846272299999999,-1.370629,3.2916474
944,1778427385590,1.7705302000000003,2.0501196,0.24147749,-0.5044219600000001,-1.2445361000000001,2.706489466666667
945,1778427385600,1.8084287000000001,2.1036593,0.236202805,-0.4353942,-1.1203269,2.3483188
946,1778427385610,1.8348936166666665,2.2552231666666667,0.18341517,-0.4127922,-1.0125091666666666,2.0049107333333334
947,1778427385620,1.7238375285714287,2.3323748571428573,0.11401361142857143,-0.4699080857142857,-0.7870780714285714,1.1796463285714285
948,1778427385630,1.56289605,2.34413075,0.09515799000000001,-0.5604434283333334,-0.6831255333333334,0.8944849133333334
949,1778427385640,1.47751505,2.3219445333333333,0.10258728500000001,-0.77946407,-0.4343252,0.39675698
950,1778427385650,1.4436208,2.2690957,0.12494631,-1.01312,-0.04090615428571428,0.002312561428571431
951,1778427385660,1.4272378333333335,2.184558416666667,0.17619929999999998,-1.1584041166666665,0.32884911666666666,-0.3175481083333333
952,1778427385670,1.3813306,2.0442044999999998,0.25230131,-1.2259301999999999,0.8667414,-0.8226064000000001
953,1778427385680,1.3575792,1.9929820000000003,0.27245492,-1.2130257,0.9859364999999999,-0.93722
954,1778427385690,1.2671557714285715,1.7978139142857141,0.3059324728571428,-0.9273370714285714,1.4127349285714286,-1.4714870857142857
955,1778427385700,1.21851615,1.6808094166666667,0.3085749,-0.7377725,1.5833626999999997,-1.7437148
956,1778427385710,1.1997041666666666,1.5856413500000002,0.2916125433333333,-0.16773340933333336,1.6479108333333334,-2.3301454666666666
957,1778427385720,1.1636219285714284,1.4380281857142858,0.2467565642857143,-0.063988134,1.645671,-2.438574
958,1778427385730,1.1145163333333334,1.3224755666666665,0.20184105,0.24510968,1.6255124,-2.7650816
959,1778427385740,1.0516671566666667,1.1994704166666665,0.14531335566666667,0.5991569966666667,1.5981507333333334,-3.1481450166666662
960,1778427385750,0.99536294,1.109272,0.099274084,0.9680687,1.5393804,-3.542713
961,1778427385760,0.9953426166666667,1.0790771616666668,0.08244383388333333,1.0325659,1.5312609833333333,-3.621361916666667
962,1778427385770,0.9967044866666667,0.9005810133333334,-0.015000875133333333,1.3968961333333334,1.4933618666666666,-4.083074333333333
963,1778427385780,1.0057642257142858,0.7991232485714287,-0.06489925942857143,1.5220798285714285,1.4814790857142857,-4.290914
964,1778427385790,1.0363816666666665,0.7383357533333333,-0.09644871333333334,1.6258179000000001,1.4382823,-4.468174
965,1778427385800,1.0493906,0.7253472,-0.10348164,1.6893479000000002,1.3190107,-4.6352453
966,1778427385810,1.0742396166666666,0.704339875,-0.1081872,1.6915368166666667,1.2855912999999999,-4.693404816666667
967,1778427385820,1.1984847,0.59930325,-0.131715,1.7024814,1.1184943,-4.9842024
968,1778427385830,1.2096640333333333,0.5118184466666666,-0.14870786,1.6154840333333336,1.0544043333333333,-5.248859666666667
969,1778427385840,1.1936468333333332,0.44884732666666666,-0.13911380666666667,1.4365005,0.9958630666666667,-5.429472333333333
970,1778427385850,1.2032205666666667,0.43413103000000003,-0.12370640333333334,1.33382425,0.96997765,-5.463960749999999
971,1778427385860,1.2272231571428573,0.40894371285714287,-0.09833326428571429,1.2572697571428573,0.9574658042857143,-5.488493371428571
972,1778427385870,1.2346452,0.40136486,-0.09012721,1.1323915,0.94882643,-5.5335226
973,1778427385880,1.2232117,0.39460636833333335,-0.054301951666666674,1.0653999,0.9569713433333332,-5.556328466666667
974,1778427385890,1.1903947333333333,0.400602655,-0.024279875000000003,1.0238355883333334,0.9492591833333334,-5.540395166666667
975,1778427385900,1.0118360000000002,0.4480923371428571,0.10927466428571429,0.9940959114285715,0.8725555571428572,-5.372930785714286
976,1778427385910,0.9287127466666666,0.47519033,0.17124982666666666,1.1083132,0.6873761233333333,-5.077613866666667
977,1778427385920,0.8920032399999999,0.47563753,0.19885308,1.2095132,0.53038377,-4.8563786
978,1778427385930,0.8577939366666666,0.45407121,0.190315985,1.3403656166666666,0.34032831166666666,-4.6030224
979,1778427385940,0.7826168099999999,0.41847971333333334,0.13593272666666667,1.5513941000000002,-0.027361673333333336,-4.0835835000000005
980,1778427385950,0.74608016,0.41837808,0.08018761,1.6122260999999998,-0.3008511400000001,-3.648851
981,1778427385960,0.7801064700000001,0.41048127,-0.061649938999999994,1.4761558,-0.5846998666666666,-2.9714012666666663
982,1778427385970,0.8013272,0.39166918,-0.095615335,1.3594806,-0.6478226000000001,-2.7038424
983,1778427385980,0.815504915,0.3201914533333334,-0.1640847725,0.99833195,-0.58312177,-2.2870030833333335
984,1778427385990,0.76580254,0.21833155142857144,-0.22584943,0.5220498314285714,-0.39387718,-1.8657788
985,1778427386000,0.6243860266666666,0.08391749999999999,-0.22067343833333333,0.020463993333333357,-0.13663018333333332,-1.4728979333333332
986,1778427386010,0.60107166,0.06317442,-0.21751268,-0.46486846,0.12705997,-1.0952814
987,1778427386020,0.46216110000000005,-0.023111105000000003,-0.15305771,-0.9262244000000001,0.47937650000000004,-0.7098254
988,1778427386030,0.29454970166666666,-0.09826792583333332,-0.076996364,-1.2083932666666666,0.8068512,-0.32839097
989,1778427386040,0.15269183,-0.1504356,-0.020001167,-1.4959326333333334,1.1746684333333335,0.15269085833333332
990,1778427386050,-0.013090193333333333,-0.19988972333333335,0.03248156933333333,-1.5593352666666667,1.3241522000000001,0.8034405166666666
991,1778427386060,-0.15123704142857144,-0.24240091428571428,0.071746345,-1.5560264000000001,1.3486595,1.1328059714285714
992,1778427386070,-0.21714681,-0.2713573,0.089517415,-1.4708108,1.2690725,1.6328428
993,1778427386080,-0.21714681,-0.2713573,0.089517415,-1.4708108,1.2690725,1.6328428
994,1778427386090,-0.21153674,-0.3324584,0.077809416,-1.1303806666666667,0.8932377033333333,2.7189867
995,1778427386100,-0.16589818285714286,-0.3542454014285714,0.058087011200000004,-0.9744828,0.7196428857142857,3.1294844142857143
996,1778427386110,-0.047624728000000005,-0.39093746,-0.014909405700000001,-0.7324847,0.4608214775,3.7071503375
997,1778427386120,0.0441977004,-0.392876604,-0.08967596200000001,-0.5714644,0.26358834,4.138765
998,1778427386130,0.15509616142857144,-0.3231721628571429,-0.15543590142857142,-0.45406922857142856,-0.0018762278571428568,4.552451514285715
999,1778427386140,0.21244126166666666,-0.28927500500000003,-0.18628119666666668,-0.356974375,-0.34017559,4.9405256500000005
1000,1778427386150,0.28343117,-0.26483253,-0.22342768,-0.33001995,-0.46914452,5.062546
