id,timestamp,acc_x,acc_y,acc_z,gyro_x,gyro_y,gyro_z
0,1778427570630,-0.12220225083333335,0.15148241166666665,0.7437019366666666,0.7105380839333333,-3.128571883333333,-1.17245404
1,1778427570640,-0.07327663166666666,0.05118184666666666,0.47730429,0.2794199311999999,-3.42076905,-0.97779163
2,1778427570650,0.20488999666666666,-0.34242852333333335,-0.29793405666666667,-1.5613716166666667,-3.042567,-0.5608252233333334
3,1778427570660,0.39582449,-0.47835545714285715,-0.6249580785714286,-2.5336509142857144,-1.8800687142857144,-0.5525930714285715
4,1778427570670,0.42404914,-0.503444,-0.6700391,-3.3272302000000002,-1.6513215,-0.5676465
5,1778427570680,0.5962949716666667,-0.5707345583333333,-0.6375676833333334,-4.258214433333333,-1.2567024583333335,-0.5756387
6,1778427570690,0.9000699357142857,-0.6581829742857143,-0.5533772685714285,-5.0782975142857145,-0.6910849614285715,-0.6714718285714286
7,1778427570700,1.2097453999999999,-0.7069822833333334,-0.44007648666666666,-5.517335,-0.17913623,-0.8371908
8,1778427570710,1.5541252666666665,-0.7231112500000001,-0.34966471666666665,-5.796245666666667,0.37878735500000005,-1.4054990833333332
9,1778427570720,1.7779695999999998,-0.7521780000000001,-0.2789797,-5.746104,0.27137688,-1.892155
10,1778427570730,1.8949480166666668,-0.78663125,-0.2160187,-5.516393333333333,-0.48607058000000003,-2.280181733333333
11,1778427570740,2.2547860833333333,-0.875853935,-0.048529251166666676,-5.054452,-2.2165246,-2.7688994
12,1778427570750,2.8877600500000002,-1.0483132,0.12882866333333332,-4.5935030999999995,-4.637917816666666,-3.1731141333333333
13,1778427570760,3.3629604166666667,-1.3357079833333332,0.11014869866666667,-4.5367436,-6.1990604,-3.5616498
14,1778427570770,3.834126,-1.7461994,0.021830542,-4.977090114285715,-6.913423771428571,-3.8240602000000004
15,1778427570780,4.0312616666666665,-1.8377189666666667,0.168505769,-6.166939166666666,-7.519496766666666,-4.087324833333334
16,1778427570790,4.434466,-1.8401682,0.7048582,-7.921242,-7.151705,-4.0091085
17,1778427570800,4.7055386666666665,-1.8035401333333334,0.9785327333333332,-8.342840666666666,-6.803002733333334,-3.9203295
18,1778427570810,5.354763666666667,-1.7592896333333332,1.5703964666666668,-8.891550666666667,-5.437566133333334,-4.0854669333333336
19,1778427570820,6.249084,-1.9559067,2.4520943,-8.758026,-4.332052733333334,-4.8381544666666665
20,1778427570830,6.435233333333334,-2.0131051666666666,2.4809577666666667,-8.011345,-3.926489,-6.340018
21,1778427570840,6.433485,-2.1863472,2.3847733,-7.664679,-3.588528,-7.96217
22,1778427570850,6.0782814,-2.2250688,2.3970912,-7.696321960000001,-3.2529184799999995,-8.598814
23,1778427570860,5.454261316666667,-2.3143523,2.5384610333333333,-8.004625,-1.6861407999999998,-9.580047
24,1778427570870,4.9479311,-2.4843724,2.9986301333333336,-7.899251,-0.4147775,-9.816146
25,1778427570880,4.45378442,-2.52339114,3.56442732,-7.754048399999999,-0.23338106600000003,-9.8294934
26,1778427570890,3.68670895,-2.2855601666666665,4.233051733333333,-5.994573333333332,0.8010988633333334,-9.772825666666666
27,1778427570900,3.2340302,-2.081585,4.4527597,-3.85555225,0.7132360766666667,-9.393020333333334
28,1778427570910,3.01394625,-1.8335013333333334,4.23573495,-1.1692215000000001,-0.3759875666666667,-8.725344166666666
29,1778427570920,2.891876,-1.5802141,3.8232718,0.9615019333333333,-1.6106480666666665,-8.340855833333334
30,1778427570930,2.844129333333333,-1.5365124000000001,3.6856622,1.6739235333333333,-2.0770945666666667,-8.269995333333334
31,1778427570940,2.579236,-1.4036185333333335,3.0652603333333333,3.2065845,-3.1526756,-8.21064
32,1778427570950,2.371114,-1.3756290333333334,2.7234720666666665,3.27775025,-3.1942907999999997,-8.182463499999999
33,1778427570960,2.0894512,-1.3585955333333333,2.3618857666666666,3.2149329333333334,-2.9756773333333335,-7.961050333333333
34,1778427570970,1.9490161999999998,-1.3499569,2.148235,2.7504208,-2.166281,-7.5971785
35,1778427570980,1.9550328,-1.3621120333333334,2.121363666666667,2.6267205666666666,-1.9158771,-7.551007133333333
36,1778427570990,1.98807944,-1.40188674,2.10291536,2.2572692400000003,-1.045434782,-7.475799380000001
37,1778427571000,2.0259630714285715,-1.472307214285714,2.0814977428571426,2.160412214285714,-0.6039711914285714,-7.5515817
38,1778427571010,1.9988156833333333,-1.6964912666666667,1.9415157166666666,2.2349012999999998,-0.31100674333333334,-7.7939278
39,1778427571020,1.9459672,-1.8179109999999998,1.8616939,2.38313805,-0.2775619,-8.012617216666667
40,1778427571030,1.8400667333333331,-1.9016556666666666,1.7949217666666666,2.5098416666666665,-0.36224308666666666,-8.162330333333333
41,1778427571040,1.6720488,-2.031155,1.5964346,2.6305385,-0.24556783000000001,-8.2618
42,1778427571050,1.5069171,-2.0207884,1.5108808,2.6558639166666667,-0.17519105499999998,-8.285470833333333
43,1778427571060,1.1957405333333333,-2.0154631666666667,1.3859751333333332,2.4922793,0.29794953166666666,-8.006178666666665
44,1778427571070,1.1337856,-2.0063975,1.3725189999999998,2.4034493,0.56291234,-7.784867000000001
45,1778427571080,1.11116235,-1.98127415,1.3747448,2.3709208,0.79496477,-7.5844267499999996
46,1778427571090,1.0802865666666666,-1.9117578666666668,1.4006712,2.3383923,1.0270172,-7.3839865
47,1778427571100,1.0856731,-1.8677004000000001,1.41846695,2.52440065,1.3686435499999998,-6.7868655
48,1778427571110,1.1233989,-1.7966901999999998,1.4292093333333333,2.97313205,1.0825805,-6.366310333333334
49,1778427571120,1.1348426166666667,-1.7225700333333334,1.4567618333333332,3.6441166,0.40500367,-6.0504675
50,1778427571130,1.1032351,-1.6994894,1.4554508000000002,4.503324283333334,-0.5362124333333332,-5.8145205
51,1778427571140,1.0576227,-1.7240030000000002,1.3887396,4.9371657,-1.0196868,-5.708383
52,1778427571150,1.0041643166666667,-1.7456506666666665,1.2218091,5.4798431,-1.6581174,-5.61270615
53,1778427571160,0.8474274833333334,-1.8241410333333334,0.73235981,6.8807099166666665,-3.427335916666667,-5.486817049999999
54,1778427571170,0.61625546,-1.8695604,0.21946402,7.361232,-4.1937428,-5.510921
55,1778427571180,0.4272200466666667,-1.86643,-0.07823627333333334,7.3176058,-4.631555,-5.578421566666667
56,1778427571190,-0.055480885000000014,-1.8558197166666666,-0.6915952033333334,6.927211799999999,-5.0924783,-5.6753964
57,1778427571200,-0.41288995,-1.9104367,-1.08240052,6.6179103999999995,-5.0701817,-5.6626699333333335
58,1778427571210,-0.8968613033333334,-2.11940215,-1.5016627833333331,4.091880933333333,-4.285678083333333,-5.3540556666666665
59,1778427571220,-1.2666593,-2.3076956,-1.6580845,2.9530099428571432,-3.6410622857142854,-5.179090199999999
60,1778427571230,-2.3869076,-2.5464292,-1.3880688000000003,-0.4352415,-0.7170031,-4.4813075
61,1778427571240,-2.806078266666667,-2.6360683999999996,-1.1570390666666668,-1.0928379,0.09005171333333332,-3.992818833333333
62,1778427571250,-3.2615317714285714,-2.7271276571428573,-0.85538092,-1.5533212285714286,0.7372488828571429,-3.2834879285714287
63,1778427571260,-3.4459329000000003,-2.7618074,-0.71577346,-1.7289014,1.0621419,-2.6633725
64,1778427571270,-3.2909585142857147,-2.711909085714286,-0.38881187857142857,-1.131017,0.6776023,-0.7652614
65,1778427571280,-3.0889404,-2.6288119333333335,-0.57176101,-0.14487686666666666,0.11866058,0.5788457333333333
66,1778427571290,-2.9468793000000004,-2.5299647000000003,-0.81611469,0.32215506,-0.0653625835,1.71385885
67,1778427571300,-2.82193305,-2.43133095,-1.03902407,0.04749476933333333,0.22596923766666666,2.5048529333333334
68,1778427571310,-2.4545641333333337,-2.3528000000000002,-1.0978791166666666,-1.0403289676666667,1.0136799666666667,3.52713595
69,1778427571320,-2.0188809,-2.3640840000000005,-0.9007058571428571,-1.6626225,1.4720324999999999,4.0268235
70,1778427571330,-1.6720488,-2.3903224,-0.7050411,-2.907514916666667,2.6725100000000004,4.995808666666667
71,1778427571340,-1.5044780500000001,-2.39626785,-0.576832425,-4.024686,4.0280457,6.101169600000001
72,1778427571350,-1.3369073,-2.4022133,-0.44862375000000004,-4.117792000000001,4.1401139166666665,6.261012666666667
73,1778427571360,-1.14939635,-2.3922432500000004,-0.319103995,-4.6847255,4.728860500000001,7.427587
74,1778427571370,-0.40001316666666664,-2.364182616666667,0.04513474666666667,-4.839834333333333,4.5928415,8.209061
75,1778427571380,0.6053053228571429,-2.356539785714286,0.3202277477142857,-4.920148742857143,3.281720757142857,9.123425285714285
76,1778427571390,1.0035341,-2.344222,0.42392716,-4.957477,2.6499333,9.370826
77,1778427571400,1.0035341,-2.344222,0.42392716,-4.957477,2.6499333,9.370826
78,1778427571410,1.9026111,-2.4358737,0.85687923,-5.031697,0.5500842,9.039737
79,1778427571420,1.9026111,-2.4358737,0.85687923,-5.031697,0.5500842,9.039737
80,1778427571430,2.0745112,-2.450935733333333,1.3162353666666666,-4.9156325333333335,-0.5780312203333334,8.842630999999999
81,1778427571440,2.1887862,-2.4493382,1.6396566799999999,-4.62208132,-0.95731746,8.8294154
82,1778427571450,2.2911704,-2.4291053,1.8282163,-4.2695918,-0.8958847666666667,8.813003666666667
83,1778427571460,2.2911704,-2.4291053,1.8282163,-4.1722097,-0.8382598,8.80379
84,1778427571470,2.2911704,-2.4291053,1.8282163,-4.067577185714286,-0.7331909999999999,8.781100857142857
85,1778427571480,2.0659394428571427,-2.169194514285714,1.3843925857142858,-3.78767,1.1676689,8.253706
86,1778427571490,1.9021841000000002,-2.0995736,1.2068387,-4.269337,1.7194329999999998,8.013941
87,1778427571500,1.8187385,-2.091602771428571,1.1933536571428571,-4.727137,2.0363410857142856,7.880205285714285
88,1778427571510,1.5735674,-2.1146965,1.1955576,-5.2801666,2.389552,7.7277510000000005
89,1778427571520,1.4684291500000002,-2.1794360833333335,1.2277240166666665,-5.5425332,2.494620933333333,7.680306999999999
90,1778427571530,1.4474015,-2.192384,1.2341573,-5.6737165,2.5471554,7.656585
91,1778427571540,1.4141852571428573,-2.4145137285714284,1.5084416714285713,-6.029741714285714,1.497994257142857,8.014355571428572
92,1778427571550,1.5919221333333333,-2.3789193333333336,1.7181490666666666,-5.919895,1.0115929,8.1012945
93,1778427571560,1.7518096,-2.2912314,1.8424246,-5.4200544,0.21655174000000002,8.050899
94,1778427571570,1.9090139,-2.1450033,1.8525472,-4.932431,-0.17928895,7.8622936999999995
95,1778427571580,1.9090139,-2.1450033,1.8525472,-4.932431,-0.17928894999999997,7.8622937
96,1778427571590,1.9090139,-2.1450033,1.8525472,-4.7562983333333335,-0.2587523333333333,7.739764366666667
97,1778427571600,1.9090139,-2.1450033,1.8525472,-4.404033,-0.4176791,7.4947057
98,1778427571610,2.0676207,-1.9866200666666665,1.7273366,-4.355621866666667,-0.42027528000000003,7.4258307
99,1778427571620,2.4643946857142858,-1.6527532571428571,1.5299237428571428,-4.1853433,-0.4708244,7.252803
100,1778427571630,4.056334383333334,-0.8614019266666667,1.85866545,-3.9159517666666663,-0.96147645,7.0766192
101,1778427571640,4.865222800000001,-0.40203565333333335,1.9173476999999999,-3.7618609333333333,-1.0323622333333333,6.352845766666666
102,1778427571650,5.804851228571429,-0.017805918285714286,1.832511142857143,-4.277453242857143,-0.4126831057142857,4.322678971428571
103,1778427571660,5.828633,0.23391607,1.9413328000000003,-5.0866747,0.6673702599999999,3.008053
104,1778427571670,5.828633,0.23391607,1.9413328000000003,-5.364262133333334,1.1185960400000001,2.6976317
105,1778427571680,5.462522428571428,0.2411029262857143,2.5929561,-6.530149428571429,3.1754084142857146,1.3463251285714286
106,1778427571690,5.173106466666667,0.14700044266666668,3.6180159333333335,-6.841995999999999,4.0937133,0.6275113
107,1778427571700,5.2007914,0.20489,4.209392,-4.8805586666666665,2.6266696,0.4669046833333333
108,1778427571710,5.2007914,0.20489,4.209392,-3.2918,1.4460708,0.33750305
109,1778427571720,5.747408516666667,0.4725479066666667,4.557593333333333,-0.8887070766666666,0.06811150333333338,-0.6792821433333333
110,1778427571730,6.599958,0.6227193,4.203477,1.5398386,-1.2024882,-2.03861
111,1778427571740,6.1818852,0.2610518,3.2417746,2.7107146000000006,-1.5537357,-4.116468
112,1778427571750,5.835096633333333,0.09705849333333334,3.002228066666666,2.7166196,-1.4246395333333333,-4.6078582
113,1778427571760,4.493763957142857,-0.5040277028571428,2.234355171428571,2.208757942857143,-0.04188790857142856,-5.973912942857142
114,1778427571770,3.7603414,-0.7332744999999999,1.9351128,1.5239561000000001,1.5642731,-5.99045
115,1778427571780,3.6266750333333335,-0.7293108666666667,1.9143596,1.3274101866666665,2.1095721666666667,-5.927581866666666
116,1778427571790,3.2157363999999995,-0.7081510999999999,1.9131604,0.76159626,3.9084685,-5.707314
117,1778427571800,3.144065466666666,-0.7540480666666666,2.0415826,1.0022771533333334,4.247600633333334,-5.733683133333334
118,1778427571810,3.0199933,-0.9470675,2.3056223,2.0717494,3.9304597,-6.0344324
119,1778427571820,2.905578942857143,-1.0524307857142856,2.2816138285714285,2.787443542857143,3.4454763428571424,-6.251725685714286
120,1778427571830,2.71961,-1.2116561000000001,2.128051,4.3333254,2.2808182,-6.730055299999999
121,1778427571840,2.71961,-1.2116561,2.128051,4.3333254,2.2808182,-6.7300553
122,1778427571850,2.3905053,-1.4331933,1.4877087,4.9533534,1.7525724,-6.9623365
123,1778427571860,2.33486185,-1.4799034000000002,1.3699884500000001,5.470374700000001,1.201190165,-7.3216016
124,1778427571870,2.1986211714285715,-1.6343898714285714,1.0611768571428573,5.954540000000001,0.6199627642857142,-7.827474385714285
125,1778427571880,2.1627785,-1.7344914999999999,0.92630405,5.7464094,0.7640397,-7.9927135
126,1778427571890,2.13015475,-1.87517045,0.7671789250000001,5.622912733333333,0.8537350733333334,-8.040259833333334
127,1778427571900,2.0839544285714284,-2.0104397,0.6294879285714287,5.356633657142857,1.0474811342857142,-8.11043657142857
128,1778427571910,1.9645049333333333,-2.1400639,0.47569848666666664,4.793052266666667,1.4124731666666666,-8.154694666666666
129,1778427571920,1.7872993,-2.122563,0.38941297,4.255898,1.6207782,-8.027533
130,1778427571930,1.7288203,-2.0438387,0.39904767,3.8965566,1.5903877,-7.84015
131,1778427571940,1.7220618833333334,-1.9953602833333333,0.418560995,3.7641261333333333,1.5364533666666667,-7.755570733333333
132,1778427571950,1.7133926,-1.8610841999999999,0.4668565,3.4486396,1.3617713,-7.540979
133,1778427571960,1.7258425166666667,-1.8034081166666667,0.507865,3.3049338,1.2162327,-7.397425000000001
134,1778427571970,1.7432462714285715,-1.779171785714286,0.5318516028571428,3.284426142857143,1.1949833285714284,-7.361035
135,1778427571980,1.81163005,-1.7343085,0.58414996,3.2375094,1.14071455,-7.23149915
136,1778427571990,1.8613280857142858,-1.7142115142857144,0.5899124714285714,3.257875242857143,1.1192796857142857,-7.182248199999999
137,1778427572000,1.9209658,-1.6971722,0.5632036,3.30585,1.0195341,-7.173085
138,1778427572010,1.9363629666666666,-1.6981377,0.5550730583333333,3.322266916666667,0.9583202666666667,-7.1790666666666665
139,1778427572020,1.9346946857142857,-1.6903164428571429,0.5216942357142857,3.4207145,0.5772022142857143,-7.274510485714286
140,1778427572030,1.8315195166666667,-1.7000178666666665,0.503708275,3.5318955333333335,0.24210625,-7.324070566666667
141,1778427572040,1.6220662,-1.7098558666666666,0.4821623,3.6167294,0.03548108666666667,-7.298668866666667
142,1778427572050,1.3905079,-1.715283,0.4425868,3.8381100428571426,-0.5501932457142857,-7.057958914285714
143,1778427572060,1.3243252333333333,-1.7084126666666666,0.43661084666666666,3.9350412,-0.8222245999999999,-6.8830767
144,1778427572070,1.2405602166666665,-1.68972255,0.4336330366666667,4.2030585333333335,-1.1190032666666665,-6.412837783333333
145,1778427572080,0.9871918,-1.6134478,0.43368387,4.256662,-1.178359,-6.31879
146,1778427572090,0.6488183316666667,-1.6129701333333333,0.27238379166666665,4.6126945,-1.0864747333333333,-6.22201875
147,1778427572100,0.1733028,-1.7820551,-0.1214705,5.060535000000001,-0.8984300333333333,-6.7790515000000005
148,1778427572110,-0.17336376666666667,-1.8711356,-0.362846375,5.0739994,-0.8332202,-7.149109
149,1778427572120,-1.1545896800000002,-2.1461821999999997,-0.925023425,4.6441538,-0.9127344933333333,-7.498218333333334
150,1778427572130,-2.0331979500000004,-2.65969805,-1.27944455,3.7064756666666665,-1.16059308,-7.428019666666667
151,1778427572140,-2.74783315,-2.9868816666666667,-1.3351591999999999,2.4926355333333334,-1.3590225333333332,-6.625241
152,1778427572150,-3.2854967,-3.0837166,-1.085795,1.2599531857142858,-1.322763257142857,-5.251041428571429
153,1778427572160,-3.3506427833333334,-3.097894183333333,-0.96134675,0.5286020566666667,-1.10192455,-4.085950333333334
154,1778427572170,-3.4729160833333332,-3.1176107500000003,-0.545661915,0.08078693,-0.41722095,-2.2809708
155,1778427572180,-3.5813675,-3.1328657,-0.20903657,0.2454151,0.19883664,-0.91874135
156,1778427572190,-3.5638665999999994,-3.1167672,-0.21257336999999998,0.3665700333333333,0.3397937933333333,-0.44572803333333333
157,1778427572200,-3.3676965285714284,-3.015332614285714,-0.32779786285714285,0.8948957857142857,0.7078401142857143,1.7498671714285714
158,1778427572210,-3.0746915,-2.9399275999999994,-0.41465837,1.0330495166666667,0.737467075,2.7026205166666664
159,1778427572220,-2.4159946,-2.7029626000000007,-0.5196035,0.968425025,0.9185631833333333,4.265926483333334
160,1778427572230,-1.9020927666666667,-2.5143336,-0.5333745833333333,0.6291402916666667,1.3466524233333335,5.622530916666666
161,1778427572240,-1.4035169333333333,-2.3323719333333335,-0.5370638666666666,0.5645922,1.4251486,5.8372755
162,1778427572250,-0.65552604,-2.1025007,-0.5496662,-0.28553587714285716,2.4420428714285713,7.243399942857143
163,1778427572260,-0.44376572000000003,-2.0539206999999995,-0.5167781333333333,-0.87109387,3.0543263,7.933459799999999
164,1778427572270,0.12489549,-1.9048773666666665,-0.3652652166666667,-2.076025583333333,3.6474255,9.014104999999999
165,1778427572280,0.6747446166666666,-1.8117317,-0.22635467333333334,-2.777120633333333,3.6853500333333336,9.486915333333334
166,1778427572290,1.0378654,-1.7808051,-0.1256475765,-3.3951380666666666,3.4864116666666667,9.686490666666666
167,1778427572300,1.63820535,-1.7501020833333334,0.04582584449999999,-3.9850814333333333,3.0038025000000004,9.738643166666668
168,1778427572310,2.0654964833333334,-1.7410670000000001,0.27844103833333333,-4.301051333333334,2.2944098333333334,9.655947333333334
169,1778427572320,2.4972188,-1.7171735000000001,0.64418393,-4.49161575,1.70461945,9.511554
170,1778427572330,2.5704953833333333,-1.7067051666666666,0.8291032716666665,-4.55736015,1.31137495,9.29950725
171,1778427572340,2.607207857142857,-1.7117461428571428,0.9882370942857143,-4.4371724,1.144456,8.949634
172,1778427572350,2.59527345,-1.7223768833333333,1.26043945,-4.179209066666666,1.34107825,8.705414833333334
173,1778427572360,2.494109,-1.6961354,1.3269067,-3.930816,1.5197817666666669,8.473515666666666
174,1778427572370,2.4489844166666668,-1.6863380999999997,1.3089991333333335,-3.6415968000000003,1.69446375,8.1884198
175,1778427572380,2.1282949500000004,-1.6181127499999999,1.17363555,-3.3295209333333333,1.7910059333333335,7.8603592
176,1778427572390,1.851612066666667,-1.5715348166666667,1.0356294666666666,-3.1764992500000004,1.6940819999999999,7.689419
177,1778427572400,1.6495779666666668,-1.5311564166666667,0.9257754833333333,-3.0599513666666667,1.5427146833333332,7.561646666666667
178,1778427572410,1.5371222,-1.5003111,0.8571637666666666,-2.8842003333333337,1.0467685,7.385564333333334
179,1778427572420,1.3773670333333332,-1.48039125,0.7237516066666667,-2.8246409000000003,0.7043022,7.281997333333334
180,1778427572430,1.2903192,-1.4913675000000002,0.6538796400000001,-2.8182268,0.6560692999999999,7.266853
181,1778427572440,1.21582295,-1.5073745,0.56982999,-3.029611716666667,0.6659958416666667,7.202839666666667
182,1778427572450,1.178788242857143,-1.5265176,0.5142373114285714,-3.2959235000000002,0.8079565428571429,7.227997771428571
183,1778427572460,1.1351272,-1.6336929,0.34569089999999997,-4.054898083333334,1.1979576166666668,7.387015216666666
184,1778427572470,1.2105584,-1.7258322999999998,0.27471116,-4.84126,1.4227052,7.5884733
185,1778427572480,1.2563102285714287,-1.7419308142857144,0.28157565714285715,-5.051048457142857,1.4324790285714286,7.638913414285715
186,1778427572490,1.4205707,-1.7693714666666667,0.36691162000000005,-6.357427,1.3435981000000001,7.698429
187,1778427572500,1.9590516142857144,-1.815785457142857,0.7564291085714286,-6.692006828571429,1.2273591857142858,7.488029571428571
188,1778427572510,2.2769012,-1.8503112,1.03483688,-7.02571385,1.11421825,7.2350115
189,1778427572520,2.4983367666666667,-1.8919803166666667,1.2815686499999999,-7.223837799999999,1.1001683666666666,7.044498
190,1778427572530,2.7387137142857143,-1.8078755999999998,1.5119785,-7.387804385714285,0.9804605571428572,7.159689728571429
191,1778427572540,3.362096616666667,-1.46661,1.8942060333333333,-7.298618083333333,0.38560869333333336,7.136254966666667
192,1778427572550,4.403062,-0.8214504000000001,2.578138,-6.921103,-0.53893584,6.6335382
193,1778427572560,4.7975970000000006,-0.48454047142857143,2.8990194285714286,-6.2258949999999995,-1.334805977142857,5.704019742857143
194,1778427572570,4.955411,-0.3497765,3.027372,-4.875061166666666,-2.258267,3.8068613333333334
195,1778427572580,5.130939499999999,-0.1967492815,3.12356655,-4.628068,-2.4164302,3.4584136
196,1778427572590,5.306468,-0.043722063,3.2197611,-4.5705157142857145,-2.4378105000000003,3.3685073142857145
197,1778427572600,5.3140905,-0.017043677166666667,3.1597982666666664,-4.225202,-2.5660923,2.8290696
198,1778427572610,5.315615,-0.011708,3.1478057,-3.8235145714285714,-2.5754296714285716,2.049954685714286
199,1778427572620,5.151906333333333,-0.03333528,3.0034882333333335,-3.522249,-2.5824327,1.4656185
200,1778427572630,5.070052,-0.04414892,2.9313295,-3.522249,-2.5824327,1.4656185
201,1778427572640,5.070052,-0.04414892,2.9313295,-3.5145913714285717,-2.528109342857143,1.421985257142857
202,1778427572650,5.029561999999999,-0.009187528666666667,2.953485433333333,-3.4686456,-2.2021692,1.1601858
203,1778427572660,5.009317,0.008293167,2.9645634,-3.4686456,-2.2021692,1.1601858
204,1778427572670,5.0920043,0.07982173,3.0918267,-3.4686456,-2.2021692,1.1601858
205,1778427572680,5.0920043,0.07982173,3.0918267,-3.4686456,-2.2021692,1.1601858
206,1778427572690,5.0920043,0.07982173,3.0918267,-3.4686456,-2.2021692,1.1601858
207,1778427572700,5.1097188000000004,0.074120175,3.1545743,-3.49521815,-1.73394095,0.9967793500000001
208,1778427572710,5.1274333,0.06841862,3.2173219,-3.5217907,-1.2657127,0.8333729
209,1778427572720,5.1274333,0.06841862,3.2173219,-3.5310045833333334,-1.070261289,0.7523314499999999
210,1778427572730,5.248468128571429,0.04926245271428571,3.4920242428571426,-3.556348285714286,0.07520187285714286,0.26941340571428574
211,1778427572740,5.1027018,-0.018014989714285716,3.667992857142857,-0.8208501714285715,1.0853766142857142,-2.0313886714285716
212,1778427572750,4.707591666666667,-0.111337795,3.4596126166666665,0.8241844833333335,1.2347113333333333,-3.4107915
213,1778427572760,3.097132,-0.43356186,2.2840357,2.9359710333333333,2.4288512,-4.678057
214,1778427572770,2.93998865,-0.49197993,1.9427048500000001,3.121674,2.8047878999999996,-4.639369
215,1778427572780,2.7828453,-0.550398,1.601374,3.2775465333333336,3.1283426999999997,-4.679584333333334
216,1778427572790,2.745597233333333,-0.6456779333333333,1.5425188833333332,3.6120971333333336,3.2652783333333333,-4.9672255666666665
217,1778427572800,2.5675975714285713,-0.9310473571428571,1.3711165285714286,4.384812485714286,3.0370474428571432,-5.687220928571429
218,1778427572810,2.426666,-1.2860506833333334,1.1172604166666666,5.2631638,2.7357600333333334,-6.465041433333333
219,1778427572820,2.4045508833333336,-1.5194788500000003,0.9375851666666667,5.572847333333333,2.5461627,-6.838508916666666
220,1778427572830,2.3752097500000002,-1.6116082,0.856675955,5.6138772,2.4436391333333334,-6.936832783333333
221,1778427572840,2.245375,-1.8771217,0.60381573,5.4815993,1.8344283,-7.1596459999999995
222,1778427572850,2.0678211142857146,-1.8792647285714286,0.4603404471428571,5.317320242857143,1.6937111571428571,-7.104667999999999
223,1778427572860,2.0382288,-1.8796219,0.4364279,5.2899404,1.6702582999999998,-7.095505
224,1778427572870,2.0382288,-1.8796219,0.4364279,5.2899404,1.6702582999999998,-7.095505
225,1778427572880,2.0382288,-1.8796219,0.4364279,5.2899404,1.6702582999999998,-7.095505
226,1778427572890,2.0155445000000003,-1.83916225,0.4180427,5.146998,1.5943583,-7.042665500000001
227,1778427572900,1.9928602000000002,-1.7987026,0.3996575,5.146998000000001,1.5943583,-7.0426655
228,1778427572910,1.9631836166666667,-1.6626681833333334,0.33796688333333336,5.146998,1.5943583,-7.042665500000001
229,1778427572920,1.9572483,-1.6354613,0.32562876,5.146998,1.5943583,-7.042665500000001
230,1778427572930,1.9572483,-1.6354613,0.32562876,4.892572666666667,1.6050484333333335,-6.952868166666666
231,1778427572940,1.9572483,-1.6354613,0.32562876,4.76536,1.6103935,-6.9079695
232,1778427572950,1.9988884142857142,-1.5486966142857141,0.27980726857142857,4.551731714285714,1.7033323,-6.869877857142858
233,1778427572960,2.0610044000000003,-1.46904905,0.23998350999999998,3.9301543,1.8515325999999999,-6.82871
234,1778427572970,2.12643505,-1.4735107,0.26079773333333334,3.78247765,1.6411658500000001,-6.8830005000000005
235,1778427572980,2.3980841571428573,-1.6940187000000002,0.5799641742857142,3.619572957142857,0.16512994714285714,-7.337167785714286
236,1778427572990,2.3994287,-1.7440244333333332,0.6163367733333334,3.7186421999999997,-1.032285885,-7.790058999999999
237,1778427573000,2.4342275,-1.8106543,0.6799787,3.8718166,-1.7333301,-8.148026
238,1778427573010,2.3982091333333333,-1.8218744666666666,0.6615223333333334,3.96751885,-1.8203784333333335,-8.281270999999998
239,1778427573020,2.225252,-1.8482176,0.56942344,4.0159807,-1.7936531,-8.2995205
240,1778427573030,1.8880979,-1.7553463,0.2787358,4.0159807,-1.7936531,-8.2995205
241,1778427573040,1.8646819000000001,-1.6712763,0.20718689333333332,3.8381427,-1.6380352,-7.27425965
242,1778427573050,1.8457696428571428,-1.6082993142857143,0.14267382957142857,3.6016614,-1.5818355,-6.797556
243,1778427573060,1.6815818,-1.505372366666667,-0.07860214866666666,3.37729575,-1.4710143999999998,-6.927542683333333
244,1778427573070,1.0182402833333333,-1.6088033,-0.26709893,2.8931087000000004,-1.2118039333333332,-7.453014133333333
245,1778427573080,0.4259394916666666,-1.7767906666666666,-0.380530345,2.0632483333333336,-1.0160725,-8.048862333333334
246,1778427573090,-0.52931659,-2.2989059285714286,-0.49128300142857134,1.417752757142857,-0.8551022699999999,-8.267406571428571
247,1778427573100,-1.7834373999999997,-3.2614706666666664,-0.42165059666666665,-0.09305514333333333,-0.1380555483333333,-8.060367166666667
248,1778427573110,-3.255525283333333,-3.6172945,-0.10180471666666667,-0.3851505499999999,0.089491755,-7.8319035
249,1778427573120,-3.4577017,-3.6464324,-0.05469831,-0.360130525,0.03973169083333334,-7.398036416666667
250,1778427573130,-3.4577017,-3.6464324,-0.05469831,-0.2350304,-0.20906863,-5.228701
251,1778427573140,-3.4577017,-3.6464324,-0.05469831,-0.2350304,-0.20906863,-5.228701
252,1778427573150,-4.089679716666667,-3.571671933333333,0.4562257816666666,0.9982810999999999,-0.7349217716666666,-2.2339341666666663
253,1778427573160,-3.9647434,-3.5013020000000004,0.4414282,1.7088446166666664,0.035481083333333295,0.6509023500000001
254,1778427573170,-2.7799795,-3.0345063,-0.2523318,1.444892657142857,1.2409727428571427,2.500380457142857
255,1778427573180,-1.452158,-2.4635177,-0.34014178999999994,-0.10013098666666664,3.5106425333333333,5.047936
256,1778427573190,-1.3723363,-2.429532,-0.33630010000000005,-0.8144869966666667,4.464737500000001,5.915211916666667
257,1778427573200,-0.453624072,-2.1019112,-0.2544660733333333,-2.55127868,6.102034566666667,7.714209733333334
258,1778427573210,0.3849005,-1.899806,-0.05512517,-4.2641884,6.312201571428572,9.322283857142859
259,1778427573220,0.72553015,-1.9411498,0.112750486,-4.8323513333333326,5.477119466666667,9.859059333333333
260,1778427573230,1.0891591166666668,-1.9928906166666664,0.345142075,-5.20727,4.579147666666667,10.191625
261,1778427573240,1.3648356999999998,-2.0369482,0.5436293,-5.403153933333333,3.539964133333333,10.332175333333334
262,1778427573250,1.6412745,-2.0954880666666664,0.732868,-5.4507504,3.1655037,10.359817
263,1778427573260,1.7794939,-2.124758,0.82748735,-5.319130785714286,2.4731315142857144,10.176447714285715
264,1778427573270,2.096789,-2.139006866666667,1.1127885,-4.9612947,1.5357152,9.737192
265,1778427573280,2.0895428,-2.14235055,1.1560735,-4.9612947,1.5357152,9.737192
266,1778427573290,2.0382200285714283,-2.1577564857142852,1.147741157142857,-3.677474214285714,0.09806568000000003,8.82148307142857
267,1778427573300,1.9210876333333333,-2.2083605166666667,1.04846566,-2.7130053000000003,-0.91339624,8.3192215
268,1778427573310,1.7520534,-2.2668395,0.90175986,-2.44491185,-1.18095522,8.31128025
269,1778427573320,1.7282192857142857,-2.278059614285714,0.8767410257142857,-2.1584051571428575,-1.468432757142857,8.311760214285714
270,1778427573330,1.7103437,-2.2864747,0.8579769,-1.8757635666666665,-1.6836463666666666,8.609483833333334
271,1778427573340,1.6742788857142856,-2.3165723714285713,0.7658635,-1.809121042857143,-1.5594298857142856,8.887609
272,1778427573350,1.6521696,-2.3432465,0.6808324,-1.8350391000000001,-1.3300064,9.093645
273,1778427573360,1.6756465714285713,-2.3422534285714285,0.6738023714285715,-2.032239514285714,-0.7068583614285714,9.262178571428572
274,1778427573370,1.8165084,-2.336295,0.6316222,-2.3394611333333333,0.07050403,9.356674
275,1778427573380,1.8406459,-2.389448333333333,0.5905628666666666,-2.9571222833333337,0.9252572216666666,9.364869166666667
276,1778427573390,1.8816428571428572,-2.4518764,0.6133459199999999,-3.4445818714285714,1.293703557142857,9.387318714285714
277,1778427573400,1.8956390333333333,-2.4663531833333336,0.6290509666666667,-3.6681185833333334,1.4051683,9.395234833333333
278,1778427573410,1.9354787,-2.4955726,0.6817471,-4.062839433333333,1.4952454333333334,9.390883
279,1778427573420,1.9625941333333332,-2.5120776,0.7007522666666667,-4.2299366,1.4410311,9.385028
280,1778427573430,2.016825,-2.5450876,0.7387626,-4.2299366,1.4410311,9.385028
281,1778427573440,2.397884,-2.506183,1.0132909,-4.265723066666667,1.350444875,9.353135833333333
282,1778427573450,2.397884,-2.506183,1.0132909,-4.4446554,0.89751375,9.193675
283,1778427573460,2.397884,-2.506183,1.0132909,-4.4446554,0.89751375,9.193675
284,1778427573470,3.2226703999999997,-2.3809490285714285,0.9918610085714287,-4.1121702,0.39446624999999996,8.659603857142857
285,1778427573480,3.49566125,-2.2721752,0.98036208,-4.03321225,0.22983806666666665,8.5239625
286,1778427573490,3.6311877,-2.1842737,0.9724347999999999,-3.9154935,-0.17409660000000002,8.290815
287,1778427573500,4.48642,-1.7743717,1.0486587,-3.9154935,-0.1740966,8.290815
288,1778427573510,4.48642,-1.7743717000000003,1.0486587,-3.8606429166666665,-0.8652651833333334,7.069339666666667
289,1778427573520,4.48642,-1.7743717000000003,1.0486587,-3.8496728,-1.0034989,6.825044600000001
290,1778427573530,4.927020714285715,-1.1209015714285715,1.330765842857143,-4.038757314285714,-0.4075780300000001,5.330301028571428
291,1778427573540,5.192071,-0.48319889999999993,1.6495476,-4.29087,0.38698313,3.3373095999999998
292,1778427573550,5.159355933333333,-0.38334553499999996,1.8882403166666666,-4.313650249999999,0.9300169383333333,2.8763607666666666
293,1778427573560,5.2914066,-0.28093103,2.1582355,-4.3182063,1.0386237,2.784171
294,1778427573570,5.5421833000000005,-0.09204805500000002,2.4349285000000003,-3.83040505,1.1597786166666666,2.1122193333333334
295,1778427573580,5.961027285714286,0.14413733428571426,2.781582142857143,-3.7328448,1.1840096,1.977829
296,1778427573590,6.185117000000001,0.20720722,2.874863,-3.7328448,1.1840096,1.977829
297,1778427573600,6.6862645,0.34629052,2.8394949166666668,-3.7328448,1.1840096,1.977829
298,1778427573610,6.866219714285714,0.3587055914285714,2.7737767285714283,-0.7115489314285715,-0.8421868000000001,-0.105047
299,1778427573620,6.77506,0.10659158499999999,2.5277084,0.21838431333333333,-1.3340278666666665,-1.1219049333333333
300,1778427573630,6.624106,-0.13397123,2.3256235,0.43157628,-1.4110987,-1.4567609
301,1778427573640,6.3656966666666674,-0.26897910333333336,2.273222133333333,1.2914963799999999,-1.07105045,-4.4969609833333335
302,1778427573650,5.848878,-0.53899485,2.1684194,1.5076372571428571,-0.4555309691428571,-5.421690885714286
303,1778427573660,5.848878,-0.53899485,2.1684194,1.5407549000000003,-0.04489859599999999,-5.6592083
304,1778427573670,5.848878,-0.53899485,2.1684194,1.5407549,-0.044898596,-5.6592083
305,1778427573680,5.270389000000001,-0.6913208333333333,1.9125507666666666,1.5407549000000003,-0.04489859599999999,-5.6592083
306,1778427573690,4.023751133333334,-1.0221531666666666,1.3260123666666666,1.5407549000000003,-0.04489859599999999,-5.6592083
307,1778427573700,3.8444314,-1.0745139,1.1764101,1.4643967,2.097635002,-5.838573650000001
308,1778427573710,3.8250226285714284,-1.0910653857142856,1.162036442857143,1.3880385,4.2401686,-6.017939
309,1778427573720,3.7765007,-1.1324441,1.1261023,1.3880384999999997,4.2401686,-6.017939000000001
310,1778427573730,3.7765007,-1.1324441,1.1261023,1.3880385,4.2401686,-6.017939
311,1778427573740,3.7404184571428574,-1.1583167,1.1521404,1.3880385,4.2401686,-6.017939
312,1778427573750,3.523925,-1.3135523,1.308369,2.4044165,2.9253828,-6.747210333333332
313,1778427573760,3.310986,-1.4773422,1.2431822999999997,3.470412757142857,1.6475253857142858,-7.586662685714286
314,1778427573770,3.310986,-1.4773422,1.2431823,3.8887682,1.182177,-7.9427752
315,1778427573780,3.310986,-1.4773422,1.2431823,3.8887682,1.182177,-7.9427752
316,1778427573790,3.310986,-1.4773422,1.2431823,3.8887682,1.182177,-7.9427752
317,1778427573800,3.0719127,-1.738394057142857,0.9664501114285714,4.574355028571429,0.6798493757142856,-8.864767599999999
318,1778427573810,2.6982061,-2.3752808499999998,0.43217967333333335,4.5722244,-0.09206250000000003,-9.401216166666666
319,1778427573820,2.551917083333333,-2.653213883333333,0.26781031666666666,4.30629445,-1.01907595,-9.53721
320,1778427573830,2.4830105,-2.6419833,0.2534294,3.7919969333333334,-1.6129897333333334,-9.342980333333335
321,1778427573840,2.3553913666666664,-2.446494266666667,0.20011329833333336,3.3664528666666667,-1.61276065,-9.148979583333334
322,1778427573850,2.3188635,-2.2433276857142856,0.10881296628571428,2.726182485714286,-1.6555102571428573,-8.839241714285714
323,1778427573860,2.4692903999999998,-2.1314455333333333,-0.014167493333333335,2.2936463333333332,-2.094860533333333,-8.813462
324,1778427573870,2.563320266666667,-2.1394642333333334,-0.03486992,1.9478710999999997,-3.0396146833333333,-8.9925985
325,1778427573880,2.5163140285714287,-2.1730014,-0.03366049857142857,1.7200438000000002,-3.940648142857143,-9.164353285714286
326,1778427573890,2.4201820499999998,-2.1966730333333335,-0.032501894999999996,1.5942565000000002,-4.3252824,-9.152747
327,1778427573900,2.2474481166666664,-2.1659698833333336,-0.05858065516666666,1.4856243000000002,-4.544074,-9.079443
328,1778427573910,2.1971402,-2.1598213,-0.096895896,1.4069754,-4.616767,-8.7369
329,1778427573920,1.9466988666666667,-2.029427383333333,-0.3656006153333333,1.1875729833333333,-4.647692,-8.391379166666667
330,1778427573930,1.7850431,-1.9326736999999998,-0.5354581,0.6954701,-4.7317624,-7.9844669999999995
331,1778427573940,1.7347092285714285,-1.9146151142857144,-0.5481853,0.4453644085714286,-4.730278742857143,-7.8732020857142855
332,1778427573950,1.4845378666666669,-1.8755362,-0.5218190333333333,-0.15862133333333334,-4.565861333333333,-7.7174678000000005
333,1778427573960,1.252634,-1.8734019999999998,-0.4850283,-0.5703954,-4.364174,-7.7023997
334,1778427573970,0.8244905942857143,-2.049196285714286,-0.5510600142857143,-1.2107567714285714,-3.9032326285714283,-7.720202157142857
335,1778427573980,0.08388120285714286,-2.6537524285714285,-0.7576487142857143,-2.8260591142857145,-3.036938314285714,-7.592967742857143
336,1778427573990,-0.4605553316666667,-2.8675045833333335,-0.576425926,-3.9716422166666665,-2.47443685,-7.558184716666666
337,1778427574000,-1.1530551,-3.0588980000000006,-0.039941356,-5.7097573,-1.6012305,-7.5060067
338,1778427574010,-1.6406793285714285,-3.396234685714286,0.5355277902857143,-6.059477800000001,-1.374992214285714,-7.2497704857142855
339,1778427574020,-2.0063975,-3.6492372,0.96712965,-6.199366,-1.2844969,-7.147276000000001
340,1778427574030,-2.6864065999999998,-3.7313457999999997,1.678573575,-5.19594365,-1.19612505,-5.826483799999999
341,1778427574040,-3.5755337666666667,-3.720928466666667,2.5494983666666666,-3.8690678999999997,-1.3482559499999998,-4.47748965
342,1778427574050,-3.663425266666667,-3.6098243666666665,2.6001314,-1.9853630333333332,-1.4162910999999998,-2.495740833333333
343,1778427574060,-3.614519833333334,-3.5538252666666668,2.5317534333333334,-0.5465717,-1.0482447,-1.1381947
344,1778427574070,-3.4468678333333336,-3.438828583333333,2.1309373833333334,-0.04808018833333333,-0.4023820166666667,-0.224696605
345,1778427574080,-3.0934732,-3.2211027,1.6347905,0.26542094,0.7313584,1.3252722
346,1778427574090,-3.0934732000000005,-3.2211027,1.6347905,0.25150194,0.8326529571428571,1.454557457142857
347,1778427574100,-2.735333828571428,-3.010036328571428,1.4615399857142857,0.109999376,1.7331556428571429,2.5409375714285716
348,1778427574110,-2.060974,-2.6513743,1.1806177,-0.09987647,3.1035008000000004,3.9220603
349,1778427574120,-1.5232596333333335,-2.4435065,0.91622219,-0.036550105000000006,4.055228916666667,5.2129458
350,1778427574130,-1.2064728,-2.339283,0.75620264,0.05024367,4.4186935,6.0267963
351,1778427574140,-1.2064728,-2.339283,0.75620264,0.06775513999999999,4.525136933333333,6.292115533333333
352,1778427574150,-0.7963879066666667,-2.207486633333333,0.5949330733333333,0.08865181999999999,4.9572479,7.2695255
353,1778427574160,0.010122542,-1.9412109,0.31623796,0.015620697142857144,5.369222000000001,8.163646642857142
354,1778427574170,0.3357512946666667,-1.8772030666666666,0.24907957,-0.11260282866666667,5.446881833333333,8.683907499999998
355,1778427574180,0.9870088,-1.7491874,0.11476279,-0.44409904,5.331479,9.592569
356,1778427574190,1.3159304857142857,-1.723611,0.11267207857142858,-0.69095404,4.909982285714285,9.790336857142858
357,1778427574200,1.6523526,-1.6985137,0.11525062499999998,-0.9477573999999999,4.3493605,9.913579
358,1778427574210,1.8529566285714285,-1.6912833857142857,0.18847789499999998,-1.0972011857142856,3.9317904285714285,9.907906857142857
359,1778427574220,2.0011535,-1.7135756,0.30044436,-1.3521065571428572,3.038465457142857,9.855503142857144
360,1778427574230,2.0496926,-1.8123618,0.500761,-1.4499905,2.3396392666666666,9.8348285
361,1778427574240,2.1162212,-1.9172459999999998,0.6601605,-1.351234,2.0037906,9.863336
362,1778427574250,2.1643437833333334,-2.0027183333333336,0.6746938333333334,-1.2286790833333334,1.8863264333333334,9.841191833333333
363,1778427574260,2.1900668,-2.0820117000000002,0.6441839,-1.2200251333333334,1.9726366166666667,9.715429833333333
364,1778427574270,2.1611279,-2.2378221714285713,0.48817306714285713,-1.2889256,2.1757493,9.521709
365,1778427574280,2.0241425,-2.2461066,0.3651432700000001,-1.5825226833333332,2.43969405,9.371411083333333
366,1778427574290,1.9516381999999999,-2.2381488,0.330141215,-2.1120665,2.6511552,9.201769
367,1778427574300,1.7464432333333333,-2.2681607333333336,0.27554453333333334,-2.4597507000000003,2.6172521333333334,9.140172999999999
368,1778427574310,1.5657619833333334,-2.375412933333333,0.26437517,-2.9625691333333335,2.437912266666667,9.134446666666667
369,1778427574320,1.4960629,-2.5627105,0.35904533,-3.402475885714286,1.9951949714285715,9.392358428571429
370,1778427574330,1.5896659,-2.615508333333333,0.521707305,-3.670231133333333,1.5035430333333333,9.6864905
371,1778427574340,1.6716741428571429,-2.604246114285714,0.6642199142857143,-3.6915459999999998,1.1365365571428572,9.823673571428571
372,1778427574350,1.7648286166666667,-2.5582690666666665,0.8116225833333334,-3.5903095,1.0175996333333333,9.804845333333335
373,1778427574360,1.8353916833333332,-2.484159083333333,0.8120596099999999,-3.4448217999999997,0.971123,9.7062665
374,1778427574370,1.8374241999999998,-2.4274325142857145,0.6506651285714286,-3.1878002000000003,1.0393872,9.230479
375,1778427574380,1.8198622,-2.4638634,0.5121031,-3.3065371999999997,1.0358238666666668,9.068473166666667
376,1778427574390,1.797944542857143,-2.4818783142857144,0.4291714028571429,-3.5335282571428572,0.8983646285714286,9.005179428571429
377,1778427574400,1.7815063,-2.4953895,0.36697263,-3.6859610000000003,0.7958047,8.98201
378,1778427574410,2.049335657142857,-2.6625595714285715,0.46114189428571434,-4.2313762142857145,-0.06575528285714284,9.314298714285714
379,1778427574420,2.7697346,-2.7567463,0.8701117000000002,-4.5167375,-0.91996306,9.547519
380,1778427574430,3.141045542857143,-2.721831185714286,1.0552967285714288,-4.3424883,-1.1662945,9.4479475
381,1778427574440,4.052614,-2.444289,1.3591036999999997,-3.77794705,-1.0427215,8.948056249999999
382,1778427574450,4.1360336,-2.3747320833333334,1.3533919833333332,-3.6012033833333335,-0.9201666533333334,8.756269999999999
383,1778427574460,4.883029016666666,-1.6691015,1.1603929,-3.2820263,-0.43096542,8.29723
384,1778427574470,5.213135071428572,-1.3946981285714286,0.993943,-3.650203442857143,0.012697277142857137,7.141472857142857
385,1778427574480,5.5757216666666665,-1.1336229999999998,0.9291904416666666,-4.193589966666667,0.29110274166666666,5.8278324999999995
386,1778427574490,5.72777335,-1.00996745,1.18333125,-4.726519016666667,0.11270463666666665,4.670446516666667
387,1778427574500,5.805054033333334,-0.8438195749999999,1.69447905,-5.405852,0.02275473,2.9943087
388,1778427574510,5.796679500000001,-0.83096313,1.7472972,-5.405852,0.02275473,2.9943087
389,1778427574520,5.7966795,-0.8309631300000001,1.7472972,-5.434053666666667,0.15470162499999998,2.851722583333333
390,1778427574530,5.229556085714286,-0.7694525871428571,2.4779408571428574,-5.422257928571428,1.811848142857143,1.6480271714285715
391,1778427574540,5.4816004000000005,-0.33103559833333335,3.0165784833333333,-4.45002625,1.358615183333333,1.67830135
392,1778427574550,6.170725999999999,-0.06658925,3.4028206,-3.2492431333333336,0.39874228,1.4606806333333333
393,1778427574560,6.653619999999999,0.09579827,3.4037962,-1.2753339,-0.93722,0.29825497
394,1778427574570,6.6523305142857145,0.08130265285714286,3.2210676857142855,-0.26103580857142855,-1.4636985714285715,-1.0454740414285715
395,1778427574580,6.090883833333333,-0.104680905,2.7811073833333335,0.8390997933333333,-1.9601138333333334,-2.7071509666666667
396,1778427574590,5.05749,-0.36739948,2.4138603,1.7545577,-1.4611896,-4.650212
397,1778427574600,4.658372571428572,-0.4906471257142857,2.246132614285714,1.8521215857142859,-0.9246754285714286,-4.867767085714285
398,1778427574610,4.105564733333334,-0.6151782,1.9680009333333333,1.9126191,1.1279627,-5.1457763
399,1778427574620,3.5010404285714287,-0.6671731,1.5851272857142857,1.8341229,2.8312078,-5.081177000000001
400,1778427574630,3.3260679,-0.6856701,1.41949335,1.8142697666666665,3.3295719333333333,-5.037907333333334
401,1778427574640,3.1639652,-0.75162923,1.2280595,1.9289597714285713,4.118584285714285,-5.028315442857143
402,1778427574650,3.1176559142857143,-0.7494862271428572,1.2133721857142858,2.136522914285714,4.092971657142857,-5.122344942857143
403,1778427574660,3.1099377,-0.7491290600000001,1.2109243,2.1676552,4.0737076,-5.137682
404,1778427574670,3.103038342857143,-0.7492858785714286,1.2119696714285715,2.256470671428571,3.969642357142857,-5.1850676857142854
405,1778427574680,3.0058462857142856,-0.87911924,1.1838321857142857,3.175801171428571,2.6169249,-5.811968185714286
406,1778427574690,2.7903458999999997,-1.2044866714285714,1.0393115285714285,4.6925577857142855,0.35493451428571426,-7.0665764428571425
407,1778427574700,2.7491413857142857,-1.3056772571428572,0.9694903571428571,5.0493467857142855,-0.31304661714285714,-7.702617842857143
408,1778427574710,2.710462985714286,-1.8587234857142858,0.6657618714285715,5.020854,-0.5511095257142857,-8.081834314285713
409,1778427574720,2.67963805,-2.0774078499999997,0.59128452,4.825173666666667,-0.7069238000000001,-8.394103
410,1778427574730,2.6533256,-2.2440944,0.53966564,4.73894,-0.7509061,-8.488889
411,1778427574740,2.6064935333333334,-2.3887369666666665,0.5406006466666666,4.522082733333334,-0.9084584333333333,-8.563211
412,1778427574750,2.5568303714285716,-2.543806928571428,0.5846159714285715,4.186215785714286,-1.3183781142857143,-8.601528428571429
413,1778427574760,2.6481423,-2.607896,0.69815046,4.140011833333333,-1.5721635,-8.593397333333334
414,1778427574770,2.693023,-2.6448495,0.7643128599999999,4.2326633000000005,-1.7142187714285715,-8.731467285714286
415,1778427574780,2.663936,-2.6738145,0.7630323,4.4412956333333335,-1.9914206666666665,-8.941692333333334
416,1778427574790,2.560689542857143,-2.690714442857143,0.6920525285714286,4.708898228571429,-2.5300946714285715,-9.189746999999999
417,1778427574800,2.3676991,-2.7088164999999997,0.42703712,4.8236976,-3.3064609,-9.324705
418,1778427574810,2.3403803666666665,-2.6833679000000004,0.30129808,4.7448193000000005,-3.90213095,-9.365633
419,1778427574820,2.3575765999999994,-2.610701,0.07311402,4.3095016,-5.4658694,-9.397398
420,1778427574830,2.3575766,-2.610701,0.07311402,3.9016471999999998,-6.170197133333333,-9.353517333333334
421,1778427574840,2.5085304333333336,-2.509892366666667,0.013069867816666665,3.4677292333333334,-6.763449166666667,-9.332340666666667
422,1778427574850,2.608662628571429,-2.441954342857143,-0.01196062807142857,2.837927185714286,-7.322419928571429,-9.353416
423,1778427574860,2.551998483333333,-2.41962295,-0.08106163933333332,1.7309121383333335,-7.249621416666667,-9.346951500000001
424,1778427574870,2.3434296,-2.4011767,-0.23050125,0.40561453,-6.5274005,-9.128007
425,1778427574880,2.283568333333333,-2.3955666333333334,-0.26359260999999995,0.14421510999999998,-6.305147333333333,-9.03317
426,1778427574890,2.032339857142857,-2.341905071428571,-0.3067774757142857,-1.0043933514285714,-5.278137428571428,-8.527918857142856
427,1778427574900,1.9266977,-2.2851334,-0.26385686,-1.6650659,-4.6196685,-8.164214
428,1778427574910,1.8248625,-2.2618088999999997,-0.215317435,-2.249384083333333,-3.8591411333333334,-7.788328383333334
429,1778427574920,1.4195341,-2.2311668,-0.025062438000000003,-2.388483,-3.5330918,-7.6231403
430,1778427574930,1.27931245,-2.21845255,0.002073291500000001,-2.351831133333333,-3.4421746,-7.532935766666667
431,1778427574940,0.7820273033333334,-2.149342916666667,0.004807189166666667,-2.2635612,-3.3302846,-7.379405000000001
432,1778427574950,0.48490632,-2.136588,-0.06780884,-2.3690882,-3.2236886,-7.378336
433,1778427574960,-0.07290059666666666,-2.189182583333334,-0.22543999833333336,-2.756478466666666,-3.033709533333333,-7.425983333333334
434,1778427574970,-0.46877733,-2.3090065,-0.26723103833333334,-3.3293173333333335,-2.7380506666666666,-7.470576533333333
435,1778427574980,-1.1477295666666667,-2.948789833333333,-0.104182905,-4.297055100000001,-2.206827,-7.462788149999999
436,1778427574990,-2.055059,-3.5994172,0.34965453,-6.051689,-1.189202,-7.256468299999999
437,1778427575000,-2.964815857142857,-3.6947712428571426,1.1515741857142856,-6.274676657142857,-0.8047058671428572,-6.543915857142857
438,1778427575010,-3.9618288,-3.65100564,2.2301301,-5.9574633,-0.56505036,-5.628818
439,1778427575020,-4.3018365,-3.6242967,2.6333244,-4.4741297,-0.5421429,-4.138459
440,1778427575030,-4.5135735,-3.514011814285714,2.7515020285714287,-2.4627032,-0.6754643,-2.5647178
441,1778427575040,-4.510655171428572,-3.4337979142857145,2.439192928571429,-1.0199268028571429,-0.7922267857142857,-1.2807226857142857
442,1778427575050,-4.3372042,-3.3991006857142856,2.1468239142857146,-0.28492501285714283,-0.6756387814285715,-0.2999130428571428
443,1778427575060,-3.9714713333333336,-3.316728,1.5764231666666666,0.15750142716666668,-0.03774637999999999,1.3288609833333334
444,1778427575070,-3.6144963142857143,-3.2461737142857143,1.2916258285714284,-0.047647487,0.56077427,2.2989914
445,1778427575080,-3.3097052666666666,-3.1340648666666664,1.2593215000000002,-0.23457225566666665,1.0470230233333333,3.0913854
446,1778427575090,-2.9345006,-2.97880185,1.30513715,-0.33589953,1.5967253999999997,4.08561955
447,1778427575100,-2.4522366,-2.8077248666666663,1.3593475666666668,-0.22375485333333334,2.2275709,5.274541366666667
448,1778427575110,-2.2013885833333333,-2.7492153333333333,1.3320288999999998,-0.06757697499999998,2.528116583333333,5.787591750000001
449,1778427575120,-1.21235732,-2.57143055,0.990210175,0.59330285,3.7065775,7.761959
450,1778427575130,-0.45817132,-2.4510837999999997,0.5744498814285715,0.5756750271428572,3.990717214285714,8.272380714285713
451,1778427575140,0.10562463714285716,-2.3291081142857144,0.3487224357142857,0.30349093857142856,4.458858142857143,9.216102000000001
452,1778427575150,0.7184667166666667,-2.2046813333333333,0.14877900833333335,-0.10109819999999999,4.656116333333333,9.669868833333332
453,1778427575160,1.1597018,-2.151223,0.0600035,-0.67073005,4.714658,9.919688
454,1778427575170,1.4554855999999998,-2.1124924857142857,0.05650155371428572,-1.2848023000000002,4.434729,9.843788
455,1778427575180,1.6123095,-2.1363645333333334,0.10925434533333334,-1.6366607,4.044869633333334,9.7296325
456,1778427575190,1.8102275,-2.2034822,0.3281289,-2.0906863,3.3211217,9.572564
457,1778427575200,1.8748349500000001,-2.2208308,0.41779877000000004,-2.1061870000000003,3.2226451333333332,9.562688249999999
458,1778427575210,1.961770933333333,-2.2599286333333333,0.5363524333333334,-2.1571179,2.5014932,9.489537
459,1778427575220,2.1062639857142855,-2.4000878,0.7358094642857144,-2.0333522714285714,1.9222183000000002,9.45226742857143
460,1778427575230,2.1500645,-2.4419718,0.8091935500000002,-1.9391917,1.7599027000000003,9.465968
461,1778427575240,2.2240931,-2.5552711333333336,0.8345202500000001,-1.6894497,1.8034778333333332,9.521048
462,1778427575250,2.2511766285714288,-2.6751647428571426,0.7394072714285713,-1.6124879285714286,2.1793490571428573,9.608408857142857
463,1778427575260,2.24257,-2.69906,0.5478978,-1.9313778,2.595464666666667,9.6103615
464,1778427575270,2.24257,-2.69906,0.5478978,-1.9935588,2.666885,9.608758
465,1778427575280,2.1566416,-2.6879879,0.5061532142857142,-2.3027875142857144,2.746995571428571,9.506001428571428
466,1778427575290,1.8477907,-2.658082,0.41417053,-3.0758593,2.947272,9.24911
467,1778427575300,1.7421341666666665,-2.665724733333333,0.44831884333333333,-3.5859571,2.707023833333333,9.093212916666667
468,1778427575310,1.5923388833333334,-2.739804,0.5414340066666666,-3.9568796,2.1719313,9.121135
469,1778427575320,1.5813118,-2.7941265,0.56826484,-3.957970385714286,1.920931157142857,9.18473
470,1778427575330,1.6521696,-2.8841927,0.5660696,-3.9139664,1.3516921,9.372964
471,1778427575340,1.753395,-2.938952,0.54466593,-3.8443276999999996,0.96852684,9.480323
472,1778427575350,1.7973305000000002,-2.9330979999999998,0.510487115,-3.8391099166666667,0.9223810666666666,9.483937166666667
473,1778427575360,2.009699142857143,-2.8988886428571425,0.3402811857142857,-3.864900857142857,0.5398958142857143,9.449037428571428
474,1778427575370,2.0770724,-2.8875465000000005,0.28587034,-3.9946005,0.16050485,9.316611
475,1778427575380,2.5131953,-2.850776,0.1975725,-4.574813428571429,-0.23843379428571426,9.062666142857143
476,1778427575390,2.891215466666667,-2.858500166666667,0.37019435833333336,-5.133533666666667,-0.72507161,8.629108
477,1778427575400,3.1807344,-2.8203475,0.6922965,-5.3471325,-1.2169198833333332,8.302447833333334
478,1778427575410,3.5562440999999994,-2.675644,1.1645192,-5.094769,-1.9205604,7.877413
479,1778427575420,3.8220116833333333,-2.5911370833333334,1.33881795,-4.805626083333333,-1.9699386499999998,7.635993833333334
480,1778427575430,4.300251,-2.1494546,1.5212473,-4.0834813,-1.5598444,6.819546699999999
481,1778427575440,4.430034916666667,-1.6420571833333335,1.5238388833333334,-3.864689766666667,-1.2460632666666667,6.475426033333332
482,1778427575450,4.716423616666667,-1.2192682833333333,1.46175195,-3.7465892000000003,-0.9744318666666666,6.133901599999999
483,1778427575460,4.9560818285714285,-0.9487574285714285,1.3666127857142858,-3.982077828571429,-0.27886,5.208368028571428
484,1778427575470,5.119729616666667,-0.6023420333333334,1.3380861166666669,-4.608622100000001,0.5499314366666667,4.077016333333333
485,1778427575480,4.957667285714286,-0.5333499171428572,1.6757076285714285,-5.517902014285714,1.1864748614285714,2.6424285285714286
486,1778427575490,4.811683,-0.5894856,1.9896283999999997,-5.8985147,1.3002267,1.9504927
487,1778427575500,4.659997716666667,-0.38499199666666667,2.72978325,-5.830454133333333,1.2347113666666667,1.8553504333333333
488,1778427575510,4.9568133,-0.18360828,3.1889055,-4.7119093,0.14950927,2.0719023
489,1778427575520,5.556465214285715,0.05419305171428571,3.417046057142857,-3.8311288000000006,-0.6765769,2.2442534285714286
490,1778427575530,7.082303499999999,0.66388017,3.8233938,-1.9208658000000003,-2.006387,2.1354322
491,1778427575540,8.122242,0.9101751,3.7625365,-0.41783184,-1.979967,0.101556346
492,1778427575550,8.124681333333333,0.59227034,3.319217966666667,-0.2724459083333333,-1.8512525999999998,-0.4862742116666667
493,1778427575560,6.363542,-0.45100194,2.587468,0.52519137,-0.31306845,-6.30077
494,1778427575570,5.158746166666666,-1.0620640733333333,2.484311583333333,0.3735441,0.3538436999999999,-7.120550599999999
495,1778427575580,3.6776740833333332,-1.380172,2.3572208833333335,0.3113122,1.7170912833333334,-6.659983933333333
496,1778427575590,3.0586947666666666,-1.2468613666666666,2.1935223333333336,0.38446331666666667,3.0617329833333335,-5.815666266666667
497,1778427575600,2.8759604,-1.0481709,1.9356009,0.5653558,4.5872927,-4.6712866
498,1778427575610,3.17299,-1.0237793,1.726808,1.0160216,5.0373473,-4.161978
499,1778427575620,3.17299,-1.0237793,1.726808,1.0160216,5.0373473,-4.161978
500,1778427575630,3.4716660166666666,-1.0313508666666669,1.6887163833333334,1.7896316333333333,4.3522622166666665,-4.464076033333334
501,1778427575640,3.6253333,-1.1027473,1.6779027,3.3450980833333332,2.7426831333333332,-5.5582885
502,1778427575650,3.550146,-1.1948259,1.5781409,3.9338195,2.1351268,-6.081469000000001
503,1778427575660,3.3184252,-1.3792268,1.3414198,4.408330928571428,1.694867442857143,-6.581615
504,1778427575670,3.1692704,-1.4656546666666668,1.2369828,4.8354567,1.3377439666666666,-7.048621466666667
505,1778427575680,2.906485,-1.5566501000000001,1.0445992714285715,5.141849228571429,1.1469867428571427,-7.384444428571428
506,1778427575690,2.78065,-1.5870438,0.9283468300000001,5.2535175,1.1092549,-7.5143296500000005
507,1778427575700,2.6628991833333333,-1.7221330166666666,0.6651810766666667,5.317429,1.2226468,-7.7726493
508,1778427575710,2.7153416,-1.8582181,0.5732041600000001,5.334969571428572,1.1854713142857143,-7.924493185714286
509,1778427575720,2.804127,-2.058047,0.3958158,5.343747416666666,1.0213412666666668,-8.238560916666666
510,1778427575730,2.8036392000000006,-2.2676933,0.21940304,5.2505393,0.6186538,-8.7156725
511,1778427575740,2.7340212333333334,-2.3704940333333333,0.11116502,5.1577643,0.3862704666666667,-8.909494583333334
512,1778427575750,2.5896022,-2.4800837,-0.035124,4.624555,-0.27015516,-9.257815
513,1778427575760,2.4388618,-2.4081893,-0.028965104,4.2987240714285715,-0.42625304571428574,-9.28857642857143
514,1778427575770,2.38361475,-2.36099135,-0.006921134999999999,3.965380833333333,-0.5549710666666666,-9.294874333333334
515,1778427575780,2.23892635,-2.2487593,0.03472763475,3.670593775,-0.6055774375,-9.206159125
516,1778427575790,2.253197657142857,-2.1766425857142857,0.009251410000000002,3.2421018142857143,-0.42874012857142857,-8.942412357142857
517,1778427575800,2.28306,-2.1474423,-0.02134271,3.0908253,-0.3129157,-8.8522005
518,1778427575810,2.3313962666666668,-2.098262683333333,-0.07674228466666667,2.89585755,-0.20257818333333333,-8.782205916666667
519,1778427575820,2.3614793,-2.066401,-0.11025034,2.7273605999999995,-0.23854289333333334,-8.740209
520,1778427575830,2.365077,-2.0537782,-0.11518965,2.5300512,-0.6068945999999998,-8.686046
521,1778427575840,2.3828829333333332,-2.058494066666667,-0.10214010666666666,2.4685066,-0.9279043000000001,-8.629999
522,1778427575850,2.3948044,-2.05252835,-0.057381396499999994,2.4486532999999997,-1.2996922,-8.588536
523,1778427575860,2.365443,-2.0208497,0.034758125,2.4846945,-2.0291417,-8.535009
524,1778427575870,2.3014671428571427,-2.008017928571429,0.05344388428571429,2.5507333285714284,-2.222873214285714,-8.531867357142858
525,1778427575880,2.216166,-1.9909089,0.07835823,2.6387851,-2.4811819,-8.5276785
526,1778427575890,1.8530858,-1.89588295,0.07671179416666667,2.9114856166666665,-3.1501302166666663,-8.343477333333333
527,1778427575900,1.5553347,-1.8666334,-0.041526813,2.9878945,-3.6670241,-8.038986
528,1778427575910,1.3877943666666666,-1.9191263166666668,-0.12496664383333332,2.8249972500000005,-3.7749436833333334,-7.846869533333333
529,1778427575920,0.9298713,-2.0088367,-0.28178474,2.2731822999999998,-3.5944328,-7.5653114
530,1778427575930,0.634173175,-2.0824182833333333,-0.40003350666666665,1.9237673,-3.396716,-7.452403
531,1778427575940,0.3690981957142857,-2.1776619142857143,-0.5095767685714286,1.2404709285714286,-3.099312114285714,-7.2622059142857145
532,1778427575950,-0.26541182,-2.348175566666667,-0.5969657333333334,0.04456769999999999,-2.5711828,-7.1081042
533,1778427575960,-1.0507930533333332,-2.4540456333333336,-0.39002275833333333,-2.0097466,-1.5647314,-6.9924216
534,1778427575970,-1.6740612,-2.640337,-0.12067777,-2.99311235,-0.9042332750000001,-6.82977885
535,1778427575980,-2.3811755,-2.9754174,0.2737355,-3.7565157,-0.39293906000000006,-6.413016
536,1778427575990,-2.7430258999999997,-3.1085552666666665,0.5278966333333334,-3.8280633500000003,-0.35850154,-6.0903265
537,1778427576000,-3.3070629,-3.269032333333333,1.1006942666666666,-3.4226271333333336,-0.5508986333333333,-4.786078333333333
538,1778427576010,-3.5428896333333335,-3.3097664666666664,1.3766453333333335,-2.8696414000000003,-0.77101374,-3.9170716666666667
539,1778427576020,-3.774436328571429,-3.163572971428571,1.5184770857142857,-0.7173085,-1.3019066,-1.6189456
540,1778427576030,-3.778248833333333,-3.132388033333333,1.3695311166666668,-0.13940453666666666,-1.2497285166666667,-0.8972337666666667
541,1778427576040,-3.7283880000000003,-3.0807285000000006,1.0830511,-0.023823743999999997,-1.2392929,-0.7528913999999999
542,1778427576050,-3.6934164499999995,-3.07008765,1.0420934,0.24108815766666666,-0.9550878049999999,0.17246763333333334
543,1778427576060,-3.441524642857143,-2.978440371428572,0.8371829571428572,0.16488998921428571,-0.3919354985714286,1.4811955571428572
544,1778427576070,-2.9048850833333333,-2.716733666666667,0.84982605,-0.31337387850000004,0.6988044133333333,3.16458735
545,1778427576080,-2.532709,-2.561491,0.9166998,-0.6188065,1.6664404,4.596608
546,1778427576090,-2.398310857142857,-2.523405142857143,0.9312477,-0.6100798714285715,2.073189314285714,5.145776
547,1778427576100,-1.5015611666666666,-2.2954590833333333,0.9026746166666667,-0.44903685833333334,3.1607949166666667,6.506656499999999
548,1778427576110,-0.7744252416666666,-2.1777083833333335,0.6779155466666666,-0.3200170416666667,3.9204056166666663,7.354792066666666
549,1778427576120,-0.22556195,-2.0893903,0.45722178,-0.28868475,4.623002666666667,8.3006915
550,1778427576130,0.28617525,-2.0060925,0.31392074,-0.39782599999999996,4.884326,9.080359
551,1778427576140,0.5388322833333333,-1.9586914333333334,0.28184571333333336,-0.48665595833333336,4.777679,9.326232333333332
552,1778427576150,1.0987227,-1.8257772,0.25294158,-0.5925393,4.294688,9.497886
553,1778427576160,1.1909231571428571,-1.7983366285714284,0.25194849428571425,-0.6026186142857143,4.107632428571429,9.486890571428573
554,1778427576170,1.4352158666666668,-1.7612714166666665,0.21761432166666664,-0.73649986,3.2107586166666664,9.318444000000001
555,1778427576180,1.5971054,-1.7524803,0.19659685000000002,-0.82359904,2.8492281,9.224829
556,1778427576190,1.64927305,-1.8557485,0.195011385,-0.82359904,2.8492281,9.224829
557,1778427576200,1.7014407,-1.9590167,0.19342592,-0.82359904,2.8492281,9.224829
558,1778427576210,1.9111582833333334,-2.0637789000000004,0.41156875,-1.4830025666666666,1.6553429666666666,9.448685500000002
559,1778427576220,2.2075677,-2.1052449,0.5787533,-1.5789993714285715,1.0558587142857143,9.751743857142857
560,1778427576230,2.394164,-2.153906,0.6743685999999999,-1.5843299333333334,0.8876381066666666,9.797515333333333
561,1778427576240,2.523004285714286,-2.2388415000000004,0.7123934857142856,-1.5850644142857142,0.94647026,9.66511
562,1778427576250,2.529974816666667,-2.2972071166666668,0.7013315483333334,-1.6566410666666667,1.2822825,9.346544166666668
563,1778427576260,2.3560782714285713,-2.2888355571428574,0.6523987,-1.9415697714285716,1.7697420285714287,9.062317285714286
564,1778427576270,2.0128005,-2.2588513,0.5861928,-2.1983514,2.1137464,8.911303
565,1778427576280,1.9007613666666667,-2.279868833333333,0.5641996333333333,-2.4482970666666666,2.171905816666667,8.988678
566,1778427576290,1.8083982,-2.3375450499999997,0.565978175,-2.7808876999999996,2.173102166666667,9.133300333333333
567,1778427576300,1.7537609000000003,-2.4049573,0.6418057,-3.242778,2.1642957,9.328523
568,1778427576310,1.7606602571428573,-2.386559028571429,0.6786806885714285,-3.3112385714285715,2.136632185714286,9.338427857142857
569,1778427576320,1.8468963333333335,-2.3305222000000003,0.7848832199999999,-3.5836918,1.9936605333333333,9.268912666666667
570,1778427576330,1.9379178999999997,-2.28577365,0.8327010549999999,-3.705712233333333,1.9563468999999998,8.993616666666666
571,1778427576340,2.036277333333333,-2.1977094666666663,0.84569975,-3.9272016666666665,2.1215859666666668,8.5898855
572,1778427576350,2.0192204714285715,-2.1578263142857144,0.78683165,-4.274333228571428,2.418175557142857,8.169886714285713
573,1778427576360,1.9656837333333332,-2.1761432666666667,0.7601256666666667,-4.325995,2.4620924,8.109542
574,1778427576370,1.8902018833333336,-2.2537392,0.77892756,-4.700506233333333,2.4733933666666665,8.146804666666666
575,1778427576380,2.0323749,-2.338917,1.0263404,-5.5712000857142865,2.2171353857142857,8.374308000000001
576,1778427576390,2.4980726,-2.2692177,1.2860507,-5.6080484,1.5532776000000001,8.559138
577,1778427576400,2.6183032,-2.2329147833333334,1.3216015500000002,-5.545485616666667,1.4318681333333334,8.499986000000002
578,1778427576410,3.4331794142857146,-1.9582066142857142,1.5286257285714286,-5.011124057142857,0.5769840357142858,7.714988142857143
579,1778427576420,3.8230192,-1.7058660714285714,1.5240609714285716,-4.798084814285715,0.1712822505714286,6.550896971428571
580,1778427576430,3.9750084,-1.4128466333333334,1.4766716000000002,-4.780173266666666,-0.18275051733333333,5.471978066666666
581,1778427576440,4.181637714285714,-1.131677514285714,1.755973542857143,-4.7859764,-0.33353242,4.9386926
582,1778427576450,4.2965484428571425,-1.0047885714285714,1.8642986857142856,-4.761367228571428,-0.19621864128571428,4.622897171428572
583,1778427576460,4.4051957,-0.8845028,1.9478576,-4.749426233333334,0.15052737466666669,3.9866084
584,1778427576470,4.461297,-0.4589292,2.0328016,-4.92952965,0.794582965,3.0815860500000003
585,1778427576480,4.5023798571428575,-0.3772345371428571,2.1103670285714284,-5.229879028571429,1.1994557428571428,2.2174845285714286
586,1778427576490,4.554391933333334,-0.2791423,2.3749759333333333,-5.285817,0.9333512,1.7259997666666667
587,1778427576500,4.7344632,-0.13527212066666666,2.789532733333333,-4.927595433333333,0.18147788666666664,1.4872023666666667
588,1778427576510,5.3278719571428566,0.07557060828571428,3.261131014285714,-3.8304741428571427,-1.182133277142857,1.3801628000000001
589,1778427576520,6.569681899999999,0.385103755,3.6051596166666666,-1.789377,-2.6887233,0.6985244
590,1778427576530,6.988761399999999,0.41843903,3.5238032,-0.8358164,-3.0063733999999998,-0.13836098
591,1778427576540,6.869686514285713,0.18610840999999997,3.1455233000000002,-0.34029560000000003,-2.712765328571429,-1.4853843457142857
592,1778427576550,6.164506,-0.42490283,2.3651989,0.2231694333333333,-1.4374423166666668,-4.6612073333333335
593,1778427576560,5.722508666666667,-0.5900750533333333,2.2872269333333333,-0.06429357000000001,-0.43302712,-5.40890635
594,1778427576570,3.8686402,-1.1319562,2.1051228,-0.7543313285714286,2.0677789942857143,-5.698958428571428
595,1778427576580,3.614967057142857,-1.0951509142857143,2.110262442857143,-0.9301732142857143,3.3629442000000003,-5.3604081428571435
596,1778427576590,3.322714133333333,-0.94773816,2.0714622333333335,-0.7185811333333333,4.779409666666666,-4.798651866666667
597,1778427576600,3.3832764666666666,-0.9152363066666666,1.9733367833333333,-0.04199698333333333,5.52817755,-4.433125466666667
598,1778427576610,3.494024866666667,-0.9461934083333333,1.9547177666666666,0.7038694799999999,5.030576933333333,-4.662530766666666
599,1778427576620,3.5506341,-0.9859112,1.9545043,1.970804,3.9852848,-5.1654763
600,1778427576630,3.461587042857143,-1.1223825428571428,1.8232423,2.6157468285714285,3.280128285714286,-5.503197614285715
601,1778427576640,3.2945824,-1.2853799,1.6069231000000002,4.28354,1.3637567,-6.4547076
602,1778427576650,3.2945824,-1.2853799,1.6069231,4.28354,1.3637567,-6.4547076
603,1778427576660,3.031195957142857,-1.4153700428571427,1.3261662642857142,4.754996942857143,0.6832964199999999,-6.805649714285714
604,1778427576670,2.6663547666666667,-1.5963735833333335,0.9399227250000001,5.347336250000001,-0.23640485,-7.329975666666666
605,1778427576680,2.5394166,-1.664975,0.7944366,5.374570683333332,-0.3968587833333333,-7.728234266666667
606,1778427576690,2.457922228571429,-1.756583342857143,0.6965127857142858,5.2360315,-0.23839016,-7.9368196
607,1778427576700,2.4464233,-1.8377292,0.646989,5.12123975,-0.16114116833333333,-8.068409933333333
608,1778427576710,2.4135451333333333,-1.9838760333333336,0.5908373333333333,4.97763565,-0.18399770333333335,-8.286132166666667
609,1778427576720,2.3784487285714286,-2.0711227142857145,0.5582991428571429,4.919559785714285,-0.25313819,-8.395447857142857
610,1778427576730,2.213239,-2.2845845,0.44892865,4.7418413,-0.5945246,-8.66772
611,1778427576740,2.1465278,-2.295012,0.4119142866666667,4.659680033333333,-0.6876815333333334,-8.651939333333333
612,1778427576750,1.9563134,-2.2690753999999997,0.29877758666666665,4.308330833333333,-1.0412706666666667,-8.508895333333333
613,1778427576760,1.8936296285714285,-2.1923142285714285,0.26913590285714284,3.9487855,-1.3133603,-8.276461
614,1778427576770,1.9043488999999998,-2.15207675,0.28651061,3.82615435,-1.36955985,-8.187579999999999
615,1778427576780,1.9956346333333332,-2.0421720000000003,0.3374790333333333,3.7035232,-1.4257593999999998,-8.098699
616,1778427576790,2.0867275,-1.97518645,0.3496037283333333,3.378746616666667,-1.5133169000000002,-7.921038666666667
617,1778427576800,2.155265,-1.9441814857142856,0.3359603528571428,3.2487340714285713,-1.5444418857142856,-7.890612085714286
618,1778427576810,2.223635916666667,-1.9069912999999998,0.18823252166666668,3.0697760333333335,-1.69815455,-7.9693482499999995
619,1778427576820,2.227142,-1.8855978,0.12140953,2.877328,-1.9053396333333332,-8.043339216666666
620,1778427576830,2.227142,-1.8855978,0.12140953,2.845563,-1.9407189,-8.055022
621,1778427576840,2.2078118,-1.8425464999999999,0.08237414357142857,2.3624558571428573,-2.9547989285714285,-8.117264357142856
622,1778427576850,2.1993356,-1.8057761000000003,0.10805508500000001,2.2186625,-3.5439348,-8.148942
623,1778427576860,2.1491700333333332,-1.7695850166666667,0.1840249641666667,2.0542889,-4.2223513666666666,-8.103229
624,1778427576870,2.1264045,-1.7516266,0.21495157,1.9289597,-4.6772423,-8.04143
625,1778427576880,2.0614413666666667,-1.7474394,0.18950292999999999,1.8747454000000001,-4.712672499999999,-7.980801500000001
626,1778427576890,1.981741633333333,-1.741300833333333,0.15574079333333332,1.7434857499999998,-4.68480185,-7.809683
627,1778427576900,1.7899927166666665,-1.7200494833333335,0.07529910583333334,1.60331765,-4.573268083333333,-7.603617750000001
628,1778427576910,1.43112,-1.6491815999999997,-0.042380523,1.2925909,-4.4269404,-7.2143188
629,1778427576920,1.1877623333333334,-1.6255521,-0.10081888716666666,1.0714068166666666,-4.322457066666666,-7.052566466666666
630,1778427576930,0.8672253833333333,-1.5974001166666667,-0.20392451,0.7181739166666666,-4.2034400666666665,-6.9072059999999995
631,1778427576940,0.6515827333333334,-1.6032846333333335,-0.3405889933333333,-0.09285152,-4.104556,-6.853908
632,1778427576950,0.29239510333333335,-1.6751181666666666,-0.5015333466666667,-1.0044661066666667,-3.902156133333333,-7.0593622
633,1778427576960,-0.27373549714285716,-2.0968471571428573,-0.35945478142857146,-3.1367274857142857,-2.871393857142857,-7.4830773
634,1778427576970,-0.81596226,-2.649179,-0.074272625,-4.27682,-2.1461222,-7.6665115
635,1778427576980,-1.2167173685714285,-3.009896885714286,0.20710267499999999,-4.721159214285714,-1.6900022428571428,-7.6513925714285715
636,1778427576990,-2.47475418,-3.54898754,1.0983201900000001,-5.4129383,-0.30213394,-7.079011599999999
637,1778427577000,-2.9147128,-3.5994173000000003,1.4022465000000002,-5.28871875,-0.03558290000000001,-6.727306
638,1778427577010,-3.1153038,-3.582709,1.5361263,-4.3198099,-0.06795876000000001,-5.6636370000000005
639,1778427577020,-4.022897100000001,-3.3705422833333336,1.97945495,-1.8887954,-0.68523806,-3.1505375
640,1778427577030,-4.08760428,-3.3402316,1.8946227999999998,-1.36907124,-0.79366666,-2.5290432199999997
641,1778427577040,-4.226335714285715,-3.2734140571428574,1.7040454857142857,-0.5022403475714287,-0.9409724757142858,-1.4339843885714285
642,1778427577050,-3.66997028,-3.15503772,1.20494836,0.2047314814,-0.5271461540000001,0.39752053600000004
643,1778427577060,-3.3154984000000005,-3.0710328,0.9827402,0.07696902,0.47708577,2.1158845
644,1778427577070,-2.8556545,-2.8803509999999997,0.8463298,-0.24678958000000004,1.181744295,3.0643799166666668
645,1778427577080,-2.5380546666666666,-2.7030540833333334,0.8467364083333333,-0.5826127166666667,1.8888718333333336,3.9257765
646,1778427577090,-2.0004826,-2.4694123,0.91237026,-0.8287914400000002,2.8533516,4.944038
647,1778427577100,-1.4912049333333333,-2.3434090666666667,0.8438297599999999,-0.7510333566666666,3.313154933333333,5.494707166666667
648,1778427577110,-1.159153,-2.2871456,0.7430922,-0.425895228,3.71616808,6.4262106
649,1778427577120,-0.7992743,-2.249236766666667,0.5783976166666666,-0.07119125,3.7549885333333335,7.374136
650,1778427577130,-0.26351131,-2.2045697,0.3559862266666666,0.09106983,3.6928839166666667,8.209087266666666
651,1778427577140,0.17119901666666668,-2.17604165,0.20697347,0.0795652,3.6980255,8.917411
652,1778427577150,0.5387103,-2.1353583333333335,0.135983545,-0.055334208333333336,3.695862,9.275021
653,1778427577160,0.9226758,-2.0828655,0.10854292,-0.41263947,3.535688,9.768957
654,1778427577170,1.15615284,-2.05593694,0.1323004,-0.6356053,3.2872186,9.931294
655,1778427577180,1.5791165,-1.9596875,0.21476863,-0.8164868399999999,2.9026789571428573,9.907536142857143
656,1778427577190,1.8790731,-1.9812740999999998,0.2736745,-1.0587822,2.3602307,9.720393
657,1778427577200,1.9394831666666665,-2.009161966666667,0.30741630000000003,-1.1100185500000002,2.2448535,9.663888
658,1778427577210,2.0919514,-2.1149404,0.4772839199999999,-1.2484049,1.4873805333333332,9.456320833333335
659,1778427577220,2.1345961333333334,-2.217609,0.5796069899999999,-1.2244794,1.2014192,9.38289
660,1778427577230,2.124758,-2.2678154,0.61509687,-1.1348349,0.95737857,9.279654
661,1778427577240,2.0559735,-2.3178182,0.6227802,-1.0392345,0.871552,9.252929
662,1778427577250,2.02805736,-2.35330808,0.60371814,-1.0098213360000001,0.8870374240000001,9.275561
663,1778427577260,2.0051782,-2.4348982666666665,0.5401128333333333,-1.0216466766666668,0.9466120566666666,9.408749833333333
664,1778427577270,2.0343058333333333,-2.49523715,0.4789100583333334,-1.1556043166666667,1.03205683,9.540213166666668
665,1778427577280,2.084207,-2.526306,0.43032995,-1.6479616666666665,1.3977615333333333,9.785094333333333
666,1778427577290,2.110123166666667,-2.497340833333334,0.4125952083333333,-1.918575,1.6493361999999998,9.826837
667,1778427577300,2.1129485999999997,-2.4996783333333332,0.39351890666666667,-2.2094232333333332,1.8978819500000002,9.8260985
668,1778427577310,2.08067,-2.5375261,0.41575596,-2.8640418000000003,2.4182627,9.828822
669,1778427577320,2.0098529833333334,-2.55200875,0.505568125,-3.3333135833333336,2.6102527166666665,9.794689916666668
670,1778427577330,1.9948114000000001,-2.584785,0.5399705,-3.6063957,2.6013696,9.7724695
671,1778427577340,2.0389703999999997,-2.6290964999999997,0.5822494166666666,-3.6687548666666667,2.221487766666667,9.74612575
672,1778427577350,2.1317908666666665,-2.6247466,0.6546926666666667,-3.6226854,1.8714365666666668,9.719222333333333
673,1778427577360,2.292897866666667,-2.5461039,0.7196964666666666,-3.0553443833333334,0.11835515,9.548943
674,1778427577370,2.5082822285714284,-2.3837628285714283,0.7497824057142858,-2.797871957142857,-0.47030081428571424,9.456258714285713
675,1778427577380,2.78687,-2.0739014,0.7622396,-2.3240369000000003,-1.1102781099999999,9.055436199999999
676,1778427577390,2.873077142857143,-1.9660902571428571,0.7396947257142857,-2.1384646857142857,-1.1358820857142857,8.734107714285715
677,1778427577400,3.0270059600000003,-1.90231834,0.6679414079999999,-2.13815044,-0.629771518,8.2847684
678,1778427577410,3.139014433333333,-1.9753998,0.5619636666666666,-2.3544782666666664,0.13148875666666665,7.902712866666666
679,1778427577420,3.2060204166666666,-1.9802679833333334,0.4964517483333333,-2.7097219,0.7669413,7.7317214000000005
680,1778427577430,3.401377483333333,-1.7629586666666668,0.576375075,-3.6222782,1.4897476,7.6292486
681,1778427577440,3.704179742857143,-1.4776385142857145,0.7515421,-3.8531416714285713,1.2849332199999999,7.353835685714286
682,1778427577450,4.205855266666666,-1.2254780833333334,0.9189967166666667,-3.9585595,0.89904094,6.7008862
683,1778427577460,4.621275666666667,-1.0537404,1.0484249833333334,-3.9227475,0.69295027,6.09093735
684,1778427577470,4.7602167,-0.9837159,1.0971372,-3.816228,0.30726522,4.6954155
685,1778427577480,4.562888,-0.98011816,1.1262852,-3.787084666666667,0.21563543666666665,3.5771505
686,1778427577490,4.428734,-0.9478602,1.2064118,-3.8296669,0.21746802,3.061351
687,1778427577500,4.445381,-0.81596226,1.4307543,-3.8186277,0.21539544285714288,3.0704267571428576
688,1778427577510,4.788775,-0.7626664466666666,1.5950728333333333,-3.4314846333333335,-0.005446882666666662,3.3380731000000003
689,1778427577520,5.4705194285714285,-0.4383008171428572,1.7834577285714286,-2.8547696428571427,-0.3896447591428571,3.5195438571428572
690,1778427577530,6.33787,0.11238461,1.9195632,-1.8944458,-0.9664397000000001,3.323717933333333
691,1778427577540,6.33787,0.11238461,1.9195632,-1.4489723,-1.2315043,3.2195654
692,1778427577550,6.882091457142857,0.2994338435714286,1.522379742857143,-0.7023204714285715,-1.7825920142857146,1.0616402342857143
693,1778427577560,6.806616299999999,0.027562585,1.0229865,-0.6806566,-1.712408,-3.6102135
694,1778427577570,5.906167716666666,-0.4417128008333333,1.14814625,-1.03694375,-1.21722537,-4.44641175
695,1778427577580,4.5228252,-1.1989725,1.364104,-1.9529362333333333,0.8079202100000001,-5.813553833333334
696,1778427577590,3.5957499142857143,-1.4328449285714286,1.4981275285714286,-2.3154193,3.016147057142857,-5.756510628571428
697,1778427577600,3.2092118,-1.3861175,1.5106369,-2.3169609666666666,4.556647633333333,-5.4803775
698,1778427577610,3.0799969,-1.3916056499999998,1.51377735,-2.10947045,5.5714729,-5.161658500000001
699,1778427577620,2.9218169285714284,-1.402669014285714,1.5504128,-0.86160357,5.467003785714285,-4.655949357142857
700,1778427577630,2.964929,-1.2735499,1.6588773,-0.17821993,4.8983755,-4.5959973
701,1778427577640,3.0292708285714283,-1.1637003428571426,1.628614214285714,0.5892449814285714,3.8815469285714284,-4.846016185714285
702,1778427577650,3.0284083,-1.0933565,1.5272232,1.7073684,2.8893925999999994,-5.286733
703,1778427577660,2.9685616571428572,-1.0625184285714286,1.450650842857143,2.144791542857143,2.4539330285714285,-5.594783714285714
704,1778427577670,2.8504712,-1.0425405333333335,1.3223738999999999,2.7828729666666665,1.9002490333333333,-6.103103999999999
705,1778427577680,2.722232,-1.1001252,1.0988446,3.1957414000000006,1.6632334,-6.4989953
706,1778427577690,2.683362114285714,-1.2093475999999999,0.9710671142857142,3.323826914285714,1.737518957142857,-6.723815614285714
707,1778427577700,2.6627774,-1.2690984,0.9162729400000001,3.409697,1.9159788000000002,-6.910566
708,1778427577710,2.6770058166666666,-1.3693074833333334,0.9024510733333333,3.4886005,2.0443878,-7.0301935
709,1778427577720,2.7421546714285716,-1.6115225857142856,0.8778474142857142,3.6536068,2.132116057142857,-7.201075914285714
710,1778427577730,2.803517,-1.8621819000000002,0.8288289,4.152815,2.0861049,-7.6767435
711,1778427577740,2.7898752857142854,-2.1080497857142855,0.6974274542857143,4.4346855000000005,1.8985691857142857,-7.963588571428572
712,1778427577750,2.7069872,-2.3906534142857145,0.5076254299999999,4.841565,1.4804319,-8.427039
713,1778427577760,2.552588,-2.5210617,0.35636224999999994,4.993009166666666,1.0215194,-8.6692215
714,1778427577770,2.4093275333333333,-2.5463884333333335,0.2722923033333333,5.028032,0.3486513500000001,-8.834486
715,1778427577780,2.2061653,-2.5563076,0.17354671999999996,4.89975,-0.21365011999999997,-8.769276
716,1778427577790,2.166128157142857,-2.5128208,0.16649055714285715,4.8019680000000005,-0.47610398857142855,-8.705527714285713
717,1778427577800,2.1939288666666665,-2.462176133333333,0.15555786333333332,4.6877799,-0.6934338666666666,-8.678002333333334
718,1778427577810,2.262876,-2.3753824,0.13604453,4.385183585714286,-1.173079457142857,-8.677275285714286
719,1778427577820,2.3017807,-2.3368435,0.08067544,4.0139956,-1.5180001,-8.839373
720,1778427577830,2.307834985714286,-2.324429857142857,0.034897507142857144,3.700359914285714,-1.6602881285714286,-8.956134714285714
721,1778427577840,2.2938533,-2.3056831,-0.035672814,3.4784704333333334,-1.7364354000000002,-9.000539000000002
722,1778427577850,2.280742883333333,-2.2832225166666666,-0.057422052333333334,3.1041371666666664,-1.8455002833333332,-9.007539333333332
723,1778427577860,2.2781208,-2.2787304,-0.0617719,3.0462322,-1.86207,-9.006445
724,1778427577870,2.2943412,-2.2242557333333335,-0.05603985733333333,2.6179138666666666,-2.1217896,-8.888853
725,1778427577880,2.310135,-2.12488,-0.05713748,2.1649065,-2.5773933,-8.708036
726,1778427577890,2.2838120833333337,-2.1156825,-0.07390675166666666,2.1030563333333334,-2.6835310499999996,-8.641477666666667
727,1778427577900,2.1369625428571433,-2.0662792857142858,-0.15951279714285713,1.9740983,-2.924386485714286,-8.404938142857143
728,1778427577910,2.0126176,-2.0190814,-0.23812364,1.9074267,-3.0201178,-8.297077
729,1778427577920,1.8266745714285715,-1.9500528857142856,-0.34423610857142856,1.6858135285714286,-3.152064657142857,-8.094313
730,1778427577930,1.6135088,-1.8898054,-0.42722007999999995,1.3972779166666667,-3.192254466666667,-7.908566499999999
731,1778427577940,1.4593360285714285,-1.8503519,-0.4246241057142857,1.1554952714285716,-3.1466759142857144,-7.771973142857143
732,1778427577950,1.0988345,-1.7544622166666668,-0.41061338833333333,0.7050403,-2.935563866666667,-7.5338009999999995
733,1778427577960,1.012803,-1.7479068000000002,-0.41843903,0.16362462142857145,-2.557583671428571,-7.499548971428572
734,1778427577970,0.46844196899999996,-1.9758165833333334,-0.6953759316666667,-0.4457788999999999,-2.1389446,-7.68102
735,1778427577980,0.018110814,-2.2467165,-0.85407424,-1.6336064,-1.7644843000000001,-8.089688
736,1778427577990,0.018110814,-2.2467165,-0.85407424,-1.6336064,-1.7644843,-8.089688
737,1778427578000,-1.1319054476666668,-2.7989335833333335,-0.40440369000000004,-3.8530835666666667,-1.04620855,-8.186281333333334
738,1778427578010,-1.5774701,-3.0522512999999996,-0.10714039,-4.7719264,-0.6805039,-8.014093
739,1778427578020,-2.4394107,-3.4558725,0.80827886,-4.8341330000000005,-0.5350161666666667,-7.610311666666667
740,1778427578030,-3.3981252000000004,-3.4287364,1.3708726,-4.0559926,-0.7292204,-6.5732155
741,1778427578040,-3.7830257,-3.4223949999999994,1.6286317,-3.610409971428571,-0.9106473714285714,-6.1559072142857145
742,1778427578050,-4.0260479,-3.4258096666666664,1.7725831,-2.078723533333333,-1.4220943333333331,-4.650211666666666
743,1778427578060,-4.152376185714286,-3.3558402571428574,1.8280248285714287,-0.8757626214285714,-1.6987944857142858,-3.3841934285714284
744,1778427578070,-4.0459676,-3.2379327,1.7411382,0.7872526,-1.5587754,-1.281748
745,1778427578080,-3.7191803,-3.0896926,1.3621526,1.4465289,-1.010982,0.08903361
746,1778427578090,-3.7191803,-3.0896926,1.3621526,1.4528157166666666,-0.8783478800000001,0.295633325
747,1778427578100,-3.0443500142857145,-2.886736342857143,0.8052386,1.2313516285714285,0.2959423657142857,1.9419406428571429
748,1778427578110,-2.7200366285714286,-2.775597457142857,0.6518672742857143,0.8948085142857144,0.8869763285714286,2.6248880285714287
749,1778427578120,-2.1582355,-2.5804553,0.63265884,0.5105306233333333,1.4524848333333333,3.2127949333333334
750,1778427578130,-2.0425580666666665,-2.5525065333333337,0.6562374599999999,-0.13922637333333332,2.6154704,4.416250333333334
751,1778427578140,-1.7621251333333332,-2.4875231,0.7035979666666666,-0.34223725999999993,3.3024902,5.140431
752,1778427578150,-1.2660581714285715,-2.438644057142857,0.6659709285714286,-0.17095500742857142,4.110970257142857,6.438934214285714
753,1778427578160,-0.9709306333333334,-2.4173159,0.6203207599999999,0.021838432333333335,4.354349,7.109606133333333
754,1778427578170,-0.613907775,-2.3780961,0.51024318,0.50309841,4.039295466666666,7.896706233333334
755,1778427578180,0.038861155714285715,-2.337479542857143,0.2568181171428571,1.0150398571428572,3.5989345571428575,8.830886000000001
756,1778427578190,0.2861549,-2.3371078666666665,0.14254897066666666,1.1447104666666668,3.37098345,9.355197500000001
757,1778427578200,0.4486063042857143,-2.334657085714286,0.07423778514285714,1.1399617142857144,3.289072957142857,9.547409142857143
758,1778427578210,1.05475665,-2.3012115333333334,-0.10411176,0.8840238,2.920037766666667,10.376411333333332
759,1778427578220,1.7663225999999999,-2.2813525,-0.13769096,0.48909943333333333,2.6992099,10.685305999999999
760,1778427578230,2.2777548,-2.2636077,-0.042380523,-0.02646355,2.4115432,10.699392571428572
761,1778427578240,2.2777548,-2.2636077,-0.042380523,-0.16661349,2.3312144,10.662348
762,1778427578250,2.519476233333333,-2.2517777666666667,0.0787850835,-0.4651229766666667,2.2000312666666666,10.229803666666667
763,1778427578260,2.6507645,-2.2523265,0.27672347,-0.706618375,2.0480021,9.744216499999999
764,1778427578270,2.5316519166666667,-2.2606604166666666,0.4072188783333333,-0.76564325,1.8991037000000002,9.491700499999999
765,1778427578280,2.396498714285714,-2.280934628571429,0.44648946857142857,-0.7397141885714286,1.7496926285714287,9.384242714285715
766,1778427578290,2.24563915,-2.35106205,0.43631611833333334,-0.7543167749999999,1.6879225333333334,9.487093166666666
767,1778427578300,2.1641405,-2.440914783333333,0.39926110499999995,-0.8347474,1.7227927,9.588904
768,1778427578310,2.069572,-2.5267937,0.35764283,-0.926479,1.7662150666666667,9.654012
769,1778427578320,2.0770114666666664,-2.5558604333333332,0.3393084233333334,-1.3195708000000002,1.8891008000000002,9.859976000000001
770,1778427578330,2.0882723,-2.564275566666667,0.3320519066666667,-1.5570446333333334,1.9123136666666667,9.890214
771,1778427578340,2.10191135,-2.5504740166666666,0.33789575499999996,-1.8223636999999997,1.9226984,9.874942
772,1778427578350,2.0326491,-2.5354832666666667,0.3649806466666667,-2.217491766666667,1.8210911,9.687151666666667
773,1778427578360,1.9531628,-2.561125,0.41002396,-2.45094412,1.6553226200000002,9.626167200000001
774,1778427578370,1.9252139666666668,-2.5896329166666665,0.45087996,-2.602744,1.4694363,9.629832
775,1778427578380,1.9339543,-2.6215554500000002,0.47731444,-2.6372579999999997,1.2555317,9.677683333333333
776,1778427578390,1.999402342857143,-2.7064732857142855,0.5044109542857143,-2.652158742857143,1.0639309142857143,9.725956428571427
777,1778427578400,2.007922,-2.7162561,0.50588316,-2.6381960999999996,0.5235333142857143,9.900489285714286
778,1778427578410,2.3738376,-2.7489003333333333,0.57968831,-2.61618315,0.22235494349999999,9.957409
779,1778427578420,2.7794914,-2.663021,0.66198987,-2.55667475,-0.1090648955,9.80125675
780,1778427578430,2.941129814285714,-2.5759428285714283,0.7207650685714285,-2.5277822428571426,-0.1263618357142857,9.461757142857143
781,1778427578440,3.2277493,-2.379468,0.8644407,-2.461612485714286,-0.05011276571428571,8.772461000000002
782,1778427578450,3.2803133,-2.3467224,0.91395575,-2.29552975,0.058006741333333334,8.168566
783,1778427578460,3.2908976,-2.3526808714285714,0.9133808428571429,-2.2653937,0.07513642,8.070293
784,1778427578470,3.30501,-2.3606255,0.9126143000000001,-2.016378828571429,0.03337942011428571,7.968278671428571
785,1778427578480,3.5308666166666662,-2.04966225,0.9377478200000001,-1.7528014,0.008323038999999999,7.92101335
786,1778427578490,4.3864756,-1.2259251,0.6925403999999998,-1.2498302857142858,0.16875153371428572,7.748062057142858
787,1778427578500,4.3864756,-1.2259251,0.6925404,-1.1142182,0.2938262,7.5469346
788,1778427578510,4.925269914285714,-0.6681399971428572,0.18814687142857142,-1.5670221000000002,0.6385069,6.3213863
789,1778427578520,5.083119028571429,-0.6773827142857144,0.17680473714285716,-2.615485,0.9515098471428571,5.012585671428572
790,1778427578530,5.097085833333334,-0.8090309833333333,0.42119328333333333,-3.6791141999999994,1.3743449666666665,3.7730601166666666
791,1778427578540,5.144924083333334,-0.9934929166666667,0.8569809199999999,-4.168646183333333,1.8081356333333332,3.188182083333333
792,1778427578550,5.1603447000000005,-1.0064263142857144,1.0237007857142857,-4.244204428571429,1.9721129285714285,3.047453957142857
793,1778427578560,5.1623135,-0.998168,1.0584763,-4.2369614,2.0868683,2.9912543
794,1778427578570,5.570499157142857,-0.21951628714285715,1.802396042857143,-2.9149181,1.5548483857142856,3.1787245285714287
795,1778427578580,6.122796349999999,0.07555317500000001,1.92901495,-1.5007431999999998,0.43081272,3.004999
796,1778427578590,6.626454016666667,0.2908401166666667,1.8871121333333332,-1.1855876366666667,0.184914,2.684142
797,1778427578600,7.803739028571429,0.41418794000000003,1.1540829714285716,0.61769386,-1.460578842857143,-0.2763947428571429
798,1778427578610,7.360338,0.07543124000000001,1.0168276250000001,0.8459720150000001,-2.1368066000000003,-3.40083945
799,1778427578620,5.326042,-0.85206187,1.0481099,0.4253367357142857,-1.7917113285714288,-6.206063557142857
800,1778427578630,4.617749133333334,-1.21651409,1.0668508333333333,0.08592837666666668,-0.7294239866666667,-6.6167396
801,1778427578640,4.167107514285714,-1.410997,1.0676232285714284,-0.10749046428571428,0.06750060285714284,-6.647697385714286
802,1778427578650,3.4116625500000004,-1.4466697499999999,0.9578302299999999,-0.5729406966666667,2.9792916,-6.076072833333334
803,1778427578660,3.1796279857142857,-1.397128557142857,0.8627071285714285,-0.7061165928571428,3.9240893142857147,-5.802237957142857
804,1778427578670,3.0304816999999997,-1.34806645,0.7780637,-0.8544986666666666,5.100673966666666,-5.367112933333334
805,1778427578680,3.0672783142857143,-1.2712676,0.8655818285714286,-0.6949682857142856,5.367738342857143,-5.144925171428572
806,1778427578690,3.1471348,-1.1875693,1.0665866,0.048760142857142856,4.4415795,-5.431486714285714
807,1778427578700,3.1069409714285716,-1.197134414285714,1.1105438857142858,0.6317655514285713,3.660610071428571,-5.7415661714285715
808,1778427578710,3.010471857142857,-1.2232508857142856,1.1093330285714287,1.7981254714285713,2.1068305285714284,-6.491534342857142
809,1778427578720,2.8368526333333333,-1.2740173833333335,1.0374182,2.275473,1.49516905,-6.8371095
810,1778427578730,2.7638024571428574,-1.3149983285714286,0.9782451885714286,2.804853214285714,0.86430892,-7.2456472
811,1778427578740,2.5536857,-1.5126492,0.7976075400000001,3.26874,0.5856671,-7.72546
812,1778427578750,2.430101233333333,-1.522162,0.7605728733333333,3.359453466666667,0.7773769666666667,-7.8459024
813,1778427578760,2.307289133333333,-1.5491554666666667,0.6959958866666667,3.477808533333333,0.9964230333333334,-7.969246533333333
814,1778427578770,2.2970243,-1.7431506,0.5573496,3.5860407857142858,1.1110766,-8.093222857142857
815,1778427578780,2.2970243,-1.7431506,0.5573496,3.6398406,1.1508701,-8.162534
816,1778427578790,2.3397603833333336,-2.04804635,0.3756824833333334,3.6740490500000003,1.0020225833333334,-8.401077
817,1778427578800,2.3011359571428573,-2.1828974285714287,0.28381447428571427,3.6724564857142856,0.7204282571428572,-8.651161
818,1778427578810,2.0705476,-2.2347646,0.18019344,3.5234706,0.029321533,-8.765458
819,1778427578820,2.005178,-2.1799530000000003,0.19001979428571428,3.3899530285714286,-0.3370885334285714,-8.645575857142857
820,1778427578830,1.9561508,-2.1388443,0.19738956,3.336546,-0.48365256,-8.597623
821,1778427578840,1.9589559,-2.0236547,0.22623271,3.0896037,-0.8335256000000001,-8.326246
822,1778427578850,1.9795319571428571,-2.014533971428571,0.22735647142857143,3.0673071285714286,-0.8583529142857144,-8.301025999999998
823,1778427578860,2.0963520166666663,-1.9981858,0.2220251483333333,2.968779683333333,-1.2057461500000002,-8.233216333333333
824,1778427578870,2.1378686,-2.0568273,0.18513274,2.9213104,-1.6091717,-8.245612
825,1778427578880,2.141396685714286,-2.0587612714285717,0.17805045142857143,2.918561514285714,-1.7877189285714288,-8.262541714285714
826,1778427578890,2.1399332285714285,-2.018218757142857,0.15904237142857142,2.9116893,-2.234087,-8.304866
827,1778427578900,2.1156286714285715,-2.0024949285714286,0.11863060857142858,2.9188232,-3.1036317142857146,-8.422086714285715
828,1778427578910,2.0525934857142856,-1.997398742857143,-0.0024740107142857126,2.7773641857142857,-4.087539371428572,-8.514937999999999
829,1778427578920,2.0004215,-1.9342593,-0.030062728,2.344959,-5.105917,-8.535467
830,1778427578930,1.9399042142857144,-1.9013566142857141,-0.016324994714285713,2.0994129714285714,-5.392892857142857,-8.417112428571428
831,1778427578940,1.8845003,-1.8861467,-0.034880083,1.704314,-5.585752,-8.176737
832,1778427578950,1.8762069999999997,-1.8480958,-0.078114316,1.3618367857142855,-5.321269171428571,-7.838950171428571
833,1778427578960,1.8453516,-1.8173215333333335,-0.17787623866666666,1.1560625,-5.0590334,-7.632914
834,1778427578970,1.7003430666666668,-1.8016803166666666,-0.4006331333333333,0.8363763333333334,-4.608138066666666,-7.27772125
835,1778427578980,1.6370873333333333,-1.7928281833333333,-0.4659418166666667,0.6840672600000001,-4.4304526,-7.155904583333334
836,1778427578990,1.2956649666666666,-1.6447910666666667,-0.6605467,-0.1944587666666667,-3.7075447333333336,-6.6565476
837,1778427579000,1.0669525,-1.4497187,-0.6895523999999998,-1.13402041,-3.1673617666666662,-6.3529984
838,1778427579010,0.8508524833333334,-1.4517818166666665,-0.70174825,-1.7371480000000001,-2.7881417,-6.2712955
839,1778427579020,0.6135724,-1.5430778,-0.6934551,-2.5045474999999997,-2.2363267,-6.338745083333333
840,1778427579030,0.6135724,-1.5430778,-0.6934551,-3.1658854499999998,-1.81350615,-6.49342115
841,1778427579040,-0.03594286571428572,-2.198421057142857,-0.5085836714285714,-4.465141428571428,-0.9885763142857142,-6.954439014285714
842,1778427579050,-0.43215933333333334,-2.5275358000000003,-0.32537468166666667,-5.6480855000000005,-0.22164228000000005,-7.456730383333333
843,1778427579060,-1.1042107,-3.0046875000000006,0.08299265,-6.56222,0.31490102,-7.8998623
844,1778427579070,-1.7842301166666665,-3.3334160833333333,0.6697138583333334,-6.69941,0.43096542,-8.010200383333332
845,1778427579080,-2.4187081999999998,-3.5012714999999996,1.1600067,-6.325127800000001,0.32268956,-7.7753987
846,1778427579090,-3.8413825,-3.6636896,2.0499976,-4.914716266666667,-0.24225898,-6.725295316666667
847,1778427579100,-4.304315916666666,-3.6634355166666666,2.28303985,-2.505311,-1.1876748,-4.508033
848,1778427579110,-4.39172,-3.635639,2.3001952,-1.1122329,-1.3852897000000002,-3.0462322
849,1778427579120,-4.2418125,-3.559364,2.1346367,0.27580565,-1.2592987,-1.4265231
850,1778427579130,-4.154175250000001,-3.524524566666667,2.004090466666667,0.62033364,-1.0661889500000001,-0.7366271465
851,1778427579140,-3.5709094166666664,-3.3073879,1.1527197166666667,0.8438848816666668,-0.26386834833333334,1.0931688178333332
852,1778427579150,-3.2127179666666663,-3.192127316666667,0.9384389166666667,0.43139811166666675,0.5037093083333334,2.0751602166666667
853,1778427579160,-2.9246829,-3.114755,0.8940156,-0.21930063,1.5454891,3.1665728
854,1778427579170,-2.77375945,-3.06597165,0.95029935,-0.5183446033333333,2.4081581,4.332587466666667
855,1778427579180,-2.288304,-2.9557211,1.0643305,-0.57742035,3.0935743,5.410128
856,1778427579190,-1.88296352,-2.8995716600000003,0.9681297000000001,-0.39990295,3.68745742,6.49661304
857,1778427579200,-1.5238781714285714,-2.847413557142857,0.8123644714285714,-0.2681698514285714,4.1791472857142855,7.390269728571428
858,1778427579210,-0.813901148,-2.7415013999999998,0.41785364,-0.3378085,5.1385984,9.352194
859,1778427579220,-0.3408633933333333,-2.6644948333333334,0.22740149166666668,-0.49599713333333334,5.2673894,9.8571765
860,1778427579230,0.4410535914285714,-2.5364022285714287,0.05597016685714285,-0.9355619442857143,5.111284085714286,10.759453285714287
861,1778427579240,0.9094229500000001,-2.460062166666667,-0.023802204500000004,-1.3321444,4.635551,11.242975
862,1778427579250,1.4916114,-2.353552,-0.05433244,-1.6844609000000001,4.114788,11.321624
863,1778427579260,1.8388878166666667,-2.3163545833333337,0.041913012500000006,-2.1557434,3.3209689,11.040777999999998
864,1778427579270,2.09621986,-2.32067194,0.2859557166,-2.18280476,3.21718292,10.989495999999999
865,1778427579280,2.2705593,-2.3406246,0.6094258,-2.1525364,2.006387,10.580186
866,1778427579290,2.3332458,-2.3570888,0.7929731,-1.6898059999999997,1.2379184,10.402424
867,1778427579300,2.4008310500000003,-2.4133929666666667,0.8479559333333334,-1.2356277,0.69043046,10.357373
868,1778427579310,2.6496668,-2.5125856,0.82754827,-0.6104071,0.18707748,10.318125
869,1778427579320,2.7675395,-2.4754493,0.7112610299999998,-0.3623958,0.18051068,10.102947
870,1778427579330,2.7283213,-2.455239,0.5769326128571428,-0.48779771142857137,0.5121668628571429,9.753096142857144
871,1778427579340,2.5401281166666667,-2.4205272833333336,0.3408532166666667,-0.77381355,1.002888,9.28897
872,1778427579350,2.3576987,-2.3922737,0.2742843,-1.0832167833333333,1.2310462,9.127192666666666
873,1778427579360,2.3080819666666668,-2.391359,0.270666205,-1.3451507166666667,1.3864605,9.025661666666666
874,1778427579370,1.9680417,-2.424592633333333,0.2752599633333333,-2.3588051333333335,1.6399695833333334,8.9551575
875,1778427579380,1.7806352571428572,-2.502863842857143,0.3413526657142857,-2.8064239,1.590562257142857,9.067857857142858
876,1778427579390,1.5897268999999998,-2.592895,0.45197758000000005,-3.0468430000000004,1.4523321000000002,9.222996
877,1778427579400,1.5537695666666667,-2.657593933333333,0.5503572800000001,-3.068019666666667,1.2574661,9.369501999999999
878,1778427579410,1.6297903,-2.7127192,0.56417924,-2.97247025,0.8470919333333334,9.630977499999998
879,1778427579420,1.7048758333333334,-2.7365824,0.5566178333333333,-2.8852693499999997,0.63514714,9.710619
880,1778427579430,1.9272872666666665,-2.7765644999999997,0.5031899383333333,-2.6999226000000003,0.08190684333333333,9.731541666666667
881,1778427579440,2.1148794,-2.791931133333333,0.46415310000000004,-2.6546676,-0.35476,9.689086
882,1778427579450,2.331102885714286,-2.6779871714285717,0.5061532285714285,-2.701595157142857,-0.47874382857142855,9.476068857142858
883,1778427579460,2.4351420666666668,-2.5272104,0.59796171,-2.7668378333333337,-0.6299548,9.117266166666665
884,1778427579470,2.4168484,-2.4606924,0.64704996,-2.761111,-0.5833763,8.973457
885,1778427579480,2.4636803,-2.288731,0.73595756,-2.6787968,-0.3791946,8.773552
886,1778427579490,2.7248743833333333,-2.2841068333333334,0.7511007183333334,-2.598468,-0.35246924,8.66833
887,1778427579500,2.9782835,-2.2923592999999998,0.752604875,-2.566703,-0.406607185,8.576777
888,1778427579510,3.433736966666667,-2.2980304333333335,0.76825615,-2.416761033333333,-0.7139996883333334,8.249786416666668
889,1778427579520,3.8372056000000003,-2.1464058666666666,0.8150373583333334,-2.2418754,-1.120785,8.0432625
890,1778427579530,4.334948,-1.5074661,1.0005461,-1.8468493166666666,-1.5114842833333333,7.531204916666667
891,1778427579540,4.669898000000001,-1.1428977428571427,0.9713632428571428,-1.4691309,-1.5438092,6.7508245
892,1778427579550,5.1326876666666665,-0.8066222666666668,0.7738256166666666,-1.4933873,-1.3018811283333334,5.653608816666666
893,1778427579560,5.400132,-0.6794299,0.4985047,-1.8034269,-0.9547823699999999,4.228562
894,1778427579570,5.265725285714287,-0.6968786642857143,0.49197122142857147,-2.1180006857142857,-0.6883796742857143,3.732910285714286
895,1778427579580,4.771559,-0.7153873000000001,0.6890239233333334,-3.3698889,0.5684610066666668,2.3616049333333335
896,1778427579590,4.6815945,-0.6885869499999999,0.9058861583333333,-3.80546135,1.28251155,2.2686262
897,1778427579600,4.8509741166666664,-0.6182372783333333,1.1577708166666667,-3.9639046,1.8697058,2.3168592
898,1778427579610,5.1754847,-0.47813767,1.3719094,-3.7955675714285713,2.123913114285714,2.3108377714285715
899,1778427579620,5.39068035,-0.370997265,1.4175218,-3.5608863,2.1390975,2.18628665
900,1778427579630,6.026144333333334,-0.025956800000000013,1.5944833333333335,-2.2498167,0.9989174,0.61208695
901,1778427579640,6.4034835,0.11144959,1.6877611666666665,-1.3063099083333334,-0.09140071166666668,-1.0843621833333332
902,1778427579650,6.2837205,-0.14092286,1.5478952,-0.63499445,-0.9149234,-2.6836836
903,1778427579660,5.790704000000001,-0.4619172,1.4672197,-0.27259862,-1.2609786,-3.9907827
904,1778427579670,5.194501857142858,-0.6896308428571428,1.4572017714285714,-0.069791354,-1.042747,-4.970763
905,1778427579680,4.084161033333333,-0.9219237133333333,1.3607907333333333,-0.021685716000000004,0.075289145,-5.2650476
906,1778427579690,3.8310163,-0.92688334,1.2897704,-0.030085110999999998,1.1239411908333332,-5.224323266666667
907,1778427579700,3.5180507833333334,-0.96361315,1.0725930499999998,-0.08844819500000001,2.77559355,-5.054044566666667
908,1778427579710,3.4170287,-0.9874967,0.9885943,-0.11835514,3.5631768999999998,-4.937929
909,1778427579720,3.4666759166666665,-0.9919074833333333,1.03327165,-0.031205032666666663,3.6415713000000003,-4.9528954
910,1778427579730,3.5656347,-1.0346335,1.1485426,0.62949663,3.1152601,-5.393024
911,1778427579740,3.5523417,-1.0867097,1.165068,1.2429581,2.5103507,-5.8756075
912,1778427579750,3.4169169500000005,-1.1366617833333332,1.0710584166666666,1.9570340166666667,1.80556495,-6.539159583333333
913,1778427579760,3.1589648999999995,-1.2181809,0.90102816,2.4975226,1.2495248,-7.1365857
914,1778427579770,3.04715955,-1.27790995,0.8250786099999999,2.6466501,1.1265882,-7.3404622
915,1778427579780,2.786565,-1.4728909000000001,0.6530869,2.873917433333333,1.0410671,-7.698327283333334
916,1778427579790,2.6661921428571427,-1.513973414285714,0.5931356714285715,2.9193904285714285,1.1807589142857142,-7.818529542857143
917,1778427579800,2.5698045,-1.5900318333333334,0.5210466666666668,2.989090883333333,1.3630949,-7.925060183333334
918,1778427579810,2.569662,-1.8096179,0.43563515,3.1019738,1.4338534,-8.076249
919,1778427579820,2.587468,-1.9263725666666665,0.38258328333333336,3.1974213,1.2409728,-8.262869
920,1778427579830,2.6087701666666665,-2.173226233333333,0.28928516666666665,3.2619439666666667,0.8780169666666667,-8.514469
921,1778427579840,2.5501284500000003,-2.3123503166666666,0.23896719333333336,3.281568083333333,0.2744057583333333,-8.832042166666666
922,1778427579850,2.3655851333333335,-2.4647574666666667,0.17616880999999998,3.1989740333333336,-0.305967125,-8.975315833333333
923,1778427579860,2.289402,-2.481547,0.17690057,3.1181617,-0.6072,-8.96628
924,1778427579870,2.229185,-2.453192,0.20916869500000002,3.0993521333333334,-0.6559674216666667,-8.943092499999999
925,1778427579880,2.2007584666666666,-2.4034126,0.23216800666666668,2.9762372999999998,-0.9960921099999999,-8.684289166666666
926,1778427579890,2.2226298,-2.3138545,0.22233004999999997,2.9573514,-1.052368,-8.535772
927,1778427579900,2.2878774666666666,-2.254501583333333,0.1227307375,2.9185359,-0.9888635833333334,-8.475831166666667
928,1778427579910,2.3776591666666667,-2.209854583333333,-0.024229055833333332,2.8159869333333334,-0.9911289000000001,-8.529715000000001
929,1778427579920,2.4513320666666667,-2.1937257,-0.12813756166666668,2.602515,-1.223614,-8.704549333333334
930,1778427579930,2.4841084,-2.2034822,-0.15202107,2.4037547,-1.8451185,-8.923061
931,1778427579940,2.4952370833333335,-2.2029639,-0.11656167833333332,2.376164016666667,-2.5211427166666667,-9.038107333333334
932,1778427579950,2.4806325,-2.2096412,-0.06415008,2.3868542,-4.010992033333333,-9.236384333333334
933,1778427579960,2.4322152,-2.180859,-0.07713865,2.379931,-4.6237917,-9.309587
934,1778427579970,2.38730395,-2.1667728,-0.10799410999999999,2.257757983333333,-4.8911725666666666,-9.303808666666667
935,1778427579980,2.2174466,-2.1286,-0.23031832,1.9068159000000002,-5.2916203,-9.216887
936,1778427579990,2.1463143,-2.1262217,-0.27477212999999995,1.8434131666666669,-5.272378,-9.180438833333334
937,1778427580000,1.856714,-2.0405255666666666,-0.41417049666666667,0.9439395,-4.7919326,-8.561276
938,1778427580010,1.7286984,-1.9579191,-0.44612356999999997,0.5449427,-4.473468,-8.218072
939,1778427580020,1.6408579,-1.9030683499999999,-0.451489745,-0.44264822499999995,-3.5871789,-7.416820166666667
940,1778427580030,1.4067690666666666,-1.7844436000000001,-0.4313971366666667,-0.8080219999999999,-3.2345314,-7.157965999999999
941,1778427580040,1.2634070666666666,-1.7506306,-0.40508462,-1.0709994666666667,-2.958114933333333,-6.989978266666667
942,1778427580050,0.9376156999999999,-1.7593099,-0.4042309,-1.756543,-2.3028092,-6.7604456
943,1778427580060,0.8636276333333334,-1.7797177,-0.4262240533333333,-1.9833267999999997,-2.2062926,-6.8216849999999996
944,1778427580070,0.2777194533333333,-2.0829873666666665,-0.40872302666666666,-2.783254733333333,-2.112117466666666,-7.173543333333334
945,1778427580080,-0.23495273,-2.4311175,-0.29422447,-4.310876,-1.7931949,-7.694458499999999
946,1778427580090,-0.57104958,-2.800193833333333,-0.0715997025,-4.864930666666667,-1.5529212333333333,-7.822740433333333
947,1778427580100,-1.5346017000000003,-3.389832,0.58479017,-5.696522000000001,-0.9677123333333334,-7.987368466666666
948,1778427580110,-1.68785454,-3.4427376,0.685796062,-6.0268578,-0.6145915399999999,-7.9969284
949,1778427580120,-2.6017677,-3.655122,1.2628480499999999,-5.463960666666666,-0.36532286666666663,-7.147556000000001
950,1778427580130,-4.071152,-3.8091857,2.051522,-4.2609123166666665,-0.5886196,-5.877694666666667
951,1778427580140,-4.3692895,-3.8510071166666666,2.180543833333333,-3.0069078833333336,-0.8357654333333334,-4.556418316666666
952,1778427580150,-4.4616996,-3.83468716,2.05470532,-1.2809844,-0.9039278599999999,-2.5402832
953,1778427580160,-4.308178,-3.782233,1.7926046,-0.33745214166666665,-0.8142070266666667,-1.1617639166666667
954,1778427580170,-4.1405465,-3.7601584,1.5749699499999998,0.34936401833333336,-0.6152940183333333,0.30792698999999996
955,1778427580180,-3.7262541666666666,-3.6634455999999997,1.1380339266666668,0.41709371733333334,-0.18707747833333332,1.5976672
956,1778427580190,-3.243604,-3.5082536000000006,0.86474556,0.055283304,0.52534413,2.8283062
957,1778427580200,-2.8977300000000006,-3.3513541,0.8159013,-0.4509712799999999,1.5008959,4.0138426
958,1778427580210,-2.622236216666667,-3.2206554666666665,0.79754655,-0.6698646300000001,1.9791524833333334,4.6319621
959,1778427580220,-2.0279841,-3.0310915,0.77333784,-1.0451905,3.2969925,6.55153
960,1778427580230,-1.7088192333333332,-2.9922275000000003,0.68804828,-1.0623965,3.8193840333333333,7.390145999999999
961,1778427580240,-1.1350256266666667,-2.9471435666666665,0.4698241533333333,-1.10154275,4.31156325,8.292877500000001
962,1778427580250,-0.402084432,-2.84192192,0.276223432,-1.1754574400000002,4.65335758,9.599381
963,1778427580260,0.06884549166666666,-2.7719402333333334,0.20025558833333335,-1.1966850333333334,4.598593433333334,10.146828333333334
964,1778427580270,1.0057904,-2.6444836,0.07500438,-1.2394456,4.234136,10.6964035
965,1778427580280,1.4457042333333334,-2.5636861,0.06849993333333333,-1.35922605,3.3832772500000003,11.17046
966,1778427580290,1.8297715000000003,-2.48444365,0.090554067,-1.3995686,2.9589549500000003,11.115304
967,1778427580300,2.5565517,-2.3046467,0.24098966999999996,-1.3940453666666668,2.0260364,10.783807666666666
968,1778427580310,2.713471366666667,-2.2517980333333334,0.3375806766666667,-1.2975541,1.3387111999999999,10.442894
969,1778427580320,2.8544347833333332,-2.1591097,0.5158634466666666,-0.8422559166666667,0.247553145,9.650933083333333
970,1778427580330,2.8669355,-2.1458569,0.5418609,-0.7675522,0.105374254,9.534995999999998
971,1778427580340,2.8471884333333333,-2.1395252166666667,0.5591993116666666,-0.702265975,0.04133521666666667,9.475462166666667
972,1778427580350,2.5118537499999998,-2.1683887499999996,0.62500595,0.5306892,-0.73945236,9.019731
973,1778427580360,2.4568505,-2.2034822,0.5991813,0.5306892,-0.73945236,9.019731
974,1778427580370,2.3147081999999997,-2.317992285714286,0.48146537714285714,0.6405576799999999,-0.6943355828571429,9.091464142857143
975,1778427580380,2.2342461,-2.3833097,0.37679027000000004,0.7189884000000001,-0.1727221485,9.4786435
976,1778427580390,2.189718357142857,-2.412736542857143,0.2722458485714286,0.49903328571428573,0.2001456355714286,9.652019714285714
977,1778427580400,2.1794565,-2.420751,0.24513626,0.3791946,0.3404046600000001,9.703594
978,1778427580410,2.1661628333333334,-2.4183931333333333,0.21484992666666666,0.11855876266666666,0.5069672199999999,9.699928666666667
979,1778427580420,2.159516,-2.4172142,0.19970676,-0.1625556062857143,0.6630287571428571,9.669691142857143
980,1778427580430,2.1328885333333334,-2.416279266666667,0.19060054,-0.3636175400000001,0.7600691,9.631818
981,1778427580440,2.08051765,-2.4419718,0.20330454,-0.57627499,0.8254316500000001,9.5895915
982,1778427580450,2.0004215666666667,-2.4766282,0.24515658333333334,-1.0052805466666668,0.9575821666666666,9.539119
983,1778427580460,1.8517238666666664,-2.56522075,0.33428779999999997,-1.2712614333333334,0.966668775,9.649277666666666
984,1778427580470,1.8790527333333333,-2.6840692833333333,0.3541162033333333,-1.370832533333333,0.8789332999999999,9.834522666666667
985,1778427580480,1.8871833,-2.7049749999999997,0.35648423,-1.4048374,0.8374963000000001,9.915717
986,1778427580490,1.9455708999999999,-2.754612,0.37276566499999997,-1.4484379,0.6321692,10.156551
987,1778427580500,2.548432657142857,-2.5888531571428572,0.3794820885714286,-1.6038048714285715,0.3791946014285714,9.981887428571428
988,1778427580510,2.880054742857143,-2.1512318571428573,0.3728614671428571,-2.1693352142857143,0.6681774785714286,9.115876857142856
989,1778427580520,3.0375552,-2.0956712,0.39618164,-2.363743,0.6397286,8.983079
990,1778427580530,3.1989059333333336,-2.133762866666667,0.4034178466666667,-2.40535825,0.5006295166666667,8.914229
991,1778427580540,3.7274125,-2.0729258,0.4613074,-2.4007003,-0.15393804,8.613811
992,1778427580550,3.7274125,-2.0729258,0.4613074,-2.2561288333333334,-0.4541783466666667,8.387281666666667
993,1778427580560,4.171950871428571,-1.5063596,0.6251497142857143,-2.1838431,-0.6042985,8.274017
994,1778427580570,4.443979,-1.0996373,0.6988822999999998,-2.141286183333333,-0.6414340066666666,8.1995169
995,1778427580580,4.443979,-1.0996373,0.6988823,-1.9285016,-0.82711154,7.8270164
996,1778427580590,4.9285803,-0.7074803,0.64772075,-1.8800650833333332,-0.8298858833333332,7.68807
997,1778427580600,4.9285803,-0.7074803,0.64772075,-1.6378825,-0.8437576,6.993337999999999
998,1778427580610,5.079493483333334,-0.6157473183333333,0.5533554716666667,-1.8395443,-0.5231297149999999,5.8856103
999,1778427580620,5.457931742857143,-0.5858965571428572,0.5744499214285714,-2.7645142714285713,0.36992253571428574,3.3969561285714285
