id,timestamp,acc_x,acc_y,acc_z,gyro_x,gyro_y,gyro_z
0,1778427342670,-0.17671762,0.35166687,0.9348107,0.98715824,-0.38637227,-0.4222606
1,1778427342680,-0.17671762,0.35166687,0.9348107,1.0441214,-0.50594914,-0.26297748
2,1778427342690,-0.02555027,0.3568501,0.86462367,1.0441214,-0.50594914,-0.26297748
3,1778427342700,0.041099958,0.35075217,0.8480982999999999,1.0213667,-0.3827071,0.058184914
4,1778427342710,0.0660282396,0.345776274,0.81965758,0.995710364,-0.2778215264,0.0637437884
5,1778427342720,0.0701768555,0.34007065500000005,0.8071405833333333,0.95722586,-0.120493166,0.0720821
6,1778427342730,0.05975958299999999,0.31776243,0.7801065,0.95722586,-0.120493166,0.0720821
7,1778427342740,0.019635291546666666,0.3047535633333333,0.7336810333333333,0.9342166000000001,-0.061646484,0.0954986
8,1778427342750,-0.00042685418,0.29824913,0.7104683,0.9227119700000002,-0.032223143,0.10720685
9,1778427342760,-0.00042685418,0.29824913,0.7104682999999999,0.92271197,-0.032223143,0.10720685
10,1778427342770,-0.00042685417999999993,0.29824913,0.7104683,0.806011245,-0.09509135716666667,0.286775775
11,1778427342780,-0.03423980409,0.282425035,0.65055627,0.7826711,-0.107665,0.32268956
12,1778427342790,-0.068052754,0.26660094,0.5906442400000002,0.7826711,-0.107665,0.32268956
13,1778427342800,-0.068052754,0.26660094,0.59064424,0.7826711,-0.107665,0.32268956
14,1778427342810,-0.049962266666666665,0.25875495,0.58682286,0.7826711,-0.107665,0.32268956
15,1778427342820,-0.013781292,0.24306297,0.5791801,0.7826711,-0.107665,0.32268956
16,1778427342830,-0.013781292,0.24306297,0.5791801,0.7826711,-0.107665,0.32268956
17,1778427342840,-0.013781292,0.24306297,0.5791801,0.7005860583333332,-0.2360739666666667,0.43417247666666664
18,1778427342850,0.05906848666666667,0.22119176333333335,0.6167839266666667,0.68416905,-0.26175576,0.45646906000000004
19,1778427342860,0.095493376,0.21025616,0.63558584,0.68416905,-0.26175576,0.45646906000000004
20,1778427342870,0.095493376,0.21025616,0.63558584,0.657596425,-0.34254269,0.50381113
21,1778427342880,0.095493376,0.21025616,0.63558584,0.6310238,-0.42332962,0.5511532
22,1778427342890,0.095493376,0.21025616,0.63558584,0.65698557,-0.53908859,0.56673025
23,1778427342900,0.095493376,0.21025616,0.63558584,0.68294734,-0.65484756,0.5823073
24,1778427342910,0.09763635657142856,0.14288289714285715,0.6260730971428572,0.68294734,-0.65484756,0.5823073
25,1778427342920,0.09799352,0.13165402,0.62448764,0.7044294266666666,-0.7450520066666666,0.6033821433333334
26,1778427342930,0.09799352,0.13165402,0.62448764,0.7473936,-0.9254609,0.64553183
27,1778427342940,0.07884607,0.07817529,0.6073525,0.7473936,-0.9254609,0.64553183
28,1778427342950,0.07884607,0.07817529,0.6073525,0.7473936,-0.9254609,0.64553183
29,1778427342960,0.07884607,0.07817529,0.6073525,0.89234685,-1.5649604833333335,0.8968774133333334
30,1778427342970,0.07443524,0.03490040866666666,0.5794037200000001,0.9436849833333335,-1.78645,0.9942849583333334
31,1778427342980,0.2141327057142857,-0.27775139228571427,0.27962432571428575,1.119912357142857,-3.1990140142857144,2.0445223857142856
32,1778427342990,1.18950315,-0.42519031,0.027388358857142865,0.42031891714285713,-4.8166725,4.0029782
33,1778427343000,1.536039057142857,0.23868989714285713,0.37155476857142855,-0.6272713714285715,-3.351948485714286,3.9663916571428572
34,1778427343010,1.7672778666666666,0.6843081999999999,0.9371685333333334,-1.6291776,-2.38268,4.011552
35,1778427343020,1.7640968499999998,0.806266515,1.2113207000000001,-1.6291776,-2.38268,4.011552
36,1778427343030,1.8104105,1.077319,1.6623530000000002,-1.1392637033333333,-2.3785057166666665,3.6663113666666667
37,1778427343040,1.9231,1.3364804,1.820838,0.18598301666666664,-2.356234466666667,2.8970284166666667
38,1778427343050,1.948615442857143,1.5019081571428572,1.6897240285714286,0.8828312,-2.201951042857143,2.2749930714285713
39,1778427343060,1.9634682,1.6664996,1.5036243,1.2483032,-2.0054705,1.7681495
40,1778427343070,1.9546059333333334,1.7417886000000002,1.3251586333333334,1.4856243333333332,-1.7841592000000002,0.9572258333333333
41,1778427343080,1.9028854333333332,1.82246415,1.03075124,1.5249487333333331,-1.5471943833333333,0.06515896166666668
42,1778427343090,1.8595800666666664,1.8166303666666668,0.9014143933333333,1.3550008666666666,-1.2072224,-0.63509622
43,1778427343100,1.8331558,1.7780914999999997,0.8451103,1.1746938,-0.8232936,-1.2547172
44,1778427343110,1.7905051428571428,1.7030871285714286,0.7633111,1.0252500142857142,-0.4891721714285714,-1.6694511285714284
45,1778427343120,1.7265032166666667,1.54481575,0.608694075,0.6366743166666667,0.2585487166666666,-2.4075216166666666
46,1778427343130,1.7615663,1.4504504999999999,0.5574716,0.30665436,0.7870999,-2.8945850000000006
47,1778427343140,1.8703937666666668,1.3114789333333334,0.5354987133333333,0.13917546833333336,1.0252100666666666,-3.1936544166666665
48,1778427343150,1.996492842857143,1.1775163714285715,0.5363117714285714,-0.09036442714285715,1.3854641857142858,-3.8913424428571424
49,1778427343160,2.0816457,1.1069548,0.5613132,-0.14737125,1.5039502,-4.234976
50,1778427343170,2.1833590333333333,0.9967044933333332,0.6175360466666667,-0.08536842066666667,1.5334753333333333,-4.546415333333333
51,1778427343180,2.3244038,0.775716,0.67680776,0.17592919000000004,1.5178474,-5.158146
52,1778427343190,2.358064485714286,0.6892126714285715,0.6799961085714286,0.35048392,1.4854716,-5.405088400000001
53,1778427343200,2.4112384,0.49466303,0.6688195,0.6702719,1.4773777,-5.785352
54,1778427343210,2.4115431,0.26964986,0.6144871,1.0842859,1.4753923,-6.185316
55,1778427343220,2.3846209,0.19641389,0.5801862999999999,1.24929585,1.4279739000000002,-6.3246695
56,1778427343230,2.2564123,0.0060369377,0.46234405,1.7032450000000001,1.1768318,-6.654308
57,1778427343240,2.1932988,-0.056344748,0.42819571,1.8393153,1.0173961,-6.702718700000001
58,1778427343250,2.1932988,-0.056344748,0.42819571,1.8808795833333332,0.9508626916666666,-6.699893416666666
59,1778427343260,2.0647342166666665,-0.18241917466666668,0.34495916833333334,2.088701,0.61819565,-6.685767000000001
60,1778427343270,1.9467497166666667,-0.2977917683333333,0.264771555,2.145511433333333,0.4435390833333333,-6.475426
61,1778427343280,1.8344363,-0.40727988,0.18543765,2.165059,0.31780264,-6.282749
62,1778427343290,1.7529274666666668,-0.5000698133333333,0.12064728333333334,2.1156808333333332,0.2835687316666667,-6.088035833333333
63,1778427343300,1.6500108400000002,-0.68882066,0.0281235912,1.9095036799999998,0.33515122,-5.449956439999999
64,1778427343310,1.5775920999999997,-0.8216943,-0.04994194,1.7926604166666669,0.41332670666666665,-5.133355083333333
65,1778427343320,1.41081405,-0.95642775,-0.07899851000000001,1.54770345,0.70516759,-4.577671250000001
66,1778427343330,1.3589817,-1.0142055,-0.08854175,1.4818064,0.79504114,-4.396397
67,1778427343340,1.1113352166666666,-1.0822583166666666,-0.14134970500000002,1.2966378166666666,0.9797005233333334,-3.994498666666667
68,1778427343350,1.033414,-1.097808,-0.14665489,1.11414185,1.2646692333333334,-3.5103116666666665
69,1778427343360,0.82187724,-1.1868376,-0.12848312,0.97692627,1.5166256,-2.8812985
70,1778427343370,0.6760353733333333,-1.1901914333333334,-0.12487517833333334,0.970079485,1.70988815,-2.4910829333333333
71,1778427343380,0.44167212,-1.1481768,-0.11634825,1.0073168,1.9376645,-2.0292943
72,1778427343390,0.098322804,-1.0553420599999999,-0.12720254720000002,1.18040546,1.98842748,-1.49222162
73,1778427343400,-0.228915785,-1.00469275,-0.18223625,1.5209017500000002,1.69324215,-0.6989061900000001
74,1778427343410,-0.33087295,-0.9934116,-0.2087317,1.637577,1.5328137,-0.44180828
75,1778427343420,-0.5563739,-0.98097193,-0.30946928,1.9417878,0.9308058999999999,0.30298916
76,1778427343430,-0.8002993285714286,-0.9908766328571429,-0.47575944857142854,2.1733057,0.19181168,1.2023355
77,1778427343440,-0.8684043,-0.99030167,-0.55442256,2.259845116666667,-0.2995530533333333,1.9005036666666666
78,1778427343450,-0.8515740533333332,-0.9963589533333334,-0.6710960666666667,2.2945626,-0.959822,3.202003
79,1778427343460,-0.80803496,-0.9965216,-0.7045533,2.2418754,-1.1872166,3.9361103000000006
80,1778427343470,-0.41459736,-1.0203644,-0.8382807,1.9378172,-1.4454598,5.5848355
81,1778427343480,-0.41459735999999997,-1.0203644,-0.8382807,1.9378172000000002,-1.4454598,5.5848355
82,1778427343490,-0.41459735999999997,-1.0203644,-0.8382807,1.9378172000000002,-1.4454598,5.5848355
83,1778427343500,0.496187488,-0.9156753280000001,-0.9915579000000001,0.511324748,-1.25612226,7.464712400000001
84,1778427343510,1.2552736428571427,-0.6490448271428572,-0.9125968285714287,-0.6039493557142858,-1.08027152,8.173573857142857
85,1778427343520,2.011967,-0.3037575666666667,-0.6892475566666666,-1.6882788,-0.825889795,8.237136
86,1778427343530,2.353125,-0.13366634,-0.55838627,-1.9672915,-0.71975195,8.100684
87,1778427343540,2.6970069999999997,0.09992452666666667,-0.3424793366666667,-1.9672915,-0.71975195,8.100684
88,1778427343550,2.757691233333333,0.5468510083333333,0.10812623166666667,-2.512132266666667,0.30125837666666666,5.607030066666667
89,1778427343560,2.3647286857142857,0.7295808728571428,0.09328941571428571,-2.4433082285714285,0.534245292857143,4.8478264285714285
90,1778427343570,1.8019343999999997,0.94414043,0.02786748,-2.3699026,0.63723429,4.1643194
91,1778427343580,1.5208205,1.0616473,0.22964752999999996,-2.3345742,0.37873647,4.0281982
92,1778427343590,1.3324993285714284,1.1921775428571428,0.37257400714285716,-2.140515485714286,0.020834877142857137,4.006490557142857
93,1778427343600,1.2084851,1.413619,0.49155307,-1.5801993,-0.6865252571428572,4.132765285714286
94,1778427343610,1.3150157,1.5242352,0.44392833000000004,-1.4918857,-0.7452556,4.154495
95,1778427343620,1.5140111166666668,1.6957900333333333,0.4345274133333333,-1.4320717833333336,-0.5572872666666666,3.7546324999999996
96,1778427343630,1.6110290333333335,1.866237,0.4905774299999999,-1.42239975,-0.19962567499999997,3.0635400833333333
97,1778427343640,1.5683232833333332,1.9303769,0.5000495216666666,-1.4228578999999997,-0.13561209,2.9413161
98,1778427343650,1.2975757,2.1149404,0.48947978,-1.4748578666666665,0.3148755833333333,2.1056524499999996
99,1778427343660,1.082023042857143,2.1308821,0.5636478542857143,-1.5726289714285713,0.8006698171428571,1.1597712571428571
100,1778427343670,0.9119942166666667,2.1334273833333337,0.6622032666666667,-1.4690545166666666,0.9783261333333334,0.2743548433333333
101,1778427343680,0.8201698,2.1301243,0.8032176,-1.1722504,0.93722,-0.2929099
102,1778427343690,0.8734656,2.1420152,0.92023665,-0.79443026,0.82650065,-0.5665775
103,1778427343700,1.0284746,2.1478083,1.0104858,-0.18020524,0.64965516,-0.8549059
104,1778427343710,1.3682709,2.1285794333333334,1.0474391666666667,0.378049225,0.49622625000000004,-1.1393908833333333
105,1778427343720,1.7779696,2.0996346,1.0664647,1.1015427,0.311694,-1.5844318
106,1778427343730,2.2607538600000003,2.0360213600000003,0.893808224,1.8235855,0.094531395,-2.3518312
107,1778427343740,2.5271597,1.9459672,0.799315,2.1626158,-0.0035124752,-2.9739974
108,1778427343750,2.6007004,1.7765671,0.60948676,2.431549,0.030390546,-3.641673
109,1778427343760,2.51311,1.6891595000000001,0.544092716,2.55500496,-0.079198676862,-4.01277378
110,1778427343770,2.4720345,1.5703355,0.4905774,2.6624562,-0.207083314,-4.34273282
111,1778427343780,2.6803393,1.4238025,0.24891695,2.640465,-0.12217305,-4.4603853
112,1778427343790,2.7434832499999997,1.32330885,0.13612074999999998,2.55727275,-0.1046870325,-4.548998975
113,1778427343800,2.7681614000000003,1.19105726,0.0751141384,2.2301772800000004,-0.047525316,-4.8817908
114,1778427343810,2.7036740333333333,0.9857892766666666,-0.0034961376666666675,2.0064378,-0.05090543533333333,-5.054655333333334
115,1778427343820,2.6019201,0.84297603,-0.052807956999999996,1.7915149999999997,-0.071776666,-5.199532
116,1778427343830,2.5465161571428574,0.7740869842857142,-0.0715546992857143,1.6586082,-0.08809549400000001,-5.242729142857143
117,1778427343840,2.2900522999999997,0.45573799333333337,-0.14353479766666666,1.2034299833333333,-0.14276429416666667,-5.281948
118,1778427343850,2.1467714,0.2628812,-0.17433943,0.923781,-0.17287487,-5.2488594
119,1778427343860,1.9598705,0.07396773,-0.20708527,0.45748717000000005,-0.12881621266666668,-5.128773933333333
120,1778427343870,1.7704082,-0.12512925,-0.20903657,0.07696902,-0.024587326000000003,-5.0239086
121,1778427343880,1.7186978000000002,-0.18704343666666667,-0.20110929666666666,-0.047036626666666664,0.023671028666666667,-4.982369733333333
122,1778427343890,1.5072568857142858,-0.3942128728571429,-0.16184742,-0.47826385,0.21395555114285716,-4.766995957142858
123,1778427343900,1.1598238,-0.66753894,-0.042197585,-0.9610946083333333,0.4532365683333333,-4.464508783333333
124,1778427343910,1.0394508933333333,-0.7651056266666667,0.025204723000000002,-1.15932035,0.6603198533333333,-4.242052
125,1778427343920,0.84273213,-0.9440795,0.12958074,-1.2226468,0.97219205,-3.976122
126,1778427343930,0.7364352516666667,-1.0682737333333332,0.16693047166666666,-1.1467468,1.0816896,-3.8310413000000003
127,1778427343940,0.548080755,-1.3094157833333333,0.18898460333333333,-0.6801475616666667,0.9532806233333333,-3.4288629999999998
128,1778427343950,0.49380928,-1.3823367,0.16311927,-0.42103887,0.72204274,-3.2398765
129,1778427343960,0.39393558,-1.4226236666666665,0.13908331999999998,0.012471831666666674,0.16073391166666667,-2.908405833333333
130,1778427343970,0.25403923,-1.4455111,0.11128698,0.29245174,-0.23671027999999997,-2.6690230000000006
131,1778427343980,0.17083749571428572,-1.4467656142857144,0.09627739857142857,0.47544952,-0.5012367400000001,-2.4495260857142855
132,1778427343990,-0.022399686666666665,-1.4251441,0.06673153833333333,0.7903069333333334,-0.8883507666666667,-1.8923587666666668
133,1778427344000,-0.14159364,-1.3936789,0.041404855,0.9482156,-1.0187705,-1.4862351
134,1778427344010,-0.25074633333333335,-1.3504547833333334,-0.028294334833333334,1.03083515,-1.04447775,-0.9911542833333334
135,1778427344020,-0.42917139666666665,-1.2578173333333333,-0.16277373666666664,1.0833695,-1.0635164,-0.2576324
136,1778427344030,-0.47349306999999996,-1.2083936666666668,-0.22416960166666666,0.9661597666666667,-1.0909799500000001,0.5930483416666666
137,1778427344040,-0.49456138,-1.0974624000000002,-0.34001984,0.8359691000000001,-1.1152872,1.1301007
138,1778427344050,-0.4922848,-1.0442072,-0.3899008,0.783465226,-1.10288664,1.29656148
139,1778427344060,-0.4712063333333334,-1.0187585833333335,-0.40943446666666666,0.3702861366666667,-0.9902634766666666,2.5585072666666666
140,1778427344070,-0.32584217499999996,-0.8958042583333333,-0.47136899166666674,-0.03604105,-0.86422163,3.7507126
141,1778427344080,-0.145728018,-0.8092423280000001,-0.481893982,-0.09578367,-0.85640255,3.9560855599999996
142,1778427344090,0.53478728,-0.518536345,-0.50563927,-0.34227543,-0.91045647,5.4198257000000005
143,1778427344100,0.8133858700000001,-0.3320925525,-0.51512152,-0.34643694999999997,-1.119715975,6.152329475
144,1778427344110,1.3305045,0.015183815000000003,-0.46014883000000006,-0.26297749,-1.5916094,6.965391
145,1778427344120,1.5950321,0.17257105,-0.41002396,-0.2003638,-1.839468,7.312057
146,1778427344130,1.989536825,0.3713783875,-0.31663433500000004,0.013019064499999997,-2.12615475,7.609853725000001
147,1778427344140,3.136071457142857,0.9532873428571429,-0.21671996571428573,0.42738751742857145,-2.1756620142857144,7.515300657142857
148,1778427344150,3.3853194,1.1851301333333335,-0.30694881333333335,0.7312057166666667,-1.8118262666666667,6.877477333333334
149,1778427344160,3.353142666666667,1.3920120999999999,-0.4292730333333334,0.649426105,-1.3321443499999999,6.1414865
150,1778427344170,3.228298,1.5242963000000003,-0.5149691,0.55970526,-1.1551461,5.880647
151,1778427344180,3.0728823999999997,1.5729983,-0.5882660333333334,0.28277969333333336,-0.8723664833333333,5.5162915
152,1778427344190,2.6966694,1.6093500200000002,-0.6712587080000001,-0.365755564,-0.464074328,5.1023132
153,1778427344200,2.473833325,1.5966633000000001,-0.6202343875,-0.9887235750000001,-0.08134052874999999,4.9350273
154,1778427344210,1.9916509500000001,1.5400390333333334,-0.398448035,-1.7537940999999997,0.41172316999999997,4.821101
155,1778427344220,1.8038856999999997,1.4922212000000001,-0.22867186000000003,-2.0718258499999997,0.65632382,4.734943833333333
156,1778427344230,1.6578609833333333,1.4631545333333333,-0.061304384999999996,-2.394464533333333,0.9912306583333333,4.562170933333333
157,1778427344240,1.5238694,1.4629512,0.12110463,-2.5943446,1.3154984,4.320192
158,1778427344250,1.5238694,1.4629512,0.12110463,-2.5943446,1.3154984,4.320192
159,1778427344260,1.5238694,1.4629512,0.12110463,-2.5943446,1.3154984,4.320192
160,1778427344270,1.3184102500000001,1.5974305666666666,0.48349368833333334,-2.42236065,1.4324026666666667,3.909792283333333
161,1778427344280,1.0533845983333332,1.8158782666666664,0.482426525,-1.4298064833333335,1.2945252383333334,2.5955155333333333
162,1778427344290,0.90022671,1.9418118285714283,0.4356264642857143,-0.62960571,0.7264060614285714,1.6842208571428572
163,1778427344300,0.72653196,1.9863963142857144,0.39129462857142855,-0.41357758000000006,0.4502512957142857,1.30330274
164,1778427344310,0.59314436,2.0103002,0.3547768,-0.014202617999999998,-0.15536339666666668,0.2443461
165,1778427344320,0.5381934142857143,2.004254528571429,0.34797327142857143,0.05451972371428571,-0.29478611571428576,-0.25409812285714284
166,1778427344330,0.43173248999999997,1.9415158000000001,0.38230889,0.050701815000000004,-0.26251933499999996,-0.9024770000000001
167,1778427344340,0.44520888,1.9055381,0.40868237999999996,0.04138612,-0.19883664,-1.1643091
168,1778427344350,0.47609484,1.8788902500000002,0.41965863999999997,0.028914289166666666,0.03978259333333334,-1.7139606
169,1778427344360,0.6894914499999999,1.7055974999999999,0.5021329566666667,0.10837767666666666,0.3032436866666666,-2.482658066666667
170,1778427344370,0.7882777,1.609911,0.55411774,0.25254187,0.42898012,-3.014874466666667
171,1778427344380,0.9239157066666667,1.4715086333333334,0.5499711,0.37003163,0.46502116,-3.3092098
172,1778427344390,1.0224116285714286,1.392363457142857,0.4953686171428571,0.5348343414285714,0.49761516571428566,-3.7945858
173,1778427344400,1.0826242,1.3606892,0.42752492000000003,0.5781403371428572,0.5813255228571429,-4.067511971428571
174,1778427344410,1.3295897,1.3534327,0.33703186999999996,0.40943244,0.8176431000000001,-4.4435863
175,1778427344420,1.6033862,1.3458712000000002,0.35184979999999993,0.2861140066666667,0.9170359833333332,-4.688187133333333
176,1778427344430,1.6033862,1.3458712000000002,0.35184979999999993,0.26145032,0.93691456,-4.7371073
177,1778427344440,1.9233562,1.31765008,0.415097392,0.15375478999999997,1.17933644,-5.26229868
178,1778427344450,2.2315587714285714,1.2813988142857142,0.49284232857142857,0.15655603285714287,1.3149311142857143,-5.492354942857142
179,1778427344460,2.520696,1.185435,0.60875505,0.252195716,1.5049276600000001,-5.73049636
180,1778427344470,2.61842116,1.07297724,0.672429482,0.6731735240000001,1.76078854,-6.1160438
181,1778427344480,2.639706933333333,0.9498724666666667,0.7017482666666667,1.0270172,1.7765489,-6.264423
182,1778427344490,2.6063716,0.8465127999999998,0.6871133,1.317789,1.6663895,-6.272466333333333
183,1778427344500,2.5811872333333334,0.7901070666666666,0.6581278533333333,1.7570011,1.4138475999999998,-6.18806515
184,1778427344510,2.4724512,0.533760805,0.42181323499999995,2.6690230000000006,0.535118,-5.7311378
185,1778427344520,2.4107504,0.37239978,0.17129049,2.9350548,0.04337143,-5.486639000000001
186,1778427344530,2.3450556000000002,0.2833701933333333,-0.0036384206666666696,2.9141836333333333,-0.4126140116666666,-5.289634833333333
187,1778427344540,2.1584797,0.05567397999999999,-0.283919,2.61908465,-0.6761260166666667,-5.08351875
188,1778427344550,2.1064208714285715,0.009608574285714284,-0.3093560285714286,2.5608997,-0.710589,-5.0501757
189,1778427344560,1.6322801,-0.29658235166666663,-0.3943421,1.6159422333333335,-0.30894510000000003,-4.620126666666667
190,1778427344570,1.369714,-0.42526874,-0.3810588,0.48263445499999996,0.49408816999999994,-3.9874229000000003
191,1778427344580,1.1147194999999999,-0.5603883733333334,-0.33578178333333336,0.09422596499999998,0.77396625,-3.6914587
192,1778427344590,0.73546976,-0.7796187,-0.24885598,-0.04714571071428573,0.8261079671428571,-3.5266559285714285
193,1778427344600,0.597616165,-0.851035425,-0.2026744216666667,-0.6101780166666667,0.9071857799999999,-2.688010666666667
194,1778427344610,0.2881004385714286,-0.9896396571428571,-0.06903712614285715,-0.7972663857142858,0.8276133057142856,-2.0494092428571427
195,1778427344620,0.19806032999999998,-1.021523,-0.013110521,-0.8362745,0.8052731,-1.7363845
196,1778427344630,0.04939312433333334,-1.0783047833333332,0.11302488749999999,-0.7834601166666667,0.8319984333333333,-1.2791264166666665
197,1778427344640,-0.084883004,-1.1290293,0.22123243,-0.44715336,0.8940013,-0.63423085
198,1778427344650,-0.16208262133333332,-1.1454123666666667,0.2466810566666667,-0.209017724,0.8940012999999999,-0.33938655
199,1778427344660,-0.31934790714285716,-1.1591965285714285,0.18997623857142856,0.3749403682857143,0.7528696114285715,0.30992684142857146
200,1778427344670,-0.37807086,-1.1558601,0.13055639,0.9345220333333334,0.38453966433333336,1.0016153666666667
201,1778427344680,-0.4163221985714286,-1.1340121428571428,-0.08341078971428571,1.3891075714285714,-0.236033964,1.8018561
202,1778427344690,-0.38386387000000005,-1.106101,-0.23080614,1.500285,-0.5047274,2.1253529
203,1778427344700,-0.3533031416666667,-1.0968728333333333,-0.260045655,1.4986051333333335,-0.5788457166666667,2.291202816666667
204,1778427344710,-0.186718209,-1.0463313333333333,-0.41603038833333333,1.4721852666666668,-0.9513717166666668,3.17344495
205,1778427344720,0.025750630999999996,-0.9809892857142858,-0.5522970728571429,1.3289155142857143,-0.94474678,3.5223798428571427
206,1778427344730,0.16269242333333334,-0.9427176333333334,-0.6115804300000001,0.8368345,-0.81484334,4.190433666666667
207,1778427344740,0.3217261,-0.9008453,-0.66028243,0.44198645166666667,-0.7433721266666667,4.558607333333334
208,1778427344750,0.6107847399999999,-0.7942710942857143,-0.6771301185714286,0.1392336462857143,-0.7022114342857143,4.823632085714286
209,1778427344760,0.906272385,-0.63345158,-0.6969613999999998,-0.015017104166666665,-0.7116580083333334,5.01835975
210,1778427344770,0.96438557,-0.58113146,-0.7019922,-0.04505130999999999,-0.8216137,5.162422
211,1778427344780,1.2372236814285713,-0.3250712342857143,-0.7234743085714285,0.007788532,-1.5569428,5.5814757
212,1778427344790,1.5115864142857143,-0.11709742714285713,-0.7220020457142857,0.045204027714285715,-2.016727942857143,5.778370628571429
213,1778427344800,1.846398383333333,0.125860994,-0.7073786666666666,0.025300001833333335,-2.3953553333333333,6.0237168500000005
214,1778427344810,2.139881,0.38307112000000004,-0.7430922,-0.2918663166666667,-2.190868083333333,6.237595833333334
215,1778427344820,2.139881,0.38307112000000004,-0.7430922,-0.6249151,-1.851838,6.32948
216,1778427344830,2.34458794,0.685796106,-0.722237282,-1.1406381199999998,-1.38388468,6.5078528
217,1778427344840,2.4727662,0.8852955000000001,-0.67906404,-1.644602,-0.948521,6.679506
218,1778427344850,2.5673246,1.0119898999999999,-0.59416071,-2.00249265,-0.769919265,6.66018735
219,1778427344860,2.8249411666666666,1.4056105333333333,-0.25883624,-2.6893342666666666,-0.3752494366666667,6.378731166666667
220,1778427344870,2.830531,1.4308152000000003,-0.21879324,-2.7435486,-0.33261612,6.3103905
221,1778427344880,2.806240966666667,1.4792224999999999,-0.16261110166666667,-2.7825676,-0.24342979500000003,6.208681416666667
222,1778427344890,2.597216114285714,1.9565688714285714,0.5169029914285714,-2.904031514285714,0.27043876857142857,5.55302657142857
223,1778427344900,2.2773194,2.1292269857142854,0.8364686485714286,-2.3139357142857144,0.7779368714285715,4.468784571428571
224,1778427344910,2.1432145666666664,2.158001883333333,0.8752034833333333,-2.11619,0.9111055,4.200004
225,1778427344920,1.9394424,2.2016528,0.9320666000000001,-1.8106555333333334,1.0393871666666668,3.8197404
226,1778427344930,1.8371091833333333,2.236004416666667,0.9383982616666667,-1.4621060000000001,1.1071932,3.4184019333333335
227,1778427344940,1.5239912999999998,2.344588,0.9243222000000001,-0.43768495,0.9098837999999999,2.301893
228,1778427344950,1.4577679333333335,2.3642436666666664,0.88820222,-0.06312274333333334,0.7553348666666667,1.8335629333333336
229,1778427344960,1.3253212,2.403555,0.81596226,0.47555858,0.5702427,1.0262536
230,1778427344970,1.1080322,2.4034025,0.5585285016666667,0.6060801266666667,0.5546656333333333,0.6553566000000001
231,1778427344980,0.9737661916666666,2.3482874166666665,0.31719329166666665,0.64828074,0.6844745,-0.35796702
232,1778427344990,0.9221095628571429,2.2350869714285713,0.19271159,0.45974153714285715,0.8540114714285715,-0.9433286599999999
233,1778427345000,0.90480894,2.0774992,0.14122775,0.16310102,1.1061243,-1.7096591000000003
234,1778427345010,0.9115166,1.9032819000000003,0.18458392999999998,0.03825543583333334,1.2428053833333335,-2.1389192666666665
235,1778427345020,0.93438385,1.7746157333333332,0.22137471333333333,-0.021456641833333335,1.3303372666666666,-2.635450883333333
236,1778427345030,0.9880715714285715,1.5234338142857144,0.30723919000000005,0.15293447514285716,1.2390528857142857,-3.4710454285714287
237,1778427345040,1.03265165,1.4240058499999997,0.3310762183333333,0.22540927,1.1881329,-3.6926804
238,1778427345050,1.1801995,1.243365257142857,0.38355024285714284,0.6800021071428571,0.8826784400000001,-4.319057214285714
239,1778427345060,1.291051,1.1360419,0.46112445,0.90026265,0.72341716,-4.5205555
240,1778427345070,1.502780783333333,1.0548684833333333,0.25183379499999997,1.0934996750000001,0.7877870749999999,-5.19154025
241,1778427345080,1.6538682999999998,0.9592284428571428,0.15507001285714286,1.156826,0.8936958299999999,-5.5602484
242,1778427345090,1.7745547285714287,0.8742583,0.008667758571428577,1.021737557142857,0.88008228,-6.012223114285715
243,1778427345100,1.8572830833333336,0.8187063250000001,-0.08078722833333334,0.9239337,0.8660542000000001,-6.281222
244,1778427345110,1.9361495000000002,0.7531537,-0.12860507,0.5558874,0.90301156,-6.592916
245,1778427345120,1.9557849,0.6990448666666667,-0.040693431999999995,0.08310313166666668,1.1580732766666666,-6.73127685
246,1778427345130,1.9591997,0.684857,0.057320416000000006,-0.21303925,1.3935363,-6.7491446
247,1778427345140,2.0082878666666666,0.6691853750000001,0.18935048333333335,-0.28069258,1.5357152,-6.706689399999999
248,1778427345150,2.1267182285714283,0.6385912600000001,0.40200081142857147,-0.07653269,1.905616,-6.542585000000001
249,1778427345160,2.1354296,0.62015814,0.44033056,0.02367103,1.9382755000000003,-6.5260262
250,1778427345170,2.0970125333333334,0.5597481133333334,0.46195785333333333,0.30375274333333335,1.8993837000000002,-6.4673832
251,1778427345180,2.0001167333333334,0.44185505333333336,0.4623643866666667,0.8035932200000001,1.6901623333333333,-6.286872566666666
252,1778427345190,1.8826969571428571,0.3164731728571429,0.40271513714285717,1.2636183657142859,1.3062043857142858,-6.021145857142857
253,1778427345200,1.7475510833333334,0.13308703,0.26660090999999997,1.7420605,0.6507241833333334,-5.5117605
254,1778427345210,1.5991787000000002,-0.058905877,0.12494631,1.9835558166666667,0.048818314,-4.884453133333333
255,1778427345220,1.4656343,-0.18751094,0.027379647,1.9633209,-0.124005646,-4.5529313
256,1778427345230,1.2696472,-0.31831124,-0.06195483399999999,1.756543,-0.1142318,-4.01369
257,1778427345240,1.036696616666667,-0.40105997500000007,-0.10859373666666666,1.5591571666666664,0.03873903333333333,-3.641189583333333
258,1778427345250,0.7731897,-0.48786820571428574,-0.14417217714285716,1.092968842857143,0.5246241542857143,-2.8153033142857145
259,1778427345260,0.5864367,-0.56417924,-0.16037522,0.8491027,0.7631234,-2.327702
260,1778427345270,0.48307698000000004,-0.60896847,-0.15567982,0.6836600083333334,0.8907687750000001,-1.8461365833333332
261,1778427345280,0.2333063,-0.71711504,-0.12964171,0.5845216616666666,0.8664105583333334,-1.2626585
262,1778427345290,0.2333063,-0.71711504,-0.12964171,0.5713117,0.8564331,-1.1652255
263,1778427345300,-0.070857792,-0.787021544,-0.069735778,0.6720128400000001,0.347368526,0.14367552200000003
264,1778427345310,-0.20263377333333332,-0.8064291583333333,-0.048214196666666674,0.7347181433333333,0.14920383333333334,0.8292496000000001
265,1778427345320,-0.26680129428571425,-0.8369477700000001,-0.08470877571428571,0.7685120885714286,0.11595531114285715,1.5102552571428571
266,1778427345330,-0.2795895,-0.85663533,-0.11073817000000001,0.7687738999999999,0.120493166,1.9161316
267,1778427345340,-0.258978534,-0.863367434,-0.14133751,0.73835282,0.1071457626,2.2762977199999996
268,1778427345350,-0.23211285,-0.8533424571428572,-0.1683896185714286,0.6452482142857142,0.04830198871428571,3.243716271428571
269,1778427345360,-0.16811957,-0.834719456,-0.182681386,0.6220135,0.022449298,3.4052682000000005
270,1778427345370,-0.023304204999999998,-0.8140414499999999,-0.22288902,0.45809803,-0.11695524166666667,4.1472659
271,1778427345380,0.08366342,-0.7977295,-0.26562527,0.34483343,-0.21533,4.4623704
272,1778427345390,0.19645746285714288,-0.7972590571428572,-0.2868982785714285,0.17950711571428574,-0.29766590857142855,4.739659628571429
273,1778427345400,0.36577338833333334,-0.8032480866666667,-0.26439550166666664,0.06846781333333334,-0.3571016333333333,4.983693133333333
274,1778427345410,0.5262095766666667,-0.79447726,-0.24560374999999998,0.17200946666666664,-0.5197445166666667,5.108004333333334
275,1778427345420,0.65028185,-0.7713864999999999,-0.24702659000000002,0.3489567599999999,-0.73914695,5.185177
276,1778427345430,0.8207796000000002,-0.7366893,-0.31983575,0.6337727,-1.0525209,5.2213707
277,1778427345440,1.05255272,-0.6154888685714285,-0.4514026557142857,0.8631089857142857,-1.357080785714286,5.203306471428571
278,1778427345450,1.17458076,-0.534360428,-0.5352873560000001,1.0912802,-1.7118582400000002,5.18939182
279,1778427345460,1.3189997,-0.4124224466666666,-0.6292846733333333,1.1558079,-1.9605211666666669,5.262145866666667
280,1778427345470,1.5460048666666666,-0.19966613366666666,-0.6913207833333334,1.2099713,-2.2893703,5.408142600000001
281,1778427345480,1.7228444000000003,-0.024818521,-0.6815641500000001,1.1830933,-2.5189028,5.7570996
282,1778427345490,1.8140082499999999,0.0620767945,-0.683424025,1.1830933,-2.5189028,5.7570996
283,1778427345500,2.1526866166666667,0.38096736166666667,-0.7292396999999999,0.9455939583333333,-2.2526165000000002,5.975738366666666
284,1778427345510,2.57975425,0.8062360600000001,-0.75934308,0.20321450666666663,-1.5784757999999999,6.202369266666667
285,1778427345520,2.7107679499999997,0.9600051833333335,-0.7251236166666667,-0.40439278,-1.0323622,6.196158999999999
286,1778427345530,2.7525387,1.0530493,-0.6587579,-0.6681338499999999,-0.7874053,6.200435
287,1778427345540,2.898104657142857,1.4050733,-0.3394274528571429,-1.209513157142857,-0.19429878114285715,6.240926814285714
288,1778427345550,3.0109684,1.6506451,-0.13561767,-1.6497689,0.42401683333333334,6.108958016666667
289,1778427345560,3.0874059333333332,1.8525877333333334,-0.042350031666666656,-1.72157095,0.671340915,5.489006
290,1778427345570,2.991106628571429,2.1831326857142854,0.19381793142857143,-1.7114698714285714,0.8994117885714286,4.697051914285715
291,1778427345580,2.8714479999999996,2.2617784,0.28288236,-1.6560557000000002,0.9984592,4.2691846
292,1778427345590,2.8714479999999996,2.2617784,0.28288236,-1.6560557000000002,0.9984592,4.2691846
293,1778427345600,2.4521655,2.3512652333333333,0.39452506000000004,-1.42252695,1.3167454500000002,3.2524756
294,1778427345610,2.2564243999999998,2.36184508,0.418707366,-1.3134213200000002,1.48702924,2.84195888
295,1778427345620,1.7240436666666668,2.327717,0.39764515333333333,-1.0638218,1.9135354,2.0132592
296,1778427345630,1.554359,2.318001,0.3406906,-0.7511678885714286,2.1238912,1.384700565714286
297,1778427345640,1.3913006666666667,2.2958047333333336,0.2493844666666667,-0.49525900000000006,2.0702224,0.88178396
298,1778427345650,1.0943322,2.2374475,0.07280911999999999,-0.20219638999999998,1.7994562,0.2968805
299,1778427345660,0.9953280957142858,2.2045100142857144,0.003319007045714286,-0.07548548942857143,1.6181601142857145,0.00811577942857143
300,1778427345670,0.83571947,2.1315267,-0.12360477399999999,0.12749266566666667,1.23122435,-0.654313029
301,1778427345680,0.8192551283333334,2.1108955333333332,-0.150283154,0.17239126000000002,1.0840058166666666,-1.0385981666666666
302,1778427345690,0.8158925714285713,1.9570828571428573,-0.28951166285714286,0.13482667714285715,0.8751299285714286,-1.8700985285714287
303,1778427345700,0.8401811333333334,1.85796415,-0.3124674233333333,0.05222898,0.7848091,-2.2783747
304,1778427345710,0.9083863833333333,1.7597266166666667,-0.26050302,-0.10361801333333333,0.6755405933333334,-2.9163979999999996
305,1778427345720,1.0265843,1.6590602,-0.14220342,-0.22311853,0.57451874,-3.5146132
306,1778427345730,1.186140642857143,1.5036939857142857,0.004843489285714284,-0.1904372442857143,0.5547747242857143,-3.9972403714285716
307,1778427345740,1.2588641833333334,1.40191105,0.09349122833333334,-0.11349367833333333,0.5364160583333334,-4.574388083333333
308,1778427345750,1.3461150999999998,1.2214128,0.19415766999999998,0.05971208,0.52305335,-5.0573535
309,1778427345760,1.4117809857142858,1.0685118428571427,0.29882405999999995,0.47091166,0.3547163622857143,-5.560313585714286
310,1778427345770,1.4827085,0.9440795,0.36715558,0.9501354642857143,0.012893620714285714,-6.018702571428571
311,1778427345780,1.5592374,0.8602331,0.3264215,1.1099422,-0.08811731,-6.166073999999999
312,1778427345790,1.6287535333333334,0.9438559,-0.04201464000000001,0.9987646666666666,0.02214387,-6.475171800000001
313,1778427345800,1.7286984,0.8949912,-0.34837398,0.10476339,0.4821254,-6.7502136
314,1778427345810,1.9399301333333332,0.7314857333333333,-0.11771011840000001,-0.25157466,0.9216939000000001,-6.89707585
315,1778427345820,2.0637789,0.582534,0.24159946,-0.42806380000000005,1.6836972999999997,-7.2682276
316,1778427345830,2.0592056,0.6044255,0.331665675,-0.288099315,2.0759491166666666,-7.354944833333334
317,1778427345840,2.1049298000000003,0.6387669333333333,0.38002215,-0.01817324,2.2611177,-7.288386
318,1778427345850,2.1811028,0.6933941,0.4349034,0.40515637,1.9023871,-7.2460837
319,1778427345860,2.1944878500000002,0.7135477250000001,0.45621563,0.5217807266666666,1.7501289,-7.248527133333333
320,1778427345870,2.1739683,0.7102244000000001,0.53283596,1.1012591257142856,1.1204359071428571,-7.174983285714285
321,1778427345880,2.1440885,0.6796372319999999,0.503883058,1.4697417600000002,0.853775802,-6.9237606
322,1778427345890,2.0276285166666668,0.5515464,0.36033605500000004,1.8147279,0.6488916,-6.593985
323,1778427345900,1.9319420999999999,0.3895959,0.18842563,1.9201021999999999,0.5018258,-6.1645465
324,1778427345910,1.7731116333333334,0.22743197,0.069130052,1.8355483000000001,0.417755465,-5.864993433333333
325,1778427345920,1.5548163166666669,0.044545281666666665,-0.06163977166666667,1.6910277999999999,0.29764408,-5.4206653
326,1778427345930,1.3204226,-0.08778967333333332,-0.14226439,1.4609606333333334,0.30036753666666666,-5.067687133333333
327,1778427345940,1.0377695714285715,-0.23808880000000002,-0.20369655,0.8805186,0.45849801428571435,-4.309370785714286
328,1778427345950,0.8590135,-0.3401418,-0.21763465,0.6238461,0.6044512,-4.012774
329,1778427345960,0.6829057000000001,-0.45543306666666666,-0.20771536999999998,0.22591832999999997,0.9401725166666667,-3.5056030333333332
330,1778427345970,0.31855518,-0.6765029,-0.14500846,-0.09605856,1.2327261,-2.976441
331,1778427345980,0.2191417057142857,-0.7247983857142858,-0.12100009428571427,-0.09605856,1.2327261,-2.976441
332,1778427345990,0.1445816,-0.7610199999999999,-0.10299382,-0.12573643,1.2606731833333333,-2.81270365
333,1778427346000,0.09375546333333333,-0.7798320833333333,-0.09238344383333334,-0.20260364833333333,1.3243812666666668,-2.3721169833333335
334,1778427346010,-0.6472633533333334,-0.9968163,0.08655992483333334,0.12578733333333333,0.88290392,0.049989143333333354
335,1778427346020,-0.7904729,-1.0388411,0.12549512,0.29794952,0.7086037,0.56382865
336,1778427346030,-0.7915183142857144,-1.0598004714285714,0.11854349942857142,0.605062,0.43508878,1.3235923
337,1778427346040,-0.7027036,-1.0931735666666667,-0.015326098333333335,1.0791444,0.07625634533333334,2.643722933333333
338,1778427346050,-0.5667200133333333,-1.0902872,-0.16110696333333333,1.1836023333333332,-0.044338635999999994,3.3925927
339,1778427346060,-0.46874683999999994,-1.0725626,-0.23891638,1.159575,-0.11346822,3.8418841
340,1778427346070,-0.30171475,-1.0351925333333334,-0.3222139333333333,0.95417154,-0.22006421,4.404644
341,1778427346080,-0.09293224857142858,-0.9933418571428572,-0.3745079142857143,0.6935720571428572,-0.2935207457142857,4.7436086
342,1778427346090,0.08817588,-0.954141,-0.39319370000000003,0.2780964,-0.34116821999999997,5.0886602
343,1778427346100,0.26477156,-0.9252470483333334,-0.3649298366666667,-0.19407697999999998,-0.27254770666666667,5.311626066666666
344,1778427346110,0.4840932883333333,-0.8954892316666666,-0.30055617500000004,-0.47067168,-0.18891008,5.416237
345,1778427346120,0.60381573,-0.86901414,-0.24867304999999998,-0.6656904,0.09666943,5.524359700000001
346,1778427346130,0.6604450416666666,-0.83218271,-0.24976051333333335,-0.5055419066666667,-0.07045312333333333,5.600921566666667
347,1778427346140,0.892316862857143,-0.6784803228571429,-0.30619382857142863,-0.06158830714285716,-0.6329654914285714,5.739166114285714
348,1778427346150,1.0734162999999999,-0.5661509,-0.4007144366666667,0.29520063999999996,-1.2273300999999999,5.807597733333334
349,1778427346160,1.4121555799999999,-0.38836414,-0.5481051299999999,0.716208976,-2.08787628,5.844148
350,1778427346170,1.5096003,-0.33867830000000004,-0.58259493,0.81321436,-2.309376,5.839872
351,1778427346180,1.7014305500000002,-0.18750078333333334,-0.6751816549999999,0.54733525,-2.35259475,5.981974
352,1778427346190,2.0522944666666665,0.18655560000000002,-0.7324614333333334,0.14309518333333335,-2.0596339333333336,6.206645233333333
353,1778427346200,2.350546514285714,0.4984785542857143,-0.6333557857142857,-0.5441282214285714,-1.3408055714285716,6.535756442857143
354,1778427346210,2.467705,0.6219875,-0.5799119,-0.8121453500000001,-1.0377073,6.641327
355,1778427346220,2.6068594666666667,0.7667520333333333,-0.4834428466666667,-1.0893763166666668,-0.7329873933333334,6.696813933333334
356,1778427346230,2.76080135,0.9477077499999998,-0.357490375,-1.2279918,-0.58062744,6.724557399999999
357,1778427346240,2.8451660000000003,1.0562812,-0.27977243,-1.37070525,-0.42798745,6.54763555
358,1778427346250,2.903889,1.2766686142857144,-0.1948981357142857,-1.3612477142857142,-0.45518186857142856,6.377476885714286
359,1778427346260,2.8576259999999998,1.7485166333333335,-0.12750743333333334,-1.3762285499999998,-0.47736575499999995,5.976680083333334
360,1778427346270,2.8381534,1.8369365,-0.10348164,-1.4721853000000003,-0.32604933,5.6726475
361,1778427346280,2.8381534,1.8369365,-0.10348164,-1.5732325500000002,-0.11440997166666667,5.399157916666667
362,1778427346290,2.683196614285714,2.116404,0.06064813771428571,-1.6769778142857141,0.14390239714285716,5.077686428571428
363,1778427346300,2.4597776000000002,2.219214866666667,0.18523438666666667,-1.9174296000000002,0.88781627,4.1584652
364,1778427346310,2.1833996666666664,2.2808648000000002,0.3354870566666666,-1.9843957,1.163851,3.8105774
365,1778427346320,2.0243254,2.2917192,0.40166977,-1.9973767,1.5092953,3.278972
366,1778427346330,2.0243254,2.2917192,0.40166977,-1.9491183,1.618742,3.0928107666666667
367,1778427346340,1.6409189,2.2560462,0.5102634950000001,-1.48921315,1.94267875,2.09748225
368,1778427346350,1.4341428571428572,2.231820085714286,0.5261804971428571,-1.1081749571428572,1.8230837857142856,1.6281086142857144
369,1778427346360,1.1864717,2.1585405,0.47880839999999997,-0.6795876,1.6198620000000001,1.1447614
370,1778427346370,1.0622266166666667,2.090142333333333,0.3736193666666667,-0.3618358533333333,1.4042265333333332,0.7434229733333333
371,1778427346380,0.8945208257142856,1.9759776571428571,0.2248998885714286,0.07120943428571429,1.0936015,0.046294858571428565
372,1778427346390,0.75480014,1.8750484,0.11250655999999999,0.32421672,0.9228647,-0.50885075
373,1778427346400,0.7283351857142856,1.8510225714285713,0.09304549428571429,0.3645774571428571,0.8970338142857143,-0.6285803357142857
374,1778427346410,0.6106454,1.71918555,-0.021891525,0.5624541833333333,0.7282277333333332,-1.4003067166666667
375,1778427346420,0.5689356166666667,1.53701035,-0.14299615499999999,0.54629172,0.5967135516666667,-1.82289825
376,1778427346430,0.6129016,1.4558775,-0.16958306999999997,0.4485278,0.50701815,-2.1934643
377,1778427346440,0.71559054,1.3572743,-0.14287418,0.29059368333333335,0.5317072749999999,-2.5316037999999996
378,1778427346450,0.7840352542857143,1.3058863142857144,-0.08921251857142856,0.1565124,0.5842925914285715,-2.8171795571428575
379,1778427346460,0.9185901,1.214888,0.03591673,-0.020158551666666667,0.7267514733333332,-3.3499596166666663
380,1778427346470,1.0585373666666666,1.0509963,0.18314077333333334,-0.04118250066666667,0.8052476500000001,-3.740506083333333
381,1778427346480,1.1073817,0.9764797333333334,0.29026084,0.125481905,0.85439685,-4.372166
382,1778427346490,1.1120161,0.9557873999999998,0.41075566,0.2779437,0.7495316,-4.681671
383,1778427346500,1.2254881499999999,0.9006521316666666,0.4539390966666667,0.6795112200000001,0.5293401833333333,-5.028948116666666
384,1778427346510,1.4418015833333333,0.8576821499999999,0.4757086533333333,1.05733135,0.348574985,-5.485188
385,1778427346520,1.50771,0.8687092,0.41508517,1.156826,0.31520647,-5.6514196
386,1778427346530,1.7018065,0.88310033,0.30581054,1.0967576666666667,0.3736459033333333,-5.7794978666666665
387,1778427346540,1.8115284333333335,0.9031015099999999,0.29239511333333335,0.8921177866666667,0.58205278,-6.010201333333334
388,1778427346550,2.045816257142857,0.9311344914285714,0.3379813914285714,0.4377285914285714,1.089020007142857,-6.3848074
389,1778427346560,2.157488725,0.9455429875,0.40084657,0.3332651775,1.22325765,-6.483953
390,1778427346570,2.2051897,0.960178,0.4816135000000001,0.30909783,1.2754866,-6.562067
391,1778427346580,2.2029741166666668,0.9512750333333333,0.4973766066666667,0.34055739166666665,1.26286205,-6.554303933333333
392,1778427346590,2.1918962,0.9067602,0.57619214,0.4978552,1.1997393,-6.5154886
393,1778427346600,2.121735257142857,0.8486383428571429,0.48489761428571426,0.7903723714285714,1.0558805714285715,-6.284014428571429
394,1778427346610,2.0159306666666668,0.7104886,0.28040253666666665,1.1138618666666666,0.8226827800000001,-5.878661833333333
395,1778427346620,1.9473494,0.48738615999999996,0.08409027533333334,1.1477649,0.62786765,-5.543602133333334
396,1778427346630,1.9100199333333334,0.40072461,0.020133287500000003,1.1291843833333333,0.45634178833333333,-5.259447833333334
397,1778427346640,1.8083371,0.28410196,-0.073723815,1.0810788,0.31902438,-5.02681
398,1778427346650,1.6000324,0.14208147,-0.2180615,0.9122181857142857,0.18642298285714284,-4.717101571428572
399,1778427346660,1.5407911333333333,0.09785124599999999,-0.2427885533333333,0.7665340916666668,0.19430605499999998,-4.5693485166666665
400,1778427346670,1.04426822,-0.251996402,-0.34672753500000003,-0.07793623333333333,0.5662720866666667,-3.9070430666666667
401,1778427346680,0.8439516399999999,-0.38069293,-0.32703125,-0.7077383199999999,1.1449651,-3.4259868333333334
402,1778427346690,0.6221269257142857,-0.4870580242857142,-0.27617465857142853,-0.9795660799999999,1.4617569428571429,-3.115238257142857
403,1778427346700,0.17080266033333336,-0.6618170466666666,-0.10995560333333332,-1.2220613666666666,1.76743675,-2.5687901833333333
404,1778427346710,-0.01949300466666667,-0.7315263866666667,-0.01959464,-1.2557862,1.8677205,-2.0912971
405,1778427346720,-0.2073553,-0.8043413428571429,0.09331554857142857,-0.7930776357142858,1.5657566571428572,-1.1108802928571428
406,1778427346730,-0.40627368999999997,-0.89974765,0.21803102,-0.3584251885,1.2581533,-0.5413029699999999
407,1778427346740,-0.45191658,-0.925115,0.24818522,-0.046120326999999996,1.0375546,-0.16676621
408,1778427346750,-0.4452088971428571,-0.9545852871428571,0.20572629571428572,0.7662650228571428,0.4917901857142857,0.6749624714285714
409,1778427346760,-0.42069528000000006,-0.96712965,0.08707824999999998,1.333977,0.1301143,1.244638
410,1778427346770,-0.35243346285714283,-0.9625300785714286,-0.09129452142857143,1.6669857714285714,-0.17754362285714284,1.7395697142857145
411,1778427346780,-0.27568682666666666,-0.9543849999999999,-0.27273948,1.9127717666666666,-0.5641849633333333,2.4132741
412,1778427346790,-0.21152657500000002,-0.9395467166666668,-0.3869636216666667,1.8950567000000003,-0.70631295,2.7404943
413,1778427346800,-0.11883969085714285,-0.9038244999999999,-0.4923545128571429,1.6369661,-0.77640975,3.2262847
414,1778427346810,-0.050368793,-0.8826125,-0.51966447,1.2279918,-0.7350236,3.7091736999999996
415,1778427346820,0.019147458,-0.8589525,-0.5359459,0.9999355083333333,-0.6824637666666667,3.946520366666667
416,1778427346830,0.19684075,-0.8290728,-0.5311895,0.35796703,-0.49352821,4.585409
417,1778427346840,0.3686452042857143,-0.8068589142857142,-0.51634546,0.17621280085714286,-0.5032656828571429,4.778580714285715
418,1778427346850,0.6110925666666667,-0.7583369333333333,-0.4965533733333333,-0.063988134,-0.6612616,5.071403
419,1778427346860,0.6857717,-0.7340672,-0.4941142,-0.0729984,-0.84971356,5.199227
420,1778427346870,0.7844882828571428,-0.6511878114285715,-0.5168681428571429,0.010493790857142856,-1.112167417142857,5.361455285714285
421,1778427346880,0.94426244,-0.50746864,-0.5582033,0.18952094,-1.6496416,5.706245
422,1778427346890,1.2375722,-0.30465192,-0.5869245,0.34574974,-2.1363485,6.062074
423,1778427346900,1.6211920750000002,-0.0366637225,-0.635037035,0.36344574125,-2.4402539875,6.2800954749999995
424,1778427346910,1.866999,0.13616648,-0.66711205,0.34315356999999996,-2.7209466,6.490443
425,1778427346920,2.1212213,0.32916555,-0.7070534,-0.24999659999999999,-2.5261567499999997,6.597879150000001
426,1778427346930,2.3817244,0.6002789999999999,-0.68467414,-0.5888741,-2.3241893999999994,6.621932
427,1778427346940,2.62158595,0.8747969649999999,-0.48582103666666665,-1.3129784833333333,-1.7428748333333335,6.645577500000001
428,1778427346950,2.7264397,0.99243593,-0.3934376,-1.6152804000000003,-1.488984,6.645603
429,1778427346960,2.742259428571429,1.02347434,-0.3681747985714286,-1.6614007285714287,-1.4493214,6.632425771428572
430,1778427346970,2.8371778000000005,1.2097048,-0.21659799,-1.9381227,-1.2113458,6.5533624
431,1778427346980,2.8546178285714285,1.4022508714285713,0.035123999999999996,-1.8825994000000001,-1.2068952,6.206129071428571
432,1778427346990,2.8502273000000002,1.7662616333333334,0.44825783333333336,-1.6250287666666667,-1.1220576666666666,5.65847
433,1778427347000,2.76433815,1.9978605,0.58320475,-1.1282172,-0.8266024833333333,5.0155092
434,1778427347010,2.7239394,2.0651815,0.6053402,-0.9106474,-0.66889745,4.6685376
435,1778427347020,2.694649083333333,2.0818288,0.6045373166666667,-0.80687665,-0.539546725,4.435874299999999
436,1778427347030,2.3387340428571433,2.2233439714285717,0.5916373142857143,-0.5581344714285714,-0.10061822857142858,3.7158277857142856
437,1778427347040,2.1194878000000004,2.228004514285714,0.5899386142857143,-0.3891866171428572,0.3058689542857143,3.0991156999999996
438,1778427347050,1.80993275,2.1920587499999997,0.5849324933333333,-0.17348573333333336,0.8096000733333334,2.3313672666666667
439,1778427347060,1.5061070142857143,2.1160642714285713,0.5373745414285714,0.022602011999999998,1.1324569,1.7589428571428571
440,1778427347070,1.2962138,2.0484121833333337,0.47981458,0.12296208166666667,1.2567788833333333,1.4987069833333333
441,1778427347080,1.0109939499999998,1.9412819833333332,0.37896521166666663,0.35542176333333336,1.4792610999999998,0.9823731333333333
442,1778427347090,0.8988590285714286,1.890336757142857,0.3199228385714286,0.47588584142857143,1.5246323857142858,0.7704319742857143
443,1778427347100,0.66005885,1.7612003333333333,0.12687732266666665,0.722373625,1.4783956833333336,0.34302628333333335
444,1778427347110,0.5869448166666666,1.7076200000000001,0.010854292666666666,0.8961138333333333,1.3185526666666665,-0.02026036666666667
445,1778427347120,0.5734480614285715,1.6656025857142858,-0.07369767828571429,1.012051,1.181108,-0.2948952
446,1778427347130,0.56100833,1.6027765,-0.207817,1.012051,1.181108,-0.2948952
447,1778427347140,0.5632906928571428,1.5956332142857141,-0.2193333514285714,1.1362748,0.7651087371428572,-1.0914198285714285
448,1778427347150,0.59320535,1.41678995,-0.366606775,1.1081095333333333,0.34361169333333336,-2.071494866666667
449,1778427347160,0.5831438,1.3690432,-0.38014415,1.0299188,0.26175576,-2.446057
450,1778427347170,0.5687527,1.2900650833333334,-0.3800018566666667,0.9214902333333334,0.24129176666666666,-2.7563766666666667
451,1778427347180,0.5542397,1.1902524,-0.38020512,0.749557125,0.168064295,-3.161864083333333
452,1778427347190,0.5933883085714287,1.1195339714285715,-0.3814246942857143,0.5468771,0.07269296,-3.4671185
453,1778427347200,0.66028243,1.0446951,-0.36776537,0.19879299628571429,0.05002550057142857,-3.764217
454,1778427347210,0.7921498633333334,1.0027211,-0.3181689616666667,-0.12400564600000001,0.11010846,-4.008345
455,1778427347220,0.9195135571428572,0.9053141428571428,-0.1589813942857143,-0.27488936257142854,0.09378963257142858,-4.222322342857143
456,1778427347230,1.118053,0.804986,0.12561709,-0.36247216666666665,0.04566217833333334,-4.5354962500000005
457,1778427347240,1.3902204428571427,0.9833500142857143,0.18569027085714285,-0.24526239999999996,-0.08032878,-4.7094655
458,1778427347250,1.4666795714285714,1.0989404285714286,0.06279982542857143,-0.1727003342857143,0.12675454142857143,-5.014309285714286
459,1778427347260,1.5200784666666667,1.2307121666666667,-0.00919769,-0.3675372333333334,0.2526691433333333,-5.102353999999999
460,1778427347270,2.06027872,1.17177564,0.536531288,-0.836641,0.765017108,-5.18148128
461,1778427347280,2.1025007,1.1814713,0.5885709,-0.7623598,1.0596985,-5.3798904
462,1778427347290,2.1000006499999997,1.1968991,0.6094258,-0.5861252,1.4576772,-5.4997725
463,1778427347300,2.2791661428571426,1.0522826428571428,0.6894827685714285,-0.24637505018571426,1.9273452714285715,-5.518294428571429
464,1778427347310,2.35306422,1.0016072,0.708760896,0.0062613687000000005,2.0019581,-5.532301
465,1778427347320,2.3680475,0.8833006857142857,0.6047478342857142,0.9051277812428571,1.3442526428571429,-5.695511185714286
466,1778427347330,2.3182449000000003,0.7786023666666667,0.4937076866666667,1.5373951000000001,0.7119634,-5.7836723
467,1778427347340,2.273283033333333,0.5756636733333333,0.24779901333333335,1.8817194666666666,0.2634865566666667,-5.5755197333333335
468,1778427347350,2.212710433333333,0.42419141999999993,0.02065161,1.9053396000000002,-0.053348896666666666,-5.220098
469,1778427347360,2.0874825142857145,0.27938912,-0.16671703714285716,1.7743453857142857,-0.10046551571428572,-5.061738285714286
470,1778427347370,1.82963124,0.055356885599999996,-0.367399484,1.3007153759999999,-0.023151795000000003,-4.76135832
471,1778427347380,1.7837627,0.017440042,-0.39648655,0.95417154,0.09101892,-4.5846963
472,1778427347390,1.5448563833333333,-0.139032503,-0.458136465,0.31199942,0.45117489666666666,-4.3032403
473,1778427347400,1.0894537499999999,-0.40944461,-0.40889580000000003,-0.56291234,1.0155635,-3.9154935
474,1778427347410,0.8891981628571429,-0.5226611428571429,-0.3339306242857143,-1.2006557,1.4844025,-3.499647
475,1778427347420,0.55846754,-0.6772346233333333,-0.16505027833333333,-1.5940019666666665,1.8256216333333333,-2.9691105666666666
476,1778427347430,0.37523530499999996,-0.7465882916666667,-0.06046084666666667,-1.7004960999999998,1.9259053,-2.6988027
477,1778427347440,0.10085954514285715,-0.8198039428571429,0.08267903928571428,-1.4655966285714286,1.7441075285714285,-1.7647896571428572
478,1778427347450,-0.09187527799999999,-0.8651927833333333,0.17005057333333332,-1.35143755,1.6525686333333331,-1.52950475
479,1778427347460,-0.28361410000000004,-0.912919125,0.24574605000000002,-0.7719046,1.2764792999999999,-0.6999752250000001
480,1778427347470,-0.384270375,-0.9347699500000001,0.26968037833333336,-0.3914119,1.0506883,-0.20082195
481,1778427347480,-0.43539125000000006,-0.9330422,0.25214887,0.02957605833333334,0.8162687166666666,0.294742475
482,1778427347490,-0.43286497000000007,-0.9188776457142858,0.15116736042857146,0.6724099071428571,0.43308165142857147,1.0895217742857142
483,1778427347500,-0.402147405,-0.8942188666666667,-0.01718596225,1.1889728499999999,0.10738502266666668,1.8039613833333332
484,1778427347510,-0.3645944300000001,-0.8748071999999999,-0.089700356,1.3336716,0.005955935999999999,2.0761783
485,1778427347520,-0.3112638014285714,-0.8508510428571429,-0.20817416971428573,1.484598942857143,-0.21827523771428575,2.649911757142857
486,1778427347530,-0.26269826,-0.8307801500000002,-0.3123963,1.4993688,-0.34345898,2.931695
487,1778427347540,-0.07096232857142858,-0.7500350485714286,-0.5180180571428571,1.3408710142857143,-0.56042523,3.362900357142857
488,1778427347550,0.06854059,-0.71559054,-0.5721675,0.93722,-0.763887,3.9869647
489,1778427347560,0.17196124999999998,-0.7054680000000001,-0.585339,0.7093417999999999,-0.7422012916666666,4.1255549
490,1778427347570,0.44099263714285714,-0.6522331714285715,-0.5670278285714286,0.23998275714285716,-0.6843435928571429,4.464487057142857
491,1778427347580,0.6483915,-0.5966202,-0.5230183,0.14660765,-0.6893614500000002,4.5518622
492,1778427347590,0.7860215,-0.5366167,-0.5628987,0.2350304,-0.84742284,4.530329
493,1778427347600,0.91407776,-0.46588080000000004,-0.6902232,0.29754226666666667,-1.1163053466666668,4.473213266666667
494,1778427347610,0.9510137028571428,-0.44433774857142855,-0.7087782942857144,0.3480404671428571,-1.5573573,4.4492152
495,1778427347620,1.0646962,-0.38020512,-0.73278666,0.35048392,-2.037083,4.582711
496,1778427347630,1.1733003,-0.26032007,-0.74144566,0.26190847,-2.3716843,5.0471215
497,1778427347640,1.1733003,-0.26032007,-0.74144566,0.1386445914285714,-2.4146630142857144,5.392151357142857
498,1778427347650,1.4991322333333335,-0.012175506000000003,-0.7198183933333334,-0.18860465333333332,-2.395609766666667,6.0378941
499,1778427347660,1.9359972,0.2693754626666667,-0.6414195433333334,-0.382554375,-2.3632085000000003,6.365139500000001
500,1778427347670,2.3995041714285716,0.5804519885714285,-0.48477566285714285,-0.6896886757142857,-2.2386683142857144,6.659740214285715
501,1778427347680,2.718491983333333,0.80469125,-0.3608137333333333,-0.8582657,-2.1401663,6.753421
502,1778427347690,2.9768403333333335,1.0231085333333334,-0.22932232333333336,-1.1189523666666668,-1.7742072,6.627480833333333
503,1778427347700,3.0553002,1.1470182,-0.15842387,-1.2496775,-1.4854716,6.491359699999999
504,1778427347710,3.0634102999999997,1.3833125,-0.039270584,-1.32191235,-1.2872458,6.405838500000001
505,1778427347720,3.0662502,1.4413908,-0.012065163428571427,-1.4690872857142858,-0.8437139857142858,6.149362385714285
506,1778427347730,3.084153516666667,1.8285315166666667,0.17444107666666664,-1.5690074,-0.5166393,5.921422500000001
507,1778427347740,2.9352016666666665,2.1282238,0.4606264416666667,-1.4918347166666666,0.07923431416666667,4.9875365
508,1778427347750,2.8508979999999995,2.2150683,0.57003325,-1.3526083,0.28145617,4.586529
509,1778427347760,2.7116565142857145,2.3090980714285716,0.6578432585714287,-1.121570442857143,0.47900562,4.095982428571428
510,1778427347770,2.5028695333333335,2.3458685666666668,0.6696325733333333,-0.7607817666666667,0.73741616,3.3750304
511,1778427347780,2.3399129000000003,2.3574749666666666,0.65741642,-0.30130928500000004,0.9518553416666666,2.4993805833333336
512,1778427347790,1.7587613,2.3376365,0.5435683,0.17730364166666668,0.9868273716666667,1.6664657999999999
513,1778427347800,1.5324064999999998,2.2917395,0.46640934,0.4934264,0.89888823,1.1206323
514,1778427347810,1.1715317857142857,2.1946751428571427,0.3229282342857143,0.80557853,0.80557853,0.5180137
515,1778427347820,0.8999916,2.0829873,0.16074108,0.9613491766666667,0.7655668433333332,0.131743262
516,1778427347830,0.6412569,1.9618217,-0.059942525,1.1303406857142857,0.6124360385714286,-0.6505715009999999
517,1778427347840,0.53173834,1.8920616,-0.17549805,1.1012373,0.4833471200000001,-1.0458013
518,1778427347850,0.53173834,1.8920616,-0.17549805,1.1012373,0.4833471200000001,-1.0458013
519,1778427347860,0.4628725466666667,1.7388413,-0.30686748999999997,0.668261135,0.28148161499999996,-1.7238871833333331
520,1778427347870,0.47801572,1.6297903,-0.34178823,0.27857638242857147,0.25931229714285714,-2.1306108142857143
521,1778427347880,0.47801572,1.6297903,-0.34178822999999997,-0.12858713583333334,0.3802127116666667,-2.49197375
522,1778427347890,0.6165604,1.4333154,-0.22989148,-0.6394232,0.63194007,-3.004846
523,1778427347900,0.64056876,1.4140111142857141,-0.19975034285714285,-0.6823146657142857,0.6534512671428571,-3.0702086285714287
524,1778427347910,0.876209675,1.2780318499999999,0.035642321500000004,-0.9305513933333334,0.7505752233333333,-3.664453333333333
525,1778427347920,0.9584096,1.2428774,0.10890879000000002,-0.9208793600000001,0.7397578399999999,-3.9303070000000004
526,1778427347930,1.0703673,1.1862887,0.22647662,-0.8062112514285714,0.7023204628571429,-4.230983714285714
527,1778427347940,1.1761052333333333,1.1436439666666667,0.29387894,-0.5486588066666667,0.6496551666666667,-4.612796166666667
528,1778427347950,1.2886466285714284,1.1049861,0.3253151428571428,-0.24803310285714283,0.5943718714285715,-5.013501928571428
529,1778427347960,1.4006101333333334,1.0472766333333334,0.26891812666666665,-0.06207917999999999,0.58177278,-5.29940865
530,1778427347970,1.5373457428571429,0.9835156028571428,0.17610783857142856,0.11447178714285713,0.6068727957142858,-5.713357071428571
531,1778427347980,1.6207043,0.95151895,0.11890938,0.13209961333333334,0.684779945,-5.975483783333334
532,1778427347990,1.7157273285714285,0.9333296928571428,0.07688602285714286,0.03457933728571429,0.8221809857142858,-6.166793685714286
533,1778427348000,1.87759945,0.9415488016666668,0.125159735,-0.12891801796666666,1.0440196166666666,-6.325535166666666
534,1778427348010,1.9573703,0.93981093,0.16116793,-0.17786359333333332,1.1878275333333332,-6.3809966666666655
535,1778427348020,2.0312161,0.9654831,0.23611133000000004,-0.18982637,1.2425,-6.399119
536,1778427348030,2.0469225142857144,0.9676522285714286,0.26201006000000004,-0.11508264607142857,1.348136,-6.393162928571428
537,1778427348040,2.1129892,0.9102359999999999,0.38294917,0.43050726999999994,1.4514158000000001,-6.265645
538,1778427348050,2.0976834,0.85468405,0.357033,0.9572476385714285,1.2075496571428572,-6.055681857142857
539,1778427348060,2.0933742,0.8262067666666667,0.319530825,1.1850022,1.0464885,-5.943948
540,1778427348070,2.0868292,0.7574832,0.23001343,1.4060590000000002,0.8381071,-5.808412
541,1778427348080,2.0868292,0.7574831999999999,0.23001343,1.406059,0.8381070999999999,-5.808412
542,1778427348090,2.0420355999999997,0.35831359714285715,-0.17412164428571428,1.5321154857142858,0.10140362885714285,-5.162945714285714
543,1778427348100,2.0121906,0.2674139833333333,-0.26113311333333333,1.4736106,-0.008246680000000001,-5.010927566666666
544,1778427348110,1.5961702666666666,-0.016291602333333335,-0.372613195,0.6554838666666667,0.414701146,-4.6029969500000005
545,1778427348120,1.3270286,-0.1568994,-0.36026493,0.06688975,0.84971356,-4.2820125
546,1778427348130,1.1754867142857144,-0.23530118285714283,-0.3279633814285714,-0.29168814000000004,1.1650727,-3.985743
547,1778427348140,0.8623979199999999,-0.38587616,-0.25678327,-0.38774671,1.2532918000000002,-3.8029924666666663
548,1778427348150,0.6003399266666666,-0.4996023133333334,-0.19651553333333335,-0.6144795233333333,1.4375694666666667,-3.2256229333333337
549,1778427348160,0.15562755457142854,-0.6420148114285714,-0.11103435142857143,-0.6080945085714287,1.3117676571428571,-2.5305092714285715
550,1778427348170,-0.008110229,-0.69010127,-0.07537025,-0.48706322500000004,1.0253118449999998,-1.7495944166666666
551,1778427348180,-0.210386837,-0.7339017242857143,-0.004887044857142857,-0.2947424928571429,0.7884307114285714,-1.0701922857142858
552,1778427348190,-0.3135040666666667,-0.7582454833333334,0.0281012325,-0.108963085,0.6333909,-0.51877732
553,1778427348200,-0.3812824166666666,-0.7774640866666666,0.038457527666666665,-0.04046982,0.5873469,-0.32803464
554,1778427348210,-0.43622753857142854,-0.7994107685714286,0.025419602142857146,0.30693796,0.38894662,0.6017895085714285
555,1778427348220,-0.45447775999999995,-0.8107790400000001,-0.005854,0.50228393,0.27290404,1.162782
556,1778427348230,-0.45866499,-0.8143564666666667,-0.033142178333333334,0.530689165,0.213573755,1.7111863000000003
557,1778427348240,-0.4729282828571429,-0.8334458,-0.18059415857142858,0.5590944,0.15424347,2.2595906
558,1778427348250,-0.45624614,-0.8364512999999999,-0.20812188,0.40775254333333333,0.13953180333333334,2.7755680666666667
559,1778427348260,-0.32075045,-0.8349877,-0.2543441,0.19715676000000001,0.11285736,3.4162638
560,1778427348270,-0.32075045,-0.8349877,-0.2543441,0.19715676000000001,0.11285736,3.4162638
561,1778427348280,-0.02533685333333334,-0.8356890233333334,-0.24143684833333334,-0.22192225666666665,0.019700405166666667,4.255185633333333
562,1778427348290,0.24411993666666665,-0.8106875666666666,-0.21315268166666668,-0.4651993433333333,0.0333939657,4.739728833333333
563,1778427348300,0.43072200714285713,-0.7802546,-0.20871427285714286,-0.4633631028571429,0.012413654857142856,4.999430371428572
564,1778427348310,0.644305875,-0.719554155,-0.234495385,-0.343000835,-0.12705996649999998,5.1219525
565,1778427348320,0.7013214,-0.69723576,-0.25099024,-0.26190847,-0.22983804,5.158299
566,1778427348330,0.8011182,-0.6408910114285714,-0.28649754285714285,-0.007199477142857146,-0.6260277971428572,5.226584714285714
567,1778427348340,0.9829842285714285,-0.49771193571428574,-0.36753016285714285,0.3047781271428572,-1.1551680571428573,5.388507785714286
568,1778427348350,1.0574600666666667,-0.43002507333333334,-0.40036889999999997,0.47754389999999997,-1.4770721,5.551543
569,1778427348360,1.617968957142857,0.03874790785714286,-0.47397364999999997,0.61053798,-1.8899297857142856,5.894238571428572
570,1778427348370,1.8321801,0.19934091,-0.4730154,0.6236934,-2.1383338,6.135378
571,1778427348380,2.1574951285714286,0.4054853271428572,-0.47949663428571426,0.5337653142857143,-2.171844142857143,6.203576571428571
572,1778427348390,2.4370325,0.66339236,-0.49929744000000004,0.32342771666666664,-1.9990056166666668,6.166710083333332
573,1778427348400,2.4772787142857142,0.74209906,-0.50269484,0.08659015,-1.7453947,6.106362
574,1778427348410,2.492767333333333,0.8894421133333333,-0.5020212000000001,-0.06795875666666666,-1.6033685666666668,6.106412833333334
575,1778427348420,2.5690174285714287,1.1902088142857143,-0.46956570857142854,-0.8554513428571429,-1.1308205999999998,6.3695572857142855
576,1778427348430,2.86224,1.4365473,-0.4115484,-1.2224941,-1.0086912,6.570619
577,1778427348440,3.000331828571429,1.554045414285714,-0.32457468571428566,-1.4482523857142857,-0.8956811657142857,6.430731000000001
578,1778427348450,3.0875175166666664,1.8161729833333335,-0.12489550053333333,-1.8848247999999999,-0.51923543,5.9449406
579,1778427348460,3.003163,1.9427352,-0.0071955416,-2.1587977,-0.11148291,5.3889003
580,1778427348470,2.899224,1.99228085,0.0872306992,-2.2696442833333332,0.141517115,4.919552216666667
581,1778427348480,2.501226142857143,2.103084442857143,0.32872125714285716,-2.2220442,0.4020365885714286,4.2135086
582,1778427348490,2.277328,2.1304903,0.40599926999999997,-2.1248949,0.5279403,3.8211148
583,1778427348500,1.9902685833333333,2.1360289666666668,0.45945768666666664,-1.9026924833333334,0.635223525,3.4151439666666668
584,1778427348510,1.6426393428571429,2.1464579857142856,0.49532507,-1.5174328571428572,0.6224934914285714,2.932196742857143
585,1778427348520,1.42349765,2.160197166666667,0.5085458916666666,-1.2452488,0.5487097,2.6395488
586,1778427348530,1.2926363666666667,2.165614166666667,0.5059847833333333,-1.05155361,0.40622538466666663,2.4532858
587,1778427348540,1.0721357,2.1724439,0.49960235,-0.66416323,0.121256754,2.0807598
588,1778427348550,0.7877289,2.1356125,0.4337448366666667,-0.4060726766666667,-0.050396375333333326,1.6491834666666667
589,1778427348560,0.5984089,2.1025617999999997,0.39423031999999997,-0.26394469666666664,-0.07355835,1.3272574666666666
590,1778427348570,0.4570693666666667,2.036754966666667,0.3715562416666667,-0.238695595,0.25946501833333335,0.87557352
591,1778427348580,0.47075918,1.9217584,0.32953143,-0.25689066285714285,0.6892959914285715,0.28250335257142856
592,1778427348590,0.5628987099999999,1.8844697000000001,0.335019565,-0.25121832,0.86590147,-0.107359566
593,1778427348600,0.7671585466666667,1.7933160666666665,0.3478251666666667,-0.21487184,0.9924523566666666,-0.4956662553333333
594,1778427348610,0.8232187,1.7663836,0.3514839,-0.1966986,1.0557278,-0.6898196
595,1778427348620,0.8278023416666667,1.5824399166666667,0.36667789166666664,0.07406741333333333,1.2377402666666666,-1.95268165
596,1778427348630,0.7281870714285714,1.3770402714285714,0.4243278671428571,0.49857513428571426,1.1028516899999998,-2.8127071714285714
597,1778427348640,0.6866864,1.2603785,0.42856157,0.9775371,0.84039783,-3.3119586
598,1778427348650,0.6866864,1.2603785,0.42856157,0.9775371,0.84039783,-3.3119586
599,1778427348660,0.82359989625,0.9855071875,0.33065190875,1.3690635500000001,0.66173886875,-3.6656686875
600,1778427348670,0.9410305600000001,0.9208464,0.3245921,1.6106989333333332,0.43900848333333337,-4.0780346666666665
601,1778427348680,1.1435424,1.0686599,0.08744413,1.5423838333333333,0.278732715,-4.381430833333333
602,1778427348690,1.4204488,1.0344505,0.022989146,1.263422,0.29336804,-4.589125
603,1778427348700,1.6739189666666665,0.9359183833333334,0.06094868266666666,0.8986845833333333,0.6200536983333333,-4.942409166666667
604,1778427348710,1.7831527,0.9211513,0.19043794,0.5546656,1.0395399,-5.429522999999999
605,1778427348720,1.8575676333333335,0.9226554666666668,0.29601319666666664,0.403552835,1.4701235333333333,-5.586744333333333
606,1778427348730,2.0087147,0.9137729,0.4003892,0.30879238,1.7776178,-5.671119999999999
607,1778427348740,2.283426,0.9442014,0.47691807,0.4030183600000001,1.7395915000000002,-5.6955547
608,1778427348750,2.6136892,0.92974937,0.59722996,0.5884159,1.4318681000000002,-5.787643
609,1778427348760,2.8088224499999996,0.8062157283333334,0.6527718016666667,0.8419250000000001,1.1743884,-5.930127
610,1778427348770,2.829799283333333,0.6760455216666666,0.62535151,0.9603819666666666,1.1148290666666667,-5.934097666666666
611,1778427348780,2.695889,0.41288993,0.48136955,1.1972959,0.9957104,-5.942039
612,1778427348790,2.5574256666666666,0.29995652333333334,0.3849411566666667,1.1735739666666667,0.902248,-5.743711333333334
613,1778427348800,2.3859928666666668,0.14165460666666665,0.26590982,1.0700832,0.8160141733333334,-5.403154099999999
614,1778427348810,2.3348923,0.090737,0.23050124999999996,0.8258243514285714,0.8244062799999999,-4.88530762857143
615,1778427348820,1.9185701571428573,-0.21681578642857144,0.06675476550142857,0.6608907485714285,0.891143312857143,-4.6383
616,1778427348830,1.4791717,-0.44462961,-0.008384635415,0.06200282199999999,1.27342495,-3.833485
617,1778427348840,1.3072715,-0.51533496,-0.016464375,-0.067500606,1.3755158,-3.6002869999999993
618,1778427348850,1.2157010666666668,-0.5534062733333333,-0.015244791666666667,-0.18127426766666666,1.4956526333333333,-3.3794847499999996
619,1778427348860,0.6972968,-0.7544343,-0.0061588963,-0.26910796285714284,1.6626879142857143,-2.764361657142857
620,1778427348870,0.4581364700000001,-0.8280970499999999,-0.015427729,-0.26710084,1.6922494,-2.3921483
621,1778427348880,0.16348514,-0.8943204000000001,-0.025794188,-0.14630222,1.4955509000000002,-1.6960673
622,1778427348890,0.03750219,-0.91548026,-0.026708877,-0.002443461,1.210124,-1.21608
623,1778427348900,-0.23669063999999998,-0.96215984,-0.037715614,0.36774086500000003,0.6604216749999999,-0.13591752
624,1778427348910,-0.30303162142857143,-0.9712326542857143,-0.06144957571428571,0.5030475,0.5300783,0.15225816
625,1778427348920,-0.34819105,-0.974996,-0.11037229,0.5030475,0.5300783,0.15225816
626,1778427348930,-0.351097725,-0.9797015333333333,-0.1725202233333333,0.6656904166666667,0.3547090833333333,0.6305147516666666
627,1778427348940,-0.3588885271428572,-0.9944918428571429,-0.4205210314285714,0.86269444,-0.06414085,2.0680842
628,1778427348950,-0.36160645,-0.9949361,-0.45606317999999996,0.7524332399999999,-0.13912456,2.477975
629,1778427348960,-0.35022369999999997,-0.9943263,-0.5068791966666667,0.5710826233333334,-0.24437154333333333,2.9214885
630,1778427348970,-0.3246531,-1.0037171,-0.53643376,0.37720928,-0.42730023999999994,3.462995
631,1778427348980,-0.2109705,-0.9965563914285714,-0.5481417228571429,0.25874505714285717,-0.7545494885714286,4.064479314285714
632,1778427348990,-0.05335677,-0.9714591,-0.55460554,0.22357668,-1.1340714,4.5776715
633,1778427349000,0.21852901166666663,-0.9288346333333334,-0.6165299,0.22853995500000002,-1.53227915,4.97918775
634,1778427349010,0.4352083199999999,-0.9108458,-0.6816251000000001,0.13622294,-1.8038850999999998,5.277723
635,1778427349020,0.6182474283333333,-0.8855394166666667,-0.7117590166666666,0.13622294,-1.8038850999999998,5.277723
636,1778427349030,0.65485525,-0.88047814,-0.7177858,0.014748031142857141,-1.820509385714286,5.372101885714286
637,1778427349040,0.763123775,-0.83206072,-0.7144624500000001,-0.06200282099999999,-1.9321667999999999,5.46029535
638,1778427349050,0.9300136,-0.7322378533333334,-0.6846741166666667,-0.04749477166666666,-2.257961566666667,5.669491000000001
639,1778427349060,1.3815033333333335,-0.48958140666666666,-0.6216216499999999,0.22663099750000001,-2.9791897499999997,6.122778650000001
640,1778427349070,1.5486269,-0.41965863,-0.6165604,0.3587306,-3.2666018,6.302602299999999
641,1778427349080,1.6979445999999998,-0.32005932666666664,-0.6299555,0.35873060000000007,-3.2666018,6.3026023
642,1778427349090,2.3368785142857145,0.1902898542857143,-0.6616762714285714,0.2011928242857143,-3.1591332857142858,6.558205685714285
643,1778427349100,2.9382812,0.8099659666666666,-0.41022717999999997,-0.7660504683333333,-1.80296875,6.488585183333334
644,1778427349110,3.0780454,0.9265175,-0.26830834,-1.3888022,-0.8857546,6.2390723
645,1778427349120,3.071713716666667,0.9617126333333333,-0.21762448799999998,-1.4301883333333334,-0.7934630333333333,6.0819272
646,1778427349130,3.0400553,1.1376883,0.035794772,-1.49107125,-0.5973498233333333,5.718309583333333
647,1778427349140,2.9192557,1.3050760999999997,0.17927876,-1.3816244999999998,-0.53969944,5.471672500000001
648,1778427349150,2.8251037999999995,1.4638659,0.2906267,-0.97499185,-0.60378938,5.063080416666667
649,1778427349160,2.762347514285714,1.5741859,0.33766778571428574,-0.7255552,-0.6414085,4.822476
650,1778427349170,2.6621471333333333,1.7545738666666668,0.36351715,-0.5239951233333333,-0.4962516483333334,4.4529278
651,1778427349180,2.4493806166666667,1.8846119833333332,0.34006050000000004,-0.26167940500000003,-0.0038942599999999966,3.6296848999999995
652,1778427349190,2.17781,1.9557239,0.3175795,-0.17898351999999998,0.29955304499999996,3.1953596500000003
653,1778427349200,2.0407288,1.9603177666666667,0.27517864666666664,-0.11377365666666667,0.5956445133333333,2.7052675666666666
654,1778427349210,1.8021784,1.9681635999999998,0.17385160999999996,-0.06490443,0.8370381,2.043955
655,1778427349220,1.6588076714285713,1.9495301428571428,0.12263781857142857,-0.10834131571428572,0.8532478214285714,1.5687673857142859
656,1778427349230,1.4964898,1.9160874,0.09555435,-0.16126843,0.84589565,1.1626292
657,1778427349240,1.3639210000000002,1.8730361,0.089517415,-0.21487185,0.8730791999999999,0.7800749000000001
658,1778427349250,1.3639210000000002,1.8730361,0.089517415,-0.21487185,0.8730791999999999,0.7800749000000001
659,1778427349260,1.2461006,1.8165172142857142,0.07093619271428572,-0.2900519128571428,1.0041969857142858,0.170955
660,1778427349270,1.0235354,1.6842445,0.018110814,-0.28955013,1.0558805,-0.5847508
661,1778427349280,0.96097073,1.6027416142857143,0.015915562571428572,-0.20075649485714284,0.8837038285714286,-1.071850314285714
662,1778427349290,0.93493256,1.4848427,0.0420756245,0.003817908000000002,0.5495496599999999,-1.78800255
663,1778427349300,0.92846876,1.4324616,0.055186145,0.09407325,0.42149702000000006,-2.0670152
664,1778427349310,0.92846876,1.4324616,0.055186145,0.16228654,0.3539964066666667,-2.2738440333333334
665,1778427349320,0.9513882542857142,1.3197460285714284,0.06631919900000001,0.3090978285714286,0.21170843142857146,-2.7411050999999995
666,1778427349330,1.0099776,1.2188516333333335,0.05965795399999999,0.37140608,0.16798794000000003,-3.0627255000000004
667,1778427349340,1.0430282833333335,1.1631267833333332,0.00663656675,0.34824409666666667,0.22767457333333332,-3.689371583333333
668,1778427349350,1.1232885428571429,1.0750627571428573,0.01911261242857143,0.2545999,0.32295136428571425,-4.0541380857142855
669,1778427349360,1.18573995,1.0313407,0.043386677000000005,0.2109521216666667,0.3576361416666667,-4.186183116666666
670,1778427349370,1.30047225,0.9884723000000001,0.085492795,0.14060081,0.3438153133333333,-4.7146069
671,1778427349380,1.485356757142857,0.8890762571428572,0.12693250285714286,0.10598512,0.4196644,-5.277112
672,1778427349390,1.6355221999999998,0.8391343,0.14616705,0.09644035000000001,0.45242205999999996,-5.398216000000001
673,1778427349400,1.836640342857143,0.7984438142857143,0.15452121142857145,0.04555309528571428,0.5653994142857143,-5.846613285714286
674,1778427349410,1.9680722166666669,0.7732666833333334,0.16214361166666666,-0.0026470820000000007,0.6911431466666667,-6.080094666666667
675,1778427349420,2.0923173,0.7695571,0.17281497,-0.036651913,0.78969604,-6.201046000000001
676,1778427349430,2.1626610142857143,0.7719962428571429,0.19267674857142855,-0.049196468,0.8770715828571429,-6.256241928571428
677,1778427349440,2.3933715,0.75946503,0.249648705,0.014737121999999998,1.0385472833333333,-6.2521294166666666
678,1778427349450,2.464839,0.74632406,0.26440567,0.11071932,1.1058189,-6.219219
679,1778427349460,2.466312616666667,0.7126025733333333,0.25362251666666663,0.18471036666666665,1.07079594,-6.198576833333333
680,1778427349470,2.4395325,0.5839365,0.20568272,0.5546656,0.8956811400000001,-6.095366000000001
681,1778427349480,2.3525155,0.4744789,0.15385045,0.79091775,0.5740606,-5.8891993
682,1778427349490,2.3525155,0.4744789,0.15385045,0.7909177499999999,0.5740606,-5.889199299999999
683,1778427349500,2.2483628,0.15269183,-0.04463675,0.9046914333333334,0.13780102473333333,-5.4694328
684,1778427349510,2.1474424,0.088297832,-0.08564524,0.7467827499999999,0.0343611721,-5.13752935
685,1778427349520,1.6836086714285714,-0.16751848428571428,-0.14330975571428572,0.3315471,0.3022256,-4.7621527
686,1778427349530,1.5683842,-0.23178181,-0.14098383,0.033495775,0.664163225,-4.492099616666667
687,1778427349540,1.5683842,-0.23178181,-0.14098383,-0.02611449,0.73655075,-4.438089
688,1778427349550,1.1657126357142857,-0.47034974285714287,-0.11478892357142857,-0.3453570228571428,1.2514229285714287,-3.894615128571428
689,1778427349560,0.5950042166666667,-0.7691301999999999,-0.06134504649999999,-0.48622329000000003,1.4128549999999997,-3.3607514999999997
690,1778427349570,0.38325405,-0.8526717,-0.012866604,-0.45249844,1.284955,-3.0251575
691,1778427349580,0.15548671666666666,-0.9041686083333333,0.07141677,-0.36901350666666666,1.1584041333333335,-2.6955955666666664
692,1778427349590,-0.1156165,-0.9223099,0.17909582,0.0907898475,0.8738936,-1.5232434166666666
693,1778427349600,-0.1156165,-0.9223099,0.17909582,0.4118759,0.7848091,-0.8691085
694,1778427349610,-0.20062145857142857,-0.9172834857142858,0.16054943857142856,0.6457064,0.7334746142857143,-0.44859324
695,1778427349620,-0.27538192,-0.91688275,0.09653002,1.1079569,0.6253733,0.37782016
696,1778427349630,-0.26296248666666666,-0.9244644933333332,0.022318373333333336,1.3806573333333334,0.41406483,0.9197594333333333
697,1778427349640,-0.24161979,-0.9333064666666666,-0.08831815999999999,1.5665640000000003,0.19303341,1.3359623
698,1778427349650,-0.23324533,-0.9387134,-0.1393374,1.6218473,-0.052381694,1.6814066
699,1778427349660,-0.23324533,-0.9387134,-0.1393374,1.6218473,-0.052381694,1.6814066
700,1778427349670,-0.29306588,-0.9251150000000001,-0.2833702,1.2360552400000002,-0.0460897832,2.43139638
701,1778427349680,-0.30012205142857146,-0.9229719714285715,-0.2930397657142857,1.1282898571428572,0.0033161261428571428,2.5956973285714287
702,1778427349690,-0.27099144,-0.91511434,-0.30099317,0.6383542,0.33719759999999993,3.3396002999999994
703,1778427349700,-0.17683959000000002,-0.9034064,-0.29812714,0.35455638333333334,0.5661448,3.9125408833333335
704,1778427349710,-0.059454689285714284,-0.8987458285714285,-0.3231721614285714,0.2574797085714286,0.62759858,4.148996628571429
705,1778427349720,0.16896311183333335,-0.86629035,-0.38456512833333334,0.09414960533333333,0.5338198683333334,4.883638516666667
706,1778427349730,0.28321775,-0.8410246699999999,-0.411274,0.081397794,0.45982882,5.038722
707,1778427349740,0.51844488,-0.75135482,-0.47649124000000004,0.104763392,0.273896707,5.16028425
708,1778427349750,0.81175464,-0.5476539,-0.59113204,0.14508049,-0.20448714000000004,5.423261599999999
709,1778427349760,0.86814004,-0.5035456433333333,-0.61469034,0.14508049,-0.20448714,5.4232616
710,1778427349770,0.98091084,-0.41532913,-0.66180694,0.13044518166666666,-0.6510550733333333,5.691533433333333
711,1778427349780,1.4812711057142856,-0.16961790999999998,-0.70384766,0.06315910357142858,-1.5023139742857143,6.239879371428572
712,1778427349790,2.3550677428571425,0.30727402714285706,-0.6802400214285714,-0.026332654142857147,-2.124916471428571,6.655703857142858
713,1778427349800,2.7000356,0.48618690000000003,-0.6767468,-0.12156218,-2.1975877,6.6101727
714,1778427349810,2.7000356,0.4861869,-0.6767468,-0.21842796285714286,-2.1516855857142856,6.542366757142857
715,1778427349820,2.969207866666667,0.7139136166666668,-0.6697138833333334,-0.5706753833333333,-1.8279888333333332,6.264601216666667
716,1778427349830,3.2064676,1.07738,-0.6133285,-0.9288460500000001,-1.4471397999999998,5.980090916666666
717,1778427349840,3.1798197,1.2139733,-0.5149386,-1.5442928766666668,-0.7424049166666666,5.628105049999999
718,1778427349850,3.1531718,1.3505666,-0.4165487,-1.8835811428571427,-0.2383029,5.252982714285714
719,1778427349860,2.8903414166666668,1.5402931000000002,-0.122029475,-1.9900463000000002,0.11323914000000002,4.922123083333333
720,1778427349870,2.599054,1.639181,0.09695687999999998,-2.01555,0.552833,4.4785585
721,1778427349880,2.4124316714285716,1.701301357142857,0.20734660285714285,-1.7730363571428571,0.6768386714285715,4.163177471428571
722,1778427349890,2.1428080166666668,1.7910191500000001,0.35837458333333333,-1.3778065,0.6993388899999999,3.7911315
723,1778427349900,2.0388386,1.8254724,0.377583,-1.0998629,0.61727935,3.5842519
724,1778427349910,1.9436500499999998,1.833735,0.3445323,-0.7987317583333334,0.5985970333333334,3.144708716666667
725,1778427349920,1.746423,1.8320376833333334,0.2724549333333333,-0.6561201833333333,0.6820310466666667,2.719571966666667
726,1778427349930,1.5427322666666665,1.8121280166666667,0.21902701166666663,-0.64858615,0.75594574,2.5384505
727,1778427349940,1.3649577,1.7926656,0.17159538,-0.6719299285714285,0.9683304971428571,2.1082268571428573
728,1778427349950,1.0693306483333334,1.7547365166666669,0.11009788416666666,-0.7347181566666667,1.2443070666666667,1.5250759833333334
729,1778427349960,0.90517473,1.7353451,0.082016975,-0.7649560000000001,1.3135638666666667,1.1453723666666666
730,1778427349970,0.78553365,1.7173127857142858,0.07752194214285714,-0.7495316,1.1959214,0.66446865
731,1778427349980,0.6245224914285714,1.6600794,0.07231258142857143,-0.6830782171428572,0.954455142857143,0.2595959042857143
732,1778427349990,0.5467392,1.6292412999999997,0.07049192,-0.5705481499999999,0.6023895,-0.33567046
733,1778427350000,0.48380873,1.5786897,0.11037229,-0.5193882,0.4578435,-0.58276546
734,1778427350010,0.5225508166666667,1.5284428333333333,0.19320233,-0.3746640333333333,0.27555112,-1.1462886
735,1778427350020,0.57247245,1.4925871,0.22861089,-0.3042109,0.25610524,-1.4135422
736,1778427350030,0.6166823250000001,1.4531538499999999,0.26636716499999996,-0.20316360833333336,0.27379487333333336,-1.7599536999999998
737,1778427350040,0.6825906333333333,1.4009862,0.33666599333333336,0.029830576666666653,0.21329378,-2.3360505333333332
738,1778427350050,0.7678583857142858,1.2987169428571428,0.4423428714285715,0.3803945285714286,0.07441647285714285,-2.929142542857143
739,1778427350060,0.8291133999999999,1.1581367,0.48639013999999997,0.9430741666666668,-0.15093462,-3.6525161333333336
740,1778427350070,0.8735091042857143,1.105352057142857,0.4414717514285714,1.1676689,-0.20972312857142855,-3.9297180000000003
741,1778427350080,0.9776383416666666,1.0621859333333334,0.3637610633333333,1.2902236833333334,-0.228081815,-4.1886521666666665
742,1778427350090,1.1370684333333332,1.02141115,0.25076667166666666,1.2415326666666668,-0.16055575,-4.626489666666667
743,1778427350100,1.3364194333333332,1.0195717,0.13622746333333333,1.0044151666666667,0.004225150000000001,-4.9764645
744,1778427350110,1.4740291,1.0346539000000001,0.09750568999999999,0.62598415,0.262519345,-5.26100065
745,1778427350120,1.6066181428571429,1.0544430142857144,0.09147745942857143,0.38477966571428573,0.42998369428571426,-5.403539542857142
746,1778427350130,1.7460164,1.0785385,0.110189356,0.01888592,0.70341134,-5.590842333333334
747,1778427350140,1.9788756,1.1134999333333333,0.19279579866666666,-0.19715676000000001,0.8753699,-5.710978999999999
748,1778427350150,2.1799443,1.138725,0.2704426,-0.30482176,1.0812823999999999,-5.807699666666667
749,1778427350160,2.425899414285714,1.1200653714285715,0.33818175999999994,-0.27955810857142854,1.225853857142857,-5.868408057142857
750,1778427350170,2.5857606,1.0868317,0.37642440000000005,-0.20112738,1.3159565,-5.9114957
751,1778427350180,2.639526828571429,1.0386059285714286,0.38520539428571426,-0.17475109157142857,1.3210397714285713,-5.9155536
752,1778427350190,2.6598301666666666,0.8890660666666667,0.3447355566666667,0.2720132065,1.2604950166666666,-5.9138628
753,1778427350200,2.5976517,0.80693734,0.28257746,0.4653266,1.1375839,-5.852699800000001
754,1778427350210,2.4784170666666667,0.62818706,0.13726410633333333,0.7043276400000001,0.75502944,-5.5338283
755,1778427350220,2.3636746,0.46978348,0.017318083,0.70524395,0.63178736,-5.311015
756,1778427350230,2.2448871,0.37700369,-0.023233063499999995,0.6108652499999999,0.6713917866666667,-5.152190133333334
757,1778427350240,2.0442046,0.24041037499999998,-0.077870398,0.500680425,0.7483099000000001,-4.99405235
758,1778427350250,1.750067342857143,0.09711367942857142,-0.12092168585714284,0.38318704142857146,0.8616036142857143,-4.8344746
759,1778427350260,1.2748426600000002,-0.1219217484,-0.15559444,0.06743952080000001,1.19928126,-4.32810252
760,1778427350270,1.1381152,-0.18580352999999997,-0.15866779,-0.029321533,1.2996159,-4.153731
761,1778427350280,0.82557663,-0.31880925,-0.15233612333333332,-0.205098,1.500285,-3.7594175
762,1778427350290,0.61723113,-0.39020569999999993,-0.13683724,-0.3155627916666666,1.5735889166666668,-3.400025
763,1778427350300,0.551404115,-0.41270700999999993,-0.12939778999999998,-0.35903603333333334,1.5872315666666665,-3.2336150999999997
764,1778427350310,0.41124350000000004,-0.47293411333333335,-0.09827809566666666,-0.448680515,1.5676329000000002,-2.7070492499999994
765,1778427350320,0.1575905,-0.6334516166666666,-0.003963646166666666,-0.47431140499999996,1.5582154166666669,-1.9835558666666666
766,1778427350330,0.058627115714285714,-0.7116617285714285,0.03164818885714286,-0.4064653714285714,1.5657348285714285,-1.6278685857142856
767,1778427350340,-0.08228121966666667,-0.7954732366666667,0.06708724866666667,-0.24225898,1.5577064,-1.1578950333333333
768,1778427350350,-0.22949508833333332,-0.8532509833333334,0.08372440333333335,-0.054774252,1.5212581,-0.7488189666666667
769,1778427350360,-0.39473845333333335,-0.8989955333333333,0.039758416,0.4074471261666666,1.2871185166666665,0.10713050000000002
770,1778427350370,-0.4547826,-0.9224928,-0.007927292,0.7602981400000001,1.00721495,0.848771805
771,1778427350380,-0.46100248666666666,-0.9260703133333333,-0.042360194,0.9499463666666665,0.7820093,1.3411037433333333
772,1778427350390,-0.41728044,-0.9203586,-0.17031482,1.1697632999999998,0.30604348285714283,2.2142993
773,1778427350400,-0.2943667583333333,-0.9053170866666668,-0.26086887333333336,1.1878275,0.08429939999999998,2.5784621
774,1778427350410,-0.22543996999999996,-0.8946254000000001,-0.3055666,1.0674615666666665,-0.17707456666666666,3.0564897833333333
775,1778427350420,-0.14787449,-0.8881616,-0.33288527,0.8392779666666668,-0.27163141,3.3690237
776,1778427350430,0.055653655,-0.8618999183333335,-0.3376924766666667,0.5423210866666667,-0.2678134966666667,3.66829675
777,1778427350440,0.1387886,-0.83791476,-0.32971436,0.31490102,-0.11636982999999998,3.835012
778,1778427350450,0.16098500666666668,-0.8267759199999999,-0.3300802333333333,0.21370102000000002,-0.01659517266666666,3.9089266666666664
779,1778427350460,0.22912923,-0.797881925,-0.338952705,0.04329507500000001,0.107741353,4.0960805
780,1778427350470,0.3298363,-0.7526049,-0.36099666,-0.092240654,0.1638646,4.2879686
781,1778427350480,0.5596464783333334,-0.6848570500000001,-0.4495180916666666,-0.09705121700000001,-0.51933727,4.6798896
782,1778427350490,0.67205137,-0.6592458,-0.4927116999999999,-0.0936151,-0.79061234,4.826141
783,1778427350500,0.8135927014285714,-0.5812272857142856,-0.4882514828571428,-0.074307394,-1.0454086228571429,4.969410714285714
784,1778427350510,1.16887915,-0.3952466233333333,-0.4747939433333333,0.03677917866666667,-1.7528524,5.358102783333333
785,1778427350520,1.5367868499999997,-0.19517398249999998,-0.47462116666666665,0.16264287,-2.2551618,5.626221699999999
786,1778427350530,1.9010866,0.045795355,-0.5137495,0.31429017,-2.8997774,6.0057216
787,1778427350540,1.9010866,0.045795355,-0.5137495,0.31429017,-2.8997774,6.0057216
788,1778427350550,2.0142029333333333,0.10610375666666666,-0.5170830233333333,0.29385163666666664,-2.9927561666666667,6.150471216666666
789,1778427350560,2.5117580428571427,0.35401892142857144,-0.49952392571428567,0.12538008857142857,-2.9876982571428568,6.596188257142857
790,1778427350570,2.9809462166666667,0.6474869783333334,-0.46488485,-0.12079860000000002,-2.4523184,6.685462
791,1778427350580,3.12957275,0.85587313,-0.46652112000000007,-0.4773911833333333,-1.7458783166666665,6.704042333333334
792,1778427350590,3.372409571428571,1.2619029142857143,-0.4509409714285714,-0.8907942,-0.97051215,6.558096400000001
793,1778427350600,3.350927,1.4265466,-0.4180122,-1.1774936,-0.46003243000000005,6.282901466666668
794,1778427350610,3.3256715,1.4541905,-0.38491067333333334,-1.3208433,-0.20479257000000003,6.145304
795,1778427350620,3.1993940000000003,1.5924099999999999,-0.21940304,-1.5620914714285714,0.19733129,5.656154014285714
796,1778427350630,3.199394,1.59241,-0.21940304,-1.6629279,0.38744128,5.4066157
797,1778427350640,3.1119396666666663,1.68499675,-0.09947734833333333,-1.6629279,0.38744128,5.4066157
798,1778427350650,2.9531397333333333,1.8177891,0.06890646333333333,-1.4442382,0.46700647,4.824461
799,1778427350660,2.8824852,1.8749266,0.1411058,-1.4442381999999998,0.46700647,4.824461
800,1778427350670,2.8824852,1.8749266,0.1411058,-1.3739632333333336,0.4765512416666667,4.703764216666667
801,1778427350680,2.6851159333333334,1.9141565333333332,0.19757250666666668,-1.0225884,0.5242751,4.1002803
802,1778427350690,2.5864313,1.9337715,0.22580586,-0.7439320666666666,0.5174537666666666,3.5671985666666663
803,1778427350700,2.5864313,1.9337715,0.22580586,-0.5920302566666666,0.5135340533333334,3.2660419666666667
804,1778427350710,2.414897,1.9351943,0.21123183999999998,-0.56688297,0.51251596,3.1968105
805,1778427350720,2.0718284,1.9380399,0.1820838,-0.56688297,0.51251596,3.1968105
806,1778427350730,2.0934352666666665,1.9383245,0.18484819,-0.56688297,0.51251596,3.1968105
807,1778427350740,2.0635349666666665,1.9374403333333332,0.18481770166666667,-0.56688297,0.51251596,3.1968105
808,1778427350750,1.6979648,1.9301734999999998,0.15702136,-0.56688297,0.51251596,3.1968105
809,1778427350760,1.6979648,1.9301735,0.15702136000000003,-0.5051637557142857,0.5597052914285714,2.9456795142857146
810,1778427350770,1.6979648,1.9301734999999998,0.15702136,-0.42287147,0.6226244,2.6108382
811,1778427350780,1.6979648,1.9301734999999998,0.15702136,-0.42287147,0.6226244,2.6108382
812,1778427350790,1.6979648,1.9301735,0.15702136000000003,-0.3795873157142857,0.7334528,2.4036675714285716
813,1778427350800,1.5931417,1.9273685,0.15552737,-0.34712419999999994,0.8165741,2.2482896
814,1778427350810,1.37968415,1.9273685,0.1205253275,-0.34712419999999994,0.8165741,2.2482896
815,1778427350820,1.2710497,1.9301734999999998,0.087017275,-0.34712419999999994,0.8165741,2.2482896
816,1778427350830,1.2710497,1.9301734999999998,0.087017275,-0.24124087500000002,0.9453648833333334,1.8505907666666666
817,1778427350840,1.2710497,1.9301734999999998,0.087017275,-0.22006421,0.97112304,1.771051
818,1778427350850,1.2710497,1.9301734999999998,0.087017275,-0.22006421,0.97112304,1.771051
819,1778427350860,1.2368912166666668,1.9339948833333331,0.06981098616666667,-0.14401148333333333,0.8844819666666667,1.4159347333333334
820,1778427350870,1.0660988,1.9531018,-0.016220458,-0.10598512,0.84116143,1.2383766
821,1778427350880,1.0660988,1.9531018,-0.016220458,-0.10598512,0.84116143,1.2383766
822,1778427350890,0.9511530916666667,1.953000216666667,-0.08212877633333333,-0.10598512,0.84116143,1.2383766
823,1778427350900,0.92816395,1.9529799,-0.09531044,-0.08984809666666667,0.7312566033333333,1.0521136
824,1778427350910,0.8892795466666666,1.9471665333333334,-0.11527095666666666,-0.05757405000000001,0.51144695,0.6795876
825,1778427350920,0.81151074,1.9355398,-0.15519199,-0.05757405000000001,0.51144695,0.6795876
826,1778427350930,0.81151074,1.9355397999999997,-0.15519199,-0.07699083571428571,0.3506584857142857,0.4285874214285714
827,1778427350940,0.81151074,1.9355398,-0.15519199,-0.08475755,0.2863431,0.32818735
828,1778427350950,0.6752731483333334,1.8865023833333332,-0.17602653166666668,-0.20937406333333333,0.05961027333333333,-0.14940746333333332
829,1778427350960,0.5232361171428571,1.7590398714285713,-0.13984266,-0.7279768342857142,0.015533428,-1.1410308385714285
830,1778427350970,0.6465969657142858,1.3661598571428573,0.2554678715714286,-1.1140873628571428,0.5009749514285715,-2.458950814285714
831,1778427350980,1.1357064733333333,0.9273610666666666,0.27247525833333336,-0.6736316700000001,0.8171849999999999,-3.856087
832,1778427350990,2.0305860333333334,0.9786953666666668,0.3530693866666666,-0.6736316700000001,0.8171849999999999,-3.856087
833,1778427351000,2.137065833333333,0.6371103216666667,0.13438791949999998,1.3902274883333334,0.31154128000000003,-4.586783433333333
834,1778427351010,1.7537347142857143,0.18141302514285715,-0.17832051000000002,1.245357877142857,-0.09481501428571429,-3.963686342857143
835,1778427351020,1.3706999166666665,-0.06287968916666666,-0.17927874833333335,0.19845484,0.782747475,-3.6187656999999995
836,1778427351030,1.1961673,-0.14055698,-0.14000817,-0.13998995333333333,1.1680761499999999,-3.328655533333333
837,1778427351040,0.6604741,-0.4794617685714285,-0.013415417142857142,-0.24537148142857143,1.2654509857142855,-3.0803097142857143
838,1778427351050,0.391461872,-0.635622444,0.041904883399999995,-0.2864958,1.1606439,-2.3440428
839,1778427351060,0.19519432,-0.72662777,0.084578104,-0.24225170571428573,1.0692759857142857,-1.890082542857143
840,1778427351070,0.053368969,-0.7763258260000001,0.12399503679999999,-0.178250482,1.0711828,-1.4551420800000001
841,1778427351080,-0.038294915,-0.81340116,0.15196009,-0.05305801142857143,1.1374965142857143,-0.8588765028571429
842,1778427351090,-0.052706326666666664,-0.8238082499999999,0.15366750333333332,0.050701815000000004,1.1965322333333333,-0.47118071
843,1778427351100,-0.09932489833333334,-0.8905804116666666,0.11788289083333332,0.356770745,1.2470304833333334,0.30881782166666666
844,1778427351110,-0.10262794000000001,-0.8987109700000001,0.100859545,0.4817436,1.2279664166666666,0.5745696333333333
845,1778427351120,-0.09988387857142857,-0.91324144,0.04454092685714285,0.5725989,1.1473358428571427,0.7757333714285713
846,1778427351130,-0.08400896833333334,-0.9440184833333333,-0.063296376,0.8075638833333333,0.6757697,1.52235255
847,1778427351140,-0.02573320916666667,-0.9872018916666666,-0.18387250833333335,0.8097273600000001,0.573755205,1.6377551666666665
848,1778427351150,0.02765840857142857,-1.00732362,-0.2444916157142857,0.6257223742857143,0.19665497285714287,2.235875857142857
849,1778427351160,0.05390558,-1.0106688,-0.25568563,0.47296239999999995,0.1255328,2.5506678
850,1778427351170,0.09774961,-1.01185785,-0.232726985,0.47296239999999995,0.1255328,2.5506678
851,1778427351180,0.17749004000000002,-0.9997534333333333,-0.2358674133333333,0.37293322,0.25498532,3.3677001
852,1778427351190,0.22729548,-0.9832280857142858,-0.28618394857142854,0.36972618000000007,0.2764165,3.5990653
853,1778427351200,0.28232335333333336,-0.9667434,-0.3713428266666667,0.6325509850000001,-0.0271835,4.1743476500000005
854,1778427351210,0.3827662457142857,-0.9416838428571428,-0.6091383271428572,0.73884153,-0.20173825,4.4241915
855,1778427351220,0.46211030999999997,-0.9215882666666667,-0.7166170083333333,0.7982482000000001,-0.6246097,4.841107
856,1778427351230,0.60759646,-0.8777341,-0.8510253,0.7877107,-1.259146,5.416237
857,1778427351240,0.76937413,-0.793217,-0.9452381,0.7348708666666667,-1.473457866666667,5.631668666666666
858,1778427351250,1.0156080433333334,-0.6581684933333333,-0.9650359666666667,0.6291912,-1.9020816,6.062532
859,1778427351260,1.138725,-0.59064424,-0.9749349,0.44758604999999996,-2.2684734333333334,6.58011325
860,1778427351270,1.6185003571428571,-0.34328658285714286,-0.9888294714285715,0.2675807885714286,-2.4305454857142856,6.911700300000001
861,1778427351280,1.8534922499999997,-0.22023642333333335,-0.9952003666666666,-0.09162979,-2.6525297,7.4818773
862,1778427351290,2.54575825,0.164592935,-0.9757480350000001,-1.09047084,-1.9957222166666666,7.732968633333333
863,1778427351300,3.166953,1.3234309,-0.19190145,-2.249664,-0.9283624,7.570911
864,1778427351310,3.1044495,1.4352666,0.10323773,-3.649548985714286,0.005214178571428565,6.2859561428571435
865,1778427351320,2.92790465,1.6163747666666666,0.3690662616666667,-3.56261705,-0.20306178,5.598528966666667
866,1778427351330,2.7786379999999995,1.741382,0.53033584,-3.1436653,-0.41508293,5.2607713
867,1778427351340,2.6365564,1.8462054,0.7484583,-2.6630670000000003,-0.5859724999999999,4.9309044
868,1778427351350,2.4553159166666667,1.9457538166666666,0.8110432266666666,-1.9883664,-0.6062838,4.500397
869,1778427351360,2.1766514999999997,2.02380705,0.79849173,-1.8089247000000002,-0.556880065,4.352185850000001
870,1778427351370,2.0007875,2.0715232,0.8004736,-0.95249164,-0.18891008,3.5340083
871,1778427351380,1.8455955,2.0983032,0.7900054583333334,-0.572737065,0.04894557499999999,3.0431524666666667
872,1778427351390,1.8145571,2.1036592,0.78791183,-0.4484841642857143,0.13836097285714286,2.8609873285714285
873,1778427351400,1.5402030714285715,2.131727242857143,0.7011733185714285,-0.24761858857142857,0.3333578942857143,2.4431991714285712
874,1778427351410,1.3157475,2.1271362,0.60546213,-0.07437284,0.573297,1.8797851
875,1778427351420,1.1731172333333333,2.0715639666666665,0.5157414533333333,-0.015729779333333332,0.858062,1.4323263666666666
876,1778427351430,1.039024,2.0087757,0.44770905,0.06093381,1.2568552,0.8177959
877,1778427351440,1.0020445714285715,1.970750842857143,0.42536455,0.10282171285714285,1.2935944,0.66503594
878,1778427351450,0.9454210399999999,1.8823049,0.409658,0.47662762,1.3263412,-0.39278635
879,1778427351460,0.8919510171428572,1.759736842857143,0.40042404285714284,0.8167486657142857,1.1600549514285716,-1.0400853585714285
880,1778427351470,0.8312070400000001,1.6135697,0.3712411500000001,1.2501358,0.94714653,-1.7881553
881,1778427351480,0.8156573328571428,1.4756696999999999,0.36814865,1.5493505857142857,0.7869035085714285,-2.2549218714285715
882,1778427351490,0.8204572428571428,1.3513854142857142,0.3601604,1.708480942857143,0.6976735571428572,-2.4957118714285715
883,1778427351500,0.7764477533333333,1.2397878333333334,0.22411876666666666,2.271197,0.29443705,-3.361286
884,1778427351510,0.7488242,1.033231,0.053844605,2.2976169,0.23375776866666664,-3.4609079
885,1778427351520,0.8981622000000001,0.9238344,0.09384694,2.3935991166666666,-0.014228068166666668,-4.1203369499999996
886,1778427351530,0.9638367200000001,0.8098947999999999,0.0493931285,2.3474279333333334,-0.036270123833333334,-4.34314995
887,1778427351540,1.0200682428571428,0.6735758714285714,0.09379467071428571,2.0672116285714286,0.10358529285714287,-4.849113842857143
888,1778427351550,1.1226875,0.5772288,0.24794129,2.0680842,0.20830505,-4.9548807
889,1778427351560,1.111327857142857,0.5437425071428571,0.4271939057142857,2.4732843,0.1171988557142857,-5.182187957142857
890,1778427351570,1.1623340000000002,0.561394525,0.4268338366666667,3.2071952333333336,-0.3596469166666667,-5.1759122333333325
891,1778427351580,1.3654455,0.7072363999999999,0.12214127000000001,3.4083226,-0.4970916,-5.140584
892,1778427351590,1.4288638,1.0915271,-0.2423312,3.2766812,-1.3515394,-5.254052
893,1778427351600,2.008430133333333,0.8508626666666667,-0.10069693,2.8102347,-1.7730872666666666,-5.029660866666666
894,1778427351610,2.3649288285714287,0.9339133428571429,-0.2705558514285714,2.4137684714285714,-1.696525457142857,-5.214083799999999
895,1778427351620,2.4917104,0.9930457,-0.52336386,1.5213598499999998,-1.29793595,-5.4867152
896,1778427351630,2.5404532,0.8837711,-0.5868635,1.0193814,-1.0386237,-5.554445
897,1778427351640,2.4398898571428567,0.8180181285714286,-0.5090366685714286,0.3830779714285714,-0.7395178457142857,-5.497241857142856
898,1778427351650,2.3078785,0.82657266,-0.30507877,-0.42164972,-0.40958515,-4.9820642
899,1778427351660,2.428172971428572,0.6238953314285715,-0.1959260657142857,-0.6599962542857144,-0.36180675999999995,-4.674930057142857
900,1778427351670,2.449370533333333,0.2725768766666667,-0.16870903,-1.0364346466666665,-0.22082778,-4.044793333333334
901,1778427351680,2.4133725,0.22202514000000004,-0.17921777000000003,-1.0877982,-0.1769982,-3.986201
902,1778427351690,2.176233214285714,0.052990895142857146,-0.18596032142857144,-1.3016010714285713,-0.030565076857142857,-3.874543657142857
903,1778427351700,1.773945,-0.16025324,-0.16872935,-1.6475036,0.19700404000000002,-3.7058141
904,1778427351710,1.510123,-0.27524253285714284,-0.12512925,-1.8713420285714286,0.34339354714285714,-3.579495885714285
905,1778427351720,1.0755506042857144,-0.4622046442857143,-0.013058253571428572,-2.1718878,0.65921085,-3.330219085714286
906,1778427351730,0.90596753,-0.53692156,0.04006331,-2.2412646,0.7699956,-3.2328515
907,1778427351740,0.37791839166666663,-0.77074621,0.22274673833333333,-2.1636846833333334,0.9869800666666667,-2.6482280333333335
908,1778427351750,0.17805915999999997,-0.8598063,0.2968466,-1.9798143,1.0511464,-2.1227567
909,1778427351760,0.09317616333333334,-0.8933854999999999,0.32274241333333337,-1.8161787666666667,1.0746137833333334,-1.82180375
910,1778427351770,-0.1936872642857143,-0.9828187142857142,0.3847001428571429,-1.229737242857143,1.1299043285714288,-0.7969173485714285
911,1778427351780,-0.2534904,-1.006949,0.3904496,-0.7938848428571428,1.0442959142857142,-0.11654436285714284
912,1778427351790,-0.284986145,-1.0248666833333333,0.36777551999999997,-0.31169399999999997,0.8184067,0.5072726866666667
913,1778427351800,-0.29318783,-1.0222547,0.3144086,0.0627664,0.5917757,0.93722
914,1778427351810,-0.28414259666666664,-1.0127521166666666,0.20866054999999997,0.3715587833333333,0.28283060666666665,1.2847005333333332
915,1778427351820,-0.25362107285714286,-0.9843344428571429,0.04252861357142857,0.98914355,-0.33505957999999997,1.9796616
916,1778427351830,-0.19604802571428573,-0.97214732,-0.15376332285714286,1.1900091142857143,-0.7710428442857143,2.5071654000000003
917,1778427351840,-0.14784399499999998,-0.9690504799999999,-0.272729325,1.1900164,-0.9262753333333333,2.8300368
918,1778427351850,-0.08244383599999999,-0.95865352,-0.36203331,1.1180362,-0.9584476,3.0558534
919,1778427351860,-0.038538832,-0.95383614,-0.40593830000000003,0.8474737416666667,-0.8104400166666667,3.5292738999999997
920,1778427351870,0.06927233,-0.9476772,-0.43374482,0.45361108285714286,-0.6171702428571428,4.176572571428571
921,1778427351880,0.24605094833333332,-0.9442623833333332,-0.45869547000000005,0.33134349,-0.6083709,4.4277037833333335
922,1778427351890,0.5082004,-0.9206024999999999,-0.49807783999999994,0.20499619333333333,-0.7744244,4.844263266666666
923,1778427351900,0.7294937999999999,-0.872307,-0.5895466,0.19104810000000003,-0.9283624,5.0084844
924,1778427351910,0.8952351428571428,-0.8080175142857142,-0.6610489942857143,0.14937836714285715,-1.3267338,5.1868132000000005
925,1778427351920,1.1376883,-0.63765913,-0.7370552,0.089491755,-1.6836972999999997,5.320178
926,1778427351930,1.3049629142857142,-0.47838158000000003,-0.6876098228571428,-0.06643159285714285,-2.0239493142857143,5.584748285714285
927,1778427351940,1.5292356,-0.28617525,-0.58887583,-0.2903136966666667,-2.3738223333333335,6.03858125
928,1778427351950,1.8082661,-0.1091832,-0.48236555500000006,-0.42394048,-2.394439,6.4105725
929,1778427351960,2.158347366666667,0.12089120166666667,-0.39256355833333334,-0.60037873,-2.1923698833333334,6.707224116666667
930,1778427351970,2.6992428,0.4999072,-0.32367742,-0.7704538,-1.9291124,6.840774499999999
931,1778427351980,3.0127542000000003,0.7565423571428571,-0.3057146942857143,-0.8856891514285714,-1.7388715285714285,6.7168342857142855
932,1778427351990,3.1207919999999993,0.9557874,-0.27586976,-1.3350678000000002,-1.055662442857143,6.1988641428571425
933,1778427352000,3.120792,0.9557873999999998,-0.27586976,-1.5241087999999998,-0.8191703,5.995642
934,1778427352010,2.974319833333333,1.4623922333333335,0.025651902499999994,-1.757612,-0.51358496,5.728388666666667
935,1778427352020,2.9293172,1.6705244,0.20909756,-1.9317086,-0.27412578,5.46984
936,1778427352030,2.8641203833333333,1.8581165333333332,0.30070859666666666,-1.9233347,0.01165734666666666,5.084231366666667
937,1778427352040,2.78731715,2.0493980666666665,0.4702002,-1.8937332333333334,0.41854452,4.4728061666666665
938,1778427352050,2.6603687666666667,2.1092896666666667,0.52664656,-1.8445076833333331,0.7556148833333333,3.96339555
939,1778427352060,2.4428256,2.153906,0.57131386,-1.8025106,1.0823005,3.5111008
940,1778427352070,2.177362766666667,2.202283,0.6085619433333334,-1.664786,1.4534775166666665,2.936276533333333
941,1778427352080,1.7734483857142858,2.2706812714285713,0.6146438471428571,-1.3390166142857143,1.6892605285714286,2.163030214285714
942,1778427352090,1.5771041666666665,2.291759733333333,0.5786516199999999,-1.1239921,1.7241671,1.7632625
943,1778427352100,1.5052706999999999,2.2904994,0.5467392,-0.6724862799999999,1.4760031,0.92576625
944,1778427352110,1.3445092833333334,2.2383520666666668,0.4428408716666667,-0.50900346,1.352761,0.5881105
945,1778427352120,1.2286779714285714,2.1530176142857145,0.38056229,-0.29443705,1.1307116,-0.08750644
946,1778427352130,1.1534616333333332,1.9905022666666667,0.34648362666666666,-0.04713843999999998,1.083395,-0.7553094633333334
947,1778427352140,1.1135812666666667,1.8437864666666666,0.31345325333333335,0.17760906666666668,1.08958,-1.4448490666666667
948,1778427352150,1.091954,1.7444309999999998,0.286907,0.31054862833333335,1.1583277333333333,-1.9377408666666665
949,1778427352160,1.0624806666666666,1.58364925,0.2694771,0.44990227,1.2368494,-2.4168882
950,1778427352170,1.0047363142857144,1.4386466142857144,0.22966496857142854,0.6220353528571428,1.2210105142857142,-2.878964314285714
951,1778427352180,0.9827301333333334,1.2479894666666667,0.14925667166666665,0.73349644,1.1713341,-3.199508533333333
952,1778427352190,1.0165228,1.0616473,0.08451713,0.93401295,1.0607675,-3.8699841
953,1778427352200,1.08125215,0.8902044,0.06957723,1.0010555,0.9130908,-4.139834
954,1778427352210,1.0639732857142856,0.8030782114285715,0.019347818428571424,1.2445943428571429,0.3903428914285714,-4.833558485714286
955,1778427352220,1.0034122,0.83956116,-0.051771317000000004,1.246776,0.19181168,-4.987409
956,1778427352230,1.1442217428571428,0.6619549885714286,-0.07372381528571428,1.100255582857143,0.2433861657142857,-5.064291
957,1778427352240,1.2506624,0.5902376733333333,-0.047380815,0.9055059133333333,0.38021270333333335,-5.213480466666667
958,1778427352250,1.3018181714285715,0.5903480371428571,-0.030114997857142858,0.5697846,0.75869465,-5.522833
959,1778427352260,1.5180154000000001,0.54240966,-0.03597771,0.065209866,1.2064588,-5.694944
960,1778427352270,1.6165839,0.5488125171428572,0.03824264714285714,-0.194298774,1.4072808,-5.823771142857142
961,1778427352280,1.6560113,0.55137366,0.06793079,-0.29810223,1.4876096,-5.8753020000000005
962,1778427352290,1.9034385142857142,0.5949475914285715,0.40908310999999997,-0.39900408,1.6082336285714285,-6.032817685714286
963,1778427352300,1.9578988166666669,0.6010005166666667,0.5589249083333333,-0.10150544,1.5649857999999999,-6.159710466666667
964,1778427352310,1.9876769,0.6119259,0.7418116,0.34376442,1.4294246,-6.2288404
965,1778427352320,1.9684582666666666,0.5997504283333334,0.7760920050000001,0.9088402366666667,1.2001975,-6.169560966666666
966,1778427352330,1.8784631,0.56570375,0.7328476299999999,1.391551,0.9978484,-6.099795
967,1778427352340,1.7560171,0.51265186,0.6327199,1.8849775,0.7157813299999999,-5.8302507
968,1778427352350,1.6643045,0.46319774,0.5349702,2.0777816666666666,0.48161633833333334,-5.603594283333333
969,1778427352360,1.6828116,0.37965628500000004,0.43249472,2.26997515,0.09414960500000001,-5.0970595
970,1778427352370,1.7157185,0.2833004957142857,0.29974744,2.418153642857143,-0.28372509142857144,-4.5472151428571435
971,1778427352380,1.8021173,0.20641449,0.11811664,2.3854287,-0.50717086,-4.01537
972,1778427352390,1.8225454,0.1630583,-0.08909056,2.1691823666666665,-0.5522730866666666,-3.7118717999999995
973,1778427352400,1.7445733666666667,0.03234944833333333,-0.17196124999999998,1.6291776,-0.45188758,-3.3096678
974,1778427352410,1.1893551500000001,-0.3896481685714286,-0.14853653857142857,0.39970221428571434,0.46050512857142856,-2.7848911142857142
975,1778427352420,0.99139935,-0.4809427,-0.11640922999999999,0.09941832,0.7632761,-2.5802948
976,1778427352430,0.7525351928571428,-0.5833876771428572,-0.06388003571428572,-0.12088586571428572,0.9822713,-2.320982514285714
977,1778427352440,0.36642382,-0.7503486,0.06780884,-0.322995,1.1879802,-1.6876679999999997
978,1778427352450,0.2395465,-0.7951480266666667,0.12468206666666666,-0.2802344333333333,1.16952695,-1.3198762499999999
979,1778427352460,-0.057372684285714286,-0.9032931285714286,0.2592224514285714,0.06095562428571428,0.9549350857142856,-0.43964846571428573
980,1778427352470,-0.09896919,-0.9199316999999999,0.27568683,0.16829337,0.8915577999999998,-0.25442538
981,1778427352480,-0.17608751666666667,-0.9568444333333334,0.28341085666666666,0.7175630583333333,0.5960263166666666,0.5225952266666667
982,1778427352490,-0.2437947,-1.0078027,0.20946345,1.2257011,0.3297145,1.1976013
983,1778427352500,-0.24283645714285715,-1.0145975571428572,0.10571174285714287,1.5536048714285715,0.14422964285714285,1.6977690142857145
984,1778427352510,-0.25251475,-1.0048147,-0.09494456,1.7964527833333335,-0.05604688666666666,2.3874395666666666
985,1778427352520,-0.24377438666666665,-0.9915009100000001,-0.22367159,1.7035504000000001,-0.18061248666666666,2.9811751333333336
986,1778427352530,-0.160619127,-0.95725098,-0.44502595,1.3286319,-0.194331505,3.5699728
987,1778427352540,-0.110555224,-0.9463966999999999,-0.4972851,1.109484,-0.17119498999999996,3.823711
988,1778427352550,-0.043582679142857135,-0.9337479,-0.5288200142857143,0.9714939042857142,-0.13356132657142855,3.9233911428571426
989,1778427352560,0.19033630825,-0.89971718,-0.5390761783333333,0.103898,0.12456560266666666,4.545448466666667
990,1778427352570,0.33800754,-0.8856615,-0.49893156,-0.47678033,0.3489567599999999,4.9183817
991,1778427352580,0.41902270428571425,-0.8641009571428571,-0.4572479242857143,-0.6838636442857143,0.36636642,5.214869385714286
992,1778427352590,0.52153448,-0.81943806,-0.42780949999999995,-0.6705264166666667,0.07447466166666668,5.620367333333333
993,1778427352600,1.1704951571428572,-0.5009961357142857,-0.51389759,-0.516792,-0.36178493000000006,5.899584
994,1778427352610,1.4967947,-0.3527645,-0.61369437,-0.36774087,-1.1012373,6.116899
995,1778427352620,1.9517602,-0.11823861,-0.8338291,-0.5561928,-1.7104226,6.0552015
996,1778427352630,2.0958234333333334,-0.014980551666666666,-0.84504929,-1.1377874666666667,-1.8491400166666665,5.822691083333333
997,1778427352640,2.3220866,0.16994893999999997,-0.6929672400000001,-2.217288,-1.5703819,5.6095757
998,1778427352650,2.3220866,0.16994893999999997,-0.6929672400000001,-2.217288,-1.5703819,5.6095757
999,1778427352660,2.325222671428571,0.36430696142857144,-0.237740355,-2.631389242857143,-1.235322257142857,5.571134828571429
