id,timestamp,acc_x,acc_y,acc_z,gyro_x,gyro_y,gyro_z
0,1715181451500,1.3273945,1.8220576,0.7437629,0.30482176,0.06918049,0.4552473
1,1715181451510,1.3273945,1.8220576,0.7437629,0.30482176,0.06918049,0.4552473
2,1715181451520,1.3023076964830014,1.7996288885111371,0.765776165838218,1.407028261383353,-0.11535416812426728,-0.717084374560375
3,1715181451530,1.2452327729641695,1.7042886400651467,0.6999432744625407,1.9298322941368078,0.16663757102931595,-1.7036694599348536
4,1715181451540,1.2223985083099156,1.6567184951425133,0.6555406844640707,1.8631199407868329,0.4154877401645925,-1.9513090782818145
5,1715181451550,1.2182785807748753,1.506927738479601,0.5035267760786616,1.7040213552979162,0.7940754298503082,-2.4853388354857646
6,1715181451560,1.2808931432529502,1.4322766890200103,0.5137416749717805,1.754709818778861,0.6493549583889174,-2.8487844492047203
7,1715181451570,1.4024567938303343,1.3181275271979433,0.660449430755784,1.9425083932647815,0.43588542480205655,-3.207397363033419
8,1715181451580,1.5052660369408741,1.2376516866066838,0.7792139767095115,2.1421494503856042,0.30744903467866325,-3.544751684010283
9,1715181451590,1.6601532104016479,1.1131046410401646,0.8794156294799176,2.4989144348609678,0.297853905607621,-4.0582968516992795
10,1715181451600,1.7173755951175407,1.0499409219529836,0.8839214103797468,2.619747009403255,0.3593954592560062,-4.273468997520021
11,1715181451610,1.8240697,0.87950253,0.80425423,2.7793879353053437,0.6263168040621593,-4.884117955288986
12,1715181451620,1.8240697,0.87950253,0.80425423,2.6412287,1.0002918,-5.499009
13,1715181451630,1.7567717922688628,0.36562381807651434,0.6554420790116897,2.382873310414453,1.38503128565356,-5.950434015090329
14,1715181451640,1.7140275934376579,0.16407829653205452,0.7253580549772842,2.425844678066633,1.5977347328117113,-6.172030606133266
15,1715181451650,1.7751036,-0.013415418,0.8208406,2.615624589707751,1.5270418469885643,-6.1865953979415504
16,1715181451660,1.8427274165740275,-0.10314248355128854,0.7916511313895906,3.1979772181910056,1.1599277251642244,-6.156944956947953
17,1715181451670,1.931507891192753,-0.3162885876597887,0.6993799624282837,3.750622077654756,0.7198452376698541,-5.990051538223453
18,1715181451680,1.9243530171630487,-0.45726319303886925,0.551082269661787,4.035908147501262,0.491358150227158,-5.7549281424533065
19,1715181451690,1.8204737933485078,-0.5105878005741021,0.309308211317653,4.108864078376328,0.3239731317400101,-5.413081761886697
20,1715181451700,1.7502569882337595,-0.5311262612053221,0.11737178504252545,4.057738760500913,0.18422846292773284,-5.156648803809027
21,1715181451710,1.6762903133064517,-0.5478882146547379,-0.08494009674243952,3.8526142564012096,-0.03439496178578629,-4.882147580443549
22,1715181451720,1.5639616530540132,-0.563637019883897,-0.29099752410398794,3.6184602,-0.25686884,-4.643339600000001
23,1715181451730,1.281646085634518,-0.660943915538071,-0.4157068400989848,2.999298224416244,-0.5554627952233503,-4.305137912969543
24,1715181451740,0.9935355562405063,-0.9423201007594937,-0.4408555392683544,2.070806327265823,-0.7123983790329113,-3.610768145822785
25,1715181451750,0.6895288296821392,-1.1784232729313826,-0.512155088950555,1.6661852640010093,-0.6266201021291623,-3.1211423119828456
26,1715181451760,0.43011486172789465,-1.3326777905497846,-0.583961067874335,1.2172535964023308,-0.5175363499366608,-2.4265985891563213
27,1715181451770,0.13124372654081362,-1.5280087859877691,-0.6309025177080564,0.6955506660170166,-0.41841275836479663,-1.5511376388726403
28,1715181451780,-0.09520327925618781,-1.62071137461087,-0.609233366700689,0.2043229201046185,-0.30814788058688436,-0.6677075415922429
29,1715181451790,-0.19495853140898706,-1.6322495310738765,-0.5725337473115003,-0.0711218434424981,-0.2502324323660828,-0.11859737529449098
30,1715181451800,-0.24726371787299156,-1.6167410397347615,-0.546578861076256,-0.3269221159908186,-0.2005535507090028,0.47773039089390457
31,1715181451810,-0.23323280820512818,-1.570576323076923,-0.5364055769230769,-0.7260860246001523,-0.1698297302970297,1.466620250936786
32,1715181451820,-0.1707086566062437,-1.5306453562940583,-0.5675479734138973,-1.0836201254783484,-0.20477227872104733,2.2798207564954684
33,1715181451830,-0.11243176847011145,-1.5287945983789262,-0.65233999183384,-1.4518243477203645,-0.32881074790273557,2.917239467477204
34,1715181451840,0.055678933569440925,-1.6139323252719455,-0.6713614591803694,-2.1625133698456867,-0.762165501963066,3.9943741872501892
35,1715181451850,0.20158843691607684,-1.6401755486349847,-0.5215451499494438,-2.465903900606673,-1.0226521842264913,4.574949803033367
36,1715181451860,0.47103706123891564,-1.6292146615910819,-0.3122650871801368,-2.6808591176843177,-1.2849388542183937,5.257689825057006
37,1715181451870,0.866530749778002,-1.532578459838547,-0.1205155712209889,-2.697895322805247,-1.5908380016145307,5.8521039110999
38,1715181451880,1.268787637281106,-1.37634455171531,0.027099261454173067,-2.576366546031746,-1.907937080389145,6.301607714669739
39,1715181451890,1.2991612,-1.3637381,0.037624147,-2.5653286,-1.9320141,6.333451000000001
40,1715181451900,1.6906875661216147,-1.0910664121359221,0.13788181572176803,-2.3884736222789984,-2.200642994890138,6.496108956821666
41,1715181451910,2.048927261485974,-0.8153753543593631,0.29037564504169827,-2.195575435026535,-2.389186281273692,6.544877253247409
42,1715181451920,2.2193694034317435,-0.6339781384809487,0.42163197174362854,-2.0574603639414586,-2.39421146787787,6.487987999091597
43,1715181451930,2.3703470397982347,-0.30235477220680956,0.5816987190416142,-1.8676482609079446,-2.1060000970996215,6.338362359394704
44,1715181451940,2.4206231917234415,-0.0027788674690890714,0.5807572713853142,-1.9274619375473128,-1.5190517331062325,6.1818553147615445
45,1715181451950,2.4409230492039424,0.177104016611069,0.54583596671721,-2.1358847499620923,-1.1075462807429872,6.066175901516301
46,1715181451960,2.4492001507872017,0.5265018111833418,0.4423182094718131,-2.6840344134078213,-0.33662017643473846,5.6994021586084305
47,1715181451970,2.3523270236118186,0.7330994191925625,0.3893762328578706,-2.9411730264136526,-0.18220144855068773,5.424148612480897
48,1715181451980,2.2745430701825557,0.8678408759634888,0.4870988735040568,-3.023774824036511,-0.2395378624543611,5.1656689278144015
49,1715181451990,2.234843814455096,1.0450371677093846,0.6768565433400605,-2.8342606613521695,-0.41181733823410693,4.922973745005045
50,1715181452000,2.2307612235741447,1.200533388973384,0.7991750802027885,-2.4531642719898605,-0.5554874286844106,4.708580995716096
51,1715181452010,2.2544492310657596,1.4411318684807255,0.8870886859410431,-2.0318357950617285,-0.6282749244444444,4.496196290123456
52,1715181452020,2.264698484202532,1.6924629252658228,0.8646293929620253,-1.5640280769113926,-0.6627977861468355,4.228859392405063
53,1715181452030,2.2883583315456617,2.1088721519605365,0.6507435602327347,-0.9712389699468759,-0.7103867002276751,3.792942335061978
54,1715181452040,2.350259,2.5477707,0.39764515,-0.5886322649171974,-0.7362728389044585,3.0942675072611467
55,1715181452050,2.2844464170480263,2.6674005314307263,0.3338858087679155,-0.6396478189087252,-0.4430615375660045,2.1141122339451845
56,1715181452060,2.121832236552598,2.71470355269962,0.3083325087072243,-0.8789475456273764,-0.08122092060836503,1.4436724901901141
57,1715181452070,1.8423906725944583,2.659411563929471,0.3066192446095718,-1.2486174221662467,0.48917174895717885,0.5969677411838792
58,1715181452080,1.686103696020151,2.582273718413098,0.40865065944332496,-1.3458431635264483,0.7286048950327456,0.0325896605047859
59,1715181452090,1.6348257820564516,2.492911841834678,0.6149904394959678,-0.984741241015625,0.7041537644405242,-0.5129099883659274
60,1715181452100,1.6448291279979415,2.405631348224395,0.7716021458697889,-0.5721388507385486,0.6041139199948533,-0.9023077359752959
61,1715181452110,1.709274563490068,2.3184925315061604,0.8756994218707569,0.10244929263263766,0.4045295507417651,-1.236125523610762
62,1715181452120,1.7379062,2.289341,0.90371126,0.36758815999999994,0.3239113,-1.3426818
63,1715181452130,1.9311899817693683,2.1991140938378932,0.8835275847379187,1.2223340514088468,0.017749260772181027,-1.8527341738174379
64,1715181452140,2.183167336116803,1.9165170328893444,0.7458207993596312,2.1870243011270496,-0.3172308670112705,-3.006772283785861
65,1715181452150,2.2492476336702953,1.6730335036547432,0.6579090886884397,2.3866333044841888,-0.3571212072317263,-3.3245715515292895
66,1715181452160,2.2124462,1.4370351,0.56777704,2.0062342,0.408058,-4.0932555
67,1715181452170,2.145285245545315,1.2128619108294931,0.5150185477112135,1.6532588250384026,0.9423055346134152,-4.4183613109575015
68,1715181452180,2.103827165614973,1.091156274973262,0.5125496282566845,1.4154978624331551,1.3586708106417111,-4.688590244064172
69,1715181452190,1.9996185796878934,0.7889014062169646,0.5591878858998238,1.415674073923987,1.5885320654669015,-4.8831803827082805
70,1715181452200,1.9772396074752097,0.66132301575642,0.590642029061785,1.4940971569285533,1.659780010221205,-4.98466223366387
71,1715181452210,1.9859297294445852,0.511748090180066,0.6085671532969821,1.743180506847578,1.6230914862033983,-5.111445058838448
72,1715181452220,2.0074778405076144,0.300147599893401,0.5722559946192893,2.204042702893401,1.4811416921319795,-5.288313585253808
73,1715181452230,2.0271609089665654,0.16853293434650454,0.46837427716565355,2.5409155748480243,1.3200224373860183,-5.411587028470111
74,1715181452240,2.0512249661371658,0.06035179999319213,0.26264731134392333,2.7502007061270803,1.0979393337367627,-5.587543411195159
75,1715181452250,2.0595558913810486,-0.05645340050655242,0.12105886616834678,2.5503277493951613,0.9930232687752015,-5.840203345110887
76,1715181452260,2.0175220803261977,-0.22521862542303772,0.0688785838312946,2.2584437475790007,0.9629691342380224,-6.037277870998981
77,1715181452270,1.934675650076687,-0.3769188354601227,0.07599487970552148,2.048025301840491,0.9700068575460123,-6.112622398977505
78,1715181452280,1.7118827941087613,-0.644783956223565,0.17032955149546827,1.7698463981873112,1.0922879585649548,-6.077989112990937
79,1715181452290,1.5132920796847191,-0.7844898863513857,0.26372665586575134,1.6833391618611746,1.337713493211289,-5.879674822730739
80,1715181452300,1.3842150458450524,-0.8130080844796727,0.2803610713883917,1.7271780998465864,1.491810586601892,-5.716192171516236
81,1715181452310,1.2651980355453851,-0.8150290237681159,0.20866128695652175,1.8369020265700482,1.5930782309178746,-5.530797704347826
82,1715181452320,1.209678113284598,-0.9031292169599193,0.09365639352609025,1.9845974025964206,1.5760727536929668,-5.340841886816234
83,1715181452330,1.1149620715784088,-1.0712289881299564,-0.10650175615195703,2.1827885959580455,1.3981458354054745,-5.023491764031721
84,1715181452340,0.9139542783832335,-1.1961211756886228,-0.3591613645149701,2.307667413532934,1.0499778699251496,-4.611485225898203
85,1715181452350,0.6210118500000001,-1.2748305,-0.73010355,2.3047584037867312,-0.28769777830051496,-3.5047820065131776
86,1715181452360,0.5223858207505803,-1.1778329262832088,-0.6526664789837503,2.2163136378643284,-0.90501123804488,-2.922867090662883
87,1715181452370,0.4874672427350427,-1.0105475889391655,-0.4962152537053796,1.9594597640020113,-1.243791492760181,-2.143972358597285
88,1715181452380,0.519500235600907,-0.9461412034769464,-0.4343076263340892,1.7266058110103302,-1.1050507564172334,-1.8152017162005543
89,1715181452390,0.5551547835327054,-0.941471851972512,-0.4103059990735556,1.3514145541613642,-0.7507655200127259,-1.4290105726138966
90,1715181452400,0.5304803284991141,-1.0665009931156668,-0.4711799725335358,0.7748170402277905,-0.175144045143508,-0.9461662359908883
91,1715181452410,0.4425859859698492,-1.171935388040201,-0.5606648329447236,0.07573209165829148,0.4500761576502513,-0.3637153063316583
92,1715181452420,0.39444764307092556,-1.1935564561619718,-0.5986638567655936,-0.24243925805080482,0.693992627389336,-0.09200815583501006
93,1715181452430,0.33934906,-1.2055582,-0.6413789,-0.83169305,1.0068586,0.4466952
94,1715181452440,0.19695617663451775,-1.1969649726903553,-0.6041251963959391,-1.1255124815482234,0.9281185728426395,0.9278911324873096
95,1715181452450,0.06919102666666666,-1.1712286719095348,-0.5923688156515036,-1.1869117553842201,0.6564324475096376,1.4701850235929066
96,1715181452460,-0.1409948020941354,-1.1134470590989176,-0.6172947462119306,-1.1551800762899571,-0.26603273041278624,2.9329917775987915
97,1715181452470,-0.0009389677511312212,-1.1073301047511313,-0.5629483342533937,-1.194612990271493,-0.9135316966289593,3.916772644444445
98,1715181452480,0.2982032002165156,-1.062239683182276,-0.42326594647784493,-1.293513747633434,-1.298495893957704,4.662995080563948
99,1715181452490,0.7599738155663762,-0.9598394574269605,-0.20883094172988212,-1.39726818680164,-1.548231681163506,5.342339430548437
100,1715181452500,1.0154373350113608,-0.846515824774047,-0.07557523597475385,-1.4433232723554659,-1.582591757586468,5.666369756122191
101,1715181452510,1.3939215449848024,-0.670602887608916,0.015264377742654508,-1.4758611292806483,-1.5195500253292806,5.843217001013171
102,1715181452520,1.5741773,-0.5896686,0.047380816,-1.4885259,-1.4845552,5.900653
103,1715181452530,1.8406549128902316,-0.35819385019133937,0.0634306790735146,-1.5558157424974826,-1.3501242731117824,5.855693835448138
104,1715181452540,1.93084575448505,-0.28944238059800664,0.020641955156146176,-1.8048505780730897,-1.2912930352159468,5.912505965116279
105,1715181452550,1.9867123,-0.1995792681818182,0.058639784818181814,-2.1081514727272728,-1.3282848818181816,6.019896672727273
106,1715181452560,2.0538453661025513,-0.1674848072493054,0.17785081133114422,-2.1830698005809546,-1.4035029397322556,6.170502181257893
107,1715181452570,2.1423293852450733,-0.08110876665992926,0.32325600202122284,-2.148489046841839,-1.3909187028802426,6.310334528852956
108,1715181452580,2.2226177237352127,0.05838124812987667,0.4490183847067707,-2.0988746075006293,-1.1941658289705512,6.266983267958722
109,1715181452590,2.199332554075653,0.15946316502930208,0.4610903677677144,-2.0923662,-1.1662945,6.2592306
110,1715181452600,2.1909816,0.1797666,0.4600268599999999,-2.0923662,-1.1662945,6.2592306
111,1715181452610,2.1909816,0.1797666,0.46002686,-2.0923662,-1.1662945,6.259230600000001
112,1715181452620,2.1909816,0.17976659999999997,0.46002686,-2.0665254964521194,-0.9328341199843014,6.072193880125589
113,1715181452630,2.1804030173913045,0.20219996930778034,0.45023724473112126,-2.0376042887871857,-0.6336591352402745,5.821132337242562
114,1715181452640,2.1214652,0.32690929999999996,0.39581580000000005,-2.0282254,-0.5306892,5.733276
115,1715181452650,2.099405708316008,0.4061290993762994,0.3856700231029106,-1.9559152526507277,-0.522972459685551,5.604415608991683
116,1715181452660,1.8626697,1.2562928,0.2771503,-1.1824824,-0.44043383,4.2261186
117,1715181452670,1.8626697,1.2562928,0.2771503,-1.1824824,-0.44043383,4.2261186
118,1715181452680,1.8768857747069094,1.3276038151658769,0.2562899206136194,-1.1824824,-0.4404338300000001,4.2261186
119,1715181452690,1.9077942,1.4826474,0.21098791,-1.1824824,-0.44043383,4.2261186
120,1715181452700,1.9077942,1.4826474,0.21098791,-1.160157681155779,-0.22599895726633165,3.915304818994975
121,1715181452710,1.8832454045766591,1.9374387755148743,0.13209413153318078,-0.47074045345029236,-0.4330900794736843,2.291749396491228
122,1715181452720,1.8749874,2.0904267,0.10555494,-0.25534168,-0.54702985,1.8628336
123,1715181452730,1.7872790303531179,2.199210898747809,-0.053178921104933635,-0.10626668772351615,-0.4970909415502129,1.1512315966942148
124,1715181452740,1.7666274,2.224825,-0.090554066,-0.0711658,-0.48533243,0.9839512
125,1715181452750,1.8740335419899246,2.3058053998488663,0.017165038806549123,-0.22044360700755666,-0.3084495921607053,0.6032456678010076
126,1715181452760,1.9591386,2.3463564,0.1542773,-0.48243082,0.001985312,-0.06490443
127,1715181452770,1.9591386,2.3463564,0.1542773,-0.48243082,0.001985312,-0.06490443
128,1715181452780,1.9591386,2.3463564,0.1542773,-0.46154041840359195,0.0695934191588925,-0.2977158552930905
129,1715181452790,2.0311189313171707,2.344779151112222,0.28222643703574113,-0.41263947,0.22785273,-0.8426886
130,1715181452800,2.0509732,2.3443441,0.31751853,-0.41263947,0.22785273,-0.8426885999999999
131,1715181452810,2.0509732,2.3443441,0.31751853,-0.41263947,0.22785273,-0.8426886
132,1715181452820,2.0509732,2.3443441,0.31751853,-0.36918461323161583,0.24151759699349676,-0.9665912467233617
133,1715181452830,2.0772996835493522,2.259427111764706,0.40264312163509475,-0.18875736,0.29825497,-1.4810427
134,1715181452840,2.0896342,2.2196417,0.4425258,-0.18875736,0.29825497,-1.4810427
135,1715181452850,2.102481742461998,2.1196772878395214,0.47656778764016944,-0.14696785346374283,0.2976509128681784,-1.5648780034886618
136,1715181452860,2.1099403,2.0617058,0.49630946,0.15989397,0.2932153,-2.1804836
137,1715181452870,2.1099403,2.0617058,0.49630946,0.15989397,0.2932153,-2.1804836
138,1715181452880,2.1478724044682975,1.946051420294558,0.5121173368247629,0.15989397,0.2932153,-2.1804836
139,1715181452890,2.1784198,1.8529129,0.5248477,0.2982934826829878,0.2925685894579066,-2.4541297672245816
140,1715181452900,2.1784198,1.8529129,0.5248477,0.4213443,0.2919936,-2.6974282
141,1715181452910,1.991753760343901,1.0136390275765716,0.4506263955400323,0.9836521004298764,0.8192573173025256,-4.010780241751746
142,1715181452920,1.7692496,0.01323248,0.36215530000000007,1.6539177,1.4477507,-5.5762835
143,1715181452930,1.7692496,0.01323248,0.3621553,1.7892083578199052,1.4271838905213272,-5.599420950236967
144,1715181452940,1.742638542236645,-0.03530060388217674,0.32522076762855723,1.8467983,1.4184291,-5.60927
145,1715181452950,1.7278973217737918,-0.06804800857648231,0.2948029156003986,1.8467983,1.4184291,-5.60927
146,1715181452960,1.7160149,-0.12640981,0.21598822,1.8467983,1.4184291,-5.60927
147,1715181452970,1.7160149,-0.12640981,0.21598822,1.865130786608961,1.405615624796334,-5.613275066598778
148,1715181452980,1.7160149,-0.12640981,0.21598822,2.0502164,1.2762502,-5.6537104
149,1715181452990,1.7160148999999998,-0.12640981,0.21598822000000004,2.0557449304898365,1.2686291403532157,-5.654101235054981
150,1715181453000,1.711196184522003,-0.22928916328275165,0.13965629970257967,2.1539109,1.1333077,-5.661041
151,1715181453010,1.7068679,-0.32160413,0.071162686,2.1539109,1.1333077,-5.661041
152,1715181453020,1.7068679,-0.32160413,0.07116268600000002,2.1539109,1.1333077,-5.661041
153,1715181453030,1.7068679000000002,-0.32160413,0.071162686,2.1539109,1.1333077,-5.661041
154,1715181453040,1.6557310990776324,-0.48060647581091465,-0.07383039659800154,2.1539109,1.1333077,-5.661041
155,1715181453050,1.6527793,-0.48978466,-0.082199916,2.1539109,1.1333077,-5.661041
156,1715181453060,1.4223207727046632,-0.6162738772435233,-0.16868695258445596,1.9171556549913644,0.7127094999827288,-4.725371182037997
157,1715181453070,0.57320416,-1.0823191,-0.4873455,1.0070137764185432,-0.2787521277483444,-1.2686640813245031
158,1715181453080,0.5599387150296052,-1.0612316791118421,-0.3870115528618421,0.6189159220197369,-0.24548920382565792,-0.5940698495625
159,1715181453090,0.40069413,-1.0907344,-0.30044436,0.37232238,0.026725354,-0.15302174
160,1715181453100,0.20359333495429616,-1.1465648930269001,-0.36473860894750587,0.29044744946408985,0.12052308126978324,0.10226202265865762
161,1715181453110,0.059576645,-1.179764,-0.4242321,0.040927973,0.4063781,0.88025683
162,1715181453120,0.03666141374539406,-1.1730050831883316,-0.44770623823183214,0.040927973,0.4063781,0.88025683
163,1715181453130,-0.047929626,-1.1480547,-0.53436047,-0.0011278896341152449,0.4134066335237124,1.0340140380469147
164,1715181453140,-0.047929626,-1.1480547,-0.53436047,-0.15851954,0.43967026,1.6085609
165,1715181453150,0.2330502789582272,-0.9215149852394294,-0.5479504474146715,-0.7104048956698931,-0.3486513544931228,3.1225560406011206
166,1715181453160,0.3912321760302556,-0.8028646403755868,-0.5475889330985915,-1.0048482408450703,-0.7737906287323943,3.9367533483568073
167,1715181453170,0.8860273,-0.7780332,-0.23794071,-1.2896893,-1.370018,4.98634
168,1715181453180,0.9712308102911134,-0.7578456239785495,-0.19946553613023493,-1.329441642568948,-1.3785005444330949,5.141902936465781
169,1715181453190,1.3960056565453136,-0.6125165842757553,-0.07593148627110767,-1.5481503530596437,-1.298058108055771,5.772349608520527
170,1715181453200,1.6543515252066114,-0.48519866537190076,-0.01828190652892562,-1.7013072615384617,-1.200414834011443,6.075574964399237
171,1715181453210,1.8084525250363477,-0.385758962663565,0.02878750438528642,-1.7590148599883686,-1.1858540622273916,6.253463911602211
172,1715181453220,1.8162036,-0.38050999999999996,0.031282313,-1.7488049795489493,-1.1979875730907228,6.270399077473091
173,1715181453230,1.8783076163449486,-0.3341563556480321,0.0470764844845826,-1.6965255,-1.248914,6.3033657
174,1715181453240,2.2672327687597305,0.13343690627400107,0.10787721394654903,-1.4074918375194603,-1.556380674468085,6.008078869148935
175,1715181453250,2.3189766,0.25940537,0.102262065,-1.2651019,-1.7076738,5.862779
176,1715181453260,2.3189766,0.25940537,0.102262065,-1.2393741082135523,-1.699421481930185,5.672793073947638
177,1715181453270,2.3189766,0.25940537,0.102262065,-1.2327261,-1.6972891,5.6237783
178,1715181453280,1.760219123119266,0.1894044293027523,0.07119021307706422,-2.0541585280733945,-0.8346005111926607,5.3979319273394495
179,1715181453290,1.5557615000000002,0.16379005,0.05982056300000001,-2.3547328,-0.51893,5.3152914
180,1715181453300,1.5557615,0.16379005,0.059820563,-2.3547328,-0.51893,5.3152914
181,1715181453310,1.5914881434804928,0.22341535159137577,0.18314529433983573,-2.520741252258727,-0.2958724725359343,5.131259428747433
182,1715181453320,1.6188849433791137,0.33139604252397,0.37517697031873537,-2.178082921274942,-0.3365119915288935,4.734520585384815
183,1715181453330,1.6792489601062484,0.5169221816594991,0.4780100623222869,-1.884104276979509,-0.4966812621502656,4.675176368580825
184,1715181453340,1.7348573,0.6127797,0.49454108,-1.0709995,-0.9439395,4.5975246
185,1715181453350,1.8035545810748854,0.8664425185430463,0.37497020000000003,-0.4941808859072848,-1.0681858549668874,4.267463157615894
186,1715181453360,1.839125763629461,1.1665992334851936,0.20262390359908883,0.023229924656036446,-1.0455786621867882,3.7911016986332573
187,1715181453370,1.7959827680070815,1.266551497369752,0.10264639313606475,-0.03273667628300455,-0.8350456190237733,3.5485238587253414
188,1715181453380,1.7466872,1.413802,-0.06384519,-0.2482723511247071,-0.5553815462822183,3.2913583854204638
189,1715181453390,1.750766441446208,1.486869695288486,-0.11658849035777273,-0.49021935,-0.34391713,3.0804408
190,1715181453400,1.7536389,1.5383214,-0.15372847,-0.49021935,-0.34391713,3.0804408
191,1715181453410,1.7536389,1.5383214,-0.15372847,-0.49021935,-0.34391712999999996,3.0804408
192,1715181453420,1.8021122601069246,1.6148533994399186,-0.13841008493380855,-0.49021935,-0.34391713,3.0804408
193,1715181453430,1.8522424,1.6940012,-0.12256813,-0.49021935000000005,-0.34391713,3.0804408
194,1715181453440,1.8754310949152542,1.918334735819209,-0.09395725456949153,-0.32806051402259884,-0.14886936820056498,1.8137186702033896
195,1715181453450,1.9059649000000003,2.2137268,-0.056283772,-0.11453723,0.107665,0.14767668
196,1715181453460,1.9059649,2.2137268,-0.05628377200000001,-0.11453723000000002,0.107665,0.14767668
197,1715181453470,1.8957217943782885,2.137192417723622,-0.013323971065078925,-0.11586587561617281,0.13347866435890335,-0.3204491004043201
198,1715181453480,1.8564497,1.844254,0.15110639,-0.12095132,0.2322815,-2.1122193
199,1715181453490,1.8711497172528881,1.7891467532220795,0.20520169244415917,0.09162248550449294,0.24717634398459565,-2.2965151749165598
200,1715181453500,1.9487673195232689,1.577375341089671,0.36850389575482406,0.60918534,0.28344148,-2.7452285
201,1715181453510,2.014915772421696,1.4822139443595619,0.3801675604481793,0.9313897908632545,0.228184962890247,-2.945332088540871
202,1715181453520,2.066990406173483,1.4016440553008596,0.33173103507163326,1.0677924,0.20479257,-3.0300443
203,1715181453530,2.090803273770492,1.3662150452459016,0.28349954386885245,1.3540219546279948,0.15781333981336695,-3.325329081664565
204,1715181453540,2.1379297,1.302576,0.17305888,1.6216946,0.09819659,-3.7487273
205,1715181453550,2.0680567758326878,1.1177843986573717,0.1365896200722954,1.44561222328944,0.2821150568732249,-4.137175293545055
206,1715181453560,1.9223901536591608,0.7426653865660184,0.10320830167221084,1.0280551041453427,0.7517997342886388,-4.7950573418628455
207,1715181453570,1.8807195,0.6401593,0.114701815,0.88346386,0.9288206,-4.908455
208,1715181453580,1.8177989512226511,0.4066745550836551,0.20977217991634492,0.7694655342342342,1.2590881675675676,-5.1739979567567564
209,1715181453590,1.8083981,0.37179,0.22397648,0.75243324,1.3083206,-5.213582
210,1715181453600,1.7845015100609756,0.15210925459552846,0.28203411762195124,1.0559849675609756,1.2906477029471546,-5.3825788602642275
211,1715181453610,1.788668964553094,-0.03941489969289535,0.2883481388693659,1.2803406815635345,1.2340521529157118,-5.472931993124523
212,1715181453620,1.8093806765625,-0.09900485318296372,0.2543957483064516,1.760683574798387,0.8696377870211693,-5.486552468850807
213,1715181453630,1.8181068632742226,-0.11201026388589053,0.2385781484543819,1.82949148077615,0.8060513911873555,-5.487211597661269
214,1715181453640,1.9208438,-0.043539125,0.006829667,2.149641535410907,0.3392715560517718,-5.624409529630561
215,1715181453650,1.9208438,-0.043539125,0.006829667,2.160783,0.22724187,-5.706703
216,1715181453660,1.8237212732501908,-0.3295143146780351,-0.14012734605497582,1.4750723654874014,0.409126078892848,-5.957364299821838
217,1715181453670,1.8201061,-0.34008083,-0.14555727,1.449736,0.41584653,-5.966626
218,1715181453680,1.4753921319517707,-0.686508414521477,-0.05136780129012811,0.8113070331574981,1.0289557367143933,-5.800546400150716
219,1715181453690,1.4520969,-0.7099194500000001,-0.045002624,0.712536405912863,1.222984072665975,-5.624709289522822
220,1715181453700,1.122193271257026,-1.0299879795733264,0.0008757539428461938,0.6841858755314257,1.5488261496934081,-5.061953471486969
221,1715181453710,1.0982348,-1.0532322,0.0042075627,0.7937973654108723,1.5106803824273072,-4.791050054361567
222,1715181453720,1.0982348,-1.0532322,0.0042075627,1.0009027,1.4170547,-4.316068
223,1715181453730,0.7996592949820789,-1.1781579206093191,-0.1573739407328725,1.3779097531490014,0.9779711135176652,-3.630276842396313
224,1715181453740,0.7271766,-1.2084851,-0.19653587,1.4692836,0.871552,-3.4640641
225,1715181453750,0.7271766,-1.2084851,-0.19653587,1.4692836,0.8715520000000001,-3.4640641
226,1715181453760,0.6656071086792452,-1.2446199793710693,-0.2761012600754717,1.625556196100629,0.4168496483522013,-2.8245717867924527
227,1715181453770,0.5137024696904688,-1.2946178396874042,-0.42306887159669015,1.400546000674226,0.0344490678639289,-1.4433703782715293
228,1715181453780,0.39788908,-1.3074543,-0.5032611,0.8347474,0.22036964,-0.5172501
229,1715181453790,0.33218701605828216,-1.299943890439673,-0.5161138434509203,0.3550332523031698,0.47307617497955,0.02129445192484661
230,1715181453800,0.05403183737335359,-1.2453941052684903,-0.5923211708358662,-0.10267866301925026,0.6601099621529889,0.6037633926342452
231,1715181453810,-0.010666529605730224,-1.2355561074036512,-0.6196460427358013,-0.19226983,0.6936375,0.72143185
232,1715181453820,-0.17483520618759457,-1.2273327645990924,-0.6829946177004539,-0.7728789756732224,0.6268024944780636,1.6724314618759455
233,1715181453830,-0.19397473,-1.2240958,-0.6846131,-1.0320568,0.59696805,2.0969477
234,1715181453840,-0.04981276093991307,-1.1464201252365125,-0.5512983998210176,-1.361270388851956,0.2538659317233444,3.09664948828944
235,1715181453850,0.047075916,-1.0942712,-0.46179524,-1.5822937,0.023518313,3.7678168
236,1715181453860,0.340438874186736,-1.0550512613784135,-0.3871023185331599,-1.5770000569570872,-0.10797182068920676,3.988400693498049
237,1715181453870,0.6195017506915983,-0.9813143078509222,-0.33921600188524587,-1.5292546938524592,-0.8963037654508197,5.250509596977459
238,1715181453880,1.6032033,-0.58021677,-0.25995418,-1.3903292,-1.4135422,5.6728
239,1715181453890,1.6032033,-0.58021677,-0.25995418,-1.3903292,-1.4135422,5.6728
240,1715181453900,1.8663740598425198,-0.445556031023622,-0.18473375086614174,-1.6955971051054102,-1.3237425966471934,5.622153775971552
241,1715181453910,1.9215146000000003,-0.4173414,-0.16897328,-1.7594446,-1.3049608,5.611561
242,1715181453920,1.9215146,-0.41734140000000003,-0.16897328,-2.0422249897850824,-1.0882076421744626,5.607501852996207
243,1715181453930,1.9142668092246322,-0.46987859079032657,-0.15894693664921467,-2.2382102,-0.9379836,5.6046886
244,1715181453940,1.9108196651101086,-0.507245374852746,-0.1491971218811356,-2.2424144975855667,-0.9400676976916955,5.608519837675776
245,1715181453950,2.2059214,-0.1636071,0.14921603,-2.825099,-1.2289082000000002,6.139501
246,1715181453960,2.2059214,-0.1636071,0.14921603,-2.825099,-1.2289082,6.139501
247,1715181453970,2.472556207413049,0.3672412813962935,0.45147906109418634,-1.8171774589997463,-1.70882960035542,5.750828471947195
248,1715181453980,2.3853504061151996,0.48964307799543266,0.4344474068256788,-1.5953892036285207,-1.767317226642984,5.571835320350164
249,1715181453990,2.1631749,0.68833286,0.3597771,-0.9135701258563816,-1.7794573654402435,4.763607385384421
250,1715181454000,1.9384653799491094,0.6571687621577608,0.2846374911195929,-0.8035402044274809,-1.7253616455725191,4.584607234351146
251,1715181454010,1.7379729968884392,0.6403387328611182,0.2330524407057931,-0.7585012109663547,-1.4478631854034911,4.381223884998735
252,1715181454020,1.6288615296923077,0.7416458204871794,0.24961150972820514,-0.9377832603846155,-1.0572237802307693,4.4830677909230765
253,1715181454030,1.613282124813154,0.8004931370802193,0.2663327110612855,-1.0555061766816143,-0.7643314604409567,4.539286280044843
254,1715181454040,1.6393639,0.90401614,0.30050534,-1.0818423,-0.68645984,4.5474334
255,1715181454050,1.6393639,0.90401614,0.30050534,-1.0818423,-0.68645984,4.5474334
256,1715181454060,1.8534790619539931,1.381326643055053,0.27225817258723184,-0.9437340931506849,-0.4484158247971052,4.055184826932024
257,1715181454070,1.9915797,1.6891838,0.25403923,-0.7802355876370125,-0.30259643970175887,3.547968707162885
258,1715181454080,2.019353310977482,1.835423952251791,0.2341563810440123,-0.5118767615813716,-0.3270190683341863,2.8047297787871037
259,1715181454090,2.089451,2.2045188,0.18397415,-0.24007004000000004,-0.3475823,1.9631681
260,1715181454100,2.0680034550178297,2.2400367395058582,0.19674641520376976,-0.17431924958660217,-0.33622893905756496,1.8037767545848191
261,1715181454110,1.980345601935484,2.352179124677419,0.1892421663064516,0.05075182051774193,-0.24564703287741937,1.0935284270967742
262,1715181454120,1.9226371953972605,2.3687344635616436,0.13900811,0.085673854,-0.21899517999999998,0.9433287
263,1715181454130,1.8894020692851532,2.34862692427337,0.12463087147682639,-0.0014806157604084842,0.005242062494108405,0.05266786229379419
264,1715181454140,1.8935179351822504,2.3385261973058635,0.13538305352350766,-0.12739880275277338,0.2467389722614897,-0.604938692810354
265,1715181454150,2.0025914458474006,2.158522685212694,0.29790843391289673,-0.09571961409858203,0.47937254181634026,-1.5328231920324105
266,1715181454160,2.0568273,2.0513391,0.37593657,-0.03145956,0.5830709,-2.0610592
267,1715181454170,2.0568273,2.0513391,0.37593657,0.12516975652439025,0.5387521199441057,-2.2260809428861785
268,1715181454180,2.1931827327061857,1.7669559100515464,0.561791656056701,0.9069404164948452,0.332330377757732,-2.8777104876288657
269,1715181454190,2.3031518496305736,1.5598732209681527,0.5497165365146497,1.2349758041273886,0.287354404833121,-3.1103939016050957
270,1715181454200,2.3012900384692347,1.4205573499749877,0.4171241862706353,1.8490218087043522,0.33108582717858925,-3.7653416147573786
271,1715181454210,2.2957437,1.3769096,0.37136313,1.9167424,0.36025777,-3.890906
272,1715181454220,2.2957437,1.3769096,0.37136313,1.9167424,0.36025777,-3.890906
273,1715181454230,2.280378532704563,1.3488488085138923,0.34847161630384904,1.9167424,0.36025777,-3.890906
274,1715181454240,2.1578088,1.1250046,0.16586334,1.8333830537634408,0.5399210496499125,-4.207032094023505
275,1715181454250,2.150363914423321,1.1006723396375158,0.16590835143726237,1.7432502561723702,0.6987473067173637,-4.452509004309253
276,1715181454260,1.9955432,0.59466887,0.166839,1.0231993,1.5180001,-5.195867
277,1715181454270,1.9483114765892267,0.1695303404467705,0.18536842210365076,1.5411945471279038,1.4763920371968342,-5.644584140668879
278,1715181454280,1.9448881155389761,0.08306716446102394,0.18059593575765373,1.6756733549266785,1.4290143165680473,-5.756008462567533
279,1715181454290,1.981823,-0.00951275,0.119397216,2.0109684,1.1233811,-6.008318
280,1715181454300,1.9753298152827306,-0.08779671323993887,0.10195251344268977,2.0255407875700455,1.1016513655119715,-6.066435698217015
281,1715181454310,1.9471868,-0.42709813,0.026343001,2.088701,1.0074695,-6.3183317
282,1715181454320,1.867380757929293,-0.5562989547045455,-0.006726818620959596,2.088701,1.0074695,-6.3183317
283,1715181454330,1.7601668614285713,-0.6540092863673469,-0.08429952765816327,2.046303396581633,0.8835605805714285,-6.152121896096939
284,1715181454340,1.712051,-0.68772304,-0.12348281,2.0216584,0.81153446,-6.055507
285,1715181454350,1.657615301762452,-0.6640213479131545,-0.13190429110344826,1.8578204432694763,0.5803930699616858,-5.823268276628353
286,1715181454360,1.5973493,-0.6377811,-0.14122775,1.8043432000000001,0.49296826000000005,-5.764888
287,1715181454370,1.5973493,-0.6377811,-0.14122775,1.6844064842971087,0.2949430904885344,-5.628988292622133
288,1715181454380,1.5358556101023018,-0.6242983530434782,-0.08896648335652176,1.6769779,0.2826779,-5.620571
289,1715181454390,0.9173712192746114,-1.0285669606217616,-0.15812718734715026,1.9887819062176169,0.2685194330310881,-4.571483555544042
290,1715181454400,0.8128145130109442,-1.1006053431407483,-0.23256654777042501,2.0215525097989313,0.2065128407610079,-4.234249967269025
291,1715181454410,0.7030659434063259,-1.1583741730467696,-0.48013721883752364,1.8500975203027845,-0.1768567206812652,-3.15993989756691
292,1715181454420,0.7382138927810052,-1.1021849587016923,-0.5040422763803991,1.5643518305885322,-0.5151288386208639,-2.50203976198535
293,1715181454430,0.758558932600358,-1.0772130212477629,-0.47397053305292763,1.4592994374328814,-0.6121734904372284,-2.314069527077474
294,1715181454440,0.8167429979019212,-1.0276895630940344,-0.22983023734074823,1.258468156471183,-0.7262008721081901,-2.0073410566228516
295,1715181454450,0.8004793533509701,-1.0666726876543209,-0.09667015918871252,1.033584,-0.63087106,-1.6490307
296,1715181454460,0.7692522,-1.11537,-0.055186145,0.9444850951634666,-0.42760724424494034,-1.4821458566683963
297,1715181454470,0.7692522,-1.11537,-0.055186145,0.84956086,-0.21105394,-1.30435
298,1715181454480,-0.008931504419906686,-1.4859907740279938,-0.5000913189735614,0.15491415632192845,0.6507721122187661,0.46012994017625714
299,1715181454490,-0.11604896846874999,-1.4910468476310483,-0.5572756004334678,-0.2779591274873992,0.748690323235887,1.3995113187752017
300,1715181454500,-0.25091428297937357,-1.3365545093964857,-0.6951625523503947,-0.6460277381359817,0.6668069273236568,2.1383328255920553
301,1715181454510,-0.22057222382978725,-1.2564451054711245,-0.7175724422492401,-1.013384118905775,0.4803025397568389,2.8475093082066874
302,1715181454520,-0.1598135803189066,-1.2412910307517084,-0.708196584738041,-1.0636691,0.45265114,2.944065
303,1715181454530,0.01981823,-1.2225103,-0.6741857,-1.1396402116687578,0.38327156659974904,3.116334070012547
304,1715181454540,0.4165858936543983,-1.184018541294701,-0.5365872708535631,-1.736954501018011,-0.21939937265987994,4.504617293187158
305,1715181454550,0.7861297339849624,-1.119492002857143,-0.3703324437744361,-1.8639026,-0.35995236,4.8075094
306,1715181454560,1.1436161754034502,-0.9843355331107402,-0.21498705986087924,-1.9702180488035617,-0.6557545997885363,5.377154187757373
307,1715181454570,1.3056743354241644,-0.9026390791362467,-0.1587658969511568,-2.0353299864781493,-0.8668931876606684,5.768241997686375
308,1715181454580,1.6965867422300707,-0.6291855395181634,-0.08097727468314833,-1.968353611150353,-1.1363118837790112,5.984374602346115
309,1715181454590,1.953423898003072,-0.4110980054275474,-0.057574871896313363,-1.9982341975934461,-1.2517447341781873,5.8887332034050175
310,1715181454600,1.9970678,-0.37069237,-0.051466417,-2.13907907544757,-1.1863847001278773,5.682809676982097
311,1715181454610,1.9166625622739017,-0.3823054430749354,-0.03106212604392765,-2.2482209290439275,-1.0950325548320414,5.610511082273902
312,1715181454620,1.7176929507896077,-0.41742127624044834,0.030069889491339787,-2.80901881464595,-0.5893236844116149,5.495681007666836
313,1715181454630,1.683494466467377,-0.4493612217442163,0.08937299864673771,-3.1529392194177284,-0.2653044191941773,5.591461679750456
314,1715181454640,1.7328451,-0.42459795,0.18927933,-3.1983378,-0.20815234,5.778785
315,1715181454650,1.8708015964122138,-0.2944671092061069,0.273910969740458,-3.1983378,-0.20815234,5.778785
316,1715181454660,1.949626,-0.22019579,0.32221392,-3.1983378,-0.20815234,5.778785
317,1715181454670,2.2923921033639147,0.216750865558104,0.3420655189602446,-2.1477595752293577,-1.184465084556575,5.630695742864424
318,1715181454680,2.504985143470483,0.6804437078711986,0.3085834941681574,-1.3814718,-1.8965839,5.52268
319,1715181454690,2.4106077037798923,0.7025375079712007,0.246238029724865,-1.2642635777320648,-1.8649711092568784,5.187378045770121
320,1715181454700,2.215983,0.7329696,0.12025091000000002,-1.1250596490700637,-1.6795069388280255,4.439048851057326
321,1715181454710,2.0189130998698595,0.7652701342529933,0.10552703840187402,-1.8287898882092661,-0.9313933943935451,4.337751661400312
322,1715181454720,1.974313011318711,0.8139232974275658,0.1250919563633902,-2.111990965312754,-0.609137864565394,4.336198852152721
323,1715181454730,2.088430919539357,1.0191587186535054,0.26305811330296125,-2.6787968,0.088422745,4.315152
324,1715181454740,2.2322899617647054,1.235120602614379,0.3922538284288587,-2.590400985520362,0.1195312621719457,4.2380608316742086
325,1715181454750,2.3309898,1.3832514,0.47710103,-2.5199718,0.14431691,4.1766386
326,1715181454760,2.3309898,1.3832514,0.47710103,-2.207654243137255,0.02740658729411764,3.9655463441176475
327,1715181454770,2.566433395663397,1.7587130513939082,0.5463507547005679,-1.863139,-0.101556346,3.732692
328,1715181454780,2.5777724,1.7766889,0.5496662,-1.0739760074341764,-0.47778027527826533,3.0256066399586987
329,1715181454790,2.629844112592593,2.0571553368837803,0.495830638,-1.0129673,-0.50686544,2.9709432
330,1715181454800,2.6358855,2.0896952,0.48960173,-1.0129673,-0.50686544,2.9709432
331,1715181454810,2.2386136846772104,2.175665705444646,0.40378847130152973,-1.0043375369458127,-0.19591119941405238,2.0269513505833547
332,1715181454820,1.690483717927461,2.132355960958549,0.46791537098963726,-0.8882142805284975,0.49818108659067356,-0.18766231176165804
333,1715181454830,1.7741280000000001,2.1126842,0.75480014,-0.31535918000000007,0.48655418,-0.7884743
334,1715181454840,1.794046583576826,2.110695947153652,0.7736237633350126,-0.23015013180100757,0.47062371370528966,-0.8423997427959696
335,1715181454850,2.0180088108690146,2.0494420708639476,0.8841400374208259,0.8547205360780339,0.2413125508994173,-1.5469182363060552
336,1715181454860,2.1001835,1.9987751,0.8513910999999998,1.3446671,0.1207986,-1.8765780999999997
337,1715181454870,2.1739032040471313,1.8582788267418033,0.696055440425205,1.3446671,0.1207986,-1.8765781
338,1715181454880,2.112877126009198,1.5351550080224834,0.37101034824220747,1.8976839290240164,0.35286477923352066,-3.207175509453245
339,1715181454890,2.0065345217014774,1.2666620384870095,0.2049039667549669,2.0088303,0.39950588,-3.4746015
340,1715181454900,1.9554891608706721,1.103931427163951,0.1526928305422607,1.4405126239052952,1.0441207352953157,-4.067300044551935
341,1715181454910,1.9485893,1.0798191,0.14592315,1.338253,1.1598804,-4.1737366
342,1715181454920,1.9485893,1.0798191,0.14592315,1.338253,1.1598804,-4.1737366
343,1715181454930,1.9087302676891615,0.7797155388650306,0.22507417843558283,1.184145544861963,1.5364297128834357,-4.761489604754601
344,1715181454940,1.9155001896024466,0.6989255545667686,0.24699037551478084,1.1898110902140675,1.6132119504587157,-4.9109814169215085
345,1715181454950,1.9740785,0.5907052,0.278065,1.5026481461187213,1.6330572032470827,-5.2863271902080164
346,1715181454960,1.9929140606099767,0.5685780704057897,0.26803220276040324,1.617116628586198,1.6137345062289996,-5.422620930757302
347,1715181454970,2.151360506262729,0.35215871328920567,0.16040729102342158,1.8880487519857436,1.4741546464867619,-5.814524046206722
348,1715181454980,2.1822187323388116,0.14666674599241467,0.033529060019216184,2.0666120103666246,1.2411892745132744,-6.259691207079646
349,1715181454990,2.1567325410632914,-0.006103291422784808,-0.0267731588278481,2.0839667,1.2038627,-6.3168050000000004
350,1715181455000,2.1323931457135523,-0.10482162168377822,-0.05773093236858316,2.082065428952772,1.1874996327515401,-6.338871858316221
351,1715181455010,2.0144467,-0.41429248,-0.07982173,2.0409007,0.8332202,-6.816645
352,1715181455020,2.0144467,-0.41429248,-0.07982173,1.9475372773594504,0.8528025179852454,-6.816265993640295
353,1715181455030,1.8266468173469388,-0.6334332082040816,-0.040253967099999996,1.8611830804846938,0.9236288727806122,-6.747363677040816
354,1715181455040,1.7805916999999998,-0.6871742,-0.030550564,1.8342912934809967,0.968068928290964,-6.70200833400453
355,1715181455050,1.4719309169164883,-0.8019647326552461,-0.012566148489293362,1.7937821979657387,1.1643745523554603,-6.32533507869379
356,1715181455060,1.3131264172682422,-0.9095738338094002,-0.00903665039989613,1.8393962740327188,1.1707988612568165,-6.078258651467151
357,1715181455070,1.224216615026562,-1.0686120115861368,-0.035200221660005054,1.9577010980268152,1.1034153653124208,-5.664232866582342
358,1715181455080,0.9809086428571429,-1.271650805357143,-0.22778643228061224,2.2415080824489793,0.6783926597959183,-4.753172378571429
359,1715181455090,0.7903452518680752,-1.282143331512497,-0.4267286191780469,2.3978961814480804,-0.017087069381602687,-3.6898349914970368
360,1715181455100,0.7777283,-1.2786112,-0.44447714,2.4045184,-0.093767814,-3.5773797
361,1715181455110,0.7726046322142858,-1.1918076085714286,-0.3982033177857143,2.2679152667857143,-0.27255460657857145,-3.098023768112245
362,1715181455120,0.76412994,-1.048232,-0.3216651,2.0419698,-0.567952,-2.3060162
363,1715181455130,0.6910070069269778,-0.9777321639072009,-0.23748150009381339,1.7829574345588235,-0.3285001681845842,-2.0062344246703856
364,1715181455140,0.62875617,-0.9663368499999999,-0.2112928,1.3220651,0.09758572,-1.4727961
365,1715181455150,0.6200238518149646,-0.9746923226744186,-0.2144158561602629,1.2193229956016178,0.22504980203993932,-1.3515360544994945
366,1715181455160,0.5383241,-1.0528663,-0.24355079,1.1551461,0.30466905,-1.2757921
367,1715181455170,0.14659659568315817,-1.1855575306075365,-0.4881410240015381,0.47210468790053833,0.7165516013970777,0.0021153191233017335
368,1715181455180,-0.19882832640569395,-1.2722537270462635,-0.6971360066903916,-0.1973100231672598,0.9462883777935944,1.260423187900356
369,1715181455190,-0.26294217,-1.2355598000000003,-0.72467643,-0.43951756,0.75716746,1.7249308
370,1715181455200,-0.26294217,-1.2355598,-0.72467643,-0.43951756,0.75716746,1.7249308
371,1715181455210,0.03995627175337741,-1.077007013509629,-0.46018667216441506,-1.509170857792469,-0.18703894863466516,3.7462297473124457
372,1715181455220,0.05427146,-1.0695137,-0.44777006,-1.6155636437874252,-0.3052771729341317,3.9743560353293415
373,1715181455230,0.05427146,-1.0695137,-0.44777005999999997,-1.7365372,-0.4642576,4.2609377
374,1715181455240,0.27020762727225944,-1.0785792872362325,-0.3672400152290273,-1.7365372,-0.4642576,4.2609377
375,1715181455250,0.7509776258305859,-1.103552994293685,-0.21413119329951813,-2.121108190159777,-0.6756745736495054,5.192584659168147
376,1715181455260,0.89377165,-1.1111623,-0.16970502,-2.250733,-0.7469355,5.5061865
377,1715181455270,1.1633230603761349,-0.9720491774785992,-0.10778182384954606,-2.449479048249027,-0.8694276615564203,5.711721999351492
378,1715181455280,1.4697809,-0.81388897,-0.03738023,-2.717772143766034,-1.1389194988199076,5.871371827809132
379,1715181455290,1.6611666832185665,-0.6467675021270085,0.04767690521907676,-2.7496719413925024,-1.3121451096148942,5.691903678704412
380,1715181455300,1.7389429,-0.5789362,0.08219991600000001,-2.7566822,-1.3642148,5.629429
381,1715181455310,1.7389429,-0.5789362,0.082199916,-2.7623285764369245,-1.3639714131873601,5.604117345210251
382,1715181455320,1.7389429,-0.5789362,0.082199916,-2.7743971,-1.3634512,5.5500164
383,1715181455330,1.7284154444263629,-0.6075241388934092,0.17362509648169241,-2.76014541320857,-1.3155365866015731,5.597508047464062
384,1715181455340,1.707427503524004,-0.6269358230337079,0.24375975917262513,-2.7229319,-1.1904236,5.7215166
385,1715181455350,1.6475352,-0.6630875,0.38648596,-2.7229319,-1.1904236,5.7215166
386,1715181455360,1.6475352,-0.6630875,0.38648596,-2.7229319,-1.1904236,5.7215166
387,1715181455370,1.6475352,-0.6630875,0.38648596,-2.7229319,-1.1904236,5.7215166
388,1715181455380,1.6475352,-0.6630875,0.38648596,-2.703444601181795,-1.1666633078451094,5.76997726130249
389,1715181455390,2.0240294282865388,0.16893339866176854,0.3346657344633954,-2.131809242377329,-0.6153169799212805,5.499880041642613
390,1715181455400,2.2735472,0.7203469,0.3003224,-1.8429805,-0.35995236,5.0979757
391,1715181455410,2.2796725170931422,0.9172487673490277,0.3807411510747185,-2.0906060693449335,0.3503836535619243,5.028661761796315
392,1715181455420,2.5402134854338843,1.224042359607438,0.33209729301652896,-2.0614442213842974,0.5773476312190082,4.734996541993802
393,1715181455430,2.617908966038217,1.3625775731974523,0.2968658498394905,-2.0523546,0.59315014,4.696943
394,1715181455440,2.719143326091423,1.688225564509502,0.18502989240626605,-1.877654406111967,0.42690741747817157,4.2722453292244476
395,1715181455450,2.6878397,1.8789511,0.056588665,-1.3362677,-0.08827003,2.9561296
396,1715181455460,2.6884377708018152,1.9731703431669187,0.09369463186838124,-1.3362677,-0.08827003,2.9561296
397,1715181455470,2.6891813,2.0903049,0.13982524,-1.1774738270417422,-0.32908618215970964,2.331313234119782
398,1715181455480,2.6891813,2.0903049,0.13982524,-1.1653782,-0.3474296,2.2837198
399,1715181455490,2.3381069112554114,2.296103576776165,0.3855667015762669,-1.2640862863763687,0.29588568996180287,0.5702002501757066
400,1715181455500,2.2294520348378,2.308738253596615,0.5233373431424542,-1.315013799661495,0.48397896814104374,0.13571517253878704
401,1715181455510,2.1890137227758006,2.2096676255465173,0.7243960863726487,-1.3270918788510422,0.8953523013980681,-0.8509050095017794
402,1715181455520,2.1583176152510264,2.1230378452478686,0.8739242596084623,-1.3179418,0.9262244,-0.93783087
403,1715181455530,2.136588,2.0618277,0.9768253,-1.0273252855611037,0.9029243850722732,-1.268749247109067
404,1715181455540,2.136588,2.0618277,0.9768253,-0.86269444,0.8897252,-1.4559973
405,1715181455550,2.1374517079127573,2.055012226198326,0.9858193985544003,-0.86269444,0.8897252,-1.4559973
406,1715181455560,2.1556137,1.9116969000000001,1.1749467,-0.86269444,0.8897252,-1.4559973
407,1715181455570,2.1556137,1.9116969,1.1749467,-0.86269444,0.8897252,-1.4559973
408,1715181455580,2.1556137,1.9116969,1.1749467,-0.8626944399999998,0.8897252,-1.4559973000000002
409,1715181455590,2.0016254053665286,0.8893823490179805,0.242448749242047,2.1044018327856158,0.7590546079087137,-4.799418934439834
410,1715181455600,1.996702,0.8566963,0.21263437,2.1992676,0.75487673,-4.9063168
411,1715181455610,1.996702,0.8566963000000001,0.21263437,2.1992676,0.75487673,-4.906316800000001
412,1715181455620,1.9958626814844804,0.7954702054062078,0.21562880101754384,2.16063219317139,0.8404469189689608,-4.9964163936842105
413,1715181455630,1.9872501,0.16720487,0.24635585,1.7641788999999999,1.7185167,-5.9209642
414,1715181455640,2.027940077130977,0.13323909619542618,0.23930837099792102,1.8898857004158005,1.6093260887733887,-6.019000128326403
415,1715181455650,2.1023788,0.07110171,0.22641563,2.1198552,1.4095715,-6.1981444
416,1715181455660,2.140111632260638,0.0409088151893617,0.22163896679787234,2.1198552,1.4095715,-6.1981444
417,1715181455670,2.1669557,0.019452354,0.21824445,2.263160536748096,1.2721453337273443,-6.322893518465984
418,1715181455680,2.1669557,0.019452354,0.21824445,2.3580925,1.181108,-6.405533
419,1715181455690,2.1669557,0.019452354,0.21824445,2.3580925,1.181108,-6.405533
420,1715181455700,2.1669557,0.019452353999999998,0.21824445,2.3580925,1.181108,-6.405533
421,1715181455710,2.263275000455276,-0.06520627712533476,0.11648336881092662,2.4895166145152654,1.0351781742903052,-6.570870790787359
422,1715181455720,2.265681,-0.067321,0.11397006,2.6569583,0.8492554,-6.7815204
423,1715181455730,2.2671857838718434,-0.1743237912028238,0.007580307876133586,2.6914326106163458,0.6745114703774098,-7.0459479232690745
424,1715181455740,1.2442102318857144,-1.005127157257143,0.038944642410685716,2.2536087296,-0.003044549662285711,-6.062760333142856
425,1715181455750,1.0441009629639966,-1.1221246964554843,0.027969662651409436,2.2040547340775882,-0.13035933284566006,-5.846080090706113
426,1715181455760,0.6916256999999999,-1.004083,-0.13336144,2.3902429133974166,-0.3415828055031541,-5.316809346650646
427,1715181455770,0.6916257,-1.004083,-0.13336144,2.6561947,-0.70478576,-4.269643
428,1715181455780,0.6916257,-1.004083,-0.13336144,2.659281541338112,-0.8325373504181601,-3.921535534528077
429,1715181455790,0.7078342422365245,-0.927831974296058,-0.1899568559828372,2.6629143,-0.9828822,-3.5118642
430,1715181455800,0.7320549,-0.81388897,-0.2745282,2.6629142999999997,-0.9828822,-3.5118642
431,1715181455810,0.7320549,-0.81388897,-0.2745282,2.6629143,-0.9828822,-3.5118642000000007
432,1715181455820,0.7889871483112673,-0.6754733520426912,-0.3788451013780059,2.6629143,-0.9828822,-3.5118642
433,1715181455830,0.8007784,-0.6468060599999998,-0.4004502,2.342736619803332,-1.0138788502048621,-3.08435293947009
434,1715181455840,0.8007784,-0.64680606,-0.4004502,2.2606595,-1.0218248,-2.974761
435,1715181455850,0.8007784,-0.64680606,-0.4004502,2.2606595,-1.0218248,-2.974761
436,1715181455860,0.8007783999999999,-0.64680606,-0.4004502,2.2606595,-1.0218248,-2.974761
437,1715181455870,0.13012352627209428,-1.029997135950723,-0.31128449568826994,0.24313636983128015,0.1555005649973219,1.1169898515265129
438,1715181455880,-0.1693080074893617,-1.2167819433090705,-0.28820803313269877,-0.79549927,0.76159626,3.2209396
439,1715181455890,-0.049454104,-1.1893986,-0.34782516999999996,-0.8014385041410877,0.6967563840710824,3.3659781697361333
440,1715181455900,-0.049454104,-1.1893985999999999,-0.34782517,-0.8194757,0.4998405,3.8064539999999996
441,1715181455910,-0.049454104,-1.1893985999999999,-0.34782517,-0.8194757,0.4998405,3.806454
442,1715181455920,-0.049454104,-1.1893986,-0.34782517,-0.8194757,0.4998405,3.806454
443,1715181455930,-0.049454104,-1.1893986,-0.34782517,-0.8194757,0.4998405,3.806454
444,1715181455940,0.11880179614096915,-1.2067179874449339,-0.40531947066079294,-0.8194757,0.4998405,3.806454
445,1715181455950,0.2248302,-1.217632,-0.44155017,-0.9132287802391954,0.262243510229682,4.157983177493884
446,1715181455960,0.2248302,-1.217632,-0.44155017,-1.07738585496963,-0.10371165688017671,4.646459804472666
447,1715181455970,0.2248302,-1.217632,-0.44155017,-1.1626292,-0.27580565,4.8548517
448,1715181455980,0.2248302,-1.217632,-0.44155017,-1.1626292,-0.27580565,4.8548517
449,1715181455990,0.5067675187322342,-1.1824795527856735,-0.3830054744343377,-1.1626292,-0.27580565,4.8548517
450,1715181456000,0.5124079,-1.1817763,-0.38185155000000004,-1.1626292,-0.27580565,4.8548517
451,1715181456010,1.4675054408948418,-0.6505946074807638,-0.22521469318894272,-1.9067167240809346,-0.45143137878312906,5.559156313992591
452,1715181456020,1.5646645,-0.59655917,-0.20928051999999997,-2.1063248391257128,-0.4699985301113223,5.58699865145262
453,1715181456030,1.5567068606424581,-0.5887313984553073,-0.23511961540502793,-2.3331997,-0.47128254,5.5067973
454,1715181456040,1.5385044,-0.570826,-0.29422447,-2.3331997,-0.47128254,5.5067973
455,1715181456050,1.5385044,-0.570826,-0.29422447,-2.3331997,-0.47128254,5.5067973
456,1715181456060,1.5385044,-0.570826,-0.29422447,-2.660670670705793,-0.5973102081811283,5.405572910422464
457,1715181456070,1.5385044,-0.570826,-0.29422447,-2.8404977734546426,-0.6910928520203372,5.364148149611989
458,1715181456080,1.4737820147420149,-0.6288571527927928,-0.19559984113841117,-3.095407,-0.894154,5.3458343
459,1715181456090,1.4411817,-0.65808713,-0.14592315,-3.0954070000000002,-0.894154,5.3458343
460,1715181456100,1.4411817,-0.65808713,-0.14592315,-3.095407,-0.894154,5.345834300000001
461,1715181456110,1.4411817,-0.6580871300000001,-0.14592315,-2.982945732512591,-0.9504282916899832,5.4466356364857305
462,1715181456120,1.4411817,-0.65808713,-0.14592315,-2.898861,-0.9925033,5.5219164
463,1715181456130,1.4411817,-0.65808713,-0.14592315,-2.898861,-0.9925033,5.5219164
464,1715181456140,1.6314544054114997,-0.6043046360766628,0.3551277461104848,-2.8988609999999997,-0.9925033,5.5219164
465,1715181456150,1.6896108,-0.5133226,0.4056944,-2.6200824194823267,-1.0559862048705817,5.5701769458391315
466,1715181456160,1.6896108,-0.5133226,0.4056944,-2.2751677,-1.1345295,5.6298866
467,1715181456170,1.6896108,-0.5133226,0.4056944,-2.2751677,-1.1345295,5.6298866
468,1715181456180,1.6896108,-0.5133226,0.4056944,-2.2751677,-1.1345295,5.6298866
469,1715181456190,1.7344386810856185,-0.4589496320089535,0.36776020279798544,-2.2751677,-1.1345295,5.6298866
470,1715181456200,1.8339484999999998,-0.33825144,0.28355312,-2.2751677,-1.1345295,5.6298866
471,1715181456210,1.8339485,-0.33825144,0.28355312,-1.5147573680851063,-1.390115708123791,5.697369078143133
472,1715181456220,1.8339485,-0.33825144,0.28355312,-1.2873985,-1.4665347,5.717546
473,1715181456230,1.9309475228681108,-0.21614007473539895,0.08614849627200438,-1.17118611349054,-1.526131595530573,5.722894056429942
474,1715181456240,1.9693832,-0.16775368,0.007927292,-0.7099781000000001,-1.7626517,5.7441187
475,1715181456250,1.9693832,-0.16775368,0.007927292,-0.7099781,-1.7626517,5.7441187000000005
476,1715181456260,2.056063684348641,0.03398879283723837,-0.15908830494595438,-0.7016423954076851,-1.719358699062793,5.6094134628865975
477,1715181456270,2.5298429,2.0746942,0.33550736,-0.48762318,-0.6078109,2.1508565
478,1715181456280,2.5298429,2.0746942,0.33550736,-0.49821418609811896,-0.5355925875749873,2.0376556107778345
479,1715181456290,2.5298429,2.0746942,0.33550736,-0.50869805,-0.46410486,1.9255999
480,1715181456300,2.2024680460819357,0.6713510153973056,0.43914105511135554,2.0975927094171016,0.9616012148529007,-5.40626642851251
481,1715181456310,2.189945,0.61808485,0.44307464,2.1965187,1.0157162,-5.6845593
482,1715181456320,2.189945,0.61808485,0.44307464,2.1965187,1.0157162,-5.6845593
483,1715181456330,2.189945,0.61808485,0.44307464,2.1965187,1.0157162,-5.6845593
484,1715181456340,2.16650994487106,0.49789277765616047,0.4017287341203439,2.3228393409169055,0.8748774081719197,-5.845811000544413
485,1715181456350,1.9979403270043268,-0.27379968942479,0.13103207787375923,2.9216158,0.20861048,-6.6086454
486,1715181456360,1.9781032,-0.34349567,0.105250046,2.9216158,0.20861048,-6.6086454
487,1715181456370,1.8141383443083359,-0.530050239772931,0.10921657149268,2.2381083576038243,0.42480348765461606,-6.833704257962354
488,1715181456380,1.603314540971867,-0.6769638533913044,0.10106793458925831,1.9443841,0.5177083,-6.930419
489,1715181456390,1.2354452774913238,-0.897613465384234,0.0731704064581061,1.5722946872087258,0.8085261131383242,-6.572570344819039
490,1715181456400,1.178222086092715,-1.0550790348155155,0.0530770863897824,1.6335839318826868,0.7292632807379376,-6.290163445600757
491,1715181456410,0.9646762197971994,-1.2706915304683728,-0.0849433337228392,1.8475344435538388,0.45828489352969576,-5.425024754901014
492,1715181456420,0.7984157245409016,-1.1764470914858098,-0.22008592193656093,1.878239394657763,0.325243072064552,-5.088242359376739
493,1715181456430,0.5655818,-1.0181692,-0.4114874,1.7383657915492958,-0.16027083596790043,-3.980627247166721
494,1715181456440,0.4731801490965732,-0.8612829848390446,-0.3477177635617861,1.527658015680166,-0.29229734590342676,-3.4303728398753894
495,1715181456450,0.5011967150390828,-0.6248521075560187,-0.19518042859301718,1.1940753588066702,-0.23079950824908807,-2.850388894788953
496,1715181456460,0.54259264,-0.5690576,-0.14744763,1.0994047,-0.18646662,-2.712089
497,1715181456470,0.5543216938411669,-0.5586390534737979,-0.1375824127909238,0.9572787205294435,-0.042428157720151266,-2.6194856612641817
498,1715181456480,0.6408300999999998,-0.48179638,-0.064820856,0.8837693,0.032070424,-2.57159
499,1715181456490,0.6408300999999998,-0.48179638,-0.064820856,0.7267317289311696,0.24381411603133743,-2.5486988220481255
500,1715181456500,0.6408301,-0.48179637999999997,-0.064820856,0.6365216,0.36545014,-2.535549
501,1715181456510,0.6641611470558882,-0.5745242301796407,-0.08141573875049901,0.6365216,0.36545014,-2.535549
502,1715181456520,0.6789887558513374,-0.6460294445987655,-0.09293317533436214,0.6312150616306584,0.3645687217438271,-2.514761552597737
503,1715181456530,0.13421515,-1.3439809,0.0734799,-0.57711494,0.1638646,2.2186625
504,1715181456540,0.14017633904137236,-1.2711078712916246,0.0478669869530777,-0.5047072934006055,0.3395700364127144,2.71984272073663
505,1715181456550,0.1916115424053173,-1.126367162879358,-0.13887158921018308,-0.4990769,0.35323283,2.7586675
506,1715181456560,0.20238985,-1.1159188,-0.17659567,-0.49315572574850297,0.4281950604191617,3.1546764062874253
507,1715181456570,0.20238985,-1.1159188,-0.17659567,-0.4914411,0.44990227,3.2693508
508,1715181456580,0.20238985,-1.1159188,-0.17659567,-0.4914411,0.44990227,3.2693508
509,1715181456590,0.20238985,-1.1159188,-0.17659567,-0.5078803909431138,0.4455274459680639,3.335365702994012
510,1715181456600,0.670230825092899,-0.9828903786968695,-0.22016410452277935,-1.1179737262611351,0.0789384368388903,4.46398184143548
511,1715181456610,1.0377734713258426,-0.8507625950187265,-0.15800562408489388,-1.4732343252184767,-0.1099386272659176,5.042970464194757
512,1715181456620,1.2102533607924921,-0.7321067103962461,-0.1594489494264859,-1.6738699579770593,-0.05421190648592284,5.0642064298227325
513,1715181456630,1.6078378,-0.44587967,-0.20263378,-2.1687243,0.10262536,5.0437617
514,1715181456640,1.6078378,-0.44587967,-0.20263378,-2.3628833347038136,-0.049322617105761433,4.899963368379768
515,1715181456650,1.6078378,-0.44587967,-0.20263378,-2.3834434,-0.06536258,4.8847837
516,1715181456660,1.6488412872798435,-0.3764074716885658,-0.31450240833659493,-2.3834434,-0.06536258,4.8847837
517,1715181456670,1.878384125882353,-0.19688973928342246,-0.05875554894434225,-2.631893176684492,-1.1668378679786093,4.701162869812834
518,1715181456680,1.9437826040965067,-0.1388627985498869,0.028720159033958283,-2.6582857891430005,-1.4246561037949232,4.642995291279216
519,1715181456690,2.097304231707317,0.21097993766403297,0.30098705937135006,-2.135904715630368,-1.5830094705942976,4.32012091034009
520,1715181456700,2.0503025,0.4797231,0.18007149,-1.4108144295371816,-1.7178144550702028,3.733522627145086
521,1715181456710,1.9649453091623745,0.5024187049335863,0.05969176473678504,-1.309791208294931,-1.8321126573868258,3.515350799078341
522,1715181456720,1.7052045657510082,0.4785478857106855,-0.16663495527217742,-1.3010226111139114,-1.9717198489919356,3.2592875092741935
523,1715181456730,1.5050789652401095,0.36844516049265985,-0.20314323639462553,-1.7007245324707638,-2.0929983044040807,3.216254721348594
524,1715181456740,1.433948888111362,0.32939882342864313,-0.10520878460747429,-1.873126331226486,-2.0929605076498623,3.376374311788312
525,1715181456750,1.4098239282491942,0.33113425216971,0.14179084035445758,-2.0431914,-2.071444,3.6117408
526,1715181456760,1.4981972,0.42496383,0.40313327,-2.0431914,-2.071444,3.6117408
527,1715181456770,1.4981972,0.42496383,0.40313327,-2.0526488987994,-2.021664602901451,3.70691612056028
528,1715181456780,1.4981972,0.42496383,0.40313327,-2.0912971,-1.8182404,4.0958514
529,1715181456790,2.2053208035787324,1.3005280228885479,0.12262467729089979,-1.3585810715235171,-1.2267035112985685,3.6662319091002042
530,1715181456800,2.514675104470939,1.824444164008942,-0.10285708872652756,-0.968985,-0.9121745,3.4377968
531,1715181456810,2.241321519591837,1.9804389597959182,-0.13175827989285713,-1.6325086264285715,-0.6048059004387756,2.3490926716836733
532,1715181456820,2.2390332,1.9815179,-0.13122717,-1.7367730446031746,-0.5036581702222223,2.2121011623809523
533,1715181456830,2.194665390551964,1.9957546490800597,-0.0742327817752362,-1.9595029,-0.2790127,1.9249891
534,1715181456840,2.0685964,2.0361555,0.08750511,-1.9595029,-0.2790127,1.9249891
535,1715181456850,2.0685964,2.0361555,0.08750511,-1.9595029,-0.2790127,1.9249891
536,1715181456860,1.9172193371225577,2.168129609109363,0.38370700410809444,-1.372471661532606,0.23685312346612533,0.772736972745496
537,1715181456870,1.8577230385929648,2.2265580841206027,0.5147220661809045,-1.0545654953768844,0.47744307418090454,0.19530174762814068
538,1715181456880,1.8859026,2.2266543,0.51448125,-0.8359691,0.52473325,-0.06093381
539,1715181456890,1.9626744236822196,2.2054981103657,0.544269217629256,-0.2239013643631778,0.5020138341160152,-0.6255281072484238
540,1715181456900,2.0242035,2.1885424,0.5681428999999999,0.2666427,0.48380527,-1.0780244
541,1715181456910,2.044064583542714,2.0762403189698495,0.5116586527638192,0.7784831001256283,0.4448130394070352,-1.5985332225125628
542,1715181456920,2.060547,1.9830425,0.46478322,1.2032518,0.41248676,-2.030058
543,1715181456930,2.0039332885074628,1.8425119647761194,0.4121234405074627,1.2032518,0.41248676,-2.030058
544,1715181456940,1.9944456,1.8190086000000003,0.40331623,1.2032518,0.41248676,-2.030058
545,1715181456950,1.9944456,1.8190086,0.40331623,1.2616546333249936,0.43518420896672505,-2.1549160979234423
546,1715181456960,1.9148255062341613,1.3887475351241765,0.306550133205778,1.3513221803852002,1.035474797415104,-3.3265217671566143
547,1715181456970,1.8913943585434172,1.198543302072829,0.2815917352380952,1.3482180360580598,1.3500094262032085,-3.888907442551566
548,1715181456980,1.8684687768339767,0.8387172369369369,0.31104374102960103,1.4911471706563706,1.4908331669240669,-4.3192030629343625
549,1715181456990,1.8524121106574762,0.6297428812831388,0.32000166752386,1.781988274814422,1.5576921094909861,-4.791482215270413
550,1715181457000,1.8802925,0.3533133,0.27525997,2.2476788,1.4613423,-5.1874676
551,1715181457010,1.9534042233205617,0.24818790326947637,0.1985267487688378,2.2476788,1.4613423,-5.187467599999999
552,1715181457020,1.9607853,0.23757485,0.19080381,2.31891033667426,1.413224505694761,-5.2664752761959
553,1715181457030,1.9607853,0.23757485,0.19080381,2.5008824,1.2903001,-5.4683127
554,1715181457040,1.905033557962172,0.11628080837705919,0.15486063059182428,2.3906623785234897,1.3495836312385603,-5.581821715009153
555,1715181457050,1.7760881191424194,-0.20451666432873916,0.023813066766717714,1.8625580432873916,1.7451496552322616,-5.781046720367534
556,1715181457060,1.7880501426725253,-0.22916143331093305,0.00021286759513052466,1.6880511442750066,1.8890359522357199,-5.755726216438356
557,1715181457070,1.7893727,-0.22970851,-0.00024391667,1.5420051638334284,1.9845811735596122,-5.761591783228751
558,1715181457080,1.7893727,-0.22970851,-0.00024391667,1.4978416000000003,2.0115793,-5.7800069999999995
559,1715181457090,1.784452301701031,-0.38794108206701033,0.21079281230578867,1.9573555897680412,1.7327441687886596,-6.0269752337628875
560,1715181457100,1.6366044745167851,-0.5091995263733469,0.17791929399542217,1.999647207934893,1.711030201246185,-6.03941278484232
561,1715181457110,1.3243456,-0.7226641,0.105372004,2.2368357,1.5939001,-6.097046
562,1715181457120,1.1239248043974395,-0.8225030679933203,0.05176942966713053,2.595642543389925,1.2309991011689396,-5.746427711216253
563,1715181457130,0.8572858283906882,-0.9320446779352227,-0.10345239220799594,2.6784914,1.1472049,-5.6654696
564,1715181457140,0.8451103,-0.9368229,-0.11134796,2.6784914,1.1472049,-5.6654696
565,1715181457150,0.47228376695629953,-0.9915752072399693,-0.385816114551495,2.49493629588551,0.46704344008177867,-3.7727280264247383
566,1715181457160,0.4040557850190114,-0.9821565426185045,-0.4580576710874525,2.299450259391635,0.22200584468441065,-3.022165016501901
567,1715181457170,0.3998601613981603,-0.9675730679369251,-0.4789525997897503,1.994377236977661,0.03875550189960578,-2.3574284207884366
568,1715181457180,0.5384044310122469,-0.8727987764183954,-0.45042621752561857,1.6434232922019494,-0.021358870843789055,-1.8567704451887028
569,1715181457190,0.58052164,-0.85364735,-0.42057332,1.4773777,-0.019700404,-1.6627752
570,1715181457200,0.58052164,-0.85364735,-0.42057332,1.4773776999999997,-0.019700404,-1.6627752
571,1715181457210,0.5997021235164836,-0.8628931907871199,-0.37959204379248657,1.0381135987477639,0.17403675813953487,-1.3212550701252237
572,1715181457220,0.4527904464901003,-0.9887396396760092,-0.3449048574517871,0.737601303178195,0.3793334923116482,-0.9791625958086912
573,1715181457230,0.0037991457348406977,-1.2006206883350463,-0.40994338290596094,0.22929672184480984,0.522143859159815,0.33716872068345316
574,1715181457240,-0.3406906,-1.2831845,-0.4751497,0.04810564,0.28603765,1.7800614
575,1715181457250,-0.3406906,-1.2831845,-0.4751497,0.04810564,0.28603765,1.7800614
576,1715181457260,-0.1060136150322165,-1.1295036761597936,-0.49655720012886595,-0.23711587594072164,-0.2677538126417526,3.0679101945876286
577,1715181457270,-0.056588665,-1.0971372,-0.5010658,-0.29718593,-0.38438696,3.339142
578,1715181457280,0.0018002194343891386,-1.0864997929110105,-0.48438327915535445,-0.45069140213423836,-0.47580953437405726,3.64239747586727
579,1715181457290,0.1877439099336904,-1.080790467482785,-0.45267010549349657,-0.7327132200153023,-0.5369762520122418,4.051280081866871
580,1715181457300,0.26952790000000004,-1.0795752,-0.43972078,-0.84711736,-0.5532912,4.205349
581,1715181457310,0.9922721720204604,-0.9903790264066497,-0.17880968969565217,-2.0963224098312017,-0.32705294405115093,5.2941206000767265
582,1715181457320,1.216985853256705,-0.914655961954023,-0.08523359167126437,-2.4088594459770114,-0.30420036220689656,5.553827685517241
583,1715181457330,1.390447,-0.8318777999999999,-0.006768687,-2.611449,-0.310625,5.714186
584,1715181457340,1.4361764664097796,-0.7916234640632475,0.010037676276640976,-2.6832226500664365,-0.39601090118522453,5.786784726654265
585,1715181457350,1.5886276404451265,-0.6387298411972371,0.011965394645433614,-2.652654537221796,-0.6386677189639295,5.816275568534152
586,1715181457360,1.6052467873353597,-0.6005078390070921,-0.009721698556231001,-2.6470318,-0.67271537,5.819408
587,1715181457370,1.6067610637289862,-0.5651234590422822,-0.008482473251146205,-2.57334889016811,-0.9255407564085584,5.85529434538971
588,1715181457380,1.6359743050523092,-0.5499856026537382,0.08182237246210768,-2.344261547180403,-1.4161092767032406,5.995907804950242
589,1715181457390,1.7338817,-0.5111884,0.20208496,-2.284503210733899,-1.4142290550673988,6.036442170993509
590,1715181457400,1.7338817,-0.5111884,0.20208496,-2.1832323,-1.3480269,6.098573
591,1715181457410,2.0307340685685173,-0.15544471245033112,-0.16141953317371371,-2.2453999173713703,-1.36103198033622,5.836898011665817
592,1715181457420,2.0510952,-0.13104422,-0.18635234,-2.249664,-1.361924,5.8189497
593,1715181457430,2.1423274859236794,-0.0005867516502400796,-0.07562974778468537,-2.5242352982057112,-1.6524408285822592,5.63655039742229
594,1715181457440,2.2314440745227793,0.0476575861898702,0.059917265650292685,-2.6263877976584373,-1.6705108551030796,5.642989657673708
595,1715181457450,2.4908326267379683,0.3116201177641966,0.354796623132162,-2.6020848437484085,-1.497132777540107,5.635442377998473
596,1715181457460,2.783882,0.8093765,0.5538738,-2.330909,-1.2400564,5.4605246
597,1715181457470,2.8218508975806453,0.9916517560987904,0.48064796938004034,-2.330909,-1.2400564,5.4605246
598,1715181457480,2.8410804,1.0839658,0.44356245,-2.302276935275081,-1.2234404799352752,5.406380955339806
599,1715181457490,2.8410804,1.0839658,0.44356245,-2.115121,-1.1148291,5.0524664
600,1715181457500,2.7412840383111807,1.3506634351316134,0.3345795415402658,-2.259363299348449,-0.6563992414229867,4.156366771331769
601,1715181457510,2.6714973,1.5371628,0.25836873,-2.4216077043346775,-0.2014528341922883,3.366568031502016
602,1715181457520,2.5270770191587584,1.8088388688638113,0.4943729372326237,-2.351524651705566,0.09167658961964607,2.7173191712233904
603,1715181457530,2.5139883,1.8334607,0.51576185,-2.2138640426019123,0.09323203632108706,2.5600104212128834
604,1715181457540,2.4273444857469513,2.114694450838415,0.6628269107799797,-1.351061746773374,-0.03544353131605692,1.7983976755335367
605,1715181457550,2.4033719999999996,2.1925058,0.70351666,-1.1953106,-0.06536258,1.667204
606,1715181457560,2.335287866329114,2.2785679305316453,0.6840725173468355,-0.6612952894683545,-0.135378761843038,1.1304133221012658
607,1715181457570,2.263397292793481,2.360927291367456,0.6437377235803412,-0.24943281995416347,0.01928600452762923,0.4036320573720397
608,1715181457580,2.2465043742548816,2.3667117439362793,0.6324899261870504,-0.099033385348407,0.3467688335277493,-0.2327450804470709
609,1715181457590,2.2308700862189927,2.2929155804059134,0.6287384761914308,-0.047224657006765224,0.5146554641743925,-0.5237778905412177
610,1715181457600,2.1939695,2.1583576,0.6486354,0.06841691,0.79549927,-1.0390818
611,1715181457610,2.1939695,2.1583575999999995,0.6486354,0.06841691,0.79549927,-1.0390818
612,1715181457620,2.064946597338403,1.7438760580988593,0.7040875519695817,1.4660542545931559,0.7429309367528518,-2.1946695692775666
613,1715181457630,2.04329,1.674305,0.71339524,1.7006488,0.7341073000000001,-2.3886359
614,1715181457640,1.9384724247038063,1.3728821174691201,0.4844634299621881,2.351115489185783,0.699096378018654,-3.164931442021679
615,1715181457650,1.8817159696131183,1.1790012294388932,0.3936722278196259,2.4758379777863184,0.7177647299256982,-3.3904258554445295
616,1715181457660,1.887881437159886,0.9979731466960352,0.36601061540813684,2.512756636823011,0.9288639006167402,-3.926780970976937
617,1715181457670,1.8916955999999998,0.9591413,0.36185038,2.509587,0.96837413,-4.0026946
618,1715181457680,1.9652263817026685,0.8082187739008895,0.37784638831003814,2.5717496891994913,1.103162352498094,-4.414074998475222
619,1715181457690,1.9973726,0.7422384,0.38483953,2.6047088799403433,1.1622602868008949,-4.607485157593835
620,1715181457700,1.9973726,0.7422384,0.38483953,2.796083,1.1702651,-5.063462
621,1715181457710,2.0804873,0.17110755,0.3093473,3.035084,1.1139128,-5.8096337
622,1715181457720,2.1138113156408953,0.025664879411111393,0.2777880352238047,3.035084,1.1139128,-5.8096337
623,1715181457730,2.117081659297625,-0.05806983927257958,0.26509780310005054,3.0226199251894896,1.111137773294593,-5.997911391435068
624,1715181457740,2.1113427,-0.1890964,0.24897793,2.966517442418033,1.1227822020491802,-6.495577654918032
625,1715181457750,2.0444673899027084,-0.39325234793584013,0.23173764785432552,2.8479003898238235,1.222284355692874,-6.672120267735997
626,1715181457760,1.990177,-0.5588131,0.2177566,2.651126563713927,1.3108897531493098,-6.800059166198244
627,1715181457770,1.990177,-0.5588131,0.2177566,2.6299276,1.3141239,-6.8047333
628,1715181457780,1.8691767013451777,-0.6393834101624365,0.09066996795329949,2.463591766243655,1.1462155258375633,-6.884090665989848
629,1715181457790,1.8327070341481855,-0.6609674249546371,0.05875101383719758,2.382668248387097,0.9411848570060484,-6.8745312261340725
630,1715181457800,1.6074226198574337,-0.6752965282892057,0.13297338370417516,2.351373,0.8060367,-6.849021
631,1715181457810,1.459451806213543,-0.6836397955871164,0.175737322662947,2.4570099218361654,0.3365719399797109,-6.402723576718234
632,1715181457820,1.3084301,-0.70443135,0.1958041,2.4620924,0.31398472,-6.381251
633,1715181457830,1.259691850240689,-0.7345613926273119,0.16232627550291362,2.488219205675196,0.24614362642057258,-6.1892707664048645
634,1715181457840,1.0559762000000001,-0.8602941,0.02262327,2.5972464,-0.036957346,-5.388137
635,1715181457850,1.014386947734139,-0.8752210818731118,-0.009020037024169184,2.5972464,-0.036957346,-5.388137
636,1715181457860,0.89865,-0.91676074,-0.09707884,2.587138941797072,-0.059876588637052,-5.25417100002524
637,1715181457870,0.89865,-0.91676074,-0.09707884,2.5515842,-0.14049901,-4.7829223
638,1715181457880,0.7277649242918455,-1.025020264544307,-0.4098166716788689,2.0018647437263315,-0.174217661416309,-3.447452924135319
639,1715181457890,0.65089166,-1.0737212,-0.550337,1.7548631,-0.18936823,-2.8473957
640,1715181457900,0.5774066957738552,-1.0819899566385265,-0.6210651961371195,1.1355847578204143,-0.07583531112049118,-2.3585649326170377
641,1715181457910,0.37258273,-1.2354989,-0.5229573,-0.42012256,0.20937407,-1.1305588
642,1715181457920,0.37258273,-1.2354989,-0.5229573,-0.42012256,0.20937407,-1.1305588
643,1715181457930,-0.1153857086822502,-1.3208660370665297,-0.3670346973799126,-1.2855476319136914,0.8692488034240946,0.5007395113280246
644,1715181457940,-0.33232071200607904,-1.354922661094225,-0.30311852893617025,-1.669292287537994,1.1515478182370822,1.2881036705167173
645,1715181457950,-0.32007965,-1.2592199,-0.43630594,-1.6346754,0.874759,2.7789788
646,1715181457960,-0.32007965,-1.2592199,-0.43630594,-1.6346754,0.874759,2.7789788
647,1715181457970,-0.18829939988671474,-1.2532350737899074,-0.4619034175592173,-1.5813091602471678,0.5319834744593201,3.2140712739443873
648,1715181457980,0.22690508320895522,-1.2462643152985073,-0.4993179376119403,-1.466468052238806,-0.4578007720149254,4.441864940298507
649,1715181457990,0.37863757130281694,-1.2555364075704225,-0.45538396433098594,-1.5089215674295775,-0.6791432706237425,4.759964474647887
650,1715181458000,0.6792009892829306,-1.2598890188620422,-0.3184727038347623,-1.6930059989867496,-0.9410550391426344,5.368178866173032
651,1715181458010,0.82809705,-1.2509266,-0.22928166,-1.8289305,-0.98853266,5.660888
652,1715181458020,0.867036628701332,-1.2389491602459015,-0.20544908479764346,-1.8289305,-0.98853266,5.660888
653,1715181458030,1.1475906550613497,-1.148022575613497,-0.04257650756365031,-2.033325366947853,-0.8591688432131902,5.914640688752556
654,1715181458040,1.409639724844237,-1.0101567362149533,0.020723544369678094,-2.312558524402908,-0.6720055443925234,6.145522246002077
655,1715181458050,1.8413268,-0.6061329,-0.1243975,-2.5576928,-1.0850494,5.680436
656,1715181458060,1.8072778669381524,-0.6049506620259608,-0.10786739633494527,-2.5449880599898194,-1.2597931826418935,5.673168363196742
657,1715181458070,1.744736,-0.6027791,-0.07750452,-2.491118855293457,-1.6965524316203313,5.783986555181129
658,1715181458080,1.744736,-0.6027791,-0.07750452,-2.4827092,-1.7284433,5.818186
659,1715181458090,2.033173845998485,-0.35434420467053773,0.26700598473365317,-2.2537741739964656,-1.597639845316839,6.15567959075991
660,1715181458100,2.125063,-0.275199,0.37660733,-2.1809415999999997,-1.5560265,6.2630486
661,1715181458110,2.2382231404870216,-0.021364172544822056,0.3065942069119615,-1.9267391393096065,-1.626616783435911,6.057310214557131
662,1715181458120,2.5188055,0.6080233,0.13299556,-1.8361513512680259,-1.741996294082546,5.6248088082048735
663,1715181458130,2.5188054999999996,0.6080233,0.13299556,-1.9375118,-1.724778,5.35515
664,1715181458140,2.504627408871795,0.7132611140512821,0.19490670989230768,-2.196509276051282,-1.3733908524666665,5.210194902820513
665,1715181458150,2.4566069,1.0696965,0.40459678,-3.0737212,-0.18325958,4.719239
666,1715181458160,2.4566069,1.0696965,0.40459678,-3.0737212,-0.18325958,4.719239
667,1715181458170,2.485919938667006,1.2925614906385146,0.4851677656982956,-3.065698126532689,0.10156197978122615,4.162433288323582
668,1715181458180,2.4446626362747557,1.492638770970168,0.5763466235848583,-3.0645583,0.14202617,4.0833287
669,1715181458190,2.4362397,1.5238694,0.59113204,-2.9010613174918323,0.06701317742900227,3.9209851118622767
670,1715181458200,2.4362397,1.5238694,0.59113204,-2.5233316,-0.10629055,3.5459201
671,1715181458210,2.277188907102196,1.8497227735429655,0.5441546103442667,-1.5916016481160207,-0.3901249240851179,2.4404810571699644
672,1715181458220,2.2285447,1.949382,0.529787,-1.3066407,-0.47693303,2.1029036
673,1715181458230,2.1214115629052848,1.996758952769977,0.5658140442685728,-1.1236103931835588,-0.3317570206561144,1.6371871139137095
674,1715181458240,1.8951989408906882,2.071458791118421,0.6331214854504049,-0.89461213,-0.15012014,1.0545062
675,1715181458250,1.8384081973214286,2.07859238872449,0.6544887172602041,-0.6724628126479593,0.24676781806632656,0.4349549245510204
676,1715181458260,1.8302287,2.0795116,0.65790427,-0.63056564,0.32162055,0.31810808
677,1715181458270,1.958363199229386,2.1069609346519393,0.7331649424197277,-0.1465386564693039,0.5922305062856408,-0.3442594615566401
678,1715181458280,2.027191225988844,2.089659770689655,0.7631905895537526,0.12275301158848884,0.5746339467748478,-0.6126721990365112
679,1715181458290,2.1969573,2.0323138,0.8324875,0.7912232,0.45662177,-1.2347114
680,1715181458300,2.1969573,2.0323138,0.8324875,0.7912232,0.45662177,-1.2347114
681,1715181458310,2.135371709133247,1.821005090556274,0.7484729151099612,1.4331158470375163,0.4596831438214748,-1.8966269671410092
682,1715181458320,1.974311955941221,1.4630189964530023,0.500582619168989,2.1702310494552823,0.5209141944514821,-2.8404005044844185
683,1715181458330,1.9578581,1.4359374,0.47386913999999997,2.199573,0.5297729,-2.898403
684,1715181458340,1.687954789976988,1.0152656267936588,0.27423784738174384,2.1954703299923293,0.7041126429813346,-3.6543469758629508
685,1715181458350,1.6664996,0.9818255300000001,0.25836873,2.1592482243037976,0.7761126962278481,-3.805715097620253
686,1715181458360,1.5579227544473007,0.7482097824524422,0.2911478530359897,2.009085644832905,1.0836011420051415,-4.193619632544987
687,1715181458370,1.5381995000000002,0.7057729,0.2970905,1.9964814430481956,1.1437696371688115,-4.278611230381024
688,1715181458380,1.642764409182899,0.5856922156083987,0.37320237753098917,2.1059664857070577,1.236592127826967,-4.5869897376675945
689,1715181458390,1.687619882183187,0.5390316466499373,0.40354886903387704,2.1498532013801754,1.241949941455458,-4.656845539272271
690,1715181458400,1.9382924445819651,0.4455419012376863,0.4758071165092195,2.4915969541045717,1.1772636235160394,-5.097621531144228
691,1715181458410,2.022496,0.39764515,0.47643024,2.7044532,1.1142182,-5.3736286
692,1715181458420,2.1667474092140924,0.12426761595603733,0.23996589767539897,2.9987427473652515,0.9567131736224029,-6.298228399156881
693,1715181458430,2.1687969712471427,0.06792648939141478,0.18457246644145286,2.968436972517145,0.9230796739649479,-6.478416406299212
694,1715181458440,2.1262704125897436,-0.12247848208256411,0.13358742394871795,2.689608722358974,0.8641144467179488,-6.859453101538461
695,1715181458450,2.1132205883851247,-0.1925066052215996,0.16286796807437592,2.4888493223382575,0.9646553556775344,-6.970117855272542
696,1715181458460,2.0587739638432363,-0.3273085687863464,0.26928731002528444,2.4788911,0.97097033,-6.9747066
697,1715181458470,2.023577129723877,-0.3972892048971305,0.28542436081754197,2.4630351440443965,1.2265329149242015,-7.046259032241473
698,1715181458480,2.0190814,-0.40648714,0.286785,2.5477190027848104,1.269048566455696,-7.031303961392405
699,1715181458490,1.8551849967935872,-0.5349029042484971,0.17922803535070142,2.7406220436873747,1.1524578561122245,-6.881232878957915
700,1715181458500,1.777116,-0.59607136,0.12799528,2.8151724,1.0958922,-6.8148127
701,1715181458510,1.560928856010296,-0.6509269362985843,0.016921965776061774,2.969667525096525,0.5677026912741312,-6.350676651248391
702,1715181458520,1.3125767,-0.7139441,-0.11067719,2.9918652,0.3594942,-6.155231
703,1715181458530,1.3125767,-0.7139441,-0.11067719,2.9918652,0.3594942,-6.155231
704,1715181458540,0.9248149623987777,-1.0285688700534759,-0.299391554262796,2.7755018177234527,-0.48601468837280365,-4.536923276088618
705,1715181458550,0.805090991706817,-1.1146440112250129,-0.3713004122245002,2.6290678909789853,-0.6771588290620194,-3.963347874167094
706,1715181458560,0.6621560505914926,-1.2194023438459605,-0.5165930211175433,1.974507149735716,-0.6329691601560534,-2.7864301237100424
707,1715181458570,0.5499198103474512,-1.2852082326147605,-0.5886548419477555,1.3155947527517118,-0.39443170779102205,-2.076617402739031
708,1715181458580,0.5155179,-1.3007466,-0.6057061,1.1441506,-0.32528573,-1.9084958
709,1715181458590,0.2740822811450382,-1.383353517124682,-0.631961413638677,-0.10846688723664125,0.2906130836717557,-0.9206067281933842
710,1715181458600,0.23562351,-1.3964839,-0.6361347,-0.30757064,0.3885103,-0.7635816
711,1715181458610,0.12103808384440844,-1.4269700177741762,-0.6274827921123717,-0.30757064,0.38851030000000003,-0.7635816
712,1715181458620,-0.5029062000050891,-1.4553947755725192,-0.4684184284045802,-1.7377364829414759,0.5752990002391857,1.5877582538167938
713,1715181458630,-0.5177741,-1.4553897,-0.46411243,-1.7785342,0.58062744,1.6548339
714,1715181458640,-0.5177741,-1.4553897,-0.46411243,-1.7825846216216217,0.4810398882882883,1.976358109009009
715,1715181458650,-0.5177741,-1.4553897000000002,-0.46411243,-1.7925841,0.23518312,2.7701210000000005
716,1715181458660,0.06682648440273035,-1.4517263425833553,-0.2994200203806774,-1.4098736946967707,-0.515199183323707,4.878179872302441
717,1715181458670,0.5645012598821681,-1.3529428219167319,-0.26011207992930085,-1.227638018067557,-1.0196893501963866,5.93788309607227
718,1715181458680,1.2773916,-1.1001252,-0.32099435,-1.133155,-1.5870279,6.603453
719,1715181458690,1.4097197488175255,-1.014372186253423,-0.3158355392457058,-1.1616758697037588,-1.7752169873786408,6.63148654493403
720,1715181458700,1.4431939,-0.99267983,-0.31453055,-1.1688906,-1.8228219,6.638578
721,1715181458710,1.6840143303030302,-0.8429098760378788,-0.24922827981060608,-1.2857796977777778,-2.030332828888889,6.613186022222223
722,1715181458720,1.7637978248453607,-0.7542932114690721,-0.012326626458762886,-1.869221961030928,-1.7086714077835052,6.726360334536082
723,1715181458730,1.8457806380217556,-0.6930065557171767,0.12459809719959525,-2.2584020603086263,-1.3079152272704275,6.835521124209461
724,1715181458740,2.0168728405889884,-0.5145676550985915,0.2369370562253521,-2.7243424633802817,-0.5078114142816902,6.863361463380281
725,1715181458750,2.1385083707482995,-0.36972195009826153,0.18054529054925675,-2.8018528121189217,-0.2596157318946838,6.72533060420761
726,1715181458760,2.2613726462204125,-0.14917303293967932,0.10713774302239756,-2.7654588408500893,-0.3254514043115297,6.562599929193179
727,1715181458770,2.3312335,0.047380816,0.07719963,-2.5951083,-0.711658,6.111554
728,1715181458780,2.3312335,0.047380816,0.07719963,-2.5951083,-0.711658,6.111554
729,1715181458790,2.1267442307535642,0.17920957814562116,0.1472613135081466,-2.255538976934827,-1.2316752686863544,5.412335032281058
730,1715181458800,2.1057327,0.19275515,0.15446024,-2.2206478,-1.2851077,5.3404894
731,1715181458810,2.1057327,0.19275515,0.15446024000000003,-2.2206478,-1.2851077,5.3404894
732,1715181458820,1.9264516397425793,0.2875405442132913,0.263530773012871,-2.1140306684265826,-1.1553206851326505,5.275240835986341
733,1715181458830,1.887179379107098,0.45841626704790567,0.3475309675570604,-1.9410901376724354,-1.0310112285678454,5.216907823802358
734,1715181458840,2.0807139613706367,0.7239307867043121,0.3287702692915811,-1.553538073613963,-1.0570775999743327,4.941770578670432
735,1715181458850,2.332636,1.109455,0.27733323,-1.370018,-1.0821478,4.702746
736,1715181458860,2.332636,1.109455,0.27733323,-1.370018,-1.0821478,4.702746
737,1715181458870,2.37452740138497,1.3267302462169788,0.2209411920415491,-1.370018,-1.0821478,4.702746
738,1715181458880,2.3865418,1.3890445,0.20476803,-1.370018,-1.0821478,4.702746
739,1715181458890,2.469763631389901,1.7206221290213433,0.22485306524726706,-1.7168927727225405,-0.3132474737532535,3.483269474023946
740,1715181458900,2.492410561085973,1.86848636561086,0.24980708417797887,-1.9198344128959277,0.26308551659879337,2.687765622473605
741,1715181458910,2.405607181594615,1.9967705295884026,0.36960125082060574,-1.8658103555526793,0.4452693281128657,2.358203091095004
742,1715181458920,2.2495825,2.1858592,0.47935723999999996,-1.2910637,0.6910413,1.2983941
743,1715181458930,2.2063570543637745,2.2510793167214773,0.4581812046546927,-0.7430991013154566,0.5234671923349354,0.634111732329876
744,1715181458940,2.1304490005994006,2.2582042914085916,0.3814460064335664,-0.26220047216783215,0.3031269252147852,0.045654661138861144
745,1715181458950,2.049920731050908,2.208074328966955,0.3471559496963382,0.10961916924084547,0.07095234353378982,-0.4458413668651384
746,1715181458960,2.036599122011625,2.0832089188021228,0.3699859183598686,0.1928807,0.016340645,-0.5577199499999999
747,1715181458970,2.0896136623655917,2.0021444715053764,0.3939608147849462,0.5947380849462366,0.07886647948924731,-1.3942178255376345
748,1715181458980,2.0977442,1.9915797,0.39715729999999994,0.6571383,0.08857546,-1.5241088
749,1715181458990,2.131696720527116,1.929516660669032,0.41258566070957936,0.6898773201875316,0.15086056820070956,-1.648499133147491
750,1715181459000,2.1392102,1.9157825,0.41599986,0.76831573,0.30008754,-1.9465221
751,1715181459010,2.117817662470496,1.538605912588513,0.3712549555232101,1.1996786780959874,0.6412563726357199,-2.985120333280881
752,1715181459020,2.0642510481218275,1.2843406011167513,0.3579313635152284,1.4875175308629442,0.786660247248731,-3.610183667005076
753,1715181459030,2.016014632236842,1.1269004479251012,0.36214625892712554,1.6505907491902834,0.8421571832995952,-3.9376998975708504
754,1715181459040,1.970575132888105,0.9703111519405242,0.37781872835181446,1.7476854,0.8784242,-4.1335726
755,1715181459050,1.9452964,0.8800513,0.39532796,1.7930430818019854,0.9177987436497836,-4.235456204581318
756,1715181459060,1.9039214236581021,0.604738429610786,0.36149933540066137,2.0229175390994656,1.2923336507758838,-4.881074599898245
757,1715181459070,1.8875851677852349,0.4276718845637584,0.35829435637583895,2.0493002,1.345278,-4.9623637
758,1715181459080,1.8900023178397747,0.27021087085743534,0.3880460563040696,2.2133117157409776,1.5086766031226007,-5.313799255055029
759,1715181459090,1.8799540921348314,0.1563464685942572,0.4005621064044944,2.4284449463171036,1.5649283168539327,-5.531846567166043
760,1715181459100,1.8712678,0.092078544,0.40471873,2.564107,1.5774068,-5.6340103
761,1715181459110,1.9025015656012576,-0.01853196352318575,0.3658442263400577,2.7576621802462666,1.5341437039035892,-5.709638413780456
762,1715181459120,2.0324967,-0.1006766,0.26519838,3.107166,1.377043,-5.8227677
763,1715181459130,2.1896441600302805,-0.12467947045167802,0.10291280915316679,3.139069025485743,1.2195802255362098,-6.090608225510977
764,1715181459140,2.290831897144314,-0.1369470844110148,0.016378083359765424,3.154661,1.1426234,-6.22151
765,1715181459150,2.3440616035804336,-0.17918064800806854,0.027713356507312152,3.032779375693394,1.0880913107665153,-6.367248076676753
766,1715181459160,2.3728213,-0.25013652,0.065674566,2.82403,0.9947941,-6.6165867
767,1715181459170,2.2636589890126584,-0.4885593131341773,0.08707081022683544,2.679793262379747,1.0202858106835444,-6.742225116506329
768,1715181459180,1.9217437700739228,-0.6596023494621465,-0.02302374597501912,2.295871616314045,1.1453007579913332,-6.486148296150905
769,1715181459190,1.693060622908266,-0.7052858898689516,-0.08605213355846775,2.0929520950604834,1.1498665862903226,-6.2800907468750005
770,1715181459200,1.531116711015447,-0.7042877424411244,-0.07453377641174981,2.060701168802228,1.1225802263813622,-6.223914162066347
771,1715181459210,1.3437517940996948,-0.6998936772126143,-0.03227931910010173,1.9050988057477112,0.9110459298219736,-5.875328943591048
772,1715181459220,1.2294384380952381,-0.7460596097812097,0.010809871292664093,1.8929735516087516,0.4710951435135135,-5.295599857220078
773,1715181459230,1.0894197653071762,-0.9268898760970573,0.04880140253588023,1.9407927505420755,0.1319417741641714,-4.70697963448632
774,1715181459240,1.0190839,-1.0058514,0.055430062,1.9561433,0.028099801,-4.455193
775,1715181459250,0.774616755262484,-1.1897245030985917,-0.10658950223457106,1.8304098333418695,-0.029266076760819465,-3.5297426039436623
776,1715181459260,0.73394525,-1.2203151,-0.13354437,1.7379639364892014,-0.02388445514013059,-3.1607089405323956
777,1715181459270,0.42577664275758403,-1.3102051553429899,-0.2990340078245422,1.3319959635146215,0.07879398292156325,-2.133304309756764
778,1715181459280,0.31709167,-1.3419076,-0.35739892999999995,1.2548699,0.10125092,-1.969735
779,1715181459290,0.31709167,-1.3419076000000003,-0.35739893,0.9088768983761415,0.15465224333047947,-1.4145991538527396
780,1715181459300,-0.15879834276285493,-1.3907195981580964,-0.5370617235251982,0.1318944622161678,0.2315642965592223,-0.3391677226016884
781,1715181459310,-0.3200951220842912,-1.4015198925670498,-0.5444448528888889,-0.2802462572099617,0.2947482158237548,0.25498895666666666
782,1715181459320,-0.4435553010175528,-1.3987862160264564,-0.5101501075553294,-0.5859725,0.34681875,0.701426
783,1715181459330,-0.52734786,-1.3750192,-0.44642848,-0.5859725,0.34681875,0.701426
784,1715181459340,-0.4339531497964376,-1.3990123469720102,-0.36974388162849875,-1.181335153740458,0.233755055129771,2.6193685536895672
785,1715181459350,-0.39294976,-1.409522601287664,-0.33608327476435745,-1.442399267937162,0.1840500257120783,3.460856126371362
786,1715181459360,0.20354846,-1.3672138,-0.20446315,-1.4178182,-0.30451632,5.2354207
787,1715181459370,0.20354846,-1.3672138,-0.20446315,-1.3974218457514673,-0.499738762158714,5.758792966292422
788,1715181459380,0.5964027621538461,-1.1978234751923078,-0.19502200755128205,-1.391764218076923,-0.7432739875897436,6.011294324615385
789,1715181459390,1.5534443,-0.78516775,-0.17202222,-1.3881912,-1.2388347,6.3649106
790,1715181459400,1.5635247851330205,-0.7749218527647367,-0.16709171921752738,-1.4040045541992698,-1.2417583776212833,6.354012519666145
791,1715181459410,1.7466872,-0.5887539,-0.07750452,-1.6913332,-1.2948816,6.1559944
792,1715181459420,1.7466872,-0.5887539,-0.07750452,-1.6913332,-1.2948816,6.1559944
793,1715181459430,1.6687796611012433,-0.6024516145648313,0.03017927130575996,-2.125153777518396,-0.9174735233494037,6.276981574422735
794,1715181459440,1.741229430035696,-0.5647627935747068,0.17201554833656296,-2.7382545614227434,-0.3027002790132586,6.489296039010709
795,1715181459450,1.8639859833291426,-0.4636850329695751,0.236859161651999,-2.8544207,-0.12873985,6.558707
796,1715181459460,2.0045716362222787,-0.28106005113943405,0.2448764540147846,-2.789247381876115,-0.1587256598394086,6.51520738643895
797,1715181459470,2.23045982283825,0.0015163851297049882,0.217950480974059,-2.4574969247202443,-0.47809146242370293,6.297644337029501
798,1715181459480,2.300683,0.08659042,0.21202457,-2.326633,-0.64644814,6.212805
799,1715181459490,2.412241232891382,0.3309979703034166,0.24279431085670578,-2.055401589265681,-0.9082235861346251,5.975489618918919
800,1715181459500,2.412242288522527,0.5674721352554744,0.26345390733450796,-1.3812320366222,-1.4737791464384598,5.2782568829599805
801,1715181459510,2.2142468548818086,0.6007260336176773,0.21265430190647483,-1.3208820283144913,-1.3437932107399795,4.927866072199383
802,1715181459520,2.0326796,0.6015595,0.16171674,-1.3263412,-1.2009611,4.692514
803,1715181459530,1.6231482582709675,0.49515141230193555,0.025632542412129034,-1.5831603417806452,-0.9255427685780645,4.688255644025807
804,1715181459540,1.5561865866084015,0.5040683226670426,-0.003366214784324781,-1.9526308,-0.52931476,4.6821294
805,1715181459550,1.6063740999999998,0.5392997,0.0102445,-1.9542295326732675,-0.5282946348514852,4.6831132363036305
806,1715181459560,1.6063741,0.5392997,0.0102445,-2.1948388,-0.3747658,4.8311806
807,1715181459570,1.89906013684481,0.7997380384892085,0.11304616155704009,-2.2007822644912642,-0.3410440016289825,4.700211232913668
808,1715181459580,2.2456188,1.1081134,0.23476979,-2.2078197,-0.30115658,4.5452957
809,1715181459590,2.3099831725007505,1.240797516121285,0.23664584930351248,-1.7720280744220955,-0.4184455354247974,3.9979321863404387
810,1715181459600,2.481353755836961,1.6700676834982193,0.2237216385199842,-1.2253957,-0.5682574,3.3738088999999998
811,1715181459610,2.384892749615582,1.8574465568682725,0.11614431052024603,-0.9022729774474627,-0.4863112456688877,2.6096687069707842
812,1715181459620,2.354310162325817,1.8962359711173042,0.08669216721864707,-0.7532368863643274,-0.4342690549835318,2.2269772529769445
813,1715181459630,2.2724497,1.9747493,0.076711796,-0.86086184,-0.09330966,1.6997325
814,1715181459640,2.227562508358434,1.9817017469126508,0.10645882227108434,-0.9226761416365462,0.11631777130522088,1.3822894322289156
815,1715181459650,2.1913474,1.987311,0.13043444,-0.9686412563340123,0.30950844775458247,1.0785153189918533
816,1715181459660,2.1125626920445715,1.944931532884167,0.25631531576055977,-0.5040193881394144,0.47895470355791653,0.04926802304223891
817,1715181459670,2.0538394,1.9133434,0.3501424,0.020572486842105258,0.37904190236842106,-0.5960879168421053
818,1715181459680,1.9982800398396392,1.7829258951140063,0.2552240711901779,0.8461600639789527,0.07393983528514157,-1.323837521072413
819,1715181459690,1.9869460191780823,1.7602380753424658,0.23498195808219177,0.9086621,0.050549097,-1.3785702
820,1715181459700,1.9310950646406053,1.6692757969735184,0.12521684963808322,1.2049752566708702,-0.04829540872282471,-1.886016064968474
821,1715181459710,1.8522496197895792,1.5559655520541082,0.060624931969438876,1.3193163,-0.086437434,-2.0818288
822,1715181459720,1.8130326,1.5019779,0.039941356,1.3193163,-0.086437434,-2.0818288
823,1715181459730,1.8130326,1.5019779,0.039941356,1.3179672898115131,-0.08227799552445236,-2.1024077719816607
824,1715181459740,1.8130326,1.5019778999999998,0.039941356,1.2881621,0.0096211275,-2.557082
825,1715181459750,1.8130326,1.5019779,0.039941356,1.2881621,0.0096211275,-2.557082
826,1715181459760,1.7813316927521543,1.4370096298023314,0.054166718831728335,1.2881621,0.0096211275,-2.557082
827,1715181459770,1.8204700280000001,1.200757749,0.2666753187,0.6402203942,0.9556101088250001,-3.533290485
828,1715181459780,2.0823794434556335,0.7625303651053864,0.5621873611709601,1.9718955227166273,0.9637114908665105,-4.917894487119438
829,1715181459790,2.102074,0.7297987,0.58405846,2.2500263823603737,0.8682534983067981,-5.153058129946929
830,1715181459800,2.102074,0.7297987,0.58405846,2.6032023,0.679893,-5.4195967
831,1715181459810,2.1752682075708196,0.6614580043369266,0.5768517867184758,2.6032023,0.679893,-5.4195967
832,1715181459820,2.2143907017543856,0.6100708719298246,0.5643825043859648,2.6032023,0.6798930000000001,-5.4195967
833,1715181459830,2.271352,0.5171033,0.535702,2.6032022999999995,0.679893,-5.4195967
834,1715181459840,2.269823515834411,0.33093600383958605,0.4720032059456662,2.5749150563260024,0.6884207772833117,-5.801949942328589
835,1715181459850,2.2634857,-0.44100136,0.20787798,2.4578164,0.7237226,-7.384750000000001
836,1715181459860,2.241943061232349,-0.49282305300128365,0.2723621708395379,2.5189752320924264,0.665961488292683,-7.4495124187419774
837,1715181459870,2.1995797,-0.59472984,0.39916962,2.8242155826484017,0.3982973915068493,-7.651826400913242
838,1715181459880,2.15959572096004,-0.6573347150540337,0.4212976830610706,2.9245174,0.31474832,-7.6924734
839,1715181459890,2.1550648,-0.664429,0.4238052,2.9245174,0.31474832,-7.6924734
840,1715181459900,1.9095749194565497,-0.9255054809023328,0.3265640473468341,3.6601194503460652,-0.3372362552371187,-7.439951289669316
841,1715181459910,1.822699545507028,-0.9774832296184739,0.2835635867871486,3.7863104855421685,-0.46004592752008033,-7.33530325251004
842,1715181459920,1.4861844,-0.9986558,0.07896802,3.5296525399485272,-0.45930161464969976,-6.540152838004004
843,1715181459930,1.073715467389138,-0.9782897458893871,-0.3069242414748381,2.8062250618834086,-0.5286764492401594,-5.240043460388639
844,1715181459940,1.0322345990716864,-0.9707193703455389,-0.3253950274368231,2.2298859970603404,-0.35015669228984014,-4.598866620422898
845,1715181459950,1.0265234,-0.9632879,-0.304408,1.5367843,-0.11148291000000002,-3.8530326
846,1715181459960,0.8964704284877316,-1.0523166955683527,-0.3155768701527291,1.5367843,-0.11148291,-3.8530326
847,1715181459970,0.27903729380542186,-1.407930559969597,-0.47062989996199645,0.5116108239827718,0.3508272517329617,-2.3988497979731442
848,1715181459980,0.04984082403416558,-1.5338151080157687,-0.4909997828383706,-0.3919583423653088,0.6464563579632063,-1.0158121075952693
849,1715181459990,-0.18476687,-1.6582675,-0.47905236,-0.75808376,0.7464773,-0.30680707
850,1715181460000,-0.24127202725440805,-1.6397536428463475,-0.46380558622670026,-1.0019788367959699,0.7722829628211586,0.29113860484130977
851,1715181460010,-0.3044512251345962,-1.5904926614157526,-0.41765416725822535,-1.2959156741525424,0.7577097266949152,1.0954327869067797
852,1715181460020,-0.32112947600823044,-1.5252773142489713,-0.3517296648662552,-1.4717319711934158,0.6920375830761317,1.7401373158950617
853,1715181460030,-0.2904462444037657,-1.4328295958158996,-0.25423739709205023,-1.5951219,0.6093381,2.313194
854,1715181460040,-0.23068418,-1.3770316,-0.19245026,-1.6487602372573735,0.5002890567103605,2.9525737759011847
855,1715181460050,-0.09549178780995934,-1.337924762042683,-0.17334295642784553,-1.6446316993140242,0.3704000299542683,3.5020253004827238
856,1715181460060,0.3698996299999999,-1.2033019,-0.10756725,-1.5764905,0.03359759,4.748561
857,1715181460070,0.47551784778929185,-1.1856947963730569,-0.11228213370466321,-1.6283733557858378,-0.08174666018998274,5.1562961480713865
858,1715181460080,0.63217103,-1.1595799,-0.11927526,-1.7613731655844156,-0.15707879727772228,5.564311775174826
859,1715181460090,0.8209524191109996,-1.1080471013058764,-0.11791542595379205,-1.7957910999999998,-0.17562376,5.666997
860,1715181460100,1.0618319823329854,-0.9819439757306889,-0.10683613344258873,-2.18250607348643,-0.21838177399791228,6.021643605167014
861,1715181460110,1.285818729348371,-0.8409492242982456,-0.10123692575438596,-2.3261747,-0.23426682,6.1533985
862,1715181460120,1.4400905529178047,-0.7372364624161907,-0.08250875235162652,-2.677902969605165,-0.2734377055674199,5.984265355202384
863,1715181460130,1.4826474,-0.7075413,-0.07335794,-2.856864,-0.29336804,5.8982096
864,1715181460140,1.4598468563011888,-0.747712721661823,0.019407532972258914,-3.0161281500660504,-0.2327422853072655,5.9521843231704095
865,1715181460150,1.5033366950573248,-0.7808781008815286,0.23459145355414013,-3.234904555210191,-0.1972719295001274,6.203485151363058
866,1715181460160,1.7988245,-0.6255853,0.33788556,-2.9109256,-0.47968194,6.6831713
867,1715181460170,1.9713468441842708,-0.42945502837083227,0.32451903168999746,-2.6473205399338258,-0.7113676753474166,6.528336835988801
868,1715181460180,2.3576376,0.009695687,0.29459035,-2.0570886,-1.2301298,6.1816506
869,1715181460190,2.3605492426732964,0.04284482807604562,0.27221584769523255,-2.0084627808716,-1.2822467855513309,6.08272604469143
870,1715181460200,2.363213597775,0.14502568298250001,0.1976613913975,-1.871813412275,-1.4603130454,5.6718045948
871,1715181460210,2.320285710530284,0.1962207888766022,0.12460865567856245,-1.8747455,-1.4752395,5.6020923
872,1715181460220,2.3565108793881255,0.3413427204614986,0.19692489796085041,-2.2815154826808404,-1.1448046846512834,5.429241484754991
873,1715181460230,2.3763583,0.37691224,0.27275982,-2.5827382,-0.90010995,5.3012414
874,1715181460240,2.41279127003988,0.5731725582951146,0.47412327837487533,-3.2116787221834495,0.3636346586739781,5.179903543569291
875,1715181460250,2.452994560111789,0.6320480847052845,0.47530687901422763,-3.2215507,0.38347065,5.177999
876,1715181460260,2.6404398337227017,0.9318933647892331,0.46308198783646526,-2.99524423039614,0.4584893419426105,4.754029924428644
877,1715181460270,2.6958687666666665,1.04898396,0.46799479,-2.7571912,0.34992397333333336,4.477646001101101
878,1715181460280,2.7531483,1.1830568,0.48246717,-2.4365888,0.08124508,4.2164974
879,1715181460290,2.6885492298526423,1.5083733944867885,0.5035488985797764,-1.4034112472560978,-0.4981916761839431,3.361328651371951
880,1715181460300,2.6716802,1.5933247,0.50905406,-1.1336132,-0.64950246,3.1380148
881,1715181460310,2.5758351679226066,1.6430909774949083,0.4919953285056008,-0.935784885539715,-0.638801168691446,2.9129127398167007
882,1715181460320,2.2658777006222,1.8238137022648082,0.4016170129417621,-0.4012825669064211,-0.43074450853658536,2.1137624095321055
883,1715181460330,2.2140315,1.8697432,0.3584965500000001,-0.4272730315600306,-0.14970843918174867,1.805304481723171
884,1715181460340,2.1931667304402516,2.0381954233962265,0.30880632250314466,-0.5491806687974842,0.31410640573383647,1.1256723827924529
885,1715181460350,2.171211856223176,2.0863924408987633,0.32765332389548096,-0.46347444339560717,0.39927388700328204,0.7346054548093917
886,1715181460360,2.0803244971702877,2.0475834544719556,0.38549564075795856,-0.012809262371905003,0.347543887170288,-0.01081519067710965
887,1715181460370,2.0140200824690107,2.0066987223627626,0.36973288630407286,0.4128636713776878,0.2033161399595244,-0.44188709593979253
888,1715181460380,1.898570249492128,1.927564427932961,0.31676575485017777,0.9875897243270696,-0.009432575289487048,-0.9953615663153885
889,1715181460390,1.8862077,1.9190145,0.3109328,1.0474812,-0.03176499,-1.0528263
890,1715181460400,1.730007036400818,1.7431614323875255,0.16327249115797546,1.4740339772494888,-0.08025347428680982,-1.8064029102760737
891,1715181460410,1.6776871495029821,1.6754448294234592,0.11445083632455269,1.584768253528827,-0.07421925374751491,-2.0668823791749507
892,1715181460420,1.601323443009931,1.5411713786096257,0.060590093177998475,1.559690603208556,0.04968541740106952,-2.4538309139037433
893,1715181460430,1.5596641,1.472281,0.04049017,1.5247196,0.122783914,-2.6441302
894,1715181460440,1.5596641,1.472281,0.04049017,1.495416398859127,0.161574313171627,-2.733378754811508
895,1715181460450,1.5596641,1.472281,0.04049017,1.4077389,0.27763826,-3.0004175
896,1715181460460,1.7773589140812676,1.1507121845131612,0.23388123906465627,1.7101195797853308,0.18655583845642731,-3.9222885273447488
897,1715181460470,1.95978977224571,0.9542154675951255,0.352743662820194,1.8341229,0.14920384,-4.3003387
898,1715181460480,2.0093856,0.9198098,0.3738023,2.01005470821501,0.11747950322261663,-4.55945224954361
899,1715181460490,2.024593660436137,0.8902264449636552,0.366710273032191,2.1308482422897197,0.12816657116303218,-4.816209567393562
900,1715181460500,2.210007,0.5308845999999999,0.28056514,2.2977695,0.49220467,-6.0219097
901,1715181460510,2.210007,0.5308846,0.28056514,2.2977695,0.49220467,-6.0219097
902,1715181460520,2.210007,0.5308846,0.28056514,2.2977695,0.49220467,-6.0219097
903,1715181460530,2.2386816395978344,0.48986393881928336,0.26401109797370453,2.2949090292085588,0.5322135940886826,-6.149445164655839
904,1715181460540,2.4427035,0.19799936,0.14622805,2.3192976747054397,0.7706471778390575,-7.278917392629731
905,1715181460550,2.5764995815247778,0.09720357060228717,0.1330243790343075,2.377474562033037,0.7048830452350698,-7.608767291359594
906,1715181460560,2.5865460422018347,0.03395365385321101,0.14895868550458716,2.4116525834862386,0.6652448513761468,-7.96944892293578
907,1715181460570,2.602347,-0.27928457,0.23897736,2.4271204,0.7686212,-8.037765
908,1715181460580,2.330353331919141,-0.5465172844497129,0.21709668248565012,2.404117303419017,0.7751246881956576,-7.827177870476666
909,1715181460590,2.2574487,-0.6181458,0.21123183,2.3979516,0.77686787,-7.770817
910,1715181460600,2.110193274264706,-0.6406511801470588,0.19045766272058826,2.380609275,0.6575388487576065,-7.481693378752536
911,1715181460610,2.005181467445328,-0.6409044966500994,0.18597576629224652,2.377827543364811,0.6147171872142146,-7.404242040457256
912,1715181460620,1.9568825,-0.63887876,0.1853157,2.3780985,0.43050727,-7.1642275
913,1715181460630,1.6178951278063851,-0.8968675327548918,0.1655599533522142,2.3165180302523174,-0.008594984709062807,-6.211384860453141
914,1715181460640,1.3709337,-1.0848193,0.15116736,2.271655,-0.3284928,-5.517946
915,1715181460650,0.9558012261837727,-1.2495131479651906,0.11263832968006142,1.5829007624776044,0.05171704625543896,-4.263163502943435
916,1715181460660,0.8755389,-1.2813553,0.10518907,1.449736,0.12522738,-4.020562
917,1715181460670,0.34755863747469634,-1.3396110048076924,-0.006534922439271256,0.8065832886892713,0.6257657799797571,-2.951964567257085
918,1715181460680,-0.030246361976093587,-1.4412753402085452,-0.02825498949415056,0.5363746615462869,0.803813555335707,-2.248690728942014
919,1715181460690,-0.22543997,-1.5002705,-0.040002335,0.18585575,0.99296147,-1.0065532
920,1715181460700,-0.22543997,-1.5002705,-0.040002335,0.18585575,0.99296147,-1.0065532
921,1715181460710,-0.22543997,-1.5002705,-0.040002335,0.17934517592424243,0.9888446852777778,-0.9391034964646464
922,1715181460720,-0.33059454112686565,-1.50774721079602,-0.07327041340547263,0.08231409,0.9277516,0.061850104
923,1715181460730,-0.4124021,-1.5135639,-0.099152125,0.08231409,0.9277516,0.061850104
924,1715181460740,-0.3022845663736842,-1.4255610200526316,-0.16343395916578946,-0.13218367781578946,0.5989260360526315,1.6510213685326316
925,1715181460750,-0.13582168678691375,-1.331288623146977,-0.23400761551226915,-0.34804046,0.2680171,3.2502613
926,1715181460760,0.12980545214275896,-1.3210564954533712,-0.2674121438413847,-0.7418378689124258,0.21066684480754327,4.104391713846551
927,1715181460770,0.16842447,-1.3220893,-0.27306473,-0.8587238,0.19364429,4.3579125
928,1715181460780,0.5506947932085561,-1.2666482215686274,-0.2810240791087344,-1.35004847201426,0.1393428822459893,5.290934206773618
929,1715181460790,0.6503762257642256,-1.24389481645828,-0.285306530186272,-1.5071546958407758,0.047503656662413886,5.571814330696607
930,1715181460800,0.9543398318965518,-1.1494692518255578,-0.29450434997464503,-1.7542523,-0.1591304,5.999002
931,1715181460810,1.0415673916989916,-1.1136305124644426,-0.2932131685208172,-1.8749366259891391,-0.3043635737264029,6.077667341349883
932,1715181460820,1.3645711462153385,-0.9149756806395204,-0.28076103675743197,-2.0825922,-0.56031615,6.1173573
933,1715181460830,1.4455721,-0.8599282,-0.27849188,-2.0825922,-0.56031615,6.1173573
934,1715181460840,1.4455721,-0.8599282,-0.27849188,-2.0825922,-0.5603161499999999,6.1173573
935,1715181460850,1.4558147319889083,-0.8536910192336779,-0.27283943118477444,-2.0825922,-0.56031615,6.1173573
936,1715181460860,1.7794520501284026,-0.6361597915767848,-0.06012384948895737,-2.411063681818182,-0.6451074048664612,6.1925495516435545
937,1715181460870,2.004786356039504,-0.464240831299063,0.09046158077994429,-2.6342988557103064,-0.7373635628007089,6.259548451000254
938,1715181460880,2.1032934,-0.3734974,0.14238635,-2.5592198,-0.7770206,6.2694626
939,1715181460890,2.1032934,-0.3734974,0.14238635,-2.5592198,-0.7770206,6.2694626
940,1715181460900,2.3801320444444447,0.07650176111111112,0.10667289055555555,-2.1692673,-1.020637088888889,5.7063296333333335
941,1715181460910,2.4592288,0.20507295,0.096469045,-2.067409575705645,-1.1049555336189516,5.4555961374747985
942,1715181460920,2.2452197327651042,0.278948495224367,-0.011853041387565804,-2.3569289886437703,-1.0258469306593132,5.087175844422162
943,1715181460930,2.186835,0.2991028,-0.041404855,-2.4332016136157337,-0.9918623877458396,5.04556017344932
944,1715181460940,2.186835,0.2991028,-0.041404855,-2.9639182000000006,-0.6087272,4.9292245
945,1715181460950,2.3040126172762645,0.49193254794033725,0.1811517419014267,-3.2616395161089495,-0.19283556775875488,4.8651594830609595
946,1715181460960,2.4403253,0.71601737,0.43978173,-3.6076174,0.29046643,4.7907104
947,1715181460970,2.5891943501658585,0.9374319202857871,0.527926576917581,-3.2841300961469764,0.16055784152845112,4.5632015363613165
948,1715181460980,2.6356836154670753,1.0608941313425218,0.5450371539561,-2.6989709358856557,-0.09465480430321593,4.120370143185299
949,1715181460990,2.6737206183772715,1.443640820245713,0.5296599589659585,-2.166389800614282,-0.32656791376759664,3.669759084770924
950,1715181461000,2.6688142,1.4835621,0.5233232400000001,-2.068848,-0.36896262,3.5851681
951,1715181461010,2.5772612237654324,1.6625597578703704,0.4623555193209877,-2.068848,-0.36896262,3.5851681
952,1715181461020,2.355733039417178,1.8422564854550103,0.38383353310838453,-1.5729932472903887,-0.15436083049079755,2.525953203144172
953,1715181461030,2.297498081057717,1.8894069566234426,0.37131742181032296,-1.454748077320112,-0.06094631879481312,2.2151706780574627
954,1715181461040,2.2269477671081677,2.024954786120309,0.4552166697682119,-1.4423249883002207,0.35965967218543043,1.634850157781457
955,1715181461050,2.2256948345564864,2.1570663408841377,0.6402509353077145,-0.9214742685293267,0.4246540971626698,0.9407996712655302
956,1715181461060,2.2233578424440537,2.2438544414131254,0.7054067032838823,-0.2223284196328891,0.2546237874603973,0.37628584090520495
957,1715181461070,2.1903155597776656,2.247664616422435,0.6732923506619504,0.3772320567761495,0.08555856331985852,-0.09162485298635675
958,1715181461080,2.1824443,2.245497,0.66430706,0.4961753,0.052228979999999994,-0.18524489
959,1715181461090,2.1659176823529407,2.2300046298844536,0.637811880367647,0.4961753,0.05222898,-0.18524489
960,1715181461100,2.1276243,2.1941524,0.5764971,0.649420110736681,0.0439313803038491,-0.36405074019882744
961,1715181461110,2.1276243,2.1941524,0.5764971,0.98975444,0.025503624,-0.76067996
962,1715181461120,1.9919855171349725,2.0310635987706975,0.4424702791670848,1.1933807113346713,0.42362347738685396,-1.6256880166984446
963,1715181461130,1.7525425326530613,1.6695248979591837,0.3814929579642858,1.2914604773214284,0.9199270712500001,-2.7554967348214285
964,1715181461140,1.6874765,1.5674084,0.37416816,1.3043500000000001,1.043816,-3.0413454
965,1715181461150,1.7346883551243024,1.4332587872399798,0.47221307950279046,1.5298604446727548,1.0876301388127856,-3.4314065005580923
966,1715181461160,1.7940072,1.2647079,0.5954006,1.8132007,1.1426234,-3.9209912
967,1715181461170,1.876927089088575,1.1602037779974326,0.6637520707060334,1.9498737515275995,1.1199001406161746,-4.051886274865212
968,1715181461180,1.8872442,1.1472011,0.67223436,2.1888828,1.0801625,-4.280791
969,1715181461190,2.0987057196397445,0.7033881211069145,0.622571404201046,3.1189871188553164,0.8685507805055201,-5.438963787332945
970,1715181461200,2.1727630021505377,0.4194572310462075,0.5539124314152862,3.3834380567567566,0.7972225990700378,-5.827933913397268
971,1715181461210,2.181747048904558,0.21704326000251825,0.47348165414253335,3.52479956595316,0.6937614214681441,-6.499510107277764
972,1715181461220,2.1915864000000003,0.09688757615151515,0.4372314602878788,3.52514563,0.6861696845,-6.564459645
973,1715181461230,2.2430521520119227,-0.06392637478390462,0.4267886270938897,3.317609,0.6780604,-6.9759283
974,1715181461240,2.2873895,-0.14525238,0.43825728,3.317609,0.6780604,-6.9759283000000005
975,1715181461250,2.1903081140285074,-0.3753334093323331,0.40366299825956486,3.130964762940735,0.8325689998949738,-7.24059833615904
976,1715181461260,2.172017,-0.418683,0.3971573,3.0208328508529854,0.8660827804340191,-7.226111305519318
977,1715181461270,2.1455849507246376,-0.6837749527078566,0.25709751798627,2.9416215,0.8707883999999999,-7.158272
978,1715181461280,2.116400737614679,-0.7172722250688074,0.2207082189220183,2.811003674821611,0.7687048913608563,-6.901462843960244
979,1715181461290,1.9865627497848648,-0.7363458825487219,0.12647603324955708,2.601317180612503,0.3582090019412807,-6.338390462617059
980,1715181461300,1.7846164,-0.6268048,0.055003207,2.5103507,-0.03894266,-6.0144267
981,1715181461310,1.7846164,-0.6268048,0.055003207,2.5103507,-0.03894266,-6.0144267
982,1715181461320,1.7846164,-0.6268048,0.055003207,2.5103507,-0.03894266,-6.0144267
983,1715181461330,1.7624735333333335,-0.650265158939394,0.06354583528787879,2.4391999995529057,-0.3272419374962742,-5.788829433233979
984,1715181461340,1.2842832987146529,-1.125937468228792,0.09844248261233933,2.0487293069408743,-0.5097995035218509,-4.849424799023136
985,1715181461350,1.200192,-1.208912,0.10207913,1.9758437,-0.536187,-4.6757154
986,1715181461360,0.5736780786072144,-1.5625534353707415,-0.11690851640280563,1.4827368972945894,-0.06664521368737475,-3.406284061422846
987,1715181461370,0.5464953,-1.577897,-0.12640981,1.4613422999999999,-0.04627304,-3.3512068
988,1715181461380,0.3217549552862986,-1.6352425707566463,-0.2140861189570552,1.212700603251534,0.12040709260736197,-2.7972418398006136
989,1715181461390,-0.2362320984060189,-1.7442308580464168,-0.41680307790104565,0.5453074336699821,0.5294997398112726,-1.2986749705942362
990,1715181461400,-0.38945858232487307,-1.6745411042639595,-0.4227941238172589,0.1330317207208122,0.6071930808121828,-0.25658764596446704
991,1715181461410,-0.49063838,-1.6249118,-0.40971902,-0.35063666,0.59956425,1.1296426
992,1715181461420,-0.49063838,-1.6249118,-0.40971902,-0.35063666,0.59956425,1.1296426
993,1715181461430,-0.5045097029961391,-1.6208069451737452,-0.4141106496679537,-0.4410152268056628,0.5510176992921493,1.6499658716602315
994,1715181461440,-0.5938761,-1.5943613,-0.44240385,-0.606131,0.4175264,2.758973
995,1715181461450,-0.4642430788572867,-1.616309748024163,-0.4529207990561289,-0.606131,0.4175264,2.758973
996,1715181461460,0.14174105086923272,-1.5722865148610758,-0.38816164399694114,-1.1304741421361204,-0.0142855726484833,5.272874524598522
997,1715181461470,0.5768401212263436,-1.4236366634367903,-0.3247550998107494,-1.253174014736311,-0.1336019159727479,5.730751969972243
998,1715181461480,0.5904003,-1.4184364,-0.32270175,-1.3408492,-0.2284636,5.989381
999,1715181461490,0.5904003,-1.4184364,-0.32270175,-1.3408492,-0.2284636,5.989381
1000,1715181461500,0.5904003,-1.4184364,-0.32270175,-1.3408492,-0.2284636,5.989381
