id,timestamp,acc_x,acc_y,acc_z,gyro_x,gyro_y,gyro_z
0,1778415131460,-0.657142,-0.670405,0.35166687,0.28236416,0.21219307,-0.2780882
1,1778415131470,-0.6650015555555556,-0.6769094055555556,0.3332206644444444,0.30068956666666663,0.21891238666666668,-0.2844003
2,1778415131480,-0.671777,-0.6857717149999999,0.31980525000000004,0.34613659599999996,0.244445808,-0.298490516
3,1778415131490,-0.6722648,-0.6894305,0.3211468,0.35200074,0.252509,-0.29946786
4,1778415131500,-0.660337325,-0.697430922,0.306438627,0.372769541,0.263259905,-0.294642178
5,1778415131510,-0.6565728777777777,-0.7005151333333334,0.3041268188888889,0.3948957711111111,0.2554274833333333,-0.2930200422222222
6,1778415131520,-0.6655164888888889,-0.6995123333333333,0.32224441111111113,0.42910322444444443,0.23778078111111112,-0.2824320111111111
7,1778415131530,-0.6706793999999999,-0.6949185499999999,0.319454625,0.480767338,0.224776516,-0.25841892
8,1778415131540,-0.6657367,-0.6952573333333333,0.2957523633333333,0.5053234,0.21341476,-0.24632415000000002
9,1778415131550,-0.71473679,-0.69979691,0.31282922599999996,0.613993154,0.18525471,-0.1451067685
10,1778415131560,-0.70423825,-0.7092690333333334,0.2810529666666667,0.6616324444444444,0.14466050222222224,-0.089132795
11,1778415131570,-0.673728325,-0.71566675,0.25452705,0.65693569,0.09466605399999999,-0.043034188
12,1778415131580,-0.6545402444444446,-0.7149468333333333,0.2503804711111111,0.6323117722222222,0.07617774288888889,-0.027505093333333334
13,1778415131590,-0.6475073100000001,-0.7124806,0.24830717500000002,0.6040363,0.06534538399999999,-0.018600298799999998
14,1778415131600,-0.6412806466666666,-0.7135037,0.24493299444444444,0.5809326733333333,0.044413685333333335,-0.012641144777777776
15,1778415131610,-0.62984162,-0.71599905,0.234916152,0.568729324,0.0085365896,-0.016401249200000002
16,1778415131620,-0.639156531111111,-0.7203570677777777,0.22791303555555556,0.5372910555555556,-0.05569739333333333,-0.03850034555555556
17,1778415131630,-0.652068517,-0.72636553,0.22947679999999998,0.499031664,-0.0976897495,-0.055739812
18,1778415131640,-0.66172219,-0.72949041,0.22717787444444446,0.45475881555555553,-0.10884110555555555,-0.06564910888888889
19,1778415131650,-0.666410813,-0.725902133,0.206420573,0.3776563,-0.09200887,-0.07650862
20,1778415131660,-0.6823738333333333,-0.7274306444444445,0.19470986888888892,0.28317862,-0.07286898666666666,-0.07345438
21,1778415131670,-0.6952641666666667,-0.7339350888888889,0.19484537999999998,0.18096349999999997,-0.05400059555555556,-0.04345499333333333
22,1778415131680,-0.67203618,-0.73739058,0.191809975,0.1003316648,-0.03849865,-0.029839888
23,1778415131690,-0.6823670333333333,-0.7427974133333333,0.19603785666666665,0.0023924865555555543,-0.017146143333333332,-0.06598847266666667
24,1778415131700,-0.70334589,-0.7434884979999999,0.203786276,-0.0933680018,0.0098193695,-0.0878092942
25,1778415131710,-0.7020396155555555,-0.7356695888888889,0.21683852888888888,-0.17380301222222222,0.03022845533333333,-0.044473072222222215
26,1778415131720,-0.69592476,-0.73336595,0.22525703999999996,-0.21181129000000004,0.029549737,-0.019699825
27,1778415131730,-0.6893390022222223,-0.7352359777777777,0.24664040777777776,-0.23855283000000002,-0.00031390731111111125,0.006634479222222221
28,1778415131740,-0.66894758,-0.7224750600000001,0.27936995800000003,-0.2673984,-0.048638713,0.042606596
29,1778415131750,-0.6528870333333333,-0.7032523888888889,0.29615887777777783,-0.2698417844444444,-0.06696413233333333,0.05061548244444444
30,1778415131760,-0.64587302,-0.688430462,0.306219098,-0.280592682,-0.13403516399999998,0.079135263
31,1778415131770,-0.6481713055555556,-0.6846605511111111,0.31504887111111113,-0.2928503533333333,-0.12757375333333332,0.07606745333333334
32,1778415131780,-0.650458706,-0.682795944,0.32647636,-0.306981292,-0.108135238,0.07107208000000001
33,1778415131790,-0.6443364,-0.6812457444444444,0.3366253311111111,-0.3100219511111111,-0.0968956488888889,0.07016259488888889
34,1778415131800,-0.63701279,-0.677624935,0.34178824100000005,-0.30600392,-0.096284798,0.0665518088
35,1778415131810,-0.63421045,-0.6743347455555555,0.35657229777777777,-0.29040696,-0.11053789666666666,0.04993676266666666
36,1778415131820,-0.6381571444444445,-0.6743347455555555,0.3705297533333333,-0.2590501466666667,-0.12818459444444444,0.031475602666666665
37,1778415131830,-0.6442144,-0.677234625,0.3749609,-0.21999663800000002,-0.149306336,0.015484978560000001
38,1778415131840,-0.6565457444444445,-0.6823026777777778,0.3744053088888889,-0.18323720666666665,-0.17094390333333334,0.011317642222222223
39,1778415131850,-0.6801768499999999,-0.686966915,0.368667853,-0.161477472,-0.179726526,0.0206160952
40,1778415131860,-0.7067688666666667,-0.6911378666666667,0.3445932866666667,-0.13993492333333332,-0.18424680000000002,0.050140378666666666
41,1778415131870,-0.744266,-0.6884547999999999,0.332138265,-0.12781979000000002,-0.17691664000000001,0.10124793000000001
42,1778415131880,-0.7702719111111112,-0.6768281222222222,0.34896682777777777,-0.10654194333333333,-0.16564990222222223,0.16124670666666666
43,1778415131890,-0.79995522,-0.64897688,0.43268378399999996,-0.058855133999999996,-0.1435643792,0.194951902
44,1778415131900,-0.8389785299999999,-0.6205070277777778,0.5157516311111112,0.11662092,-0.06071991577777777,0.24052110444444447
45,1778415131910,-0.8824752690000001,-0.591994884,0.5244269320000001,0.388407224,0.0041384915999999996,0.26959742800000003
46,1778415131920,-0.9504958333333333,-0.5244919911111112,0.5882016511111111,0.6630577333333334,0.1733703222222222,0.2814478777777778
47,1778415131930,-1.11447053,-0.46370085000000005,0.5614352,0.92375376,0.331919116,0.311257218
48,1778415131940,-1.3284480888888888,-0.42795181111111114,0.4737979755555556,1.2052186111111112,0.2905851311111111,0.37884406666666665
49,1778415131950,-1.488227,-0.39767565,0.43145808499999994,1.41820408,0.1259414328,0.435014876
50,1778415131960,-1.5696680777777778,-0.3819396277777778,0.42481814777777777,1.5690205333333334,0.013531963555555556,0.46341249333333334
51,1778415131970,-1.732163988888889,-0.35237150111111115,0.36664403,1.6951265666666666,0.046857076000000004,0.4767153733333333
52,1778415131980,-2.0381982,-0.29798995,0.20963113500000002,1.7588583,0.19753273500000001,0.455233915
53,1778415131990,-2.4181594444444445,-0.24895760888888885,0.07686085666666667,1.6877964666666667,0.4380029333333333,0.44440834777777777
54,1778415132000,-2.66462504,-0.218427368,0.0101835208,1.61541618,0.63601416,0.469588828
55,1778415132010,-2.8195648666666666,-0.19093593333333334,-0.06558309200000001,1.4702584333333333,1.1049209,0.6084547633333333
56,1778415132020,-3.09429644,-0.213710647,-0.42665600900000006,1.1548984,1.98507034,0.9102540680000001
57,1778415132030,-3.2687681333333334,-0.25697638666666667,-0.5875952799999999,0.9428937111111111,2.403514277777778,1.1095701111111111
58,1778415132040,-3.5521191,-0.34959052500000004,-0.6676487179999999,0.6678088,2.7845473,1.3975421
59,1778415132050,-3.849784333333333,-0.5220426422222223,-0.5942690666666667,0.18849729466666665,3.3921875666666668,2.124857633333333
60,1778415132060,-3.9894889200000003,-0.62680486,-0.51060902,-0.2930539788,4.05274262,2.89167464
61,1778415132070,-4.238675666666667,-0.9501604777777778,-0.2698362111111111,-0.9661143377777778,4.8688344444444445,3.943052944444444
62,1778415132080,-4.3080199200000004,-1.1674279,-0.093572532,-1.55697332,5.26331956,4.71232
63,1778415132090,-4.3742901,-1.4904019666666666,0.15716364666666666,-2.0779581444444446,5.4416054888888885,5.288647555555555
64,1778415132100,-4.397391,-1.5772871,0.21818347,-2.3611876333333335,5.491694855555555,5.589795188888889
65,1778415132110,-4.56620558,-2.01835852,0.5399705100000001,-2.84463926,5.43747211,6.26169609
66,1778415132120,-4.764851,-2.3793765333333337,0.7638555833333334,-3.077236366666667,5.301314311111111,6.840208444444445
67,1778415132130,-4.8930968,-2.8785338400000002,1.025194,-3.07077504,4.841712800000001,8.0746222
68,1778415132140,-4.875565777777777,-3.3051318666666667,1.1466929222222222,-2.8676480000000004,4.423323155555556,8.982619666666666
69,1778415132150,-4.777610950000001,-3.58752019,1.14969206,-2.62204668,4.03356188,9.58398
70,1778415132160,-4.34265511111111,-3.5657331444444447,0.950926111111111,-2.3372288666666665,3.5233923333333332,10.123724000000001
71,1778415132170,-4.01883188,-3.3186509,0.766148354,-2.24997949,3.25832034,10.245771600000001
72,1778415132180,-3.9887795333333336,-3.2809637333333335,0.8056669066666667,-2.3042432,3.3208965999999998,10.148972666666667
73,1778415132190,-3.7715678400000003,-3.27077022,0.8019797200000001,-2.378685,3.76930938,9.9981338
74,1778415132200,-3.6330476,-3.2353413,0.753855,-2.381617,3.8890355000000003,9.967347
75,1778415132210,-3.0452447,-2.93487547,0.653788142,-2.23373095,4.200200990000001,9.5700522
76,1778415132220,-2.532363166666667,-2.634598277777778,0.6284309622222222,-2.0349952777777776,4.455766044444444,9.097874555555556
77,1778415132230,-2.3222697,-2.5046585,0.6149749,-1.9521915000000003,4.5640216,8.898289
78,1778415132240,-1.73979969,-2.17482217,0.51199633,-1.68647295,4.90707338,8.1347905
79,1778415132250,-1.2942557444444445,-1.9582546444444446,0.39908493333333334,-1.5507290555555557,5.048084111111112,7.644490388888889
80,1778415132260,-1.1275505840000002,-1.89489418,0.356908011,-1.46974429,5.0981467,7.26830351
81,1778415132270,-0.9587652933333334,-1.8484818333333333,0.34310946000000003,-1.5869048666666667,4.902634766666667,7.055565866666667
82,1778415132280,-0.8908538100000001,-1.82368262,0.469289592,-1.7710753000000001,4.37191015,7.03825855
83,1778415132290,-0.8355094833333333,-1.755339511111111,0.7912758444444444,-1.8127825555555555,3.6627758888888886,7.111492088888888
84,1778415132300,-0.791070554,-1.6929036400000002,0.9432318399999999,-1.594235,3.1257055,7.194940750000001
85,1778415132310,-0.6969919266666667,-1.6194948,1.0537911333333332,-1.23788198,2.7597062333333335,7.238005666666666
86,1778415132320,-0.57989665,-1.5283361000000002,1.08881355,-0.594446014,2.54509506,7.2133274
87,1778415132330,-0.48572953333333335,-1.4451656000000002,1.0613525666666666,-0.0037159966666666655,2.624912433333334,7.090995
88,1778415132340,-0.44255629399999996,-1.3975144400000001,1.0095161999999998,0.42689058199999996,2.8373244,6.93062712
89,1778415132350,-0.35255107,-1.289557,0.8597758,0.7710419,3.0832515,6.7664313
90,1778415132360,-0.327378868,-1.23456592,0.6832410879999999,0.9599770099999999,3.4355118300000003,6.52045845
91,1778415132370,-0.30847667666666667,-1.2013877555555554,0.5336320955555556,1.0918725,3.813222366666667,6.199692466666666
92,1778415132380,-0.2668515977777778,-1.117846388888889,0.4548503822222222,0.9279618288888888,3.8448508111111113,5.782280222222222
93,1778415132390,-0.26510082199999996,-1.01425734,0.510862142,0.742209973,3.72172439,5.4256066
94,1778415132400,-0.28487433333333334,-0.913606811111111,0.7363946288888888,0.6586460666666666,3.5544691999999998,5.1820208
95,1778415132410,-0.27036942,-0.86797138,0.8920825619999999,0.683690791,3.3957610799999998,4.96405019
96,1778415132420,-0.2350543644444444,-0.8413939444444445,0.9840717055555557,0.8209956544444444,3.320939088888889,4.824675233333333
97,1778415132430,-0.19723712,-0.792531,0.98202377,1.1882506000000002,3.20389385,4.5440928
98,1778415132440,-0.14316892333333334,-0.6539710933333333,0.9473723399999999,1.4665679555555555,3.190760666666667,4.271722666666666
99,1778415132450,-0.09932896399999999,-0.528561344,0.9866673240000001,1.6070628,3.3327826000000003,3.9866564500000004
100,1778415132460,-0.062219076222222225,-0.3943692177777778,1.0903075111111111,1.6617336,3.4479272,3.8158865
101,1778415132470,-0.025778943999999998,-0.278095495,1.2543872,1.78023795,4.0218947,3.30246935
102,1778415132480,-0.0069821150000000005,-0.26089936,1.2863555,1.9077692666666668,4.419115000000001,2.9171264444444445
103,1778415132490,-0.006982115,-0.26089936,1.2863555,1.9799849999999999,4.5988398,2.7151396
104,1778415132500,0.1407433038888889,-0.34120892888888893,1.2421050111111112,2.0633317333333334,4.576985155555556,2.429263111111111
105,1778415132510,0.2869239088888889,-0.4310380111111111,1.2606732111111112,2.1226517444444446,4.504498000000001,2.1575717777777776
106,1778415132520,0.378747692,-0.4846685,1.29186812,2.1226788799999996,4.392862320000001,2.0261039
107,1778415132530,0.49297592999999995,-0.5218495333333334,1.2180284000000001,2.0997112,4.1675816,1.8599535
108,1778415132540,0.0795991542,-0.310576044,5.8459020299999995,2.7010902,5.21461225,1.6690638
109,1778415132550,0.3974012573333333,-0.50892198,6.679220966666666,3.483891,6.9335747,1.6687584
110,1778415132560,1.5667256299999999,-1.000521804,3.9743262899999996,3.483891,6.933574699999999,1.6687584000000002
111,1778415132570,2.8696254999999997,-0.14610269666666664,0.8044676555555555,11.358933666666665,5.977326966666666,-0.16548021333333332
112,1778415132580,2.67152785,-0.12653172499999998,-2.040485,8.46673964,3.07498972,-1.65399114
113,1778415132590,2.3015672777777776,-0.7513141444444444,-1.8342128111111111,3.5631229300000005,-0.057775933333333446,-1.7331772833333334
114,1778415132600,2.4970604,-0.04388671200000001,-0.7978088120000001,-1.422548705,-3.0876801,-0.639404385
115,1778415132610,2.6035090666666667,0.1597078262222222,-0.043078392222222234,-3.073707,-4.0369368,-0.33367532
116,1778415132620,2.38987736,-0.022361061199999997,0.9737275779999999,-4.50041715,-4.30418255,-0.78020465
117,1778415132630,1.9758878,0.031892104000000004,2.1982786666666665,-4.698433533333333,-4.593851566666667,-0.8349773
118,1778415132640,1.7497820000000002,0.135815853,3.67155555,-4.29547785,-4.91541175,-0.7463026650000001
119,1778415132650,1.728349488888889,0.12486840222222223,3.5633921666666666,-3.2995593000000003,-4.905841777777777,-0.6713381277777778
120,1778415132660,1.6142438888888888,0.07328680111111112,3.6701227777777774,-2.1437175606666665,-5.057671155555556,-0.6313615666666667
121,1778415132670,1.6950470100000001,0.0305109245,3.3589917999999996,0.43635872780000007,-5.292121079999999,-0.64545172
122,1778415132680,1.6442524,0.0073717044444444445,2.60253,1.985720211111111,-4.667500944444445,-0.9184597222222222
123,1778415132690,1.61161228,-0.007122366799999999,2.10951952,2.607936,-3.8549044500000003,-1.27838875
124,1778415132700,1.5141634888888889,-0.015827481999999997,1.6099347555555557,2.6069179,-3.1516155666666665,-1.5477087666666667
125,1778415132710,1.3713727199999999,-0.012842212799999999,1.13792616,2.24521494,-2.47903194,-1.6844571
126,1778415132720,1.2325922666666667,-0.09225131466666665,0.6952031533333334,1.856169722222222,-2.2943932222222223,-1.593844722222222
127,1778415132730,1.21704656,-0.20079829,0.369484952,1.190388585,-2.6399292,-1.2450594499999998
128,1778415132740,1.2104770666666667,-0.23346889333333332,0.30294451,0.21089501444444445,-3.614434066666667,-1.027394161111111
129,1778415132750,1.1228246,-0.23550153499999998,0.52310981,-0.622056306,-4.37916388,-1.004996462
130,1778415132760,1.0460671,-0.24037987,0.70918775,-1.0620513022222222,-4.6554621111111105,-1.1205145
131,1778415132770,0.774377494,-0.27516544,1.3380994249999998,-1.59680057,-4.839055910000001,-1.49436908
132,1778415132780,0.5634271866666667,-0.33498229444444444,1.7607023222222222,-1.4965672888888888,-4.706773311111111,-1.7260762
133,1778415132790,0.32792901999999996,-0.4022456888888889,1.9265148222222221,-1.1896080444444443,-4.731953666666667,-1.7049001555555554
134,1778415132800,0.160478874,-0.553160352,2.02616704,-0.8999307249999999,-5.11638035,-1.6873892000000001
135,1778415132810,0.10177423000000001,-0.70724658,2.0372124333333335,-0.7896728000000001,-5.9398024666666664,-1.8323635999999999
136,1778415132820,0.06793079,-0.85514134,1.9852989,-0.8200930100000001,-7.200476399999999,-2.1224955999999997
137,1778415132830,-0.12722287333333335,-0.8726322033333332,2.1568637,-1.0862900666666666,-9.798821555555556,-2.733498977777778
138,1778415132840,-0.5939675900000001,-0.9468814670000001,2.60112727,-1.0967457399999998,-11.610587800000001,-3.26447468
139,1778415132850,-1.4858183666666667,-1.4280609888888889,3.803870466666667,-0.7829535,-13.253095,-3.9383614
140,1778415132860,-1.8701699999999999,-1.6997943,4.1838114,0.5114318905,-13.037466,-5.67385475
141,1778415132870,-1.9996288,-1.811813,4.1980805,0.9933903999999999,-12.588493,-6.4025955
142,1778415132880,-2.52439712,-2.14677766,3.4734525000000005,2.05817354,-10.3066124,-8.58461836
143,1778415132890,-3.0662154666666668,-2.445345833333333,3.2890028,2.2564953333333335,-9.069453,-9.198545333333335
144,1778415132900,-3.8813974399999998,-2.97688102,3.34475,2.32670208,-7.6842141999999996,-9.5626612
145,1778415132910,-4.265289666666667,-3.254925833333333,3.3430303,2.503888466666667,-7.36496,-9.482818333333334
146,1778415132920,-4.750765,-3.4478843,3.1855211,2.804018,-7.152334,-9.290147
147,1778415132930,-5.0425534,-3.4399812699999996,2.89059555,3.36356172,-7.593541419999999,-8.4224307
148,1778415132940,-4.995491222222223,-3.0349433111111113,2.312272488888889,4.4484954,-8.137096,-6.209568
149,1778415132950,-4.4253345,-2.43046195,1.4983191,4.5679157,-7.983468,-5.0077258
150,1778415132960,-3.952984833333333,-2.0612177333333332,1.0510267566666665,4.215388933333333,-7.635998044444444,-4.221633111111111
151,1778415132970,-3.3920119,-1.7136061000000002,0.704937447,3.43942136,-7.0664950399999995,-3.7867491
152,1778415132980,-2.938240666666667,-1.4752588333333334,0.5761819866666666,2.824787,-6.6673217,-3.6445439999999993
153,1778415132990,-2.684806,-1.48441585,0.8531899700000001,2.4922264400000005,-6.440697299999999,-3.5992190799999997
154,1778415133000,-2.6363054444444445,-1.6197591111111111,1.2983074444444442,1.2865291444444444,-5.513498755555556,-3.283193677777778
155,1778415133010,-2.6651554,-1.6804944,1.4777082,1.69137494,-5.5470276,-3.0161041
156,1778415133020,-2.662553622222222,-1.6794103111111112,1.5620898222222221,2.3791397666666665,-5.599221222222223,-2.6758757111111113
157,1778415133030,-2.5883978500000002,-1.6883149499999999,1.8093586,3.5797940500000003,-5.37934995,-2.1650718
158,1778415133040,-2.3500862333333337,-1.6948346333333335,1.6129091666666666,4.369661933333333,-5.034119511111111,-1.9065476666666668
159,1778415133050,-2.04010076,-1.6890009200000002,1.32414434,5.0582428,-4.5819804,-1.9198776800000001
160,1778415133060,-1.6717744333333333,-1.6886858444444446,0.9240274222222222,5.640257999999999,-4.067614555555555,-2.122448266666667
161,1778415133070,-1.5529360777777776,-1.7088496666666666,0.6311208399999999,5.795548977777778,-3.2838299555555555,-2.6802196222222223
162,1778415133080,-1.57174422,-1.794556,0.47363740200000004,5.683994799999999,-2.7382755,-3.01952494
163,1778415133090,-1.6953833999999999,-1.8672127,0.38542899,5.400602266666667,-1.9097376666666668,-3.4152725333333334
164,1778415133100,-1.8707798,-1.89588805,0.08113278700000001,4.994959,-1.13228168,-3.69109044
165,1778415133110,-2.1423201333333335,-2.010517066666667,-0.16008386444444445,4.840319666666667,-1.4273888111111113,-3.5743643
166,1778415133120,-2.39114872,-2.12008108,-0.292547555,4.79197454,-1.8204088300000003,-3.44388048
167,1778415133130,-3.017631866666667,-2.027804533333333,-0.5671774166666667,4.668603666666667,-3.1165935333333334,-3.0964101
168,1778415133140,-3.9576241000000003,-1.8674413,-0.743503775,4.38960928,-4.8530744,-2.5392766799999995
169,1778415133150,-4.918772888888888,-1.745715011111111,-1.0975674111111111,4.301552522222222,-6.030004066666667,-2.065775111111111
170,1778415133160,-5.7165988,-1.4523103000000002,-1.66110295,4.30610689,-6.75359596,-1.8322822200000002
171,1778415133170,-6.385189488888889,-1.1506158966666666,-2.0339905666666667,4.240527444444444,-7.181247511111112,-1.7483382444444446
172,1778415133180,-7.931285839999999,-0.396724352,-2.04068008,3.56317908,-5.3132868,-1.544176
173,1778415133190,-7.978436444444444,-0.9006386111111111,-1.6573392222222223,3.2938496444444443,-1.0233557777777778,-0.8782117044444445
174,1778415133200,-7.347685,-1.9537116,-1.6694115,3.5479077400000003,3.79943948,0.309058154
175,1778415133210,-5.896356955555556,-2.3772357222222222,-2.3426401777777777,3.6177344444444444,5.900021,1.1659631555555556
176,1778415133220,-4.8491244,-2.560546,-2.7694604,2.6018276,7.469287400000001,1.5032188
177,1778415133230,-4.305022500000001,-3.25057075,-2.13687775,0.7639027200000001,8.50316194,1.52991273
178,1778415133240,-4.06728,-3.587892366666667,-1.3975002666666667,-1.4125504111111111,9.292335999999999,1.7744349222222224
179,1778415133250,-3.71996714,-3.6086313,-0.5506296872,-2.69858582,9.446982299999998,2.13110877
180,1778415133260,-3.360663577777778,-3.363912311111111,0.11656845066666668,-3.0016949333333334,8.979819222222222,2.441683811111111
181,1778415133270,-3.1888750999999997,-3.23965848,0.302322514,-2.9277146,8.6604395,2.4732442
182,1778415133280,-2.923514122222222,-3.0227000222222222,0.31091921888888885,-2.5910699,7.882898888888889,2.0599042444444446
183,1778415133290,-2.6272387200000002,-2.81198119,0.1438407057,-2.48790449,6.9117062,0.9362684456
184,1778415133300,-2.3596905666666665,-2.5281556,-0.109833644,-2.704958866666667,6.303154533333333,-0.44932906533333333
185,1778415133310,-2.5293183,-2.3675527599999997,-0.29881621799999997,-3.03815568,5.93855016,-1.5023788200000001
186,1778415133320,-2.7955831444444446,-2.289703322222222,-0.3166648311111111,-3.2608298333333336,5.669247899999999,-2.1263847333333334
187,1778415133330,-3.141104,-2.23351446,-0.20988420999999996,-3.40295366,5.36423166,-2.7035946799999997
188,1778415133340,-3.6197065333333334,-2.1206386666666663,-0.04414892,-3.353814388888889,5.302943099999999,-2.9983352666666665
189,1778415133350,-3.88294008,-2.01167832,-0.0026343,-3.2771190900000002,5.3622156,-3.0597797600000005
190,1778415133360,-4.1291841,-1.9230085000000001,-0.052553880000000004,-3.2196994,5.411470433333333,-2.993380666666667
191,1778415133370,-4.20289152,-1.82063676,-0.20482293599999996,-3.3152971,5.4247055,-2.7264402999999997
192,1778415133380,-4.109989,-1.7441972888888888,-0.29113827555555555,-3.4660067777777774,5.465496455555556,-2.561172177777778
193,1778415133390,-3.7997000444444446,-1.5346694888888888,-0.5024818888888889,-3.7852932777777775,5.585697622222223,-2.4440932777777777
194,1778415133400,-3.58295916,-1.31829646,-0.645952336,-4.5401223,5.860850350000001,-2.40788355
195,1778415133410,-3.5329806666666665,-1.2107210333333334,-0.6596624866666667,-5.264281555555556,6.199225888888889,-2.3810402222222224
196,1778415133420,-3.5615554400000002,-1.1562899999999998,-0.60090088,-5.75039375,6.4605345,-2.3304892
197,1778415133430,-3.7927924888888893,-1.1901202333333334,-0.4400832733333333,-6.281427333333333,6.779709111111111,-2.1093489777777776
198,1778415133440,-3.98081148,-1.25970459,-0.20476194999999997,-6.79844006,7.0298441,-1.58584347
199,1778415133450,-3.875087177777778,-1.3271066333333335,0.042275508888888896,-7.226263666666666,7.101828977777777,-0.9178489222222223
200,1778415133460,-3.71060668,-1.3649578,0.221961134,-7.497982,7.110353859999999,-0.511676224
201,1778415133470,-3.654705088888889,-1.4062948888888889,0.37550293999999995,-7.614898,7.1180506,-0.38193226
202,1778415133480,-3.69027616,-1.52041188,0.6359303620000001,-7.922276600000001,7.10424544,-0.11242643999999999
203,1778415133490,-3.710897333333333,-1.6269851333333334,0.8210438333333333,-8.212171111111111,7.078277666666667,0.23773836666666665
204,1778415133500,-3.7161192200000004,-1.7570353400000003,1.03670076,-8.418528599999998,6.7209997999999995,0.94914974
205,1778415133510,-3.6309332333333333,-1.8386437666666668,1.1313160666666666,-8.551938,6.218247000000001,1.5938277333333333
206,1778415133520,-3.4043752999999994,-1.9429792,1.2385327,-8.740385,5.3346055,2.6051872
207,1778415133530,-3.2142626777777776,-1.9538606111111112,1.2888625111111112,-8.82247611111111,4.957950111111112,3.0255858888888887
208,1778415133540,-2.8409646000000004,-1.94573556,1.43083962,-8.9485002,3.958061,3.9688732
209,1778415133550,-2.517707888888889,-1.901689588888889,1.6755110666666666,-8.847791666666668,3.3085014333333334,4.521898766666666
210,1778415133560,-2.211053788888889,-1.795416366666667,1.9833168888888888,-8.421692111111112,2.811899588888889,5.040304277777778
211,1778415133570,-2.0148889500000005,-1.62059755,2.1228371499999996,-8.09184854,2.70593112,5.23465545
212,1778415133580,-1.9232524999999998,-1.5150579,2.1397893,-7.6674314,2.7020829,5.3803425
213,1778415133590,-1.61129217,-1.09555778,2.12010542,-6.94479908,2.8086145599999996,5.41650476
214,1778415133600,-1.574404188888889,-0.9734510888888889,2.192854911111111,-6.4664291333333335,2.9259243555555554,5.3126067444444445
215,1778415133610,-1.5594751599999999,-0.92224284,2.2532717,-5.9205758,3.0097055599999996,5.22653136
216,1778415133620,-1.3762591555555557,-0.8499208222222223,2.231898522222222,-5.414414244444444,2.8257454,5.310095333333333
217,1778415133630,-1.2181808200000002,-0.828533062,2.19242371,-5.03405317,2.57026193,5.399462270000001
218,1778415133640,-1.0045809333333333,-0.82317809,2.1280713666666666,-4.331450333333333,1.7919204222222223,5.6322832
219,1778415133650,-0.521082225,-0.6361042,1.96041935,-3.9371780000000003,1.0680282499999998,5.7795313
220,1778415133660,0.017087718888888895,-0.4262037477777778,1.828223222222222,-3.6474283333333335,0.321874068,5.777732777777778
221,1778415133670,0.42691516499999993,-0.27076274499999997,1.84486375,-3.4932369199999997,-0.2899233932,5.4612188
222,1778415133680,0.6172413222222222,-0.15266134422222222,1.984834677777778,-3.2714179666666663,-1.0154063333333334,4.887999566666667
223,1778415133690,0.7096450900000001,-0.063692742,2.6220279,-2.914276,-1.61462967,4.228261900000001
224,1778415133700,1.0573550511111112,-0.15903027888888888,3.3469397555555553,-1.5056196888888889,-2.010077822222222,3.1136835888888887
225,1778415133710,1.18598384,-0.20680474100000001,3.49690218,-0.06184824999999998,-2.10824779,2.24906324
226,1778415133720,1.3435302888888887,-0.3579747977777778,3.530670277777778,2.2304578333333334,-1.8835305888888891,1.2226022777777779
227,1778415133730,1.4829083111111112,-0.5017433488888889,3.4566889444444446,3.3934855,-1.6282897,0.7786775
228,1778415133740,1.7835797,-0.7194627,3.2304322999999995,4.528714620000001,-0.797537436,0.27827144800000003
229,1778415133750,1.9855427222222224,-0.8557443888888889,2.9588378777777775,6.680632966666667,0.8145902666666667,-0.8817410388888889
230,1778415133760,2.70607255,-1.4878307,1.8182615500000001,7.39682615,1.2928582,-1.59633475
231,1778415133770,2.7197318,-1.6429311,1.6282657,7.551675999999999,1.313627,-1.7991742
232,1778415133780,3.0258595,-1.7136244,1.19174022,7.416983789999999,1.22224427,-1.6406594
233,1778415133790,3.1608380666666664,-1.7528462111111112,0.7660169111111111,7.173764800000001,0.9399666666666666,-1.4031161333333335
234,1778415133800,3.29510074,-1.6402848200000002,0.14592923800000002,6.58649885,0.28824354,-0.9127585250000001
235,1778415133810,3.3427593555555557,-1.449772911111111,-0.3883085422222222,6.1613107,-0.11338852000000002,-0.57312745
236,1778415133820,3.3459634,-1.31472908,-0.7010042999999999,5.71977508,-0.329994956,-0.318159808
237,1778415133830,3.4019260444444446,-1.0817738222222222,-1.2455198777777778,3.7039996666666664,-1.3103097888888888,0.8074552133333334
238,1778415133840,3.4065334555555555,-0.9949834866666668,-1.3043206666666667,2.8302844,-1.7089216,1.1775608
239,1778415133850,3.36007416,-0.9728128039999999,-1.0669769160000002,0.829683232,-2.63540896,1.65373148
240,1778415133860,3.1722040222222225,-1.0473476777777777,-0.5424639066666667,-0.9499523111111111,-3.782281333333333,1.6370622
241,1778415133870,3.0492022,-1.0679587,-0.3477642,-1.4470818600000002,-4.2737087,1.4735850400000001
242,1778415133880,2.5208483,-1.0645438,0.16644263,-2.118342,-5.266649,0.9704836000000001
243,1778415133890,2.07085255,-1.06332423,0.46965848900000007,-2.18614605,-5.475864,0.497076975
244,1778415133900,1.4841923111111113,-1.0959447111111111,0.7135849888888889,-1.9497480888888892,-5.253956666666666,-0.032934844444444465
245,1778415133910,1.114287579,-1.1356851899999998,0.80117174,-1.7248341,-4.994149569999999,-0.43800802
246,1778415133920,0.7424010200000001,-1.2249596666666664,0.7700347733333334,-1.5860904,-4.590822533333333,-0.8695919666666667
247,1778415133930,0.365472526,-1.3534753599999998,0.7172065,-1.57664264,-4.110116339999999,-1.23412529
248,1778415133940,0.14326038333333335,-1.4784297666666666,0.5469119933333333,-1.9414677333333334,-3.440206888888889,-1.484206111111111
249,1778415133950,0.076565446,-1.6085145600000001,0.280400508,-2.49798345,-3.0140730000000002,-1.6458515999999999
250,1778415133960,0.2033181111111111,-1.7580565222222222,0.04884431555555556,-2.785387,-2.887933,-1.7154882
251,1778415133970,0.31764658199999996,-1.9855061399999996,-0.11247607400000001,-4.42310665,-3.41326175,-2.36909475
252,1778415133980,0.3196053566666667,-2.0930760999999998,-0.10628668777777778,-6.247754044444445,-4.058868,-3.097224666666667
253,1778415133990,0.15463301433333332,-2.3111307666666665,0.2830043266666667,-8.263032666666668,-5.2912859999999995,-3.8819852000000004
254,1778415134000,-0.1473256685,-2.4707234,0.9328745700000001,-9.772854,-5.99367892,-4.4294366400000005
255,1778415134010,-0.6418701177777777,-2.530161166666667,1.9528612444444444,-10.77936711111111,-6.1153192333333335,-4.854301444444444
256,1778415134020,-0.92891093,-2.50286559,2.55133179,-11.1734653,-5.77139188,-5.197088679999999
257,1778415134030,-1.3342073111111112,-2.2579162888888886,3.332799444444445,-11.143092888888889,-5.228360755555556,-5.550395833333334
258,1778415134040,-1.79248876,-1.7404552,3.83688852,-10.0468796,-4.210783879999999,-6.0649193
259,1778415134050,-2.0049915555555553,-1.354550588888889,3.986326688888889,-9.254489,-3.8182534999999995,-6.2657657
260,1778415134060,-2.1820481000000003,-0.7881558,3.8935046499999997,-5.138813799999999,-3.11687875,-6.22593874
261,1778415134070,-2.1282475777777776,-0.5476878,3.592648555555556,-3.7035245333333333,-3.0931777555555557,-6.063982533333334
262,1778415134080,-2.05143073,-0.47448804200000005,3.4010459000000006,-2.72704351,-3.07644043,-5.95062944
263,1778415134090,-1.7110957666666666,-0.3953855533333333,2.7566988444444447,-0.3686633,-2.8565764111111114,-5.770572155555556
264,1778415134100,-1.4286261,-0.349916776,2.19310364,0.8230861600000001,-2.53877286,-5.9267455
265,1778415134110,-1.129727177777778,-0.3033137688888889,1.6960440555555556,1.662166388888889,-1.9926686333333332,-6.381623144444444
266,1778415134120,-1.12219964,-0.437568188,1.51733244,2.1523662,-1.30380768,-6.96144446
267,1778415134130,-1.2582509555555557,-0.6675762199999999,1.5151222666666666,2.3002726444444446,-1.0206324844444443,-7.162701488888889
268,1778415134140,-1.4127857,-0.8891474466666666,1.5463604999999998,2.8565509666666666,-0.19442758166666665,-7.584050200000001
269,1778415134150,-1.5348822599999998,-1.0121992800000001,1.51517986,3.3916531,0.11500726449999998,-7.59748911
270,1778415134160,-1.578713422222222,-1.099237588888889,1.315459588888889,4.3747438333333335,0.27925051333333334,-7.383964122222222
271,1778415134170,-1.5858791399999999,-1.1603482399999998,1.2031922199999998,4.9490234,0.274865988,-7.1430185999999996
272,1778415134180,-1.5969935666666666,-1.3195146666666668,1.1165150555555554,5.625190422222222,0.3298150955555556,-6.774575888888889
273,1778415134190,-1.63008293,-1.46626542,1.045085372,6.0684621,0.41890378000000006,-6.5142584
274,1778415134200,-1.664223,-1.6296682666666669,0.91956586,6.419088533333333,0.5337023266666666,-6.259046666666666
275,1778415134210,-1.68341213,-1.8375248800000001,0.69261363,6.62164536,0.5361864159999999,-5.97426954
276,1778415134220,-1.763066988888889,-2.170522888888889,0.28288236000000005,6.682567333333334,0.19155999453333333,-5.3273685
277,1778415134230,-1.84188796,-2.2115924799999997,-0.016665606,6.28030402,-0.32987278292,-4.93179744
278,1778415134240,-1.8609148222222223,-2.1468190666666667,-0.1892623988888889,5.983147233333333,-0.6078354377777777,-4.751068088888889
279,1778415134250,-1.86716996,-1.91025162,-0.43226302800000005,4.8690636,-1.17443025,-4.4176473000000005
280,1778415134260,-1.8727312333333335,-1.6539006333333335,-0.49447666222222225,3.7295533666666665,-1.4318005666666667,-4.286281277777778
281,1778415134270,-1.9315456666666668,-1.5117955,-0.4840424666666666,2.7335669,-1.5647616666666666,-4.1803077
282,1778415134280,-2.11983405,-1.3681286499999998,-0.378650155,1.84254438,-1.67819598,-4.03047713
283,1778415134290,-2.274109677777778,-1.2309661777777778,-0.19689157000000002,1.4403184111111111,-1.7560925777777778,-3.942297977777778
284,1778415134300,-2.6020177,-1.06404691,0.18493762,0.8776959,-1.6539453300000002,-3.80886171
285,1778415134310,-2.8647370444444444,-1.0165024755555556,0.38059131333333335,0.8970800777777777,-1.5859376222222221,-3.5179626777777777
286,1778415134320,-3.00182155,-0.82939294,0.34288585,1.30064645,-2.0849362,-3.19587645
287,1778415134330,-3.0690273111111113,-0.6914665311111111,0.25896157444444445,1.8901395666666667,-2.9903518333333334,-3.0713654666666668
288,1778415134340,-3.3809044,-0.505761256,0.213195364,2.85899432,-4.2866664,-2.96393782
289,1778415134350,-4.118912222222223,-0.5957393555555556,0.4033771888888889,4.307415111111111,-5.231015911111111,-2.881731277777778
290,1778415134360,-5.0273664,-1.09646034,0.261564046,5.73117539,-5.40164612,-2.56926928
291,1778415134370,-5.8151495,-1.752473522222222,-0.6421512377777777,8.555908411111112,-5.448885088888889,-1.6532750444444444
292,1778415134380,-5.971198422222222,-1.9788281333333333,-1.7086565777777778,9.578365166666666,-5.322914644444444,-1.3616634
293,1778415134390,-6.3725058400000005,-2.30667724,-2.93256126,9.8398642,-4.753262,-1.2636292
294,1778415134400,-6.622988133333333,-2.4849959333333334,-3.5303277555555557,9.521174888888888,-3.925694655555555,-1.1815313222222221
295,1778415134410,-7.111488199999999,-2.82021324,-4.582133000000001,8.2966648,-2.44552702,-0.9612598200000001
296,1778415134420,-7.136933988888889,-2.989063111111111,-5.148291533333333,6.091716888888889,-0.3656345333333333,-0.45197607888888885
297,1778415134430,-6.56526724,-2.99304052,-5.2174325,2.7710323,2.0988712,0.23074755000000002
298,1778415134440,-6.156405822222222,-2.9479498222222222,-4.851865055555556,1.0447016,3.1950366,0.52151084
299,1778415134450,-5.70693963,-2.86697808,-3.88447951,-1.0888047,4.5701757700000005,0.67929271
300,1778415134460,-5.400298166666667,-2.7048123,-2.1262250111111114,-3.450022811111111,6.3422998,0.9421131111111111
301,1778415134470,-5.3467601700000005,-2.6754793500000003,-1.061055825,-4.22156536,7.017016440000001,1.25051118
302,1778415134480,-5.1915119333333335,-2.7245493333333335,-0.018385210000000003,-4.2026292000000005,6.947827666666667,2.1551963333333335
303,1778415134490,-4.846282499999999,-2.725348,0.553129853,-3.61319983,6.440292390000001,3.10681492
304,1778415134500,-3.825030133333333,-2.583473866666667,0.8653045333333333,-2.6811360000000004,5.8694022,3.781679
305,1778415134510,-2.5434716799999997,-2.25933294,0.89311308,-1.6232503,5.7533414,3.3024694000000006
306,1778415134520,-1.683438422222222,-1.9541112777777778,0.8241707388888888,-1.0051491533333334,6.117839066666667,2.1258503333333336
307,1778415134530,-1.2901498444444444,-1.7418496333333335,0.67773945,-0.49687333111111115,7.014070577777778,-0.03917904444444447
308,1778415134540,-1.17051956,-1.6512244600000003,0.5630634000000001,-0.24895080199999997,7.619311640000001,-1.56601382
309,1778415134550,-1.3110182,-1.6880015888888888,0.42355115555555556,-0.06765133,8.055701,-2.8449447
310,1778415134560,-1.6795431600000001,-1.84547962,0.06363785000000001,0.09636116000000002,8.423430999999999,-4.4652553500000005
311,1778415134570,-1.9932802999999997,-1.963078511111111,-0.35693817777777775,0.10671162333333334,8.74283611111111,-6.349994888888889
312,1778415134580,-2.3301968499999997,-2.0520708,-0.7177552749999999,-0.164531713,8.6397929,-6.696542859999999
313,1778415134590,-2.6090274444444446,-2.1068878000000004,-0.921130961111111,-1.2802086266666666,8.061198666666666,-6.7593814
314,1778415134600,-2.9209394222222222,-2.1176201333333333,-1.1183409888888889,-2.4657104666666663,7.521616766666666,-6.467956333333333
315,1778415134610,-3.04305865,-2.0609739,-1.1250655999999999,-4.09996104,6.91476042,-5.8725026
316,1778415134620,-3.0741733,-2.0074444333333337,-0.98343139,-5.993455333333333,6.258970266666667,-5.132644333333333
317,1778415134630,-3.06217258,-2.0097331,-0.595620134,-7.876707399999999,5.59659816,-4.3177433999999995
318,1778415134640,-3.0644166333333334,-2.0583822,-0.09648938,-9.312875333333333,5.0231753333333335,-3.5663553
319,1778415134650,-3.12581026,-2.1228738,0.420341596,-10.1200592,4.629259800000001,-2.99692352
320,1778415134660,-3.2004610888888885,-2.173399155555556,0.8651182,-10.728599333333333,4.207015277777778,-2.222559222222222
321,1778415134670,-3.1834540799999997,-2.17030952,1.54276072,-10.869691399999999,3.8930668999999996,-1.47417296
322,1778415134680,-3.0795631111111113,-2.1041200222222223,1.9597755333333333,-10.768032444444446,3.588023411111111,-0.5314540999999999
323,1778415134690,-3.0212128,-2.063657,2.0551198,-10.688758,3.5597887,-0.3593309
324,1778415134700,-2.758158933333333,-1.8715930222222223,2.1126740666666666,-9.704343555555555,3.3397480222222224,0.7134526166666667
325,1778415134710,-2.4800379500000003,-1.6390133500000001,2.0142334,-8.949653199999998,2.98606579,1.32528657
326,1778415134720,-2.3074042222222224,-1.4672874666666667,1.9136550555555556,-8.10323648888889,2.3950981555555555,1.9563317111111114
327,1778415134730,-2.18395072,-1.381605,1.85729128,-7.63835488,2.01683442,2.38711464
328,1778415134740,-2.1147814,-1.3477954444444444,1.8200451777777777,-7.392685644444445,1.8196800555555557,2.6413628
329,1778415134750,-2.0345272000000003,-1.29403274,1.76392614,-6.981449639999999,1.4770897399999998,3.13271494
330,1778415134760,-1.9386191,-1.2024989666666666,1.7856936333333333,-6.612879733333333,1.1574537333333332,3.5964142
331,1778415134770,-1.7903517000000002,-1.019568277777778,1.8777247222222222,-6.099581333333333,0.8061147555555556,4.166996444444445
332,1778415134780,-1.69447696,-0.8566963160000001,1.9982934,-5.63567675,0.6367318999999999,4.6262518
333,1778415134790,-1.5938735333333334,-0.7384780599999999,2.152066666666667,-5.127655222222222,0.6611657888888889,5.107904711111112
334,1778415134800,-1.52751599,-0.691064722,2.22034611,-4.723193,0.782144084,5.466594
335,1778415134810,-1.3224992555555555,-0.6351827000000001,2.2656470333333334,-4.063389888888889,1.0249677444444445,5.948430377777778
336,1778415134820,-1.036020825,-0.5442238149999999,2.282938,-3.1757185,1.3081293999999999,6.40870405
337,1778415134830,-0.6571318277777778,-0.3645504133333334,2.3723674666666668,-2.4046935111111107,1.5009535555555553,6.515364722222222
338,1778415134840,-0.299605882,-0.20353323000000004,2.55234405,-1.56390642,1.6897867999999998,6.2417594
339,1778415134850,0.005315351333333329,-0.10368492075555555,2.7132950555555557,-0.7722296388888888,1.8916242666666667,5.743050222222222
340,1778415134860,0.6186184,0.060887698299999994,2.9363602,0.5990884375000001,2.47332045,4.6009014
341,1778415134870,1.2157145777777778,0.18696891222222223,2.9334638666666666,1.7319385555555558,3.0256961111111114,3.252999177777778
342,1778415134880,1.7450256499999999,0.26051827,2.78688525,3.27742455,3.405779,1.439041615
343,1778415134890,1.7949218,0.22723550000000003,2.642881188888889,4.6120240444444445,3.307432566666667,0.06099990555555555
344,1778415134900,1.75191008,0.21503695400000003,2.51284781,5.4226133,2.97250496,-0.6384880500000001
345,1778415134910,1.6428837333333335,0.32195308222222224,2.0811275555555557,5.959120422222223,2.511905711111111,-0.8871028977777777
346,1778415134920,1.61652725,0.42342411,1.29137112,6.03352168,1.6611991199999998,0.077058374
347,1778415134930,1.6675059222222222,0.4594848,0.4375187555555555,5.935704777777778,0.9534138266666667,1.0017894766666666
348,1778415134940,1.7005872,0.4612464,0.1012864,5.676298,0.06681142,2.173929
349,1778415134950,2.48904462,0.345980538,-0.348742912,4.33815317,-1.687412114,4.08416306
350,1778415134960,3.035563233333333,0.13297523333333333,-0.40179510333333335,2.4912642555555555,-3.4964727777777775,5.442784888888889
351,1778415134970,3.10552264,-0.16235094,-0.44842859199999996,1.4757611560000001,-4.52906596,5.62333766
352,1778415134980,3.0150235,-0.4300251,-0.49030300000000004,0.6800257066666666,-5.565149433333334,5.877368766666667
353,1778415134990,3.11752336,-0.46028295999999996,-0.506602732,0.464030112,-5.857093600000001,6.128386
354,1778415135000,3.516953111111111,-0.6196025333333334,-0.5808062533333334,0.6382166,-5.4741331777777775,6.014741444444445
355,1778415135010,3.35373232,-0.77801488,-0.661227598,1.44644046,-4.5988247,5.1598266
356,1778415135020,3.253706133333333,-0.8805188333333334,-0.8743497666666666,1.9573837,-3.2992369666666668,4.390159333333333
357,1778415135030,3.44436564,-0.9702883200000001,-1.24909724,1.9509698,-2.29842735,3.55784185
358,1778415135040,3.4557876666666667,-0.9902678,-1.5528886666666668,1.3519831333333334,-1.5010298666666668,2.095129833333333
359,1778415135050,3.25329647,-0.95075973,-1.69079376,0.806959766,-1.26972238,1.31914761
360,1778415135060,2.8050282222222225,-0.87879114,-1.6372026333333336,-0.18045445333333335,-1.065903,0.33011203199999994
361,1778415135070,2.2484849000000002,-0.77338352,-1.34800555,-1.37398635,-1.1225082,-0.456150202
362,1778415135080,1.9579630777777777,-0.6153644888888888,-0.9309384944444444,-2.444805911111111,-1.3542229666666667,-0.9971912444444446
363,1778415135090,1.9444121,-0.5412816,-0.74653745,-2.774392,-1.4487007,-1.1375504
364,1778415135100,1.7627551999999997,-0.417634137,-0.22686689300000001,-3.63843536,-1.6949942199999999,-1.76800576
365,1778415135110,1.485317,-0.32916892444444446,0.24228040333333334,-4.560721488888889,-1.9362246444444446,-2.6613512
366,1778415135120,1.01849848,-0.268704688,1.004052498,-5.0495689,-2.0040371500000003,-3.3827958000000002
367,1778415135130,0.6229225222222222,-0.2422126311111111,1.5903909999999999,-4.9282479,-2.0739452222222226,-3.6895429444444443
368,1778415135140,0.28853817,-0.18316617,2.061096,-4.45399285,-2.3259536,-3.7676295000000004
369,1778415135150,-0.0022223555555555535,-0.1379179371111111,2.3494867333333334,-3.8140964222222227,-2.678683977777778,-3.7368495666666663
370,1778415135160,-0.27373549,-0.10714039550000001,2.3988442,-3.4292202000000005,-2.8836572,-3.6903574
371,1778415135170,-0.5085086911111111,-0.059695215555555556,2.278595,-1.9110611333333334,-3.4957262,-3.2029012666666663
372,1778415135180,-0.665087618,-0.008695628700000001,1.8666638,-0.5542293650000001,-3.9083535999999994,-2.64550315
373,1778415135190,-0.7306456388888889,-0.009444995166666666,1.4691134888888888,0.3828824422222222,-3.9708296111111108,-2.0956387666666667
374,1778415135200,-0.7400066000000001,-0.0400328228,1.16840352,0.67825423,-3.92154771,-1.8686275300000001
375,1778415135210,-0.7524727333333333,-0.09459901333333333,0.7458057,0.8616509666666666,-3.792394366666667,-1.3974149666666669
376,1778415135220,-0.7331403400000001,-0.16082036400000002,0.38397970400000003,0.6226060849999999,-3.86712135,-0.946660535
377,1778415135230,-0.7130836,-0.18918788,0.2797012844444444,0.3067301744444444,-4.030488977777778,-0.6512480122222223
378,1778415135240,-0.6939124333333333,-0.23730044666666666,0.2582874266666667,-0.5373928866666666,-4.609555266666667,-0.06347721666666667
379,1778415135250,-0.6859242,-0.27163172,0.336544,-0.7145386,-4.7553697,0.051769305
380,1778415135260,-0.6137519555555555,-0.2650866211111111,0.75294026,-1.2197855666666666,-5.3134801000000005,0.45615018333333335
381,1778415135270,-0.467362656,-0.223439874,1.048085556,-1.37445214,-5.63633338,0.528474498
382,1778415135280,-0.33807866222222216,-0.19419493666666668,1.3642970333333333,-1.3305525777777776,-5.8043981111111105,0.3469442844444444
383,1778415135290,-0.33376946999999996,-0.2018258,1.5781256000000001,-1.0606217,-5.66828085,-0.02244863500000001
384,1778415135300,-0.3404094177777778,-0.19719984999999998,1.7199852333333334,-0.8400337633333333,-5.481395333333334,-0.30645867555555556
385,1778415135310,-0.35029177300000003,-0.159369058,1.7583191499999997,-0.32206921099999997,-4.93159888,-0.90836036
386,1778415135320,-0.4127103711111111,-0.18391317555555556,1.7244808111111112,0.24842818888888887,-4.321634133333333,-1.473482311111111
387,1778415135330,-0.494602,-0.23954142000000003,1.5743297,0.88453739,-3.7510602200000003,-1.99061374
388,1778415135340,-0.5095791844444445,-0.27271576666666664,1.3757069444444445,1.3766206666666667,-3.4615187333333335,-2.346086166666667
389,1778415135350,-0.46113057600000007,-0.28090052,1.25902769,1.6197683700000003,-3.4359855,-2.57256805
390,1778415135360,-0.3942201666666667,-0.3347451533333333,1.0428962,1.958130233333333,-3.688754044444445,-3.2449138666666664
391,1778415135370,-0.43183618,-0.406346876,0.9344996240000001,2.0538975,-3.9324818,-3.8589892
392,1778415135380,-0.49279978888888887,-0.45531111111111117,0.85425716,2.043105877777778,-4.044538388888889,-4.350555977777778
393,1778415135390,-0.5361898333333334,-0.4784154577777778,0.8280090222222223,2.0184005000000003,-4.000014611111111,-4.715164111111111
394,1778415135400,-0.5149843,-0.49493742,0.8447596450000001,2.0201787600000003,-3.8809264800000003,-5.0854868600000005
395,1778415135410,-0.4752241944444444,-0.5100907311111111,0.8772598244444445,2.072426666666667,-3.675179611111111,-5.521618222222222
396,1778415135420,-0.53409213,-0.6697098,1.0165837,2.23092112,-3.3828416199999998,-6.16900752
397,1778415135430,-0.7611758111111111,-0.9126345388888889,1.2448931222222221,2.3342764,-3.2318401,-6.5039964
398,1778415135440,-1.7721338,-1.5641522,1.9238623799999999,2.7561275199999997,-2.8937361699999995,-6.913042559999999
399,1778415135450,-3.223287555555556,-2.1923874444444444,2.606988277777778,4.063551111111111,-2.0901666444444444,-7.719794444444444
400,1778415135460,-4.0433882400000005,-2.58841936,2.931293,4.708594,-2.0645110200000003,-7.311597600000001
401,1778415135470,-5.412399,-3.26827,3.0304002666666667,5.9456819,-2.0134034333333335,-6.002898
402,1778415135480,-5.7014608,-3.2155533999999997,1.2759890375,6.7026742200000005,-1.70249242,-3.8852636000000005
403,1778415135490,-5.057917155555555,-2.7945973000000004,-1.4916249333333333,6.761815888888889,-1.3571414333333331,-0.991871688888889
404,1778415135500,-4.481240422222222,-2.5267971222222223,-2.801884277777778,6.4380245,-1.4267101,0.2081462
405,1778415135510,-3.23426788,-1.87385324,-4.44922294,4.741816439999999,-2.8754717399999996,1.7503675
406,1778415135520,-2.521641,-1.4660002,-4.8777847,3.0330858,-3.7418975999999997,2.078026
407,1778415135530,-1.7843419399999998,-0.89872926,-4.3451743,-1.6290151099999999,-4.8476075000000005,0.62264422
408,1778415135540,-2.2773651888888886,-1.1676595777777776,-2.6573264555555554,-3.471334633333333,-5.153845666666666,-0.6237599333333333
409,1778415135550,-2.7459223,-1.4115763,-1.6541514,-3.37275495,-4.95389475,-1.6717743999999999
410,1778415135560,-3.1783188333333334,-1.5201462777777777,-1.2407939466666666,-2.9038916,-4.7346005,-2.2059984
411,1778415135570,-4.9061827000000005,-1.93372864,0.16818664,-1.2856044400000002,-4.37392586,-2.34624904
412,1778415135580,-5.475295944444444,-2.0631794,-0.4422955055555555,2.607656077777778,-2.975012833333333,-2.273463311111111
413,1778415135590,-5.759555639999999,-2.29829264,-1.9535042599999997,4.79765546,-1.1202327888,-1.58913444
414,1778415135600,-5.664530977777777,-2.5208212,-3.349063911111111,5.276193211111111,0.255978936,-1.0085257888888888
415,1778415135610,-5.204206,-2.6657348,-4.686432,4.8119493,1.8768282,-0.3281777
416,1778415135620,-4.66521112,-2.66116126,-5.16730467,3.58843753,2.5691243100000003,-0.10448542600000002
417,1778415135630,-3.9436244444444446,-2.5823051444444447,-4.724235911111111,-0.18870095555555563,3.8690131444444438,0.16009289155555556
418,1778415135640,-3.6887976,-2.54931035,-3.4985426000000004,-2.82936815,4.1776607,0.010537113
419,1778415135650,-3.607625911111111,-2.533565777777778,-2.362000888888889,-3.8545819111111115,4.270271955555555,-0.07026440555555555
420,1778415135660,-3.5169187799999997,-2.488944,-1.6172956200000002,-4.817874600000001,4.4063012,-0.11548067399999999
421,1778415135670,-3.428170833333333,-2.471414577777778,-0.7490443933333333,-5.030123666666666,4.542913555555556,-0.042776277555555554
422,1778415135680,-3.16938006,-2.3648087,-0.16699145199999998,-4.791486,4.6979194,0.060198994799999996
423,1778415135690,-2.8468599666666665,-2.162009577777778,-0.041957053333333334,-4.337151277777778,4.891571777777778,0.09826156666666666
424,1778415135700,-2.5462035199999997,-1.9547238,-0.09396279999999999,-4.1695211,4.9840406,0.018478131399999997
425,1778415135710,-2.0076138111111113,-1.5749191333333334,-0.2827231388888889,-3.859332988888889,5.278984444444444,-0.51889777
426,1778415135720,-1.7175239999999998,-1.3609331,-0.45319718499999995,-3.8873097999999997,5.52329612,-0.9376810819999999
427,1778415135730,-1.5442195555555556,-1.201560588888889,-0.5357155288888888,-4.111477111111111,5.91161868888889,-1.498128388888889
428,1778415135740,-1.4702179333333334,-1.1000031333333335,-0.5506621666666667,-4.316450266666667,6.182792466666666,-1.8431553000000003
429,1778415135750,-1.5043134,-1.049488,-0.487577192,-4.571458720000001,6.44037656,-2.0166358200000003
430,1778415135760,-1.560317988888889,-1.0454641111111111,-0.4108539088888889,-4.7820516,6.635956333333334,-2.0513862
431,1778415135770,-1.77282906,-1.13564556,-0.21451861600000002,-5.02861684,6.73767584,-1.82030955
432,1778415135780,-2.0539783,-1.3045340888888888,0.06975677555555555,-5.390455444444445,6.604056233333334,-1.1355481166666666
433,1778415135790,-2.20294569,-1.4027098900000001,0.242645247,-5.6808795000000005,6.31383175,-0.409725801
434,1778415135800,-2.2941480444444444,-1.4799576777777779,0.3884034166666666,-5.947141066666666,5.9725676666666665,0.27479642666666665
435,1778415135810,-2.3020246,-1.4977094,0.43584860000000003,-6.0974774,5.774721,0.6436803
436,1778415135820,-2.233870111111111,-1.5252414888888888,0.5448149866666667,-6.541690599999999,5.278712922222223,1.6233351
437,1778415135830,-1.92105725,-1.5426204499999998,0.6458608299999999,-7.053040920000001,4.78050578,2.65063432
438,1778415135840,-1.6284385666666668,-1.5114601333333333,0.6308599533333333,-7.6119798888888885,4.183395922222222,3.601003955555556
439,1778415135850,-1.42105242,-1.4833669999999999,0.70324222,-7.898637000000001,3.6620675999999994,4.08988965
440,1778415135860,-1.3328521444444443,-1.4650176666666666,0.7935794777777778,-8.004483111111112,3.3400789555555557,4.337083466666666
441,1778415135870,-1.2627871333333334,-1.4226236666666667,0.9784616,-8.025658633333332,2.777149066666667,4.7394957444444445
442,1778415135880,-1.15230805,-1.3454292,1.18252325,-7.74714685,2.24486365,5.0999637
443,1778415135890,-1.0365780688888888,-1.238835911111111,1.3193384777777777,-7.383387333333333,1.897461211111111,5.329845833333334
444,1778415135900,-0.9257094849999999,-1.10418035,1.37727545,-6.933803849999999,1.6679184,5.465555849999999
445,1778415135910,-0.86797744,-1.0396339,1.3939837,-6.7102337,1.5805672,5.5086207
446,1778415135920,-0.79206757,-0.929441428,1.40613082,-6.213293760000001,1.60817762,5.528412059999999
447,1778415135930,-0.7681851,-0.8719716,1.4061795,-5.712236088888889,1.6483034333333333,5.517443722222222
448,1778415135940,-0.74192746,-0.841128344,1.4917943,-5.17375394,1.51545098,5.54783676
449,1778415135950,-0.6479239844444444,-0.76812748,1.6329611,-4.697347411111112,1.314034288888889,5.603233977777778
450,1778415135960,-0.429970188,-0.65639194,1.6700484799999997,-4.12418887,1.0755187400000001,5.6329892
451,1778415135970,-0.30410988,-0.5703313155555556,1.6287500666666668,-3.489694,0.8402204,5.575814
452,1778415135980,-0.130632615,-0.44333379200000006,1.50821,-2.7462928,0.630134776,5.349800480000001
453,1778415135990,-0.012341506000000002,-0.38649612000000005,1.3689857555555554,-2.187299822222222,0.7042305111111111,5.050078044444444
454,1778415136000,0.24400814199999998,-0.363146185,1.393496,-1.78775138,1.0460759400000001,4.69106264
455,1778415136010,0.6442313444444445,-0.31815542666666663,1.5774023333333334,-1.6858620111111111,1.1902359111111112,4.514093444444445
456,1778415136020,1.0415139666666666,-0.24095918333333335,1.6777299666666667,-1.4432878111111112,1.3140342444444444,3.893727444444445
457,1778415136030,1.30797563,-0.17036663999999999,1.69303475,-1.1229969,1.0406699400000001,3.10999148
458,1778415136040,1.5799398333333334,-0.12817143444444443,1.7169496444444445,-0.88985175,0.7503495,2.6229017
459,1778415136050,2.1133672399999996,-0.11652204700000002,1.75029426,-0.449919555,0.334851197,2.17563935
460,1778415136060,2.882187122222222,-0.06209373222222222,1.6551203555555556,0.8154301777777779,-0.6250070444444444,1.1152288711111111
461,1778415136070,3.03334172,-0.071162688,1.53924228,1.29076608,-0.8797575200000001,0.6477118660000001
462,1778415136080,2.937356433333333,-0.09046259466666667,1.4431228,2.0048261333333333,-1.3291782,-0.3188113733333333
463,1778415136090,2.96918539,-0.020623154999999997,1.37299171,2.2365408,-1.3601278,-0.7545491
464,1778415136100,3.5480221333333333,0.02155613486666667,1.1587261,2.3931892,-0.0018749608888889004,-1.7504336777777778
465,1778415136110,3.8283393000000006,-0.13925202828,1.11826644,2.69773058,0.66304414,-2.6213746
466,1778415136120,3.8907555000000005,-0.3180774966666667,1.0982856,2.9556439444444447,0.8176699333333334,-3.1454815555555555
467,1778415136130,3.74974635,-0.5409309400000001,1.06928495,3.4571358400000003,0.526779408,-3.8090145200000003
468,1778415136140,3.3650779111111113,-0.5971046000000001,0.9299559999999999,4.0710170111111115,-0.061534361111111116,-4.315330666666666
469,1778415136150,2.9237498200000003,-0.595376224,0.6967479599999999,4.86155018,-0.9728505999999999,-4.4896664
470,1778415136160,2.7478228444444444,-0.5942217166666667,0.5396012766666666,5.228343577777777,-1.3454674333333334,-4.432333255555555
471,1778415136170,2.3992625333333333,-0.6688635511111111,-0.012158564444444445,6.135383955555556,-1.9492730111111112,-3.9275697444444444
472,1778415136180,1.9361282100000001,-0.7598126390000001,-0.8038181999999999,6.668863829999999,-2.42619374,-3.1915395
473,1778415136190,1.5810813888888888,-0.82109465,-1.5512490444444442,6.280018899999999,-2.7545647666666664,-1.8476093666666666
474,1778415136200,1.1925940000000002,-0.7581113,-2.5111098800000002,4.842949819999999,-2.59949106,-0.9160570399999999
475,1778415136210,1.106589,-0.7340977,-2.707231,3.5058815,-2.4554532,-0.22555535
476,1778415136220,1.0904082000000002,-0.7455221649999999,-2.69068435,2.2336851799999997,-2.595093,0.26666536
477,1778415136230,1.0665324222222223,-0.8248381444444444,-2.4319880777777776,-0.48909350222222225,-3.4114292555555554,1.1902782555555556
478,1778415136240,1.1109793799999998,-0.9239746999999999,-1.22502273,-3.27716484,-4.75656092,1.8891521199999999
479,1778415136250,1.1445484555555554,-0.9564819777777777,-0.28006377222222223,-4.123693888888889,-5.173189366666667,2.027665211111111
480,1778415136260,1.14827125,-0.969160207,0.32354631500000003,-4.92831566,-5.26090664,1.95280242
481,1778415136270,1.1134186,-0.9817951299999998,0.7823932,-5.4145503,-5.025364,1.7011333
482,1778415136280,0.8974914,-0.9079981260000001,1.1799042400000002,-5.36360535,-4.52267506,1.58549989
483,1778415136290,0.7257943888888889,-0.8001788411111111,1.4492241555555556,-5.189486844444445,-4.0766420666666665,1.5767240222222223
484,1778415136300,0.633259502,-0.491107936,1.89556178,-4.94786304,-3.34264782,1.36147164
485,1778415136310,0.6434182800000001,-0.36839209333333334,2.125079877777778,-4.923836444444444,-3.0358258888888887,0.9808001322222223
486,1778415136320,0.6241082244444445,-0.14141407177777776,2.6634920444444443,-4.933202533333333,-2.996731755555556,-0.1921623722222222
487,1778415136330,0.44263559599999996,0.0728640062,3.1115901999999998,-4.72099404,-3.52846764,-1.207706144
488,1778415136340,0.1877209771111111,0.3465107222222222,3.5439025777777777,-4.1089404,-4.150579766666667,-2.1571307666666666
489,1778415136350,-0.09351155200000001,0.47819861,3.77160715,-2.74580424,-4.62147174,-3.24517186
490,1778415136360,-0.3055090166666667,0.44125879333333334,3.812817155555555,-1.3240114333333333,-4.527090833333333,-4.047321166666666
491,1778415136370,-0.44378199,0.363143134,3.7157594000000005,-0.07669187000000002,-4.0705943300000005,-4.72398722
492,1778415136380,-0.6860156333333333,0.12675536433333334,3.1277638,1.6008015999999998,-3.0434956,-5.8153676999999995
493,1778415136390,-0.9359936400000001,-0.1942552482,2.47340044,2.55344844,-2.46424944,-6.609336619999999
494,1778415136400,-1.1736253666666667,-0.5443102333333333,1.893392933333333,3.154372866666667,-2.083107955555556,-7.314802444444443
495,1778415136410,-1.3050761,-0.73921996,1.6543952000000002,3.2035122,-2.0388556,-7.447831599999999
496,1778415136420,-1.6141558777777778,-1.0971609111111111,1.4297921,3.1714765555555555,-1.9818429777777777,-7.677510177777778
497,1778415136430,-2.03685665,-1.38776395,1.43743145,3.18286544,-1.84372028,-7.560716279999999
498,1778415136440,-2.2341785333333335,-1.4769595666666666,1.2880155111111111,3.2646647555555557,-2.0124193666666668,-7.1261865222222225
499,1778415136450,-2.4280685,-1.4708633,1.0255933499999998,3.2823115,-2.5305874499999996,-6.53854735
500,1778415136460,-2.551019366666667,-1.4081207777777778,0.8675269000000001,3.165300277777778,-3.436677533333333,-5.7618847777777775
501,1778415136470,-2.63762343,-1.37983658,0.8601233199999999,3.0892837,-3.8634562000000003,-5.413023
502,1778415136480,-2.8213943666666665,-1.3341022,0.9398685022222222,2.9687431333333336,-4.187637933333333,-4.789933333333334
503,1778415136490,-2.647993311111111,-1.1958150333333333,0.7103327411111111,2.5593397777777778,-4.947990066666667,-3.0041723333333334
504,1778415136500,-2.390612,-1.06320225,0.484189835,2.2608525999999998,-5.1504656,-2.23202062
505,1778415136510,-2.0441097888888886,-0.9497030722222222,0.3259268788888889,2.151633,-5.225722,-2.0050297
506,1778415136520,-1.8308019999999998,-0.8776975479999999,0.2373919,1.8596481,-5.3662167,-1.7032713000000002
507,1778415136530,-1.6377174666666667,-0.7815530911111112,0.10524326777777777,1.5940058777777777,-5.452210377777778,-1.666688211111111
508,1778415136540,-1.6649294000000001,-0.76667585,0.1803459,1.065226,-5.38661904,-1.68641182
509,1778415136550,-1.7416022222222223,-0.7840227111111111,0.2715063588888889,0.8156338,-5.192736,-1.6941085
510,1778415136560,-1.84033296,-0.80203461,0.276790528,0.748684948,-4.79980852,-1.64255302
511,1778415136570,-1.9522379222222221,-0.8420342666666667,0.2564241711111111,0.6625826455555556,-4.183268544444444,-1.5479718444444446
512,1778415136580,-2.05590656,-0.93772546,0.265613058,0.8519181340000002,-3.89204382,-1.35183556
513,1778415136590,-2.0075731,-0.9690437111111111,0.2773095377777778,1.0797912933333333,-3.5797515222222223,-1.3321391
514,1778415136600,-1.8719215555555557,-0.8805663222222222,0.2565596777777778,1.2242227333333333,-3.270255611111111,-1.6093619444444445
515,1778415136610,-1.7970865,-0.8104741000000001,0.24233120000000002,1.2890404,-3.084626,-1.8883579999999998
516,1778415136620,-1.8795710333333335,-0.77175234,0.24184337333333333,1.4579057333333332,-2.612237377777778,-2.628433288888889
517,1778415136630,-2.1579125699999997,-0.7856464599999999,0.310783375,1.7224518400000002,-2.09601546,-3.2771803
518,1778415136640,-2.6723103333333333,-0.9886857222222223,0.3457993111111111,2.269662455555556,-1.5990368888888888,-3.7473697444444443
519,1778415136650,-3.14009487,-1.19861874,0.2180218649,2.7984593700000002,-1.4315358100000002,-3.79627822
520,1778415136660,-3.5615494,-1.3793488,0.019513333,3.4368558,-1.4328187,-3.6329377000000003
521,1778415136670,-4.039446239999999,-1.20316166,-0.6124747547,3.8652429999999995,-1.9987150699999998,-3.30760048
522,1778415136680,-4.551789666666667,-0.9732681866666666,-0.7951175333333333,3.9737905666666666,-2.4695028,-2.9153957333333334
523,1778415136690,-5.017640500000001,-0.914687515,-0.96167195,4.14730935,-2.512873,-2.35809945
524,1778415136700,-5.206608,-0.8044778644444445,-1.525675011111111,4.616885333333332,-2.8618704333333334,-1.6653732333333333
525,1778415136710,-5.37993265,-0.8738009999999999,-1.95531225,5.77311725,-3.9697436500000003,-0.41491800349999997
526,1778415136720,-5.513536411111112,-1.088471377777778,-2.0865818222222225,6.2346125,-4.36374,-0.023364907
527,1778415136730,-5.4655933,-1.4616096,-2.4651132,6.2346125,-4.36374,-0.023364907
528,1778415136740,-5.358866188888889,-1.5544335111111112,-3.0888083111111113,6.385492,-3.1072273,0.14278555
529,1778415136750,-5.5857956,-1.9743834800000002,-3.76290868,4.72682,-1.37934655,-0.22683813500000002
530,1778415136760,-5.8030930000000005,-2.2385554,-4.009034866666666,2.8831566666666664,0.2201001555555555,-0.3317070422222222
531,1778415136770,-5.953427,-2.369193,-4.130729,1.8260515,1.0454651,-0.26892552
532,1778415136780,-5.854454280000001,-2.3478199099999997,-3.8969836399999997,-0.42517258900000005,2.6042327,0.051708220000000006
533,1778415136790,-5.593141233333333,-2.2221215,-3.4915858333333336,-3.0266378333333335,3.9993274444444444,0.45845786111111114
534,1778415136800,-5.350208459999999,-2.1464422599999997,-2.64494706,-4.8089561,4.722720000000001,0.8958686200000001
535,1778415136810,-5.059908833333333,-2.1284982666666665,-1.5606906433333334,-6.606143333333333,5.343462888888889,1.5798461555555556
536,1778415136820,-4.81654296,-2.13883832,-0.929081682,-7.07552,5.438144,1.8978261
537,1778415136830,-4.359156866666667,-2.0237970666666665,-0.27024949000000004,-7.285515800000001,5.3468563555555555,2.321550422222222
538,1778415136840,-3.89393185,-1.8576847,0.25574664,-7.153403,5.1696767999999995,2.63359165
539,1778415136850,-3.5070713,-1.6832656222222222,0.5739867566666667,-6.9979424,5.102789,2.670548
540,1778415136860,-3.15486702,-1.50445368,0.850287456,-6.39499805,5.128139,2.50134325
541,1778415136870,-3.1160252888888893,-1.4727451777777776,0.9065841111111111,-5.734905566666667,5.17296828888889,2.317885388888889
542,1778415136880,-3.17560595,-1.44709969,0.93289893,-5.1386915,5.484446360000001,2.2175435
543,1778415136890,-3.176259122222222,-1.4663389,0.8237574200000001,-4.894040266666667,5.935950666666667,2.2877502222222224
544,1778415136900,-3.1218894666666666,-1.4655496666666668,0.6313139611111112,-4.971482300000001,6.525732233333333,2.4600091666666666
545,1778415136910,-3.0859788,-1.52685742,0.44406251,-5.38351918,7.307046420000001,2.7687720999999996
546,1778415136920,-3.0707583,-1.5885073,0.4007246,-5.6338444,7.527318,2.901448
547,1778415136930,-3.0911500199999997,-1.7821893800000002,0.509371172,-6.41225434,7.8412936,3.36062977
548,1778415136940,-3.0724658666666667,-1.9780829333333334,0.7518223333333334,-7.372595333333333,7.868985299999999,4.089011533333333
549,1778415136950,-3.0434245,-2.14870775,1.0240079,-7.9520859999999995,7.5309832,4.7811015
550,1778415136960,-3.0302378666666665,-2.2954185,1.2975858333333334,-8.294974888888888,7.1552442111111105,5.3374476
551,1778415136970,-3.0362869200000002,-2.4404166599999995,1.6091487400000002,-8.609235,6.5649742,6.044104760000001
552,1778415136980,-3.0390186,-2.5544477,1.9201424999999999,-8.657615,5.957975,6.649149
553,1778415136990,-2.948224111111111,-2.6177305888888887,2.3866060888888887,-8.272373066666667,5.049645133333333,7.667227866666666
554,1778415137000,-2.622598,-2.5273546799999997,2.6226225999999997,-7.4099591,4.32945625,8.450232
555,1778415137010,-2.261967933333333,-2.3909726555555557,2.6662159777777776,-5.921315666666667,3.5889313444444446,8.999756777777778
556,1778415137020,-1.7218077600000001,-2.07834082,2.5141161999999997,-4.90911968,3.25758742,9.1139176
557,1778415137030,-1.4312522333333333,-1.8697128666666667,2.3566483333333332,-3.5366614888888885,3.031465277777778,8.99242688888889
558,1778415137040,-1.2391332800000001,-1.6569747400000001,2.12690466,-2.19591955,3.03774345,8.6020275
559,1778415137050,-1.0466769355555554,-1.4408801666666669,1.8489257666666665,-1.3217631555555556,3.159200222222222,8.096856666666667
560,1778415137060,-0.8663798079999999,-1.1709403,1.51214922,-0.78496929,3.34532786,7.4502747
561,1778415137070,-0.8615678822222222,-0.9770048555555556,1.3535477222222223,-0.4036852,3.570240977777778,6.351488111111111
562,1778415137080,-0.929590847,-0.8165842449999999,1.29570665,-0.32994915799999996,3.58788762,5.89992946
563,1778415137090,-1.0292301166666666,-0.7269292777777778,1.3538832222222221,-0.19735456666666668,3.5284064333333336,5.286679266666667
564,1778415137100,-1.0662952777777779,-0.6851755166666667,1.4059220666666665,0.0009671733333333302,3.3807342,4.9195601
565,1778415137110,-1.01091262,-0.6592762999999999,1.44290126,0.314494708,3.16027937,4.6049941400000005
566,1778415137120,-0.7695028777777778,-0.5800575444444445,1.5173582555555556,0.861175888888889,2.9465575444444445,4.054091633333333
567,1778415137130,-0.68050618,-0.541455396,1.52214981,1.10859619,2.93670924,3.7363542200000004
568,1778415137140,-0.569769,-0.5197355933333333,1.4959206,1.3556227333333333,3.0626863,3.2190886
569,1778415137150,-0.44422714,-0.474777696,1.4861477,1.39105192,3.1669376199999997,2.8105540400000004
570,1778415137160,-0.16041924666666665,-0.3591096933333333,1.5260985000000002,1.3447633111111112,3.1655802555555557,2.270443
571,1778415137170,0.007530927,-0.452587355,1.58702855,1.30938161,3.1008440100000003,1.9698450600000001
572,1778415137180,0.11406153400000002,-0.5642402,1.5963126,1.3055333,3.0282753,1.7658831
573,1778415137190,0.43579373600000004,-0.69030857,1.6793297199999997,1.2468920000000001,2.6414869199999997,1.60987268
574,1778415137200,1.1017072444444445,-0.6080368333333334,1.9470513111111112,1.0992705333333332,2.5776056666666665,1.3239265666666666
575,1778415137210,1.8500531199999997,-0.476832684,2.09625648,1.0106162600000002,2.612899,0.876474144
576,1778415137220,2.6369221,-0.2915515533333333,2.2618087666666664,1.056104,2.5074261333333334,-0.34853927333333334
577,1778415137230,2.8336510111111113,-0.24672170444444447,2.3908034,1.1487491555555556,2.4240794555555554,-0.7096178777777777
578,1778415137240,3.06393488,-0.24609973400000001,2.67333892,1.6635737899999998,2.08555466,-1.2164717299999999
579,1778415137250,3.0905224222222225,-0.28163229666666667,2.8097913555555554,2.1868586666666667,1.6314712666666666,-1.3601022666666667
580,1778415137260,3.11826114,-0.26966207,2.95989824,2.8916746,0.812999535,-1.4735545
581,1778415137270,3.126012288888889,-0.24758556888888889,3.003403422222222,3.1888518,0.4656946699999999,-1.5340666
582,1778415137280,3.1305452666666667,-0.19229779777777778,2.7863313777777776,3.6708102,0.18592663,-1.5151303
583,1778415137290,3.2063761200000003,-0.198157904,2.55164292,4.11344536,-0.1738624,-1.4205558
584,1778415137300,3.1763202,-0.21617792888888887,2.2209866444444444,4.419038666666667,-0.4543091777777778,-1.3984499777777777
585,1778415137310,2.9130207500000003,-0.22293985,1.7899520499999997,4.693322620000001,-0.8619207400000001,-1.2391953199999999
586,1778415137320,2.6680318,-0.28204220444444444,1.2557440111111111,4.805908622222223,-1.0712648666666666,-1.0989312666666669
587,1778415137330,2.6789368700000002,-0.322567592,0.88544494,4.83479512,-1.5192076799999998,-0.7369566599999999
588,1778415137340,2.7463291,-0.31979507333333335,0.46230341666666663,4.533173733333333,-2.5743649333333334,-0.46541469999999996
589,1778415137350,2.5474902,-0.353471842,0.264338602,3.81154948,-3.87958244,-0.257075062
590,1778415137360,2.4188403333333337,-0.31237594333333335,0.17961414333333334,3.122473022222222,-4.6191165,-0.26634637
591,1778415137370,2.222093,-0.270509692,0.184638828,2.4106324,-5.1634154500000005,-0.480584085
592,1778415137380,1.8878235555555554,-0.2835023277777778,0.24228039333333332,1.651917722222222,-5.594809377777778,-0.7849557055555556
593,1778415137390,1.63374174,-0.30998150999999996,0.301157804,1.280610754,-5.776278469999999,-0.9192945869999999
594,1778415137400,1.1697227577777778,-0.35519010111111116,0.45538901111111113,0.5158435511111112,-6.130793944444445,-1.119224888888889
595,1778415137410,0.6934415611111111,-0.40313327555555556,0.6805308777777778,-0.04118128888888887,-6.185295,-1.1672103666666667
596,1778415137420,0.3319706,-0.44612357,0.8719716,-0.43415970000000004,-6.14016,-1.1699252
597,1778415137430,0.006670444444444441,-0.6771702611111111,0.9945600555555555,-0.9414344333333333,-6.2061318000000005,-1.2625024666666667
598,1778415137440,-0.1630887776,-0.808626458,1.0051745,-1.1709255,-6.42548715,-1.3300893200000001
599,1778415137450,-0.3133414388888889,-0.9251285222222223,1.0238063555555557,-1.6412702666666668,-7.149390444444445,-1.4820427444444444
600,1778415137460,-0.5568251799999999,-1.1043571,1.1937159999999998,-2.1788158500000003,-7.971251499999999,-1.6773102500000001
601,1778415137470,-0.6956097,-1.1846829333333335,1.3628234,-2.7273566666666667,-8.643896,-1.9138099333333334
602,1778415137480,-0.88674078,-1.2561586999999999,1.5585665,-3.1032720599999997,-8.871151300000001,-2.14234826
603,1778415137490,-1.164681766666667,-1.2565977,1.8174027333333334,-3.6114562333333335,-8.858710666666667,-2.6757400666666666
604,1778415137500,-1.36267698,-1.24635322,2.12841688,-3.7580087,-8.5725088,-3.19227244
605,1778415137510,-1.6499607333333333,-1.2609882,2.5338301333333333,-3.6566335,-7.7216865555555545,-4.14778
606,1778415137520,-1.8385524,-1.2779555999999999,2.7001271,-3.23277164,-6.7618806000000005,-4.953176999999999
607,1778415137530,-1.896879,-1.289069,2.723787,-2.9197736,-6.265995,-5.320785
608,1778415137540,-2.13020348,-1.41772297,2.4659122200000003,-1.46300976,-4.905500480000001,-6.22239588
609,1778415137550,-2.2169450666666664,-1.4302765,2.1586218666666666,-0.34409364444444446,-4.3030624,-6.527819222222222
610,1778415137560,-2.24129536,-1.3837515,1.7223383399999999,0.5325061,-3.8710917,-6.68175285
611,1778415137570,-2.3337438666666666,-1.3907518333333333,1.4396267,0.9640697,-3.5628514444444446,-6.712906033333334
612,1778415137580,-2.3759618,-1.4047465,1.390325,1.0801307,-3.4260895,-6.6854177
613,1778415137590,-2.52769318,-1.46829297,1.3219949100000001,1.19393144,-3.36524916,-6.405771969999999
614,1778415137600,-2.528467177777778,-1.4717660888888888,1.2723642333333334,1.4199823222222223,-3.4790296555555553,-5.8390551111111115
615,1778415137610,-2.45369816,-1.4098566000000001,1.1934355,1.70009486,-3.7582684,-5.328726
616,1778415137620,-2.261382,-1.153498811111111,1.0690020666666666,2.171180144444444,-4.292746133333334,-4.580353111111112
617,1778415137630,-2.2173245,-1.1130832,1.0584154,2.4533916,-4.4889636,-4.090462
618,1778415137640,-2.073657688888889,-1.0730470222222221,0.9843257777777779,2.5659233111111113,-4.3518625,-3.6995199999999997
619,1778415137650,-1.8518610500000001,-1.00425065,0.7990100250000001,2.550211,-4.178348049999999,-3.3195729999999997
620,1778415137660,-1.7066171333333333,-0.9957119222222222,0.6994073277777778,2.4476225555555557,-4.110510044444444,-3.1053693333333334
621,1778415137670,-1.5644083800000002,-0.9791181,0.65642244,2.35406788,-4.05868304,-3.0041316
622,1778415137680,-1.3420668333333334,-0.8723205333333334,0.6669494888888888,2.2602960444444444,-3.978770666666667,-3.006072688888889
623,1778415137690,-1.2138573799999999,-0.8058824080000001,0.686698608,2.23873988,-3.91855463,-3.16179116
624,1778415137700,-1.1346630333333332,-0.7368891777777777,0.7292295111111111,2.305702388888889,-3.864134888888889,-3.5037774222222224
625,1778415137710,-1.2341695400000001,-0.74243964,0.79983322,2.4689072,-3.72992498,-3.83659424
626,1778415137720,-1.4295108555555556,-0.8056804500000001,0.9022071277777778,2.855397,-3.361475533333333,-4.295138577777777
627,1778415137730,-1.5417159,-0.8710873666666666,0.9248507466666668,3.271316155555555,-3.022658911111111,-4.620143155555556
628,1778415137740,-1.65936816,-0.9565069900000001,0.92354175,3.63813764,-2.75623447,-4.8755383000000005
629,1778415137750,-2.0096498666666665,-1.2411395,0.9068720166666666,4.218206,-2.368102,-5.2499266
630,1778415137760,-2.28099909,-1.46097236,0.837801955,4.616234,-2.05361494,-5.41613812
631,1778415137770,-3.055611855555556,-1.9891200555555555,0.20482225555555555,5.661230566666666,-1.2685006333333333,-5.823105
632,1778415137780,-3.5311510499999996,-2.02937145,-0.5787685499999999,5.90603773,-1.19495464,-5.85167253
633,1778415137790,-3.8234412,-1.9823955444444445,-1.0839860666666665,5.984504511111111,-1.5203055444444447,-5.7081980111111115
634,1778415137800,-4.4743922,-1.72186885,-1.9643371000000003,5.6515588999999995,-1.7339662999999998,-5.285050350000001
635,1778415137810,-5.063893111111111,-1.478463611111111,-2.403598777777778,4.64711388888889,-1.0240260444444444,-4.085473644444445
636,1778415137820,-5.2962236,-1.4093809,-2.539081,4.020215,-0.463404,-3.307356
637,1778415137830,-6.457769999999999,-1.9399302500000002,-3.1150141000000002,1.71880965,-0.40781691000000003,-0.56644625
638,1778415137840,-6.607733,-2.045851,-3.1918936,0.8911073599999999,-0.7464977888888888,0.6100243333333333
639,1778415137850,-6.1277292,-1.76099304,-2.89641282,-0.847855976,-1.7754123,2.38955808
640,1778415137860,-5.826335711111111,-1.5969461999999999,-2.3435953,-1.6298677,-2.0660042222222224,2.993685966666667
641,1778415137870,-5.5216818199999995,-1.49113578,-1.0343652159999999,-2.12298434,-1.61264437,3.48908313
642,1778415137880,-5.259944333333333,-1.6228012444444444,-0.5575393,-1.2722760555555555,0.04269145555555557,3.321507488888889
643,1778415137890,-5.0175185,-1.7288203,-0.3951145,-0.7860077,0.8780929399999999,3.1806054
644,1778415137900,-4.683345666666667,-1.7181152222222222,-0.6323878444444444,-0.31205810222222224,2.5159271000000003,2.4205077
645,1778415137910,-4.2318447599999995,-1.7442542800000003,-1.14712178,-0.544478712,4.33568694,1.2507861200000001
646,1778415137920,-4.167729666666666,-1.7918491555555558,-1.4033305555555555,-1.4068575666666667,5.421040333333334,0.30547453999999996
647,1778415137930,-4.2716696800000005,-1.8560716800000001,-1.4822511999999999,-2.8420737,6.04214992,-0.422736828
648,1778415137940,-4.416680466666667,-1.9585491999999998,-1.3028098333333333,-3.8192970000000006,6.070845899999999,-0.5038301822222222
649,1778415137950,-4.5005188,-2.07254772,-0.99936934,-4.9379671,5.81283756,-0.12904148
650,1778415137960,-4.400968166666667,-2.1070233,-0.7381629933333334,-5.639342,5.446492366666667,0.41074388666666667
651,1778415137970,-4.19874498,-2.16375434,-0.33866002,-6.573564,4.752651299999999,1.47075982
652,1778415137980,-4.016948422222223,-2.2474210111111113,0.12814433111111112,-6.914392222222222,4.380428188888889,2.156621588888889
653,1778415137990,-3.91539617,-2.2797151799999997,0.35726168999999997,-7.101175840000001,4.13044242,2.81568506
654,1778415138000,-3.5139483,-2.1734296777777775,0.5549273555555555,-7.1653148,4.0871536,3.3935873666666665
655,1778415138010,-3.1973411,-2.070822,0.57863132,-7.202780133333334,4.208576377777778,3.7859634222222223
656,1778415138020,-2.81426485,-1.9731181,0.6320643300000001,-7.34093335,4.71978775,4.4515493
657,1778415138030,-2.6144107222222224,-1.975288,0.7385864666666667,-7.4573675,5.051817255555556,4.7128221111111115
658,1778415138040,-2.4951212600000003,-1.9851828900000001,0.8202887460000001,-7.548316,5.2805457,4.885556
659,1778415138050,-2.3634610555555557,-2.0205142555555557,1.0234100022222223,-7.616595111111112,5.468414833333333,5.155143888888889
660,1778415138060,-2.29289,-2.06035188,1.18244096,-7.557173199999999,5.40821265,5.3748451500000005
661,1778415138070,-2.2623169222222224,-2.103472977777778,1.3071833222222222,-7.378432577777777,5.154100277777777,5.718344811111112
662,1778415138080,-2.25913789,-2.13643255,1.37872675,-7.16971284,4.83267234,6.0943011600000006
663,1778415138090,-2.2422345,-2.1712852,1.4308456,-6.955183,4.4876657,6.531179
664,1778415138100,-2.2124880625,-2.218105825,1.4775137249999999,-6.6603633625,4.029377325,7.2451065
665,1778415138110,-2.0587074666666663,-2.2431898999999995,1.5465129333333332,-6.281070888888888,3.5843923111111113,8.059119777777777
666,1778415138120,-1.7009376499999997,-2.20544885,1.6443795,-5.95973125,3.34469415,8.524755
667,1778415138130,-1.5505173,-2.145175933333333,1.680992466666667,-5.6792506666666664,3.193407633333333,8.707703666666667
668,1778415138140,-1.4042800400000002,-2.07660885,1.7335828899999999,-5.375456,3.0301077,8.823765
669,1778415138150,-1.2494327,-1.9733775,1.8335215000000002,-5.375456,3.0301077,8.823765
670,1778415138160,-1.1317397999999999,-1.80812992,1.8373998100000002,-3.85643915,2.42060445,8.6295153
671,1778415138170,-1.0707942,-1.6954038,1.8191304,-3.1280725,2.2470016,8.449926
672,1778415138180,-1.05759221,-1.67136277,1.8065839499999998,-3.0263053500000003,2.2454134,8.4113816
673,1778415138190,-0.8956010555555554,-1.394583477777778,1.6390556555555555,-1.669691571111111,2.272046311111111,7.819057111111111
674,1778415138200,-0.728103484,-1.14019468,1.3905262,-0.61081671,2.36465088,7.0907914000000005
675,1778415138210,-0.6964532377777778,-1.0177322111111111,1.2358173555555556,-0.1386453611111111,2.278697888888889,6.521982444444444
676,1778415138220,-0.69216842,-0.936353432,1.1615068,0.0652690276,2.1833514000000003,6.1570962
677,1778415138230,-0.7161867444444445,-0.8062428466666667,1.1329251555555555,0.16915378888888888,2.047526066666667,5.7706740777777785
678,1778415138240,-0.736689315,-0.7115202,1.15299415,0.23929941999999998,1.9073706000000001,5.3977518
679,1778415138250,-0.7185480200000001,-0.6586868466666667,1.1792253666666666,0.30286146444444445,1.8198158333333332,5.133899877777777
680,1778415138260,-0.6677767400000001,-0.603230316,1.1965149199999998,0.35444412,1.7638215,4.9533606
681,1778415138270,-0.6613698666666666,-0.5977482666666667,1.2169815666666668,0.5106173966666666,1.6630317000000001,4.732641066666667
682,1778415138280,-0.633062,-0.6114821555555555,1.2356344333333336,0.8809265833333334,1.4363394777777778,4.251157555555555
683,1778415138290,-0.5835614849999999,-0.61041065,1.18356909,1.13125862,1.31014517,4.07215215
684,1778415138300,-0.5408920055555556,-0.5930766288888889,1.1057352444444444,1.2470277111111112,1.2099187000000002,3.9763442333333336
685,1778415138310,-0.472344634,-0.593028468,1.05587868,1.28280976,1.0905456199999999,3.9389875000000005
686,1778415138320,-0.2915515583333333,-0.6346915000000001,1.0004242133333332,1.2387473666666666,0.9696945800000001,3.948313066666666
687,1778415138330,0.0864684475,-0.64099775,0.9028423199999999,1.02564309,0.6752153059999999,3.9453402000000004
688,1778415138340,0.27120483,-0.6225668,0.8627028,0.9177131888888889,0.5475482222222222,3.9367068666666665
689,1778415138350,0.841174029,-0.592244927,0.97427643,0.79431522,0.263870745,3.9156302199999997
690,1778415138360,1.4968963,-0.6514404433333333,1.0260354,0.8561533333333333,0.024866573333333336,3.889798933333333
691,1778415138370,2.05134536,-0.726475294,1.18736804,1.26365976,-0.011377028,3.5374623200000004
692,1778415138380,3.599600388888889,-0.8530544888888889,1.7613900444444444,2.0011610999999996,0.4830274666666667,2.697832333333333
693,1778415138390,4.2329452000000005,-0.99045415,1.86329475,2.9128709,1.3594405600000001,1.145109528
694,1778415138400,4.493798933333334,-1.1276471333333333,1.8292836000000001,3.5237995666666664,1.995332566666667,-0.61733752
695,1778415138410,4.48138955,-1.1628726999999999,1.6042247,3.80134822,2.33050449,-1.90277394
696,1778415138420,4.309458566666667,-1.1644277,1.492333,3.951053322222222,2.4726757999999998,-2.8195606
697,1778415138430,3.9906474599999995,-1.1532807,1.28743484,4.02326905,3.0328567,-3.8647543
698,1778415138440,3.842876733333333,-1.0442885444444445,0.8950725377777778,3.8788376,3.231483811111111,-4.037522177777777
699,1778415138450,3.734482977777778,-0.9120688111111112,0.6460471644444445,3.6435935333333336,2.961353488888889,-3.9281124888888885
700,1778415138460,3.40268024,-0.756842955,0.501001766,3.24419447,2.13570522,-3.5675159499999998
701,1778415138470,2.8203677666666667,-0.5766799833333334,0.48742683000000003,2.3532126444444446,0.31397549333333336,-2.9102375
702,1778415138480,2.36521413,-0.43159835300000005,0.5446354409999999,1.6027486,-0.9533035200000001,-2.4204058
703,1778415138490,2.099556677777778,-0.34580947333333334,0.6077827333333333,1.1149489444444445,-1.677267788888889,-1.9787633777777778
704,1778415138500,1.9878293,-0.3096827,0.6418362,0.8686553800000001,-2.00440362,-1.6179817200000002
705,1778415138510,1.9099182222222224,-0.2282382411111111,0.7332677066666666,0.5089885,-2.4310193,-0.8883246
706,1778415138520,2.09360986,-0.27518677999999996,0.806614124,0.23655061249999995,-3.2990334,-0.40239561999999995
707,1778415138530,2.213628466666667,-0.37471698999999997,0.9962065111111111,-0.2371275111111111,-4.7273724999999995,0.05909947111111111
708,1778415138540,2.19571972,-0.48964443199999996,1.29240468,-0.62315582,-5.6150758000000005,-0.182551716
709,1778415138550,2.0581046222222223,-0.6121664666666666,1.526606688888889,-0.7731799,-5.908038,-0.3306211
710,1778415138560,1.865498411111111,-0.7271121777777778,1.6876560555555558,-1.0413419,-6.381445,-0.9316948000000002
711,1778415138570,1.29243825,-0.9226300500000001,1.9401589000000001,-1.15289785,-6.9990499999999995,-1.8260516
712,1778415138580,0.797472,-1.0320046777777778,2.1011253,-1.1621624000000002,-7.2684718,-2.438731433333333
713,1778415138590,0.46444170200000007,-1.1104429,2.12590161,-1.18093577,-7.27983337,-3.19080661
714,1778415138600,0.23022683999999996,-1.2004664,2.08439,-1.2484955,-7.2293773,-3.936529
715,1778415138610,-0.12730620720000002,-1.340066,2.11211722,-1.56864042,-7.247450670000001,-4.92300117
716,1778415138620,-0.5896990266666666,-1.5829684,2.3432466,-1.9489337000000002,-6.921637433333333,-5.7066368
717,1778415138630,-1.0106382200000001,-1.8051054,2.6442395999999997,-2.21436718,-6.38278886,-6.39722008
718,1778415138640,-1.3255007777777779,-1.9527055111111113,2.90998,-2.158250633333333,-6.089867133333333,-6.864625133333334
719,1778415138650,-1.570366,-2.0714624,3.1128035,-1.9778471,-5.904984,-7.269464000000001
720,1778415138660,-1.8903236777777777,-2.1706077222222224,3.2885659222222223,-1.3659733111111112,-5.7019795111111105,-7.462152422222222
721,1778415138670,-1.9550166399999998,-2.13796016,3.1893324200000004,-0.737750794,-5.62888136,-7.52809692
722,1778415138680,-2.0019596444444447,-2.064487022222222,2.8647336111111112,0.06992503888888889,-5.552050222222222,-7.575227311111111
723,1778415138690,-1.9881525,-1.99675066,2.47130278,0.73048172,-5.2347625,-7.62534382
724,1778415138700,-1.9477795666666669,-1.9488501222222223,2.1228575666666663,1.1186141,-4.8799825,-7.6872835
725,1778415138710,-1.9081026333333335,-1.9803460444444445,1.7432791111111112,1.2477064333333334,-4.323016900000001,-7.812710766666665
726,1778415138720,-1.92317928,-2.06369056,1.49061746,1.17652232,-4.02746864,-7.79864101
727,1778415138730,-1.9090781888888888,-2.1927534333333334,1.3430797555555556,0.9961731355555555,-3.765449122222222,-7.600068311111111
728,1778415138740,-1.9354117,-2.2780781400000003,1.3333095199999998,0.9039012489999999,-3.81080118,-7.33256466
729,1778415138750,-1.9963021222222221,-2.329543066666667,1.4073483444444443,0.9103151600000001,-3.98868,-7.0892644
730,1778415138760,-2.07739873,-2.33072432,1.4724609599999998,1.1424371199999999,-4.52757698,-6.476935500000001
731,1778415138770,-2.0166624111111116,-2.2344223555555556,1.4794697777777779,1.5131196,-5.247983888888888,-5.828467111111111
732,1778415138780,-1.9791276200000003,-2.18007228,1.47423236,1.73338597,-5.520028,-5.49970252
733,1778415138790,-1.9112090999999998,-2.123040466666667,1.4613353,2.0121563,-5.652704,-5.115133266666667
734,1778415138800,-1.8602915,-2.102714,1.4437733,2.1326969,-5.605058,-4.993371
735,1778415138810,-1.7894100000000002,-2.0320223555555557,1.1517509000000001,2.308960133333333,-5.473929522222223,-4.847038877777778
736,1778415138820,-1.6688474799999997,-1.9446012,0.95475694,2.1993402,-5.4912573899999995,-4.8673529
737,1778415138830,-1.5772905444444443,-1.8950665111111111,0.9292750888888889,1.9626097777777778,-5.436939555555556,-4.951629655555555
738,1778415138840,-1.51163694,-1.8476200999999999,1.17516608,1.63149665,-5.0568228,-5.2920755
739,1778415138850,-1.5406420222222221,-1.8708510999999999,1.3273809444444444,1.5907395222222223,-4.773754422222222,-5.522161222222222
740,1778415138860,-1.7432318,-2.0421822666666665,1.6689490666666666,1.8171603,-4.150758111111111,-5.844824333333333
741,1778415138870,-1.9254477,-2.2713369,1.84766875,2.2655561,-3.3811923,-5.9823328
742,1778415138880,-2.0321239111111113,-2.4910736888888887,1.7067560555555557,2.9794668222222223,-2.7288413555555553,-5.986880111111111
743,1778415138890,-2.08413374,-2.65289886,1.36905548,3.80690696,-2.26938918,-5.897547
744,1778415138900,-2.092324066666667,-2.7764222666666667,0.9127666666666667,4.434013,-2.1644864666666668,-5.570621333333333
745,1778415138910,-2.08623156,-2.84305626,0.46622843199999997,4.5342581,-2.09407609,-5.3943308000000005
746,1778415138920,-2.083380266666667,-2.856271011111111,0.013005506666666666,4.293127744444444,-1.913419588888889,-5.254813555555555
747,1778415138930,-2.14713142,-2.9014192999999997,-0.17445529199999998,3.0813427,-0.9697964000000001,-5.27222275
748,1778415138940,-2.2353845666666667,-2.9820846,-0.05191359333333333,2.2524229,-0.19619226,-5.515237944444444
749,1778415138950,-2.5953008300000002,-3.2330178599999995,0.5684996160000001,1.3858978499999999,0.64135142,-5.9505685
750,1778415138960,-2.7607301555555557,-3.3188589555555557,0.8506627444444445,1.0862390555555554,1.0040631555555555,-6.195925611111111
751,1778415138970,-3.1181088,-3.47522728,1.2368709199999999,1.41417246,1.233606,-6.43472618
752,1778415138980,-3.5853718333333333,-3.5470024222222225,1.0485537111111112,2.5169197666666663,0.3200839555555555,-6.1975545
753,1778415138990,-3.91320085,-3.55624405,0.59425722,4.2432123,-1.4768378500000001,-5.4325702
754,1778415139000,-4.112390888888888,-3.6244999444444446,-0.4186491111111111,5.145403977777779,-2.7929803555555557,-4.8528082
755,1778415139010,-4.5897432600000005,-3.7509078799999997,-1.5085088,5.3245721900000005,-5.56458935,-4.728629700000001
756,1778415139020,-6.391341944444445,-2.8271467777777777,1.495029777777778,4.543957077777778,-8.968968777777778,-6.127612333333333
757,1778415139030,-7.268524000000001,-2.4412095000000003,3.0320368666666666,5.342343,-6.644567800000001,-6.965236666666667
758,1778415139040,-7.992203999999999,-4.1153680999999995,-4.11444124,6.540082,1.01634292,-3.775524788
759,1778415139050,-7.057447688888889,-3.4219407333333334,-5.517367777777778,2.513466773333333,3.030515,2.13034685
760,1778415139060,-5.6476406699999995,-3.3136445,-4.83277567,-0.729336348,3.3227035999999996,4.9325917399999994
761,1778415139070,-2.8145071999999995,-3.5610580000000005,-2.5780841444444444,-3.2916607888888887,2.8974182222222225,5.821306544444444
762,1778415139080,-1.9283777399999997,-3.1748376200000004,-1.46935715,-4.26609632,2.6397154,5.1406463
763,1778415139090,-1.6259248333333334,-3.0393676666666662,-0.34848245555555557,-4.813883644444444,3.963991555555556,3.891877666666667
764,1778415139100,-1.31013142,-3.0610841399999997,0.52670756,-5.132216420000001,5.17719032,2.6484352
765,1778415139110,-1.0468904,-3.0320368,0.6020473,-5.16227,5.2219043,2.0279365
766,1778415139120,-1.01708379,-2.97360638,0.680234757,-5.091350960000001,4.439767730000001,1.2436621860000001
767,1778415139130,-1.1934605555555555,-2.8096286666666668,0.7387999166666667,-4.8808052222222225,3.0907173777777777,0.5337278044444445
768,1778415139140,-1.4324616000000001,-2.6036121999999997,0.52163106,-4.749703800000001,2.16649196,0.48486002399999995
769,1778415139150,-1.5962212,-2.4614544,0.32846427,-4.646715,1.2549857,0.5581617
770,1778415139160,-1.7529682000000002,-2.2732362200000003,0.1492587068,-4.725270180000001,0.62507238,0.820581692
771,1778415139170,-1.900781577777778,-2.1233656333333335,0.09690606111111111,-4.937681933333334,0.06864395833333332,1.2343950666666668
772,1778415139180,-2.0644260222222224,-2.133139355555555,0.09311180333333333,-5.140754833333333,0.011156446666666665,1.7611320555555556
773,1778415139190,-2.11428808,-2.13278304,-0.008104132000000003,-5.2745440199999996,0.1848271104,2.23403642
774,1778415139200,-2.0003031444444446,-2.064375288888889,-0.1527968511111111,-5.481200266666666,0.5798891666666667,2.7351618333333336
775,1778415139210,-1.93759183,-2.03894828,-0.18083371399999998,-5.6240706,0.8341119000000001,2.95337
776,1778415139220,-1.8277488666666666,-2.0339804666666668,-0.13545505666666668,-5.867188,1.2452121,3.174497
777,1778415139230,-1.7156946000000002,-2.0396311000000003,-0.038325406500000006,-6.1169328,1.6598551799999999,3.2758976000000004
778,1778415139240,-1.767626788888889,-2.098489688888889,0.11946157977777777,-6.613448000000001,2.4949377111111115,3.5184038777777777
779,1778415139250,-1.87597219,-2.18430431,0.24984079799999998,-6.785123260000001,2.7893119000000004,3.7028950200000006
780,1778415139260,-1.9888220222222222,-2.290167411111111,0.3678534322222222,-6.867899788888888,2.906377366666667,4.042587211111111
781,1778415139270,-2.05960808,-2.4067197,0.48281473999999996,-6.89470929,2.8929115600000004,4.49149871
782,1778415139280,-2.140650044444444,-2.649500833333333,0.69490845,-6.910116244444445,2.694141888888889,5.459006088888889
783,1778415139290,-2.1880393000000002,-2.82960105,0.8170598850000002,-6.9078423,2.4272016499999998,6.0965609999999995
784,1778415139300,-2.2251298,-2.9451718,0.8895336,-6.906926,2.2604403,6.446882
785,1778415139310,-2.18101142,-3.09647328,0.8625442400000001,-6.8959919,1.88055436,7.1655362
786,1778415139320,-1.9954821333333337,-3.1303046666666665,0.7460394666666667,-6.893894777777778,1.229041622222222,8.152783222222222
787,1778415139330,-1.8569172666666667,-3.097274333333333,0.7565075822222223,-6.925115999999999,0.6706000177777778,8.800349555555556
788,1778415139340,-1.7241098000000001,-3.0124015,0.96923338,-6.935636,0.52433604,9.007019
789,1778415139350,-1.6047685333333332,-2.8780541333333334,1.2941812666666666,-6.7143735,0.8128340733333332,9.303662333333333
790,1778415139360,-1.58958675,-2.83422025,1.38228197,-6.48506735,1.06586735,9.545375
791,1778415139370,-1.6182346,-2.7486156444444445,1.5130557555555555,-5.900648666666666,1.2646235333333333,9.606540333333333
792,1778415139380,-1.64527885,-2.7195337,1.58044285,-4.9646611499999995,1.096470785,9.8051675
793,1778415139390,-1.5789268,-2.639114088888889,1.5183440777777777,-3.9228188555555557,0.64864342,10.030400222222221
794,1778415139400,-1.4897058,-2.50807325,1.4118049000000001,-3.0175091000000003,0.176458495,10.189696000000001
795,1778415139410,-1.4220172,-2.3947095888888885,1.3465418777777778,-2.5153925,-0.06818583,10.267274
796,1778415139420,-1.327303,-2.2618394,1.2692814,-1.93429364,-0.23861221500000002,10.296961399999999
797,1778415139430,-1.2137327555555555,-2.1423608444444446,1.2467259333333331,-1.5068669,-0.27804579777777777,10.21528311111111
798,1778415139440,-1.09183199,-1.94683918,1.1832854999999998,-0.773485375,-0.12346750449999999,9.781955
799,1778415139450,-0.9782515155555556,-1.6803623222222221,1.1502703555555556,-0.36370863333333336,0.030160584000000004,9.430209
800,1778415139460,-0.85518713,-1.51309135,1.1495793,0.035704027999999985,0.20535158200000003,9.063995799999999
801,1778415139470,-0.7151467577777777,-1.3662348666666668,1.1077340333333334,0.42265541333333334,0.3425071533333333,8.694876166666667
802,1778415139480,-0.5873411722222223,-1.2487957555555556,1.0371167266666665,0.6747317100000001,0.34108183999999997,8.401669333333334
803,1778415139490,-0.41979583,-1.036844035,0.8873383300000001,0.9908247979999999,0.03321481999999998,7.8545948800000005
804,1778415139500,-0.31264358,-0.8223921722222223,0.7831249,1.344966911111111,-0.6193736833333333,7.0406339777777776
805,1778415139510,-0.227970615,-0.6852839000000001,0.8221821,1.51998652,-0.9556247320000001,6.5012777999999996
806,1778415139520,-0.11271660222222223,-0.6151273777777777,0.8893845666666667,1.573500111111111,-0.9951126033333334,6.265528022222222
807,1778415139530,0.213573434,-0.5000474880000001,1.00819904,1.4768071600000001,-0.43878684800000006,5.82815501
808,1778415139540,0.5987747722222223,-0.4046916311111111,1.051782211111111,1.2574799555555556,0.30891055222222225,5.511674877777777
809,1778415139550,1.3256413500000002,-0.262134194,1.08724339,1.10816853,0.8620963700000001,5.01939301
810,1778415139560,1.7311578444444444,-0.23556251333333333,1.0449118955555556,1.1222792,1.0088142,4.6290007
811,1778415139570,2.1358228,-0.364661508,0.8889451019999999,1.69642972,0.5363086105,3.07480658
812,1778415139580,1.9299196,-0.5464139933333334,0.88752124,2.421423933333333,-0.19714247333333332,2.2943339111111114
813,1778415139590,1.74618732,-0.66320945,0.823993146,3.17700128,-0.25730414172,1.9997154799999997
814,1778415139600,1.8969806666666666,-0.6040867588888889,0.60956467,3.994491388888889,0.5912916476111111,1.7319471222222222
815,1778415139610,2.458182133333333,-0.38778685333333335,0.22541626111111113,4.122429777777778,2.104267,1.2807006555555556
816,1778415139620,2.8284151399999997,-0.304353113,-0.017278447,4.05759854,3.2904662,0.8171609459999999
817,1778415139630,2.9801331999999996,-0.6032059533333334,-0.12926567133333333,3.8668921333333333,4.336175566666666,0.26190075533333335
818,1778415139640,3.0231032,-0.79193646,-0.05539957399999999,3.6442383,4.885938149999999,-0.199899757
819,1778415139650,3.183519066666667,-0.9684711533333333,-0.350050898,4.704821866666666,4.971456866666667,-1.4725490399999999
820,1778415139660,3.3980945999999994,-1.01934606,-0.500742608,5.199531800000001,4.88099049,-1.9585365499999998
821,1778415139670,3.8284347999999997,-0.8081162333333334,-0.7363742333333333,4.2328409,4.278755800000001,-1.2802849333333333
822,1778415139680,3.4737242000000004,-0.6081605,-1.24208465,3.0825643499999997,3.5389817,-1.11128385
823,1778415139690,2.959159855555556,-0.4058875,-0.7465577777777779,1.3059065555555556,1.903094577777778,-0.8728498444444444
824,1778415139700,2.74476385,-0.35412127,-0.427707875,-0.011331231999999991,0.8871028800000001,-0.606113224
825,1778415139710,2.5446709333333333,-0.35630128,-0.5910812233333333,-1.1340379266666667,-0.5257103999999999,-0.11682453799999999
826,1778415139720,2.4983776,-0.3653262,-0.75263536,-1.4549618,-1.0766946,0.037108973
827,1778415139730,2.21369016,-0.498038196,0.71512408,-2.1217016,-1.82620425,0.47844610000000004
828,1778415139740,1.937735,-0.4131643533333333,1.1518152000000002,-1.7874664,-2.249775866666667,0.5654918333333333
829,1778415139750,1.79641574,-0.395004752,1.22804728,-1.35905878,-2.91762028,0.37625136000000003
830,1778415139760,1.468734088888889,-0.5099416666666667,1.450037188888889,-0.9234144111111111,-3.2887846888888888,0.09839730944444444
831,1778415139770,1.210119448,-0.585808568,1.50843558,-0.611916272,-3.33531768,-0.06612421639999999
832,1778415139780,0.8881683155555555,-0.6400068666666666,1.4114679,-0.12466374333333333,-3.295979066666667,-0.2894906933333333
833,1778415139790,0.5644384,-0.76716368,1.29098995,0.238383135,-3.3402655,-0.523954245
834,1778415139800,0.2701952888888889,-0.9014313222222222,1.1963333333333332,0.4362297666666667,-3.3698916666666667,-0.7132150877777778
835,1778415139810,0.11284194750000001,-0.9859569499999999,1.1117417,0.47221546,-3.3328743600000004,-0.843488432
836,1778415139820,0.063540295,-1.0232915,1.0701234,0.4274064288888889,-3.2970651333333336,-0.9318305244444445
837,1778415139830,0.038093685200000005,-1.09337482,0.9339142819999999,0.222867624,-3.3820476,-1.15569243
838,1778415139840,0.023019635666666666,-1.1085403666666667,0.8776630333333333,0.04447307333333334,-3.5640054,-1.2951659
839,1778415139850,-0.025939858333333336,-1.1135880555555555,0.8477832333333333,-0.26210438333333336,-3.9524363,-1.4424394999999999
840,1778415139860,-0.08015101799999999,-1.06882456,0.8352073000000001,-0.457249726,-4.11329278,-1.44341678
841,1778415139870,-0.10534152,-1.0145104,0.8360854,-0.58992577,-4.188427,-1.4393852
842,1778415139880,-0.0881270912,-0.928981014,0.90271734,-0.804638561,-4.1148199,-1.50370741
843,1778415139890,-0.14057730666666665,-0.9553809322222223,1.054563522222222,-1.1833638888888889,-3.8421444333333334,-1.7120266888888889
844,1778415139900,-0.1012010292,-1.012650556,1.15667112,-1.4036506000000002,-3.73163548,-1.95616196
845,1778415139910,-0.030672521999999997,-1.0867504000000001,1.2417086,-1.6095061333333334,-3.8557188666666664,-2.3585066666666665
846,1778415139920,-0.049704120000000004,-1.13116354,1.3443528,-1.7788330600000002,-4.106329000000001,-2.8150131800000002
847,1778415139930,-0.092739148,-1.1715825666666666,1.4743644,-1.837691588888889,-4.241774177777778,-3.170662011111111
848,1778415139940,-0.153911417,-1.1876607,1.5941173000000002,-1.8199430499999998,-4.2727239,-3.6842488
849,1778415139950,-0.21427063000000002,-1.2247157,1.6676481333333333,-1.7070381,-4.0941529,-4.3763895999999995
850,1778415139960,-0.291547504,-1.30546632,1.5999165999999998,-1.602176,-3.9254571999999994,-4.9472518
851,1778415139970,-0.3606951755555556,-1.3588122666666669,1.5440772666666667,-1.5209333333333332,-3.856329533333333,-5.473903933333333
852,1778415139980,-0.5059035266666666,-1.4335389333333335,1.5911700666666666,-1.4306636666666668,-3.9479567777777778,-6.038326866666667
853,1778415139990,-0.6475134199999999,-1.51396636,1.7759694799999999,-1.30664812,-4.0308895399999995,-6.38622489
854,1778415140000,-0.7768203777777778,-1.5658908,1.9405975777777777,-0.9196899800000001,-4.144581622222223,-6.816784
855,1778415140010,-0.860495294,-1.58858353,2.0096751399999997,-0.5502817576,-4.25775816,-7.1317179699999995
856,1778415140020,-0.98194754,-1.6287841,2.055364,0.037414394,-4.463919,-7.5467887
857,1778415140030,-1.10422908,-1.75001054,1.9757891099999998,0.53892,-4.45267954,-7.8618638
858,1778415140040,-1.1942058666666666,-1.8837989333333336,1.7880413333333334,1.0178242,-4.394282466666667,-8.137682333333334
859,1778415140050,-1.28228828,-2.01617252,1.55369428,1.28806308,-4.47129512,-8.3197554
860,1778415140060,-1.4807401666666666,-2.0617328666666666,1.4698757555555555,1.223476188888889,-4.734465144444445,-8.384871222222223
861,1778415140070,-1.5857327,-2.0570714,1.5245402,1.1241117,-4.8921995,-8.392201
862,1778415140080,-1.86006898,-2.11197082,1.84837301,0.92045519,-4.9870032,-8.2714978
863,1778415140090,-2.0808802666666666,-2.2492166555555553,1.951475622222222,0.9473731866666666,-5.008667666666667,-7.998612333333333
864,1778415140100,-2.2235596,-2.2791574,1.8708561,1.18745654,-5.3783726000000005,-7.66223909
865,1778415140110,-2.2402661555555556,-2.1161668111111114,1.8822981333333335,1.4008255,-5.914147,-7.380027299999999
866,1778415140120,-2.2618332,-2.0195477,2.00281504,1.3267908099999999,-5.810241700000001,-7.438302210000001
867,1778415140130,-2.4098492888888887,-2.029931988888889,2.2150378222222225,1.1019175666666667,-5.375786466666667,-7.659592
868,1778415140140,-2.7461084,-2.2924782,2.57762298,1.0465340600000002,-4.74471024,-7.9897751999999995
869,1778415140150,-3.2012572444444443,-2.7864769999999996,3.0062391111111113,1.6126367666666668,-4.370866833333333,-8.291411666666669
870,1778415140160,-3.7593351999999998,-3.229228,3.2001715500000003,2.6277886500000003,-4.6203342,-8.177794
871,1778415140170,-4.182320666666667,-3.5301313444444444,3.2906596666666665,3.5093515888888884,-4.891316911111112,-7.990535222222222
872,1778415140180,-4.6363682,-3.8209547,3.27955106,4.66571244,-5.0413684000000005,-7.4924236
873,1778415140190,-5.0173794888888885,-4.3602815,3.0473967222222225,6.126696111111111,-4.994889422222222,-6.456392666666667
874,1778415140200,-4.79416717,-4.741066,2.25770189,7.0127555,-5.2389161,-5.46677738
875,1778415140210,-4.496370411111111,-4.609872466666667,1.7736231111111112,7.181705766666667,-5.519742933333333,-5.109839
876,1778415140220,-4.2270287333333325,-4.337709122222222,1.4133479777777778,6.994031377777778,-5.735168322222222,-5.073120411111111
877,1778415140230,-4.111532599999999,-4.03408901,1.07416022,6.0931403,-5.56254289,-5.3505331499999995
878,1778415140240,-4.382982644444445,-4.0403001,1.113977588888889,5.45272811111111,-4.998215133333333,-5.3559426666666665
879,1778415140250,-5.37060604,-4.4765536,1.62899758,5.3173644,-4.64221781,-5.0739418
880,1778415140260,-5.856002,-4.627688555555555,1.7338512,5.7581518888888885,-4.426318055555556,-4.1881046444444445
881,1778415140270,-5.86481435,-4.4694832,1.520222815,6.2094534999999995,-4.4105998,-3.51296746
882,1778415140280,-5.656221055555555,-3.643064955555556,0.2556179055555556,6.874500444444444,-5.257214666666666,-2.9586981666666663
883,1778415140290,-6.1293940000000005,-2.8783569499999997,0.10002108999999999,7.164520400000001,-5.843212198,-3.52665803
884,1778415140300,-7.946212444444445,-2.942990188888889,0.34412244444444434,11.718451333333332,3.055364675555556,-7.1664005555555566
885,1778415140310,-7.992203999999999,-4.5735474400000005,-4.15543752,12.879638,5.3489604,-7.593213
886,1778415140320,-6.606784444444444,-4.5986628000000005,-6.209969555555556,7.740011844444445,6.6916620444444455,-3.5714711444444447
887,1778415140330,-4.628785209999999,-4.416782120000001,-6.656476700000001,1.43176497,7.16139766,-0.052968069999999964
888,1778415140340,-3.8220928,-4.0903808,-6.411918666666667,-3.8038984666666664,5.192786999999999,1.4773595333333334
889,1778415140350,-3.3004026666666664,-4.079296,-3.7837406666666666,-9.187092222222223,3.0448699666666665,2.4422945444444446
890,1778415140360,-3.1173892299999997,-4.27565491,-1.7718960639999999,-12.0225053,2.32903848,3.1085863500000004
891,1778415140370,-2.6051926666666665,-4.332072133333333,0.2900779133333333,-13.347784444444445,1.8014904111111112,3.6969153777777777
892,1778415140380,-2.1691998,-4.0992088,1.48144624,-13.0101764,1.6263808000000002,4.09646352
893,1778415140390,-1.852723311111111,-3.6304523555555557,1.8268782666666665,-12.172557333333334,1.4390543,4.2014074
894,1778415140400,-1.5962212,-3.09011925,1.9700693,-10.7825235,1.034164385,4.07496205
895,1778415140410,-1.4466291,-2.6059244,2.0513698333333337,-9.534231333333333,0.8599711466666666,3.8554387333333335
896,1778415140420,-1.3843612200000002,-1.9966531,1.92288056,-7.91635125,1.19298475,3.4252495000000005
897,1778415140430,-1.3859819333333334,-1.789823288888889,1.8297748555555553,-7.092072444444444,1.5015644444444445,3.1542709222222225
898,1778415140440,-1.41002133,-1.6179023700000001,1.68535148,-6.11946792,1.97975594,2.68649101
899,1778415140450,-1.4308625888888888,-1.4289179888888888,1.5119344444444445,-4.884131133333334,2.787397933333333,1.9978013999999997
900,1778415140460,-1.5001607,-1.3559204599999999,1.32916896,-4.31359729,3.21112487,1.67169043
901,1778415140470,-1.605734,-1.3368767,1.1448228,-3.6503467999999994,3.6990619,1.2936982
902,1778415140480,-1.78279608,-1.46693015,0.9556928899999999,-3.11609984,4.195436389999999,1.1287617300000001
903,1778415140490,-2.1377331111111113,-1.7644727555555555,0.6440924555555555,-2.6452996,5.010347333333333,1.2584217000000002
904,1778415140500,-2.1448777777777774,-1.8503348777777775,0.3527204311111111,-2.8604535555555555,5.640334444444445,1.703169388888889
905,1778415140510,-2.14795755,-1.98347247,0.12914167399999998,-3.4176369699999993,6.0028112,2.14766259
906,1778415140520,-2.2441757333333334,-2.1864894333333336,0.15146209333333335,-4.301111311111111,5.937681466666667,2.5482427
907,1778415140530,-2.38132192,-2.34240494,0.23612354399999996,-4.82123407,5.76989527,2.7797674399999996
908,1778415140540,-2.604308533333333,-2.564123033333333,0.4324439466666667,-6.064847977777777,5.0195781111111115,3.4488351333333336
909,1778415140550,-2.87832355,-2.86571595,0.79436042,-6.990306749999999,4.2524895,4.3760717499999995
910,1778415140560,-3.022188566666667,-3.0678315,1.0509252,-7.484448288888888,3.584663688888889,5.373487888888889
911,1778415140570,-2.97277709,-3.12563973,1.12730357,-7.562243359999999,2.81814386,6.537333200000001
912,1778415140580,-2.8766414222222227,-3.141999,1.1407101777777777,-7.532433999999999,2.5383759,6.935636
913,1778415140590,-2.8709754399999996,-3.22370952,1.30750623,-7.2224901,1.8776834199999999,8.0570298
914,1778415140600,-2.8458672,-3.2495697333333333,1.4961408555555555,-6.9386225,1.5949561222222224,8.910369888888889
915,1778415140610,-2.78025368,-3.2488542000000002,1.6082219000000002,-6.6430097,1.55674422,9.4526018
916,1778415140620,-2.7329136,-3.2983735,1.7805510666666666,-5.964312533333333,1.5455453666666665,10.231437
917,1778415140630,-2.73348266,-3.3123032099999996,1.83275334,-5.68588824,1.52962262,10.46812
918,1778415140640,-2.7219913666666664,-3.286722944444444,1.9348047333333334,-5.086660733333334,1.481542188888889,10.941377555555555
919,1778415140650,-2.6147562,-3.28682295,2.237905,-4.3779424,1.5649907,11.446513999999999
920,1778415140660,-2.338540933333333,-3.2554339666666667,2.4262288333333335,-3.5483609000000005,1.7725769333333332,11.862653666666667
921,1778415140670,-2.104882311111111,-3.1927100555555556,2.456278088888889,-3.092439777777778,1.8503581444444446,12.01321888888889
922,1778415140680,-1.8305093,-3.1125718,2.4416852600000003,-2.6991966599999997,1.85813628,12.097875300000002
923,1778415140690,-1.344468677777778,-2.9632623333333337,2.3479521444444442,-1.6145796555555556,1.6080554444444446,12.111294333333333
924,1778415140700,-0.920218324,-2.7620758000000003,2.1203066,-0.93749785,1.321568,11.971614
925,1778415140710,-0.77525866,-2.654728,1.9787129000000003,-0.93749785,1.321568,11.971614
926,1778415140720,-0.323457892,-2.09641198,1.38738584,0.680453305,0.07628718500000001,10.8100798
927,1778415140730,-0.18759224,-1.8422313666666668,1.1905472000000001,1.0524389333333335,-0.18960868555555555,10.202048611111111
928,1778415140740,-0.1196472176,-1.7193624,1.1218826,1.1528215000000002,-0.220042456,9.787743
929,1778415140750,0.05428161777777777,-1.4876579555555556,1.1032147333333333,1.1927301666666665,-0.10951982216666667,9.033896333333335
930,1778415140760,0.195846785,-1.40180134,1.2149611500000002,1.24420426,0.1274074721,8.229532879999999
931,1778415140770,0.4100849,-1.3283397,1.3820319,1.3116418,0.3300866,7.613065699999999
932,1778415140780,1.04495126,-1.4182595,1.7303388800000001,1.72794948,0.857873892,6.31567226
933,1778415140790,1.9261083333333333,-1.4295346333333334,2.0154122333333335,2.3831441333333334,1.2710713666666666,5.172043800000001
934,1778415140800,2.5702719000000003,-1.4591553,2.1871398500000003,3.6647399999999997,1.8209357499999999,3.8397478
935,1778415140810,3.4251254444444443,-1.7019014777777777,2.4581109333333333,5.181308222222222,2.694277688888889,2.549939511111111
936,1778415140820,4.09026332,-1.83059458,2.32405024,6.41117017,3.55888026,1.62493771
937,1778415140830,4.544076333333333,-1.855460511111111,1.8308690277777775,7.2450304,4.175523,1.0566131
938,1778415140840,5.196382399999999,-2.10699492,0.3247567,8.3890244,5.080920600000001,-0.2094289908
939,1778415140850,5.469902488888889,-2.4427407333333333,-0.3952094155555555,7.759160133333334,5.054735766666667,-0.7050704666666667
940,1778415140860,5.7669724888888885,-1.4470356222222223,-2.209966471111111,5.7286528,2.9696595,-0.13576080000000001
941,1778415140870,5.19194308,-0.9618366,-2.8271894800000004,3.78093068,1.034561504,0.031977854000000014
942,1778415140880,4.105385177777778,-1.6694673,-1.1739438266666666,1.6649830444444444,-0.6456486022222223,-0.21245607444444445
943,1778415140890,4.391933,-1.2473289,-0.43075684000000003,-0.42915074799999997,-2.2951669800000003,-0.36495071
944,1778415140900,3.990947488888889,-1.1585973888888887,0.1272973822222222,-0.7546508855555556,-2.8797884666666667,-0.7788472322222222
945,1778415140910,3.47491594,-0.76830089,-0.17055263599999998,-0.840983965,-2.7700395500000004,-1.20936303
946,1778415140920,2.9096107,-0.7296157166666667,0.3898093,-0.8672504,-2.256283088888889,-1.6481592444444444
947,1778415140930,2.6318913,-0.8034005000000001,1.0017962,-0.84538207,-1.67086577,-1.8901905200000002
948,1778415140940,2.6367392,-0.5686171977777777,0.26963294111111114,-0.6762588333333333,-1.4293570666666666,-2.340995766666667
949,1778415140950,2.29609119,-0.6920830499999999,0.122863886,-0.9368487999999999,-1.52756099,-2.8027963399999996
950,1778415140960,1.7938241666666666,-0.7863263533333333,0.1428437,-1.5824252666666665,-1.6333801333333335,-3.1693046666666667
951,1778415140970,1.1486585,-0.868660424,0.577795896,-2.26543388,-1.8590984,-3.38358984
952,1778415140980,0.9479517000000001,-0.9085895999999999,0.7648312,-2.4988997,-1.9789925,-3.4136436
953,1778415140990,0.401514292,-1.06100704,1.1242576899999999,-2.47361078,-2.17800635,-3.22342563
954,1778415141000,0.17466465466666667,-1.1131746999999999,1.1540917000000002,-2.1613048666666668,-2.6649738333333333,-2.85594
955,1778415141010,-0.007886640444444447,-1.163130211111111,1.1450939666666669,-1.9063779333333335,-3.1935602666666667,-2.5285258333333336
956,1778415141020,-0.181489238,-1.26037845,1.0807643,-1.8349088000000002,-3.7556417000000004,-2.0749717999999997
957,1778415141030,-0.24396408777777776,-1.3260902777777779,0.9445604911111111,-1.983141066666667,-4.128156733333333,-1.7120267333333332
958,1778415141040,-0.1892031126,-1.31682384,0.842305197,-2.222186,-4.324035,-1.5218496
959,1778415141050,-0.024723661333333334,-1.2691459555555555,0.8855462555555556,-2.8650009666666665,-4.622612,-1.5228677
960,1778415141060,0.145240192,-1.30745436,1.12344356,-3.54157789,-4.67681464,-1.8557387200000002
961,1778415141070,0.20584873555555555,-1.3677491777777777,1.3695582777777777,-4.295681666666667,-4.541954866666667,-2.5609008666666666
962,1778415141080,0.137721445,-1.34666395,1.6959984,-4.8012595,-4.1856782500000005,-3.5119899500000002
963,1778415141090,0.04541592888888888,-1.3687858666666668,1.9731741333333335,-4.909514955555555,-3.870582777777778,-4.048593855555556
964,1778415141100,-0.156323145,-1.48252549,2.3509056,-4.558997360000001,-3.21852364,-4.75135326
965,1778415141110,-0.46027076888888885,-1.6896513666666668,2.538091855555556,-3.4076029444444447,-2.567509877777778,-5.471732144444444
966,1778415141120,-0.652910055,-1.84512586,2.4752419800000003,-2.4872937399999997,-2.29150198,-5.847946240000001
967,1778415141130,-0.7654105033333334,-1.9748306333333332,2.0215915,-1.1706718111111112,-2.3595502444444443,-6.128868166666667
968,1778415141140,-0.7731121780000001,-2.00475112,1.84440022,-0.7640171880000001,-2.44567972,-6.220685319999999
969,1778415141150,-0.76344225,-2.0855959555555557,1.4994099444444444,-0.47712258333333335,-2.6136627333333333,-6.3555603
970,1778415141160,-0.7515005222222223,-2.167748511111111,1.2039828333333333,-0.5046786077777777,-2.937683311111111,-6.551845877777778
971,1778415141170,-0.73498193,-2.1883595,1.069285,-0.718448,-3.24265203,-6.72508491
972,1778415141180,-0.77954415,-2.1774102444444443,1.1507209888888887,-1.0511493611111111,-3.496201177777778,-6.948294277777778
973,1778415141190,-0.8225358289999999,-2.16896798,1.2758336,-1.20115482,-3.59676026,-7.109666300000001
974,1778415141200,-0.8801834733333334,-2.142980866666667,1.6563466666666666,-1.1161197533333334,-3.3992123333333333,-7.455772333333333
975,1778415141210,-0.96719055,-2.1820176,1.8487664,-0.620223757,-3.1274463900000002,-7.8133626
976,1778415141220,-1.0385734777777778,-2.2337651222222217,1.9144205777777776,0.3186077611111111,-2.7804240555555553,-8.294805444444442
977,1778415141230,-1.16962924,-2.33859064,1.77673486,1.1015256199999999,-2.5630846,-8.580708999999999
978,1778415141240,-1.2294315,-2.3736143,1.6624446,1.6260330222222223,-2.4459511222222226,-8.73536211111111
979,1778415141250,-1.4544324,-2.60593244,1.37913536,2.2437488199999995,-2.2945560400000002,-8.8652416
980,1778415141260,-1.5979421333333332,-2.7375039333333335,1.153946088888889,2.411854011111111,-2.2552989111111112,-8.856173777777778
981,1778415141270,-1.6382052999999999,-2.7616246,1.0491467,2.4301794,-2.2654798,-8.849726
982,1778415141280,-1.7760656666666668,-2.8204456444444443,1.195140888888889,2.200636622222222,-2.1733776000000002,-9.120670444444444
983,1778415141290,-2.0044597555555557,-2.929757644444445,1.408303688888889,2.2635539,-1.8565854222222222,-9.466511333333333
984,1778415141300,-2.26710783,-3.0467144100000003,1.54755978,2.63860054,-1.39421306,-9.774380599999999
985,1778415141310,-2.683154477777778,-3.233234055555555,1.5385721555555556,3.766713166666667,-0.6800511666666667,-9.746323
986,1778415141320,-3.03693322,-3.3769654000000005,1.2357489320000001,4.5668314,-0.32852893,-9.523048
987,1778415141330,-3.339479888888889,-3.4450012222222224,0.6006515688888889,5.461754888888889,-0.078434485,-8.878503777777778
988,1778415141340,-3.5402004399999996,-3.49051472,0.20992687459999998,5.73897108,-0.0345892262,-8.175839360000001
989,1778415141350,-3.7708502,-3.5813878666666668,-0.024889662333333333,5.6813888,-0.10992705733333333,-7.2138518000000005
990,1778415141360,-4.0083892,-3.7361175,-0.003658749999999999,5.324145,-0.52173992,-5.64270165
991,1778415141370,-3.9416832222222222,-3.7525597333333334,0.16497236666666668,5.203774022222222,-1.075948077777778,-4.299889633333333
992,1778415141380,-3.7408098,-3.69390754,0.31622578,5.2560353,-1.41938,-3.6262183
993,1778415141390,-3.5155404000000003,-3.7436059999999998,0.3765361933333333,5.7683323,-2.018426022222222,-2.4031664444444445
994,1778415141400,-3.33244749,-3.7730251299999997,0.169756843,6.02509184,-2.11875412,-2.06306028
995,1778415141410,-2.9222233,-3.9129621333333335,-0.24487200666666664,6.239906311111111,-2.247357911111111,-2.1586917333333333
996,1778415141420,-2.7273034000000003,-4.163027533333333,-0.6726815333333334,6.783458444444445,-3.041459377777778,-2.9652816
997,1778415141430,-3.0425708499999997,-5.037367000000001,-2.00533045,7.631696500000001,-5.2162156,-4.1870145
998,1778415141440,-3.710009877777778,-5.409898822222222,-2.8366357333333334,7.757047666666667,-6.885470199999999,-4.6863185777777785
999,1778415141450,-5.486003200000001,-4.82514122,-4.38875014,6.13424283,-9.9904143,-5.862614000000001
1000,1778415141460,-7.932902,-4.6068845,-4.1751523,2.8669353,-11.8047,-7.110643999999999
