id,timestamp,acc_x,acc_y,acc_z,gyro_x,gyro_y,gyro_z
0,1778415290240,-0.41623024111111107,-0.8413464955555555,0.35179896666666666,-3.8045263666666664,-0.8144375377777777,1.4180395333333335
1,1778415290250,-0.409325718,-0.857239002,0.5063588200000001,-3.84650515,-0.77157643,1.44243945
2,1778415290260,-0.34589417333333333,-0.8693799866666666,0.5694336500000001,-3.7772588888888894,-0.7128332911111112,1.484214611111111
3,1778415290270,-0.1629424444,-0.903467384,0.67492966,-3.4154150000000003,-0.649468076,1.57859734
4,1778415290280,-0.023399067777777775,-0.9295528844444445,0.7502470400000001,-2.858077911111111,-0.6719744111111111,1.5943707444444444
5,1778415290290,0.196636476,-0.977550914,0.881374542,-1.86929947,-0.7175165,1.5005310299999999
6,1778415290300,0.28941730555555556,-1.0078806222222223,0.9298374222222221,-0.8770324333333334,-0.6723137777777778,1.1778408111111112
7,1778415290310,0.39954162000000004,-1.0786849,0.959873076,-0.43257148799999995,-0.625156364,0.95130298
8,1778415290320,0.5195696055555555,-1.2105787555555554,0.9446756955555556,0.4024974577777778,-0.5360948155555555,0.4064679277777778
9,1778415290330,0.546934342,-1.3105276799999999,0.9208342039999999,0.9056727200000001,-0.51190526,-0.09874345400000002
10,1778415290340,0.4374950444444445,-1.4809502777777777,0.8630787777777778,1.5699368666666667,-0.5422033111111112,-1.3013676822222222
11,1778415290350,0.1724948268,-1.51803676,0.79576898,1.84578186,-0.641771428,-2.63750105
12,1778415290360,0.034622620888888886,-1.482606811111111,0.7803605777777778,1.863924,-0.67292464,-2.9512322
13,1778415290370,-0.31985605333333333,-1.3633315666666668,0.7842734,1.7496957,-0.8413148,-4.179875066666666
14,1778415290380,-1.1461247700000001,-1.037966062,0.94879007,1.58855412,-1.03210286,-5.25237032
15,1778415290390,-1.8240798999999999,-0.7436917866666666,1.1300151,1.5570750999999998,-1.2391800000000002,-5.823919533333333
16,1778415290400,-2.49021846,-0.48809558,1.32898604,1.6143929,-1.47038565,-6.21659265
17,1778415290410,-3.1875742666666667,-0.23014556333333333,1.5690549333333332,1.7696499333333333,-1.5010298333333332,-6.456146666666666
18,1778415290420,-4.1181122000000006,0.217530978,1.90784304,2.14918976,-0.902725324,-6.24805104
19,1778415290430,-4.227364,0.5022345666666667,1.8832738222222223,2.6584326444444444,-0.02481568222222223,-5.665777933333334
20,1778415290440,-3.6396332,0.637939638,1.26815933,3.3009422,0.46202958,-4.979627
21,1778415290450,-2.904288688888889,0.7170168066666667,0.5267549866666666,3.9351714222222225,0.5015989166666667,-4.252778111111111
22,1778415290460,-2.7147926,0.7530866680000001,0.3268727352,4.07934502,0.25733468258000003,-3.9611459100000004
23,1778415290470,-2.3807894444444444,0.8703590555555556,-0.11060265555555555,3.947252777777778,-0.09397715188888889,-3.7097009222222224
24,1778415290480,-2.31178138,0.94602776,-0.36096008,3.4532265000000004,-0.297375708,-3.50233864
25,1778415290490,-2.2040345111111113,1.00369,-0.5352819044444445,2.6108544777777776,-0.39213848888888886,-3.110527577777778
26,1778415290500,-2.152564688888889,1.020039188888889,-0.5718050388888888,2.3757461444444443,-0.4125000677777778,-2.9768198888888886
27,1778415290510,-1.7843144,1.08219427,-0.597931245,1.84889714,-0.506896326,-2.55014986
28,1778415290520,-1.704581,1.0940578,-0.60159,1.6545306666666668,-0.562904211111111,-2.3190052444444444
29,1778415290530,-1.20690584,1.2136592700000002,-0.632796045,1.4097438,-0.566637186,-2.00857268
30,1778415290540,-0.7023682333333334,1.3728342333333332,-0.7318110166666667,1.1078223999999999,-0.35365511,-1.7006242
31,1778415290550,-0.432427671,1.4576399700000002,-0.781755992,0.9373756649999999,-0.207825515,-1.59686161
32,1778415290560,-0.3049906944444445,1.5018898333333335,-0.79090658,0.8668771166666667,-0.13707583,-1.5439079444444443
33,1778415290570,-0.105356755,1.6130209,-0.75948025,0.8083036549999999,0.0096972,-1.3929226
34,1778415290580,-0.023012859133333334,1.7577549222222222,-0.7065927133333333,0.8895463533333334,0.2132111366666667,-1.1304236666666665
35,1778415290590,0.10179793453333333,1.9207761222222222,-0.6619763033333333,1.0388645777777779,0.38682748333333333,-0.9050210755555556
36,1778415290600,0.144264504,1.98018882,-0.635317564,1.21555553,0.53636967,-0.7213800930000001
37,1778415290610,0.16172014,2.0450481666666662,-0.4849063333333334,1.7426199777777776,1.0236612,-0.40860592444444443
38,1778415290620,0.139526434,2.0309446899999997,-0.44852920799999996,1.89703196,1.2251763199999999,-0.28749526799999997
39,1778415290630,0.055562186666666666,2.0286854333333335,-0.8080451066666667,2.032517866666667,1.5119487666666667,0.006362996666666676
40,1778415290640,-0.303679296,1.83233252,-1.12437657,1.8244633000000001,1.7182521999999998,0.7586417599999999
41,1778415290650,-0.4929386444444444,1.6975415,-1.2302682555555555,1.3615530333333332,1.5673322,1.5797527666666666
42,1778415290660,-0.6494281159999999,1.57620782,-1.25532934,1.0654702999999999,1.4179597000000002,2.01559737
43,1778415290670,-0.7365470022222222,1.4919738777777778,-1.2267179,0.6836908166666666,1.2350313666666668,2.594599166666667
44,1778415290680,-0.8969486199999999,1.3264493199999998,-1.12529732,0.466168099,1.10563361,2.99515203
45,1778415290690,-1.1545896999999998,1.1079610000000002,-0.9779025333333333,0.18299966,1.1187667333333333,3.5996464666666665
46,1778415290700,-1.4009475999999998,1.0040036799999998,-0.9382620599999999,0.0353375136,1.27709828,3.82614876
47,1778415290710,-1.5887512333333333,0.9615398133333333,-0.9257552433333333,-0.036090892000000006,1.407222311111111,3.832990333333333
48,1778415290720,-1.8074936333333333,0.9437949066666668,-0.9291903733333334,-0.1762464022222222,1.696288888888889,3.646478222222222
49,1778415290730,-2.0810421000000003,0.9472869840000001,-0.9157790520000001,-0.317487862,2.0481097999999998,3.4052748799999994
50,1778415290740,-2.5635540666666667,0.9453498599999999,-0.8357804466666666,-0.47148923777777774,2.579574,3.180741088888889
51,1778415290750,-2.9122584,0.8769719,-0.80449815,-0.5133255,3.0498992,3.24535518
52,1778415290760,-3.225157688888889,0.6889358711111111,-0.8082246555555556,-0.5238863777777778,3.3651915,3.430441922222222
53,1778415290770,-3.3326944500000004,0.49877606100000005,-0.804693273,-0.5385534900000001,3.4353439700000004,3.60294521
54,1778415290780,-3.363112877777778,0.18219559133333335,-0.79997213,-0.6089298777777779,3.3734718666666668,3.7805252000000005
55,1778415290790,-3.172435,-0.0714614908,-0.8302130560000001,-1.0258034999999999,3.0737834,3.77648675
56,1778415290800,-2.941438633333333,-0.22481663777777777,-0.6660652755555555,-1.8365377222222223,2.644391777777778,3.413270211111111
57,1778415290810,-2.9313385500000004,-0.359938682,-0.41188683600000003,-2.508429,2.4963494600000002,3.04426414
58,1778415290820,-2.9438876333333335,-0.42453018888888894,-0.29763932111111113,-3.014047633333333,2.4345316666666665,2.7762243333333334
59,1778415290830,-2.92711586,-0.6031937199999999,0.012586097999999999,-3.3961121400000005,2.41864968,2.5944361999999996
60,1778415290840,-2.7301829333333334,-0.7750960055555555,0.25144082,-3.5502356777777777,2.381523777777778,2.561206277777778
61,1778415290850,-2.38002906,-0.898482255,0.37387546,-3.5552379800000002,2.32763344,2.59016045
62,1778415290860,-2.0880317111111113,-0.9393129333333332,0.4058197333333333,-3.554240233333333,2.2860959333333333,2.602336666666667
63,1778415290870,-1.8648683111111113,-0.9644296088888888,0.4191538488888889,-3.5629956555555555,2.262815922222222,2.5917485888888887
64,1778415290880,-1.54419982,-1.02134012,0.4393732,-3.59915784,2.1894598800000002,2.52516608
65,1778415290890,-1.1447416000000001,-1.0908970333333334,0.4552298066666667,-3.6352794111111115,1.9696769777777778,2.356097311111111
66,1778415290900,-0.895235164,-1.1289683199999998,0.4597829,-3.65065235,1.71984045,2.184619
67,1778415290910,-0.6792096955555557,-1.1530347444444446,0.44518517111111117,-3.6367046666666667,1.2855280333333332,1.9749965333333332
68,1778415290920,-0.5068741190000001,-1.1487895700000001,0.432580107,-3.62908944,1.0417847,1.87742382
69,1778415290930,-0.32442949666666665,-1.1063348666666668,0.4443958333333333,-3.627406088888889,0.5763937555555556,1.7033730666666667
70,1778415290940,-0.15689329999999999,-1.04657328,0.51180426,-3.61809408,0.385673688,1.57908604
71,1778415290950,0.06663328888888889,-0.95592298,0.5676482755555556,-3.503539866666667,0.08493322573333334,1.2635121666666667
72,1778415290960,0.146173164,-0.93883526,0.57638726,-3.4072296,-0.05645755712,1.1053587139999999
73,1778415290970,0.28381738666666667,-0.9376156733333334,0.57163904,-3.1441580222222223,-0.3529763888888889,0.8246946877777778
74,1778415290980,0.32393658,-0.9349326,0.54385797,-2.78147774,-0.7508687199999999,0.557550808
75,1778415290990,0.3629513866666667,-0.9834685888888889,0.5487074866666667,-2.2507601555555556,-1.2408089333333332,0.3178950911111111
76,1778415291000,0.40817320199999996,-1.080621,0.6155724739999999,-1.85189038,-1.42487758,0.24491921
77,1778415291010,0.46495936666666665,-1.1693230111111113,0.6729626799999999,-1.6025153111111112,-1.4821614777777776,0.22782906555555554
78,1778415291020,0.63003367,-1.37360148,0.79308286,-1.0316828599999999,-1.42396127,0.260373654
79,1778415291030,0.9837362222222222,-1.6327341444444443,0.8744107333333333,-0.38495254444444443,-1.3975930444444444,0.19151758333333332
80,1778415291040,1.5601482500000001,-1.9198528875,0.751633025,0.004275930000000011,-1.41120985,0.04795150625
81,1778415291050,1.9886497200000002,-2.17140106,0.5958213499999999,1.36167022,-1.6665898000000001,-1.34028285
82,1778415291060,2.1732467,-2.5843682,0.5092370333333334,1.6957120333333335,-1.6464115333333333,-2.3357016666666666
83,1778415291070,2.33059332,-3.14928136,0.2110854904,1.7957535,-1.4221898400000001,-4.02148234
84,1778415291080,2.3944249555555555,-3.4763682444444446,-0.08138686,1.5967462555555556,-1.259134311111111,-5.712609722222222
85,1778415291090,1.9637730599999998,-3.7250282999999995,-0.430695872,0.9292514080000001,-1.1517066599999999,-7.500929600000001
86,1778415291100,0.9420163333333333,-4.012449466666666,-0.23005409000000002,-1.5958383433333334,-0.42878931333333337,-10.998992
87,1778415291110,-2.2686292100000003,-4.46227544,1.195892895,-3.4341604000000006,0.566293569,-12.7099449
88,1778415291120,-3.847480466666667,-4.361687233333333,1.6179399333333333,-3.864016233333333,0.8039513333333334,-12.75584
89,1778415291130,-6.10924648,-3.85012082,2.0164592,-3.7054911000000006,0.176275264,-11.880506
90,1778415291140,-7.54750311111111,-2.4264118333333333,2.7763510444444446,-1.9043671999999998,-2.267685573333333,-9.3288
91,1778415291150,-7.992203999999999,-0.73182114,3.3418922,0.04603412777777779,-3.7287304333333333,-6.997662555555555
92,1778415291160,-7.8818928,0.027196705000000015,3.5557562,1.144613225,-3.21076595,-6.1133593
93,1778415291170,-7.7715816,0.37093627,3.676068,1.9627455666666667,-1.7257284,-6.0503402
94,1778415291180,-6.32677744,1.3240589799999998,2.95861768,3.8941132000000005,2.33190945,-6.58768245
95,1778415291190,-5.9225034333333335,1.3042901666666669,2.321825733333333,5.1626434,4.091056222222222,-6.642047655555555
96,1778415291200,-4.94781928,0.5664720400000001,0.7712401539999999,6.689128800000001,5.065038599999999,-5.94409328
97,1778415291210,-3.9433295777777775,0.1975352377777778,-0.711731891111111,7.438058,4.933584333333333,-4.8223334
98,1778415291220,-3.7061277000000006,0.199722018,-1.0138823000000001,7.419358300000001,4.64550877,-4.3961988
99,1778415291230,-3.082642611111111,0.33616799444444445,-1.6660964777777778,6.742498111111112,3.7259306444444444,-3.5914001555555553
100,1778415291240,-2.67394261,0.447943825,-2.12725228,5.341859250000001,2.4635469999999997,-2.7927173
101,1778415291250,-2.236278866666667,0.6156456666666666,-2.1701571,3.9056132222222226,1.6058834666666666,-2.069711722222222
102,1778415291260,-1.68415617,0.81918498,-1.9880183800000002,2.46108838,0.902656618,-1.41294314
103,1778415291270,-1.4112408666666667,0.9100429499999999,-1.8313365,2.021709288888889,0.7194677688888889,-1.2379328555555555
104,1778415291280,-1.10969892,0.9918567100000001,-1.6058315,1.3121304,0.492816282,-0.9622371600000001
105,1778415291290,-0.9659980888888887,1.0169496333333334,-1.4948263777777777,1.0016028077777779,0.42246027333333336,-0.8342306777777778
106,1778415291300,-0.7177349666666666,1.0585882333333332,-1.2795462666666666,0.29939999777777776,0.24110650444444445,-0.5210018000000001
107,1778415291310,-0.6736307619999999,1.16497652,-1.18364828,-0.005711430000000001,0.0696213152,-0.244125112
108,1778415291320,-0.6659500922222222,1.3267745777777777,-1.1152513666666666,-0.29142504333333336,-0.37931070933333333,0.26800924
109,1778415291330,-0.637659141,1.48532451,-1.02841674,-0.40227345200000003,-0.71580613,0.592552396
110,1778415291340,-0.4928912111111111,1.7622574000000002,-0.7972585722222222,-0.4708783877777778,-1.5622503222222222,1.404040888888889
111,1778415291350,-0.30086206,2.0300787799999997,-0.449687829,-0.30563742400000005,-1.8242953,1.8296555599999997
112,1778415291360,-0.23628410111111112,2.2194893777777778,-0.13134235244444445,0.16284171333333333,-1.5721172333333333,2.0855598666666664
113,1778415291370,-0.31699410499999997,2.2619032399999996,0.004689298800000002,0.5592001600000001,-0.94304126,2.11858628
114,1778415291380,-0.41170086666666666,2.2655792,0.008770837333333333,0.8724426666666667,-0.015585077777777808,2.1510561333333333
115,1778415291390,-0.5908515459999999,2.2442102,-0.1363860056,1.15587575,1.2479228,2.24906325
116,1778415291400,-0.727329011111111,2.0701681777777776,-0.38729225999999994,1.2251729444444444,2.416409955555556,2.5371117
117,1778415291410,-0.8751763666666668,1.837627477777778,-0.5974908333333333,1.185875088888889,3.0711703666666668,2.879797077777778
118,1778415291420,-0.9290054000000001,1.7301069999999998,-0.67094159,1.14622431,3.09497986,3.00920169
119,1778415291430,-1.0669186666666668,1.3644936,-0.93519685,0.7512912666666667,2.9649508,3.9690308000000005
120,1778415291440,-1.0862829,1.11308325,-1.0839504,0.3565821,2.8324986500000002,4.5172152
121,1778415291450,-1.1173450222222223,0.8645626555555554,-1.1867833111111112,-0.5194746666666666,2.884929833333333,5.131727866666667
122,1778415291460,-1.2333860399999999,0.584896932,-1.28723056,-1.245968,2.92840184,5.511736000000001
123,1778415291470,-1.4175827333333335,0.3939762333333333,-1.3174446666666668,-1.8051808999999999,2.8833008666666666,5.7112182
124,1778415291480,-1.59314171,0.2606981342,-1.30396322,-2.20471574,2.81545606,5.86156798
125,1778415291490,-1.956730066666667,0.023290656222222223,-1.2344284444444444,-2.6414987333333335,2.7146391555555556,6.067749311111111
126,1778415291500,-2.3233885200000004,-0.20066414979999997,-1.2507681,-2.84549456,2.5419188,6.2562975000000005
127,1778415291510,-2.5190290444444443,-0.25480483111111113,-1.2901192555555554,-2.8639828,2.299941733333333,6.333671566666666
128,1778415291520,-2.6166649,-0.206018108,-1.31578709,-2.82472568,2.16545352,6.27376779
129,1778415291530,-2.93675,-0.07227386222222222,-1.3824519555555554,-2.8083956666666667,2.021395533333333,6.0579756666666675
130,1778415291540,-3.41471454,-0.060009596,-1.28645618,-3.04731838,2.0934346600000002,5.6502149
131,1778415291550,-3.6608336444444447,-0.09078443111111112,-1.0799986333333331,-3.346348511111111,2.336660477777778,5.375863
132,1778415291560,-3.6556910333333335,-0.1284424511111111,-0.6981674111111111,-3.665210866666667,2.6992323000000003,5.1816136
133,1778415291570,-3.605619,-0.170485554,-0.535830036,-3.77565459,2.8518015300000004,5.06502319
134,1778415291580,-3.510425111111111,-0.3354125322222222,-0.14300631777777778,-3.8006661,2.9456072,4.8914610000000005
135,1778415291590,-3.3512565000000003,-0.515469116,0.222269068,-3.5975085499999997,2.8285281,4.768579
136,1778415291600,-2.894477833333333,-0.6640428133333334,0.5196441266666666,-3.0800191333333333,2.757059,4.594792999999999
137,1778415291610,-2.35443006,-0.6895768280000001,0.5969251,-2.6478243200000002,2.78918968,4.3673134000000005
138,1778415291620,-1.8742522666666668,-0.6589239333333333,0.5447201888888888,-2.3003065333333335,2.893142311111111,3.9030677777777782
139,1778415291630,-1.4897271,-0.650147654,0.470125024,-2.1210908,2.9959004,3.4008157000000003
140,1778415291640,-1.2762566777777777,-0.6733590277777778,0.4534411022222222,-2.095265511111111,3.061736133333333,2.9015838888888887
141,1778415291650,-1.0732333200000002,-0.70382153,0.49931266500000004,-2.15670304,3.1624173,2.1238396
142,1778415291660,-0.8725169922222222,-0.7268547077777777,0.6050454777777777,-2.185535222222222,3.2655554777777778,1.3972028
143,1778415291670,-0.79092417,-0.73151217,0.653897924,-2.14900654,3.294849,1.24193645
144,1778415291680,-0.6313749277777778,-0.7021548000000001,0.7010571766666667,-1.8880525333333336,3.355893,0.8654178666666668
145,1778415291690,-0.45213005000000006,-0.621341136,0.6728807339999999,-1.59252463,3.25557156,0.697495962
146,1778415291700,-0.09573728753333333,-0.45798403333333326,0.5653683366666667,-1.02935398,2.6120848,0.46368398
147,1778415291710,0.16290584348,-0.373094942,0.42185387199999996,-0.569645596,1.7342565,0.247362594
148,1778415291720,0.27291226,-0.34264195,0.34727636,-0.38617423333333334,1.1084332333333335,0.11767293155555555
149,1778415291730,0.3959919288888889,-0.33402354333333334,0.17531849111111109,-0.27343900111111114,0.09043083333333332,-0.10270718122222222
150,1778415291740,0.36285652500000004,-0.35875569,0.07442507649999999,-0.41094751599999996,-0.8840334500000001,-0.389506762
151,1778415291750,0.04257700777777777,-0.5346653622222223,0.151445158,-0.7691076111111111,-1.6786167777777778,-0.6811795433333333
152,1778415291760,-0.29526113400000004,-0.75533678,0.279723654,-1.18699838,-2.0003720400000002,-0.794009816
153,1778415291770,-0.543409091111111,-1.019754588888889,0.3709362844444445,-1.6918348111111112,-1.7281632111111112,-0.6174478
154,1778415291780,-0.5233689349999999,-1.09346322,0.318521623,-2.26738866,-1.1829820999999998,-0.288839128
155,1778415291790,-0.4312243333333333,-1.1308282333333333,0.27308502333333334,-2.6003004,-0.956765,-0.11173414666666666
156,1778415291800,-0.0887643305,-1.2280259399999998,0.260231643,-3.47232305,-0.5767161649999999,0.263733305
157,1778415291810,0.24033245444444443,-1.3335872666666666,0.41417727666666665,-4.427013566666667,-0.5130862433333333,0.44047177
158,1778415291820,0.46885054400000004,-1.36320144,0.5435805,-4.944503,-0.6356629500000001,0.381932245
159,1778415291830,0.6262594577777778,-1.3582838222222222,0.6288917177777777,-5.2056402888888895,-0.7802980333333333,0.2548420877777778
160,1778415291840,0.8306616133333333,-1.3207512,0.7473132677777777,-5.4350474,-1.2334109666666666,-0.29464896555555553
161,1778415291850,0.911120225,-1.27441885,0.9388504999999998,-5.40190548,-1.49665214,-0.748868192
162,1778415291860,0.828490038888889,-1.1420686444444443,1.1976681,-4.733862455555556,-1.7791010666666667,-2.3277437
163,1778415291870,0.612499128,-0.987167324,1.47290914,-4.1108798,-1.5858968999999998,-3.34473992
164,1778415291880,0.32951785111111115,-0.9429140555555556,1.6682646777777779,-3.5608831777777774,-1.3023008999999999,-4.0952302666666665
165,1778415291890,-0.15574078,-0.9899815500000001,1.89831195,-2.2307378,-0.52204533,-5.51106405
166,1778415291900,-1.0362020333333333,-1.1924747222222223,2.1229999111111106,-0.481424,0.32194195333333336,-6.626623933333333
167,1778415291910,-2.04684494,-1.3627075400000002,2.15213168,1.0770000400000002,0.698916164,-7.11210988
168,1778415291920,-3.4138881666666667,-1.4510095,2.0160628,1.8474311444444445,0.6699212848888888,-7.178108444444444
169,1778415291930,-4.46818777,-1.29757875,1.8753716399999998,3.56012475,-0.9385820408000001,-6.581047
170,1778415291940,-4.766389444444444,-1.0371268822222222,1.7765942000000001,3.9431803333333337,-1.9929315222222224,-6.140474177777778
171,1778415291950,-4.66146125,-0.44783100249999996,1.6170456000000002,3.8549197200000003,-3.12372016,-5.71233818
172,1778415291960,-4.452394166666667,0.24938108000000003,1.4229251666666667,3.0423842,-2.9282490222222224,-5.826905944444444
173,1778415291970,-4.47963645,0.591802805,1.39605705,1.6439808500000002,-1.8552576000000003,-6.2037647499999995
174,1778415291980,-4.611498800000001,0.675103738888889,1.5139399333333332,0.8103397566666667,-0.8321521326666667,-6.350266333333334
175,1778415291990,-4.7408119555555555,0.753831288888889,1.6794611222222222,0.40738421,0.07359860844444444,-6.230472111111111
176,1778415292000,-4.39418322,0.8337133,1.47203708,0.643374865,0.6407024,-5.5461875
177,1778415292010,-3.6578860888888887,0.9509159333333334,1.1578622777777778,1.082981288888889,0.7962648333333333,-4.824980666666666
178,1778415292020,-2.6673719399999998,1.10041177,0.71455694,1.47553213,1.05151246,-4.09506648
179,1778415292030,-2.1429806888888887,1.1747331333333333,0.3763058277777778,1.4448065222222222,1.1661413555555553,-4.006979755555555
180,1778415292040,-1.76585308,1.2290168,0.0923407512,1.19991785,1.2720283399999999,-3.9922381000000002
181,1778415292050,-1.4552576666666668,1.2756233,-0.09233262566666667,0.8728498277777778,1.0387457333333332,-4.015463888888889
182,1778415292060,-1.26273224,1.33654754,-0.0424567461,0.709651795,0.600730085,-3.9624899499999997
183,1778415292070,-1.0821871333333335,1.425943588888889,0.08687160644444444,0.7961545622222223,0.07787453666666666,-3.7946765555555553
184,1778415292080,-0.898659125,1.52355834,0.21482961500000003,1.0359206,-0.152971426,-3.6675117200000003
185,1778415292090,-0.5993845766666666,1.6580438666666666,0.33579195,1.7940838000000001,-0.3506008766666666,-3.4910175666666667
186,1778415292100,-0.308152126,1.739327,0.329598498,2.5379939,-0.383383005,-3.41272735
187,1778415292110,-0.13342241,1.761373,0.22256379333333332,3.3990086,-0.280964282,-3.329143033333333
188,1778415292120,0.13665432333333336,1.7755202666666667,-0.031577049999999995,4.702607466666667,0.03749075133333333,-3.1764311666666663
189,1778415292130,0.18569682199999998,1.7291954600000001,-0.3221590605,5.38877233,0.34865633100000004,-3.00633062
190,1778415292140,0.1921995677777778,1.6818935444444445,-0.5537586222222222,5.724147933333334,0.50560335,-2.8828172666666667
191,1778415292150,0.14676161000000001,1.5983859,-0.80414755,6.015623799999999,0.766880535,-2.5609007000000004
192,1778415292160,0.02017394,1.4502777666666666,-1.3281059,6.031403866666667,1.1385174333333332,-1.8358250666666664
193,1778415292170,-0.073181099,1.3823733999999999,-1.74752268,5.62486494,1.34123737,-1.2846652299999999
194,1778415292180,-0.17623318777777777,1.3561496666666666,-2.0215204,5.113029222222222,1.4686465666666666,-0.9252469444444444
195,1778415292190,-0.22850114000000002,1.35036546,-2.0863108,4.55904322,1.5715268,-0.5846113643999999
196,1778415292200,-0.3819193,1.3432728555555555,-2.164553911111111,3.0154389333333333,1.7323967777777778,0.3351345457777778
197,1778415292210,-0.511813415,1.3218759,-2.09393325,1.767853,1.6619321599999999,0.9316336759999999
198,1778415292220,-0.7936438766666666,1.2827882666666666,-2.0166421000000003,1.0286158444444444,1.5798885777777778,1.2467392555555554
199,1778415292230,-1.1036559000000001,1.25689038,-1.8651028,-0.253837576,1.4553436000000002,1.93435478
200,1778415292240,-1.2610289000000001,1.226555311111111,-1.6655443444444444,-0.8039598611111112,1.487990011111111,2.247366422222222
201,1778415292250,-1.5937972500000002,1.1626441,-1.29821595,-1.55544625,1.65264725,2.77378095
202,1778415292260,-1.9425557666666664,1.1339821666666667,-0.8563067222222221,-2.081216044444444,1.9208770222222222,3.412863011111111
203,1778415292270,-2.16382148,1.1603542599999999,-0.38540051200000003,-2.1024599,2.1446847,3.62194255
204,1778415292280,-2.3963186,1.2473492222222222,0.016501642777777777,-1.8102712666666667,2.6057726666666667,3.7452318
205,1778415292290,-2.5049495777777775,1.2917624,0.12789703166666666,-1.6169635777777778,2.7788460777777777,3.749507655555556
206,1778415292300,-2.8761281999999997,1.3748364,0.29846254,-0.84611508,3.1014547400000003,3.68198878
207,1778415292310,-3.3350321444444444,1.3110182777777777,0.23232723333333333,-0.22260290222222226,3.297590977777778,3.708852555555555
208,1778415292320,-3.8478863199999997,1.15308861,0.049371779669,0.21993555599999998,3.59281266,3.9533195
209,1778415292330,-4.140092511111111,0.9311722333333332,-0.05304510370222222,0.12361172999999999,3.7796936666666667,4.1567475555555555
210,1778415292340,-4.3496074,0.62818302,-0.113152952,-0.22011882759999998,3.9727214,4.3719559199999996
211,1778415292350,-4.473753666666666,0.24716551555555555,-0.11073478444444444,-0.9818521666666666,4.182309977777778,4.644543266666666
212,1778415292360,-4.514239000000001,-0.04836866799999999,0.0023842890000000004,-2.19940146,4.17320171,4.87773738
213,1778415292370,-4.439202,-0.34321107333333334,0.29878777833333336,-3.2980916333333337,3.8075892000000002,5.090190333333333
214,1778415292380,-4.18307645,-0.61380409,0.672844149,-4.059782719999999,3.3865067600000005,5.3028872
215,1778415292390,-3.894146688888889,-0.7761834755555556,0.8683332044444444,-4.362060555555555,3.136191777777778,5.428531555555555
216,1778415292400,-3.52866019,-0.9437410289999999,0.990341362,-4.5890509999999995,2.71320032,5.6044016
217,1778415292410,-2.865729488888889,-1.2368878777777779,0.9351867055555556,-4.639792022222222,2.4215682666666667,5.6192519999999995
218,1778415292420,-2.38830404,-1.46321342,0.80105283,-4.7794521,2.00706087,5.583205
219,1778415292430,-2.0498249333333334,-1.6443947,0.6943799433333333,-5.079873788888889,1.604186711111111,5.538959355555556
220,1778415292440,-1.8691503888888887,-1.7356093666666665,0.6660720555555555,-5.249825122222223,1.3613409866666666,5.526199422222223
221,1778415292450,-1.5135029599999998,-1.8537789199999999,0.74869002,-5.70183171,0.552305179,5.53348201
222,1778415292460,-1.0942000111111112,-1.8594749888888888,1.0385531555555556,-5.9895610999999995,-0.5941253200000001,5.6322155333333335
223,1778415292470,-0.4419831,-1.8054529000000001,1.42947974,-5.79718478,-2.03990918,5.7931534
224,1778415292480,0.05577222222222221,-1.6982732666666667,1.5905263888888888,-4.459524333333333,-3.8874151222222224,5.679590111111112
225,1778415292490,0.310597382,-1.6189176799999998,1.62704612,-3.6453302899999995,-4.58824945,5.43849548
226,1778415292500,0.4835614166666667,-1.552675288888889,1.6015703777777779,-1.9692698000000002,-5.638858166666667,4.7827305
227,1778415292510,0.52867717,-1.5394984,1.57053674,-0.21150587500000007,-5.49632725,3.8449399499999997
228,1778415292520,0.7174198833333334,-1.5867084666666669,1.5339818333333333,1.3621978555555556,-4.095459477777777,2.7592564222222222
229,1778415292530,1.028932,-1.80297102,1.38675166,2.4709840200000004,-2.42975186,1.71415954
230,1778415292540,1.3069428666666667,-2.1849038333333333,1.1314955533333333,3.349046433333333,-1.2247232422222223,0.8368437466666667
231,1778415292550,1.6129905999999998,-2.7280860000000002,0.64476325,4.69955342,0.047386472000000006,-0.687630754
232,1778415292560,1.8602101666666668,-3.099144233333333,0.037908716666666654,5.523382600000001,0.5831809800000001,-2.3214485666666667
233,1778415292570,1.92674345,-3.23683519,-0.7323476299999999,5.346684860000001,0.56905004,-3.4207292000000002
234,1778415292580,1.9397777888888887,-3.0764567333333335,-1.6185632422222223,3.9842003,0.0014507533333333322,-4.825158666666667
235,1778415292590,1.8929641,-3.0049011,-1.8038613000000001,2.93480037,-0.47250563100000004,-5.6350657900000005
236,1778415292600,1.5222738,-2.8892641666666665,-1.7237895666666667,0.8311510111111111,-1.1153816222222224,-6.739206277777778
237,1778415292610,1.05700072,-2.79990112,-1.3224979000000001,-1.7339663600000002,-1.4969575599999998,-7.722346200000001
238,1778415292620,0.34310946111111107,-2.870665477777778,-0.5265754461111112,-3.457217422222222,-1.579218311111111,-8.491226555555556
239,1778415292630,-0.48559066999999995,-2.9665959111111113,0.31082098533333335,-4.929062311111111,-1.374923811111111,-9.238496555555555
240,1778415292640,-1.0609277760000002,-2.9691611,0.8046018119999999,-5.279797159999999,-1.18652496,-9.5293624
241,1778415292650,-2.7310334,-2.7531789,1.9739158666666665,-5.477874444444445,-0.4824081599999999,-10.316243222222223
242,1778415292660,-4.1723777,-2.2670834500000003,2.4192264,-4.54164935,-0.5125772200000001,-10.250475
243,1778415292670,-5.657565933333334,-1.3386214444444446,2.621351977777778,-2.6831975000000003,-1.6979772233333335,-9.167799333333333
244,1778415292680,-6.0213881,-0.622051528,2.5880930199999996,-1.29243825,-2.470419,-8.197646500000001
245,1778415292690,-5.947176533333333,0.15040511999999998,2.4388313333333334,-0.1615181888888889,-2.3594824444444447,-7.272111222222222
246,1778415292700,-5.6051747,0.70735833,2.18102665,0.327811188,-1.42260228,-6.849048600000001
247,1778415292710,-5.212858355555556,1.0821803333333333,1.8416724999999998,0.5975613333333334,0.15031933333333333,-6.740622999999999
248,1778415292720,-4.88198612,1.1209130200000001,1.5635546599999999,0.8761076799999999,1.92630676,-6.7852760000000005
249,1778415292730,-4.492589333333333,0.9762663666666668,1.3141011,1.5920715333333333,3.0632971333333336,-6.3622795000000005
250,1778415292740,-3.94810535,0.857690292,0.953034255,2.3378193,3.3103645800000003,-5.72785376
251,1778415292750,-3.469359,0.8151627333333333,0.6437570611111111,2.9804849444444446,3.206303277777778,-5.1092962222222225
252,1778415292760,-2.788709433333333,0.7837246066666667,0.19701353,3.4230099444444444,2.988434388888889,-4.638265055555555
253,1778415292770,-2.45683224,0.780374836,-0.07093706600000001,3.5326367,2.6345231,-4.31041318
254,1778415292780,-2.1231319333333336,0.8168261666666666,-0.38169911333333334,3.526446733333333,2.054177466666667,-3.806825466666667
255,1778415292790,-1.9770788,0.90037574,-0.53065904,3.14041164,1.6656582700000002,-3.3949515200000002
256,1778415292800,-1.9431180555555554,0.9502790222222222,-0.5727569888888888,2.9502820666666665,1.5312243666666667,-3.1746664666666664
257,1778415292810,-1.9196577300000002,1.0053909600000002,-0.57696963,2.47733698,1.2370268,-2.5381772
258,1778415292820,-1.8096854666666669,1.1029234222222222,-0.47834768888888884,2.0317034666666665,1.0813015,-1.7338135666666668
259,1778415292830,-1.7229937100000001,1.1641685499999999,-0.405892582,1.8615417399999998,1.05548303,-1.3972902130000002
260,1778415292840,-1.4543632333333334,1.2289436333333335,-0.1940255466666667,1.610015211111111,1.218674211111111,-0.70405238
261,1778415292850,-1.3589908000000002,1.2391088700000001,-0.1368220058,1.5625015000000002,1.3403821399999998,-0.421759488
262,1778415292860,-1.1987453666666665,1.2411767666666667,-0.07784329933333332,1.523402177777778,1.5016321888888888,-0.07257204555555556
263,1778415292870,-1.0334444,1.2548903,-0.083724395,1.45122035,1.6483713500000001,0.32237465
264,1778415292880,-0.7976989666666667,1.2547276333333333,-0.06606076,1.3084517999999998,1.7384373999999998,0.7929985288888889
265,1778415292890,-0.575076228,1.2636224999999999,-0.07093096800000001,1.1378558,1.7512991,1.19897865
266,1778415292900,-0.3604478566666667,1.2913253666666666,-0.10080873,0.9561287333333335,1.7025331333333336,1.5429238333333335
267,1778415292910,-0.0456734015,1.34323385,-0.10813131000000001,0.713011465,1.5200934,1.8929392500000002
268,1778415292920,0.1711854697777778,1.3592933999999999,-0.01945913,0.5666796133333334,1.2807770111111112,2.112912066666667
269,1778415292930,0.31197958000000003,1.3320086,0.05766596333333333,0.5588743544444444,0.8983442222222222,2.3447626333333336
270,1778415292940,0.29869425,1.2750987200000001,0.100347312,0.7317034120000001,0.352810114,2.5882055999999998
271,1778415292950,0.22703560666666667,1.2215346666666667,0.14259977999999998,0.8960620533333334,0.02927824999999999,2.7264742
272,1778415292960,0.11322002639999999,1.1642875199999998,0.20133492,1.23168188,-0.370616294,2.93547223
273,1778415292970,-0.07329696466666666,1.1231753333333332,0.2194030366666667,1.6919705111111112,-0.4271603977777778,3.012214966666667
274,1778415292980,-0.27908030699999997,1.10510719,0.170723378,2.0475448,-0.23054902400000002,2.8870931900000003
275,1778415292990,-0.5178859044444444,1.1132458222222223,0.0952189688888889,2.1570628666666662,-0.059701834555555555,2.6804571555555556
276,1778415293000,-0.8378720399999999,1.1248034,0.082376754,2.15578688,0.09686510820000001,2.51710304
277,1778415293010,-1.3858091333333333,1.1455817333333334,0.05885505833333333,2.093874188888889,0.35465622888888887,2.2722754444444444
278,1778415293020,-2.3052380599999998,1.23551108,-0.13320289800000001,1.81016953,0.41065735200000003,2.01449789
279,1778415293030,-2.4892,1.255622,-0.17254056,1.7093797,0.3972798,1.9393637000000001
280,1778415293040,-3.5510973999999997,1.044621896,-0.044136723600000004,1.7093797,0.3972798,1.9393637
281,1778415293050,-4.339555333333333,0.69894661,0.1902041817777778,0.7793902166666666,0.35452046666666664,2.7589171
282,1778415293060,-4.4039764,0.53493977,0.30919486,0.42224815,0.6862105,3.5226798
283,1778415293070,-3.72291242,0.212573378,0.477405904,0.290305158,1.11497948,4.50426558
284,1778415293080,-3.407292366666667,-0.11657182999999999,0.7942130133333333,0.3040831555555556,1.2022491777777775,4.594928777777778
285,1778415293090,-3.10497091,-0.370399638,1.0606381599999999,0.34100548,1.4660334,4.4265045
286,1778415293100,-2.7977209999999997,-0.5150232611111112,1.141909511111111,0.4808895044444445,1.9363518444444443,4.139033111111111
287,1778415293110,-2.4732084,-0.6531935950000001,1.1228551999999998,0.7725690500000001,2.257386,3.8571568500000004
288,1778415293120,-2.2472177777777778,-0.7733581288888889,1.0668576444444444,1.1307631111111112,2.4103693111111113,3.598085522222222
289,1778415293130,-1.9762555599999998,-0.90731512,0.89364966,1.5662886999999999,2.58443368,3.2383915199999995
290,1778415293140,-1.7084228666666668,-1.0091848444444445,0.6582667,1.7332027222222222,2.7685295555555554,2.960496711111111
291,1778415293150,-1.608417,-1.038902,0.55250174,1.7423655,2.8920565,2.8037126
292,1778415293160,-1.4258182666666666,-1.067572522222222,0.38111979888888886,1.6065792222222222,2.9789325,2.6581272666666664
293,1778415293170,-1.07970324,-1.04903683,0.105622018,0.8968154050000001,3.0398814,2.21027443
294,1778415293180,-0.8364004466666667,-0.9960303333333334,-0.009502585888888889,-0.04382828999999999,2.8649755333333333,1.7903170000000002
295,1778415293190,-0.7193949488888889,-0.9632844999999999,-0.026508999555555555,-0.9150067933333332,2.598781888888889,1.5093951111111112
296,1778415293200,-0.63859516,-0.9394176,-0.0280809076,-1.48623722,2.3730805800000003,1.37078702
297,1778415293210,-0.5602562666666667,-0.9194845666666667,-0.014004882000000003,-2.2280908333333334,1.8619642,1.3197608666666667
298,1778415293220,-0.47373191,-0.91968782,0.117125737,-2.995824,1.15755553,1.3828818
299,1778415293230,-0.27626612,-0.9039552,0.34523354666666667,-3.680532966666666,0.182287,1.6691656000000001
300,1778415293240,-0.14972215900000002,-0.887850584,0.45563023999999996,-3.9092393199999997,-0.269032407,1.8155449799999999
301,1778415293250,0.08272840666666667,-0.8932837666666666,0.6816150133333333,-3.992769111111111,-1.1810137777777776,2.0947225555555558
302,1778415293260,0.24608143500000002,-0.9683796499999999,0.83852452,-3.6790948,-1.8381539,2.2728863
303,1778415293270,0.44766840666666663,-1.0249175333333334,0.9479516000000001,-3.0694310666666667,-2.535677833333333,2.3867074
304,1778415293280,0.66369725,-1.0428047399999998,0.99918018,-2.3384913000000003,-3.1338601600000002,2.32407534
305,1778415293290,0.92647685,-1.0325602333333332,1.0009933,-1.6105243,-3.5993665777777775,2.0487054444444444
306,1778415293300,1.04713432,-1.0202668400000001,0.9904784680000001,-1.19118272,-3.80652532,1.73117172
307,1778415293310,1.2514755,-1.0139412666666667,0.9748840933333334,-0.57791238,-4.030624700000001,0.9295568133333334
308,1778415293320,1.36249414,-1.06325716,0.9590986640000001,-0.15805671999999998,-4.19343586,0.13423369200000002
309,1778415293330,1.3386044666666668,-1.223232,0.9467218866666666,0.61704058,-4.621848577777778,-1.7101771511111112
310,1778415293340,1.2542060333333334,-1.406298188888889,0.9248507166666666,0.8047743111111111,-4.7390803111111115,-2.1939172555555557
311,1778415293350,1.20481115,-1.6094842,0.925297875,1.18397472,-5.18772744,-3.8675488199999997
312,1778415293360,1.1621511111111111,-1.8428277666666668,0.920541488888889,1.3060084,-5.421668222222222,-4.885386633333333
313,1778415293370,1.011149788888889,-2.0613635777777777,0.9135763666666666,1.4688331000000001,-5.794013466666667,-6.227078633333333
314,1778415293380,0.565779955,-2.2573116,1.0694069,1.66999532,-6.17400118,-7.19953758
315,1778415293390,-0.29575913666666664,-2.5250728222222225,1.4484617888888889,2.088037155555556,-6.550920999999999,-8.711675
316,1778415293400,-1.4965994820000001,-2.69443164,1.8981838199999999,2.21247352,-6.42029476,-8.9740948
317,1778415293410,-2.854129866666667,-2.6713347,2.166305266666667,2.5562855111111116,-5.770190644444445,-9.209039777777779
318,1778415293420,-4.16009636,-2.1155868599999996,1.9434853399999998,3.1665558500000004,-5.304215999999999,-8.703428
319,1778415293430,-4.721820066666667,-1.1883416733333334,1.3541338333333333,3.658593366666667,-5.217373666666666,-8.072524666666666
320,1778415293440,-5.4099072800000005,-0.46842976199999997,1.12680354,3.46458824,-4.6586878,-8.054281
321,1778415293450,-6.4599198,0.25550272333333335,1.2703282333333332,2.9821818,-3.092363333333333,-7.928364800000001
322,1778415293460,-6.9218673,0.6020107400000001,1.4140398600000001,2.8377368,-1.9039497599999997,-7.606163019999999
323,1778415293470,-7.0578507777777775,0.9181667111111111,1.3318595444444443,3.0167965111111115,-0.27458431111111103,-6.905840222222222
324,1778415293480,-6.505582944444445,1.0566470555555556,0.7623683277777777,3.5305869555555556,1.6601471888888888,-5.421439111111111
325,1778415293490,-5.544546250000001,1.144579,-0.14839281,3.7083163,2.71258944,-4.03881524
326,1778415293500,-4.37304988888889,1.1214170333333333,-1.020449122222222,3.513279522222222,2.9063772666666665,-3.413304288888889
327,1778415293510,-3.53767287,1.1008386099999998,-1.43587342,2.7282729199999998,2.96706834,-2.4031801
328,1778415293520,-2.4614547,1.1156952,-1.6942655,1.03355354,2.653825966666667,-1.6277043666666668
329,1778415293530,-1.69960217,1.0887008200000001,-1.55023678,-0.9044509740000001,2.0762087100000004,-1.2139673
330,1778415293540,-1.4031102,0.9953121333333333,-1.1000844733333333,-1.8910813999999998,1.5245729333333333,-0.9628479666666667
331,1778415293550,-1.2233334599999999,0.9490065400000001,-0.811705852,-2.43317274,1.06937976,-0.7423321
332,1778415293560,-0.8940257500000001,0.9417724433333334,-0.30326972443333333,-2.6499826888888887,0.5157841611111111,-0.47002997777777783
333,1778415293570,-0.59347975,1.006003838,0.12993441201999997,-2.5572967600000003,0.28757162999999997,-0.371914344
334,1778415293580,-0.23949569333333334,1.1231753,0.6390006833333334,-1.9247033333333334,0.3003587066666667,-0.4263204733333333
335,1778415293590,0.025452708,1.2000914,0.958299788,-1.0574300600000002,0.502345508,-0.5758151629999999
336,1778415293600,0.21272584,1.2351534666666666,1.1278977333333333,0.0005599366666666648,0.7658921811111111,-0.7416534244444445
337,1778415293610,0.280687119,1.2400358299999998,1.1476919300000001,0.541668793,0.871869945,-0.8101362
338,1778415293620,0.3841585966666667,1.2324634555555556,1.0839623222222223,1.597280722222222,0.9908282111111111,-0.9052247666666666
339,1778415293630,0.39586760400000004,1.19068527,0.8986378220000001,2.4788029,0.85605664,-0.86938836
340,1778415293640,0.43176977222222224,1.1670599444444445,0.6971748600000001,3.3661333333333334,0.22230598,-0.44960055555555556
341,1778415293650,0.4667040700000001,1.1594579,0.5805827,3.528483,0.06742226,-0.3397838
342,1778415293660,0.44145257200000004,1.20924736,0.2672655988,3.613635,-0.7439051,0.40141827999999996
343,1778415293670,0.4660095888888888,1.203610177777778,0.06365208555555556,3.3914494,-1.9639502555555555,1.371912022222222
344,1778415293680,0.58200045,1.16801025,-0.0447892,3.10791445,-2.9279436,2.2215751
345,1778415293690,0.6619289,1.1516526,-0.11445790000000002,2.9536755,-3.3784435,2.6442814
346,1778415293700,1.18927058,1.15536924,-0.0893771652,2.27471884,-4.5801555700000005,3.3297742599999998
347,1778415293710,1.5706912,1.1033367333333333,0.04124224133333333,1.8132237666666664,-5.110068,3.4595588999999998
348,1778415293720,1.5843851,1.01332132,0.16804028799999998,1.6889163500000002,-4.768808,2.9695575
349,1778415293730,1.4828846333333334,0.9381339911111112,0.27415894444444444,1.8070473666666667,-4.196469722222222,2.4390366666666665
350,1778415293740,0.95165918,0.7339391340000001,0.441574542,2.23116535,-3.26830774,1.7343633400000003
351,1778415293750,0.61035067,0.7773624466666667,0.37591623333333335,2.58676,-2.7519177666666668,1.2286938666666667
352,1778415293760,0.406118234,0.938130958,0.340666207,2.71190226,-2.58727406,0.8731145870000001
353,1778415293770,-0.04998258333333334,1.4206960222222222,0.4345849444444444,2.754199922222222,-2.477647411111111,-0.2719118583333333
354,1778415293780,-1.2400927000000002,2.1471273666666666,0.8869318333333334,2.6280938666666667,-2.650110033333333,-1.21069925
355,1778415293790,-3.25238176,3.0788474599999995,2.20132045,2.77274258,-2.79349616,-1.5346774
356,1778415293800,-4.422757944444445,3.2924549777777776,3.427957366666667,3.7748578333333334,-2.491086,-1.2601524
357,1778415293810,-4.87110124,3.10641286,4.0734266,4.6442716,-2.04042836,-0.9672460240000001
358,1778415293820,-4.993333533333333,2.4157304777777777,4.0975933555555555,6.989314222222223,-0.3594242222222222,-0.2914589777777778
359,1778415293830,-4.70550345,1.8898968999999997,3.5425695500000005,8.2613579,2.02486702,0.07791357000000002
360,1778415293840,-3.8944143,0.9040263333333333,2.2573471333333335,8.255982166666668,4.380131066666667,0.4093185833333333
361,1778415293850,-3.2873564,0.2772265585,1.3637228000000001,7.758141620000001,5.31194289,0.659562355
362,1778415293860,-2.891476244444444,-0.03837622455555555,0.8374946288888888,6.758100155555556,6.066587033333333,1.0980997888888888
363,1778415293870,-2.36312572,-0.271918312,0.322317596,5.19626378,6.07823556,1.74926802
364,1778415293880,-1.9251124000000002,-0.37209486999999997,0.10947793333333333,3.436516333333333,5.568661444444444,2.4034718111111113
365,1778415293890,-1.6190641,-0.44040373000000005,0.11420178399999999,1.8959554,4.8437895,2.8449447
366,1778415293900,-1.3734847,-0.5200709766666667,0.21295958,0.18530732222222224,3.940753833333333,3.2652415444444447
367,1778415293910,-1.291430411111111,-0.5487650599999999,0.28069389,-0.4393264333333333,3.5755265555555553,3.398338355555556
368,1778415293920,-1.13371246,-0.575167696,0.405737112,-1.3976643499999999,2.98539378,3.5873073499999997
369,1778415293930,-0.828510388888889,-0.5811518,0.5498322444444445,-2.209222422222222,2.4396899555555556,3.714757255555556
370,1778415293940,-0.592857782,-0.56619156,0.6295794100000001,-2.71880482,1.9546501199999997,3.72792442
371,1778415293950,-0.31851452666666663,-0.5344315888888889,0.7636217911111111,-2.994161177777778,1.4556151000000002,3.5902122888888885
372,1778415293960,-0.180589815,-0.49698937,0.8495221479999999,-3.05977968,1.10838234,3.37619852
373,1778415293970,-0.12690782,-0.47514967666666663,0.8883242166666666,-2.9906317,0.9210558533333333,3.1235928
374,1778415293980,-0.08107180500000001,-0.453563035,0.932493475,-2.81898372,0.771026704,2.72723438
375,1778415293990,-0.076071514,-0.46227629333333337,0.9599070111111112,-2.5637175333333335,0.636731911111111,2.257818688888889
376,1778415294000,-0.08081433066666667,-0.5152943266666666,1.0142800666666667,-2.3128629555555555,0.5148339288888889,1.8942967333333334
377,1778415294010,-0.11290291999999999,-0.659075052,1.06173272,-1.9243369000000001,0.280241454,1.61598114
378,1778415294020,-0.12022041999999998,-0.68747914,1.0662208,-1.7506119,0.16637953,1.5209333
379,1778415294030,-0.177644512,-0.91297704,1.10745788,-0.9293583,-0.581786196,1.4301614
380,1778415294040,-0.03774609999999999,-1.1864716666666668,1.1907809,0.008840311111111122,-1.3668470888888888,1.4648032111111111
381,1778415294050,0.20546320599999998,-1.3152231,1.17615402,1.192694552,-2.31248452,1.24368496
382,1778415294060,0.4386333333333333,-1.3885566333333332,1.1180530333333332,1.9415016333333333,-2.9893338000000003,0.8136994
383,1778415294070,0.7235636,-1.53127835,0.99289328,2.78618118,-3.9608556399999997,-0.16740269999999996
384,1778415294080,0.7240090333333333,-1.6602797333333335,0.8945067822222222,3.3746850000000004,-4.8178793777777775,-1.2173337833333333
385,1778415294090,0.42316187000000005,-1.90471784,0.81889837,3.81503119,-5.90223528,-2.5932756899999996
386,1778415294100,0.21600853333333334,-2.03229,0.8046201000000001,3.8794484777777773,-6.335970844444444,-3.1555945222222217
387,1778415294110,-0.23541312999999997,-2.1972470299999998,0.78550315,3.6232863600000003,-6.8956561800000005,-3.89022668
388,1778415294120,-0.6775801888888888,-2.1608001666666667,0.6544148955555555,3.3283285888888887,-7.0972305111111105,-4.059385611111111
389,1778415294130,-0.9310878499999999,-2.04592725,0.5242104559999999,2.1094846499999997,-7.719582300000001,-4.02819405
390,1778415294140,-1.1082726666666667,-1.8629135333333333,0.35812387333333334,1.2896937066666667,-8.109744222222222,-3.8666207111111115
391,1778415294150,-1.3031281777777777,-1.6526845444444445,0.3130501044444445,-0.8206732533333333,-9.119339,-3.3904314
392,1778415294160,-1.44916988,-1.4349923,0.37835744800000004,-2.5392156,-9.80658,-3.01750915
393,1778415294170,-1.5120394,-1.3266323,0.42804328,-3.3797414,-10.078445,-2.844334
394,1778415294180,-1.56928054,-0.99937538,0.6277744120000001,-3.7634985799999994,-10.142034200000001,-2.79833716
395,1778415294190,-1.8265190888888891,0.5804775644444445,1.9823648999999999,-6.471281888888889,-9.530277444444444,-3.102111433333333
396,1778415294200,-2.2480732,2.1459026000000003,3.8548437,-8.5868786,-6.763499200000001,-4.3553716399999995
397,1778415294210,-2.593535466666667,2.9734357333333334,5.108546644444445,-8.530490644444445,-5.056771822222222,-5.049976222222223
398,1778415294220,-3.06802032,3.62917516,6.133858,-6.35762184,-2.58932048,-5.9436048
399,1778415294230,-3.958652444444444,3.906427,6.7887768444444445,-2.8560504,-1.0356321555555554,-6.303231144444444
400,1778415294240,-4.2809328,3.491905,5.54171358,1.8472784400000002,0.010124798,-5.5400792800000005
401,1778415294250,-3.9361443333333335,2.8411922,3.2036829,5.012494,0.8318551955555555,-4.273869444444444
402,1778415294260,-3.4513781999999997,2.31664736,1.533290728,5.40117268,0.98963366,-3.4456521600000003
403,1778415294270,-2.7777433333333335,1.8049833666666666,-0.21225832,5.266419588888889,1.0664375222222224,-2.3420139
404,1778415294280,-2.15228101,1.68751615,-1.20679907,3.70859108,0.8983272,-1.16958924
405,1778415294290,-1.1197706066666668,1.6127466,-2.0480463333333336,1.36236756,0.4866670866666667,-0.6891884266666667
406,1778415294300,-0.8088547911111111,1.5625878444444443,-2.1012235666666665,0.11585735333333336,0.33633080111111113,-0.6224703311111112
407,1778415294310,-0.627646412,1.40308186,-1.5836411400000001,-1.3599140200000002,0.31640359399999995,-0.67623846
408,1778415294320,-0.6023657844444444,1.2526068555555556,-0.9261176999999999,-1.9525987333333334,0.3889315533333333,-0.6494833333333334
409,1778415294330,-0.533903135,1.08454495,-0.077123405,-2.44545065,0.5524349799999999,-0.49341187500000006
410,1778415294340,-0.3652855522222222,1.0541502999999999,0.26744784777777775,-1.8159725,0.766333311111111,-0.3111418344444445
411,1778415294350,-0.0243398351,1.05736356,0.492562276,-0.65884458,1.0201759799999999,-0.16703618199999998
412,1778415294360,0.25202690566666663,1.0742192,0.5107919999999999,0.06836398666666665,1.0723422999999999,-0.21252393666666666
413,1778415294370,0.4358791,1.0685440199999998,0.45159954100000005,0.851185092,1.04925234,-0.28260847599999994
414,1778415294380,0.3805608266666667,1.0404570333333334,0.3211467966666667,1.5338289666666667,0.7908351277777778,-0.25589409444444444
415,1778415294390,0.27439407,1.0215596200000001,0.20316125000000002,2.10661359,0.04732539099999998,0.08432746199999999
416,1778415294400,0.33677778999999997,1.0338611666666668,0.0021850860000000027,2.4358807000000002,-1.4179546155555556,0.854354708888889
417,1778415294410,0.5774422080000001,1.02373046,-0.14350228240000001,2.52486085,-2.46610485,1.3416115000000002
418,1778415294420,0.9516239333333334,1.0892708111111111,-0.18161968222222222,2.5264898000000002,-3.4230352666666666,1.7037803
419,1778415294430,1.36919576,1.20628376,-0.1220742,2.4522921799999997,-3.96045874,1.74505311
420,1778415294440,1.563699,1.2192683333333332,0.06449563333333333,2.4611290333333335,-3.8907407333333333,1.3700285533333334
421,1778415294450,1.5137367333333334,1.1113961333333335,0.40193402666666667,2.9962312333333334,-3.3039201333333335,0.5538857533333333
422,1778415294460,1.3810928199999999,1.02294383,0.468417572,3.46367185,-2.9776665600000003,0.19831156300000002
423,1778415294470,1.3018307444444446,0.9869444511111111,0.4550333166666667,4.098072222222222,-2.596694677777778,-0.17661969444444445
424,1778415294480,1.0109279,0.9766728600000001,0.25196591500000004,4.5831260799999995,-2.21832242,-0.5528473180000001
425,1778415294490,0.8039967555555556,0.9575931911111112,0.07080019944444445,4.761520255555555,-1.9475252555555553,-0.7335766666666667
426,1778415294500,0.58395175,0.9476955300000001,-0.006524772199999999,4.81084988,-1.51332828,-0.7951093360000001
427,1778415294510,0.4257396155555556,0.9822693444444445,-0.05560284188888889,4.788194411111111,-1.2527544333333334,-0.7844805944444445
428,1778415294520,0.068412528,1.19357574,-0.145173116,4.540977419999999,-0.77933422,-0.61271033
429,1778415294530,-0.15544606555555557,1.4682699333333333,-0.12390289888888889,4.265334277777778,-0.4693767388888889,-0.36598234444444444
430,1778415294540,-0.390675219,1.9223803400000001,0.030541416,3.98319748,-0.263168265,-0.1121210158
431,1778415294550,-0.5566686666666667,2.4446953333333337,0.3736295166666667,3.4703845222222225,0.016178967555555555,0.4366030695555556
432,1778415294560,-0.6092767566666667,2.710083488888889,0.6234543877777778,3.394096511111111,0.0782139,0.5925727222222222
433,1778415294570,-0.773008509,3.11819416,1.3893493700000001,3.5019110500000004,0.20028154999999997,0.7212578799999999
434,1778415294580,-1.0275938555555557,3.140020622222222,1.7531205777777776,3.894889522222223,0.4206956144444444,0.7675465466666667
435,1778415294590,-1.44408733,2.97824403,2.0986956,4.56846556,0.7864353040000001,0.950325672
436,1778415294600,-1.5902147,2.842249333333333,2.063728133333333,5.2168052,1.1241964777777778,1.2956919444444444
437,1778415294610,-1.6863726499999998,2.51737257,1.6119996300000001,5.9464147,1.65350247,1.87992827
438,1778415294620,-1.5405776666666666,2.229286566666667,1.2029767666666666,5.902922233333332,2.103045333333333,2.1325950333333332
439,1778415294630,-1.43876074,2.0276365400000005,0.9980948599999999,5.5446605,2.59060325,2.23745715
440,1778415294640,-1.3264458888888888,1.748818088888889,0.8280462888888889,4.846360333333333,3.192389688888889,2.254560911111111
441,1778415294650,-1.2621255200000001,1.32386384,0.823169998,3.9060703400000003,3.7079575599999997,2.24716968
442,1778415294660,-1.1895680444444445,0.9742371111111111,0.8270401555555557,3.3064058666666667,3.9435367444444447,2.314423888888889
443,1778415294670,-1.1064792,0.78148464,0.7770880200000001,2.77011595,4.01181585,2.421933
444,1778415294680,-1.0336172333333333,0.6419175333333333,0.7264448,2.3682803333333333,3.94279,2.5011396
445,1778415294690,-0.8768803999999999,0.416926764,0.6400739440000001,1.8101314000000002,3.7405995000000005,2.56762015
446,1778415294700,-0.6442855333333334,0.17767296666666665,0.5388525933333334,1.0218965666666666,3.492748333333333,2.5290348333333332
447,1778415294710,-0.45152023,0.03661799,0.44342527,0.347480462,3.3516577999999995,2.3356814
448,1778415294720,-0.34255046,-0.0248795,0.38386387,0.06429167,3.304989,2.226462
449,1778415294730,-0.268973,-0.075251345,0.347184901,-0.43061677600000003,3.22625094,1.8399788099999999
450,1778415294740,-0.063448822,-0.24502445000000003,0.26225107999999997,-1.1810732000000002,3.1679558,1.1448040666666666
451,1778415294750,-0.051839066222222216,-0.3424996488888889,0.2859347011111111,-1.6165648666666668,3.208610966666667,0.6577976333333333
452,1778415294760,-0.127501344,-0.46966462800000003,0.34299866,-2.13532342,3.25612137,0.03747547979999999
453,1778415294770,-0.19213858555555557,-0.5638032333333334,0.37229136333333335,-2.385960888888889,3.2053532,-0.2606451344444445
454,1778415294780,-0.259429775,-0.668792055,0.386312171,-2.60964645,3.04311891,-0.506484004
455,1778415294790,-0.32872853,-0.8355772444444445,0.40010125555555554,-2.8003189777777777,2.5668819444444444,-0.6701842777777778
456,1778415294800,-0.289699828,-0.910345824,0.40818844800000004,-2.90480785,1.7461068000000002,-0.787534825
457,1778415294810,-0.2278283388888889,-0.9740913977777778,0.4790726511111111,-2.861743,0.7037469333333334,-0.9756757166666667
458,1778415294820,-0.217360254,-1.04359136,0.5536786520000001,-2.73578628,0.11909993600000002,-1.1501337
459,1778415294830,-0.21947419666666665,-1.1063450333333331,0.6038462066666667,-2.4824069333333334,-0.5686733733333333,-1.4267101333333334
460,1778415294840,-0.221897084,-1.1861393100000002,0.612935121,-1.9800461200000001,-1.40288708,-1.95970492
461,1778415294850,-0.2463253433333333,-1.2634375333333334,0.5987951100000001,-1.6207050666666667,-1.8036537333333333,-2.3855875999999996
462,1778415294860,-0.258832168,-1.30877759,0.597876378,-1.5331503,-1.8775917,-2.4955401
463,1778415294870,-0.22688314000000004,-1.3946341999999998,0.5699214966666667,-1.4215518999999999,-1.8197478555555557,-2.7367568777777778
464,1778415294880,-0.13609533666666668,-1.5265016666666666,0.46767974000000007,-1.0228128555555556,-1.5647615555555556,-3.6771222222222217
465,1778415294890,-0.015153322,-1.6008373800000002,0.317884402,-1.0190459,-1.25750545,-4.3513322
466,1778415294900,0.08527937,-1.7208695,0.17311647,-1.1609067,-1.0601339111111112,-5.2304475
467,1778415294910,0.12781843799999998,-1.86857258,0.0627475624,-1.34384868,-1.00278212,-5.911596520000001
468,1778415294920,0.08672253666666667,-1.9742616333333334,0.026830834,-1.8330762999999999,-1.0217184000000001,-7.050958966666666
469,1778415294930,-0.002012316,-2.05071722,0.0565093964,-2.24594806,-1.000827428,-7.7822704
470,1778415294940,-0.1485926888888889,-2.113741188888889,0.1482640666666667,-2.6110921111111107,-0.8977842666666667,-8.362202
471,1778415294950,-0.569234444,-2.25568648,0.45377036000000004,-2.96674763,-0.7551446399999999,-8.9175376
472,1778415294960,-1.1447111866666666,-2.3589215111111113,0.9209853888888888,-3.6352792444444444,-0.3501257722222222,-10.312238222222224
473,1778415294970,-1.5498100399999999,-2.3629489,1.1626289,-3.70978224,-0.351191373,-10.8567409
474,1778415294980,-2.1653703333333336,-2.3265212777777777,1.4248460555555558,-3.6301888666666664,-0.49109576000000005,-11.112380666666667
475,1778415294990,-3.0224812,-2.2299594,1.73569884,-3.34803854,-0.9715678499999999,-11.3515275
476,1778415295000,-3.847968333333333,-2.079613333333333,2.0001980666666666,-2.8886202666666665,-1.7812306333333332,-11.409659666666666
477,1778415295010,-5.2027118,-1.7587063,2.3738276000000003,-2.36280292,-2.2072049999999996,-11.4736358
478,1778415295020,-6.358145133333334,-1.3131355666666669,2.538979533333334,-2.0831163333333333,-1.4678659333333333,-11.102403666666667
479,1778415295030,-6.82467874,-1.00830277,2.46172908,-1.8860977599999997,-0.623812448,-10.475389199999999
480,1778415295040,-7.12722488888889,-0.5477284533333333,2.109265966666667,-1.5763168333333333,0.3737282211111111,-9.369667222222223
481,1778415295050,-7.0346990555555555,-0.2921003833333333,1.9429791777777778,-0.9778392,0.9880199866666667,-7.572240799999999
482,1778415295060,-6.2310495,0.06332686000000001,1.6792748,-0.594262741,1.20300258,-6.54332714
483,1778415295070,-4.657097555555556,0.48657648,1.055051377777778,0.14057971,1.3434906666666666,-4.825727277777777
484,1778415295080,-4.1022210999999995,0.56411825,0.8611020500000001,0.335752194,1.34636848,-4.3736969000000006
485,1778415295090,-3.5103912,0.6229461999999999,0.6818012888888888,0.4902558266666667,1.3921549000000002,-3.962998777777778
486,1778415295100,-2.8459465,0.648617104,0.5184571,0.508621982,1.6324892800000002,-3.71393608
487,1778415295110,-2.445559377777778,0.6737757444444444,0.42862935,0.4948032777777778,1.9643830111111111,-3.5739569777777778
488,1778415295120,-2.09286605,0.71554478,0.349837475,0.5479605399999999,2.1265426599999997,-3.46715376
489,1778415295130,-1.9774325,0.73629296,0.30480435,0.6183301,2.1364384,-3.4063134
490,1778415295140,-1.7335951299999999,0.7821340560000001,0.24334650499999996,0.9243646200000001,2.00681648,-3.1452372
491,1778415295150,-1.5828566666666666,0.8452627222222222,0.14117693333333334,1.0877323444444444,1.9677087333333334,-2.9248978222222224
492,1778415295160,-1.38019035,0.9910182280000001,0.017549804,1.15770824,1.9755411799999998,-2.6886900799999998
493,1778415295170,-1.3182477,1.0396339,-0.01539724,1.191101188888889,1.9734778777777775,-2.535991888888889
494,1778415295180,-1.1959845,1.1645802,-0.06296099,1.2920947,1.8963753,-2.180343
495,1778415295190,-1.14758835,1.24981077,-0.068019212,1.37614728,1.7843459400000001,-1.86648964
496,1778415295200,-1.0190635333333333,1.4744559333333334,-0.06409926999999999,1.4832898333333333,1.6817643333333332,-1.4016908666666668
497,1778415295210,-0.9288834510000001,1.6472515699999999,-0.02264461469,1.5630435500000002,1.7311410999999999,-0.95948838
498,1778415295220,-0.8490434433333334,1.7869131999999999,0.03473779843333333,1.6770726666666667,1.8390914444444444,-0.5881950155555555
499,1778415295230,-0.794049388,1.8671058299999999,0.0458654813,1.85286774,1.9453652900000002,-0.227021382
500,1778415295240,-0.78428356,1.8986879666666665,0.022430171333333335,1.9153709777777779,1.9789075666666665,-0.06978929555555555
501,1778415295250,-0.8064968666666666,1.9481692555555559,-0.034585351,1.9111628999999999,2.0635437666666667,0.30689983666666665
502,1778415295260,-0.90269896,1.9611509999999999,-0.0705407028,1.6647496499999999,2.1953849500000002,0.65620266
503,1778415295270,-1.0193887333333334,1.9195021999999997,-0.09982289333333333,1.2287023222222222,2.3004847777777773,1.1915848555555555
504,1778415295280,-1.0884720399999999,1.84161348,-0.096603196,0.83640263,2.14327984,1.69490266
505,1778415295290,-1.1583534444444443,1.7420595888888888,-0.034121233333333334,0.5502545922222222,1.8379376,2.119292188888889
506,1778415295300,-1.252298588888889,1.6002593333333333,0.10875295666666668,0.2626134166666667,1.2527458999999999,2.8464718666666666
507,1778415295310,-1.28552925,1.49613298,0.21087205300000003,0.12647592700000002,0.7438363,3.3243375800000003
508,1778415295320,-1.3092363111111112,1.4145608444444444,0.28390544000000006,0.10318228333333333,0.4563283266666666,3.5542401333333333
509,1778415295330,-1.34860619,1.33938612,0.344449956,0.13753225900000002,0.136081495,3.81375612
510,1778415295340,-1.6222627222222223,1.170153,0.4321898333333334,0.28949070666666665,-0.2895161466666667,3.988221733333334
511,1778415295350,-1.9848048600000001,1.08984713,0.42094527500000006,0.428600986,-0.5735397600000001,3.9791202400000003
512,1778415295360,-2.6762131,1.00897144,0.37013338333333334,0.49785749777777777,-0.8117226888888889,4.0624059
513,1778415295370,-3.5195499999999997,0.85062888,0.33299198999999996,0.53189525,-1.01835875,4.4097063499999996
514,1778415295380,-4.115646888888889,0.6891154177777777,0.3390475522222222,0.5328115,-1.0797489,4.68642
515,1778415295390,-4.5215689999999995,0.302474972,0.588540438,0.68747806,-0.76601776,5.99974172
516,1778415295400,-4.430505855555555,0.04043257888888889,0.7308556733333333,0.8513344111111112,-0.26304611666666666,6.586197444444444
517,1778415295410,-4.02928378,-0.31003030200000004,0.716169848,0.9698116200000001,0.520594556,6.96471244
518,1778415295420,-3.922352777777778,-0.4869999666666667,0.6946611111111111,0.9707889888888889,0.9868237333333334,6.975680555555556
519,1778415295430,-3.8751651666666667,-0.6886919333333332,0.6915748555555555,0.9434366111111111,1.1755755555555556,6.8622665000000005
520,1778415295440,-3.9028131000000004,-1.14007872,0.7320366039999999,0.8934557399999999,1.27160072,6.5604230999999995
521,1778415295450,-3.8857043333333334,-1.3428493444444445,0.7146351822222222,0.8125795533333333,1.3494634,6.410842
522,1778415295460,-3.72900432,-1.5248572599999999,0.6772651080000001,0.455844772,1.6726830200000002,6.3456036
523,1778415295470,-3.458633466666667,-1.586284988888889,0.6358602555555556,0.27259058,1.8395665,6.338762
524,1778415295480,-2.93306744,-1.5700489000000002,0.557733756,-0.1261705068,2.13423926,6.2380944
525,1778415295490,-2.6096407333333334,-1.5464147,0.5347500511111112,-0.4862853244444445,2.3121587888888886,6.068563800000001
526,1778415295500,-2.3044485000000003,-1.50894475,0.5552001,-0.722785,2.3151111500000003,5.7401316
527,1778415295510,-1.8751263,-1.428738511111111,0.5274935377777777,-0.8832681755555556,2.3836278444444448,5.2292597999999995
528,1778415295520,-1.66689602,-1.37386974,0.471256158,-0.942751132,2.42805682,4.9455414
529,1778415295530,-1.4236908333333333,-1.3123326666666666,0.4165893333333333,-1.0328578888888889,2.4489206,4.602666
530,1778415295540,-1.26565316,-1.27612934,0.39604139000000005,-1.1299987100000002,2.4658681600000003,4.27324293
531,1778415295550,-1.1384607555555555,-1.251394088888889,0.40896357333333333,-1.2505994555555555,2.513738288888889,3.8834613666666673
532,1778415295560,-1.0216957655555554,-1.244212122222222,0.4862513111111111,-1.2996029666666666,2.6326499666666665,3.525937566666667
533,1778415295570,-0.926084508,-1.2230165400000002,0.544275666,-1.2466629,2.6895605,3.3027748000000003
534,1778415295580,-0.8159859555555555,-1.1806143,0.5989712344444444,-1.1418517311111112,2.696381566666667,3.135131244444444
535,1778415295590,-0.7393724,-1.1448228,0.63232344,-0.946294061,2.65907917,2.92478258
536,1778415295600,-0.51388159,-1.0802256,0.6132877999999999,-0.6379790666666667,2.5131952777777777,2.6662719666666663
537,1778415295610,-0.366118935,-1.01963268,0.5807046,-0.04749337499999999,2.0985657499999997,2.3070937500000004
538,1778415295620,-0.26829818,-1.01125812,0.5673298333333333,0.45217968333333336,1.7917168888888888,2.084948977777778
539,1778415295630,-0.20016412,-1.03134065,0.54495555,0.8434273150000001,1.6508147999999998,1.9213437000000002
540,1778415295640,-0.11019613111111111,-1.056450522222222,0.5092607133333333,1.191779888888889,1.5967887111111112,1.7360194444444446
541,1778415295650,0.013628845000000004,-1.08856955,0.45988963499999996,1.48668765,1.6184398000000002,1.5029133
542,1778415295660,0.19873112,-1.1364383,0.3562098266666667,1.6751722,1.6504075333333335,1.2087395
543,1778415295670,0.289858378,-1.21222926,0.270588966,1.7298430500000002,1.5671286500000001,0.9872819500000001
544,1778415295680,0.30874429000000003,-1.2756638111111112,0.21784469,1.7246508777777778,1.4015889888888888,0.8145818222222222
545,1778415295690,0.336620235,-1.37032385,0.09858807,1.59622024,0.9904583,0.62547702
546,1778415295700,0.39407785666666667,-1.3804057666666667,0.03243752933333333,1.4439241999999999,0.7065721066666667,0.5111942966666667
547,1778415295710,0.5613843533333334,-1.3455053000000001,-0.047909301,1.0596333555555555,0.2470792377777778,0.23889217555555556
548,1778415295720,0.86678838,-1.2610308799999999,-0.154143136,0.40331192,-0.2068481325,-0.27930991499999996
549,1778415295730,1.0969034333333332,-1.1940432,-0.18661658,-0.4669418333333333,-0.7433756333333332,-1.0430726000000001
550,1778415295740,1.10065266,-1.20610995,-0.1089240419,-0.8607906759999999,-0.9404757,-1.42771802
551,1778415295750,0.989668211111111,-1.2474643555555556,0.15370815833333332,-1.872849188888889,-1.3403771,-2.541693033333333
552,1778415295760,0.643250912,-1.20882054,0.6470560439999999,-2.35168565,-1.3830346,-3.5666989
553,1778415295770,0.08347030666666666,-1.1331861,1.0808659,-2.402589611111111,-1.250582488888889,-4.669757433333333
554,1778415295780,-0.44876400000000005,-1.00927539,1.1894200000000001,-1.9995322199999996,-1.47541751,-5.275460130000001
555,1778415295790,-1.5101592666666668,-0.71563118,1.1726395333333335,-1.0994232666666666,-2.6040927,-5.871362266666667
556,1778415295800,-2.55533205,-0.42537543000000005,1.1028387,-0.197150975,-4.4523512,-5.9093365
557,1778415295810,-3.5960871222222224,-0.071664069,1.2015369444444444,0.5633538833333334,-5.896635766666667,-5.562069666666667
558,1778415295820,-4.11749919,0.3954316471,1.2262483899999999,1.06119443,-6.030940719999999,-4.98659048
559,1778415295830,-4.158555333333333,1.0443495866666668,1.1582282,1.3246732333333333,-5.085023533333333,-4.677359466666667
560,1778415295840,-3.8854603333333335,1.4539466666666667,1.0199477333333333,1.4207798333333335,-3.920901333333333,-4.718489666666667
561,1778415295850,-3.5777544999999997,1.5905806500000002,0.8603855499999999,1.4790139,-2.8726618999999998,-4.9393107999999994
562,1778415295860,-3.236469366666667,1.5901233333333333,0.6506172666666666,1.5984430222222223,-1.5890936333333334,-5.228818377777778
563,1778415295870,-3.15353152,1.45920108,0.40569442,1.7716861000000002,-0.84701605,-5.258784
564,1778415295880,-3.0787365666666666,1.3642971,0.042949663333333325,2.0007538222222223,-0.6387850222222222,-4.810931222222222
565,1778415295890,-2.79659309,1.3069969399999999,-0.34023327000000003,2.04216924,-0.9277701200000001,-4.008204
566,1778415295900,-2.582254333333333,1.2937745999999999,-0.5021736,1.9156424000000003,-1.1267841333333335,-3.5890923777777775
567,1778415295910,-2.0966467,1.2650128,-0.72397515,1.3944497500000002,-1.34699455,-3.00895725
568,1778415295920,-1.6789869222222222,1.2121811,-0.8182828466666666,0.7191199466666667,-1.4391306666666666,-2.5148836
569,1778415295930,-1.37743106,1.18870961,-0.7182400550000001,0.4730706586,-1.42597708,-2.35345696
570,1778415295940,-1.1941652555555555,1.1852351777777779,-0.6404912788888889,0.03761801044444444,-1.381575311111111,-2.0328571111111113
571,1778415295950,-0.8525253239999999,1.20134448,-0.49838885800000005,-0.1062568845,-1.2746091499999999,-1.8732700000000002
572,1778415295960,-0.6347626333333333,1.2272260666666668,-0.46254731666666665,-0.05685969966666667,-1.1369649,-1.8741048000000002
573,1778415295970,-0.33539556666666664,1.3188371333333333,-0.4010599833333333,0.11282009466666668,-0.9323310333333333,-2.0133780333333333
574,1778415295980,-0.25958831,1.36568945,-0.33617814999999995,0.388529396,-0.621491264,-2.2078311
575,1778415295990,-0.2914804266666667,1.4107530000000001,-0.3205979666666667,0.6331262011111112,-0.2880908511111111,-2.293892611111111
576,1778415296000,-0.36077104800000004,1.4376753199999999,-0.347922732,0.788145654,0.0068262199999999966,-2.28797414
577,1778415296010,-0.48103753555555556,1.4718134888888887,-0.38752599666666665,0.8789583200000001,0.31481539999999997,-2.1764742333333333
578,1778415296020,-0.5755030769999999,1.58034219,-0.47072258600000005,0.8477643839999999,0.624392804,-1.70029342
579,1778415296030,-0.5774930166666666,1.7132097,-0.42570573,0.7545490733333333,0.9059543722222223,-1.0990669555555554
580,1778415296040,-0.543025585,1.7969494000000001,-0.356261644,0.608678764,1.12719646,-0.479179112
581,1778415296050,-0.5080885922222222,1.823900466666667,-0.3293078388888888,0.4591026333333333,1.2313662666666667,-0.013794956666666672
582,1778415296060,-0.46253310000000003,1.8557850999999999,-0.281449356,0.11926792359999998,1.2421579,0.709773988
583,1778415296070,-0.33367464,1.907103088888889,-0.2137726411111111,-0.4076896446666667,1.0951473666666667,1.3960914
584,1778415296080,-0.24630706,1.9561263199999999,-0.12281814499999999,-0.891417065,0.9211195,1.88652545
585,1778415296090,-0.23593179111111107,1.981646822222222,-0.044237,-1.2649883555555554,0.7003957488888889,2.2570722
586,1778415296100,-0.297746046,2.01345291,0.18013246,-1.61121652,0.1551399316,2.8266803200000004
587,1778415296110,-0.4082860466666667,2.0098021999999998,0.42699644999999997,-1.459169811111111,-0.2831361811111111,3.178976422222222
588,1778415296120,-0.804095756,1.96560244,0.67077086,-0.703451684,-0.8184284399999999,3.6351978600000003
589,1778415296130,-1.2834285533333334,1.9073877333333331,0.6972358000000001,0.13372464888888888,-1.0299308999999999,3.960088688888889
590,1778415296140,-1.5439383111111111,1.9015303222222224,0.6106521444444444,0.5851407688888889,-1.0185283933333331,4.111205466666666
591,1778415296150,-2.07783462,1.94251568,0.259899308,1.2662558499999998,-0.68001042,4.32553151
592,1778415296160,-2.3963796,1.9381313,0.116246619,1.3743554999999998,-0.3033620103333333,4.31869
593,1778415296170,-3.0767129200000003,1.7454371899999999,-0.1075581109,1.1861127,0.5191819745,4.34862165
594,1778415296180,-3.578948566666667,1.5389278444444443,-0.27391503,0.7364272722222223,1.1015951444444445,4.602733977777778
595,1778415296190,-3.84917576,1.36378074,-0.365405456,0.52303797,1.1645803,4.7615542
596,1778415296200,-4.016365711111111,1.0440005444444447,-0.36135915555555553,-0.10328409044444445,0.7344759555555556,5.209237688888889
597,1778415296210,-3.86958558,0.7860763000000001,-0.194663786,-0.659317988,0.152696538,5.5664067
598,1778415296220,-3.4383814666666668,0.5289332999999999,0.247941295,-1.1464585233333333,-0.72443941,5.5556556666666665
599,1778415296230,-3.2175840399999998,0.366454318,0.74731798,-1.2194191,-1.21303578,5.280530199999999
600,1778415296240,-3.125162122222222,0.1649689711111111,1.4034423111111112,-0.9275545777777778,-1.1477565777777778,4.9575685555555555
601,1778415296250,-3.0932172000000002,0.10293282799999999,1.55672802,-0.6467956273,-0.9065737199999999,4.79063077
602,1778415296260,-2.8660209777777776,-0.10785520888888889,1.8014770666666666,0.19650617733333334,0.02738632222222221,4.518369366666666
603,1778415296270,-2.273276311111111,-0.3214178088888889,1.5852043111111112,1.7148519000000002,1.5176500333333331,3.870684633333333
604,1778415296280,-1.85047988,-0.466423568,1.2367246,2.23623545,2.08818135,3.4854180999999995
605,1778415296290,-1.5201767222222222,-0.6175970444444444,0.8916950055555556,2.663658866666667,2.7257023444444446,2.9396599888888892
606,1778415296300,-1.2464629400000002,-0.80825751,0.549809529,2.7268068800000003,3.0343838599999997,2.53970438
607,1778415296310,-1.1368448,-0.9023188833333333,0.4124326033333333,2.561715233333333,3.1630689666666667,2.1812592333333334
608,1778415296320,-0.94047566,-1.0227914200000001,0.22378744,1.87284246,2.9430010600000003,1.8113300600000002
609,1778415296330,-0.8372947888888889,-1.0621453,0.20694974777777778,1.475925788888889,2.734865,1.7316755666666668
610,1778415296340,-0.77150842,-1.0773087333333333,0.2577081333333333,1.0648595222222221,2.5198467777777775,1.7189156555555556
611,1778415296350,-0.6721794640000001,-1.07932512,0.308219207,0.760962978,2.3578094,1.75610949
612,1778415296360,-0.59905934,-1.0745444,0.30309695,0.60061556,2.24578,1.7945929000000003
613,1778415296370,-0.43740359,-1.06081798,0.254429478,0.42908967200000003,1.59266204,1.8871973
614,1778415296380,-0.36089504,-1.0688530333333335,0.26187164,0.3538333,1.0283613,1.9418069999999998
615,1778415296390,-0.30424334599999997,-1.07108074,0.21894570600000002,0.360552598,0.09700254,1.935943
616,1778415296400,-0.34676819666666664,-1.0853037555555556,0.18056270444444444,0.36299598,-0.5719312111111111,1.967394833333333
617,1778415296410,-0.39659630999999995,-1.11577848,0.170589224,0.367149748,-0.980547284,2.03086866
618,1778415296420,-0.4603520433333333,-1.1708508,0.19938156,0.39333474,-1.3943351666666668,2.1617121666666663
619,1778415296430,-0.5351938566666666,-1.258051,0.28609394,0.4668400088888889,-1.8381242555555555,2.384942777777778
620,1778415296440,-0.489376112,-1.29256932,0.31953694400000004,0.54716642,-1.8980552,2.5480729
621,1778415296450,-0.3803846422222222,-1.3126748,0.3194393677777778,0.6155473877777777,-1.8599026444444446,2.681678811111111
622,1778415296460,-0.2004812072,-1.31692436,0.249252346,0.60012691,-1.7748930399999998,2.67812234
623,1778415296470,0.1675165497777778,-1.2876699777777776,0.053183999999999995,0.4434242133333333,-1.7569748333333333,2.4866828333333335
624,1778415296480,0.690814681,-1.15340573,-0.24302943780000003,-0.106134704,-2.3377201199999997,1.78536908
625,1778415296490,0.9941704866666667,-1.0492143777777778,-0.3380888355555556,-0.5019128222222222,-2.7697003,1.284314822222222
626,1778415296500,1.1086378600000002,-0.9989851599999999,-0.300859016,-1.30622049,-3.5781294600000004,0.249256236
627,1778415296510,1.0449864022222224,-0.9866463466666667,-0.10943728577777777,-1.8823511999999998,-3.966282233333333,-0.6167012199999999
628,1778415296520,0.8657212033333334,-0.9742336766666667,0.309764019,-2.6365440666666666,-3.9650605,-2.0844145
629,1778415296530,0.653147876,-0.92172452,0.7166150099999999,-3.01824212,-3.27325552,-3.47147572
630,1778415296540,0.2948275275555555,-0.8278125111111111,1.10384495,-3.118502511111111,-2.526990266666667,-4.812763844444444
631,1778415296550,-0.1008656392,-0.7469734100000001,1.40212761,-2.92722592,-2.0175827600000003,-5.8951188199999995
632,1778415296560,-1.2130789222222222,-0.7776977944444444,1.899873688888889,-2.0495198,-1.8579938,-7.019220533333333
633,1778415296570,-2.15083276,-0.8428722790000001,1.92695696,-1.3926554,-2.0901666,-7.311612600000001
634,1778415296580,-2.4301417,-0.8480677,1.9135568,0.5262873555555556,-3.4856131777777777,-7.108539711111111
635,1778415296590,-2.95019339,-0.034822147,1.41965906,2.4526586200000002,-5.1239548,-6.63227394
636,1778415296600,-2.8597297333333334,0.14008947333333335,1.2353566666666667,2.5638870444444444,-5.029419277777778,-6.7044388999999995
637,1778415296610,-2.5000035333333335,0.37787773333333335,0.9138744999999999,2.2463822666666666,-4.087161777777777,-7.141457666666668
638,1778415296620,-2.0843015200000004,0.5221341319999999,0.611334502,1.33146381,-2.1146768,-8.3368584
639,1778415296630,-2.345621322222222,0.3565790822222222,0.6796636488888889,0.5921994666666666,-0.60539204,-9.526315777777777
640,1778415296640,-3.2367559999999997,0.024111167999999995,0.8759169200000001,0.296413636,0.12032164079999999,-10.1435772
641,1778415296650,-4.126799144444444,-0.19128826888888892,0.8824023777777777,0.5588743166666666,-0.06411351,-9.633875333333332
642,1778415296660,-4.7342275,-0.230190268,0.698943184,0.802805996,-0.479408202,-8.762007919999999
643,1778415296670,-5.1456932,-0.08871791222222221,0.43729514999999997,1.0527782777777779,-1.146738461111111,-7.334519388888888
644,1778415296680,-4.644898960000001,0.32060406919999995,0.449105492,1.20022326,-2.01695662,-5.3143102
645,1778415296690,-3.8082709333333336,0.6298741566666667,0.5844040433333333,1.4945396333333334,-2.498416166666667,-3.909066133333334
646,1778415296700,-2.8733079200000002,0.829941722,0.8037115399999999,1.9669129399999998,-2.5492793199999997,-3.6501635200000004
647,1778415296710,-2.6014628,0.88002086,0.8746547,2.492486,-2.5305874,-3.6494304999999994
648,1778415296720,-2.25325952,0.8955522439999999,0.9002842400000001,3.3830477500000002,-2.19204823,-4.100220500000001
649,1778415296730,-1.7520568888888888,0.5610828766666667,0.43281319555555553,6.081018333333333,0.011903031111111117,-5.698764022222222
650,1778415296740,-1.6148503,0.37354823111111113,-0.019476070000000012,6.802352844444445,1.1875040244444444,-5.948193322222222
651,1778415296750,-1.42824795,0.290559648,-0.534979375,7.07729176,1.71031121,-5.91959881
652,1778415296760,-1.0530357822222223,0.3657970888888889,-1.309981588888889,7.363127333333334,2.3416829333333333,-5.610937533333333
653,1778415296770,-0.800784556,0.5582277,-1.70839236,7.316866,2.5022136799999997,-5.03625252
654,1778415296780,-0.47846625555555555,0.9003574444444445,-2.116871377777778,6.9160891555555555,2.433853111111111,-4.188715488888889
655,1778415296790,-0.13889529,1.24999675,-2.44986845,6.4363755,2.2617841899999998,-3.51082929
656,1778415296800,0.15817657444444444,1.5342359111111112,-2.590154511111111,4.8791424,1.4476062333333335,-1.6920468666666668
657,1778415296810,0.24388617699999998,1.6451875400000002,-2.51010076,4.19790252,0.95870192,-1.121423885
658,1778415296820,0.2596594466666666,1.8039061333333335,-2.330075,3.3785536888888887,0.3353805982222222,-0.5886701277777777
659,1778415296830,0.192236826,2.00216548,-2.0823653799999997,2.5648101199999997,-0.1147323916,-0.1201231156
660,1778415296840,-0.15297640333333334,2.1115966555555556,-1.6865347444444445,1.9537185333333333,-0.026037366666666666,0.38793891799999997
661,1778415296850,-0.34720929300000003,2.10411961,-1.50850573,1.72659026,0.139624412,0.673123152
662,1778415296860,-0.7052240733333333,2.0197316,-1.2391068333333333,1.5000541666666667,0.5476330466666667,1.20398
663,1778415296870,-1.1311635777777778,1.9468412777777777,-1.0061596722222221,1.3246052888888888,0.9636794555555556,1.7971720000000002
664,1778415296880,-1.6056486800000003,1.93627152,-0.81219982,1.15416536,1.0301939,2.356328
665,1778415296890,-1.9134586444444446,1.9444054333333334,-0.6979268888888889,1.12289,1.0265288,2.457973
666,1778415296900,-2.84286092,2.03788124,-0.42600654000000004,1.02845304,0.48597480800000004,3.1349138400000003
667,1778415296910,-3.495491755555556,2.1363306444444445,-0.238879097,0.8799764,0.14520347955555557,3.632649288888889
668,1778415296920,-4.0768538,2.31718396,0.20094463619999997,0.5059342499999999,0.156605969,4.18033315
669,1778415296930,-4.5256267333333335,2.2923662111111107,1.1836768666666666,0.20974118888888887,0.8224634333333334,4.763726277777778
670,1778415296940,-4.56540062,2.01705072,1.97999352,0.1929361,1.9264290600000002,5.4965258
671,1778415296950,-4.161746933333333,1.6514175333333332,2.3799559,0.5698695666666667,2.3190816333333335,5.815876599999999
672,1778415296960,-3.9304580099999997,1.4903491899999999,2.49502367,0.899258785,2.28695105,5.80341528
673,1778415296970,-3.4074954777777773,1.1170469111111112,2.750448433333333,1.598375177777778,2.0661229666666667,5.444617222222223
674,1778415296980,-2.8705241999999997,0.714069108,2.83492751,2.38192248,2.32592296,4.828381
675,1778415296990,-2.2017171444444448,0.41902851555555554,2.4801482000000004,3.2631035666666666,2.9425531,3.9819859444444443
676,1778415297000,-1.8980273333333335,0.28935632333333333,1.9839166333333336,3.6395213111111113,3.3285152555555557,3.371053888888889
677,1778415297010,-1.7614868600000002,0.21119526,1.68356168,3.8081898599999997,3.5934464,2.8968668
678,1778415297020,-1.6781466666666667,0.06744295666666666,1.2758671333333333,3.6493627555555554,3.732183322222222,2.5295100666666666
679,1778415297030,-1.49739218,-0.17761401999999998,0.72808513,2.9515376,3.56402645,2.2209643
680,1778415297040,-1.2546463666666667,-0.31555704,0.2974868633333333,1.7199168333333335,3.0814189666666665,1.9709241333333334
681,1778415297050,-1.0660378,-0.34227608,0.103710318,0.79517045,2.67490015,1.8944664
682,1778415297060,-0.8905532800000001,-0.35220890666666665,-0.013862596444444446,0.11696027777777779,2.3648951666666664,1.8545238
683,1778415297070,-0.615054188,-0.34708124799999995,-0.13305654,-1.16874165,1.6163018,1.7924549500000002
684,1778415297080,-0.42911041000000005,-0.25674262666666664,-0.12479386266666667,-2.2694248666666668,0.6546755533333334,1.7628288333333333
685,1778415297090,-0.339413099,-0.122357749,-0.006189384799999997,-2.75612752,-0.204526926,1.7418156799999998
686,1778415297100,-0.31832142333333335,0.02155613666666667,0.19277547733333333,-2.7722878222222223,-0.7707280777777777,1.6777852777777778
687,1778415297110,-0.3669963577777778,0.09771911777777778,0.3185416266666667,-2.621883688888889,-1.1149744777777777,1.6021759666666666
688,1778415297120,-0.585832988,0.194645504,0.511456676,-2.1960416799999996,-1.42133474,1.47915142
689,1778415297130,-1.0424354333333332,0.2917344988888889,0.6897421722222222,-1.4508895333333334,-1.5553953,1.3784023
690,1778415297140,-1.28934345,0.33043086499999996,0.743839175,-0.8798109499999999,-1.39830575,1.426252
691,1778415297150,-1.4886945999999999,0.3215635,0.7445861333333333,-0.2986873388888889,-1.0306775,1.5930132777777777
692,1778415297160,-1.49630076,0.294992849,0.72274948,-0.098804545,-0.8559344440000001,1.69050449
693,1778415297170,-1.4101736666666667,0.14877900566666669,0.6483406833333334,0.27279420666666665,-0.7042814333333333,1.8764464333333335
694,1778415297180,-1.31649752,-0.0674124818,0.65012941,0.65864606,-0.7593595,2.01694125
695,1778415297190,-1.1894088,-0.45938658666666665,0.7048683666666666,1.1597444333333333,-0.9341636,2.132187866666667
696,1778415297200,-1.1094916,-0.850452056,0.69655283,1.5552935,-1.14254394,2.1724631199999997
697,1778415297210,-1.1030217111111111,-0.97084254,0.6676270244444444,1.7680889333333334,-1.2858079777777778,2.1989738777777776
698,1778415297220,-1.16937914,-1.42290008,0.43697670200000005,2.1291539399999997,-1.71577834,2.36365822
699,1778415297230,-1.2467495666666666,-1.8673956222222223,-0.07736899777777777,2.2225593666666668,-2.572736011111111,2.8989368555555557
700,1778415297240,-1.1452836888888889,-2.1090458,-0.6577890466666667,1.7368169666666669,-4.0538879,3.806978166666667
701,1778415297250,-0.763587238,-2.2391794000000003,-1.155610096,0.987892735,-5.147839,4.480564500000001
702,1778415297260,-0.48529250666666673,-2.2674460333333335,-1.3372189333333333,0.06155984333333336,-5.9209340444444445,4.882298444444444
703,1778415297270,0.266728984,-2.25712566,-1.56396324,-1.70131646,-6.752962139999999,4.99056105
704,1778415297280,0.68219764,-2.2568355888888885,-1.4601089111111112,-2.9649083333333337,-7.109676722222222,4.636194855555555
705,1778415297290,0.98028582,-2.2244896,-1.146301615,-4.0941655,-7.324364,3.9551977999999997
706,1778415297300,1.2309457555555554,-2.125828777777778,-0.7135850022222222,-4.863022944444444,-7.271211777777777,2.869684188888889
707,1778415297310,1.3998225,-1.9600534,-0.38218694,-5.0148117,-6.95967304,1.9116007799999999
708,1778415297320,1.5261968000000001,-1.7575414999999999,-0.15871861599999998,-4.966391722222222,-6.4711037777777785,0.9296246955555555
709,1778415297330,1.6325189999999998,-1.4736836,0.13031247099999999,-4.81188812,-5.2971606,-0.828492142
710,1778415297340,1.6747318666666666,-1.3020678333333333,0.48800611666666666,-4.423755766666666,-3.0616173333333334,-3.551542266666667
711,1778415297350,1.5361871999999999,-1.2946622444444444,0.7132326666666667,-4.071907833333333,-1.7922427444444446,-5.105088111111112
712,1778415297360,1.0902831,-1.39145316,0.9993205,-3.35203962,-0.30238464600000003,-7.12710618
713,1778415297370,0.5288011877777778,-1.5063887444444444,1.267523188888889,-3.0431647,0.22929679,-7.8882523
714,1778415297380,-0.5475898665,-1.53437616,1.6727073700000001,-2.25590476,0.935970676,-9.39904552
715,1778415297390,-1.8915228333333336,-1.4314961333333334,2.0808937,-1.2056937444444444,1.0771866833333332,-10.973311
716,1778415297400,-3.24939074,-1.29638054,2.4186410799999996,-0.377106572,0.38151992,-11.249576999999999
717,1778415297410,-4.280666333333333,-1.0420763888888889,2.534741311111111,0.08750386333333333,-0.05678334666666667,-10.891050333333332
718,1778415297420,-4.57374856,-0.752928072,2.48619376,0.7562594180000001,-0.598645584,-9.972875400000001
719,1778415297430,-4.715529344444445,0.03945690333333333,2.339621633333333,1.3485216333333334,-1.0384148666666666,-9.017301666666667
720,1778415297440,-4.51879434,0.642525264,2.1535647399999998,1.71475514,-1.045663588,-8.322565
721,1778415297450,-4.310515911111111,0.88849358,1.9874534111111108,1.7846496888888892,-0.4141289777777778,-8.186956777777777
722,1778415297460,-4.21573682,0.8398599600000001,1.83883603,1.9491984000000002,0.4291660104,-8.182924799999999
723,1778415297470,-4.161973733333333,0.7550237177777778,1.6171506444444443,2.2384413333333333,1.0861458111111113,-8.068112666666666
724,1778415297480,-4.0620359555555545,0.6534764566666666,1.2124352555555555,2.6320984444444444,1.7119672888888888,-7.786444555555556
725,1778415297490,-3.8097772,0.549928446,0.512139636,2.85532916,2.3987971000000003,-7.264272119999999
726,1778415297500,-3.7100233555555553,0.5135564,0.1934055911111111,2.7959411999999997,2.8273064666666667,-6.736500111111111
727,1778415297510,-3.5916973800000003,0.496937514,-0.067272216,2.63542412,3.1161151,-6.13089074
728,1778415297520,-3.3312071555555556,0.5206333355555556,-0.20336214444444445,2.5017165,3.1886566444444444,-5.410647288888889
729,1778415297530,-2.8009714,0.57277733,-0.31532330000000003,2.59663535,2.9742153,-4.4741124999999995
730,1778415297540,-2.284164488888889,0.6262221777777778,-0.5014757444444444,2.8115518444444443,2.5045755555555553,-3.7604690444444437
731,1778415297550,-1.62045431,0.7712340080000001,-0.83420721,2.9490943,1.91500615,-3.1644178199999997
732,1778415297560,-1.1977731222222223,0.9472435955555556,-0.9906235444444444,2.8095157333333334,1.7162432777777776,-3.0199863666666666
733,1778415297570,-0.9709713000000001,1.0525614,-1.0562507,2.70445,1.6239374999999998,-2.9616165
734,1778415297580,-0.8755490666666667,1.1432679000000001,-1.0489230333333335,2.553774277777778,1.6646606666666668,-2.9395581666666666
735,1778415297590,-0.6223432277777777,1.480194722222222,-0.9660489388888889,2.1511579666666667,1.9118501777777779,-2.7603763444444445
736,1778415297600,-0.534043344,1.7166733600000001,-0.85217168,1.94223471,2.01909445,-2.44422905
737,1778415297610,-0.49281332,2.2183002666666667,-0.32564906666666665,2.205998666666667,1.5681467,-1.6151056000000001
738,1778415297620,-0.486601564,2.26684272,-0.21338134000000003,2.310026,1.44135518,-1.38971567
739,1778415297630,-0.4522282711111111,2.31668,-0.10621894,2.7050608333333335,1.0662338333333334,-0.5588743199999999
740,1778415297640,-0.375518848,2.34463082,-0.23087016700000002,2.9665034,0.9181034,0.13667707
741,1778415297650,-0.3698725222222222,2.3345840222222223,-0.31721701333333335,3.0072265333333337,0.9717561666666666,0.49829863333333335
742,1778415297660,-0.5060295,2.23469128,-0.41064590799999995,2.7575936,1.328043,0.93652046
743,1778415297670,-0.5844243,2.1788466,-0.44002566,2.5429826,1.5846395666666666,1.2903893666666668
744,1778415297680,-0.8225540880000001,1.9484734,-0.46584422999999997,2.31631756,1.7850788999999998,1.8011900600000001
745,1778415297690,-0.9643956533333333,1.7728372,-0.53187044,2.1050051333333335,1.6945920666666667,2.4139920999999998
746,1778415297700,-1.1597932888888889,1.5794891777777778,-0.5782925388888889,2.0416806,1.6379869,2.5935812
747,1778415297710,-1.50470675,1.32394915,-0.6468517749999999,1.5142293,1.1264634,3.6574326800000003
748,1778415297720,-1.7479373666666667,1.2164937,-0.6919610999999999,1.2863934,1.0324336433333334,3.9783972000000003
749,1778415297730,-2.06504126,1.13256606,-0.7459154399999999,0.9038401319999998,0.8866447980000001,4.3781866
750,1778415297740,-2.632352077777778,1.1173822,-0.8330669111111111,0.35424051888888886,0.8040022611111112,4.774314277777778
751,1778415297750,-3.1185965500000004,1.1311635,-0.8638004300000001,-0.30710344999999994,0.8207649079999999,5.3599404
752,1778415297760,-3.4148707333333332,1.1503516444444444,-0.8162332666666666,-0.8599456533333334,0.85915665,5.9244041
753,1778415297770,-3.5900784999999997,1.14171599,-0.711041483,-1.6261211800000002,0.85291076,6.68915936
754,1778415297780,-3.8323781333333335,1.0813334333333333,-0.4293136722222222,-2.5040580333333335,0.5640410977777778,7.497547555555554
755,1778415297790,-3.8469471,1.001201725,-0.02465083500000001,-2.9905707,0.165890849,7.966440850000001
756,1778415297800,-3.752874911111111,0.924068152222222,0.4944055611111111,-3.462545366666667,-0.5130183777777777,8.581123111111111
757,1778415297810,-3.62236386,0.862306416,0.9705627800000001,-3.4464461300000004,-0.7097587129999999,8.7165003
758,1778415297820,-3.296096866666667,0.7500437733333334,1.6295768,-2.8669012888888887,-1.020089478888889,8.71876722222222
759,1778415297830,-3.0824664,0.6984554,1.7859274,-2.4317067,-1.0999068,8.584312
760,1778415297840,-2.5566066199999997,0.590016144,2.0267584999999997,-1.219274018,-0.9098722199999999,7.82661765
761,1778415297850,-2.297505433333333,0.5404380444444444,2.0561666777777776,0.0055824566666666615,-0.23935882555555554,6.786072055555556
762,1778415297860,-1.92942656,0.45091043500000005,1.8511018800000003,0.599516019,0.14066285380000002,6.23320759
763,1778415297870,-1.7526531,0.2582670966666667,1.5390227,1.6784046333333333,0.5656700266666667,5.292584266666667
764,1778415297880,-1.68224765,0.122141272,1.3772602500000002,2.1705694,0.681812454,4.91280024
765,1778415297890,-1.592369411111111,-0.05072788933333334,1.1940500555555555,2.849017133333333,0.80944901,4.422330366666667
766,1778415297900,-1.4573655200000002,-0.283095782,0.8877896200000001,3.4137657499999996,1.09738711,3.8694806
767,1778415297910,-1.2868840444444443,-0.5137257855555555,0.48814841111111107,3.610947211111111,1.391272488888889,3.4724545222222223
768,1778415297920,-1.1634277,-0.644190036,0.22876335860000002,3.6329377000000003,1.5384188,3.3027746999999996
769,1778415297930,-0.999614651111111,-0.772209648888889,-0.038389774,3.1701190333333336,1.8724844,2.872263155555556
770,1778415297940,-0.8672118422222224,-0.8446021133333333,-0.2339194711111111,2.6999703,2.0064635111111113,2.6210693444444444
771,1778415297950,-0.68064948,-0.9273101666666668,-0.5465054533333333,1.249097811111111,2.060150311111111,2.1841098666666663
772,1778415297960,-0.645174835,-0.96801373,-0.57375298,0.31168481499999995,1.9305827999999998,2.07802595
773,1778415297970,-0.6130404888888888,-0.9924223422222221,-0.5599276466666667,-0.40580618777777777,1.7784818444444446,2.048773166666667
774,1778415297980,-0.49285193199999994,-1.03676776,-0.414652244,-1.4873367,1.4474025799999999,2.0341671999999997
775,1778415297990,-0.3830474077777778,-1.1092211666666667,-0.2089756022222222,-1.9949508,1.2586508,2.0279365
776,1778415298000,-0.19549311200000002,-1.19455138,0.06896134400000001,-2.7411618,0.6985802000000001,1.95903298
777,1778415298010,-0.033670665333333336,-1.2301633,0.2839901466666667,-3.3367107444444444,0.018079372222222213,1.8509944666666667
778,1778415298020,0.008628552,-1.2361088,0.33971494,-3.4046030299999996,-0.290900747,1.7888509199999998
779,1778415298030,0.1225105368888889,-1.2244955555555554,0.48971013555555554,-3.2254007666666666,-1.0233473266666668,1.6384196333333334
780,1778415298040,0.226507112,-1.21047912,0.592443104,-2.7704214,-1.668033,1.4488533000000001
781,1778415298050,0.2824453533333333,-1.1740217333333334,0.64525108,-2.050266388888889,-2.292696444444444,1.1752870555555555
782,1778415298060,0.318652752,-1.16667778,0.6496903639999999,-1.03978422,-2.76417544,0.81337368
783,1778415298070,0.3432009333333333,-1.1646614,0.60831802,-0.25925374999999995,-2.922955,0.5013529000000001
784,1778415298080,0.405852961,-1.1540185299999999,0.47720161,0.59951605,-2.8918425599999997,0.03564294
785,1778415298090,0.4973460977777778,-1.1379119111111113,0.2731832777777778,1.0430046888888889,-2.7166922222222225,-0.45679498888888886
786,1778415298100,0.5473896666666667,-1.1121990666666666,0.026597083333333327,1.2707828333333333,-2.3920607777777776,-1.1613479177777777
787,1778415298110,0.52513736,-1.08966725,-0.1249615575,1.23137642,-1.86618414,-2.03862636
788,1778415298120,0.4398461333333333,-1.0838945,-0.21218040777777777,1.0109013,-1.4592207666666668,-2.590425111111111
789,1778415298130,0.330805876,-1.1088025,-0.228446262,0.71093458,-1.129838344,-3.01781466
790,1778415298140,0.18806990666666668,-1.1503517,-0.13854467,0.30001083333333334,-0.7811803155555554,-3.4741174555555556
791,1778415298150,0.136614671,-1.14000856,-0.095944626,-0.35536040399999996,-0.232992416,-4.16663486
792,1778415298160,0.08947676555555556,-1.0786367222222222,-0.06243250722222222,-0.7706007577777778,-0.009408742222222224,-4.652721933333333
793,1778415298170,0.0669002452,-1.0594154199999999,-0.033825143599999996,-1.12895258,0.090756634,-5.1240925399999995
794,1778415298180,0.013100358,-1.0448373333333332,0.06393666,-1.8359268666666668,-0.028480746666666654,-6.241560799999999
795,1778415298190,-0.18209903900000002,-1.0867402499999999,0.18241918,-2.5663983999999997,-0.5150205999999999,-7.507389000000001
796,1778415298200,-1.0870620577777776,-1.1862684555555556,0.5051514222222222,-3.494020933333333,-1.8177033,-8.980905666666667
797,1778415298210,-2.66323458,-1.23635266,1.01146756,-3.9915815,-2.8042471,-9.5333405
798,1778415298220,-4.3180669,-1.0482725333333334,1.6988083999999999,-4.279799533333334,-3.5790051333333333,-9.265763666666667
799,1778415298230,-4.846729111111111,-0.8659685166666667,2.0015665666666664,-4.562010900000001,-4.0941529999999995,-8.345166066666668
800,1778415298240,-4.78269344,-0.27988218000000004,2.2737729399999997,-4.75666762,-3.3355620000000004,-7.5657252
801,1778415298250,-4.404447377777778,0.42430320555555556,2.332158444444444,-5.0231328,-1.7882977777777778,-7.260233588888888
802,1778415298260,-4.7168605999999995,0.7889942249999999,2.5064877500000002,-5.22127798,-0.25742626999999996,-7.162810299999999
803,1778415298270,-5.2875138,0.9947328666666666,2.9621546333333333,-4.9783372,0.2947253222222222,-6.397131977777779
804,1778415298280,-5.12045126,1.1631776600000001,3.27642284,-4.29211825,-0.06085565999999999,-5.255119
805,1778415298290,-4.142863533333333,1.6492629,3.636370466666667,-3.2865364333333336,-0.56806251,-4.2322298
806,1778415298300,-2.8757774,2.13564285,4.49422535,-1.188235404,-0.779089878,-3.22672432
807,1778415298310,-1.3691110777777777,2.6756337666666665,4.792488133333333,2.2332660866666663,1.0723933,-3.990343044444444
808,1778415298320,-1.2504693599999999,2.5198666,3.7163753400000004,3.01440143,1.399076964,-4.35039343
809,1778415298330,-2.4992008,1.2668422,1.0428047,5.059002955555556,0.2761284177777778,-4.845138677777778
810,1778415298340,-2.356184166666667,1.0465380666666666,1.5448868333333334,5.414380477777778,0.07163032555555555,-3.9702357777777784
811,1778415298350,-2.05288197,1.11369294,0.493202535,5.13692011,0.5860316109999999,-2.77940091
812,1778415298360,-1.4753943444444444,1.1769961666666666,0.05595854866666667,4.712584733333333,0.4827984066666667,-2.025187766666667
813,1778415298370,-1.2919473,1.16118362,-0.0161655768,4.5111678799999995,0.370769008,-1.75116166
814,1778415298380,-0.9701073600000001,1.0998304555555556,-0.16512819777777776,4.216016555555555,0.2421924577777778,-1.4874215888888889
815,1778415298390,-0.642592388,1.0819107200000002,-0.394425452,3.7960339,0.20333578500000002,-1.33027265
816,1778415298400,-0.4204412,1.0548244444444446,-0.582649178888889,3.2218374666666665,0.0006363000000000063,-1.2175713333333333
817,1778415298410,-0.19028244,1.0316334,-0.713623975,2.75307322,-0.2947490705,-1.15538706
818,1778415298420,-0.022806205555555563,1.0408534777777778,-0.7206822888888889,2.481083266666667,-0.4460966466666667,-1.1383647666666665
819,1778415298430,0.098877722,1.04904905,-0.69708638,2.183397,-0.5776324,-1.1351069
820,1778415298440,0.17244231,1.0357581999999999,-0.6034091555555556,1.958741133333333,-0.4938106088888888,-1.1955128444444445
821,1778415298450,0.15978372,0.997564298,-0.473417844,1.79831906,-0.04106420599999999,-1.2591089100000001
822,1778415298460,0.094934404,0.9602491433333333,-0.3972386333333333,1.845395,0.6348993666666667,-1.1477311666666667
823,1778415298470,0.0688576724,0.93294468,-0.40009042,1.9643473,0.9694298800000001,-0.9316948400000001
824,1778415298480,0.11112437,0.9127362,-0.49079079333333336,2.1525153888888884,1.4053898666666667,-0.48998435
825,1778415298490,0.15960281,0.9116792099999999,-0.5678379666666666,2.2155684,1.5907480666666667,-0.16650678033333335
826,1778415298500,0.27038163600000004,0.942121992,-0.7144928800000001,2.06806926,1.70151502,0.20442004170000003
827,1778415298510,0.38271204444444445,1.003330911111111,-0.8215486277777777,1.7609623888888888,1.7429168444444445,0.3690026477777778
828,1778415298520,0.436058992,1.04817705,-0.8660932600000001,1.52452964,1.7677919000000002,0.44497167299999996
829,1778415298530,0.3611017022222222,1.1485764333333333,-0.8233169566666666,1.14535565,1.830539522222222,0.5302662777777777
830,1778415298540,0.241209204,1.2775867399999998,-0.78803376,0.7890008420000001,1.87707254,0.637449648
831,1778415298550,0.09157715333333333,1.364405488888889,-0.7583504555555556,0.6069955188888889,1.9089995333333336,0.7059188211111111
832,1778415298560,-0.24939260000000002,1.46629297,-0.6980681740000001,0.359147637,1.98109986,0.8205816300000001
833,1778415298570,-0.9359489155555557,1.5096240111111112,-0.6676405733333334,0.22772725,1.832168422222222,1.0648255555555555
834,1778415298580,-1.49715138,1.60127639,-0.75655025,0.186216786,1.48454206,1.4001994
835,1778415298590,-1.8210310000000003,1.6719166666666667,-0.8015372777777778,0.11858920777777776,1.1968194333333333,1.7352728666666666
836,1778415298600,-2.58765092,1.8946775599999999,-0.77768556,-0.155368999,0.77068307,2.56426041
837,1778415298610,-3.2162041,2.1245141666666663,-0.5649719666666666,-0.5895185166666667,0.7736125733333333,3.7713456333333335
838,1778415298620,-3.38127668,2.2199404199999995,-0.44616628,-0.7433705899999999,1.066600404,4.28252794
839,1778415298630,-3.5348303555555556,2.2744009444444444,-0.26631297777777774,-0.9186294666666667,1.6777598888888887,4.693478755555556
840,1778415298640,-3.6515139999999997,2.2513305333333333,-0.08542165900000001,-1.102189088888889,2.324443533333333,4.995916
841,1778415298650,-3.8484808399999997,2.0105502399999997,0.1272940112,-1.2643775,2.8281617999999997,5.260616400000001
842,1778415298660,-3.9144902,1.5921525111111112,0.2524029488888889,-1.3087657,2.8148859999999996,5.550565333333334
843,1778415298670,-3.78133062,1.35162764,0.34884353,-1.28539064,2.5362988399999997,5.76493202
844,1778415298680,-3.4107004888888888,1.1542678444444445,0.5839737777777778,-1.2427941999999998,2.309036511111111,5.857074944444444
845,1778415298690,-3.1710266,1.1086134,0.700315248,-1.1342364200000001,2.22330076,5.8074470400000004
846,1778415298700,-2.7958848,1.056962,0.7995791566666667,-0.8578840722222223,2.2528385777777777,5.5667190444444445
847,1778415298710,-2.6263973,0.9258649800000001,0.72392641,-0.21138369850000002,2.19086477,5.1069887
848,1778415298720,-2.501148811111111,0.7137374666666667,0.5988730333333333,0.1982029677777778,2.1627725666666664,4.7915540000000005
849,1778415298730,-2.4298400300000003,0.54279388,0.51388058,0.378389335,2.17339445,4.6002299
850,1778415298740,-2.3573326333333338,0.29082997666666666,0.4352997866666667,0.43263256666666666,2.2402822000000002,4.3978969
851,1778415298750,-2.2588208,-0.03782233499999999,0.37326874,0.283280405,2.407349,4.2215653500000005
852,1778415298760,-2.003291011111111,-0.33072050555555554,0.3082530933333334,-0.14869041,2.5104804666666665,4.095730866666667
853,1778415298770,-1.8370889000000001,-0.445269875,0.27612891500000003,-0.5184566349999999,2.43514265,4.01509905
854,1778415298780,-1.6639012555555555,-0.5397503222222222,0.24178238777777775,-0.785337511111111,2.2948513555555556,3.9575351111111114
855,1778415298790,-1.4194629111111112,-0.6507323933333333,0.19278563999999998,-1.3030644333333334,1.7410165,3.8144612666666666
856,1778415298800,-1.24748135,-0.733472685,0.17717497,-1.55660674,1.3389161,3.71705144
857,1778415298810,-1.0868215333333333,-0.8254648,0.20838613333333333,-1.8988442,0.7475327888888889,3.5414124777777776
858,1778415298820,-1.0061258,-0.8741668,0.23355019999999999,-2.0682526,0.4559211,3.4469347
859,1778415298830,-0.9084981344444445,-1.0145849422222222,0.3610711988888889,-2.4294668333333336,0.05235470066666667,3.160854666666667
860,1778415298840,-0.889655554,-1.0730260399999998,0.39446203,-2.54361384,-0.015286453399999997,3.05012842
861,1778415298850,-0.8667307644444444,-1.1556704444444443,0.4278806444444444,-2.7090312666666665,-0.09608118333333332,2.8859734
862,1778415298860,-0.9139191600000001,-1.24043824,0.427555452,-2.9588677399999996,-0.296154024,2.6558875
863,1778415298870,-1.0057090666666666,-1.3310329333333335,0.49150228,-3.1034348555555558,-0.47433138888888887,2.535889922222222
864,1778415298880,-1.067733,-1.38623639,0.540656568,-3.14969636,-0.58752818,2.49804456
865,1778415298890,-1.1648240333333333,-1.4583372,0.5967624766666667,-3.0973264,-0.6814765,2.5119313333333335
866,1778415298900,-1.2060338,-1.4573960400000001,0.5695393280000001,-2.87066144,-0.69454862,2.63963912
867,1778415298910,-1.1169147333333334,-1.3864326,0.47857468,-2.583536088888889,-0.7453439444444444,2.766858222222222
868,1778415298920,-0.91435819,-1.29483779,0.393687601,-2.00350265,-0.94383535,2.9130542499999996
869,1778415298930,-0.7845274666666666,-1.2424404,0.36500096666666665,-1.3816347,-1.1086623,3.0105861333333332
870,1778415298940,-0.6097978,-1.1581955999999998,0.3483496,-0.66273874,-1.14987414,3.08836736
871,1778415298950,-0.4344664111111111,-1.064584411111111,0.32322347,-0.15140527999999998,-0.9737329666666665,3.0838877777777776
872,1778415298960,-0.17798802333333333,-0.9548727600000001,0.2651069366666667,0.3230194311111111,-0.6435360777777777,2.9759714444444447
873,1778415298970,0.017436997999999992,-0.890155588,0.219409148,0.68888299,-0.16195087999999996,2.6271777
874,1778415298980,0.5346246899999999,-0.7606135066666666,0.08459843133333333,1.0087972777777778,0.3968046677777778,2.01443
875,1778415298990,0.800851596,-0.7105719560000001,-0.026849125800000002,1.10651928,0.619261665,1.511258998
876,1778415299000,1.2501711555555555,-0.6298877111111111,-0.22006365222222224,1.1148132555555557,0.6623196244444445,0.3957441711111111
877,1778415299010,2.04958904,-0.526658802,-0.440214716,0.86633414,0.31298285200000003,-1.3826680960000002
878,1778415299020,2.6099185,-0.5736208755555556,-0.48990663444444443,0.34921797555555556,-0.14162325,-3.702005977777778
879,1778415299030,2.74457779,-0.669999459,-0.453755131,-0.049081579199999996,-0.43273947599999996,-5.44431372
880,1778415299040,2.2521333,-1.1163456333333333,-0.2451972422333333,-0.4097258,-0.6741463,-7.3116126
881,1778415299050,1.2569178,-1.7327383,0.25124941665,-0.9445836419999999,-1.07956564,-9.30820536
882,1778415299060,0.27943703333333336,-2.125083366666667,0.7195338333333334,-1.0844404888888888,-1.0764231555555555,-10.906932555555557
883,1778415299070,-1.06151926,-2.45164298,1.2759159,-0.942506732,-0.9848231999999999,-11.6798578
884,1778415299080,-2.0443265,-2.460455188888889,1.5104167888888889,-0.5679352266666666,-1.0622379333333332,-11.792254
885,1778415299090,-2.68590048,-2.3831147,1.5656462599999998,-0.122261082,-1.3594100399999998,-11.6256146
886,1778415299100,-2.9091942,-2.3582168,1.5665243,0.5723129677777777,-2.2367020222222225,-11.213985000000001
887,1778415299110,-2.68711403,-1.87762174,1.47173226,1.084650896,-2.89355284,-11.1388914
888,1778415299120,-2.6059616444444447,-1.5456287666666666,1.102205257777778,0.8169912088888889,-3.2217272222222224,-11.958030777777777
889,1778415299130,-2.93468952,-1.2979843,0.645976732,-0.195074056,-3.3377610599999996,-13.413274000000001
890,1778415299140,-3.4056017555555558,-1.3494995222222221,0.61642486,-0.9159994088888889,-2.9644926333333337,-13.919028222222222
891,1778415299150,-4.78152885,-1.42743085,0.597184215,-2.57440056,-1.39548062,-14.3731596
892,1778415299160,-6.076269166666666,-1.1724870666666667,0.32946027333333333,-3.877352955555556,-0.2069160277777778,-13.423767444444444
893,1778415299170,-7.314725511111111,-0.6723494888888889,0.4672325577777777,-4.496921755555555,-0.5082673388888889,-11.435900777777778
894,1778415299180,-7.992203999999999,-0.16655543600000003,0.8398020300000001,-4.71635185,-1.9566582499999998,-7.8457987000000005
895,1778415299190,-7.68514,0.43922957777777777,1.3585954666666666,-4.639996066666666,-2.9447418444444446,-5.134799133333334
896,1778415299200,-6.197148,1.1291452,1.6914280599999998,-4.212509559999999,-3.5788014000000006,-2.24336714
897,1778415299210,-3.3486233888888886,1.952193911111111,2.2640717555555554,-3.1373030444444447,-2.4171989666666667,-0.9874176222222223
898,1778415299220,-2.39395356,2.12036158,2.38426399,-2.11895276,0.4844476200000001,-1.5935478
899,1778415299230,-1.9323722333333333,2.1086258000000004,2.312309611111111,-1.4704366333333334,2.6842156333333334,-2.4364915999999996
900,1778415299240,-1.6331838,1.96906921,2.12644112,-1.2240616,3.5158079,-2.7814167
901,1778415299250,-1.4925971999999998,1.7105978,1.8684221,0.19765997333333335,5.218442666666667,-3.7544962666666666
902,1778415299260,-1.5024657,1.4289309,1.43787662,1.3130696099999999,5.6520018,-4.01441168
903,1778415299270,-1.5819588777777778,1.3000217111111112,0.984136011111111,2.5978230666666664,5.4699758888888885,-3.6459012222222222
904,1778415299280,-1.49762394,1.30476524,0.686302244,3.2421175599999996,5.1295438,-3.11603868
905,1778415299290,-1.3509798555555554,1.3223028222222222,0.49087214222222225,3.7483878,4.537755,-2.1552982
906,1778415299300,-0.97488616,1.3656406,0.279863886,3.88216346,3.8934334999999995,-0.8994420240000001
907,1778415299310,-0.5459261666666666,1.4860825666666666,0.10094084666666667,3.7604010999999997,3.602344366666667,-0.36075619999999997
908,1778415299320,-0.16880559,1.63352201,0.002856873900000001,3.4735676399999997,3.33121729,0.108761358
909,1778415299330,-0.05881441,1.6548017333333334,0.09849152233333333,3.237515933333333,3.0820298333333334,0.45391042
910,1778415299340,-0.11212036222222224,1.595658788888889,0.2063399588888889,3.1741235777777774,2.8612424666666665,0.6755122377777778
911,1778415299350,-0.18426685,1.53407122,0.26092377,3.21511824,2.58296758,0.891195628
912,1778415299360,-0.3073858333333333,1.380320988888889,0.30152505333333335,3.500926888888889,1.818729811111111,1.4112183333333332
913,1778415299370,-0.34559334399999997,1.2593234199999999,0.224567988,3.7722109500000003,1.3182083,1.7261779499999998
914,1778415299380,-0.35819164,1.2111987,0.1803459,3.9243119,1.0674555,1.8776681
915,1778415299390,-0.48180859,1.1635130200000001,-0.0261722538,3.90293209,0.97075844,1.9406464200000002
916,1778415299400,-0.7132427866666666,1.1114808444444444,-0.2152429,3.7745862666666667,0.9991085533333334,1.956331611111111
917,1778415299410,-1.0025889700000001,1.0694069499999999,-0.34716964,3.18213247,1.47825034,2.00716768
918,1778415299420,-1.6614960777777779,1.0163534,-0.60987976,2.5050420666666664,1.609752188888889,2.2194032
919,1778415299430,-2.2170806,0.9851032500000001,-0.703592895,2.09042614,1.4251677600000001,2.45491864
920,1778415299440,-3.236255922222222,0.8807085555555556,-0.7913978444444445,1.4786406222222221,0.9217600555555554,3.0956295555555555
921,1778415299450,-3.8878152299999997,0.77616111,-0.8471500799999999,0.958327725,0.5364307979999999,3.73918697
922,1778415299460,-4.558964866666667,0.6144260733333334,-0.7151433333333334,-0.014304003333333334,0.35594578666666665,4.9317773
923,1778415299470,-4.92434523,0.4927299560000001,-0.18259906,-1.018488544,0.979837184,5.87995473
924,1778415299480,-5.030933999999999,0.35922828,0.3950230666666667,-1.5901626444444446,1.7211978222222222,6.350096722222222
925,1778415299490,-4.988871744444444,0.2250571728888889,0.7995927777777778,-1.781900833333333,2.456047177777778,6.605405522222222
926,1778415299500,-4.8557403,-0.010603602222222223,1.1751838000000001,-1.6496863666666666,2.784818844444444,6.696252122222223
927,1778415299510,-4.669753999999999,-0.266494215,1.3272420999999999,-1.04016596,2.9138025799999996,6.74554064
928,1778415299520,-4.326760033333333,-0.4360213711111111,1.317106011111111,-0.3884139973333333,2.8488220666666666,6.532239388888889
929,1778415299530,-3.8509769,-0.56488052,1.2307221666666668,0.20071421866666667,2.9869413333333332,6.089536333333333
930,1778415299540,-3.6732084,-0.5962970000000001,1.16790952,0.34735828999999996,3.2180884300000003,5.82662775
931,1778415299550,-3.1928659111111113,-0.6641546222222222,0.9959185022222221,0.5348476999999999,3.672999066666667,5.335547166666667
932,1778415299560,-2.96060568,-0.72526183,0.9688004579999999,0.6059910310000001,3.98102908,4.99239355
933,1778415299570,-2.6919829777777777,-0.9114691222222224,1.0001024222222223,0.6917675544444445,4.568365511111111,4.570562955555555
934,1778415299580,-2.42194614,-1.1271206,0.983508636,0.751372684,5.09350404,4.3883268399999995
935,1778415299590,-1.9105620555555558,-1.2554323666666667,0.7637979422222222,0.72095249,5.420226,4.387715733333334
936,1778415299600,-1.5748412555555555,-1.2469223333333332,0.5786245555555555,0.5596888133333333,5.378280999999999,4.3663362
937,1778415299610,-1.2869287799999998,-1.22560808,0.40496267599999997,0.4409401,5.255134119999999,4.3432463
938,1778415299620,-0.9958473944444444,-1.2151827111111109,0.19196581333333332,0.031102313333333336,4.5892699666666665,4.296699666666666
939,1778415299630,-0.865096185,-1.21607706,0.090032694,-0.50074203,3.62256856,4.30891626
940,1778415299640,-0.6924421833333333,-1.204884011111111,0.000931625555555556,-1.016857072222222,2.7217657555555554,4.429049833333334
941,1778415299650,-0.612139382,-1.1996370200000002,-0.011482377719999999,-1.59741138,1.76235542,4.59051726
942,1778415299660,-0.5156466277777778,-1.195262788888889,0.045819071311111105,-2.2289052444444444,0.7508669933333333,4.753817
943,1778415299670,-0.46672538,-1.20473499,0.1680341965,-2.79479416,-0.11289984400000001,4.9038818399999995
944,1778415299680,-0.41096909,-1.2498391999999998,0.4278806466666667,-3.295037466666667,-0.86921016,5.122157866666666
945,1778415299690,-0.3742901288888889,-1.295610788888889,0.6049573666666667,-3.475848288888889,-1.1949953555555555,5.250028422222223
946,1778415299700,-0.326586124,-1.35184712,0.73372877,-3.4574413,-1.4935368199999999,5.41968104
947,1778415299710,-0.21239721444444445,-1.4436546888888888,0.8753051333333333,-3.074046411111111,-1.9691085888888888,5.522738044444444
948,1778415299720,-0.12354989400000001,-1.55487122,0.944158764,-1.9927517000000001,-2.8545808999999998,5.43947264
949,1778415299730,-0.06182271666666667,-1.7136975,0.9831772999999999,-0.47674081086666664,-3.9082519000000002,5.191794333333333
950,1778415299740,-0.04925897259999999,-1.78564684,0.93503018,0.29177120696,-4.4049268,5.0315487999999995
951,1778415299750,-0.04289545477777778,-1.8690285111111113,0.6736301155555555,1.4777923,-5.170746,4.755446
952,1778415299760,0.0042228084999999995,-1.8780667999999998,0.384123035,2.6482519,-5.7345576000000005,4.1943827
953,1778415299770,0.16827540288888887,-1.8345311999999998,-0.000691098888888888,2.9874756999999996,-5.3010597,3.2865109
954,1778415299780,0.3331698544444444,-1.7484421555555556,-0.3508131422222222,2.5106076555555554,-4.114327866666667,2.206643244444445
955,1778415299790,0.604934703,-1.64545575,-0.7684320509999999,1.409461338,-2.84065364,1.1287770099999999
956,1778415299800,0.7118403266666666,-1.628516411111111,-0.8628993077777777,0.8715602733333333,-2.334700711111111,0.6497209088888889
957,1778415299810,0.8698617179999999,-1.6483461600000002,-0.8467079780000001,-0.455172836,-1.6684834800000001,-0.495794172
958,1778415299820,1.0626534666666667,-1.6967757666666665,-0.6699984333333333,-1.3532557555555558,-1.5911637555555556,-1.4695542333333333
959,1778415299830,1.31909835,-1.6857965,-0.61722506,-2.27826167,-2.01861351,-2.93076874
960,1778415299840,1.3977611444444444,-1.7069389888888888,-0.5926057555555555,-2.5227227,-2.1940107,-3.3696625
961,1778415299850,1.2497498,-1.8957080999999998,-0.44797127999999997,-3.6026853799999996,-3.0873747,-5.390291830000001
962,1778415299860,0.9164187111111111,-2.0591649000000003,-0.21359308500000002,-4.178059377777777,-3.3722670555555556,-6.307065777777778
963,1778415299870,0.3983633611111111,-2.289547711111111,0.2253823971111111,-5.029512544444445,-3.2548487222222224,-7.529141888888889
964,1778415299880,-0.11779652500000001,-2.43840455,0.56873745,-5.68393354,-2.75574582,-8.6424042
965,1778415299890,-0.7731718222222221,-2.5610064777777777,0.9738711888888889,-6.084853055555556,-2.136726688888889,-9.761483666666667
966,1778415299900,-1.2283033799999998,-2.5768394199999998,1.27382436,-6.091307759999999,-1.96494288,-10.2892037
967,1778415299910,-2.0637383,-2.5836467,1.8519882,-5.5108603,-2.0186973999999998,-11.417804666666667
968,1778415299920,-2.90452316,-2.57304642,2.1655593,-4.52283529,-2.0700697200000002,-12.1064049
969,1778415299930,-4.226242666666668,-2.1842229,2.343480233333333,-3.735687266666667,-2.0710266666666666,-12.239266333333333
970,1778415299940,-5.0121948000000005,-1.74845564,2.39189564,-3.43606154,-2.01032114,-12.1750789
971,1778415299950,-5.3280241,-1.4523307,2.4697579,-3.1073036,-1.4786321,-11.672527
972,1778415299960,-5.760803533333333,-0.9308775333333332,2.6050402333333333,-2.912239733333333,-1.1322817166666668,-11.393573666666667
973,1778415299970,-6.1604049,-0.18919091100000002,2.5613049500000002,-2.30446709,-0.11247224920000001,-10.4957302
974,1778415299980,-6.234553888888889,0.18560024333333333,2.736270711111111,-1.5168609666666666,0.529019198,-9.513946333333333
975,1778415299990,-6.275420899999999,0.570371664,2.95362959,-0.893700046,0.780891888,-8.8669523
976,1778415300000,-5.478754555555556,0.8979453777777778,2.7533517555555553,0.8172882133333333,0.7130878166666667,-7.570611799999999
977,1778415300010,-4.395116020000001,0.98457574,2.4847791999999997,2.62100816,0.6545686500000001,-6.5660887599999995
978,1778415300020,-3.5298095666666667,0.8343068333333333,2.2029130666666665,3.981375133333333,1.24396499,-6.258028333333333
979,1778415300030,-2.8755184,0.65746215,1.7209998,4.8919703,1.89454275,-6.21414925
980,1778415300040,-2.343419133333333,0.4118736333333334,0.9105308000000001,5.620710866666666,2.7554301666666667,-6.2847021666666665
981,1778415300050,-2.2650236,0.33084588444444446,0.6071560338888888,5.762223688888889,3.079654333333333,-6.253345377777777
982,1778415300060,-2.21189744,0.24878281600000002,-0.260112737,5.5935892,3.3569111200000004,-5.92283622
983,1778415300070,-2.1696490666666666,0.28529104666666666,-0.7873731666666666,4.974434544444445,3.2045386888888894,-5.273817722222223
984,1778415300080,-2.05087873,0.386315209,-1.09985379,3.68768482,2.64087604,-3.9920089400000003
985,1778415300090,-1.8131747999999999,0.5245326133333333,-1.1965637,2.624428866666667,2.1716638333333336,-2.999489066666667
986,1778415300100,-1.5367969,0.6669748999999999,-1.1799621500000002,2.00354085,1.9552610000000001,-2.4560182900000003
987,1778415300110,-1.3543777,0.759709,-1.1531161,1.5168865,1.8603353999999999,-2.0716121
988,1778415300120,-1.06426025,0.9289322600000001,-1.04816479,1.0191681320000001,1.85691462,-1.7526123999999998
989,1778415300130,-0.8705081333333333,1.1328710333333334,-0.7785921666666666,-0.06928025333333332,2.0391099666666666,-1.006829
990,1778415300140,-0.8949099333333334,1.2365051333333332,-0.5345434,-0.3416502666666667,2.2432007444444446,-0.3375440155555556
991,1778415300150,-0.92124273,1.25728068,-0.379351418,-0.32701708,2.29415902,0.095017296
992,1778415300160,-0.8980672555555557,1.2113647,-0.20410743888888888,-0.17678937333333333,2.2663452,0.7542436466666667
993,1778415300170,-0.7947841999999999,1.14526194,-0.10933564599999998,0.13527213200000002,2.04591072,1.5474822700000002
994,1778415300180,-0.7109968,1.1351475,-0.08062462,0.3420235555555556,1.8276210666666666,1.9576212111111113
995,1778415300190,-0.557995944,1.13921278,-0.018891345998,0.67471134,1.41502771,2.5620002499999996
996,1778415300200,-0.45723194444444437,1.1374782222222222,0.051679849259999994,0.8606329,1.1804623111111112,2.804051877777778
997,1778415300210,-0.451748908,1.12708096,0.097493498,1.0313239680000001,1.007653602,2.93718264
998,1778415300220,-0.5240075222222222,1.0820651333333333,0.20567255888888888,1.2758053666666667,0.8501721266666666,3.0171018666666662
999,1778415300230,-0.6948339,1.0186128888888888,0.29719213666666666,1.5248529,0.76297368,3.0327804
1000,1778415300240,-0.7845275,0.98911256,0.33483663,1.7411437,0.70026004,3.026672
