id,timestamp,acc_x,acc_y,acc_z,gyro_x,gyro_y,gyro_z
0,1778415341900,-5.3844415625,-0.76498367375,-0.8313557125,0.592292775,1.9872388375,8.597216874999999
1,1778415341910,-4.60767741,-1.096124941,-0.5759787249999999,-0.717226312,1.4994467400000002,9.144581800000001
2,1778415341920,-4.000064,-1.1781209,-0.30951330555555556,-1.2582265777777777,1.2263437222222224,9.129595777777778
3,1778415341930,-3.61532068,-1.1955392599999999,-0.06375371800000001,-1.76875407,1.01473945,8.902258999999999
4,1778415341940,-3.0231676,-1.2358783333333332,0.46153774666666675,-2.1023242555555557,1.1516167444444445,8.376964444444445
5,1778415341950,-2.6881752000000003,-1.2736719333333333,0.73335578,-2.0843382,1.4471989666666667,7.813220166666666
6,1778415341960,-2.2614217,-1.35403629,0.8542785160000002,-1.7011333,1.70835656,7.17411098
7,1778415341970,-1.9661513,-1.4586996,0.8465872999999999,-1.2797504333333334,1.834408311111111,6.592034611111111
8,1778415341980,-1.74607745,-1.54483105,0.76788013,-0.9139801750000001,1.8078025,6.0706
9,1778415341990,-1.6445472,-1.5711893,0.71552956,-0.78784025,1.7784818,5.858025
10,1778415342000,-1.474801511111111,-1.5768806777777777,0.6056044444444445,-0.7072084077777778,1.6863117555555556,5.450114866666667
11,1778415342010,-1.054152962,-1.6209177000000001,0.3933583,-0.6372053,1.41563854,4.35448576
12,1778415342020,-0.8826429566666667,-1.6480535,0.31832141333333336,-0.6945842133333333,1.2914328444444445,3.9340684444444443
13,1778415342030,-0.8243164000000001,-1.6500049,0.28138837,-0.704765,1.2678134,3.8617
14,1778415342040,-0.6627487044444443,-1.6366639666666667,0.20746807444444446,-0.8884264333333333,1.08659544,3.465871
15,1778415342050,-0.32499525888888886,-1.5869997444444446,0.18909978666666669,-1.145228288888889,0.9410102044444445,3.049408888888889
16,1778415342060,0.010823797999999996,-1.47490922,0.26386296000000004,-1.54872687,0.8675252849999999,2.45510196
17,1778415342070,0.21215331222222222,-1.4481638222222222,0.3514263155555556,-1.7916744111111111,0.7961291111111111,1.9325764888888888
18,1778415342080,0.42291799,-1.43555327,0.46909139,-1.8731478200000002,0.618284318,1.3467960399999999
19,1778415342090,0.5000258055555555,-1.4396266777777778,0.5584201222222221,-1.7966290000000003,0.45734643,1.0099850133333332
20,1778415342100,0.5443542611111112,-1.4736564555555556,0.6911683722222223,-1.411388,0.13583716,0.4894752955555556
21,1778415342110,0.49647714499999995,-1.5554261,0.7336098750000001,-0.90516872,-0.1251167936,0.06728483199999999
22,1778415342120,0.43370417333333333,-1.6633422444444443,0.7103937444444445,-0.17549981666666667,-0.31204963222222226,-0.42971408
23,1778415342130,0.441254414,-1.7423304000000002,0.5986995800000001,0.24614091700000001,-0.219370522,-0.714905098
24,1778415342140,0.49930082,-1.7679860888888888,0.5223746733333334,0.3605526133333333,-0.09323056333333334,-0.84617617
25,1778415342150,0.7504943222222222,-1.8034792555555557,0.34499642444444445,0.39380984444444445,0.1390271388888889,-1.0873929277777779
26,1778415342160,0.8444913780000001,-1.81176422,0.218342014,0.1369214132,0.312860703,-1.59219627
27,1778415342170,0.7836433066666666,-1.7970764333333333,0.17489842,-0.18221913288888889,0.4608078955555556,-1.9286739000000002
28,1778415342180,0.637104256,-1.7566391799999999,0.17678471199999998,-0.42340877800000004,0.582984974,-2.13917189
29,1778415342190,0.5484398666666667,-1.7319101,0.18755837666666667,-1.1254605999999998,1.0120720933333334,-2.9750552333333333
30,1778415342200,0.27451804999999996,-1.7167058444444443,0.3168951888888889,-1.5855473555555557,1.3895756666666665,-3.6492949444444442
31,1778415342210,-0.18255943599999996,-1.70437998,0.6021021799999999,-2.19298752,1.9349808,-4.799213379999999
32,1778415342220,-0.6408910622222223,-1.6962710666666667,0.8926841666666666,-2.4409371666666666,2.0552634444444444,-5.818761522222222
33,1778415342230,-1.2784079333333334,-1.6993064,1.1527807,-2.2028424111111113,1.6903840666666667,-6.580589833333334
34,1778415342240,-1.74947405,-1.59834323,1.2932401199999999,-1.57001484,1.0040191200000002,-7.3946879999999995
35,1778415342250,-2.6701151333333337,-1.2033934333333334,1.4826576666666667,-0.86093828,0.37712182833333335,-8.145215666666665
36,1778415342260,-4.67926078,-0.24506919000000002,1.4962885400000001,-0.23038103599999998,-0.006490252999999996,-8.745637599999998
37,1778415342270,-6.273214911111111,0.7144319111111112,1.4194459000000001,0.17471928666666667,-0.009748104444444442,-8.630838777777777
38,1778415342280,-6.88052325,1.35462781,1.3600366000000002,0.228243079,0.410069384,-8.0184849
39,1778415342290,-6.9567165,1.8532789000000003,1.2905021,0.2565049366666667,1.1421146555555555,-7.187814144444445
40,1778415342300,-6.04802974,2.29799382,0.852452196,0.31748784999999996,1.48894025,-6.591079949999999
41,1778415342310,-4.638851377777779,2.3222018,0.8070864133333333,0.5849371633333333,1.8778462666666667,-5.855072666666667
42,1778415342320,-4.027592766666667,2.261656266666667,0.7789885499999999,0.8447508866666666,1.9806721999999999,-5.4305338999999995
43,1778415342330,-2.9231583199999998,2.06302888,0.65861156,1.30858755,1.7390821000000003,-4.99001115
44,1778415342340,-2.187139777777778,1.9093118999999998,0.5445575055555555,1.7472861222222222,1.4310454,-4.714960166666667
45,1778415342350,-1.8234295499999997,1.7618863,0.44110806,2.0545084,1.27911415,-4.53034855
46,1778415342360,-1.747378311111111,1.5322845333333333,0.3319197711111111,2.356809866666667,1.3352102666666665,-4.220581066666667
47,1778415342370,-1.6659874199999998,1.41410692,0.231056162,2.68814025,1.4552214099999998,-3.66753456
48,1778415342380,-1.6125941,1.3647138,0.17571147,2.8967310333333334,1.5005462999999999,-3.3081706222222227
49,1778415342390,-1.1125344,1.3681285,0.052960407,3.2169506999999995,1.5090982,-2.7765298
50,1778415342400,-0.7257842533333334,1.365283,-0.03011354666666667,3.562418711111111,1.4861573888888888,-2.4417177666666667
51,1778415342410,-0.4336669266666667,1.3181628888888888,-0.09876931155555554,3.953021822222222,1.51127,-2.2235094888888884
52,1778415342420,-0.26504596,1.2880324399999998,-0.178565292,4.245526119999999,1.55430084,-2.0723451600000002
53,1778415342430,-0.14064845,1.2849022666666667,-0.3269601266666667,4.447409411111112,1.6158606777777778,-1.8765482444444446
54,1778415342440,-0.071193178,1.29672812,-0.567136756,4.51819301,1.64342341,-1.6691859399999998
55,1778415342450,-0.12778185,1.305086311111111,-0.7928680888888889,4.326291888888889,1.5663820222222222,-1.369850422222222
56,1778415342460,-0.258521182,1.32175398,-0.9861428999999999,3.9615736,1.4519839,-0.98941985
57,1778415342470,-0.33866135444444445,1.3867713666666668,-1.0958294999999998,3.308102711111111,1.3436942555555556,-0.42801728977777775
58,1778415342480,-0.374631624,1.5015206200000002,-1.1402493999999999,2.1280544200000002,1.24594516,0.45602800920000003
59,1778415342490,-0.3622027111111111,1.5555481111111111,-1.0380484,1.3356938999999999,1.2472482666666667,0.9877908666666665
60,1778415342500,-0.35403488333333333,1.5691363,-0.9730242800000001,0.9559250499999999,1.2684243000000002,1.2451866333333332
61,1778415342510,-0.32620806,1.58197038,-0.731951236,0.279920742,1.30165442,1.7249562999999999
62,1778415342520,-0.33937956,1.5310648999999998,-0.4675984333333334,-0.41468045333333337,1.2230858666666669,2.2728863333333336
63,1778415342530,-0.372320504,1.4693052,-0.31136574,-0.68350754,1.05267304,2.58490708
64,1778415342540,-0.4201600177777778,1.4024090777777778,-0.16906135888888887,-0.8054869388888889,0.8400676755555555,2.8725346444444444
65,1778415342550,-0.523457388,1.33991968,-0.0681991014,-0.7453252600000001,0.511996888,3.23912452
66,1778415342560,-0.6669901666666667,1.2969557333333332,-0.06810356199999999,-0.5982739666666667,0.3097250066666667,3.537136433333333
67,1778415342570,-0.8453542000000001,1.26997656,-0.110378388,-0.52511484,0.396730018,3.7785026299999998
68,1778415342580,-1.0577040000000002,1.2409870666666665,-0.14392099333333333,-0.4714213666666666,0.5779548144444444,3.865908177777778
69,1778415342590,-1.171941711111111,1.2457908444444443,-0.16460648111111112,-0.4064000777777778,0.7187381388888889,3.8610214000000003
70,1778415342600,-1.5069477,1.31204606,-0.275491684,-0.22671597999999998,0.8697854140000001,3.7847332600000003
71,1778415342610,-1.864888622222222,1.3662416888888889,-0.42634263222222224,-0.11875889666666667,0.8958074933333333,3.735458266666667
72,1778415342620,-3.040854966666666,1.534425588888889,-0.9430123444444445,-0.22993309666666667,0.7695148266666667,3.8658231999999995
73,1778415342630,-4.09448902,1.5930929200000001,-1.3068872200000001,-0.45676103999999995,0.7609935059999999,4.09365398
74,1778415342640,-4.4709079888888885,1.5760607888888891,-1.3909720777777776,-1.1037246111111112,0.9475937955555556,4.778386666666666
75,1778415342650,-4.56566871,1.49543184,-1.3115339,-1.81084136,1.47415764,5.48076612
76,1778415342660,-4.1332596666666666,1.4092827777777777,-1.1671243111111111,-2.762853611111111,1.9768714222222223,6.191887166666667
77,1778415342670,-3.8243764222222225,1.2132923555555555,-0.8172394,-3.1480947222222224,1.8169651555555555,6.4093486777777775
78,1778415342680,-3.5997223,1.009982725,-0.42648829499999996,-3.46025122,1.6277247,6.560652159999999
79,1778415342690,-3.3347236555555555,0.8458691444444444,-0.04675746888888889,-3.4801919666666667,1.4492351555555554,6.589760911111111
80,1778415342700,-3.15765983,0.74647649,0.15623472,-3.41437661,1.3260883399999999,6.58634613
81,1778415342710,-3.0211960444444443,0.6491978,0.2932217022222222,-3.0147263888888887,1.026664588888889,6.537898355555555
82,1778415342720,-2.8575110444444447,0.48029227333333335,0.44567979,-2.6940993888888887,0.8661983555555555,6.441248822222222
83,1778415342730,-2.48837684,0.127162907,0.62080145,-1.9302009999999998,0.5758915,6.03590408
84,1778415342740,-2.279099788888889,0.04318680111111111,0.7211599666666666,-1.6322432777777778,0.6295374555555555,5.718277111111111
85,1778415342750,-2.1235081399999998,-0.08205356999999999,0.8226821400000001,-1.29342326,0.82417038,5.37826576
86,1778415342760,-1.9970780555555554,-0.42260596666666667,0.8765247055555556,-0.7615738422222222,1.1136763666666667,4.979694555555556
87,1778415342770,-1.888474088888889,-0.7736223722222222,0.85875605,-0.10864597555555555,1.345119588888889,4.622349
88,1778415342780,-1.74548596,-1.086106048,0.781478512,0.38620818,1.54391645,4.333045
89,1778415342790,-1.6274153555555555,-1.2544058333333334,0.7054307222222221,0.6751389222222222,1.7364691111111112,4.065171511111111
90,1778415342800,-1.37950732,-1.50138024,0.5247866999999999,0.8826437220000001,2.05159163,3.5815043500000003
91,1778415342810,-1.2680686222222224,-1.5822569333333332,0.40469503333333334,0.8110863844444444,2.1962333333333337,3.1823699666666667
92,1778415342820,-1.1034519444444444,-1.6989947888888888,0.20035722222222221,0.49154539444444445,2.1266647333333335,2.773238
93,1778415342830,-0.945604,-1.7321133,0.11651595,0.082617095,1.8985133,2.42529265
94,1778415342840,-0.8045354222222222,-1.7775732444444445,0.18792085222222224,-0.22382462,1.6571267666666667,2.239900533333333
95,1778415342850,-0.790576602,-1.8043522200000002,0.260817046,-0.49732129999999997,1.38564594,2.13031458
96,1778415342860,-0.7321971977777778,-1.8633032333333333,0.4639972711111111,-0.6245404111111111,1.0568675666666667,2.1787479333333333
97,1778415342870,-0.5983750388888889,-1.8530485333333333,0.6001027833333333,-0.49714482666666665,0.6691407444444445,2.249334722222222
98,1778415342880,-0.375750589,-1.81015739,0.791015649,-0.30136149199999995,0.376510976,2.22401852
99,1778415342890,-0.1871857188888889,-1.737852111111111,0.8724255888888889,-0.13504814666666667,0.3345661266666667,2.0081858666666665
100,1778415342900,-0.0840658808,-1.67293912,0.86283694,-0.06508577694,0.339982306,1.84150602
101,1778415342910,0.12349298433333332,-1.5216335333333335,0.7588044333333334,-0.0035123715,0.2826441211111111,1.3137543222222223
102,1778415342920,0.2697074666666667,-1.4181315222222224,0.6677862666666667,-0.06099988444444445,0.06199251444444445,0.8354184888888889
103,1778415342930,0.473381292,-1.2486826,0.5571605639999999,-0.331048674,-0.480629872,0.0021685160000000205
104,1778415342940,0.5316434999999999,-1.1636044555555556,0.5500794999999999,-0.7144707077777778,-1.0435052444444444,-0.8948402955555557
105,1778415342950,0.5084443,-1.1587261,0.5803387,-0.90939885,-1.291102,-1.3061441
106,1778415342960,0.5558894666666666,-1.156693488888889,0.6088126111111111,-1.1301692833333332,-1.5839015333333333,-1.7195349666666666
107,1778415342970,0.7433902666666667,-1.1617175333333334,0.8363767333333334,-1.4235371333333333,-2.768071244444444,-3.378723433333333
108,1778415342980,0.5512669299999999,-1.3235986,1.1406763500000001,-1.3816601499999999,-3.52626845,-4.69497205
109,1778415342990,0.09510378577777777,-1.4989459,1.3517726222222222,-1.04319984,-3.941441133333333,-5.988033766666667
110,1778415343000,-0.24874011840000004,-1.5215949,1.395496,-0.705986716,-4.23253024,-6.974745560000001
111,1778415343010,-1.0376248888888888,-1.4316959666666667,1.420912777777778,-0.22905074822222224,-4.508477022222222,-8.219535166666667
112,1778415343020,-1.8225350666666666,-1.2251121666666664,1.3776312000000002,0.15612237955555555,-4.400560633333333,-9.366612777777776
113,1778415343030,-2.9366773999999998,-0.8596355499999999,1.054616424,0.26916985000000004,-3.7186853999999996,-10.173508
114,1778415343040,-3.943495888888889,-0.4764438,0.6508374177777778,0.058590437777777775,-2.860784388888889,-10.510696222222222
115,1778415343050,-4.34758323,-0.29337689499999997,0.46748152200000004,-0.10674555599999999,-2.4578967,-10.569338
116,1778415343060,-5.134334066666667,0.12714156666666668,0.22883449,-0.7586553333333333,-1.2974141555555556,-10.268596555555556
117,1778415343070,-5.568146755555556,0.5388864488888889,0.030604766000000005,-1.2358203666666667,-0.7425612133333332,-9.674217
118,1778415343080,-5.57891694,1.033828636,-0.031014006399999995,-1.6675366600000001,-0.66192936,-8.3075382
119,1778415343090,-5.082322244444445,1.5850722555555556,0.13758254666666667,-1.6528763666666666,-0.7898000133333333,-7.2089903333333325
120,1778415343100,-4.752722400000001,1.7674263799999999,0.25146588400000003,-1.5702287299999997,-0.7996753699999999,-6.880713349999999
121,1778415343110,-4.237208666666667,1.8972956666666667,0.39330546,-1.1772044333333334,-0.48600535666666667,-6.4164416666666675
122,1778415343120,-3.8577068,1.8853478,0.45171538,-0.7377507750000001,0.16301986500000004,-6.2291151
123,1778415343130,-3.372923833333333,1.7317304555555555,0.40318750000000003,-0.02149842777777778,1.1264702666666666,-5.9943458666666665
124,1778415343140,-3.0087731599999996,1.56418884,0.264338602,0.723823485,1.97584655,-5.63763145
125,1778415343150,-2.903828,1.5157592,0.20546931,0.927893988888889,2.1831341444444443,-5.488564444444444
126,1778415343160,-2.5953648,1.4306017,0.09052358,1.345857722222222,2.550185488888889,-5.044207222222222
127,1778415343170,-2.43823992,1.39838644,0.0407462822,1.63833807,2.6984788600000003,-4.66766693
128,1778415343180,-1.705824488888889,1.2815449222222222,-0.08616695111111111,2.1848904222222223,2.6744589333333333,-3.9113822999999996
129,1778415343190,-1.35242042,1.2329804599999998,-0.14230098600000002,2.4751380000000003,2.5769813,-3.53239234
130,1778415343200,-0.87100612,1.1980271666666666,-0.24690464999999998,2.8512568666666667,2.2606439,-3.0850076333333334
131,1778415343210,-0.737204611,1.2086955,-0.28810522299999997,2.94377976,2.14670052,-2.92704254
132,1778415343220,-0.5890147388888889,1.2645826111111111,-0.34601951555555555,2.9738334777777777,1.992278422222222,-2.6364421555555553
133,1778415343230,-0.404932169,1.39602048,-0.355432321,2.8372481,1.8730409399999999,-2.24167196
134,1778415343240,-0.2555738533333333,1.5305500444444444,-0.34361762,2.591918211111111,1.7959927222222223,-1.7723648222222221
135,1778415343250,-0.1083721778,1.70222738,-0.34841668000000003,2.32150981,1.7618668200000003,-1.28668106
136,1778415343260,-0.052679226777777775,1.7946406333333331,-0.35469888000000005,2.2026728666666666,1.7378944666666667,-1.0775515866666667
137,1778415343270,-0.07199607,1.8946126666666667,-0.26658059333333334,1.851978611111111,1.5450023888888889,-0.34976096888888886
138,1778415343280,-0.093706686,1.8778626500000002,-0.181138615,1.65593064,1.35229363,0.2223178656
139,1778415343290,-0.09043549666666667,1.784965277777778,-0.01233134222222222,1.5615546777777778,1.0550350444444443,0.9093988444444445
140,1778415343300,-0.012567808800000002,1.6672802,0.14455112080000002,1.6672312000000002,0.6114199300000001,1.4882148
141,1778415343310,0.049078066000000004,1.5915359111111111,0.2395769911111111,1.775962,0.31542626,1.7982579999999997
142,1778415343320,0.116305566,1.50641108,0.338574632,2.15236609,-0.0644596636,2.07350578
143,1778415343330,0.12154165,1.3415314666666667,0.37151558,2.9206898333333333,-0.4772498666666667,2.211598
144,1778415343340,-0.037130214,1.20802464,0.33805934400000004,3.4125439999999996,-0.6370068,2.0736280000000002
145,1778415343350,-0.2523419766666667,1.1433491666666666,0.2870594166666667,3.714519755555555,-0.6832411666666667,1.917305377777778
146,1778415343360,-0.6444448322222223,1.1005147888888889,0.17122610555555556,4.191684866666666,-0.714055,1.5909771333333333
147,1778415343370,-1.09151493,1.18186779,-0.0002987999999999991,4.4040864,-0.801813382,1.36447244
148,1778415343380,-2.1583677666666663,1.3346307777777777,-0.2660013044444444,4.539171888888889,-0.778261828888889,1.0522692666666666
149,1778415343390,-3.4535183799999998,1.31945506,-0.42318322999999997,4.41153885,-0.31283015000000003,1.06821915
150,1778415343400,-4.496962833333333,1.1946564333333334,-0.5311556500000001,3.966833633333333,0.6005307288888889,1.5221889444444445
151,1778415343410,-5.4869544,1.01449214,-0.670935488,3.5405776099999997,1.25058759,1.99916567
152,1778415343420,-6.023359666666667,0.7372076444444444,-0.7988507755555555,2.7110334444444444,2.1047420666666667,3.0002696777777778
153,1778415343430,-5.742704,0.302548145,-0.9211878849999999,1.26707286,2.8886355299999997,4.62415183
154,1778415343440,-5.2390354,-0.06068443666666666,-0.8307496833333334,0.1601268222222222,3.1807156666666665,5.4993899
155,1778415343450,-4.819081877777778,-0.37224732444444447,-0.5972977277777778,-1.1472729733333333,3.3960054,6.0160309
156,1778415343460,-4.49218567,-0.62326807,-0.384790763,-2.01474228,3.5895522800000004,6.25849652
157,1778415343470,-4.042210755555556,-0.8982333222222222,-0.10809574444444443,-3.185220588888889,3.850484166666667,6.5642069111111105
158,1778415343480,-3.6971060000000002,-1.1077323,0.212192255,-3.97169065,3.655959,6.7991114999999995
159,1778415343490,-3.5270453666666666,-1.3647950333333334,0.5198169533333333,-4.6765786,2.8228948999999997,7.408567722222222
160,1778415343500,-3.41082112,-1.4920077600000001,0.6198715800000001,-4.80345836,2.5507149399999998,7.647395399999999
161,1778415343510,-2.9488475333333333,-1.6655612666666666,0.7321836444444445,-4.996866422222222,1.7391839444444446,8.350493666666665
162,1778415343520,-2.31603445,-1.6742744999999999,0.7810669299999999,-4.99123302,0.97042252,8.8271856
163,1778415343530,-1.4635948111111112,-1.5798144,0.8341509933333333,-4.7593144,0.10224055733333332,8.805847
164,1778415343540,-0.8190925,-1.4340876666666666,0.84406346,-4.5828476,-0.2084091951111111,8.427053888888889
165,1778415343550,-0.50460262,-1.3112655,0.8347438,-4.3794695,-0.313746415,7.647273299999999
166,1778415343560,-0.30465530888888886,-1.2192717222222222,0.8385854977777778,-4.162109633333333,-0.31781874,6.7820844
167,1778415343570,-0.246368032,-1.19007554,0.8990097799999999,-3.9918869,-0.28198236,6.167114
168,1778415343580,-0.24316458666666665,-1.2005477,0.9877203,-3.9918868999999995,-0.28198236,6.167114
169,1778415343590,-0.24470939,-1.204613,1.0125287,-3.9918869,-0.28198236,6.167114
170,1778415343600,-0.28749643666666663,-1.3442146666666668,1.0821668333333332,-1.9446322666666669,-0.9624661866666666,4.714519066666666
171,1778415343610,-0.25933220700000004,-1.4744793299999999,1.0845236100000002,-0.09575030999999999,-1.5964646400000002,3.87143542
172,1778415343620,-0.2139115388888889,-1.5208407555555554,1.043279,0.5029478611111111,-1.788213011111111,3.7764529555555555
173,1778415343630,-0.04335618638,-1.6599342666666668,0.8382806333333332,2.1151605,-2.1502331666666668,3.3557148
174,1778415343640,0.129431329629,-1.7659413700000002,0.633296102,2.888315,-2.23469292,2.9446961000000003
175,1778415343650,0.25334811,-1.8016802333333333,0.4822639133333333,3.225909888888889,-2.235751755555556,2.6116350333333336
176,1778415343660,0.56279502,-1.828936,0.060716956,3.47631644,-2.13329248,1.848103
177,1778415343670,0.7094418,-1.8541834333333336,-0.17457319333333332,3.3348441666666666,-1.9339679666666665,1.1770007999999998
178,1778415343680,0.93939324,-1.87545699,-0.48928770700000007,2.5244942200000002,-1.5052651200000002,-0.06184830200000001
179,1778415343690,1.1655423111111112,-1.8542613777777777,-0.7222305155555556,1.6133663333333335,-1.3692905222222223,-0.9513776755555556
180,1778415343700,1.3383951399999998,-1.7887689999999998,-0.8087362199999999,0.60031013,-1.5574315,-1.7786727499999997
181,1778415343710,1.4241345222222224,-1.7335563555555555,-0.8287644733333334,-0.1160524911111111,-1.8027291,-2.360814422222222
182,1778415343720,1.3758628666666668,-1.5841878666666667,-0.62931518,-1.5233766999999998,-2.4688919000000005,-3.656989733333333
183,1778415343730,1.06451948,-1.54237656,-0.058229020000000006,-2.8765256,-2.78152356,-5.49829734
184,1778415343740,0.3277833888888889,-1.6000832666666667,0.7695910022222222,-3.504965188888889,-2.3877849666666666,-6.972558611111111
185,1778415343750,-0.5601973259999999,-1.6121276299999998,1.50813067,-3.5006892499999998,-1.7880644499999998,-7.909937600000001
186,1778415343760,-1.3029655,-1.329921788888889,1.7813775666666665,-2.8694126222222223,-1.2812606,-9.107503777777778
187,1778415343770,-1.86419405,-0.9706969000000001,1.8362046499999998,-2.3424007199999997,-1.36330416,-9.714961
188,1778415343780,-3.6619142222222223,-0.17152762644444441,1.8450397999999997,-0.95577232,-2.268517088888889,-10.964217
189,1778415343790,-5.11625586,0.22838526639999998,2.0353992,-0.40453359000000005,-2.4731679,-10.9978475
190,1778415343800,-6.187349677777778,0.8287035111111111,2.3351159111111115,0.3259379377777778,-1.8663504888888889,-10.090569444444444
191,1778415343810,-6.413032799999999,1.65624304,2.3297091,0.9673301000000001,-1.0904387,-9.1257605
192,1778415343820,-5.908281266666666,2.2009618333333334,1.8769590999999997,1.9504607666666667,-0.4294001666666667,-8.067841333333334
193,1778415343830,-5.276049666666667,2.486181633333333,1.5471634333333333,2.916414,-0.46218231111111113,-7.34588788888889
194,1778415343840,-4.825458599999999,2.4045426999999995,1.3243822,3.59903575,-0.38735352500000003,-6.640253200000001
195,1778415343850,-4.2831803,2.1842432888888887,1.0045098777777777,3.985201455555556,-0.27967472000000004,-6.050340188888889
196,1778415343860,-3.2456496899999996,1.66789917,0.4194086255,4.52772214,-0.239956067,-4.69802645
197,1778415343870,-2.450204,1.4363981777777777,-0.23261519555555557,4.6103018111111105,-0.22130486777777778,-3.844808377777778
198,1778415343880,-1.9980801799999999,1.3974962,-0.506450276,4.49197973,-0.1655548705,-3.42396679
199,1778415343890,-1.2165751,1.2696879333333333,-0.6961890066666667,3.4477832777777775,0.12002299666666666,-3.0751662777777775
200,1778415343900,-0.7946127777777777,1.1181919666666669,-0.6157168255555555,2.7086579222222222,0.3168515522222222,-2.847931088888889
201,1778415343910,-0.731811,1.0901551,-0.59646773,2.5224173,0.34291437,-2.7447658
202,1778415343920,-0.731811,1.0901551,-0.59646773,2.5224173,0.34291437,-2.7447658
203,1778415343930,-0.4365132792,1.09864338,-0.699351786,2.68734614,-0.292855418,-2.2536446000000003
204,1778415343940,0.16777402311111111,1.2613337444444446,-1.0613966644444444,3.0541939555555557,-1.8719922666666666,-1.2932824666666667
205,1778415343950,0.30943268,1.43241284,-1.2124793,3.18640848,-2.66851682,-1.06595906
206,1778415343960,0.27584941999999996,1.5375694,-1.1118026333333333,3.236973088888889,-2.949085666666667,-1.0080506777777778
207,1778415343970,0.265116076,1.6037155300000001,-1.05155825,3.23588708,-2.77956876,-0.9855715
208,1778415343980,0.2986624,1.7059057555555555,-0.9863346333333334,3.191498811111111,-2.1923817000000003,-0.9492736111111112
209,1778415343990,0.21249409,1.72364928,-0.48248547799999997,3.13986186,-1.33390714,-0.823574808
210,1778415344000,0.10046317666666665,1.6796914,0.11704952333333335,3.1817252000000003,0.010028099999999984,-0.5688514933333333
211,1778415344010,0.11023001,1.5837000666666665,-0.058987163333333315,2.9140383333333335,2.1624671666666666,-0.14790986888888888
212,1778415344020,0.23518309444444446,1.4818513777777778,-1.1997041055555555,1.8453101364444444,3.8579500777777778,0.22246718222222223
213,1778415344030,0.029270003999999995,0.9622268999999999,-0.51318846,-0.15347537299999997,2.067718,0.778372125
214,1778415344040,-0.38412469666666665,0.7401719444444445,0.78304368,-0.09106714466666667,-0.18709743333333337,2.3439227666666667
215,1778415344050,-0.364448105,0.930252465,0.25659425,-0.1962957748,-0.95990068,3.3997773600000003
216,1778415344060,-0.2370734611111111,1.0408026000000001,0.2795860988888889,-0.4309697111111111,-2.0965126777777776,3.9293429
217,1778415344070,-0.24220925000000001,1.11124168,0.54046445,-0.60226485,-2.82599325,4.1675054099999995
218,1778415344080,-0.40094818000000004,1.3599405444444443,0.5874394422222222,-0.7640172222222223,-3.494979611111111,4.271722888888889
219,1778415344090,-1.230840068,1.55042586,1.038213,-0.7637728960000001,-3.94995236,3.7291769
220,1778415344100,-2.1489058777777776,1.3191250333333333,1.3786136000000002,-0.4514670444444444,-4.295053711111112,3.205378611111111
221,1778415344110,-2.812765833333333,0.9316193588888889,1.3641886777777779,-0.18323721555555558,-4.440435222222223,3.3243070777777777
222,1778415344120,-4.486627820000001,0.34127603,0.58965026,-0.294336747,-4.53382298,4.585691280000001
223,1778415344130,-4.627719222222222,0.2843661966666666,0.3716172111111111,-0.7564155555555555,-5.5365755555555545,6.067172444444444
224,1778415344140,-4.3512751000000005,-0.12201932499999998,0.594607875,-1.4295734999999998,-6.568059,7.6714015
225,1778415344150,-2.362048333333333,-0.8529359666666667,3.60194791,-2.7352976444444446,-4.9901638888888895,10.203439444444445
226,1778415344160,-1.1777820899999998,-0.81811177,4.63740465,-3.7549390799999998,-3.16623506,11.273094
227,1778415344170,1.0304361333333334,1.0526529333333334,1.4127756,-5.005078566666667,-2.4957692,9.240617166666667
228,1778415344180,0.8638003360000001,0.7662947200000001,2.2249773999999998,-5.454499419999999,-3.1865151999999997,7.370528500000001
229,1778415344190,0.21752284000000005,0.469295668,3.0657987666666666,-5.016074166666666,-2.0591915733333335,4.6067807
230,1778415344200,-0.9566309711111111,-0.6089142871111111,2.9975696444444444,-2.917304811111111,0.6730094888888889,0.7686749399999999
231,1778415344210,-1.40038655,-0.8633126000000001,2.1455366,-0.02493024999999993,1.86644385,-0.20295400999999996
232,1778415344220,-1.4463954,-0.7279998,1.5946052,1.4417522,1.9928892,-0.20295401
233,1778415344230,-0.150719162,-0.2087591416,1.04997593,3.73518594,3.2001449199999996,-1.373070181
234,1778415344240,0.3664848066666667,-0.5698503333333333,-0.11748651333333335,3.5759932111111112,5.257604666666667,-2.3821262
235,1778415344250,0.43277832099999997,-1.0038756100000001,-0.647678025,2.6151441,5.554938,-3.03271916
236,1778415344260,0.5676042744444445,-1.0082566555555554,-0.6995563888888889,2.0359794333333334,4.885327333333333,-3.2998224
237,1778415344270,0.649992195,-0.9354357,-0.579378305,1.4115535,4.1480347,-3.4991622
238,1778415344280,0.5393776955555556,-0.9150805222222222,-0.28155774999999994,0.8309049777777777,3.2885386666666667,-3.611829555555556
239,1778415344290,0.3365338666666667,-0.7835619866666668,0.13233497,0.5755708055555556,1.4378327222222222,-3.3870377333333335
240,1778415344300,0.21230505800000002,-0.6544467,0.33588544800000003,0.723395855,0.26232077500000006,-3.1622799
241,1778415344310,0.18572221666666666,-0.5347974666666667,0.4710030666666667,0.9795444533333332,-0.87735485,-2.9483815333333334
242,1778415344320,0.18296799400000002,-0.493175134,0.5428060419999999,1.1403601799999998,-1.25200782,-2.8647972299999998
243,1778415344330,0.13422531222222223,-0.4749735233333333,0.6749953611111111,1.553783311111111,-1.7655945888888889,-2.660536733333333
244,1778415344340,0.060607197999999994,-0.543202416,0.7403297600000001,2.04247473,-1.7420295,-2.43170656
245,1778415344350,-0.02245049333333333,-0.6043340333333334,0.7332744666666666,2.443957522222222,-1.5896705888888887,-2.217129488888889
246,1778415344360,-0.19715175599999998,-0.6584957,0.49990724000000003,2.96674772,-1.4003215399999998,-1.8965433
247,1778415344370,-0.20580809,-0.6563865,0.4177547455555556,3.1407984222222223,-1.3915525333333332,-1.7902830222222224
248,1778415344380,-0.16540261222222222,-0.6455220944444444,0.2510444522222222,3.4269463333333334,-1.5175227999999998,-1.7243114666666668
249,1778415344390,-0.130059424,-0.662102649,0.191965466,3.52695575,-1.55712605,-1.7765729000000001
250,1778415344400,-0.00842867777777778,-0.6863137566666667,0.12114866444444444,3.5516272222222223,-1.6272716333333335,-1.9893513333333332
251,1778415344410,0.10150592,-0.6963089339999999,0.062070692799999994,3.5075918,-1.7652721800000002,-2.30031328
252,1778415344420,0.115677475,-0.69252008,0.041709752,3.372309444444445,-2.060235111111111,-2.8520033555555555
253,1778415344430,0.03547462855,-0.72944803,0.043066539,3.2062609,-2.3919252500000003,-3.44632385
254,1778415344440,-0.11618903239999999,-0.8742007777777778,0.11909570044444445,2.975258933333333,-2.6460375666666667,-4.188452466666666
255,1778415344450,-0.35848297777777777,-1.085310571111111,0.26552363333333334,2.8048325555555556,-2.606739711111111,-4.723716
256,1778415344460,-0.61907576,-1.33616025,0.43147335,2.69211075,-2.1387900600000003,-5.3170588
257,1778415344470,-0.8088920577777778,-1.537332288888889,0.5364100133333333,2.681034022222222,-1.9366318666666669,-5.516595333333333
258,1778415344480,-1.0597752599999999,-1.67123162,0.537141088,2.77836244,-1.5347079200000002,-6.1098776
259,1778415344490,-1.4275019999999998,-1.5358619666666666,0.4612464233333334,2.866867288888889,-1.379606977777778,-6.8079011666666664
260,1778415344500,-2.37696798,-1.3487006400000001,0.458660928,2.7467205199999998,-1.69919386,-7.4089817
261,1778415344510,-3.3814439666666667,-1.1716469333333333,0.4951102111111112,2.3847731999999997,-2.062746511111111,-7.570747555555554
262,1778415344520,-3.9510233000000006,-1.0694221,0.5310371,2.0082876333333335,-2.1294646,-7.369235833333333
263,1778415344530,-4.3233806999999995,-0.779847369,0.604398038,1.5566526,-1.89834532,-6.9673238
264,1778415344540,-4.147250666666667,-0.2851114855555556,0.7626732211111111,0.6399133722222222,-0.9110871777777779,-6.135383722222222
265,1778415344550,-3.88456184,-0.0964446518,0.8454700579999999,0.22103508940000002,-0.271781199,-5.80860769
266,1778415344560,-3.5341998666666665,0.12332020900000001,0.8639223766666667,-0.11835165066666667,0.6791348899999999,-5.565531133333334
267,1778415344570,-3.3826463555555555,0.24701644888888888,0.85228892,-0.15255909444444446,0.9351053444444444,-5.521957177777778
268,1778415344580,-3.15276025,0.518353405,0.83706105,0.047554458,1.4884515,-5.4111906
269,1778415344590,-3.0074620333333333,0.7252354233333334,0.7954122666666668,0.5552092477777778,1.9384558555555556,-5.132372888888889
270,1778415344600,-2.84579095,0.8249840800000001,0.72758816,1.04115866,2.2004551,-4.7964337
271,1778415344610,-2.698036811111111,0.8678385444444445,0.6583988111111112,1.5645834666666667,2.3929942333333334,-4.286365833333333
272,1778415344620,-2.45313996,0.90124772,0.536485532,1.99079708,2.56604716,-3.74282905
273,1778415344630,-2.2618222222222224,0.89434758,0.4486338755555556,2.1595741333333334,2.6293919666666667,-3.4755427333333335
274,1778415344640,-1.88889068,0.8752400720000001,0.292163386,2.41832898,2.6278037999999997,-2.9966792
275,1778415344650,-1.5745904888888889,0.8755761444444444,0.19625806333333334,2.5686381666666667,2.544687833333333,-2.7040426666666666
276,1778415344660,-1.22269633,0.89148192,0.114872555,2.78227178,2.35927532,-2.2915172200000002
277,1778415344670,-1.0211774666666666,0.9100531,0.07638656999999999,2.912680922222222,2.2582684444444445,-2.0851186888888886
278,1778415344680,-0.8880904333333333,0.9235498,0.053925909999999994,2.9732227,2.214016,-2.000143
279,1778415344690,-0.739384602,0.944064228,0.0310993751,3.1289887199999997,2.1337506399999997,-1.86600088
280,1778415344700,-0.5810806533333334,1.0195411866666666,-0.01693188433333333,3.205480344444444,2.1422074444444443,-1.802160611111111
281,1778415344710,-0.46127081699999994,1.1107538,-0.043764747,3.3320954499999997,2.17052358,-1.57230557
282,1778415344720,-0.42344950555555555,1.1468351555555556,-0.04919324666666666,3.3554773222222223,2.1567319777777776,-1.4607479
283,1778415344730,-0.40585293800000005,1.1825628000000001,-0.07321768599999999,3.3936078199999997,2.1051629000000003,-1.14219274
284,1778415344740,-0.42444547222222223,1.2020653333333333,-0.12127739666666665,3.3876486111111115,2.026893,-0.79445775
285,1778415344750,-0.41254844999999996,1.2257056199999998,-0.149173336,3.32006176,1.96588976,-0.27759953200000004
286,1778415344760,-0.3331529111111111,1.2301225666666666,-0.16132039,3.210435066666667,1.9136826666666669,0.34945556000000005
287,1778415344770,-0.29984472,1.2103856333333334,-0.15790556333333333,3.162313877777778,1.8847013333333333,0.621282588888889
288,1778415344780,-0.285687386,1.1910907700000002,-0.138919699,3.0751120800000002,1.8610683000000001,1.01629712
289,1778415344790,-0.2643582544444445,1.1697836666666666,-0.09640806511111111,2.9691504444444443,1.9704235777777777,1.2627061222222222
290,1778415344800,-0.363356576,1.1707269,-0.0727786396,2.85227494,2.16722508,1.5478105999999998
291,1778415344810,-0.50802764,1.1009789,-0.005620247999999999,2.7274583999999997,2.272453666666667,1.9316263000000002
292,1778415344820,-0.78233837,1.02471523,0.1337791409,2.67115864,2.1323456,2.22884417
293,1778415344830,-1.0109228333333333,1.0208522333333334,0.16667638666666665,2.6519169666666667,1.9937036000000004,2.615978833333333
294,1778415344840,-1.40537165,1.0419511,0.13714215,2.62748312,1.8994295600000002,3.1374795200000003
295,1778415344850,-2.336010322222222,0.9732648166666666,0.18058303888888888,2.5238427333333333,1.3546216555555555,4.376618766666667
296,1778415344860,-3.0775981666666667,0.9532297555555557,0.14685138555555555,2.376153388888889,0.6148432,5.597261311111112
297,1778415344870,-3.6561707300000004,0.882478298,-0.21904632800000004,2.0541419000000003,-0.22932733699999996,6.812405200000001
298,1778415344880,-3.656626166666667,1.0550107266666666,-0.21729927333333335,1.8596481888888892,-0.5451217855555556,7.1982324222222225
299,1778415344890,-3.23715553,1.55376139,0.164207748,1.62349462,-1.059102224,7.413440919999999
300,1778415344900,-3.183126111111111,1.812731111111111,0.6077251644444446,2.139484077777778,-1.0509033244444443,6.988236911111112
301,1778415344910,-3.2572835555555555,1.6634507777777778,1.088495108888889,2.4598395777777777,1.09898212,6.197147411111111
302,1778415344920,-3.24910424,1.43259582,1.19563076,2.42614792,2.63905872,5.692119239999999
303,1778415344930,-3.0709177555555556,0.9894615000000001,1.1253671333333335,1.948560322222222,4.5718950000000005,4.887728377777778
304,1778415344940,-2.9495217555555557,0.6803919888888889,1.1208886333333334,1.9818854444444445,4.702955666666667,4.452737222222222
305,1778415344950,-2.6637347599999996,0.24756322000000003,1.19336848,2.2438710800000004,4.57489476,4.0243534
306,1778415344960,-2.241868588888889,0.04927116722222222,1.0923706666666666,2.5847238,4.366514466666667,3.6916807999999994
307,1778415344970,-1.9372166,0.000823219,0.8965279300000001,2.62955995,4.3278072,3.5797939
308,1778415344980,-1.5086144666666668,-0.05142576533333334,0.5197356200000001,2.527100577777778,4.075208,2.9114931444444445
309,1778415344990,-1.25431105,-0.1446121,0.30175541,2.3504639000000003,3.9272132999999996,2.5441024000000003
310,1778415345000,-1.1051153,-0.26007615,0.1576413133333333,2.0292600444444444,3.824557122222222,2.129744322222222
311,1778415345010,-1.031713311111111,-0.3560675111111111,0.06579652666666666,1.5182099555555555,3.805620811111111,1.7593673333333333
312,1778415345020,-0.9522323800000001,-0.45603268999999996,-0.034380056000000006,0.987404046,3.7800602,1.44981546
313,1778415345030,-0.8710874,-0.55039799,-0.12593214666666666,0.17614460111111113,3.659628311111111,1.1387381222222224
314,1778415345040,-0.833134,-0.616743322,-0.145953632,-0.548510284,3.3966620599999997,0.97500384
315,1778415345050,-0.7893143533333333,-0.67592358,-0.1283001646666667,-1.3070264666666667,3.0311937555555555,0.8986072333333333
316,1778415345060,-0.735152642,-0.748815013,-0.0661928887,-1.89122893,2.66879164,0.9066500700000001
317,1778415345070,-0.6853143888888888,-0.848054211111111,0.051754377,-2.7633966,1.888027,1.1014085
318,1778415345080,-0.65401378,-0.8982292319999999,0.136745786,-3.04035472,1.58227765,1.21209658
319,1778415345090,-0.5324158777777778,-0.9869038222222222,0.3258760611111111,-3.3423440444444443,1.0634172733333334,1.4396906555555555
320,1778415345100,-0.36221625,-1.0347555,0.39778235,-3.5941488,0.2989333885,1.7277051499999998
321,1778415345110,-0.094863258,-1.0397964666666668,0.4351168466666666,-3.623876666666667,-0.7865421876666666,1.9039345666666665
322,1778415345120,0.15120123355555556,-0.9973109,0.5035828977777778,-3.5008928333333333,-1.7283159666666668,1.8660620000000003
323,1778415345130,0.35013017900000004,-0.94551549,0.60114176,-3.3790085,-2.1474641,1.7696702800000002
324,1778415345140,0.5570040333333333,-0.871748,0.7531943333333333,-2.934637566666667,-2.8284773,1.3604585666666666
325,1778415345150,0.6800000500000001,-0.8225815000000001,0.891936205,-2.26323498,-3.351444,0.73860594
326,1778415345160,0.5530742777777777,-0.8684686666666667,1.0205948111111112,-1.4553945,-3.7581868000000003,0.12323844444444447
327,1778415345170,0.37078992099999997,-0.9812127800000001,1.12519375,-0.33471374109999996,-4.14835529,-0.478507192
328,1778415345180,0.2819575033333333,-1.0708755333333333,1.1722330666666665,0.2308493513333333,-4.213064333333333,-0.6407278666666667
329,1778415345190,0.240105473,-1.1986491899999998,1.1855539499999999,1.03452327,-4.123310460000001,-0.76597194
330,1778415345200,0.3292366988888889,-1.3425716,1.0505119111111112,1.798970677777778,-3.8213077,-0.8797049
331,1778415345210,0.6138603477777778,-1.4257743555555555,0.7712137333333333,2.2042338444444445,-3.559050555555556,-1.1287948444444444
332,1778415345220,1.068034835,-1.43403185,0.34764222499999997,2.2851032,-3.5299335999999997,-1.7172825499999997
333,1778415345230,1.2256812,-1.4049904,0.17693105,2.1968358,-3.6246150000000004,-2.1412487
334,1778415345240,1.44448672,-1.3230223,-0.23355631400000001,1.312550362,-4.25924731,-3.5323541
335,1778415345250,1.2433042333333333,-1.3550519333333333,-0.23749014999999998,0.24713862333333336,-4.703311866666667,-4.813035222222222
336,1778415345260,0.30436528,-1.49219074,0.20699989600000004,-1.3925713769999999,-5.204158990000001,-6.5440603
337,1778415345270,-1.0047401666666667,-1.4695302444444445,0.7288501222222222,-2.3899653333333335,-5.8255737666666665,-7.5871048
338,1778415345280,-2.57368058,-1.0977226,1.153055084,-2.71440664,-6.51366268,-7.92539192
339,1778415345290,-3.7235707999999996,-0.7010673199999999,1.4860623333333334,-2.816404533333333,-7.340076322222223,-8.013544000000001
340,1778415345300,-5.611357133333333,0.21178402222222223,2.3806944444444444,-2.066962944444444,-7.365019277777778,-7.342120977777777
341,1778415345310,-6.91766569,1.59959332,3.31544661,-0.07134697999999998,-5.1909798,-6.16143288
342,1778415345320,-6.761640888888889,2.1001462666666666,3.1030978555555553,1.579235311111111,-2.840040888888889,-5.556571888888889
343,1778415345330,-5.948319499999999,2.12430075,2.12771565,2.5626112,-1.1898083,-5.33361266
344,1778415345340,-5.114577,1.9146238999999998,1.1982711333333333,3.859562133333333,1.8675298333333334,-5.255152944444444
345,1778415345350,-4.202641699999999,1.49945948,0.2940781296,3.89645728,3.19642624,-5.1492592
346,1778415345360,-3.563991855555555,1.1435186222222222,-0.3119694355555555,3.5060850666666665,3.5402415333333335,-4.4578616
347,1778415345370,-2.7149449900000002,0.83176196,-0.8411344719999999,2.95770716,3.12946204,-3.58544444
348,1778415345380,-1.9817382555555558,0.8634548444444445,-0.9832213466666667,2.111724466666667,2.419056933333333,-2.6586364000000002
349,1778415345390,-1.6678920333333334,0.8992191199999999,-1.0058920333333332,1.4696985200000001,1.9550166666666666,-2.2224914666666664
350,1778415345400,-1.05000638,0.942798912,-0.8960035,0.202343152,1.1132386,-1.83106048
351,1778415345410,-0.3894976577777778,0.9123364255555555,-0.5506046233333334,-0.8984036200000001,0.4361704,-1.7873645
352,1778415345420,-0.14421268199999998,0.8375671450000001,-0.295770309,-1.30918316,0.264603766,-1.9914689799999998
353,1778415345430,0.05866196,0.7564669266666667,0.011707997333333331,-1.595863911111111,0.2551559933333334,-2.392171255555555
354,1778415345440,0.136751884,0.723359312,0.1458377768,-1.65128808,0.34780116000000005,-2.6915
355,1778415345450,0.17530156533333333,0.6922219422222222,0.2803212377777778,-1.5040331666666666,0.6675033333333333,-3.1526082333333334
356,1778415345460,-0.15840559240000002,0.660630036,0.488668768,-1.18652494,1.24020316,-3.65211834
357,1778415345470,-0.8673643266666667,0.6708318333333333,0.4772433244444445,-0.52246105,1.704365688888889,-3.6833665222222223
358,1778415345480,-1.2705924666666666,0.6943087933333333,0.36833452000000005,-0.07443852222222222,1.4383756444444444,-3.118943633333333
359,1778415345490,-1.40055732,0.7358478039999999,0.292547568,0.41345197999999994,0.9072609,-2.25059034
360,1778415345500,-1.3163335777777778,0.8798785888888889,0.2669837311111111,0.9010845444444444,0.24782582315555557,-1.2051252888888888
361,1778415345510,-1.0433109200000001,1.03266392,0.310268096,1.49935514,-0.24020042208000003,-0.010659267999999989
362,1778415345520,-0.7789377288888889,1.1107659777777779,0.32567278666666666,1.7366642666666665,-0.2925704,0.3290939766666667
363,1778415345530,-0.577283656,1.1517561400000003,0.320415024,2.0549972,-0.22847216439999998,0.6406260859999999
364,1778415345540,-0.41577630666666665,1.1849370666666668,0.29975327,2.2778748666666666,0.07536327866666667,0.6701503366666667
365,1778415345550,-0.383119922,1.1990273500000002,0.23294652600000001,2.3722711199999997,0.45726498800000004,0.5887040499999999
366,1778415345560,-0.43170879222222225,1.189056511111111,0.08881276444444444,2.355656166666667,1.0148972833333334,0.5164204333333333
367,1778415345570,-0.5252102055555556,1.144690777777778,-0.03592350222222223,2.2695266666666667,1.2735147333333332,0.5632520333333333
368,1778415345580,-0.61225527,1.0988628999999999,-0.14827694,2.06868006,1.5444051,0.74837948
369,1778415345590,-0.6300367666666666,1.0682838333333333,-0.3124674233333333,1.688254588888889,1.6844112333333332,1.174795022222222
370,1778415345600,-0.602815658,1.07576402,-0.428988456,1.2564212000000001,1.61416382,1.62514382
371,1778415345610,-0.5488734766666666,1.1032452333333334,-0.49256939333333327,0.6462255200000001,1.3814310666666667,2.060107866666667
372,1778415345620,-0.5569685,1.1119856000000001,-0.49981574999999995,0.2554868644,1.1775302399999998,2.23586894
373,1778415345630,-0.6783458444444445,1.0969576666666667,-0.4907366311111111,-0.023059484,1.0008732,2.3132021
374,1778415345640,-0.90601321,1.0679983199999998,-0.526347786,-0.38284853100000005,0.42996010599999995,2.43995302
375,1778415345650,-1.3047034444444445,1.0320453222222221,-0.6445464,-0.5658991111111111,-0.054747183333333345,2.576545311111111
376,1778415345660,-1.8215117800000002,1.02563302,-0.809144735,-0.76316206,-0.44849933000000003,2.82228228
377,1778415345670,-2.3689593333333336,1.0461382666666668,-0.8736993166666667,-1.0839484333333333,-0.5692841833333334,3.212572933333333
378,1778415345680,-2.8358157333333334,1.0521549000000001,-0.8752543333333334,-1.4029040444444445,-0.38609788333333334,3.5712760666666665
379,1778415345690,-2.9699597,1.0503662,-0.8715143,-1.5655252,-0.24655323,3.749915
380,1778415345700,-3.1958266777777777,0.8334225733333334,-0.687699311111111,-1.8839802777777779,0.09205977355555556,4.102653777777778
381,1778415345710,-3.24651874,0.585515864,-0.508706488,-2.12054104,0.30467534399999996,4.3196676400000005
382,1778415345720,-3.235720666666667,0.2773027611111111,-0.29762237,-2.3060077333333333,0.30986075,4.223126566666667
383,1778415345730,-3.1958510799999997,0.136861645,-0.198907948,-2.59810133,0.234855489,3.75781771
384,1778415345740,-3.137469633333333,0.03547971333333334,-0.14862656,-2.7644147,0.20065483333333334,3.5747374555555558
385,1778415345750,-3.0004861,-0.148075714,-0.0696625988,-3.1882409,0.016111093000000007,3.3204894000000005
386,1778415345760,-2.836618722222222,-0.3588285322222222,0.08355162611111111,-3.3610088,-0.15024297933333333,3.2807843
387,1778415345770,-2.5076524200000003,-0.630433104,0.33252552199999996,-3.3708842,-0.32932303999999996,3.3284304
388,1778415345780,-2.2350051666666664,-0.7617551066666667,0.45644605,-3.193568844444444,-0.43374398555555554,3.384356855555555
389,1778415345790,-2.065517,-0.81584024,0.5056698,-2.978143388888889,-0.46605101555555556,3.406550888888889
390,1778415345800,-1.7316772,-0.9128580789999999,0.5409157130000001,-2.50525258,-0.409160756,3.3858499600000003
391,1778415345810,-1.4518767000000001,-0.9738000055555555,0.5044061155555555,-2.0938402000000003,-0.26053483,3.337050011111111
392,1778415345820,-1.18061766,-1.01683984,0.469588378,-1.7805433499999999,-0.148206815,3.27864635
393,1778415345830,-0.9047919777777778,-1.0510877444444444,0.4812205133333333,-1.3871577555555556,0.03803371888888888,3.181284033333333
394,1778415345840,-0.767005154,-1.0680073799999998,0.49405324000000006,-1.0984484380000001,0.203946625,3.1113351299999996
395,1778415345850,-0.4901133066666667,-1.1101290666666666,0.4154646222222222,-0.7592661533333334,0.3740675911111111,3.019613111111111
396,1778415345860,-0.31538425999999997,-1.1048388,0.363130934,-0.528841005,0.42690586999999997,2.8562453999999997
397,1778415345870,-0.044768874,-1.0963613666666667,0.41055580666666663,-0.2928503533333333,0.5573217466666667,2.5025647666666666
398,1778415345880,0.146014614,-1.0921877,0.4818268666666667,-0.11665485722222223,0.7092869677777779,2.219403111111111
399,1778415345890,0.21214652000000003,-1.0906429,0.5085967,-0.027335414999999995,0.78638947,2.089632
400,1778415345900,0.6343899944444444,-0.9553572444444445,0.4381691877777778,0.55602372,0.8972328333333333,1.4502786666666667
401,1778415345910,0.7526354,-0.908394464,0.38358336400000004,0.878306744,0.814030356,1.0064319400000001
402,1778415345920,0.8293369777777778,-0.8591930511111111,0.2804093222222222,1.2747873466666666,0.6772514199999999,0.10918894000000001
403,1778415345930,0.84126854,-0.8301581600000001,0.199389688,1.42379336,0.62329324,-0.397569932
404,1778415345940,0.7192797866666667,-0.8207186000000001,0.10240434566666667,1.4419558666666665,0.60109919,-1.2249269
405,1778415345950,0.529805316,-0.83312176,0.0444538134,1.35201875,0.607166917,-1.8176829
406,1778415345960,0.3036152888888889,-0.8487724444444444,0.07899512577777777,1.2105804555555555,0.6730433666666666,-2.2520835666666668
407,1778415345970,-0.019241974999999998,-0.809336873,0.259213291,1.029186,0.9451334000000001,-2.6205194
408,1778415345980,-0.22349542444444445,-0.7531570988888888,0.4238526466666667,0.9716034777777778,1.2881750555555556,-2.7915973444444444
409,1778415345990,-0.30472984444444445,-0.7245138199999999,0.4608127911111111,1.0356066955555556,1.5231476666666666,-2.8291984444444447
410,1778415346000,-0.39748355,-0.680835451,0.46134398699999996,1.13706166,1.52388068,-2.8459220800000002
411,1778415346010,-0.6492485444444445,-0.5101517088888889,0.4301707644444444,1.2732942,1.1850097222222222,-2.862727233333333
412,1778415346020,-0.90240022,-0.19320232666666667,0.34328222666666663,1.3518898444444445,0.2637248132222222,-2.9288344
413,1778415346030,-1.32346744,0.198566454,0.26722290800000004,1.40852216,-0.5172807098,-3.06875916
414,1778415346040,-1.857757411111111,0.5224796666666667,0.2317343788888889,1.5374261444444446,-1.7759535777777777,-3.337084066666667
415,1778415346050,-2.2571561,0.68899143,0.225647304,1.60956717,-2.1312155899999996,-3.4000216800000005
416,1778415346060,-3.0495818333333333,0.9518983722222222,0.24173497777777778,1.8906656,-2.336202277777778,-3.2538052666666664
417,1778415346070,-3.4249621400000003,1.0736541000000002,0.25028289400000003,2.1921934199999997,-1.64505744,-2.9160474
418,1778415346080,-3.5128980333333333,1.0911307666666668,0.17114820333333333,2.468323577777778,-0.9577151444444445,-2.6515097666666665
419,1778415346090,-3.43102632,1.0626077999999999,0.10068271209999999,2.60921888,-0.6315091820000001,-2.53390131
420,1778415346100,-3.225147444444444,1.021340188888889,0.010806862888888887,2.8901474,-0.08284616,-2.296404
421,1778415346110,-2.715700333333333,1.0069218777777778,-0.18192796111111112,3.255434,0.6666634,-1.5914862
422,1778415346120,-2.16059859,0.95687903,-0.383751055,3.2887863800000003,0.59152918,-1.39352586
423,1778415346130,-1.7921981000000002,0.8615543333333334,-0.47525130666666665,3.2202086333333337,0.36836633999999996,-0.9854493400000001
424,1778415346140,-1.59716028,0.79324138,-0.517731436,3.1040661700000003,0.253975026,-0.7667660319999999
425,1778415346150,-1.3407387777777777,0.7343958277777777,-0.5642131555555555,2.8515961777777776,0.13712673333333333,-0.5034229977777778
426,1778415346160,-1.10666515,0.72726804,-0.59047655,2.58289118,-0.069896194,-0.32842202
427,1778415346170,-0.8481388733333333,0.7266988766666667,-0.5697792066666667,2.3147293111111114,-0.32182318444444447,-0.22623406444444447
428,1778415346180,-0.603507761,0.697580314,-0.45391065599999997,2.0184684400000004,-0.45705119199999994,-0.16532581200000002
429,1778415346190,-0.47874743000000003,0.6926013666666667,-0.4567746133333333,1.7155560333333333,-0.38738744444444445,-0.19793148444444444
430,1778415346200,-0.3733144466666667,0.70472605,-0.4522215,1.458906866666667,-0.26671117666666666,-0.27340505666666665
431,1778415346210,-0.22892798,0.74487879,-0.396876828,1.18666244,-0.10715788600000001,-0.38034405
432,1778415346220,-0.15618797,0.7659694566666667,-0.16490799666666667,1.1213289222222222,0.011631549444444446,-0.43717998888888887
433,1778415346230,-0.159228799,0.76929491,-0.042651879600000005,1.27364707,0.0567324405,-0.401906958
434,1778415346240,-0.1452591511111111,0.7719387044444445,-0.021352872733333333,1.4020641333333335,0.039119678,-0.35960239555555557
435,1778415346250,-0.07422519944444445,0.7720944866666666,0.003384344288888889,1.6963482777777776,0.0038941524444444453,-0.26308852
436,1778415346260,-0.005292993000000001,0.72603626,-0.0642903338,1.8322821399999998,0.11311364400000001,-0.211505856
437,1778415346270,0.13583109444444444,0.7048785166666667,-0.2735762551111111,1.876751833333333,0.3508554,-0.13738973333333332
438,1778415346280,0.23083664,0.71676436,-0.48455572,1.7301484999999999,0.48921228499999997,-0.11682454
439,1778415346290,0.2338584966666667,0.7467542388888888,-0.6312224888888889,1.3838320888888889,0.6355101977777777,-0.08906492222222223
440,1778415346300,0.192005106,0.76409944,-0.72845104,0.9090934799999999,0.787886082,-0.020310671199999998
441,1778415346310,0.10312593644444444,0.7437459711111111,-0.7495084777777777,0.3666610566666667,0.9281824,0.10104431466666666
442,1778415346320,-1.829380000000075e-05,0.701171988,-0.67341431,-0.441123334,1.01223492,0.37783956399999996
443,1778415346330,-0.23237805377777773,0.6721394777777777,-0.4859904011111111,-0.9609815488888889,0.8609976888888888,0.85544067
444,1778415346340,-0.36101699666666665,0.71953386,-0.40886531,-1.1171378,0.6929298666666667,1.2236288833333333
445,1778415346350,-0.399169626,0.790274797,-0.42701270999999996,-1.17653756,0.5931174260000001,1.40853744
446,1778415346360,-0.47537666666666667,0.9472809244444443,-0.6079216333333333,-1.3621808222222223,0.4067139877777778,1.6678081333333334
447,1778415346370,-0.663477736,1.01332744,-0.797979518,-1.78616314,0.282684836,1.82073718
448,1778415346380,-1.0308833333333334,1.0723152777777778,-0.8647083177777778,-2.2796735666666668,0.103122892,2.048433988888889
449,1778415346390,-1.1979723400000002,1.16166535,-0.82355716,-2.39603307,-0.013942589699999999,2.13452944
450,1778415346400,-1.2726792666666666,1.2396760000000002,-0.8059209555555555,-2.4255980666666668,-0.06723561833333333,2.1489521999999996
451,1778415346410,-1.574478688888889,1.5123782111111113,-0.9399159,-2.3997390000000003,-0.15492613000000002,2.0662163666666666
452,1778415346420,-1.8970802,1.61509422,-1.10193618,-2.3819836,-0.36065948200000003,1.97906874
453,1778415346430,-2.479423133333333,1.5478138666666665,-1.1580146333333332,-2.4526789666666664,-0.5041271533333334,2.0727319333333334
454,1778415346440,-3.23309705,1.19725272,-1.03531037,-2.84842668,-0.24789709399999998,2.5701245200000002
455,1778415346450,-3.2699840777777776,1.0766074555555556,-0.9694468133333333,-3.0735035222222225,-0.043412575555555555,2.777785444444445
456,1778415346460,-3.08809185,0.8886951249999999,-0.7739933800000001,-3.6815382,0.36704284,3.1821325000000003
457,1778415346470,-2.8323535111111107,0.7379902055555556,-0.5052869533333334,-4.011841033333334,0.4029810333333333,3.341868933333333
458,1778415346480,-2.6261471999999997,0.558569196,-0.23502591599999997,-4.104588000000001,0.250981875,3.4099783500000003
459,1778415346490,-2.3177064666666665,0.34882118666666667,0.07148791333333333,-4.024668999999999,-0.020132507333333338,3.4381792333333334
460,1778415346500,-2.12912732,0.258710226,0.21308560400000004,-3.85955451,-0.1505891182,3.4192022399999997
461,1778415346510,-1.8961642111111112,0.16993538666666666,0.3661460155555556,-3.4814137333333335,-0.30085075222222224,3.356664955555556
462,1778415346520,-1.6495779777777777,0.10131010177777779,0.4663415733333333,-3.1109688444444443,-0.2916880488888889,3.2714857666666664
463,1778415346530,-1.32402242,0.0160619122,0.475442388,-2.5153927,-0.213872895,3.0114005500000003
464,1778415346540,-1.1082726444444444,-0.07304626311111112,0.48642406444444447,-1.8909031666666667,-0.11841104055555556,2.659213266666667
465,1778415346550,-0.93998776,-0.189132992,0.496516778,-1.32961594,0.048363831600000004,2.3460658000000003
466,1778415346560,-0.8364072133333333,-0.27488054666666667,0.48604460777777775,-1.0108504333333335,0.16923014266666667,2.176983233333333
467,1778415346570,-0.708681608,-0.385296876,0.456660792,-0.533788878,0.36667634000000005,1.9063779799999998
468,1778415346580,-0.6044594244444446,-0.5160870200000001,0.4340124388888889,-0.04667891333333333,0.6133160866666667,1.6243701666666666
469,1778415346590,-0.540366925,-0.58193943,0.39948975999999997,0.354138701,0.884728272,1.39259434
470,1778415346600,-0.45815682333333335,-0.6329739066666666,0.33497889,0.4901200866666666,0.9983620111111112,1.299450288888889
471,1778415346610,-0.3342877833333333,-0.6581379777777777,0.22163894777777776,0.69611134,1.1633586666666667,1.0841011333333332
472,1778415346620,-0.25077376260000006,-0.66625837,0.1585366885,0.78209827,1.20666767,0.925891727
473,1778415346630,-0.07575645044444444,-0.6864763722222222,0.11993247444444445,0.8151586944444444,1.1773401666666665,0.5123481366666667
474,1778415346640,-0.0180681266,-0.6809909599999999,0.12387308400000001,0.8079982250000001,1.16427485,0.312295655
475,1778415346650,0.01895435833333333,-0.7248187466666667,0.17000991999999998,0.8127831999999999,1.1208029333333334,0.13688068666666667
476,1778415346660,0.0279467527,-0.761206029,0.204917439,0.8699992,1.0030112,-0.005650337999999998
477,1778415346670,0.03589979044444444,-0.8157115533333333,0.24029856111111114,0.9384141,0.9247209333333333,-0.06775314066666666
478,1778415346680,0.09209988350000001,-0.9230416619999999,0.265796002,1.1740789800000002,0.69234956,-0.20771861400000002
479,1778415346690,0.15045593222222223,-0.9725804200000001,0.2865309466666667,1.4035403444444445,0.49189323222222225,-0.35369754
480,1778415346700,0.20891462555555557,-0.9835837755555557,0.28664613333333333,1.4670769444444443,0.4421431155555555,-0.41261036
481,1778415346710,0.41359120000000005,-0.98940528,0.228970692,1.70510375,0.25189814,-0.8296832500000001
482,1778415346720,0.5377244833333333,-0.9639891933333333,0.10851242733333333,1.6537246777777779,0.23581249444444444,-1.1410796555555556
483,1778415346730,0.7164900000000001,-0.936167445,0.099929613,1.6116441,0.22441001,-1.2841537
484,1778415346740,0.8741296111111112,-0.9245322655555555,0.12844923111111112,1.2264624666666668,-0.36729737888888886,-2.600741577777778
485,1778415346750,0.86064166,-0.9790266620000001,0.151014908,0.8428165249999999,-0.6866687,-3.5235960500000005
486,1778415346760,0.724567988888889,-1.0403452333333332,0.13700663555555556,0.49778963333333337,-1.0518535333333334,-4.216526066666667
487,1778415346770,0.33491284,-1.1611653,0.17789148500000002,0.09055811100000001,-1.62218125,-4.9243453
488,1778415346780,-0.47405543777777776,-1.2757484444444447,0.3763329488888889,-0.44997382844444445,-2.6154782,-5.502885355555556
489,1778415346790,-1.4987527555555555,-1.2407261555555555,0.6930519111111111,-0.8318212333333332,-3.6242077999999998,-5.6655066
490,1778415346800,-2.3397889800000002,-1.14915856,0.78972898,-1.0465722,-4.41295165,-5.53977395
491,1778415346810,-2.8375808888888887,-1.0727422,0.7996841888888889,-1.125163622222222,-4.9004119444444445,-5.3339523333333325
492,1778415346820,-3.8307265,-0.7117641,0.8492721,-0.91062055,-5.80022375,-4.710854
493,1778415346830,-4.311257711111112,-0.20915517222222219,1.024473711111111,-0.15072656,-5.745349333333333,-4.401460066666667
494,1778415346840,-4.74756061,0.44397712599999994,1.12549561,0.31962583,-4.977374500000001,-4.3049463
495,1778415346850,-4.734097299999999,0.9521998833333334,0.9168828066666665,0.4662970444444444,-2.5122876111111108,-4.251123722222222
496,1778415346860,-4.500137077777778,1.1923663222222223,0.6833528844444444,0.4083344282222222,-0.7669865888888888,-4.240467655555555
497,1778415346870,-3.7107896400000002,1.31405224,0.214896682,0.13930372559999998,1.8385891600000002,-4.37336074
498,1778415346880,-3.4093046444444446,1.1136760888888888,0.20164794111111112,0.43270044444444444,2.0055812,-4.203647166666666
499,1778415346890,-2.90536758,0.93940536,0.148956863,1.00597379,1.7478172,-3.7761204
500,1778415346900,-2.589246466666667,0.9512851,0.03415850333333333,1.4487006333333334,1.3472236333333332,-3.3517444
501,1778415346910,-2.07474287,0.9973173000000001,-0.179632425,1.6716904499999998,0.990038369,-3.0626507399999996
502,1778415346920,-1.7941426555555557,0.989939188888889,-0.3141443466666667,1.6672990666666667,0.7412546577777778,-2.934807111111111
503,1778415346930,-1.66537158,0.94769858,-0.37973861000000003,1.5342574,0.69885508,-2.75881532
504,1778415346940,-1.548718411111111,0.9356643333333332,-0.39530421111111114,1.4526117333333335,0.7048074444444444,-2.5901535555555553
505,1778415346950,-1.4530421333333332,0.93639609,-0.37022483999999994,1.3879976666666667,0.7509603444444445,-2.3443893333333334
506,1778415346960,-1.3067775000000001,0.9490157509999999,-0.310313836,1.3702831000000002,0.821169612,-2.12884861
507,1778415346970,-1.098637942222222,0.9725533822222222,-0.2905216911111111,1.381753488888889,0.8791110211111112,-1.9444881
508,1778415346980,-0.796820856,1.047542812,-0.25387457199999997,1.446639,0.847206985,-1.6742560000000002
509,1778415346990,-0.5998622333333333,1.130259,-0.24805309333333334,1.5211623333333335,0.7208252333333333,-1.4586777666666668
510,1778415347000,-0.503261075,1.20949125,-0.21978417,1.5722063,0.588780415,-1.3198882
511,1778415347010,-0.4331248733333333,1.2759280555555557,-0.18294428333333335,1.6125265111111111,0.4882960322222222,-1.1978205888888889
512,1778415347020,-0.321085795,1.4225524999999999,-0.06126882,1.6586794,0.419148122,-0.9024962599999998
513,1778415347030,-0.29940431888888885,1.5343849222222223,0.02886686,1.6402182,0.5296300388888889,-0.6715417222222223
514,1778415347040,-0.32751910666666667,1.6079495000000001,0.07817529,1.4867767666666667,0.9035194333333334,-0.29661725333333333
515,1778415347050,-0.461112274,1.66810342,0.146087794,1.3043116399999999,1.1253639,0.072415944
516,1778415347060,-0.5455738477777778,1.6541989,0.18653189,1.17562648,1.162476277777778,0.34232898222222224
517,1778415347070,-0.677127939,1.5785220199999999,0.263561103,0.961748448,1.07185366,0.8280339879999999
518,1778415347080,-0.784829,1.4809840666666667,0.3772544266666667,0.7519020666666667,0.8917097333333334,1.3268365666666666
519,1778415347090,-0.8581415,1.3679761799999999,0.488424876,0.43324342,0.405587304,2.19225448
520,1778415347100,-0.8442463666666666,1.2622992999999998,0.62449782,0.2427948166666667,-0.14542406555555554,2.892217555555556
521,1778415347110,-0.801473566,1.21731494,0.694491732,0.22708247099999998,-0.574639289,3.30979955
522,1778415347120,-0.6832038166666667,1.1277080333333334,0.8190518777777778,0.4432205866666667,-1.2143389333333332,3.782900833333333
523,1778415347130,-0.64771054,1.0803171666666667,0.8878465333333333,0.6889847777777778,-1.4442211,3.8702518444444447
524,1778415347140,-0.7556416240000001,1.02630994,0.842695484,0.91850808,-1.56518919,3.89028754
525,1778415347150,-0.9890414666666667,1.0109227666666665,0.64648078,2.0811141444444443,-1.8830554444444445,3.7795071777777776
526,1778415347160,-1.3104485000000001,1.0541407399999998,0.41682310200000006,2.692355,-2.20867106,3.64594878
527,1778415347170,-1.4715189,1.0789349,0.31480497,2.9090836,-2.3638263,3.5831537
528,1778415347180,-1.87449346,1.14023114,0.13323338599999998,3.09465913,-2.55880871,3.49421429
529,1778415347190,-3.361236011111111,1.2666998999999999,-0.24500412888888887,3.2990757666666664,-2.879652688888889,3.417546288888889
530,1778415347200,-4.4726114699999995,1.003287141,-0.159838594,3.2703387,-1.9272535999999998,4.462712519999999
531,1778415347210,-4.507299011111112,0.5564484388888888,0.10626975222222224,3.4139828,-0.5854377222222221,5.182224466666667
532,1778415347220,-4.4415703,0.46344167000000003,0.16132039,3.4570136,-0.2679329,5.3284206
533,1778415347230,-3.18216731,0.13284921389999998,-0.04472517299999999,3.6302498799999996,1.5250871,5.46451748
534,1778415347240,-2.2500500111111115,-0.012466851777777779,-0.2841358288888889,3.4699093333333333,3.213497733333333,4.787277711111111
535,1778415347250,-1.9353264,-0.079425365,-0.37133264499999996,3.19404395,3.60220445,4.1961770000000005
536,1778415347260,-1.6673229111111112,-0.20771198,-0.4324913533333333,2.6209673999999996,3.9839204222222224,3.317638688888889
537,1778415347270,-1.55942636,-0.294523284,-0.453197168,2.1121723599999997,4.18615168,2.79002956
538,1778415347280,-1.4193003444444445,-0.38165844000000004,-0.4791776866666666,1.580389111111111,4.332714277777778,2.453222
539,1778415347290,-1.22967545,-0.46246598,-0.4946935,0.9713998480000001,4.3591436,2.2304934800000003
540,1778415347300,-1.0320825333333332,-0.5452858666666667,-0.48005848666666673,0.11886069866666668,4.216856866666666,1.9794759666666666
541,1778415347310,-0.9498317666666666,-0.59286995,-0.4471907133333333,-0.231969258,4.0543714,1.8819439999999998
542,1778415347320,-0.823102858,-0.6829544750000001,-0.36585061100000005,-0.85213196,3.6671451599999996,1.7013775600000003
543,1778415347330,-0.7020667333333334,-0.7974076222222223,-0.2391094788888889,-1.3624523888888889,3.2515738888888888,1.5386478666666668
544,1778415347340,-0.60310229,-0.9045832600000001,-0.0918163328,-2.10154365,2.50703943,1.29168992
545,1778415347350,-0.42667124666666667,-1.0174273,0.13128814766666666,-2.5685363666666667,2.0505125,1.1374484666666667
546,1778415347360,-0.32366523599999997,-1.03343842,0.24160554799999998,-2.97218422,1.7486724600000003,1.011043842
547,1778415347370,-0.2477244911111111,-1.0300669444444446,0.30771780000000004,-3.2583865,1.5735085888888891,0.9170005211111112
548,1778415347380,-0.033218402,-0.9968112,0.43135139,-3.7850768500000003,1.2736165,0.66505995
549,1778415347390,0.130983252,-0.9809819999999999,0.5486092266666667,-4.119961399999999,0.8643997666666666,0.29570097333333334
550,1778415347400,0.19049214222222222,-0.9908335222222223,0.6222517111111111,-4.137065,0.42212091333333335,-0.0021888700000000003
551,1778415347410,0.226946162,-1.0444817,0.809595964,-3.90724635,-0.013820409999999977,-0.20478654000000002
552,1778415347420,0.2260734811111111,-1.1062129666666667,0.9748603755555556,-3.587836855555556,-0.3823649288888889,-0.35043967333333337
553,1778415347430,0.19714563999999998,-1.2902734500000002,1.3376085500000001,-2.64855735,-0.8158628699999999,-0.53525491
554,1778415347440,0.3283999133333333,-1.4409038222222224,1.6222152444444444,-1.02868375,-0.8149126777777778,-0.866741348888889
555,1778415347450,0.6151036444444444,-1.5149630333333333,1.7601128333333333,0.17607672666666666,-0.5576781066666666,-1.2597452
556,1778415347460,1.016772816,-1.5237414,1.7056909,1.68723644,0.43116654200000004,-2.52840372
557,1778415347470,1.2882019111111112,-1.5545318222222222,1.6418877444444444,2.5061280666666668,1.1688562333333334,-3.4759754
558,1778415347480,1.42028408,-1.66303606,1.5874218599999999,3.2710717199999997,2.05067528,-4.617333159999999
559,1778415347490,1.2339609,-1.8985761666666667,1.5192179666666668,4.2071680888888885,3.271901388888889,-6.113494955555556
560,1778415347500,0.71704184,-2.21834284,1.40403912,5.3136993200000004,4.6858246,-7.70744196
561,1778415347510,0.2943261066666667,-2.425578466666667,1.1570898,5.9495506,5.313124133333333,-8.316253000000001
562,1778415347520,0.0010183420000000054,-2.50354846,0.934368508,6.22373956,5.46221156,-8.471123
563,1778415347530,-0.6797144222222222,-2.6105216222222225,0.4290324844444445,6.7829836666666665,5.124643711111111,-8.48111388888889
564,1778415347540,-1.6321785666666666,-2.718278633333333,-0.12137903333333336,6.9618009,3.5338786666666664,-7.769137499999999
565,1778415347550,-2.4657719,-2.7067738599999998,-0.564886632,6.872612200000001,1.80645858,-6.65099658
566,1778415347560,-3.1989772777777774,-2.5683171555555555,-1.0455827288888888,6.753561377777778,-0.7383616111111112,-5.115201022222222
567,1778415347570,-3.5032227,-2.4792604,-1.2687936,6.68743359,-3.13278359,-3.86743442
568,1778415347580,-3.7144273555555554,-2.3805657333333334,-1.4276002,6.610690733333333,-5.8648717999999995,-2.570470633333333
569,1778415347590,-3.64968864,-1.9909271400000002,-1.7556817200000001,6.18482865,-6.2688045699999995,-2.3925511999999998
570,1778415347600,-3.5966192444444443,-1.6884691,-2.1105262000000002,5.8448919111111115,-5.480852577777778,-2.9375220222222223
571,1778415347610,-3.80016094,-1.5620362399999999,-2.3645343199999997,5.31015632,-3.6834091800000004,-4.02050514
572,1778415347620,-3.9482421222222226,-1.5627571666666666,-2.4412164,4.9956108666666665,-2.612364755555556,-4.5439911111111115
573,1778415347630,-4.01464278,-1.3750070399999998,-2.62190296,4.350637600000001,-0.72240324,-4.74463406
574,1778415347640,-3.7492126999999993,-0.9905862666666666,-2.7387878666666667,3.7771231333333333,-0.1958529,-4.411844233333333
575,1778415347650,-3.3910751444444447,-0.6055265311111111,-2.6034480222222225,3.1623816999999996,-0.15105743666666666,-3.9220975000000005
576,1778415347660,-3.2462198,-0.48227814799999996,-2.49558468,2.9216672,-0.21967594699999998,-3.70068074
577,1778415347670,-2.896751088888889,-0.22433897866666663,-2.1985226,2.4794544333333333,-0.5753926822222222,-3.1397804000000002
578,1778415347680,-2.6917424,-0.075888574,-1.9863050000000002,2.3055665,-0.87755847,-2.7948554
579,1778415347690,-2.653735522222222,-0.019543823000000002,-1.8529130222222223,2.1569270111111107,-0.9541179722222223,-2.4616042222222223
580,1778415347700,-2.55246002,0.09815816420000001,-1.71242924,1.6724539399999998,-0.8047454399999999,-1.5497958600000001
581,1778415347710,-2.262022322222222,0.27338315,-1.6807518666666668,1.2422766555555556,-0.36655076111111107,-1.1082974955555556
582,1778415347720,-2.0453085300000002,0.37665001200000003,-1.65380072,0.9982770999999999,-0.14087665,-0.95185274
583,1778415347730,-1.627899911111111,0.5068452944444445,-1.4137071555555556,0.3093092911111111,0.5175488377777778,-0.9085504633333333
584,1778415347740,-1.3646054111111112,0.5502421277777778,-1.2135939333333332,0.02662276,0.7834370777777777,-0.9483234122222223
585,1778415347750,-1.1312672400000001,0.60806595,-1.02534646,-0.35890330600000003,1.1055724599999999,-0.950753196
586,1778415347760,-0.9742912444444445,0.6702017166666666,-0.8839777444444444,-0.6434088111111111,1.1901001444444443,-0.8799763444444445
587,1778415347770,-0.9324324000000002,0.69601625,-0.83148146,-0.7650352866666668,1.1495806222222222,-0.8110184888888888
588,1778415347780,-0.84559508,0.769657716,-0.748522342,-0.96932297,0.99586434,-0.61851339
589,1778415347790,-0.7485768755555555,0.9178686166666667,-0.5645180355555556,-1.2570134,0.7481436777777777,-0.19351980777777777
590,1778415347800,-0.687159005,1.06771475,-0.40671578999999997,-1.4253357,0.60893835,0.15469707300000002
591,1778415347810,-0.5991643511111111,1.2191869111111113,-0.2702054611111111,-1.5239875333333333,0.5019382666666667,0.58748234
592,1778415347820,-0.519103415,1.32913844,-0.155396263,-1.5512313599999998,0.46801589200000004,0.8187491040000001
593,1778415347830,-0.4173719077777778,1.4341656666666667,-0.02259278088888889,-1.5328788444444443,0.4308763844444444,1.339605
594,1778415347840,-0.394535215,1.4630732,0.0491644515,-1.4708439,0.32458895600000004,1.66814748
595,1778415347850,-0.4241812333333333,1.4357579333333332,0.16000594555555553,-1.3545792666666667,-0.08080999999999999,2.1694494
596,1778415347860,-0.4451479133333333,1.4192901333333332,0.19783674333333334,-1.297159588888889,-0.33716224,2.4676108333333335
597,1778415347870,-0.48426608,1.38739188,0.245313092,-1.26523262,-0.47525445,2.6484352799999997
598,1778415347880,-0.5581423600000001,1.307434,0.3339219333333333,-1.1796733000000001,-0.7299370333333334,3.0299297
599,1778415347890,-0.6660815899999999,1.19389285,0.382519288,-1.0221917839999999,-0.8994267779999999,3.38157396
600,1778415347900,-0.6988823,1.1618971,0.39365104,-0.94788224,-0.9575794299999999,3.517182
601,1778415347910,-0.814273114,1.11372047,0.287769834,-0.65821847,-1.116644046,3.85123926
602,1778415347920,-0.9976632444444444,1.0947352888888888,0.19950350555555557,-0.45207787666666666,-1.3251059111111112,4.114124066666666
603,1778415347930,-1.2454934400000002,1.09439924,0.15148444600000002,-0.402395637,-1.39439635,4.21234155
604,1778415347940,-1.603941788888889,1.1426141555555556,0.10232642666666666,-0.31348342888888886,-1.4755778888888889,4.487623277777778
605,1778415347950,-2.22709336,1.23701124,-0.15262475960000002,-0.192264178,-1.72448288,4.8121323799999995
606,1778415347960,-2.799031777777778,1.2879173,-0.4410487755555556,-0.13063648,-2.193196222222222,5.011255166666667
607,1778415347970,-3.2765833333333334,1.3050863333333333,-0.6992887900000001,-0.21466190666666668,-2.6586618222222222,5.113063166666667
608,1778415347980,-3.9256620599999996,1.31413768,-0.999143696,-0.6335402200000001,-3.4639620200000003,5.347845680000001
609,1778415347990,-4.399850144444445,1.189215688888889,-0.992595188888889,-1.3827715888888887,-3.6339133888888884,5.749430044444444
610,1778415348000,-4.36474252,0.9177730179999999,-0.733085466,-2.74201701,-3.40764201,6.67722478
611,1778415348010,-4.064282,0.6098729766666666,-0.3511891833333334,-3.4332924444444446,-3.560340333333334,7.14726088888889
612,1778415348020,-3.8285465299999997,0.42691516500000004,0.33565984,-3.90426082,-4.209440160000001,7.5032355
613,1778415348030,-3.7180522666666667,0.3683548333333333,0.7637031,-3.921003166666667,-4.5453909,7.621414
614,1778415348040,-3.4812580000000004,0.337324564,1.77089608,-2.9599672999999997,-4.7012486,7.63749962
615,1778415348050,-3.2199337444444445,0.3290910255555556,2.3878425222222224,-1.6889163666666667,-4.421185333333333,7.490488899999999
616,1778415348060,-3.0018518333333333,0.29562701666666663,2.4988653,-0.20213955555555563,-3.838818833333333,7.027941722222223
617,1778415348070,-2.72850672,0.18952326,2.4508137999999997,1.2824738,-3.10783826,6.3750919
618,1778415348080,-2.5711968333333335,0.07556335333333335,2.334059,2.344660766666667,-2.382202622222222,5.729611366666667
619,1778415348090,-2.47659568,-0.197822514,2.04705844,3.3881100799999997,-1.30576242,4.865520699999999
620,1778415348100,-2.3844074666666666,-0.4582279433333334,1.7672169999999998,4.183158466666667,-0.22089765333333333,4.112987366666666
621,1778415348110,-2.17431598,-0.747519222,1.2786904799999999,4.7654029,0.703848748,3.54308216
622,1778415348120,-2.024877655555555,-0.9331642211111111,0.903280988888889,5.011017766666666,1.1725212888888887,3.288318133333333
623,1778415348130,-1.8872476,-1.1121753777777779,0.45351222111111106,5.11045,1.6265843666666668,3.1011951
624,1778415348140,-1.7585173,-1.29881055,0.055140409999999994,4.8452405,1.81727055,3.02819885
625,1778415348150,-1.6283368777777776,-1.4476250888888889,-0.2175397888888889,4.171136555555556,1.8966468,2.9704059333333337
626,1778415348160,-1.48820878,-1.51816788,-0.380680752,3.01811995,1.94585395,2.9130542999999998
627,1778415348170,-1.3594085666666667,-1.5287172666666669,-0.41041012666666665,2.0076513333333335,1.9419852333333334,2.8912674333333332
628,1778415348180,-1.2755378199999998,-1.54354736,-0.34616043799999996,0.7617571052000001,1.8683374499999998,2.88947541
629,1778415348190,-1.1329319666666666,-1.5687060333333334,-0.18838835999999998,-0.45309597733333334,1.7090488666666666,2.9091854
630,1778415348200,-0.9087634290000001,-1.5335072,-0.012580001099999998,-1.44149264,1.40452114,2.9268593199999997
631,1778415348210,-0.7555319166666666,-1.4771153777777777,0.09991097611111112,-1.849569088888889,0.8694392777777777,2.906335
632,1778415348220,-0.5912099555555556,-1.407548322222222,0.2640973833333333,-2.0365562,0.07427732777777778,2.8561097777777777
633,1778415348230,-0.545848896,-1.3917154,0.335547013,-1.9882314,-0.12743801,2.83792
634,1778415348240,-0.41072519333333335,-1.3863410333333333,0.48750811,-1.5214084444444445,-0.6638297466666666,2.7440532444444443
635,1778415348250,-0.292776235,-1.36103975,0.465987565,-0.96166445,-1.04370888,2.6073252499999997
636,1778415348260,-0.23598937666666664,-1.313786,0.3709464533333333,-0.26753414222222216,-1.508224277777778,2.330373888888889
637,1778415348270,-0.25928343200000004,-1.29999662,0.29182190399999997,0.1716786272,-1.7663412,2.0939081
638,1778415348280,-0.28178474666666664,-1.2795462333333334,0.22190318666666667,0.4988755733333334,-1.8021776222222223,1.774774322222222
639,1778415348290,-0.29999920399999996,-1.2242361000000002,0.11478108439999998,0.68033115,-1.6762412000000002,1.50780015
640,1778415348300,-0.2930929822222222,-1.2297600555555555,0.03564571066666667,0.7647299000000001,-1.4851477666666666,1.1055062666666666
641,1778415348310,-0.19743022222222223,-1.2198340111111112,-0.012995337777777775,0.7801368044444446,-1.3504220555555557,0.6919372133333334
642,1778415348320,0.12748609,-1.13956648,-0.157786644,0.7015275240000001,-1.21340224,0.055190052
643,1778415348330,0.2177566,-1.1128393,-0.20281671,0.5953215433333334,-1.1624168666666668,-0.34589226666666667
644,1778415348340,0.5202743,-1.0625924999999998,-0.360356405,0.290916,-1.19367195,-1.1815695
645,1778415348350,0.8217146333333333,-1.0731622666666665,-0.4048813466666667,-0.3713102511111111,-1.5472506555555556,-2.5542493222222222
646,1778415348360,0.8992476,-1.1295903,-0.29607824800000004,-0.7795938,-1.7734041,-3.2930012
647,1778415348370,0.8632651111111111,-1.183622588888889,-0.13189455055555557,-1.2354216222222223,-2.098243366666667,-4.136581277777777
648,1778415348380,0.8466652,-1.2002225,-0.05466782299999999,-1.4665679,-2.3259537,-4.601207
649,1778415348390,0.8230290577777777,-1.195750688888889,0.03483604311111112,-1.6754776,-2.9349685,-5.431959
650,1778415348400,0.6586055066666667,-1.2087697333333332,0.28618538666666665,-1.6988934666666666,-3.596515966666667,-6.438253666666666
651,1778415348410,0.044167204,-1.23396228,0.699632268,-1.6343066399999997,-3.92826716,-7.527302599999999
652,1778415348420,-1.1491016277777777,-1.1733543666666668,1.1162473611111112,-1.3647600666666666,-3.9554905333333332,-8.868798111111111
653,1778415348430,-1.9537756300000002,-1.0904905,1.31656156,-1.11274992,-3.94640924,-9.2013298
654,1778415348440,-2.691718711111111,-0.9679935022222222,1.403720111111111,-0.5514423644444445,-3.930445822222222,-9.447016111111111
655,1778415348450,-2.9872931,-0.81073333,1.5244334,0.007482884999999995,-3.5894912500000005,-9.5867895
656,1778415348460,-2.7559399222222223,-0.5883541333333333,1.5730084222222223,0.5504582266666667,-2.1684484444444445,-9.956385555555556
657,1778415348470,-2.4147690400000004,-0.49102255,1.3452096,1.14231493,-0.534140123,-10.8672472
658,1778415348480,-2.3049517,-0.46685650000000006,1.2517194,1.3724041444444444,-0.24193794111111108,-11.425490666666668
659,1778415348490,-2.3633796666666664,-0.6545063355555556,0.7862044166666666,1.7898079666666666,-0.49537168,-12.671339666666666
660,1778415348500,-2.8064197999999996,-0.990451088,0.72267937,2.02976906,-1.29558412,-13.389512400000001
661,1778415348510,-4.347123666666667,-1.5290322666666667,1.37942,2.4856308,-2.693344277777778,-13.255580555555555
662,1778415348520,-5.2785458599999995,-1.55124902,1.54640732,3.0609403200000003,-3.26189382,-11.9470882
663,1778415348530,-5.663911122222221,-1.4080903222222223,1.4173794444444445,3.6797015111111113,-3.3897102444444442,-10.247540111111112
664,1778415348540,-5.80852183,-0.916965169,0.8840455700000002,4.04287745,-3.18046781,-8.5302525
665,1778415348550,-5.345535544444444,-0.3419135855555555,0.2805380522222223,3.9144026111111114,-2.2399853222222226,-6.4768814444444445
666,1778415348560,-4.616440219999999,0.03387392600000001,-0.1359774384,3.4249442500000002,-1.28896407,-5.376066750000001
667,1778415348570,-3.884251166666667,0.36232804333333335,-0.3823495333333333,2.473142466666667,-0.45851723333333333,-4.5967275
668,1778415348580,-3.3468620666666666,0.5356816433333333,-0.27977242333333335,2.0019755999999997,-0.2294495,-4.4000346666666665
669,1778415348590,-3.1777769,0.560581475,-0.138742855,1.53501336,0.016844115999999992,-4.25082492
670,1778415348600,-3.048480633333333,0.6006041566666666,-0.08347031666666666,1.2587016666666666,0.42687192777777777,-3.8881022444444446
671,1778415348610,-2.8298235600000003,0.680396408,-0.0781143138,1.36826733,0.726037776,-3.22079902
672,1778415348620,-2.6351436,0.7665013222222222,-0.11664976200000002,1.6511371222222222,1.0566554366666667,-2.417215866666667
673,1778415348630,-2.4444109000000003,0.8514825500000001,-0.23795596,1.7834144200000002,1.34221464,-1.90863808
674,1778415348640,-2.1953279111111113,0.9473045333333333,-0.38155343444444445,1.8588337000000001,1.6732124333333334,-1.4053559666666666
675,1778415348650,-1.5680894333333333,1.1184798666666669,-0.5730517666666667,1.7574329777777777,2.4089439777777777,-0.6453431666666667
676,1778415348660,-1.12562663,1.22577273,-0.637445732,1.53138638,3.0759824,-0.187682818
677,1778415348670,-0.7535297,1.305133788888889,-0.6213743222222222,1.294538,3.5683152,0.08495867333333335
678,1778415348680,-0.48955900999999996,1.35824092,-0.61744458,1.0924697,3.9008859200000003,0.32738359
679,1778415348690,-0.3424894666666667,1.385148611111111,-0.6252228111111111,0.9447261266666668,4.004485666666667,0.5388181722222222
680,1778415348700,-0.23444965,1.39252025,-0.62866475,0.7661551550000001,3.90919355,0.8327375
681,1778415348710,-0.17712415555555555,1.3475684444444445,-0.6481137111111112,0.5404131777777779,3.5366021,1.2132359555555554
682,1778415348720,-0.109741163,1.30543592,-0.6701854300000001,0.2945811,3.0099499599999997,1.57200016
683,1778415348730,-0.08956824000000001,1.2996387999999999,-0.6574672,0.13046679633333333,2.660952533333333,1.7941856666666665
684,1778415348740,-0.082315778,1.29059657,-0.5996050900000001,-0.040163208799999996,2.30991884,2.05603548
685,1778415348750,-0.10996576222222222,1.2495343444444444,-0.48322603888888893,-0.15269485,1.924270611111111,2.4643529444444443
686,1778415348760,-0.1692409,1.189283522222222,-0.37524547,-0.05509502833333333,1.5828070555555556,2.8380557555555557
687,1778415348770,-0.279065077,1.11758045,-0.24361787000000001,0.2287317512,1.22016742,3.11573334
688,1778415348780,-0.31376833,1.1008874,-0.21184163,0.35749835,1.0918895,3.1861029
689,1778415348790,-0.45887435,1.06028137,-0.167717103,0.498604073,1.016205518,3.20167953
690,1778415348800,-0.8209421866666667,0.9623867666666668,-0.08868403333333333,0.82785076,0.83960956,3.238025
691,1778415348810,-1.5307844400000001,0.8360121599999999,-0.025977128,1.6448972000000002,1.09032415,3.0529382000000003
692,1778415348820,-2.2199262,0.7391284666666667,-0.033030383999999996,2.003943811111111,1.819137088888889,3.0509699111111113
693,1778415348830,-2.73348264,0.6960162000000001,-0.1845534504,2.14576894,2.74056628,3.19160048
694,1778415348840,-3.119623155555556,0.6890781333333335,-0.33703524222222225,2.1223803111111113,2.9126215777777777,3.2634768666666663
695,1778415348850,-4.0707406,0.70394353,-0.664047895,1.8291058,2.92443125,3.6256076
696,1778415348860,-4.958144933333333,0.5503166533333333,-0.6552719499999999,1.139756138888889,2.5431268888888887,4.522611277777778
697,1778415348870,-5.181206700000001,0.35898434333333334,-0.3838130146666667,0.503083621111111,2.2588793333333332,5.382718166666667
698,1778415348880,-5.06131343,0.11635434870000001,0.1213607404,-0.2637333,2.037481,6.436497700000001
699,1778415348890,-4.634176344444445,0.015749564,0.6970393333333332,-0.5084115633333334,1.818797711111111,6.808622488888889
700,1778415348900,-4.231530210000001,0.11530855799999999,1.20496969,-0.5596277000000001,1.52131508,6.97204244
701,1778415348910,-3.597157666666667,0.3919097444444445,1.640156688888889,0.14057971333333333,1.7912416333333334,6.313343888888889
702,1778415348920,-3.1659317000000002,0.5698503500000001,1.6701279500000001,0.84037307,2.31724905,5.5999423
703,1778415348930,-3.0137328,0.620608711111111,1.5761285222222223,1.3011385111111111,2.7447064666666665,5.081638333333334
704,1778415348940,-3.07414585,0.521844444,1.38993778,1.7879346200000001,3.2691935200000004,4.41935766
705,1778415348950,-3.2174336999999995,0.28090053333333337,1.2551138666666666,1.9058689333333332,3.5416160666666667,4.172086733333334
706,1778415348960,-3.1075864777777777,0.10225528794444444,1.1621917666666666,1.7042892666666667,3.9106185333333334,4.264121133333333
707,1778415348970,-2.65834093,-0.04636550491000001,0.96944984,1.3320670099999998,4.0602558900000005,4.4221676
708,1778415348980,-2.1444441333333333,-0.09574746,0.7824033666666668,0.8421039,4.028919566666667,4.438009066666667
709,1778415348990,-1.67827476,-0.128428228,0.6448059,0.4655572646,3.96514708,4.3713453300000005
710,1778415349000,-1.3621018333333332,-0.14896194666666665,0.5723606333333334,-0.26828071,3.8248964,4.122336722222222
711,1778415349010,-0.96898944,-0.173028394,0.48779676399999994,-0.90048052,3.6988175400000003,3.8178717200000003
712,1778415349020,-0.6944273777777777,-0.20749178444444447,0.39066641777777783,-1.3634875,3.5520259333333333,3.5385618
713,1778415349030,-0.505883176,-0.271814628,0.32559825400000003,-2.1659881000000003,3.1968691,3.03491825
714,1778415349040,-0.5011979466666667,-0.32604542000000003,0.34442048999999997,-2.5337181333333336,2.9311504333333334,2.8344585666666666
715,1778415349050,-0.6033651555555556,-0.4022558288888889,0.41857117,-2.866154688888889,2.524054722222222,2.736315811111111
716,1778415349060,-0.758416216,-0.47238120400000005,0.476966852,-3.01750915,1.8169651500000001,2.96467085
717,1778415349070,-1.058737308888889,-0.5838010055555556,0.516374978888889,-2.9913105555555557,0.7945511277777778,3.512498988888889
718,1778415349080,-1.2163515,-0.673472238,0.49530937599999997,-2.80896592,-0.038742976000000005,4.09521158
719,1778415349090,-1.2460754555555555,-0.8047657944444444,0.48271107777777783,-2.5923594666666667,-0.7902072733333333,4.728975766666667
720,1778415349100,-1.1918379,-0.9059065000000001,0.48515025000000006,-2.202028,-1.5458253499999999,5.67110585
721,1778415349110,-0.9876829555555555,-1.0511351333333332,0.6686534833333334,-1.7554987333333334,-1.6242174666666667,6.175055133333333
722,1778415349120,-0.74968402,-1.11783352,0.71763942,-1.5037075,-1.4785100199999999,6.2229456
723,1778415349130,-0.4431864466666667,-1.1587261333333334,0.7000001666666668,-1.1847128666666666,-1.2450849,5.999741833333333
724,1778415349140,0.012052535999999994,-1.17745587,0.666968785,-0.865967622,-1.1305713499999999,5.4782612
725,1778415349150,0.28374962444444446,-1.1730799555555556,0.6529208833333333,-0.5413294355555556,-1.1608557666666668,4.850059022222222
726,1778415349160,0.425256532,-1.16443382,0.665026624,0.022021048000000005,-1.37491022,3.80137876
727,1778415349170,0.2436863138888889,-1.2042911555555555,0.7040384011111112,0.5242596666666667,-1.5816616666666667,3.0651551666666665
728,1778415349180,-0.03422963777777778,-1.2952517444444445,0.6742636277777777,1.6347544666666667,-1.8731461777777778,1.864840311111111
729,1778415349190,-0.0730896322,-1.34598102,0.555843452,2.35528956,-1.91619728,1.31503198
730,1778415349200,0.026458179000000002,-1.3396649444444444,0.47475334888888887,2.676554533333333,-1.9087449,1.03462251
731,1778415349210,0.296514246,-1.2965726400000002,0.32423232999999996,2.95532486,-1.9097222999999999,0.630119465
732,1778415349220,0.71871062,-1.2238112,0.12185670333333334,3.2584205555555554,-1.965350077777778,-0.3773848777777778
733,1778415349230,0.827786092,-1.17137316,-0.008152917999999997,3.4475455499999996,-1.9768544,-1.6827697499999998
734,1778415349240,0.7868853466666667,-1.142492088888889,-0.09276625666666666,3.4641401666666667,-1.9450564555555556,-2.2854087333333335
735,1778415349250,0.52344519,-1.12360215,-0.25492342,3.34522866,-1.99756222,-3.3604998000000004
736,1778415349260,0.3083174444444444,-1.1211222888888888,-0.3035881833333333,3.1475857111111107,-2.2055488666666667,-3.9825119111111116
737,1778415349270,0.11367193977777777,-1.0498274777777779,-0.39420322222222226,2.9170247333333332,-2.6401327333333335,-4.373768000000001
738,1778415349280,-0.03266958760000001,-0.93470092,-0.529241255,2.59767376,-3.69852736,-4.71934484
739,1778415349290,-0.17629077222222223,-0.8038985888888889,-0.5782248133333333,2.3449323111111107,-4.635923322222222,-4.924616666666667
740,1778415349300,-0.32614708800000003,-0.68191173,-0.569142954,2.02353828,-5.53364995,-5.19629433
741,1778415349310,-0.805653388888889,-0.5155856,-0.5605543666666667,1.4116595333333333,-6.2527597,-5.779327722222223
742,1778415349320,-1.54552302,-0.29372444799999997,-0.47657655600000004,0.12329952479999999,-6.21333967,-6.696412939999999
743,1778415349330,-2.104980455555556,-0.12068115666666666,-0.44918611666666663,-0.5392254093333333,-5.737204666666667,-6.968698333333333
744,1778415349340,-2.44983196,0.032087234000000006,-0.545266571,-1.41035469,-5.046255,-7.162077340000001
745,1778415349350,-2.637681033333333,0.1313931611111111,-0.5405837022222222,-1.8245243777777778,-4.786658466666667,-7.160665477777779
746,1778415349360,-2.8418901555555554,0.22425088666666668,-0.39273633666666663,-2.295351833333333,-4.614942455555555,-7.0496270333333335
747,1778415349370,-2.9680086500000002,0.307380735,-0.20964639,-2.67592328,-4.82867116,-6.547152479999999
748,1778415349380,-2.9170095666666667,0.4415501666666667,0.013323943333333338,-2.933483688888889,-5.0927607777777775,-5.931632222222222
749,1778415349390,-2.83569586,0.5329396519999999,0.15949101,-3.04175978,-5.18485614,-5.59939253
750,1778415349400,-2.5945315333333334,0.7905542400000001,0.5487616799999999,-3.1514203777777774,-5.027128666666666,-5.086287677777778
751,1778415349410,-2.47946782,0.9943201399999999,0.89180507,-3.06320042,-4.6065518,-4.9805433
752,1778415349420,-2.463924266666667,1.1089298333333333,1.072731988888889,-2.4010284888888886,-3.2099175555555557,-5.044207166666666
753,1778415349430,-2.44611835,1.18156285,1.23376105,-1.55174295,-2.2893028,-5.10454515
754,1778415349440,-2.428867988888889,1.1692586222222223,1.2973928222222222,-0.6683177766666666,-1.7678174,-5.053844633333333
755,1778415349450,-2.3690132,1.11298567,1.2169369199999998,0.660173185,-1.37387185,-4.79148585
756,1778415349460,-2.166135888888889,1.1078254777777778,0.8295877111111111,1.5493716333333334,-1.3132282333333334,-4.537678944444445
757,1778415349470,-1.9989988,1.1000743666666668,0.51411536,2.1530584333333334,-1.3806929000000001,-4.3540174333333335
758,1778415349480,-1.9312102199999999,1.0298710999999998,0.2833275,2.39743802,-1.32225522,-4.19105358
759,1778415349490,-1.8891548,0.9262024366666667,0.053627789555555555,2.5107433111111113,-1.1714438666666664,-3.9971385111111113
760,1778415349500,-1.8239630999999998,0.860507561,-0.11383286379999999,2.44154124,-0.958923321,-3.69157915
761,1778415349510,-1.7670678888888889,0.8281309333333333,-0.20247794111111111,2.3218559,-0.8337810633333333,-3.3464504
762,1778415349520,-1.7130115,0.8317100500000001,-0.20708525,2.2432601,-0.80242425,-3.152201
763,1778415349530,-1.5750004,0.8621336333333334,-0.19704401000000002,1.928266566666667,-0.5965686866666666,-2.307195533333333
764,1778415349540,-1.48182428,0.8832100620000001,-0.172308832,1.7984411999999999,-0.48246243,-1.84901938
765,1778415349550,-1.385755,0.9241054055555556,-0.11112775822222222,1.7287232000000001,-0.36444674666666665,-1.5163265666666665
766,1778415349560,-1.262729488888889,0.9820390111111111,-0.05271649111111111,1.6983166222222223,-0.1581161177777778,-1.1556042999999998
767,1778415349570,-1.17828822,1.0125956999999999,-0.02147686402,1.7143887,0.142312146,-0.779227322
768,1778415349580,-1.1462897444444444,1.0206354555555555,-0.025194559088888888,1.6713034999999998,0.49847683666666665,-0.3827467166666667
769,1778415349590,-1.17622106,1.04056078,-0.0627170738,1.5361663,0.729924335,-0.048715075
770,1778415349600,-1.185496,1.045244,-0.067839324,1.2870721777777778,0.8662832666666667,0.4068751722222222
771,1778415349610,-1.31316198,1.05959541,-0.0378772098,1.034133878,0.850765182,0.84611506
772,1778415349620,-1.359662711111111,1.1349883666666667,0.06906228888888889,0.6691661822222223,0.5043816733333333,1.584970488888889
773,1778415349630,-1.44718202,1.40592656,0.182507602,0.44759831000000005,-0.168364775,2.2179101
774,1778415349640,-1.6978327333333332,1.5677269666666667,0.3484315888888889,0.39923957555555556,-0.9024674500000001,2.6724483333333335
775,1778415349650,-2.135094,1.6608184,0.63232349,0.47715653999999996,-1.356539088888889,2.931854811111111
776,1778415349660,-2.6655518799999998,1.68176272,1.032066322,0.9921686599999999,-2.3274198000000004,3.6207819
777,1778415349670,-3.1687891777777777,1.6027323999999998,1.4885997333333334,1.7688100666666666,-2.331451266666667,4.2535076
778,1778415349680,-3.4989388,1.4345044,1.9139378999999999,2.50763496,-1.9270398400000002,4.69155124
779,1778415349690,-3.6304454666666666,1.3350880666666667,2.198847666666667,3.691714811111111,-1.3185223333333334,5.206047488888888
780,1778415349700,-3.60571636,1.31539992,2.20015866,4.3681687600000005,-1.27350968,5.436418399999999
781,1778415349710,-3.468667622222222,1.1755936666666666,2.134064122222222,5.609648255555555,-1.5361960555555556,5.865016044444444
782,1778415349720,-3.16652916,0.9614219890000001,2.01691945,7.117439620000001,-2.1015283399999998,6.23467384
783,1778415349730,-2.755282633333333,0.71733862,1.7681926,8.221164066666667,-2.097674866666667,6.172611666666667
784,1778415349740,-2.4601433555555556,0.5433650033333334,1.5104675777777778,8.851083333333333,-1.4054662462222223,5.8082751111111115
785,1778415349750,-2.54809366,0.267567439,1.21061937,8.490181799999998,0.8662119936,5.34711244
786,1778415349760,-2.6333581777777777,0.03258658444444445,1.0604005888888888,8.049312766666667,1.9951289666666665,5.313352933333333
787,1778415349770,-2.75147144,-0.35946305,0.8605440700000001,7.0535449,3.6887690399999995,5.52535784
788,1778415349780,-2.4970156666666665,-0.80291272,0.55186144,5.671207766666667,4.2818102,6.270398133333334
789,1778415349790,-2.2813039799999997,-1.00510134,0.3798483755,4.98664396,4.301227559999999,6.642246269999999
790,1778415349800,-1.4201608222222222,-1.1997074333333333,-0.012683666111111111,3.5011983555555557,3.313948155555556,7.101718544444444
791,1778415349810,-0.659148196,-1.1388286,-0.18192524,2.49376862,2.6870559399999996,6.8792321
792,1778415349820,-0.37599754333333335,-1.0594114,-0.05596871,1.5314704555555556,2.406500711111111,6.324780522222222
793,1778415349830,-0.37270468500000004,-1.1173671,0.428912235,0.01756190000000002,2.597628,4.9026601
794,1778415349840,-0.6425781399999999,-1.2646572,0.9399736333333332,-0.65657595,3.007031311111111,3.867910266666667
795,1778415349850,-0.7247374,-1.2993137,1.0652452,-0.77195823,3.176711,3.5605524000000006
796,1778415349860,-0.6976473999999999,-1.3704458499999999,1.1550521999999999,-0.734330034,3.4000674,3.3680132800000004
797,1778415349870,-0.4912651155555555,-1.5528717333333335,1.0904192888888888,-0.5046786066666666,3.957450355555556,2.5693508222222223
798,1778415349880,-0.015589332000000008,-1.62706747,0.83514018,-0.458349242,2.81817444,2.0372214
799,1778415349890,0.3067760133333334,-1.6271375666666668,0.7740187666666666,-0.47651175888888886,1.2903724444444444,1.5921308888888888
800,1778415349900,0.39764513700000004,-1.61385018,0.772904904,-0.488708334,0.5211596000000001,1.36870249
801,1778415349910,0.43407005000000004,-1.547312488888889,0.7913774888888888,-0.4757651811111111,-0.8476269777777777,0.82197982
802,1778415349920,0.38982457,-1.4740342,0.859409915,-0.37826717,-1.57548965,0.37002073700000004
803,1778415349930,0.37335849555555556,-1.3895255222222223,0.90098418,-0.15283059333333332,-2.1621787111111113,-0.2539936648888889
804,1778415349940,0.40993582777777776,-1.2692915,0.8375895555555556,0.11315944911111113,-2.5287549555555553,-0.9850420999999999
805,1778415349950,0.42062209,-1.19431354,0.78636906,0.22799873,-2.6582546,-1.3311889
806,1778415349960,0.3591673011111111,-1.1208580555555558,0.7647498777777778,0.3503039422222222,-2.800174777777778,-1.8886973555555555
807,1778415349970,0.141258249,-1.0551378,0.7342044299999999,0.5048347200000001,-3.02537372,-2.57800456
808,1778415349980,-0.07335116088888888,-0.9675361666666666,0.6513185044444445,0.6728312999999999,-3.516427011111111,-2.9294453
809,1778415349990,-0.15013071,-0.84477493,0.56666415,0.761634916,-3.9341922599999997,-3.06155122
810,1778415350000,-0.08168159600000001,-0.7083950233333334,0.5139527433333334,0.7704311033333333,-4.342589666666666,-3.1646215333333334
811,1778415350010,0.058021679199999995,-0.475308242,0.43897684200000003,0.752105681,-4.8779057,-3.4006324999999995
812,1778415350020,0.09268833666666666,-0.17417344444444444,0.35651811,0.68844185,-5.598542244444444,-4.041653844444443
813,1778415350030,-0.14932578999999999,0.053923876,0.380814914,0.6552863999999999,-5.97003915,-4.5615018
814,1778415350040,-0.7591432222222222,0.17666003,0.4800415666666667,0.6889169122222222,-6.257374944444444,-5.135630555555555
815,1778415350050,-1.4045060333333332,0.21705874111111112,0.4849198944444445,0.8263575511111111,-6.302509944444444,-5.386756888888889
816,1778415350060,-1.8507176700000003,0.345489681,0.41287470099999996,0.882827,-6.2989807,-5.406304
817,1778415350070,-2.5615112222222223,0.6677693022222222,0.2474839711111111,0.9734360111111111,-6.403774722222222,-5.253388277777778
818,1778415350080,-2.98570775,0.897354185,0.1176288185,0.9164235999999999,-6.35517825,-4.99795225
819,1778415350090,-3.0352888888888887,1.27865864,-0.024168074111111118,0.7683270866666666,-5.983851188888888,-4.548334711111111
820,1778415350100,-2.79400455,1.62814385,-0.018308992500000003,0.635433885,-5.2480178,-4.158648
821,1778415350110,-2.5240396777777776,1.7427034333333333,0.08359905444444443,0.6498227333333334,-4.700715655555555,-4.17979008888889
822,1778415350120,-2.10916582,1.6948124,0.22026895,0.77446268,-3.4237684600000002,-4.506892120000001
823,1778415350130,-1.9490669555555558,1.4338303444444442,0.26455471555555554,1.0410364,-2.2008826999999997,-4.907852466666666
824,1778415350140,-1.9094304,1.2214534333333333,0.19171850000000001,1.3533830333333334,-1.2145425333333335,-5.1080065333333335
825,1778415350150,-1.88924424,1.111680748,0.118244708,1.5027301400000002,-0.8399302800000001,-5.1049115
826,1778415350160,-1.79668,0.92273678,-0.08063478666666667,1.7243794555555556,-0.41467196,-4.904662366666667
827,1778415350170,-1.6141308000000003,0.776941664,-0.25825287,1.8281895,-0.36139251,-4.493392500000001
828,1778415350180,-1.4073043333333333,0.6998782222222223,-0.35790366333333334,1.7431120555555557,-0.5467507222222223,-4.0854737666666665
829,1778415350190,-1.15528688,0.63565294,-0.45320326599999994,1.44965512,-0.9013815000000001,-3.65419511
830,1778415350200,-1.0642084,0.6152493,-0.48347333000000003,1.3013931666666667,-1.0259264777777777,-3.5360844222222223
831,1778415350210,-0.772374348,0.573118812,-0.45602659999999995,1.05313122,-1.10601536,-3.4555477199999998
832,1778415350220,-0.7679547177777778,0.5919011,-0.4075136111111111,0.6991655866666666,-1.0944092333333333,-3.4445931666666665
833,1778415350230,-0.8859764800000001,0.7199302133333334,-0.26016762000000004,0.3656429866666666,-1.0345462333333333,-3.3822867666666667
834,1778415350240,-0.934334988,0.8574280379999999,-0.124580439,0.308936,-0.9019923500000001,-3.2606262999999998
835,1778415350250,-0.9049884444444444,0.9899561333333333,-0.021708582222222224,0.3775884444444444,-0.7447330733333334,-3.1424952
836,1778415350260,-0.8590684120000001,1.0721845399999999,0.029715148400000002,0.64227536,-0.47806435399999997,-2.9985117600000004
837,1778415350270,-0.7901104277777777,1.1822404000000002,0.05783873944444445,1.1520749222222222,-0.01721401666666668,-2.873450877777778
838,1778415350280,-0.8760511259999999,1.2209736800000002,-0.0030306622000000017,1.64789794,0.347068132,-2.70787068
839,1778415350290,-1.0537200766666668,1.2842618666666668,-0.21331529566666665,2.023219411111111,0.6257366488888889,-2.396922222222222
840,1778415350300,-1.17817855,1.3343308500000002,-0.35962464,2.16287266,0.792650656,-2.0556078799999997
841,1778415350310,-1.2408956,1.3595915,-0.41978058,2.1943924,0.8927532399999999,-1.8071153
842,1778415350320,-1.2796173,1.4426451333333334,-0.59473999,2.0349612,1.265981,-0.9720107
843,1778415350330,-1.2033080200000001,1.46897592,-0.6437509419999999,1.5999998999999998,1.67158355,-0.077119465
844,1778415350340,-1.0374284266666667,1.4287418666666667,-0.6991261333333333,1.1173923666666665,1.8153363,0.6003101533333334
845,1778415350350,-0.9612145999999999,1.3876571500000001,-0.70164152,0.6871115560000001,1.78678932,1.104304984
846,1778415350360,-0.9517086244444444,1.3602894,-0.6685552422222223,0.2816175595555556,1.6499324,1.5385800444444444
847,1778415350370,-1.0198766,1.3207682,-0.57987121,-0.15445952933333335,1.3730149555555555,2.001805877777778
848,1778415350380,-1.22557153,1.26791546,-0.463899017,-0.40251782,0.8960060000000001,2.31161402
849,1778415350390,-1.672807588888889,1.3064549666666667,-0.29680594555555556,-0.4909684999999999,0.6587224,2.4359825
850,1778415350400,-2.3309287,1.4595059000000001,-0.12179064499999999,-0.642397542,-0.0796697566,2.96405987
851,1778415350410,-2.7396925,1.603891011111111,-0.016623598666666666,-0.7097197222222222,-0.6812049955555556,3.551126611111111
852,1778415350420,-2.9788154666666666,1.7096051666666667,0.17540996355555555,-0.6850142833333334,-0.8676491422222222,4.0041716111111105
853,1778415350430,-3.0740817999999996,1.6914401599999997,0.50657834,-0.477163336,-0.43921446,4.61861604
854,1778415350440,-2.837143888888889,1.558539488888889,0.7123857166666666,-0.051633559999999995,0.472795811111111,4.9313019888888885
855,1778415350450,-2.63981876,1.34274906,0.66989882,0.493595122,1.28784926,5.004304960000001
856,1778415350460,-2.6261085333333334,1.1858313333333335,0.6334617466666667,0.6908173377777778,1.4519499333333332,4.954785533333333
857,1778415350470,-2.68468405,0.950207875,0.6386653200000001,0.840495285,1.46603339,4.874683299999999
858,1778415350480,-2.661852411111111,0.7275323055555556,0.6211981866666667,0.8305656344444444,1.4058649666666667,4.8821627111111106
859,1778415350490,-2.5288331333333334,0.5120895,0.5492088866666667,0.7582820233333334,1.3064326333333334,4.925939933333333
860,1778415350500,-2.25441212,0.31443297600000003,0.5236708139999999,0.5913306819999999,0.9243493600000001,4.9649664399999995
861,1778415350510,-2.0857519222222223,0.21795987,0.5386594888888889,0.47837824777777777,0.6602834777777777,4.970328466666667
862,1778415350520,-1.79551946,0.107859954,0.643653384,0.37863368199999997,0.413772652,4.76815152
863,1778415350530,-1.6144167,0.010837354444444445,0.7725315266666667,0.3862081888888889,0.38933876444444443,4.498822055555555
864,1778415350540,-1.3942368200000002,-0.132690677,0.8953266300000001,0.578808334,0.727007481,3.95261699
865,1778415350550,-1.3024879,-0.19003142444444443,0.9081762999999999,0.64826167,0.8573241,3.7993937
866,1778415350560,-1.06351631,-0.34435851,0.8092941899999999,1.0605836,1.35259902,3.09496456
867,1778415350570,-0.9578099666666667,-0.4444060133333333,0.7162714666666666,1.3407588444444443,1.6111096777777778,2.543356
868,1778415350580,-0.8520991888888889,-0.5481654888888888,0.5897464755555556,1.4900091666666666,1.7573057666666667,2.1303553666666666
869,1778415350590,-0.6977968299999999,-0.663956448,0.420210506,1.4695458399999999,1.91647223,1.38417228
870,1778415350600,-0.6230207777777778,-0.7218307555555555,0.3358258388888889,1.3434737444444442,1.9695412444444444,0.9873158377777779
871,1778415350610,-0.55258712,-0.775777004,0.24980725600000003,1.11097845,1.9825047000000002,0.625660315
872,1778415350620,-0.5206401399999999,-0.7863263933333333,0.2178480766666667,0.9158806,1.9674371333333331,0.42676164777777775
873,1778415350630,-0.47628999,-0.7865215240000001,0.19712736,0.37606811799999995,1.8652221,0.0527466624
874,1778415350640,-0.43411748666666666,-0.7827760511111111,0.2122074988888889,-0.07491362000000001,1.7178043333333333,-0.1442447948888889
875,1778415350650,-0.36345618,-0.7828302333333333,0.24696561666666664,-0.48146642000000006,1.4973563666666667,-0.2742874
876,1778415350660,-0.324006716,-0.7854482700000001,0.268387604,-0.66383828,1.3241336400000001,-0.32231356800000005
877,1778415350670,-0.21639472666666668,-0.79169255,0.3196934633333333,-0.8225907,1.0211584166666665,-0.36930805777777775
878,1778415350680,-0.09647513760000001,-0.789716825,0.341178445,-0.8440381800000001,0.52836761,-0.45694429599999997
879,1778415350690,0.06393665688888889,-0.7682866888888888,0.30630852777777773,-0.71005904,-0.21030962666666667,-0.6959077333333332
880,1778415350700,0.145038955,-0.7387321,0.275397165,-0.62596573,-0.67597884,-0.8895463249999999
881,1778415350710,0.1504864233333333,-0.6969207133333334,0.27747553333333336,-0.5899257333333333,-1.1089337955555554,-1.1480705000000002
882,1778415350720,0.12009169244444445,-0.6786980988888889,0.2904403877777778,-0.6035001244444445,-1.3695619555555554,-1.3510245
883,1778415350730,0.0048539416,-0.6610873159999999,0.33560496,-0.6901046799999999,-1.6842433800000003,-1.6806698199999999
884,1778415350740,-0.07931356933333333,-0.6691853533333333,0.40315362,-0.7366648333333333,-1.8364274666666667,-1.9070905555555555
885,1778415350750,-0.140852735,-0.674893,0.455846694,-0.7526554759999999,-1.9855896000000002,-2.1543208999999997
886,1778415350760,-0.1410109377777778,-0.6646424333333333,0.49828446666666665,-0.7158960288888889,-2.1083563111111108,-2.374524611111111
887,1778415350770,-0.09856672279999999,-0.6482268600000001,0.5626730799999999,-0.671718182,-2.22840129,-2.60146117
888,1778415350780,-0.02732882966666667,-0.6270386333333333,0.6332991866666666,-0.6001065066666667,-2.4236891666666667,-3.0636281333333333
889,1778415350790,0.0025001454999999994,-0.5918973750000001,0.66288933,-0.516257542,-2.9161542799999998,-3.8432372
890,1778415350800,-0.4074187633333333,-0.3469037166666667,0.6916257222222222,-0.42723675222222224,-3.5992987111111114,-4.564963333333334
891,1778415350810,-1.2107922100000001,-0.11307570666666668,0.65835142,-0.30404922666666667,-4.697924533333333,-5.260310966666667
892,1778415350820,-1.67260368,-0.018055934000000003,0.668630484,-0.239910264,-5.257608299999999,-5.37356204
893,1778415350830,-3.2784431333333335,0.24809713111111112,0.9330287222222222,0.005446721111111108,-6.575083666666667,-5.176692788888889
894,1778415350840,-4.28923808,0.6610995199999999,1.34065445,0.35163420959999997,-5.97694204,-4.4913767
895,1778415350850,-4.232184511111111,1.1267052933333332,1.3324253222222222,0.7170837666666666,-4.561425577777778,-3.925508166666667
896,1778415350860,-3.85079152,1.44069992,1.1326575719999998,0.9870375499999999,-3.23152696,-3.65957055
897,1778415350870,-3.0073095666666667,1.6243630666666666,0.6402202733333333,1.3943352333333334,-1.28132845,-3.7901290000000003
898,1778415350880,-2.5664303,1.4018043,0.43513209999999997,1.6254493,-0.4960232380000001,-4.0779094
899,1778415350890,-2.3178419555555556,1.1727038777777778,0.3424082,1.8392865888888887,-0.13008501333333333,-4.200083988888888
900,1778415350900,-2.1505354444444444,1.0750220777777777,0.17451222222222224,1.9522933333333334,-0.14454172666666665,-4.1188158
901,1778415350910,-1.86922492,0.963287938,-0.11215898399999999,2.10972898,-0.4586393999999999,-3.77428776
902,1778415350920,-1.7054043666666665,0.9370465533333332,-0.21752285999999998,2.063263833333333,-0.6719065666666667,-3.581423
903,1778415350930,-1.46272255,0.9209073999999999,-0.28760825,1.88347115,-0.8622873,-3.3531697
904,1778415350940,-1.3636466777777776,0.8801428111111111,-0.27220085,1.5606892666666665,-0.6735354733333333,-3.0622028
905,1778415350950,-1.27301942,0.8378049580000001,-0.238684662,1.367351,-0.327918086,-2.75527244
906,1778415350960,-1.1815696111111111,0.83427631,-0.21932173666666668,1.3244016666666667,-0.09886393666666667,-2.552009622222222
907,1778415350970,-1.0388106,0.8544096399999999,-0.20623154999999999,1.3476818,0.15294088,-2.296404
908,1778415350980,-0.7869801999999999,0.8934633822222222,-0.22097495444444445,1.480235588888889,0.27884328444444445,-2.0925845333333335
909,1778415350990,-0.5980837,0.9305421,-0.23623328,1.63788762,0.351160821,-1.94541106
910,1778415351000,-0.4679744688888889,0.9769201444444445,-0.24176883555555553,1.9441486555555554,0.41872731444444444,-1.7856677111111112
911,1778415351010,-0.229815235,1.0933412500000002,-0.28457452499999997,2.30727705,0.49422124600000006,-1.65024969
912,1778415351020,-0.21199408,1.1588989666666667,-0.31475414,2.4363558333333333,0.5449690677777776,-1.5968480555555555
913,1778415351030,-0.27034436222222225,1.2555915666666666,-0.3400672688888889,2.570606388888889,0.6283157644444444,-1.504185911111111
914,1778415351040,-0.43273867,1.3144365,-0.330568075,2.623207,0.9082916750000001,-1.16412215
915,1778415351050,-0.5745186333333333,1.348195211111111,-0.32215294222222224,2.62056,1.2313662222222224,-0.7887565111111111
916,1778415351060,-0.59320536,1.3669090799999999,-0.363978556,2.55448685,1.5915625,-0.310463106
917,1778415351070,-0.5772085,1.363541688888889,-0.4031976466666667,2.4409711666666665,1.829249988888889,0.11964122400000002
918,1778415351080,-0.529146725,1.32224175,-0.46894503500000007,2.1922544,2.00205185,0.724617575
919,1778415351090,-0.4928641111111111,1.2519599222222224,-0.4386129866666667,1.8303614,1.8564665999999999,1.24750285
920,1778415351100,-0.436153484,1.15136901,-0.344065804,1.2566656,1.5671286,2.0105885399999996
921,1778415351110,-0.40007754444444443,1.1045325777777777,-0.2607062711111111,0.9642733222222222,1.3969737111111113,2.337161111111111
922,1778415351120,-0.3640354766666667,1.0849514999999998,-0.19020419,0.7396851066666666,1.2973377666666668,2.5799389666666666
923,1778415351130,-0.325671434,1.0979604200000002,-0.10885391159999999,0.539591918,1.2405086300000001,2.79235083
924,1778415351140,-0.34272325,1.1193539333333336,-0.049698022,0.4332434133333333,1.2101902333333332,2.9118325333333335
925,1778415351150,-0.608870911,1.1483841,0.11760746560000002,0.49035766599999997,1.2551688799999998,3.03106983
926,1778415351160,-0.8710061333333334,1.180699,0.19083431,0.7685985666666667,1.1297619666666665,3.0796119
927,1778415351170,-1.2111621600000002,1.2447312,0.120305806,1.03370624,0.8836669019999999,3.03131424
928,1778415351180,-1.5951642333333333,1.3272014666666667,0.0036587499999999975,1.1644275555555557,0.6849888433333333,2.947397333333333
929,1778415351190,-2.33164828,1.4864464800000001,-0.182352098,1.25287828,0.28158532,2.7164836
930,1778415351200,-3.313912666666667,1.4463953999999999,-0.14984613666666668,0.918867,0.3811941333333333,2.8761998666666666
931,1778415351210,-3.8961484444444445,1.231952,0.003594386666666662,0.5005045044444444,1.0691353666666668,3.497363588888889
932,1778415351220,-4.00233086,1.03260904,0.12561709,0.36831036699999997,1.44483698,3.83038649
933,1778415351230,-3.642637944444444,0.7228131555555556,0.25668163666666666,0.22229750111111113,2.033340811111111,4.3756348222222226
934,1778415351240,-3.08067665,0.457740106,0.32519274499999995,0.197945056,2.14425708,4.48447422
935,1778415351250,-2.8994780777777778,0.3549902222222222,0.3675045066666666,0.1788594711111111,2.0877062000000004,4.355001633333334
936,1778415351260,-2.63064132,0.11261023339999998,0.58949786,0.1291636488,1.9525732000000002,3.8914482
937,1778415351270,-2.3691829111111113,-0.08761012344444445,0.728653611111111,0.139018656,1.9393383000000002,3.4357358666666666
938,1778415351280,-2.0072572,-0.21777490400000002,0.718511448,0.232763344,1.90724838,3.0644221600000003
939,1778415351290,-1.7307986888888889,-0.2732984711111111,0.6204088533333334,0.4117958955555555,1.7980967333333335,2.6196438888888887
940,1778415351300,-1.5759658666666667,-0.3876344,0.5336490333333334,0.6266105288888889,1.7085058999999998,2.0878674999999998
941,1778415351310,-1.5322845,-0.436123,0.50713325,0.70995724,1.7009043,1.8587319
942,1778415351320,-1.4227591444444443,-0.6033177144444445,0.4144381188888889,0.7451827733333334,1.9043841444444445,1.562878211111111
943,1778415351330,-1.1729587,-0.71471245,0.24242268,0.67550542,2.16178837,1.2992950300000001
944,1778415351340,-0.8879481333333333,-0.7719183388888888,0.08020115737777778,0.4523833133333333,2.320371088888889,1.0095099333333333
945,1778415351350,-0.529640638,-0.77547816,-0.08264506736,-0.037231128,2.3234796799999997,0.55400792
946,1778415351360,-0.29407203555555556,-0.7584622555555556,-0.16450824555555557,-0.5961020777777778,2.224536111111111,0.11617976111111111
947,1778415351370,-0.13087348999999998,-0.7737067200000001,-0.173622944,-1.2617813439999999,2.01268066,-0.324146088
948,1778415351380,-0.07378478933333334,-0.8018659,-0.14334170499999999,-1.6655683555555556,1.8302680333333337,-0.5565666777777778
949,1778415351390,-0.0165558441,-0.8577268799999999,-0.0845537156,-2.37917378,1.28039696,-0.87317564
950,1778415351400,0.06459048966666665,-0.8809965555555554,0.08797938644444445,-2.8413815666666666,0.5410579733333333,-0.9375996666666667
951,1778415351410,0.10699811444444444,-0.8679334444444444,0.24335431666666663,-3.0590467444444442,-0.15485826000000003,-0.8678273266666667
952,1778415351420,0.17933669300000002,-0.830716138,0.43331799000000004,-3.1057154000000002,-0.802057688,-0.747096748
953,1778415351430,0.30661344,-0.7791613066666666,0.59922198,-2.8739600000000003,-1.4896273333333334,-0.63950615
954,1778415351440,0.36139303,-0.738488185,0.74556182,-2.35443435,-2.0473691,-0.716676525
955,1778415351450,0.3044520333333333,-0.7182566722222222,0.9156563888888889,-1.4653037444444443,-2.309121411111111,-1.0005168666666668
956,1778415351460,0.10621961579999999,-0.70709001,1.02848684,-0.49964251200000004,-2.0822256,-1.37191712
957,1778415351470,-0.078175302,-0.7056915666666667,1.0114817999999999,0.2596270577777778,-1.564863388888889,-1.7296734222222223
958,1778415351480,-0.20013668999999998,-0.704992351,1.0319382799999999,0.7325585799999998,-1.057514006,-1.9644695200000002
959,1778415351490,-0.3477675877777778,-0.69875351,1.1183274777777779,1.4046432555555555,0.05101422111111112,-2.2382375999999997
960,1778415351500,-0.544287858,-0.67913717,1.2210041400000002,2.3739815,1.66486415,-2.4136865
961,1778415351510,-0.6778037966666667,-0.6141821166666667,1.2737430333333333,3.4177158,2.9230737555555555,-2.4412425111111116
962,1778415351520,-0.616496359,-0.5065356320000001,1.2631834999999998,4.284391080000001,3.4063897400000003,-2.38705356
963,1778415351530,-0.54462528,-0.37858916,1.1199332666666666,4.589601,3.4882433,-2.3684838
964,1778415351540,-0.6119655820000001,-0.12570549709999998,0.681201355,6.1280806,2.4664790500000002,-2.61123459
965,1778415351550,-1.5251195,0.031322965,-0.16986762333333333,7.124591555555556,0.30575450000000004,-2.775579577777778
966,1778415351560,-2.3206943333333334,0.00318446711111111,-0.6597268377777777,7.5412911,-1.2310608666666667,-2.6095648333333332
967,1778415351570,-3.0932139,-0.012073875349999999,-1.235255,7.408432,-2.41361035,-1.95891075
968,1778415351580,-3.539925222222222,0.007890027377777777,-1.6542903,7.227926700000001,-2.8036363,-1.6446298
969,1778415351590,-4.0457666,0.08419394,-2.12453862,6.536004539999999,-3.11840583,-0.7328028950000001
970,1778415351600,-3.637854588888889,0.13116958,-1.8606031333333333,5.928849633333333,-2.5083254333333334,-0.23505741666666666
971,1778415351610,-3.0504981,0.22635467999999997,-1.5999867,5.51112528,-1.312267864,0.002535014000000002
972,1778415351620,-2.2240864333333334,0.3352092788888889,-1.5512084666666666,5.220199,-0.2589737953333333,0.06989110333333333
973,1778415351630,-2.03957028,0.34656902,-1.5554536300000001,5.104423,0.04836383130000001,0.086098915
974,1778415351640,-1.5354893,0.2872999633333333,-1.474649033333333,4.722358333333334,0.2881417466666667,0.18371231333333332
975,1778415351650,-1.3050914,0.18619988999999998,-1.38534,4.235271299999999,0.216469005,0.39598173
976,1778415351660,-1.0563184066666667,0.12044740777777779,-1.3004553,3.8084544999999994,0.117104509,0.58870403
977,1778415351670,-0.6169079319999999,0.087706337,-1.15548206,3.0908108,-0.0926197165,0.811357855
978,1778415351680,-0.45847186,0.084669575,-1.1038449,2.6591793444444445,-0.23447202444444443,0.8868653622222222
979,1778415351690,-0.129480113,0.103554824,-0.919288412,2.2916393,-0.395844288,0.873358882
980,1778415351700,0.17907548777777776,0.13872760666666664,-0.6654622888888889,1.9159818333333334,-0.5766822044444445,0.7184072777777778
981,1778415351710,0.5503369866666667,0.15538508666666667,-0.38282720666666664,1.9781525666666664,-0.6305725333333334,0.4194993533333334
982,1778415351720,0.826237256,0.17356500800000002,-0.283827526,2.2295162,-0.6985802,0.1892099425
983,1778415351730,0.9547949088888887,0.1897536188888889,-0.3056038777777778,2.4626222666666666,-0.7824020111111111,0.0561131088888889
984,1778415351740,1.28249554,0.23848952199999998,-0.642531404,2.88269512,-1.19837542,-0.172045124
985,1778415351750,1.4541905,0.27545306333333336,-0.8601213,2.9299204999999997,-1.6891453777777778,-0.2713688933333333
986,1778415351760,1.51697878,0.496437492,-0.8588610799999999,2.5899772000000003,-1.9962182400000004,-0.30362163799999997
987,1778415351770,1.4087204333333334,0.7733886333333333,-0.7827387666666666,1.9374293333333332,-1.5169373333333334,-0.21109863
988,1778415351780,1.3087531900000002,0.8562725219999999,-0.73597588,1.7099905,-1.2336824,-0.16141638
989,1778415351790,1.2337305,0.8948489266666666,-0.6552008500000001,1.3084518111111112,-0.5970438066666666,-0.1236796
990,1778415351800,1.19635028,0.904735734,-0.5337811539999999,1.136328588,-0.319854906,-0.24925622399999997
991,1778415351810,0.7188020666666667,1.0303650233333332,-0.41277812333333336,0.9908790977777778,-0.050606998,-0.6997764166666667
992,1778415351820,0.202450837,1.2483715700000002,-0.43900123,1.01709118,-0.3947447824,-0.6935865160000001
993,1778415351830,-0.17334342666666666,1.4183144,-0.4332671666666667,1.0437512777777778,-0.73516318,-0.6063846844444445
994,1778415351840,-1.01319935,1.73833315,-0.42952201,1.11140612,-1.35621834,-0.218713856
995,1778415351850,-1.861694,2.0275370555555554,-0.48614288111111104,1.1892687,-1.7010229444444445,0.23936728666666665
996,1778415351860,-2.821058888888889,2.2852621666666666,-0.5728146055555556,1.2829319000000001,-1.9236767666666665,0.8326017666666667
997,1778415351870,-4.0080082,2.5513988999999997,-0.70334895,1.2731583800000001,-1.83283188,1.66313858
998,1778415351880,-4.5168861,2.6989514333333333,-0.7546137844444445,1.18438193,-1.651094638888889,2.030244222222222
999,1778415351890,-4.942407090000001,3.02307275,-0.784875022,0.668847209,-0.806639055,2.98299616
1000,1778415351900,-5.057551,3.10012,-0.8595318,0.2793099,-0.3717769,3.498246
