id,timestamp,acc_x,acc_y,acc_z,gyro_x,gyro_y,gyro_z
0,1778415158520,-0.4487152,-0.89444244,0.021708583,0.11193776,0.21158221,0.0010689828
1,1778415158530,-0.4446174,-0.897369408,0.0141959498,0.11193776,0.21158221,0.0010689828
2,1778415158540,-0.43375499333333334,-0.9068008200000001,-0.013679660000000001,-0.009824460000000004,0.04230965666666667,0.041927875777777776
3,1778415158550,-0.42886040400000003,-0.908052964,-0.0186657232,-0.127025684,-0.10495883639999999,0.0666739796
4,1778415158560,-0.4255431288888889,-0.9042533355555555,-0.004468417444444445,-0.20176623777777777,-0.19096613444444444,0.07457427222222221
5,1778415158570,-0.42974389444444444,-0.8940359600000001,0.04581568333333333,-0.3138227733333333,-0.29867886666666665,0.07661042666666668
6,1778415158580,-0.444861308,-0.88868604,0.092828592,-0.372830614,-0.343555776,0.076569704
7,1778415158590,-0.46340441444444447,-0.8799836066666666,0.13987944222222223,-0.42418250999999996,-0.3835866177777778,0.08461931777777777
8,1778415158600,-0.46383805499999997,-0.86684937,0.1599636,-0.43159413,-0.431639936,0.09843803599999999
9,1778415158610,-0.45741489999999996,-0.856008611111111,0.1730283888888889,-0.4346347888888889,-0.45715979333333334,0.09737923
10,1778415158620,-0.44969085,-0.847336,0.1803459,-0.5205335,-0.393034388,0.05909947120000001
11,1778415158630,-0.4690856388888889,-0.8423221666666667,0.24474667777777778,-0.6073009444444444,-0.26291036,0.0033087556666666668
12,1778415158640,-0.490601809,-0.8377988799999999,0.311423669,-0.60702944,-0.21393398800000002,-0.020310671600000003
13,1778415158650,-0.5066081388888889,-0.8351639111111111,0.3548411711111111,-0.5679352,-0.1958529,-0.037414394
14,1778415158660,-0.52265245,-0.8236456000000001,0.4192622999999999,-0.42927292,-0.13843326,-0.05635066
15,1778415158670,-0.5535790377777777,-0.8469565888888889,0.43099736666666666,-0.33472733555555556,-0.05678334444444444,-0.06028723622222222
16,1778415158680,-0.54183035,-0.844043125,0.35825260000000003,-0.13514995800000001,-0.0153475375,0.002596101
17,1778415158690,-0.5260130333333334,-0.8431081111111111,0.3191683477777778,-0.063375406,-0.037032615,0.024281178
18,1778415158700,-0.49669975,-0.8543608,0.262756188,0.048226391,-0.0984227635,0.0441337135
19,1778415158710,-0.4936264,-0.856117,0.25623447,0.06632782933333332,-0.09974626666666667,0.04077405366666667
20,1778415158720,-0.4869050888888889,-0.8654400666666667,0.21665221666666667,0.09605573,-0.08841165555555555,0.030118163333333337
21,1778415158730,-0.48777235,-0.87306925,0.184126595,0.10876135499999999,-0.0799751728,0.0253196199
22,1778415158740,-0.48760974666666673,-0.8748986333333334,0.17245925,0.11709602311111111,-0.07422642355555556,0.025027770777777777
23,1778415158750,-0.48728454,-0.8758742999999999,0.16790615,0.122322164,-0.06757498,0.025502874
24,1778415158760,-0.48739293,-0.8753322888888889,0.16356645888888888,0.12496916777777778,-0.030788399722222224,0.030050292555555556
25,1778415158770,-0.482894024,-0.87084958,0.156655484,0.119267922,0.0076814043,0.0314891766
26,1778415158780,-0.4756578322222222,-0.8660904888888888,0.15324065111111113,0.11071606222222223,0.04801089677777778,0.029303700888888888
27,1778415158790,-0.47347883,-0.8604099599999999,0.16154601600000001,0.106073626,0.0809830744,0.0357651076
28,1778415158800,-0.46916695111111106,-0.8575805488888889,0.17828615222222222,0.11064819388888888,0.10108673777777777,0.034937071
29,1778415158810,-0.46393561199999994,-0.8648492879999999,0.18019953,0.11260969000000001,0.11238062499999998,0.023731417050000002
30,1778415158820,-0.46310625666666666,-0.8563609666666667,0.17294707666666667,0.11288796611111113,0.1485970811111111,0.008127661944444444
31,1778415158830,-0.46614303,-0.8527509959999999,0.19113920199999998,0.112548605,0.15538427,0.0016798299999999998
32,1778415158840,-0.4730424888888889,-0.8527022111111111,0.22379355,0.14288736,0.2134147633333333,-0.025808296666666664
33,1778415158850,-0.46934139999999996,-0.8352468999999999,0.23428196999999998,0.172778152,0.24737786599999997,-0.0414459872
34,1778415158860,-0.4733812622222222,-0.8197158222222223,0.2442012533333333,0.2057367466666667,0.2774179677777778,-0.061576798111111115
35,1778415158870,-0.509743132,-0.79398533,0.294108632,0.25151636499999996,0.324588965,-0.08475505800000001
36,1778415158880,-0.5132108311111111,-0.7977362277777778,0.3272311555555556,0.3203045522222222,0.41187225,-0.09374808777777778
37,1778415158890,-0.5024073600000001,-0.8030346500000001,0.33642207,0.401479365,0.5112028,-0.11987877499999999
38,1778415158900,-0.5104566,-0.7943756,0.33678794,0.42835665,0.5396072,-0.13820419
39,1778415158910,-0.5277171222222221,-0.7951615622222222,0.38900982,0.5171330966666666,0.6662561711111111,-0.18354263444444444
40,1778415158920,-0.5569532500000001,-0.79876615,0.45647477500000005,0.64337488,0.8996711420000001,-0.25976279199999996
41,1778415158930,-0.5779707333333334,-0.7974652666666667,0.4969497133333333,0.7185091,1.0521845,-0.3037438
42,1778415158940,-0.584378581,-0.792546228,0.527305168,0.8583931079999999,1.29163653,-0.380649464
43,1778415158950,-0.6024199855555555,-0.7873020444444445,0.5638438888888889,0.96101546,1.454122,-0.43751934
44,1778415158960,-0.61149913,-0.7775454,0.588388,1.1369394,1.6960174,-0.54136336
45,1778415158970,-0.6264593166666667,-0.7647262,0.5886048,1.291687488888889,1.9267818444444442,-0.6434427733333333
46,1778415158980,-0.74120178,-0.71395933,0.59326635,1.50654025,2.4653795,-0.7963921
47,1778415158990,-0.8439889444444444,-0.6700662000000001,0.5916131222222222,1.5725498999999998,2.8311752222222224,-0.8048421555555555
48,1778415159000,-0.928706612,-0.5988459199999999,0.5673501599999999,1.57572634,3.09388028,-0.73610146
49,1778415159010,-0.9699752899999999,-0.5202403622222221,0.5384900577777778,1.5550304666666668,3.225714733333333,-0.6592568666666667
50,1778415159020,-1.0134434,-0.44392833,0.51079196,1.4979502,3.2658949999999995,-0.5517478
51,1778415159030,-1.1959844,-0.3818515533333333,0.5592704133333334,1.3700794666666667,3.0533200666666667,-0.40168298
52,1778415159040,-1.56231668,-0.358057472,0.705486272,1.19832965,2.6605452,-0.105829288
53,1778415159050,-1.8378442444444443,-0.3739886166666666,0.8262507711111111,1.0818275000000002,2.224332377777778,0.29346122444444445
54,1778415159060,-2.02306918,-0.398633018,0.9152119400000001,1.0090280999999999,1.80902414,0.6775212740000001
55,1778415159070,-2.3179808333333334,-0.4681167611111111,1.0731182333333333,0.9693637333333334,1.2568182333333333,1.18817428
56,1778415159080,-2.549478033333333,-0.5334152666666667,1.2047655,0.998412911111111,0.4729993946666667,1.8923285000000003
57,1778415159090,-2.9792286999999997,-0.656730385,1.4595212,1.0922865,-0.3386079161,2.74140615
58,1778415159100,-3.3663751,-0.8016931033333333,1.6345364333333334,1.1699252333333332,-0.7203670666666667,3.4355322
59,1778415159110,-3.5195862900000003,-0.899854339,1.69948028,1.2081032,-0.9254488500000001,3.9360019800000003
60,1778415159120,-3.6862008555555557,-1.1487324,1.772390011111111,1.243226877777778,-1.252754388888889,4.807300333333334
61,1778415159130,-3.76448176,-1.47906196,1.83677792,1.33008936,-1.82881556,5.791443
62,1778415159140,-3.7831169999999994,-1.6270462,1.8659626,1.3818892,-2.1139896,6.206819
63,1778415159150,-3.7745428,-2.052870488888889,2.1689951222222223,1.7290456222222224,-2.7608769888888887,6.849286222222222
64,1778415159160,-3.65236552,-2.6723510999999998,2.8413303599999997,3.1464589199999997,-3.49865834,7.645440580000001
65,1778415159170,-3.6629271111111112,-2.8613322777777777,3.014698222222222,4.109975444444444,-3.311793388888889,7.622364122222223
66,1778415159180,-3.6980815,-3.08731425,3.1283073999999997,5.43257,-2.44869585,7.3885793500000005
67,1778415159190,-3.692756133333333,-3.3407641666666663,3.0538264,6.489403722222223,-0.8722644444444445,7.004119077777777
68,1778415159200,-3.75177385,-3.6093418999999995,2.8499681000000003,7.20040035,0.72748093,6.63872625
69,1778415159210,-3.8620071555555557,-3.891992177777778,2.5887317666666667,7.620497866666666,1.8294536555555558,6.439348222222223
70,1778415159220,-4.05718785,-4.3523425,1.91184935,8.0192795,3.2109567999999995,6.5196112
71,1778415159230,-3.9699641111111115,-4.557721888888889,1.2089153333333333,7.9422106,3.9568393000000004,7.110338466666667
72,1778415159240,-3.6369502,-4.5611197,0.654032035,7.725889240000001,4.17601126,7.51361976
73,1778415159250,-3.1320662777777777,-4.375576955555555,0.09896579777777778,7.238039555555556,4.279027322222222,7.887200555555555
74,1778415159260,-2.83793384,-4.19429946,-0.27636368,6.718831059999999,4.24919088,8.0313744
75,1778415159270,-2.5210008,-3.8466777666666667,-0.8430979666666666,5.6966597,3.9100078333333332,8.127806666666666
76,1778415159280,-2.40538436,-3.55712822,-1.10836958,4.61376764,3.4430939799999996,8.2788891
77,1778415159290,-2.2565951777777777,-3.241825333333333,-1.179865588888889,2.6950156888888888,2.5811350444444443,8.761933444444445
78,1778415159300,-2.09126233,-3.07668869,-1.06878183,1.49676665,2.0365647,9.2083315
79,1778415159310,-1.7821093888888886,-2.8305241,-0.7848425400000001,0.6961113648888888,1.6497287555555558,9.546813111111112
80,1778415159320,-1.3538798333333333,-2.5826607666666668,-0.27081864,-0.05489141266666667,1.2054986111111112,9.906738222222222
81,1778415159330,-0.9879387850000001,-2.40361884,0.185437638,-0.43330450000000004,0.6891426,10.1744244
82,1778415159340,-0.5959697566666667,-2.201297133333333,0.6022099,-0.19816904222222223,0.2679837755555556,10.174560222222222
83,1778415159350,-0.13647138,-1.8989217500000002,0.9401768,0.7808765919999999,-0.219553777,9.8372977
84,1778415159360,0.01113886,-1.7381705333333335,0.9219948666666666,1.6783792333333334,-0.18282150666666666,9.329598
85,1778415159370,0.0970148058,-1.57704935,0.8043792599999999,2.3458826000000004,0.05911474699999999,8.7772796
86,1778415159380,0.10139141666666668,-1.4625446555555555,0.6557157555555555,2.8357820777777776,0.5138158722222221,8.10886991111111
87,1778415159390,0.07771185350000001,-1.40890841,0.560563162,3.14279384,1.07681681,7.427490180000001
88,1778415159400,0.04140824111111111,-1.3252907444444446,0.41681969555555554,3.2770174,1.7585952888888887,6.686368111111111
89,1778415159410,0.0124092595,-1.2728334000000001,0.33835815,3.22220412,2.16074996,6.2878174
90,1778415159420,-0.011890937777777777,-1.238517322222222,0.2894342355555556,3.1412058,2.4345317,6.04189
91,1778415159430,-0.05109037866666667,-1.1576895333333335,0.2348511033333333,2.8514603666666662,2.8108137333333336,5.673345744444444
92,1778415159440,-0.058832702400000006,-1.08050818,0.259893204,2.5092841,3.0856950500000004,5.342775550000001
93,1778415159450,-0.03399588716666666,-1.0459146666666665,0.25997450666666666,2.276585311111111,3.156078133333333,5.1364109777777776
94,1778415159460,0.0281540807,-0.997326464,0.227244956,2.1386831200000005,3.11831414,4.9918438
95,1778415159470,0.081020986,-0.94373394,0.19896485,1.9671572,2.9629147,4.771939
96,1778415159480,0.08720021,-0.9071260999999999,0.18839513,1.8144453999999999,2.7558374,4.5318756
97,1778415159490,-0.060423579888888884,-0.8243739733333333,0.17097881555555555,1.6195003333333335,2.403853688888889,4.233510622222223
98,1778415159500,-0.268851058,-0.79500979,0.256832068,1.41475276,2.08836471,4.0175422
99,1778415159510,-0.34206265,-0.79339993,0.30529222,1.3275238,2.050309,3.9790590000000003
100,1778415159520,-0.42042089000000005,-0.7458057,0.39145577,1.25519948,2.15293116,3.9727062
101,1778415159530,-0.39697438555555553,-0.7238803222222222,0.3974418866666667,1.1708754333333333,2.2779511777777777,3.952716355555556
102,1778415159540,-0.2746061355555556,-0.7073345933333334,0.33300723555555556,0.988435711111111,2.220260111111111,3.8033302222222227
103,1778415159550,-0.20992079000000002,-0.689430445,0.32128399,0.781120915,2.03625935,3.5962869
104,1778415159560,-0.20272525,-0.68211293,0.3389832,0.67391723,1.9666227,3.4988568
105,1778415159570,-0.210725706,-0.6903085859999999,0.3623992,0.5372096120000001,1.9105469400000001,3.4270210800000003
106,1778415159580,-0.07842937,-0.7737850066666667,0.34035522999999995,0.18815791733333334,1.586743588888889,3.3487240666666667
107,1778415159590,0.29927052499999995,-0.81559633,0.35996003499999996,0.037414394,1.3716575,3.3400364
108,1778415159600,0.6886885666666667,-0.7974550499999999,0.43960899333333336,-0.015593572,1.2635969222222223,3.3261905333333335
109,1778415159610,1.11542482,-0.728573018,0.523134204,-0.45761620999999997,0.3065078608,3.19208924
110,1778415159620,1.4192257666666668,-0.7068298555555556,0.5049854533333333,-0.5289767444444444,-0.12513036866666666,3.0796119333333336
111,1778415159630,3.5588234200000004,-0.558520388,3.15761732,0.26232837999999997,0.25986966999999994,2.5072074
112,1778415159640,4.3782872,-0.37423253666666667,5.090046444444444,3.0098143555555557,0.902077161111111,0.9867389166666667
113,1778415159650,3.01939261,-0.311624888,2.19969844,4.6867258,-0.094452258,-0.33367529000000007
114,1778415159660,3.1400003,-0.10884781,-0.48493680000000006,5.3226175,-0.7853205,-1.2444485
115,1778415159670,2.8023586000000003,-0.96825165,-1.43467821,2.835217,-0.75160176,-1.49447603
116,1778415159680,2.698626311111111,-1.1008941777777776,-2.1357479666666666,0.982123548888889,-1.7242776444444443,-1.5792692222222222
117,1778415159690,2.5517404200000002,-0.8084739799999999,-1.211851244,-0.8710681680000001,-3.6040905199999997,-1.1876855760000002
118,1778415159700,2.869835511111111,-0.5298784777777779,-0.42521790944444443,-3.1967334000000003,-3.979042177777778,-0.6181943844444444
119,1778415159710,3.4096705333333333,-0.39674063333333337,0.5885607583333333,-4.6049739333333335,-3.408375022222222,-0.6667906777777778
120,1778415159720,3.56068339,-0.39369980200000004,0.999716856,-5.25157608,-2.98004884,-1.01783952
121,1778415159730,3.688897433333333,-0.3945792733333333,1.9806304333333336,-5.63079,-2.488439,-1.660512
122,1778415159740,3.5197266399999996,-0.49835224,3.5070918299999994,-3.7374461099999996,-1.5045320219999998,-3.22577001
123,1778415159750,3.083513211111111,-0.48480807777777774,4.083819066666667,-1.2594907,-0.73828524,-4.370918
124,1778415159760,2.8558677599999998,-0.257710172,3.30917486,2.1760669,0.09918632150000001,-4.80950595
125,1778415159770,2.782567366666667,-0.17209337111111112,2.522593044444444,2.899250611111111,0.1557914988888889,-4.8511792
126,1778415159780,2.3813036,-0.45845356800000003,0.9284505599999999,4.263897,-0.08651124,-4.8729118
127,1778415159790,1.9092408444444446,-0.6621998888888889,0.2789221111111111,4.0940255,-0.6376312177777778,-4.385577888888889
128,1778415159800,1.7149934500000001,-0.8481897249999999,-0.211353795,3.32690325,-1.5058531000000002,-3.8388313500000004
129,1778415159810,1.6875240666666667,-1.0400776,-0.36420824222222226,2.3792756333333336,-2.714249,-3.4559955999999996
130,1778415159820,1.65603881,-1.16375689,-0.2779643895,1.539800913,-4.0521546399999995,-3.3143196799999997
131,1778415159830,1.3853416666666667,-1.345922,0.06368596,0.7590286100000001,-5.4083654,-3.3849337333333334
132,1778415159840,1.1492167333333334,-1.5052537777777777,0.3176032111111111,0.16813571222222223,-6.018669488888889,-3.531401333333333
133,1778415159850,0.9580894000000001,-1.7074625,0.5379887099999999,-0.528963184,-6.35065824,-3.79615614
134,1778415159860,0.9447942666666668,-1.8631541444444446,0.64196835,-0.8396434888888888,-6.439543422222223,-3.9857529888888887
135,1778415159870,0.9652209199999999,-1.9812192100000001,0.70944381,-1.25478716,-6.56231703,-4.3863720399999995
136,1778415159880,0.8339003333333334,-2.4077727,1.0281595666666667,-2.150920466666667,-6.724741133333334,-5.616435133333333
137,1778415159890,0.68118612,-2.79258676,1.30743608,-2.69278264,-6.74575428,-6.5210082400000005
138,1778415159900,0.48200984444444445,-3.4573358666666665,1.7437806444444446,-3.131466,-6.968163655555555,-7.529006555555556
139,1778415159910,0.17965074,-3.9854765999999997,2.19582324,-3.4519436999999997,-7.346659959999999,-8.7658266
140,1778415159920,-0.11217117,-4.3071723,2.540514,-3.53001,-7.542742,-9.5296755
141,1778415159930,-1.20502457,-4.7955236999999995,3.2242124,-3.07639468,-7.261721679999999,-10.451444200000001
142,1778415159940,-1.8190898666666666,-4.870992288888889,3.1862190666666668,-2.3605088777777774,-6.519089366666667,-10.637956333333333
143,1778415159950,-2.0044096,-4.77595568,2.8006816800000003,-1.86905514,-6.00125371,-10.6671346
144,1778415159960,-2.0993060555555556,-4.647523855555556,2.226833777777778,-1.6151395333333332,-5.658880355555556,-10.716891277777778
145,1778415159970,-2.2133181200000003,-4.60175016,1.9785665599999998,-1.8495691600000002,-5.14124179,-10.74391705
146,1778415159980,-2.42941,-4.474437866666666,1.7109230000000002,-2.2572079333333335,-4.7720662,-10.537573
147,1778415159990,-2.5402938888888884,-4.392736055555556,1.6513056555555556,-2.520958266666667,-4.648267833333334,-10.279388777777777
148,1778415160000,-2.5315685199999995,-4.1632976799999994,1.6817627800000001,-2.62632262,-4.66447552,-9.899833600000001
149,1778415160010,-2.449821222222222,-3.879233533333333,1.6989371444444445,-2.5355505666666667,-4.972220233333334,-9.018727
150,1778415160020,-2.40680506,-3.58958734,1.7181367600000002,-2.32022685,-5.33927849,-8.4261032
151,1778415160030,-2.4345322666666664,-3.3704609333333333,1.7476120666666666,-2.1114189333333333,-5.423636355555555,-7.909496711111111
152,1778415160040,-2.4289069999999997,-3.05985845,1.7910495000000002,-1.7539104599999997,-5.27556722,-7.2595683
153,1778415160050,-2.404744,-2.9441657,1.8042209999999999,-1.1390519888888888,-4.875095722222222,-6.6295336111111105
154,1778415160060,-2.21263524,-2.76992382,1.58400088,-0.420598896,-4.3591435,-6.039263419999999
155,1778415160070,-1.8976548,-2.4992582888888886,1.211910128888889,-0.11163233999999998,-4.112071,-5.8314533
156,1778415160080,-1.64731557,-2.38508426,0.798458142,0.0700947237,-3.6999324199999997,-5.75845724
157,1778415160090,-1.5773922111111112,-2.244873511111111,0.5779131333333333,-0.10443792044444444,-3.3873346222222223,-5.890230255555555
158,1778415160100,-1.7289972200000001,-1.9677917,0.52284756,-1.01622076,-2.31960088,-6.26381092
159,1778415160110,-1.8266106333333332,-1.8833924000000002,0.6499769133333334,-1.4431520666666668,-1.5654233999999998,-6.3449722
160,1778415160120,-1.8703408199999998,-1.90840404,0.964361136,-1.6692470399999997,-0.5037199144000001,-6.25220492
161,1778415160130,-1.8304590777777778,-1.9666662444444445,1.1014463777777777,-1.5697332333333334,0.22495298644444445,-6.083394044444444
162,1778415160140,-1.6241649500000002,-2.05853485,1.21644295,-1.14107796,0.9071234840000001,-5.862606619999999
163,1778415160150,-1.3482696666666667,-1.9665375666666667,1.1364383,-0.5676637666666666,1.2640126777777778,-5.847538933333333
164,1778415160160,-1.2544735333333332,-1.9222869666666667,1.0983669333333335,-0.10633832666666669,1.5431019666666665,-5.979685566666666
165,1778415160170,-1.25006682,-1.9355947,1.0814655,0.294031328,1.9098750599999998,-6.20009948
166,1778415160180,-1.2520005444444446,-1.9863253222222221,1.0205677,0.7012696111111111,2.5736013,-6.454721055555556
167,1778415160190,-1.137048,-1.9074741499999999,0.94225013,1.01745772,3.6403899600000003,-6.946906199999999
168,1778415160200,-1.0355448111111112,-1.821485,1.0607800377777776,1.1600159333333333,5.075232833333334,-7.658777222222223
169,1778415160210,-0.9023026599999999,-2.05296732,1.4626097,1.57311496,7.5696957,-8.6839722
170,1778415160220,-0.7462021,-2.4465756,1.9184351,2.1210907,10.110057,-9.625578
171,1778415160230,-0.6710360879999999,-3.6125309299999997,1.287239729,4.03391316,11.103537999999999,-10.2817501
172,1778415160240,-3.1592832888888887,-5.050501466666667,-0.36352730888888884,5.932650422222222,6.650930622222223,-11.467554277777777
173,1778415160250,-6.7350698399999995,-5.9952038000000005,-0.641799666,6.28714535,0.52315245,-11.729641500000001
174,1778415160260,-7.988030444444444,-6.138183733333333,-0.07086121000000005,6.4846695,-1.872849166666667,-10.377038888888888
175,1778415160270,-7.992203999999999,-5.49008264,0.4965289599999999,7.1106359999999995,-1.80042646,-6.11609264
176,1778415160280,-7.992203999999999,-5.1420683333333335,-3.686018066666667,5.851594222222222,3.027681377777778,2.392154266666667
177,1778415160290,-7.989819000000001,-5.349621155555556,-4.39179108888889,3.756863155555555,3.4625875777777777,5.862309644444444
178,1778415160300,-6.6429179000000005,-5.89866142,-3.24626272,-0.025655520000000022,2.1379043600000003,9.184195200000001
179,1778415160310,-3.5108484333333334,-5.996637044444444,-1.282029482222222,-3.036886511111111,0.7303018888888889,10.47686211111111
180,1778415160320,-2.1055496,-5.7534146,-0.23574546000000002,-3.9795478100000006,0.212254153,10.364215
181,1778415160330,-1.1398531,-5.301925,1.008626,-3.4579893888888886,0.3797179455555556,9.20105611111111
182,1778415160340,-0.362374788,-4.35937014,1.1036620000000001,-1.92604716,1.5149623399999999,7.117760199999999
183,1778415160350,-0.4211966777777778,-3.9272109444444445,0.6438316177777778,-1.3917730777777777,2.874715122222222,5.164408222222223
184,1778415160360,-0.8107424599999999,-3.6012102599999998,0.20323137600000002,-1.38752428,4.41876216,3.201374
185,1778415160370,-1.3404169222222222,-3.466421788888889,0.0031641411111111065,-1.7005902888888889,5.752967766666667,2.0780938777777775
186,1778415160380,-1.54415708,-3.42280943,-0.11044546699999999,-1.8587319,6.2488146,1.8055881
187,1778415160390,-1.9370234999999998,-3.429542777777778,-0.32958561999999997,-2.1651735444444444,6.466140833333333,1.7773534
188,1778415160400,-2.2140315999999998,-3.4000612499999994,-0.49333672,-2.6412883000000003,6.32551439,2.10447564
189,1778415160410,-2.279526644444444,-3.307259322222222,-0.6075490111111111,-3.3913732333333337,5.930690666666667,2.588490666666667
190,1778415160420,-2.2732931444444446,-3.262524322222222,-0.646067511111111,-4.532215344444444,5.2887582222222225,3.0479835555555557
191,1778415160430,-2.28351124,-3.25358618,-0.6352748699999999,-5.1904914600000005,4.97524412,3.2558005999999997
192,1778415160440,-2.3047617555555555,-3.2718338333333334,-0.5309218966666668,-6.296639,4.559949233333333,3.699036466666667
193,1778415160450,-2.28410886,-3.29737528,-0.39691949000000004,-7.172156460000001,4.11321648,4.20360652
194,1778415160460,-2.1549631444444444,-3.3349845777777776,-0.018561378888888883,-8.126855911111111,3.142605588888889,5.221658111111111
195,1778415160470,-2.0512355099999997,-3.36215056,0.216387618,-8.364041,2.67025774,5.741170200000001
196,1778415160480,-1.951733,-3.413224377777778,0.45082914,-8.500016,2.2396715,6.232475
197,1778415160490,-1.8099043600000002,-3.5261327799999997,0.8246853099999999,-8.425004,1.58154466,7.091280039999999
198,1778415160500,-1.6992454444444445,-3.5964125333333334,1.0867639111111111,-8.17199101111111,1.269917488888889,7.649648666666666
199,1778415160510,-1.5643748,-3.6432462,1.3056402500000002,-7.75319397,1.02487953,8.215483449999999
200,1778415160520,-1.4749336,-3.6646042000000003,1.4369437,-7.2392273,0.8371662,8.743134
201,1778415160530,-1.2859408399999999,-3.62464456,1.4819523399999999,-6.69965071,0.776501414,9.1515608
202,1778415160540,-1.1017105999999999,-3.5421815111111115,1.5368986777777778,-6.2051902666666665,0.7798992633333334,9.417177666666667
203,1778415160550,-0.869944025,-3.35101875,1.7111212000000002,-5.6711062,1.071120675,9.353446
204,1778415160560,-0.6838610333333334,-3.1099546,1.8326137777777778,-4.992997844444444,1.5824677,9.043296777777778
205,1778415160570,-0.623572985,-2.9146518,1.7972696,-4.3382373,1.96051425,8.650284500000001
206,1778415160580,-0.6155406666666666,-2.796253911111111,1.7287018444444446,-3.9723396,2.1181128,8.426714
207,1778415160590,-0.6538084766666666,-2.5872952000000002,1.5084416999999999,-3.1087289333333334,2.1862561777777776,7.972854777777779
208,1778415160600,-0.673362475,-2.3957952,1.2592808,-2.3388579,2.00357895,7.5736661
209,1778415160610,-0.6995936766666667,-2.287115066666667,1.1209800333333333,-1.9676663333333333,1.8139109333333334,7.3534558
210,1778415160620,-0.7386558950000001,-2.1792124999999998,1.0110651000000002,-1.7958146,1.6954066,7.24106
211,1778415160630,-0.7762885333333334,-2.0867105555555554,0.9203111444444444,-1.6154110333333334,1.5321067333333334,7.117058
212,1778415160640,-0.80135775,-2.040485,0.8761182,-1.2546039,1.205507,6.869054
213,1778415160650,-0.8250989833333333,-2.0042665888888886,0.7812956088888889,-1.0154232777777779,0.935487108888889,6.685867444444444
214,1778415160660,-0.7847714499999999,-1.8248473,0.5464190999999999,-1.00010965,0.7155312,6.48143325
215,1778415160670,-0.7077005333333334,-1.5788658333333332,0.34973924,-1.2988224888888888,0.61888159,6.293830777777778
216,1778415160680,-0.66223073,-1.47762584,0.34048328,-1.5803687800000001,0.595438629,6.19722852
217,1778415160690,-0.6302807,-1.4279187,0.39584628,-1.8330761999999998,0.560376,6.1206894
218,1778415160700,-0.51103897,-1.3811110899999999,0.656672474,-2.47171714,0.24603401199999997,5.93144924
219,1778415160710,-0.3415036611111111,-1.3133761000000002,0.9502824,-2.553536688888889,-0.07286897666666665,5.8082751111111115
220,1778415160720,-0.170878865,-1.2225409,1.19362145,-2.41716844,-0.433350306,5.66414224
221,1778415160730,0.06044390888888889,-1.065851511111111,1.3555804777777778,-1.9929825555555556,-0.8505454,5.451336666666667
222,1778415160740,0.2186441988888889,-0.9499605555555556,1.4279289,-1.6356962555555556,-1.0788665222222222,5.277720266666667
223,1778415160750,0.6135784930000001,-0.607193965,1.6412848100000001,-0.894616385,-0.9880607299999999,4.81048336
224,1778415160760,1.1372411466666668,-0.32624532911111115,1.6413627333333334,-0.21282936666666666,-0.20155415333333332,4.220929
225,1778415160770,2.55363672,0.1890415224,1.2536586,0.32903288,0.662647072,3.4746671399999998
226,1778415160780,3.516224811111111,0.5033999733333334,1.2243160000000002,0.7216311888888889,1.4853429222222223,1.8691162777777777
227,1778415160790,3.8806288799999997,0.5972909599999999,1.40876512,0.8307828,2.0631366,0.9970554660000002
228,1778415160800,4.333376177777778,0.4657792444444444,2.3173304000000003,1.1769838666666665,3.231925,-0.5079703944444445
229,1778415160810,4.34308256,0.16580846600000002,3.23058476,2.64895442,5.2963511,-2.15306862
230,1778415160820,4.579935244444445,0.20334859444444447,3.242502866666667,4.716147955555555,7.372366277777778,-3.386223333333333
231,1778415160830,4.96646987,0.40575234800000004,2.55077389,6.00555992,8.2117112,-3.85029252
232,1778415160840,5.512293333333334,0.4643360366666667,0.16131023333333339,7.304282444444445,8.267122288888888,-4.453789355555555
233,1778415160850,5.4142123,0.5567093,-1.2779221,7.125846200000001,7.12604472,-4.80950594
234,1778415160860,4.6023652777777775,0.9478297222222223,-2.2656708555555554,4.503776666666667,3.808776922222222,-4.8461566666666664
235,1778415160870,3.98067128,1.0913259400000002,-1.9867377599999998,2.35990154,1.8733769599999999,-4.565655700000001
236,1778415160880,3.2463379444444445,1.0790839666666665,-0.9878049022222223,0.17302250666666666,0.05242257333333333,-4.117789355555556
237,1778415160890,2.8903822,1.0537321800000001,-0.09899359,-0.518823108,-0.552954194,-3.8824076400000003
238,1778415160900,2.4036733333333333,0.997094061111111,1.07108552,-0.6158528111111111,-1.0506996944444444,-3.7223928666666666
239,1778415160910,1.8854757500000001,0.773139625,1.5804276,-0.0762032,-1.5556371,-3.59384345
240,1778415160920,1.2428265111111112,0.3622941777777778,1.8315533444444445,0.8482801888888889,-2.2095533555555553,-3.2518368666666664
241,1778415160930,1.0449830444444443,-0.022430177777777796,1.5904417000000002,1.4214161,-2.844563,-2.8771159999999996
242,1778415160940,1.0410912799999998,-0.3615394,1.231895046,1.7401663800000002,-3.8634715,-2.4838118
243,1778415160950,1.0334546166666667,-0.7850254666666667,0.8027500866666667,1.4686804666666666,-5.5568013333333335,-2.1500041999999997
244,1778415160960,0.942829375,-1.04292665,0.8114497499999999,0.7319477269999999,-6.930680699999999,-1.9013690099999998
245,1778415160970,0.9922292333333333,-1.2387545555555557,1.0783047666666665,-0.5561255144444445,-8.341594666666667,-1.5485911222222222
246,1778415160980,1.10507046,-1.30755804,1.29159366,-1.1488891350000001,-8.6865535,-1.4977211
247,1778415160990,1.1542102333333333,-1.3273978888888889,1.5130930000000002,-1.4785812222222223,-8.692220333333333,-1.6260329555555555
248,1778415161000,1.12387968,-1.37028427,1.95842223,-2.2087474,-8.1428993,-2.1998900000000003
249,1778415161010,1.0077485066666667,-1.4989661333333333,2.5962999222222223,-2.4718189444444447,-6.885639822222222,-2.959512466666667
250,1778415161020,0.874160758,-1.68254938,3.2870088600000003,-2.39658285,-5.234884500000001,-4.008952150000001
251,1778415161030,0.6720310755555556,-1.820990433333333,3.6370753555555555,-1.2380686222222224,-4.1956552333333335,-5.119476666666667
252,1778415161040,0.49762353,-1.9018305000000002,3.79438296,-0.271735414,-3.7227169700000005,-5.7841125
253,1778415161050,0.09982288999999998,-2.081889766666667,3.6838837000000004,1.9473556,-3.2302112333333333,-6.589743833333333
254,1778415161060,-0.23793393222222223,-2.320735066666667,3.2376380888888887,3.1210561333333335,-3.0090844222222217,-6.8651511111111105
255,1778415161070,-0.69741875,-2.823122,2.2369292,4.968326,-2.7517142,-7.12958
256,1778415161080,-0.9855893388888889,-3.0418542222222222,1.3315377011111111,5.352616955555556,-2.8661462444444443,-7.051799022222222
257,1778415161090,-1.1893986,-3.171374,0.94151837,5.5516853,-2.9551263,-6.967094999999999
258,1778415161100,-1.2892351333333334,-3.0773982444444443,0.34197794333333337,5.336395566666667,-2.9532258777777773,-6.789117888888889
259,1778415161110,-1.22686125,-2.92154242,-0.10294198299999999,4.19710859,-2.9641668799999996,-6.035537799999999
260,1778415161120,-1.1821523,-2.8536319999999997,-0.20631285,2.731598688888889,-3.1002365555555556,-5.566413611111111
261,1778415161130,-1.12687674,-2.75953304,-0.11911669920000001,2.08075956,-3.23904808,-5.37258472
262,1778415161140,-1.1043225333333333,-2.6509576,-0.000616567111111111,1.1911690888888888,-3.5260647555555553,-5.0830975333333335
263,1778415161150,-1.10814387,-2.54994155,0.150307544,0.7243121250000001,-3.6940070400000002,-4.8764549
264,1778415161160,-1.0901584444444445,-2.4366936666666668,0.3163531488888889,0.18897238555555557,-3.845809466666667,-4.5959129999999995
265,1778415161170,-1.0626093777777779,-2.375199577777778,0.4396801444444444,0.008704574,-3.8878900000000005,-4.497363
266,1778415161180,-1.0444511,-2.3469968,0.5222561,0.008704574,-3.88789,-4.497363
267,1778415161190,-1.0444511,-2.3469968,0.5222561,-0.31076854,-3.9343145,-4.2774577
268,1778415161200,-0.9212488640000001,-2.24810076,0.647397564,-0.387613124,-3.9475088,-4.28961369
269,1778415161210,-0.87630118,-2.1461416,0.7084559733333333,-0.5084794222222222,-3.8772342777777777,-4.386053055555555
270,1778415161220,-0.9351369,-1.99150348,0.77224319,-0.5901700599999999,-3.6791025599999996,-4.5243626
271,1778415161230,-1.114390888888889,-1.8332472333333334,0.9649817888888889,-0.6417120111111111,-2.888272466666667,-4.8084880000000005
272,1778415161240,-1.15873833,-1.7793112,1.03673737,-0.5808852,-2.4664332,-4.9088298
273,1778415161250,-1.2911965888888888,-1.6485142333333334,1.1813426666666667,-0.2192093222222222,-1.325309511111111,-5.21327611111111
274,1778415161260,-1.3331434999999998,-1.6864433,1.2012387777777778,0.3158928627777778,-0.1858757444444444,-5.565327666666666
275,1778415161270,-1.34397478,-1.7776281,1.15973834,0.7964531880000001,0.79129152,-5.9289448
276,1778415161280,-1.5203326333333333,-2.0574675333333334,1.0081380566666667,1.4061449666666668,2.0444039333333333,-6.5023928
277,1778415161290,-1.7218565599999998,-2.2911518600000003,0.8239383159999999,1.77724483,2.84814395,-6.87296336
278,1778415161300,-2.014992188888889,-2.453408677777778,0.5255117022222222,2.124077088888889,3.8602577,-7.3809097333333336
279,1778415161310,-2.46157349,-2.4875261600000003,0.025373436000000006,2.27013744,4.437698360000001,-7.67983154
280,1778415161320,-2.9875861111111113,-2.2671208333333333,-0.5901699555555555,2.3163583555555554,4.630400333333333,-7.716061333333333
281,1778415161330,-3.56970825,-1.96866369,-1.14717977,2.29298304,4.207042599999999,-7.260912
282,1778415161340,-4.188019000000001,-1.8061351333333333,-1.3926523888888889,2.139483933333333,3.529908111111111,-6.506295244444445
283,1778415161350,-5.2279549,-1.60159648,-1.7392905300000003,1.8577544400000001,2.37436322,-4.956475920000001
284,1778415161360,-5.4584996666666665,-1.4954429666666664,-1.7576432333333334,1.7462341,1.34780898,-3.5391220000000003
285,1778415161370,-5.4142182,-1.36386015,-1.7279818500000002,1.93673706,-0.528795236,-1.7310953040000001
286,1778415161380,-5.439537844444445,-1.2810029222222221,-1.5079504333333336,2.438527788888889,-2.5428045000000004,-0.4451888706666667
287,1778415161390,-5.524895,-1.2487923,-1.3915751,2.80975998,-3.2254874,-0.026419145199999994
288,1778415161400,-6.339851733333334,-1.4828202333333333,-0.8867896,3.3216092666666666,-2.6773945,0.29020335333333336
289,1778415161410,-6.633913666666667,-1.8749265,-0.7817834666666666,3.7748578000000004,-1.3241386833333335,0.58585344
290,1778415161420,-6.444013199999999,-2.5127869,-1.35674387,4.087652060000001,0.54328756,1.016923252
291,1778415161430,-5.710827888888889,-3.1737285444444443,-2.831564388888889,3.451176611111111,3.8156235555555558,1.8509944111111112
292,1778415161440,-5.31155678,-3.34490561,-3.4808831400000004,2.4601644229999997,4.46298765,2.04015344
293,1778415161450,-5.021678855555556,-3.6098314000000005,-3.814104911111111,0.2062712488888889,4.695082222222222,2.3990601444444444
294,1778415161460,-4.63237378,-3.6829588,-3.4953015200000004,-2.27630704,4.046878319999999,2.90364726
295,1778415161470,-4.406266666666667,-3.7041796555555555,-2.9802789,-4.0251525444444445,3.1980823333333332,3.3424799333333333
296,1778415161480,-4.0734479199999996,-3.73584603,-1.45604537,-5.866210499999999,2.04810975,4.0548727200000005
297,1778415161490,-3.7378908,-3.5988683999999997,-0.4048813333333333,-6.379892388888888,1.7685046444444443,4.528617722222222
298,1778415161500,-3.58647136,-3.4989693600000003,-0.05616484799999999,-6.36118011,1.8092685199999998,4.70847149
299,1778415161510,-3.2656951777777774,-3.2688729777777774,0.3950264333333333,-6.065306111111111,2.134062822222222,4.9299444
300,1778415161520,-2.92481995,-3.0355735,0.5500778000000001,-5.74526292,2.57001776,5.012123839999999
301,1778415161530,-2.7337366666666667,-2.8935022666666668,0.6075049466666668,-5.4558843,2.9680051333333335,5.0217752
302,1778415161540,-2.67996116,-2.84373918,0.659111636,-5.2905483,3.1321194,5.0205536
303,1778415161550,-2.7317650666666666,-2.8706451666666664,0.7286400833333333,-4.957229000000001,3.2257825666666666,5.213174166666667
304,1778415161560,-2.7954951555555554,-2.8871840777777775,0.6270555744444444,-4.736917,3.1412820333333333,5.513099966666667
305,1778415161570,-2.74639812,-2.86348728,0.41312165199999995,-4.6523349199999995,2.92540872,5.93598464
306,1778415161580,-2.5600478666666664,-2.8368016666666667,0.12625736333333334,-4.879379933333333,2.2927473777777774,6.981110444444444
307,1778415161590,-2.5152993,-2.8441293,0.10445731,-5.005893,2.1529312,7.208073999999999
308,1778415161600,-2.2698172666666667,-2.8921302,0.21458568222222224,-5.72805051111111,1.7137998,8.091969944444445
309,1778415161610,-2.11369046,-2.9413422099999997,0.377003695,-6.13816757,1.4754405199999998,8.60618115
310,1778415161620,-1.9288795222222221,-3.0509876,0.7613418444444444,-6.538042288888889,1.1414360488888888,9.25543888888889
311,1778415161630,-1.6105818199999997,-3.0981746,1.45885956,-6.5405094,0.808425784,10.052132799999999
312,1778415161640,-1.2999200555555557,-2.9862175555555557,1.798780488888889,-6.065577533333333,0.6135196977777777,10.577583444444445
313,1778415161650,-1.1049578,-2.9123345,2.0322831,-5.45401089,0.499046918,10.7911967
314,1778415161660,-0.9218424166666667,-2.807674,2.2158506666666664,-4.5520336666666665,0.46752722,10.862645833333334
315,1778415161670,-0.6743279322222223,-2.636248177777778,2.3350108888888887,-3.8654331444444443,0.5901123888888888,10.801764888888888
316,1778415161680,-0.40991721,-2.4200954,2.2748736000000003,-2.35730538,1.17300998,10.3797916
317,1778415161690,-0.3334442444444445,-2.376120888888889,2.186194577777778,-1.553783388888889,1.683936211111111,9.970130166666667
318,1778415161700,-0.29551114,-2.36846114,2.07663938,-1.2447616849999998,1.9368744799999997,9.771692849999999
319,1778415161710,-0.17217468666666666,-2.349947411111111,1.9057175666666666,-0.5922334155555555,2.4854356,9.243417
320,1778415161720,-0.019330398,-2.2210594,1.61533815,-0.14547328240000001,2.65663588,8.7101474
321,1778415161730,0.03329123611111111,-2.130327433333333,1.4472355555555554,0.11098755022222223,2.672694377777778,8.312757
322,1778415161740,-0.018339485,-2.07170615,1.2986886,0.34833563500000003,2.4751531,7.781965
323,1778415161750,-0.052625023,-2.080975,1.2512316,0.42224815,2.3661168,7.615508999999999
324,1778415161760,0.013317850879999999,-2.0533576800000004,1.16686688,0.511920531,2.16997389,7.46982194
325,1778415161770,0.12108430377777779,-1.894161966666667,1.1171485777777779,0.6287823988888889,1.7234376444444444,7.169794233333333
326,1778415161780,0.2137082711111111,-1.738370388888889,1.1548099666666667,0.7259749977777777,1.3867251111111112,6.777995188888889
327,1778415161790,0.220576895,-1.63669615,1.2076467,0.8846595349999999,1.06898275,6.3051653000000005
328,1778415161800,0.18037976555555557,-1.6122790222222223,1.2452759222222223,1.0039104733333335,0.9111381033333333,6.054242711111112
329,1778415161810,0.129428285,-1.7067306500000001,1.4063168000000001,1.2767012999999998,0.7855343180000001,5.78606736
330,1778415161820,0.201465,-1.7104047666666666,1.4063862555555555,1.5148842111111112,0.8027805822222223,5.568415844444445
331,1778415161830,0.41215820000000003,-1.60558145,1.3044205999999998,1.67944815,0.95689223,5.220911549999999
332,1778415161840,0.7294125111111112,-1.466050911111111,1.1162371666666668,1.7525462111111112,1.2097151444444445,4.666329944444445
333,1778415161850,0.89046664,-1.39566066,0.9773130800000001,1.7335692000000003,1.38155332,4.15863276
334,1778415161860,1.0447628888888891,-1.301739211111111,0.7591161111111111,1.6205777666666665,1.4095301,3.568493266666666
335,1778415161870,1.1455912400000001,-1.2526340599999999,0.69380878,1.43991965,1.2641484,3.1063874
336,1778415161880,1.3023931333333332,-1.1813392333333335,0.73513435,1.2595839999999998,0.9975135799999999,2.6920632666666666
337,1778415161890,1.39489854,-1.13188306,0.8039310399999999,1.1358399799999999,0.7253047340000001,2.32016578
338,1778415161900,1.5198855111111111,-1.0693272444444444,0.8845603888888889,1.1004243666666664,0.6055786766666666,2.081148066666666
339,1778415161910,1.7880769100000002,-0.9884540339999999,1.0099766300000002,1.08685001,0.433747358,1.4255571699999998
340,1778415161920,2.1968253333333334,-0.9834211766666665,1.1871831,1.2196074444444445,0.3575068366666667,0.8969104377777778
341,1778415161930,2.44177048,-1.01899236,1.26297002,1.5963348,0.22868593499999998,0.53036813
342,1778415161940,2.6467702,-1.0711296,1.2905021,1.8498746000000001,0.13583715,0.3932329
343,1778415161950,3.21427896,-1.04135352,1.03586533,2.70799292,-0.208192015,-0.11725213399999998
344,1778415161960,3.8549164666666664,-0.8965157133333334,0.20021831888888889,3.1224731333333335,-0.7575608555555555,-0.9816824555555557
345,1778415161970,3.9367980222222223,-0.9142674022222221,-0.49789151444444446,2.902907466666667,-1.5245135222222224,-1.8094228444444442
346,1778415161980,3.6788427999999995,-0.9199317199999999,-0.886621825,1.66364258,-2.63598924,-2.50458066
347,1778415161990,3.308739888888889,-0.9056355000000001,-0.9648191444444445,0.43765510444444444,-3.4059316444444447,-2.8291985222222222
348,1778415162000,3.1396252,-0.91951704,-0.7648373100000001,-0.496672273,-3.76682014,-2.91085518
349,1778415162010,3.0536842,-0.9055711000000001,-0.3781114833333334,-1.3562082,-3.8266017666666667,-3.0644425
350,1778415162020,2.9382812,-0.8148798850000001,0.12604394,-1.9793742,-3.33721125,-3.4524323000000003
351,1778415162030,2.8991292444444445,-0.7398128311111112,0.4404220688888889,-2.191779311111111,-2.8377757555555556,-3.888373611111111
352,1778415162040,2.8732835999999997,-0.654769904,0.54441594,-2.14460835,-2.69551625,-4.501639
353,1778415162050,2.815536955555556,-0.587473288888889,0.5575596222222222,-2.0090681222222226,-2.8417803,-4.913282333333333
354,1778415162060,2.76444796,-0.663514332,0.481360384,-1.8573268500000002,-3.29683437,-5.3442415500000005
355,1778415162070,2.6385787555555553,-0.8958991399999999,0.61812888,-2.0318052,-4.275947855555556,-6.091810055555555
356,1778415162080,2.48762382,-1.0576379299999998,0.8659895280000001,-2.2705650299999998,-4.94412139,-6.737057500000001
357,1778415162090,2.2803025555555556,-1.2456790666666668,1.1968753333333335,-2.4312993,-5.179297399999999,-7.375548200000001
358,1778415162100,2.00007388,-1.6111214100000002,1.5542522399999998,-2.45766749,-5.173983099999999,-8.15879652
359,1778415162110,1.7723425555555556,-2.0046528666666665,1.6931373222222221,-2.394987911111111,-5.064118888888889,-9.095235666666666
360,1778415162120,1.3372975400000002,-2.5769918400000003,1.8946166400000002,-2.40336334,-4.8386890000000005,-10.4917598
361,1778415162130,0.9467320333333333,-3.1274691000000003,2.159394333333333,-2.3707575999999997,-4.590966888888889,-11.304406555555556
362,1778415162140,0.23888591299999998,-4.08510115,2.6644847,-2.000082,-4.09606692,-12.8125672
363,1778415162150,-0.4986977966666667,-4.7256482,3.070985488888889,-1.2872164,-3.761987766666666,-13.801881999999999
364,1778415162160,-1.0501934000000002,-5.096682877777777,3.295893677777778,-0.3333699,-3.5240288,-14.2121
365,1778415162170,-1.64174205,-5.283250499999999,3.2731482,0.96238986,-3.4816766799999996,-14.098889599999998
366,1778415162180,-2.2185643333333336,-5.573590888888889,2.9958014222222222,2.4595001111111108,-3.7258118999999996,-13.645912222222222
367,1778415162190,-2.42525128,-5.77453228,2.6047556,3.4389936999999997,-4.008227,-13.2076635
368,1778415162200,-2.6242046444444442,-5.815003922222222,2.064419222222222,3.7783193777777777,-4.36832161111111,-12.73357788888889
369,1778415162210,-2.6785191399999997,-5.76796445,1.8357961500000002,3.82059002,-4.6721112399999996,-12.3581502
370,1778415162220,-2.6240928444444447,-5.480959777777778,1.3351761,3.4183266333333333,-5.082987166666666,-11.810171666666667
371,1778415162230,-2.65621598,-5.1495441,1.17825162,2.31075875,-5.27275705,-11.101384999999999
372,1778415162240,-2.6921827888888887,-4.996382055555555,1.237741588888889,1.4244363688888888,-5.345244266666667,-10.548296555555556
373,1778415162250,-2.79025428,-4.86219816,1.89890972,0.87396973,-5.5378649,-9.756261499999999
374,1778415162260,-2.8596011333333333,-4.783564977777778,2.185229333333333,0.8742072777777778,-5.672251222222222,-9.247726888888888
375,1778415162270,-2.94409246,-4.62932548,2.417513,1.88005807,-6.079441900000001,-8.16875352
376,1778415162280,-2.6718293555555555,-4.092010566666667,1.9264097666666666,2.9574763333333336,-6.552821555555556,-7.187949999999999
377,1778415162290,-2.4963957,-3.52378785,1.287819025,3.2559227199999996,-6.926687179999999,-6.65026342
378,1778415162300,-2.4481916,-3.1979914,0.99057615,3.2786462,-7.0600963,-6.4691777
379,1778415162310,-2.417197266666667,-2.356461866666667,0.757005528888889,2.2871055555555553,-6.1916071666666666,-6.317009066666667
380,1778415162320,-2.63732761,-1.91370301,0.95850106,1.58866102,-4.8863201400000005,-6.25330436
381,1778415162330,-2.608126422222222,-1.6877305666666667,1.1713860777777778,1.0377786000000002,-2.8179403,-5.995363888888889
382,1778415162340,-2.31507425,-1.62645165,1.230712,1.24472347,-0.687218476,-5.472275
383,1778415162350,-1.8249372333333334,-1.6150671777777779,1.1235513,1.8861182,0.5840208733333333,-4.954276766666666
384,1778415162360,-1.41847306,-1.60719132,0.9108274999999999,2.4610882999999997,1.20306364,-4.58837932
385,1778415162370,-0.9435612,-1.6438154,0.47532243999999996,2.9125451,1.4011818,-4.3328414
386,1778415162380,-0.5753689,-1.7129658500000002,0.012195835000000002,3.0787771,1.1706888,-4.16087764
387,1778415162390,-0.4650576,-1.7315035,-0.14180705,3.0336967,0.9342909,-4.090462
388,1778415162400,-0.0679124952,-1.50586526,-0.67636569,2.3987209,0.13556995,-4.27864135
389,1778415162410,-0.044098098,-1.4163732333333334,-0.7540379166666666,1.7637451,-0.663151,-4.4668207
390,1778415162420,-0.26259661333333334,-1.4118201666666668,-0.5553779400000001,0.9934582,-1.2463744444444445,-4.789687455555556
391,1778415162430,-0.5763994680000001,-1.3705251,-0.313811004,0.578136372,-1.4313525200000001,-4.957453
392,1778415162440,-0.9623529000000001,-1.330291,-0.14896194666666665,0.38546158,-1.5926569444444445,-5.029478933333333
393,1778415162450,-1.37131178,-1.34435284,-0.202908168,0.343815376,-2.03086864,-5.02305816
394,1778415162460,-1.6343027,-1.3486153,-0.28724235,0.29763532,-2.4743896,-5.028189
395,1778415162470,-2.64290117,-1.047774604,0.43719929100000005,0.11163234250000001,-3.36097317,-5.3125386
396,1778415162480,-5.962383733333334,-0.9144232244444443,2.2796486444444444,0.9210134111111111,-0.906463377777778,-6.3029595
397,1778415162490,-7.992203999999999,-2.262571,1.9623705999999999,2.1502892200000003,2.74158934,-5.1097983
398,1778415162500,-7.992203999999999,-3.0632885,1.3090702,2.543050444444445,3.607901377777778,-3.6482681744444445
399,1778415162510,-7.637165,-3.08041752,0.876276672,2.67134192,1.5145805,0.8138776240000001
400,1778415162520,-6.140161722222222,-3.2250220555555553,-0.8313628633333333,2.2314504222222222,-1.4149853000000001,3.6811097777777775
401,1778415162530,-5.0841382500000005,-3.8081032,-0.730698105,1.1362522199999998,-2.30567356,6.485517880000001
402,1778415162540,-4.075573233333333,-3.8822081333333336,-0.53032567,-0.2067887733333333,-2.5014025555555555,8.382936611111111
403,1778415162550,-2.9409337,-4.081671,0.04564291,-0.9839222399999998,-2.5825095,9.165839
404,1778415162560,-2.3238449222222224,-4.375410933333333,0.724225868888889,-1.530096,-2.5751793,9.569686
405,1778415162570,-1.67120118,-4.52841648,1.48871493,-1.31419972,-2.57175856,9.3730309
406,1778415162580,-1.2427588333333333,-4.397126488888889,1.933673177777778,-0.6083868777777778,-2.387852888888889,8.717137777777777
407,1778415162590,-1.1608740000000002,-4.308784666666666,2.145569,0.45516606666666665,-1.129125688888889,7.266333555555556
408,1778415162600,-1.16626324,-4.11980756,2.0596018799999998,1.05887322,0.160774988,6.1395038
409,1778415162610,-1.15149,-3.7239876,1.5712400000000002,0.9692279666666668,2.9200535,4.373496644444444
410,1778415162620,-1.1702329200000001,-3.3305541399999994,1.034115126,0.450835806,4.4879102,3.3445568000000003
411,1778415162630,-1.2875378888888889,-3.144299366666667,0.6684434611111111,-0.964137561111111,6.377661311111111,1.8954845333333334
412,1778415162640,-1.75713916,-3.25036044,0.6233839299999999,-2.9431079,7.94110628,0.42976159219999993
413,1778415162650,-2.2919392666666667,-3.4185497666666667,0.7066977444444444,-4.362433466666666,8.519809333333335,-0.3027935835555555
414,1778415162660,-2.5179822,-3.4874291,0.7511719,-5.07577412,8.522144,-0.469283392
415,1778415162670,-2.8129588333333335,-3.5537235333333332,0.8009512333333333,-5.950670566666666,7.8398683333333326,-0.10053527333333334
416,1778415162680,-3.49198735,-3.6981577000000003,0.8948997999999999,-6.33247045,6.88395068,0.64374138
417,1778415162690,-3.617995533333333,-3.7139058666666664,0.8627840999999999,-6.505557444444444,5.140254333333333,2.2125056555555553
418,1778415162700,-3.5305411999999996,-3.71085695,0.840003315,-6.589835549999999,3.5393026,3.7846949600000004
419,1778415162710,-3.3936260666666667,-3.710385977777778,0.8361700966666666,-6.6296015,2.801651,4.6198378
420,1778415162720,-3.08768932,-3.76346045,0.882313641,-6.6861048499999995,1.19381695,6.7816489
421,1778415162730,-2.8562438666666665,-3.810883033333333,0.8750612133333333,-6.658515133333333,0.6084293333333333,7.801206666666666
422,1778415162740,-2.4727205000000003,-3.83116875,0.87245942,-6.6143304999999994,0.1251473435,9.1988635
423,1778415162750,-2.1215770000000003,-3.8586295999999995,0.9520169333333333,-6.617791888888889,0.01889384422222222,10.436953222222222
424,1778415162760,-2.041613,-3.8703476999999995,0.9844782000000001,-6.6357102,0.07291989,10.804819
425,1778415162770,-1.7768962599999998,-3.99220857,1.17930659,-6.67199451,0.28476172499999997,11.6177575
426,1778415162780,-1.600134,-4.1256067,1.4142390333333335,-6.5733782000000005,0.31094671,12.318982333333333
427,1778415162790,-1.3624271000000001,-4.27337435,1.7814149000000001,-6.18397324,0.10590564679999999,13.119517400000001
428,1778415162800,-1.2316708,-4.31056,1.9640881,-5.723231600000001,-0.12071868466666667,13.476130333333332
429,1778415162810,-1.1493658,-4.31449,2.0556076,-5.070032,-0.43469417000000005,13.875625
430,1778415162820,-0.9608724311111112,-4.255055333333334,2.1970252000000006,-4.071500533333333,-0.8408397433333333,14.250278333333332
431,1778415162830,-0.8370001,-4.2010074,2.2366855,-3.37486244,-1.086773714,14.4510424
432,1778415162840,-0.5045280755555556,-3.9256865555555556,2.0529822666666666,-0.9228799124444446,-1.628764811111111,14.753963666666667
433,1778415162850,-0.333992049,-3.71543621,1.8584286200000002,0.2487675419,-1.77593149,14.703582
434,1778415162860,-0.2388249,-3.5652692,1.7110145,0.87305343,-1.8310909999999998,14.597112000000001
435,1778415162870,-0.10393899399999999,-3.2960765100000002,1.4500938300000001,1.545015958,-1.80238118,14.3022864
436,1778415162880,-0.021556135,-3.083371,1.2689562,3.111681433333333,-1.6455971,13.433982
437,1778415162890,0.036694212500000004,-2.8004378500000002,1.13517295,3.8149701499999997,-1.46641525,12.5641355
438,1778415162900,0.10372555933333333,-2.5698859,1.0492380333333333,4.317391977777778,-1.4083168666666668,11.684074333333333
439,1778415162910,0.135160322,-2.3606561499999996,0.93481063,4.53004329,-1.622815,10.8213733
440,1778415162920,0.13009227777777777,-2.0726277777777775,0.81946516,4.664599333333333,-2.179961177777778,9.586509999999999
441,1778415162930,0.013375777600000003,-1.58137888,0.7404883069999999,4.6150122,-3.2067343999999998,8.0843955
442,1778415162940,-0.24867982777777778,-1.1730257266666666,0.9973380166666668,4.479852,-3.808004777777778,6.732393666666667
443,1778415162950,-0.6112348511111111,-0.7428177266666667,1.4489564888888888,4.291074666666667,-3.8801525666666663,5.358963
444,1778415162960,-0.71985906,-0.5958579399999999,1.662286,4.1374976000000006,-2.9818814199999997,4.3546996
445,1778415162970,-0.7560163111111111,-0.519573,1.8205974777777776,4.096978,-2.0712219366666664,3.727517177777778
446,1778415162980,-0.8185416560000001,-0.5213414000000001,1.8513824200000002,4.1747896,-0.07588247799999999,2.8038346400000003
447,1778415162990,-0.7998230833333334,-0.5938558,1.6978225666666666,4.2815301,1.2887349666666668,2.3651241333333335
448,1778415163000,-0.5535384,-0.7965708699999999,1.31698235,4.3758043,3.1079755,1.9916521799999998
449,1778415163010,-0.27080848266666663,-0.9468235266666666,0.9808906333333334,4.2859842,3.6575242666666665,1.9271467
450,1778415163020,0.1109058544,-1.09173746,0.4765918181,4.03542492,3.8767496899999996,1.8709487299999998
451,1778415163030,0.6113059888888889,-1.2082581666666667,-0.11224571833333334,3.0530401,3.070831033333333,1.8355196333333335
452,1778415163040,1.22294332,-1.29715498,-0.059857159199999996,2.46524217,1.910463,1.83777972
453,1778415163050,1.8216949555555557,-1.3372562111111113,0.29913670444444446,2.0099165333333335,0.4154016033333333,1.7068344666666666
454,1778415163060,2.4828094,-1.3423527400000002,0.6933392599999999,2.31582876,-0.07930324479999999,1.33850376
455,1778415163070,2.8969069,-1.3520302,0.8024249,2.6885679,-0.034589227,1.0749384
456,1778415163080,3.6272970200000003,-1.2920327,0.38305282799999996,3.3990443299999997,0.43716812000000005,0.102103122
457,1778415163090,2.2194961555555555,-4.251677466666667,-0.8060802666666667,3.4311545666666667,1.1343942333333332,-1.0492065266666666
458,1778415163100,-0.3732907277777777,-7.425487244444445,-3.0621130555555554,2.3992299,1.4467917399999999,-0.11011372222222222
459,1778415163110,2.3824195799999996,-2.4628754,-3.4046072,1.2982641899999998,0.34161633199999997,1.716633508
460,1778415163120,7.408023777777777,3.486185808888889,-1.6212800666666665,0.08913279333333332,-1.3848162200000003,-0.8612692066666666
461,1778415163130,4.29904932,-0.967105192,1.230767,0.06942278399999999,1.4653156840000001,-4.30050226
462,1778415163140,3.0013369111111112,-2.495480888888889,0.8698814111111112,0.9359367555555556,3.3193440777777776,-4.500451244444444
463,1778415163150,3.0864146999999997,-1.844863685,-0.55765444,1.90393455,2.3948649499999997,-3.65584445
464,1778415163160,3.257066622222222,-0.9788409833333334,-1.5492773,2.0965720666666665,0.6198233555555555,-3.196113977777778
465,1778415163170,2.6572587,-0.9988326839999999,-1.80742856,1.3675954533999999,-1.4960413000000001,-2.6626068500000004
466,1778415163180,2.4401728333333335,-1.0503831888888888,-1.600964,-0.2574212106666667,-1.6812298333333335,-1.8439697666666666
467,1778415163190,2.52855606,-0.936951,-1.3425966,-1.0747780900000001,-1.8214625300000002,-1.71652666
468,1778415163200,2.2898997999999997,-0.8882530200000001,-0.7994978866666668,-1.5858188,-1.9220817333333333,-1.8099659000000001
469,1778415163210,1.77832015,-0.84573531,-0.38535786,-1.69490254,-1.8131931099999998,-1.8173774699999998
470,1778415163220,1.6913453555555558,-0.8815961766666667,-0.5914741988888889,-1.5832397333333335,-1.7250072333333333,-1.4047196666666668
471,1778415163230,1.71529524,-0.999997362,-0.76212373,-1.7016219,-2.11809764,-1.17664458
472,1778415163240,1.7312934666666666,-1.200672988888889,-0.6436723944444445,-2.200059611111111,-3.1962074222222223,-0.9841597888888889
473,1778415163250,1.6168559111111112,-1.3667396555555555,-0.23562689444444443,-2.6330824333333336,-3.8990890333333335,-1.0023494333333334
474,1778415163260,1.5109723,-1.4855136,0.080279075,-2.9930751,-4.3698487,-1.0886825
475,1778415163270,1.4009931,-1.6941978666666668,0.37119035944444445,-3.398134744444444,-4.770089322222223,-1.5084703222222222
476,1778415163280,1.2675557000000002,-1.86397468,0.44367831,-3.72584752,-5.05712788,-1.9758312400000002
477,1778415163290,0.8694918333333334,-2.0085081222222225,0.5019872777777779,-4.7206276111111105,-5.321353388888889,-2.9733583111111113
478,1778415163300,0.483656285,-2.10173845,0.71834983,-6.0755175999999995,-5.024630999999999,-3.93545984
479,1778415163310,0.07426924111111112,-2.2612633333333334,1.2781504666666668,-7.806500333333334,-4.1444713,-5.367616666666667
480,1778415163320,-0.28884612,-2.4515485999999997,1.9395522200000002,-8.1487782,-3.7853898099999994,-5.7802032599999995
481,1778415163330,-0.59515667,-2.57762,2.39142,-8.355176777777778,-2.680923833333333,-6.713805400000001
482,1778415163340,-0.9752550799999999,-2.54796875,2.997126,-7.6768993000000005,-2.0156433,-7.483260850000001
483,1778415163350,-1.0629414444444445,-2.476414811111111,3.155658188888889,-7.133066977777777,-1.8862115000000002,-7.782711777777777
484,1778415163360,-1.2394869,-2.58538868,3.00196788,-5.4976252500000005,-1.8577392500000003,-8.2898845
485,1778415163370,-1.2756435222222222,-2.6788590666666665,2.7646666666666664,-4.7926399222222225,-1.866664377777778,-8.463263
486,1778415163380,-1.2643085900000002,-2.73079361,2.29948156,-4.2058054600000006,-1.85154675,-8.647719500000001
487,1778415163390,-1.1363671333333332,-2.715724111111111,1.9544499777777777,-4.008447655555555,-1.7859561666666666,-8.82400288888889
488,1778415163400,-0.9699244888888887,-2.725972,1.7031041444444446,-3.9385395222222224,-1.6155298333333332,-9.168791444444444
489,1778415163410,-0.8836186500000001,-2.7744454000000003,1.5914192,-3.91809648,-1.41363804,-9.5642032
490,1778415163420,-0.9237463066666667,-2.8636189444444446,1.6536230333333333,-3.860741222222222,-1.2416234000000002,-9.853085222222223
491,1778415163430,-0.9819109000000001,-2.92842086,1.72856436,-3.6397181599999997,-0.9508601000000001,-10.2481534
492,1778415163440,-1.094955477777778,-3.043893722222222,1.8679545111111109,-3.2258080444444444,-0.6614542333333334,-10.446828777777776
493,1778415163450,-1.14313992,-3.1321888,1.92577088,-2.8760368200000004,-0.495290198,-10.4818646
494,1778415163460,-1.1581774,-3.171618,1.9457842,-2.0633657,-0.16592139,-10.498479
495,1778415163470,-1.2427249,-3.2942624,1.97444445,-0.9384217060000001,0.10443960299999999,-10.3894429
496,1778415163480,-1.2722320999999999,-3.3408861111111112,1.9832119222222222,-0.12568184,0.2840694266666667,-10.299750000000001
497,1778415163490,-1.36087822,-3.4231997200000004,1.92552698,0.746302612,0.45757042600000003,-10.198614500000001
498,1778415163500,-1.4637642888888889,-3.4224624444444447,1.7873434333333331,1.8485425333333332,0.6575686,-9.965345444444445
499,1778415163510,-1.6144234400000002,-3.43248078,1.55110876,3.1848812,0.882025265,-9.509479500000001
500,1778415163520,-1.7326654444444445,-3.476104088888889,1.3436623777777779,3.877420844444445,0.9875703377777777,-9.196687555555556
501,1778415163530,-1.8164534800000003,-3.5475608000000003,0.8896982,4.6340708,1.0609806000000002,-8.6530328
502,1778415163540,-1.8266005555555556,-3.565485911111111,0.5114661555555555,5.006063111111111,1.0136331444444444,-8.291751111111111
503,1778415163550,-1.732116722222222,-3.4907863555555556,0.03435497777777779,4.876767,0.5025151999999999,-7.806127555555556
504,1778415163560,-1.6989223,-3.4028387799999997,-0.26138110800000003,4.4998065,-0.1931041,-7.4872313
505,1778415163570,-1.7187283,-3.3841913,-0.3287387,4.28601,-0.5330406,-7.402629
506,1778415163580,-1.86573381,-3.2430336599999996,-0.189846447,3.1921503600000003,-2.3040852999999997,-7.177959199999999
507,1778415163590,-2.232945133333333,-3.0906071,0.20856908666666665,2.4263108333333334,-3.4195738666666666,-7.086006333333334
508,1778415163600,-2.8207926399999996,-2.99515034,0.7131879440000001,2.09818397,-3.6654195,-6.780030480000001
509,1778415163610,-3.3019,-2.750384011111111,1.0901957,2.2526943999999998,-3.0283600444444443,-5.954165822222222
510,1778415163620,-3.3333652,-2.6369221,1.1140589,2.4430072,-2.6466484,-5.701954
511,1778415163630,-3.2186632000000004,-2.5202692,0.9022477999999999,2.8266194,-1.8048246,-5.3946977
512,1778415163640,-2.9856620666666664,-2.5176672,0.3885999,3.1464996333333333,-1.0669211333333335,-5.2487049
513,1778415163650,-3.1809479499999997,-2.7362572999999997,0.21072875,3.03271914,-1.20985932,-5.2963512999999995
514,1778415163660,-3.5831225888888887,-2.891652577777778,0.13448955044444444,2.838225466666666,-2.685513666666667,-5.2462618
515,1778415163670,-4.24896756,-1.0999605220000002,3.0944000508,2.9949079,-6.1251945,-5.76212225
516,1778415163680,-4.1755486,0.16497913,5.1684113,3.28842,-7.152334,-6.4184775
517,1778415163690,-7.992203999999999,-4.8989445400000005,3.583727376,8.1345612,0.81146478,-10.2656094
518,1778415163700,-7.992203999999999,-6.164313244444444,-2.5727786555555556,7.34311368888889,4.7728637222222225,-3.620805666666667
519,1778415163710,-7.7917198,-4.86641215,-6.35389185,2.2576609559999996,2.93997742,4.58596644
520,1778415163720,-6.709659733333333,-4.952768799999999,-5.956628,-0.9687019599999999,1.10835691,6.938232266666667
521,1778415163730,-4.3336552,-4.97020464,-4.27107856,-5.623604899999999,-1.2335831290000001,9.0804046
522,1778415163740,-3.0173101333333334,-5.116193,-1.9712635233333333,-9.208216666666665,-2.7677998666666666,10.169537666666667
523,1778415163750,-1.71006925,-5.0597008,0.8734351149999998,-10.2781464,-3.2324511199999995,10.300503800000001
524,1778415163760,-1.0451050444444445,-4.6441260444444445,2.4358738666666664,-9.343502888888889,-2.6416260222222223,9.681538666666667
525,1778415163770,-0.8661887866666667,-4.171087066666667,2.9464422666666668,-7.696115766666667,-1.4495659933333334,8.6820991
526,1778415163780,-0.745540484,-3.55183234,3.28187747,-5.61441185,0.140303988,7.32779247
527,1778415163790,-0.7216986222222223,-2.9673751333333334,3.084421188888889,-2.9999981,2.0973441,5.298896233333334
528,1778415163800,-0.8423814650000001,-2.7279640499999998,2.477919,-0.972048876,3.6412986500000004,3.38558285
529,1778415163810,-1.0248633055555556,-2.597665177777778,1.7322792222222223,0.35967025999999996,4.9759363555555565,1.6797875644444444
530,1778415163820,-1.2616773000000001,-2.57391246,1.10503392,0.80488289,5.81321964,0.679842436
531,1778415163830,-1.4349009,-2.5807908,0.7323903,0.80341685,6.323949,0.1525591
532,1778415163840,-1.84049457,-2.57592168,0.09572509800000001,0.24754585599999998,6.9967359600000005,-0.40795434799999997
533,1778415163850,-2.1553730333333334,-2.6730286333333333,-0.3952093522222222,-0.9592507777777778,7.154361933333334,-0.46996212666666665
534,1778415163860,-2.2940820499999997,-2.8309425999999998,-0.6422173050000001,-2.28473672,7.009441560000001,-0.349190824
535,1778415163870,-2.4063091222222224,-3.1196163777777777,-0.5840347266666667,-4.000820466666666,6.642404000000001,-0.10134973733333334
536,1778415163880,-2.51339056,-3.3216664299999996,-0.43534551,-4.723681839999999,6.4727514,0.0341769032
537,1778415163890,-2.6542504666666664,-3.4930392,-0.24984181,-5.6733457666666665,6.111348400000001,0.4064679333333333
538,1778415163900,-2.7294174666666664,-3.601561933333333,-0.13511967666666666,-6.623586722222222,5.495292222222222,1.1780698222222223
539,1778415163910,-2.6533104,-3.5970088500000004,-0.11787273499999999,-7.3517455499999995,4.97041847,1.9493205100000002
540,1778415163920,-2.482323044444444,-3.6045700222222226,-0.027454179444444442,-8.319748333333333,4.4787745999999995,2.8584852888888888
541,1778415163930,-2.35679604,-3.6419561899999997,0.11344259110000002,-9.1067324,4.19152703,3.4793937300000004
542,1778415163940,-2.2039090999999997,-3.7044742,0.35069119,-9.97875,3.9091933333333335,4.130752666666667
543,1778415163950,-2.0827495199999997,-3.95502356,0.72109696,-10.8643765,3.49347365,4.936562
544,1778415163960,-2.0437200888888887,-4.126212955555555,0.9210699999999998,-11.309379,3.2268007,5.403555
545,1778415163970,-1.7561573,-4.462047,1.3581127800000001,-11.8562552,2.2707026,6.9197234000000005
546,1778415163980,-1.5854956222222223,-4.608490555555556,1.480387888888889,-11.928447333333333,1.7271706666666669,7.628743999999999
547,1778415163990,-1.36929637,-4.74318521,1.56202103,-11.8439239,0.8403196542,8.564116799999999
548,1778415164000,-1.041463188888889,-4.8752575,1.6747996333333335,-11.459375666666666,-0.47141289222222227,9.678620222222223
549,1778415164010,-0.6461505200000001,-4.82503775,1.7713991,-10.6667675,-1.8451787,10.7871045
550,1778415164020,-0.31568239555555555,-4.620581188888889,1.7893896333333335,-9.879300888888888,-2.7882971777777774,11.477922111111111
551,1778415164030,-0.010604278,-4.25050388,1.7346743,-8.944713,-3.6411077999999995,11.911751
552,1778415164040,0.1629465,-3.9270383333333334,1.7187283333333332,-7.0915802333333335,-4.701207533333333,12.331403
553,1778415164050,0.27623224444444444,-3.6305980222222223,1.6006117333333334,-5.182970911111111,-5.216083988888888,12.44447788888889
554,1778415164060,0.33905941500000003,-3.2702212000000004,1.3148023500000001,-3.63988588,-5.35033458,12.3172314
555,1778415164070,0.35200223,-3.0993881,1.1392128,-2.6528332,-5.300856,12.125547
556,1778415164080,0.35614884,-2.964441,0.91444355,-1.7798103399999998,-5.13042984,11.6570808
557,1778415164090,0.32887757777777776,-2.7657370666666665,0.7316754611111111,-0.9662077066666667,-4.888805833333333,10.841537888888888
558,1778415164100,0.22461067199999998,-2.44247174,0.57296026,-0.6603564110000001,-4.75481981,10.31944
559,1778415164110,0.10794329333333333,-2.090498066666667,0.5072043833333333,-0.2557922916666666,-4.550710466666668,9.5818775
560,1778415164120,0.033166567999999993,-1.7551938800000002,0.49095547799999995,0.188904527,-4.4018572,9.0103175
561,1778415164130,0.02058047,-1.5714332,0.49563867000000006,0.52609223,-4.325257,8.669831
562,1778415164140,0.0271662202,-1.44354156,0.461575714,1.036638346,-4.2234897,8.21578869
563,1778415164150,0.03286438444444444,-1.3600726555555556,0.34951225555555554,1.3936310111111112,-4.113699888888889,7.812948655555555
564,1778415164160,0.09922530599999999,-1.27065348,0.182352104,1.3976491000000002,-3.94225548,7.33464144
565,1778415164170,0.3012709777777778,-1.1369328555555556,0.13378151555555556,1.0731398777777779,-3.7976883333333333,6.908962377777779
566,1778415164180,0.5607796700000001,-0.9970551000000001,0.17179355999999998,0.8050050499999999,-3.7980956,6.5504051599999995
567,1778415164190,0.8580581600000001,-0.8113786666666667,0.29528145333333333,0.7576033333333334,-3.9117131,6.156322200000001
568,1778415164200,1.4201896,-0.6334210849999999,0.58302182,1.42078494,-3.6921746,5.36348324
569,1778415164210,1.887244288888889,-0.7128938644444445,0.5507367488888888,2.230500277777778,-3.436134666666667,4.7276862444444445
570,1778415164220,2.136059566666667,-0.8097525066666666,0.34109714333333335,2.943698377777778,-3.3514984444444447,4.1986078000000004
571,1778415164230,2.3456247,-0.86831284,0.13397123,3.4753391999999996,-3.3747785,3.7590778
572,1778415164240,2.6590847,-0.9587788488888889,-0.34673433444444446,4.0574088,-3.4182164555555556,3.0450651777777775
573,1778415164250,2.75439858,-1.02865762,-0.690656148,4.12579993,-2.98273674,2.0623654
574,1778415164260,2.944992322222222,-1.140473111111111,-1.3525213,3.150911333333333,-1.1790880044444443,0.49266525333333333
575,1778415164270,3.17141678,-1.03134068,-1.46454278,2.1028723,0.385566792,-0.49176258399999995
576,1778415164280,3.0521496444444445,-1.0356227777777778,-1.0981365777777778,0.9606082111111109,2.0813942222222224,-1.7105589555555556
577,1778415164290,2.85337679,-1.0150135,-0.739973079,0.5236487999999999,3.15267446,-2.44007516
578,1778415164300,2.5597326000000002,-0.9395873,-0.40812342,0.6325832333333333,3.5465538555555556,-2.6231393333333335
579,1778415164310,2.36171712,-0.943286756,-0.34347735999999995,1.1463465,3.62404984,-2.38228902
580,1778415164320,2.2061992666666668,-1.0075316733333333,-0.5463326977777778,1.5976879666666666,3.2010516555555553,-2.048399988888889
581,1778415164330,2.01954155,-1.04309743,-0.7175266,1.6849458,2.7808821,-1.9659356
582,1778415164340,1.8425566000000002,-1.0482521999999999,-0.7619143333333334,1.623377488888889,2.7036438666666665,-1.9657319777777778
583,1778415164350,1.4729090599999999,-1.05563476,-0.74615939,1.03822656,2.0708333,-1.9342936599999998
584,1778415164360,1.3405558333333334,-1.0625721666666665,-0.6691854,0.6678088,2.0112145,-1.8150563
585,1778415164370,1.2230354333333333,-1.0696863666666667,-0.5186820222222223,0.44790378222222216,2.0091783444444444,-1.7957806777777776
586,1778415164380,1.1231753,-1.0501223,-0.32507995,-0.32176378,2.0020518,-1.728316
587,1778415164390,1.0620267444444444,-1.0353518,-0.18665723333333334,-0.49198655999999996,1.9539985333333334,-1.7429763333333332
588,1778415164400,0.9330910210000001,-0.95560145,0.05068283419999999,-0.58198473,1.87982134,-1.76392838
589,1778415164410,0.8607615977777778,-0.7289415444444445,0.21296634999999997,-0.5433656111111111,1.589187011111111,-1.9448951666666663
590,1778415164420,0.8752340000000001,-0.57046012,0.23318433499999996,-0.38712445,1.0934165999999998,-2.3550452
591,1778415164430,0.8835000555555556,-0.4567712622222222,0.22742519666666666,-0.2861989,0.5935314388888888,-2.7495846777777775
592,1778415164440,0.88640536,-0.40642619,0.230574432,-0.23807771,0.1512305,-2.9965569800000003
593,1778415164450,0.9028067000000001,-0.36631200999999997,0.24046119,-0.17597491666666668,-0.8836669333333333,-3.4034628333333337
594,1778415164460,0.9459697979999999,-0.452422744,0.287815588,-0.175282624,-2.01756746,-3.78442796
595,1778415164470,0.968254291111111,-0.58372987,0.39879022444444445,-0.30866450888888886,-2.961642077777778,-4.192100444444445
596,1778415164480,0.9025729666666668,-0.74068345,0.657701,-0.64021882,-3.9495178,-4.835229222222222
597,1778415164490,0.835018232,-0.805803088,0.7932475200000001,-0.8203373199999999,-4.2640498000000004,-5.170883120000001
598,1778415164500,0.70244956,-0.89249104,0.970331,-0.9576558,-4.439485,-5.50465
599,1778415164510,0.521713354,-1.0663487680000001,1.28396518,-1.0217948,-4.468806,-5.9866085
600,1778415164520,0.3237485555555556,-1.294973888888889,1.5364548222222223,-0.7693112444444444,-4.375957244444445,-6.362109922222222
601,1778415164530,0.288504632,-1.39375206,1.51902762,-0.29940678,-4.35775372,-7.0715497
602,1778415164540,0.2907994822222222,-1.463134188888889,1.5252786,-0.18656292844444444,-4.431340277777777,-7.295187688888889
603,1778415164550,0.22787306000000002,-1.62243606,1.72900328,-0.07345438200000001,-4.48621485,-8.0562358
604,1778415164560,0.1621436,-1.6963794,1.8559619,-0.040163208,-4.4743032,-8.308516
605,1778415164570,-0.017037579999999997,-1.86012676,2.10928158,0.2593962866,-4.4075989,-8.82401725
606,1778415164580,-0.4358587666666667,-2.244307711111111,2.4768721,1.5011062055555557,-4.189512822222222,-9.632705166666666
607,1778415164590,-0.653779,-2.43862689,2.46611637,2.24771936,-4.01958868,-9.80785535
608,1778415164600,-0.8116360733333333,-2.577545388888889,1.9700436555555558,3.2001863555555556,-3.700495777777778,-9.815959
609,1778415164610,-0.8416954520000001,-2.63595866,1.6695181399999999,3.4327019199999995,-3.7520376,-9.7043774
610,1778415164620,-0.9477720955555556,-2.719616633333333,1.1808276555555555,3.351065633333333,-4.134332933333333,-9.536937277777778
611,1778415164630,-0.9482870800000001,-2.76208182,1.31085694,3.11921524,-4.59224274,-9.5136709
612,1778415164640,-0.9910809333333334,-2.8425268333333333,1.5307803,3.074148222222222,-4.9033982555555555,-9.587027166666667
613,1778415164650,-1.1197707,-2.9262885666666665,1.7085650333333333,3.2130141777777776,-5.076539633333334,-9.677568444444445
614,1778415164660,-1.4308762,-3.0583949,1.7459097499999998,3.5116845499999996,-4.9523678,-9.6112235
615,1778415164670,-1.687578111111111,-3.303092322222222,1.7673219444444443,3.8470056444444447,-4.511870466666667,-9.412146888888888
616,1778415164680,-1.7846284799999999,-3.4313006199999996,1.7874335199999998,4.00653946,-4.24401402,-9.3045631
617,1778415164690,-1.9932869999999998,-3.4664521,1.7000077,4.301281,-3.9911232,-9.142933
618,1778415164700,-2.3482315199999997,-3.47347714,1.5972151,4.885862,-4.063814,-8.579732
619,1778415164710,-2.566796,-3.499625,1.6046059,5.1912856,-4.112682,-8.149695
620,1778415164720,-2.8979740200000004,-3.2854537799999997,0.9878381199999999,5.74984418,-4.1967346,-6.86615246
621,1778415164730,-2.902147711111111,-3.3237914444444443,0.7242665333333334,5.716953333333333,-4.2550094,-6.289588833333333
622,1778415164740,-2.79840718,-3.2799902000000003,0.3130975576,5.467144020000001,-4.43035296,-5.5511964
623,1778415164750,-2.6186013666666668,-3.1219538444444446,-0.050507688,5.090495455555556,-4.747428455555555,-5.045156933333333
624,1778415164760,-2.5498439999999998,-3.0421591500000003,-0.032471407499999994,4.2749764,-5.1930415000000005,-4.974129199999999
625,1778415164770,-2.6717649555555556,-3.110537133333333,0.29445144611111107,3.6883212888888885,-5.230880222222222,-5.034365655555555
626,1778415164780,-2.78218666,-3.26340378,0.673325848,3.0621010400000004,-4.82345639,-5.19989861
627,1778415164790,-3.0168224666666665,-3.7545787999999995,1.2701757333333332,3.089419411111111,-4.134740244444444,-5.632996033333333
628,1778415164800,-3.38639896,-4.18261626,1.7217468,3.36795226,-3.7436078999999998,-5.9252796199999995
629,1778415164810,-4.262108444444444,-4.900492411111111,2.2543117777777777,4.667331333333333,-3.037183466666667,-6.4290657
630,1778415164820,-5.430764166666666,-5.585569766666667,1.7543605333333334,6.629397888888889,-2.283533777777778,-6.592637
631,1778415164830,-6.151523620000001,-5.8417861,0.7097274,7.32639489,-1.67226313,-6.26423872
632,1778415164840,-7.168730977777778,-6.043679377777778,-1.5928707555555555,7.419444122222223,-0.5906638433333334,-5.271510088888888
633,1778415164850,-7.713212279999999,-5.7795691,-4.28181698,5.5350702,-0.13806674700000002,-3.5965771799999997
634,1778415164860,-7.829203611111112,-5.286138455555555,-5.833978777777777,4.249359,-0.2502183,-2.8052397
635,1778415164870,-7.78197563,-4.95771013,-6.23857765,0.9506616000000001,-0.99545198,-1.3288829400000002
636,1778415164880,-7.058125466666667,-4.688325755555556,-3.3905299444444443,-6.8893815555555555,-2.5039815777777776,2.4054402222222224
637,1778415164890,-6.852259999999999,-4.652741,-2.6074083,-7.653381999999999,-2.5305874,2.918552
638,1778415164900,-6.198813744444444,-4.392244933333334,-0.7662371499999999,-8.193031333333332,-1.8644755333333332,4.001168333333333
639,1778415164910,-5.56711751,-4.10061117,0.58629339,-7.854106400000001,-0.5204571600000001,4.935157299999999
640,1778415164920,-4.518739311111111,-3.7179135111111115,1.0977401444444446,-6.634581833333334,1.8520887999999998,5.489684333333333
641,1778415164930,-4.03212559,-3.68328212,0.9466954700000001,-6.10786177,3.21057487,5.658339239999999
642,1778415164940,-3.6974718999999996,-3.7575972,0.7235788,-5.9197206,4.1162705,5.7382994
643,1778415164950,-3.2226148,-3.91553336,0.301200506,-6.20817815,4.793516840000001,5.98263824
644,1778415164960,-2.941235333333333,-4.091112444444445,0.04855974244444444,-6.725708133333334,4.5888627,6.375234666666667
645,1778415164970,-2.845999533333333,-4.2904938999999995,-0.0023680246666666627,-7.480443866666666,3.4115225000000002,7.187848177777777
646,1778415164980,-2.69986488,-4.53584994,0.15867388600000001,-8.13289685,2.0017464499999997,8.2859142
647,1778415164990,-2.5853643,-4.6339593,0.2821201,-8.357078,1.4339639,8.809105
648,1778415165000,-2.21005882,-4.856460019999999,0.62430774,-8.6621348,0.376762941,10.131474149999999
649,1778415165010,-1.9434501777777777,-5.013283622222222,0.9979410055555555,-8.753042444444445,-0.24295601444444445,11.308699833333334
650,1778415165020,-1.61806695,-5.0749454499999995,1.2902582,-8.551571599999999,-0.5034755719999999,12.2275126
651,1778415165030,-1.3397427333333334,-5.093661133333333,1.491276066666667,-8.132082666666667,-0.7667914466666667,13.128965333333333
652,1778415165040,-1.2274802,-5.0817904,1.5711588,-7.856793999999999,-0.89466214,13.432759999999998
653,1778415165050,-1.0299144,-5.044332333333333,1.687327388888889,-7.045715811111111,-1.2570982044444445,14.069263444444445
654,1778415165060,-0.864032148,-4.98509592,1.7744084199999999,-6.07854102,-1.8843874200000001,14.557483
655,1778415165070,-0.5931206677777777,-4.741882722222223,1.9581765,-5.011798166666667,-2.527533266666667,14.746158
656,1778415165080,-0.213457576,-4.1880005,2.19358534,-3.36036238,-3.16110404,14.6049
657,1778415165090,-0.08598062966666667,-3.8086773333333332,2.2666160666666664,-1.8778463,-3.3312046333333334,14.082905166666666
658,1778415165100,-0.0343587121,-3.4121530399999997,2.2804165999999997,-0.61026695,-3.21382003,13.44338895
659,1778415165110,-0.16243833666666666,-2.943047766666667,2.0280247333333334,1.1021466,-2.6778016000000004,12.285564
660,1778415165120,-0.32204622,-2.6502309,1.6404616,2.2887683,-2.1640791,11.145977
661,1778415165130,-0.45050391333333334,-2.4316052666666668,1.3356470666666667,3.0060048333333333,-1.8390829333333332,10.192342666666667
662,1778415165140,-0.6370256711111111,-2.1998166666666665,1.1589023555555555,3.452194722222222,-1.563336311111111,9.114095555555556
663,1778415165150,-0.781710274,-2.08936575,1.12718167,3.5950649999999995,-1.4065522,8.593475
664,1778415165160,-0.9868564000000001,-1.9933784999999997,1.122352,3.6891356,-0.9282588,7.837857699999999
665,1778415165170,-1.11273261,-1.85514486,1.0905118200000001,3.67203188,-0.19084396399999998,7.187305
666,1778415165180,-1.1401241222222223,-1.7416565222222224,1.010174111111111,3.6123725666666666,0.46080792666666665,6.768442
667,1778415165190,-1.04571345,-1.7441566000000002,0.8370671420000001,3.4857235,1.0212984999999999,6.4875034
668,1778415165200,-0.9752465611111111,-1.7604786666666667,0.7415676844444445,3.4087567,1.2152807,6.3955708
669,1778415165210,-0.8133706,-1.7884702000000001,0.5558251359999999,3.2709496000000002,1.16195372,6.388790439999999
670,1778415165220,-0.44115378666666666,-1.8323021333333334,0.081996656,2.6904004111111113,0.691343371111111,6.4069056
671,1778415165230,-0.174415659,-1.77641465,-0.12520547799999998,2.08352365,-0.23494712,6.469177999999999
672,1778415165240,0.19382566333333334,-1.6672991555555556,-0.16921041555555555,1.5511363555555555,-1.2207188555555557,6.436361777777778
673,1778415165250,0.550367464,-1.58542178,-0.055734958000000015,1.16002948,-1.98809404,6.2952696
674,1778415165260,1.00304972,-1.5021268555555556,0.2554654377777778,0.8419002,-2.596559,5.994244
675,1778415165270,1.79906845,-1.4839280000000001,0.650144635,0.94421712,-2.8143260499999996,4.93381325
676,1778415165280,2.5229217555555556,-1.5373661333333333,0.8687769911111111,1.574475788888889,-2.942434255555556,3.7804997999999994
677,1778415165290,2.6627400666666667,-1.6929036888888889,0.7527133155555555,2.6570075,-3.0840150333333334,2.7306145666666666
678,1778415165300,2.5274339,-1.8447418,0.53225666,3.7469829900000002,-3.01358445,1.95860534
679,1778415165310,2.8221564333333333,-1.8206652333333335,-0.14155299333333327,3.670267244444444,-1.6521043022222222,1.2935453977777778
680,1778415165320,3.7898247600000006,-1.60587422,-1.7924278399999998,2.06241125,-0.536400255,0.22005772
681,1778415165330,4.1027495,-1.5099966333333334,-1.7860189333333334,0.4050766244444444,-0.35250129222222226,-0.8685399888888888
682,1778415165340,4.2243013,-1.5404253,-1.3688604,-0.37002072,-0.45057622,-1.4760361
683,1778415165350,4.027605955555555,-1.4774608444444444,-0.36655932555555554,-0.8174323911111112,-0.36912990888888886,-2.516919922222222
684,1778415165360,3.6502404200000003,-1.33355647,0.5622736639999999,-0.303927068,0.9958108619999999,-4.00441675
685,1778415165370,3.4274867,-1.3080946,0.7775149,0.9450655355555556,2.5814744555555555,-4.869301
686,1778415165380,2.84806856,-1.41439966,0.14480724400000003,2.2615475,3.5704404000000003,-5.16165935
687,1778415165390,2.3555438333333334,-1.4831557,-0.5816497733333333,3.2145074555555557,3.6838247,-4.950408055555556
688,1778415165400,2.10610462,-1.47277796,-1.24820694,3.48004272,3.2423772499999997,-4.584156760000001
689,1778415165410,1.7139516000000001,-1.3936788666666666,-1.8149026,3.092473577777778,1.646131611111111,-3.542328711111111
690,1778415165420,1.5655079777777778,-1.2778387111111111,-1.8271594444444443,2.4226456,0.39203669999999996,-2.8139951333333335
691,1778415165430,1.50716116,-1.17318426,-1.65029754,1.38547796,-1.2813285,-1.99855476
692,1778415165440,1.3998581,-1.0765668000000002,-1.3398343000000001,0.8726462333333334,-1.8258225000000001,-1.7411437333333333
693,1778415165450,1.3218819800000001,-1.0054732400000002,-1.1479085000000002,0.4334877690000001,-1.96372125,-1.61133871
694,1778415165460,1.2613235999999999,-0.9504009333333333,-0.9287635833333332,-0.05366972111111112,-1.9332298222222224,-1.5739752777777778
695,1778415165470,1.2549818,-0.9354204000000002,-0.73092675,-0.4237753000000001,-1.811544,-1.6452408000000003
696,1778415165480,1.3135488666666666,-0.9175331999999999,-0.6775632166666666,-0.8152944111111111,-1.8365547555555557,-2.011477688888889
697,1778415165490,1.3759187000000002,-0.908638389,-0.57593604,-1.3046933,-1.8678181999999999,-2.4692738
698,1778415165500,1.280677788888889,-0.9772657055555555,-0.37632615999999997,-2.0531848999999998,-2.3296187333333336,-3.296564533333333
699,1778415165510,1.1730075100000001,-1.03200234,-0.192188026,-2.45418576,-2.63540876,-3.7598183599999997
700,1778415165520,0.9211648333333334,-1.138233788888889,0.2320528311111111,-2.823870466666667,-2.9995145333333335,-4.3216426000000006
701,1778415165530,0.69060425,-1.2883221,0.44427895500000003,-2.9567908800000002,-3.1948228800000003,-4.7186118
702,1778415165540,0.547227,-1.3981303,0.53664714,-3.0333912,-3.328965,-5.009253
703,1778415165550,0.4424512666666667,-1.506185411111111,0.6440247044444445,-3.1816233777777776,-3.3485118444444444,-5.236216555555555
704,1778415165560,0.46748764600000003,-1.75182177,0.758089956,-3.51731184,-3.2651314,-5.72205055
705,1778415165570,0.5941708444444445,-2.0135219777777777,0.8112532777777778,-4.063355866666666,-3.5838917333333336,-6.7371617666666666
706,1778415165580,0.3808941696,-2.3441246199999997,1.20680213,-4.57451292,-4.00633335,-7.825762710000001
707,1778415165590,0.085980624,-2.631556,1.6416812,-5.000396,-4.1872053,-8.787419
708,1778415165600,-0.2863764604,-2.88163458,2.20196389,-5.0260514,-3.81666534,-9.3529874
709,1778415165610,-0.8982535999999999,-3.2092118,2.9456291,-4.3528976,-2.6472592,-10.375088
710,1778415165620,-0.8982536,-3.2092118,2.9456291,-4.3528976,-2.6472592,-10.375088
711,1778415165630,-0.9126785644444444,-3.222227444444444,2.832390833333333,-3.6366112777777784,-2.0937383222222223,-10.665783333333334
712,1778415165640,-0.99737524,-3.46389116,2.08967678,-1.7248340900000003,-0.763879786,-11.722189
713,1778415165650,-1.0383058222222223,-3.6294090888888886,1.5566592111111113,-1.519711611111111,-0.9089152555555555,-11.861279222222223
714,1778415165660,-1.13671571,-3.6251781899999997,1.66299943,-1.42753481,-1.1421774399999998,-11.876245299999999
715,1778415165670,-1.2086748333333335,-3.6099905777777774,1.8970314222222224,-1.1577336866666665,-1.4793787666666667,-11.662346333333334
716,1778415165680,-1.3293611,-3.55380485,2.1987258,-0.4219427575,-1.7837885,-11.1358985
717,1778415165690,-1.4278034888888889,-3.506535888888889,2.3698977333333335,0.3553943222222222,-1.8284100444444447,-10.596621555555556
718,1778415165700,-1.46820156,-3.5022103200000005,2.26200396,0.9635809999999999,-1.83723,-10.143454
719,1778415165710,-1.3916429111111113,-3.481134588888889,2.010686477777778,1.5202291444444445,-1.9815036222222224,-9.68332
720,1778415165720,-1.047832111111111,-3.369587,1.6040569777777778,1.9786276333333335,-2.3866312222222223,-9.241822333333333
721,1778415165730,-0.7317042500000001,-3.30598565,1.48696175,1.9885369499999999,-2.80607965,-9.330195999999999
722,1778415165740,-0.7287315333333333,-3.364352933333333,1.6458378333333334,1.9408908333333332,-3.0089488,-9.599787333333333
723,1778415165750,-1.06972094,-3.471721,1.96114484,2.04497923,-2.79123598,-9.912797999999999
724,1778415165760,-1.3774719444444443,-3.5293420666666666,2.154322911111111,2.5028023666666663,-2.1758125222222224,-9.869577833333333
725,1778415165770,-1.69155598,-3.61238768,2.1260263200000002,3.07217995,-1.65559463,-9.69093175
726,1778415165780,-1.9465430888888886,-3.667504077777778,1.8884807,4.208457666666667,-1.1415802666666666,-9.066441000000001
727,1778415165790,-2.07963958,-3.7534264399999997,1.5117711999999999,4.90284331,-1.2371642900000002,-8.432334610000002
728,1778415165800,-2.1933290666666667,-3.8300710333333337,0.8201596866666666,5.678470144444444,-1.8308534333333333,-7.343919744444444
729,1778415165810,-2.2614489,-3.8084538800000005,0.549690634,5.7142319399999995,-2.24312268,-6.830119980000001
730,1778415165820,-2.4408742,-3.7501884333333333,0.16147282866666665,5.456053811111111,-2.519049244444444,-6.314158488888889
731,1778415165830,-2.4427035,-3.63861165,-0.15229546200000002,4.99728042,-2.41220532,-5.9537451599999995
732,1778415165840,-2.4116278444444443,-3.580046288888889,-0.3693541911111111,4.322711755555556,-2.1074569555555556,-5.572589988888889
733,1778415165850,-2.3768156,-3.628855,-0.75045535,3.4460184500000004,-1.5455199,-5.3791208500000005
734,1778415165860,-2.4427679333333336,-3.536219088888889,-0.968626957777778,3.0165927666666668,-1.2561479688888888,-5.509808266666667
735,1778415165870,-2.7574204222222223,-3.429261577777778,-1.1700445777777777,2.0192574333333333,-0.49781506999999997,-5.9049587
736,1778415165880,-3.9036881,-4.1842991,-0.71273972,1.02906382,-0.147351626,-5.94250522
737,1778415165890,-4.973338866666667,-4.7956864,-0.22306179333333334,0.29682088,-0.6879921866666667,-5.580802333333334
738,1778415165900,-6.206542000000001,-4.9297965,0.178931161,0.303255132,-1.9999445200000001,-4.9749080800000005
739,1778415165910,-7.507786,-4.993675,0.57253337,0.8102804444444445,-3.8965861999999998,-3.689135666666667
740,1778415165920,-7.992203999999999,-4.6086776,0.4456662508,2.03435048,-4.526149080000001,-0.8073720999999999
741,1778415165930,-7.992203999999999,-4.128838688888889,-0.5688170405555556,2.0535582111111115,-2.615656422222222,1.8433588666666667
742,1778415165940,-7.809785000000001,-4.1234267000000004,-1.54457185,0.3514280500000001,0.01004084999999999,3.7004745
743,1778415165950,-6.918110444444444,-4.557065,-1.753154511111111,-2.199135,2.0924572777777777,5.0808238
744,1778415165960,-5.730553909999999,-5.07797652,-1.3059451100000001,-4.26341615,2.79749714,5.89601983
745,1778415165970,-4.7283415,-5.558328888888889,-0.3246361688888889,-5.993862333333333,2.853573,6.624664
746,1778415165980,-4.19604954,-5.7485792,0.23413561600000002,-6.76056712,2.65284856,7.08468276
747,1778415165990,-3.353833988888889,-5.869821111111111,1.0710584333333335,-7.1679616,2.0922536000000003,7.700824099999999
748,1778415166000,-2.2685775,-5.413563,1.7036818,-6.64300964,1.51227452,7.97138858
749,1778415166010,-1.927399,-5.152069,1.8240089999999998,-6.020442622222222,1.2828131555555555,7.924394111111111
750,1778415166020,-1.68881795,-4.80163044,1.7597642400000002,-5.482354,1.3148488,7.771275
751,1778415166030,-1.5557309,-4.480932,1.530882,-4.880059,1.6428736,7.5061674
752,1778415166040,-1.5050640555555554,-4.136359066666667,1.0011492,-4.617801511111111,2.227047277777778,7.237055344444444
753,1778415166050,-1.54952936,-4.02950916,0.673899084,-4.7960672,2.32457925,7.268548
754,1778415166060,-1.6944755444444446,-4.026938666666666,0.4706473933333333,-4.996187688888889,2.217002277777778,7.415355022222221
755,1778415166070,-1.78103989,-4.040132099999999,0.408740325,-5.30997293,1.76968562,7.8797616
756,1778415166080,-1.8203128,-4.094964600000001,0.4054911477777778,-5.65603838888889,0.8586476555555556,8.753856722222222
757,1778415166090,-1.7402174,-4.16493816,0.51962789,-5.8299262800000005,-0.343433576,9.950457199999999
758,1778415166100,-1.5450597000000001,-4.205570566666667,0.6974797266666667,-5.812279622222222,-0.9751582355555555,10.618374444444445
759,1778415166110,-1.2842213,-4.1893146,0.8909971200000001,-5.50776572,-1.8057103,11.5582686
760,1778415166120,-1.2039151222222222,-4.148965166666667,0.9900510000000001,-5.2288526555555555,-2.1672691333333334,12.024825222222223
761,1778415166130,-1.0765262500000001,-4.07132,1.2759890500000002,-4.504082250000001,-2.31495845,12.837795500000002
762,1778415166140,-0.9350240733333334,-4.032711533333333,1.491635088888889,-3.864253711111111,-2.1526087444444446,13.297288
763,1778415166150,-0.8042908240000001,-3.9720609,1.5923428400000001,-3.2911076099999996,-1.97569375,13.5312899
764,1778415166160,-0.7332745,-3.9189176999999997,1.6175333,-2.620254722222222,-1.8185262222222223,13.637258444444445
765,1778415166170,-0.5548463920000001,-3.84906291,1.7047214,-1.5766196799999999,-1.62816757,13.59622275
766,1778415166180,-0.43024527777777777,-3.716510888888889,1.7417479444444444,-0.6822994244444444,-1.5638792555555556,13.395362833333333
767,1778415166190,-0.3796563,-3.5535762500000003,1.70904785,0.45217973499999997,-1.5675104000000002,13.021965499999999
768,1778415166200,-0.34508111333333336,-3.4328526333333333,1.6351056,1.5649821888888888,-1.5127716555555557,12.544045666666667
769,1778415166210,-0.3311676955555556,-3.401831155555555,1.5888766444444444,2.0547119555555557,-1.4389270222222224,12.28259477777778
770,1778415166220,-0.32096387000000004,-3.2712092200000003,1.37858656,2.9154977,-1.18683046,11.6084496
771,1778415166230,-0.3640558,-3.142974688888889,1.1549216666666666,3.4325797666666666,-1.0428944666666666,11.038365666666667
772,1778415166240,-0.38343701,-2.9433271999999997,0.823157725,3.8192460499999994,-1.07302955,10.339964
773,1778415166250,-0.3751302822222222,-2.7222896000000003,0.5197796411111111,3.9892652999999996,-1.1605843333333334,9.805473
774,1778415166260,-0.364262088,-2.60678627,0.405057197,3.9908943,-1.2281848,9.542809
775,1778415166270,-0.3253170833333333,-2.3760735444444445,0.26067917,3.918814322222222,-1.2851971999999998,9.282299666666667
776,1778415166280,-0.371363127,-2.30076837,0.314094551,3.59341597,-1.48858894,8.203572249999999
777,1778415166290,-0.36791440999999997,-2.3129297111111113,0.44898285555555556,3.3161116333333336,-1.3868014666666668,7.511325833333334
778,1778415166300,-0.204338139,-2.30532672,0.7451197310000001,3.15928678,-1.18383732,7.050597719999999
779,1778415166310,-0.009309482222222228,-2.244917611111111,0.9365553288888889,3.0547369222222223,-0.8255685749999999,6.6199552
780,1778415166320,0.8032816180000001,-2.0462016,1.43571786,2.98091932,0.133882452,5.56884988
781,1778415166330,1.5671272222222223,-1.7001668777777779,1.7869910444444446,3.0807997111111107,0.9357840755555557,4.346305422222222
782,1778415166340,2.39877392,-1.1761661799999998,2.3260442599999998,3.7901317499999996,2.89818768,1.456160541
783,1778415166350,3.0171475,-1.0982043333333333,2.3433277666666665,4.854165444444444,4.765736944444445,-1.3233581911111112
784,1778415166360,3.0462989222222223,-1.2037660333333333,2.1917268111111112,5.242528533333333,5.250749666666667,-2.1925599222222223
785,1778415166370,2.80444716,-1.6139386500000001,1.74251939,5.99015154,5.9755674800000005,-3.7322767999999997
786,1778415166380,2.6931449333333335,-1.8426379333333334,1.4167696,6.291421322222223,6.106886,-4.3701708888888895
787,1778415166390,2.5117684799999997,-1.7261434000000002,0.866355424,6.30003435,5.77282725,-4.480564800000001
788,1778415166400,2.426581422222222,-1.353683288888889,0.2467183288888889,5.899868166666667,4.7362804999999994,-3.9054267333333335
789,1778415166410,2.3560093600000003,-0.70616924,-0.5570690739999999,5.1880936,3.20193919,-3.1144505799999997
790,1778415166420,2.3356070444444446,-0.4578756222222223,-0.6641105433333334,3.808522222222222,0.5075631722222221,-1.8774814555555552
791,1778415166430,2.5643355100000003,-0.072211541,-0.46402098999999997,2.8340717,-1.17041388,-1.028330828
792,1778415166440,3.2532520666666667,0.16007370222222223,0.4314479222222222,1.6492027777777778,-3.2291931999999997,-0.3638104511111111
793,1778415166450,3.6348705199999998,0.131397912,1.2296022,1.38188925,-3.58521535,-0.7982246199999999
794,1778415166460,3.717330644444445,0.02768115388888889,1.6939233444444444,1.610923011111111,-3.054830166666667,-1.7718472777777778
795,1778415166470,3.666670555555555,-0.06717532766666667,1.8068906555555553,1.9664106444444442,-2.518574111111111,-2.5892033888888886
796,1778415166480,3.40848556,-0.10103638000000001,1.25995156,2.75014124,-1.87658388,-3.8865921
797,1778415166490,3.1575623333333334,0.046943796666666676,0.6131150266666666,2.9103732222222223,-1.930082177777778,-4.796406722222223
798,1778415166500,2.66242368,0.16003982360000002,0.018787683999999995,2.6479465,-2.32289945,-5.62437625
799,1778415166510,2.0251215777777776,0.04986740511111112,-0.039572093333333336,2.279164488888889,-2.7470310555555555,-5.815910655555555
800,1778415166520,1.7328146,-0.00512225,-0.030032239999999998,2.0575626,-2.992388,-5.8216796
801,1778415166530,1.3799281,-0.12201932,0.10640865,1.7789484111111113,-3.2846444333333333,-5.616231355555556
802,1778415166540,1.0743768,-0.37619573,0.38741591999999997,1.60767365,-3.766026,-5.1350875
803,1778415166550,1.1044648333333333,-0.7120536799999999,0.5506317199999999,1.563183588888889,-4.619252444444444,-4.788805011111111
804,1778415166560,1.1703243799999998,-0.9402682199999999,0.693662404,1.47833431,-5.279843189999999,-4.757767209999999
805,1778415166570,1.2618758555555556,-1.1685810333333333,0.9403800433333332,1.2442448888888888,-5.811388788888888,-5.052487444444444
806,1778415166580,1.37468992,-1.6026178999999998,1.54782808,0.96394752,-6.22854988,-5.67391605
807,1778415166590,1.2865282666666669,-2.1061189666666666,2.2380574666666666,1.1364643444444444,-6.473954377777778,-6.699034833333333
808,1778415166600,0.8243841355555556,-2.863930688888889,2.7965792555555553,1.7537170333333334,-6.410765666666666,-7.563689133333333
809,1778415166610,0.07871190800000001,-3.8606214800000003,3.1752401800000003,2.6342025,-6.157875,-8.36227
810,1778415166620,-0.28324825,-4.208843,3.0430129,2.6342025,-6.157875,-8.36227
811,1778415166630,-0.535970277,-4.40354348,2.42930636,4.00388991,-5.451246719999999,-8.7559
812,1778415166640,-0.8418851622222223,-4.635487355555556,1.847685722222222,4.841269666666666,-5.2788655888888885,-8.928593555555556
813,1778415166650,-1.16134827,-4.85214285,1.8834177500000002,4.480564500000001,-6.3017293500000005,-8.637762
814,1778415166660,-1.3331571,-4.9729424,2.01216,4.281734,-6.948922,-8.460616
815,1778415166670,-1.54893786,-5.17554568,2.3368803999999996,4.2337824,-8.06568846,-8.028381300000001
816,1778415166680,-1.6692133,-5.2499404,2.39703,4.308,-8.857896,-7.70622
817,1778415166690,-1.7172922800000001,-5.06107266,2.0203832299999998,3.9485395,-9.6605267,-7.38265425
818,1778415166700,-1.5774023444444445,-4.617224277777778,1.5980167888888888,3.1674721,-10.063989333333332,-7.3250513
819,1778415166710,-1.58701945,-4.23833605,1.42574482,1.87905788,-10.190108599999999,-7.522355
820,1778415166720,-1.901120411111111,-4.065183222222222,1.640075411111111,0.4835364777777777,-10.041786,-7.815222222222222
821,1778415166730,-2.657451788888889,-3.8110421555555556,2.563543833333333,-0.7184072822222222,-9.390555444444445,-7.740766555555556
822,1778415166740,-3.16144066,-3.35750692,3.3538176,-0.54679994,-8.21992724,-6.85698968
823,1778415166750,-3.1199383111111114,-2.6456320555555557,3.236238977777778,1.3740500333333334,-7.231719022222222,-5.275039388888889
824,1778415166760,-2.78580588,-2.25504329,2.5950905,3.3901259500000003,-6.36342505,-3.8528809500000003
825,1778415166770,-2.4796872,-2.0626814,1.949687,3.7880929,-5.9465218,-3.5339804
826,1778415166780,-1.9504918,-1.7484099,1.44505991,3.6577991400000003,-4.6295274,-3.4346566000000003
827,1778415166790,-1.3980694,-1.512202,1.0558136666666667,3.375771,-3.6563789999999994,-3.535813
828,1778415166800,-1.0001498500000001,-1.5174819000000002,0.7538549499999999,3.116161,-2.2242094,-3.8489105
829,1778415166810,-0.77777918,-1.5645832666666668,0.4808410666666666,2.8103302,-0.5994193066666667,-4.198048
830,1778415166820,-0.60877334,-1.6332172399999998,0.1645217872,2.5888776200000003,-0.22700610999999998,-4.2558339
831,1778415166830,-0.5356918266666667,-1.7234643,-0.022867188,2.5028703,-0.23555797,-4.2463045
832,1778415166840,-0.5330494,-1.81911535,-0.10201815,2.04278024,-1.035645704,-4.12276096
833,1778415166850,-0.5371282222222222,-1.8287178000000002,-0.08306717955555555,1.6797027333333334,-1.5192364555555558,-4.056594311111112
834,1778415166860,-0.5291467200000001,-1.7197954,0.055262371,0.709957215,-2.1744635000000003,-4.07339675
835,1778415166870,-0.5467222844444444,-1.652254288888889,0.1787773777777778,0.2628170333333333,-2.2734886666666667,-4.154405922222223
836,1778415166880,-0.60124442,-1.6786447666666666,0.29668399,-0.17604278,-2.1792825333333337,-4.337660344444444
837,1778415166890,-0.74211038,-1.8410525800000002,0.5071759499999999,-0.5056288099999999,-2.0022047,-4.6595429
838,1778415166900,-1.0190635822222223,-2.173382277777778,0.4754952333333333,-0.5323024722222223,-1.9927704888888889,-4.892309577777778
839,1778415166910,-1.24180422,-2.42392497,0.221308638,-0.5562680550000001,-2.254057,-4.9753507599999995
840,1778415166920,-1.410753,-2.6483862,-0.1642474,-0.673001,-2.7547684,-4.9860406
841,1778415166930,-1.76388344,-2.7366047399999998,-1.03540188,-1.55146041,-4.62432774,-5.10704972
842,1778415166940,-2.9170199,-2.5217426333333335,-0.3990171666666666,-2.837716433333333,-6.675898733333333,-6.051587333333334
843,1778415166950,-6.63081988,-3.5402306799999996,2.50547558,-3.82788982,-6.19747312,-7.655153199999999
844,1778415166960,-7.992203999999999,-5.263101666666667,2.6024182000000002,-3.9075562,-3.2305506555555557,-3.2680754222222226
845,1778415166970,-7.98871295,-6.2258910499999995,1.6443215300000003,-3.7212052,-1.9240161,2.3009853
846,1778415166980,-7.9572935,-4.9104695,0.1657109,-2.278384,-6.000887,8.517119
847,1778415166990,-4.0251678900000005,-5.62764843,0.04696615800000001,-1.22708524,-8.8624393,11.3617511
848,1778415167000,-1.4780266499999999,-5.354655111111111,-0.09708221777777777,-1.1114875,-10.136271666666666,12.53400011111111
849,1778415167010,-0.384741966,-4.67602872,0.22988536560000003,-1.7668603999999999,-9.484671,11.9527686
850,1778415167020,-0.11476279333333333,-4.110419344444445,1.1362925666666668,-2.122889277777778,-7.538016333333333,10.341457444444444
851,1778415167030,-0.215512576,-3.91074668,1.6273388,-1.808382692,-6.5053247999999995,9.3523314
852,1778415167040,-0.5251932466666667,-3.6098650333333335,2.1418220333333333,-0.4398609066666667,-5.040609833333333,7.878377166666667
853,1778415167050,-0.6222585222222222,-3.3098407,2.068396455555556,1.298381311111111,-3.2434463111111107,6.320267111111111
854,1778415167060,-0.61467,-3.1296642,1.8696214000000002,2.0569518,-2.3931468,5.575814
855,1778415167070,-1.0192600444444446,-2.7607808333333335,1.0194769188888888,2.640921688888889,-0.2211606333333333,3.783104388888889
856,1778415167080,-1.36012822,-2.62717164,0.628957426,2.3060552999999997,1.7232611599999998,2.8056672
857,1778415167090,-1.5539931,-2.4797482,0.39877325,1.8853037,2.941535,2.3687892
858,1778415167100,-1.8048981000000002,-2.19485992,0.015074037999999994,1.109336818,4.516864180000001,2.0366104800000002
859,1778415167110,-2.0271305,-2.0960064666666667,-0.1870027911111111,-0.6557954666666667,6.833735066666667,1.7865840000000002
860,1778415167120,-2.19027414,-2.1839749999999998,-0.16332660799999998,-1.49741572,7.351821599999999,1.86679509
861,1778415167130,-2.3283845555555556,-2.2927760888888886,-0.1191194111111111,-2.103477933333333,7.34698231111111,2.2058288666666668
862,1778415167140,-2.46993376,-2.42928501,-0.11460424179999999,-2.8731659400000003,6.77915225,3.0087129399999997
863,1778415167150,-2.4662821333333333,-2.500172922222222,-0.11838766488888888,-3.431391977777778,5.626861777777778,3.9915134555555563
864,1778415167160,-2.37771188,-2.6339892000000003,-0.0645830364,-3.99039018,4.08678184,5.209671800000001
865,1778415167170,-2.2368582,-2.7997874666666664,0.055541862,-4.376992033333334,2.8133928000000004,6.221513155555556
866,1778415167180,-2.16804116,-2.9008461599999995,0.148313536,-4.62105942,1.8178204100000002,7.0493758799999995
867,1778415167190,-2.046745366666667,-3.2043435666666666,0.4111317066666667,-4.810014866666666,0.58343547,8.214547
868,1778415167200,-1.8597969444444447,-3.5014205666666665,0.6606516622222222,-4.6583211,-0.43978455999999994,9.338124
869,1778415167210,-1.47263476,-3.77827532,0.892710636,-3.93051204,-1.9536726999999998,10.995891799999999
870,1778415167220,-1.149724988888889,-3.9247615999999996,0.952006788888889,-3.1858993333333334,-2.772482966666667,11.807473666666667
871,1778415167230,-0.98398734,-3.97448507,0.95144576,-2.9442074,-3.0088809,12.029644
872,1778415167240,-0.7175689577777777,-3.926634722222222,0.8918067977777778,-2.3074330666666665,-3.4334197555555557,12.380746222222221
873,1778415167250,-0.562837696,-3.8589202,0.8288349439999999,-1.4505636800000001,-3.81947508,12.573176
874,1778415167260,-0.47390636111111106,-3.7082889666666667,0.7386744888888889,-0.7367072755555556,-3.963363666666667,12.456490888888888
875,1778415167270,-0.48283915000000005,-3.5503352999999995,0.692845256,-0.0041232149999999995,-3.9346200500000004,12.166169
876,1778415167280,-0.5263417,-3.448128,0.6862595,0.22922044,-3.8542936,12.027201
877,1778415167290,-0.6395282019999999,-3.30513197,0.809452712,0.6152759,-3.4700706000000006,11.67833
878,1778415167300,-0.767599,-3.191561744444444,1.0300837666666667,0.9837525133333335,-2.941212744444444,11.334287666666667
879,1778415167310,-0.9296122,-3.13051815,1.2046129,1.89503905,-1.92092375,10.8124545
880,1778415167320,-0.9974261,-3.1220217333333333,1.1949375666666666,2.5348379333333337,-1.3931134666666667,10.540729
881,1778415167330,-0.9805511000000001,-3.12536522,1.035731154,2.99087615,-1.073945795,10.3515087
882,1778415167340,-0.8968104888888888,-3.089275888888889,0.7976108677777778,3.3731241,-0.8250934500000001,10.087141777777779
883,1778415167350,-0.7297817333333333,-2.9248487777777776,0.4032247255555556,3.4362449666666666,-0.8046640333333334,9.746831333333333
884,1778415167360,-0.62781102,-2.726153,0.15895440440000003,3.2600765000000003,-0.92691494,9.3861568
885,1778415167370,-0.5592060888888889,-2.582311888888889,0.06439061222222223,3.013131266666667,-1.0962418,9.104551333333333
886,1778415167380,-0.47435694999999994,-2.420202,0.012195834,2.73676365,-1.30716732,8.7980488
887,1778415167390,-0.45415251888888886,-2.3751079111111113,0.012954685777777777,2.3788683,-1.6881528,8.3302
888,1778415167400,-0.26335378499999995,-1.90355605,0.020610958000000002,2.13342994,-2.11032456,7.81879904
889,1778415167410,-0.21175016222222223,-1.672695788888889,0.04150648888888889,1.9155067333333333,-2.474050088888889,7.231828988888889
890,1778415167420,-0.156259116,-1.42988224,0.066717312,1.79795256,-2.64310548,6.8349683400000005
891,1778415167430,-0.09541545933333333,-1.2553611666666666,0.05265551333333333,1.746234177777778,-2.7101765777777778,6.578689155555555
892,1778415167440,0.021577481099999997,-1.09209424,-0.033678792,1.7046761799999999,-2.75177524,6.279265489999999
893,1778415167450,0.20011330666666666,-0.9713168666666667,-0.12715172,1.6825025,-2.8060796333333333,6.149806633333333
894,1778415167460,0.71257207,-0.91102875,-0.316161725,1.63583374,-3.01914322,5.9553943799999995
895,1778415167470,1.2626245,-0.84953125,-0.46653127333333333,1.4943360333333335,-3.416316033333333,5.580700566666668
896,1778415167480,1.6029899,-0.73092675,-0.46929568,1.3440167,-3.7254047000000003,5.2483997
897,1778415167490,1.8488456500000001,-0.36851843500000003,0.125912829,1.23053658,-4.117813119999999,3.8466123199999998
898,1778415167500,1.7269944555555556,-0.36919836,0.5819783911111112,1.6911900666666666,-4.044945844444444,3.096376288888889
899,1778415167510,1.08789882,-0.9923567200000001,1.3234674800000001,3.3767713,-3.12121573,2.17722766
900,1778415167520,0.8299603444444446,-1.4393150777777777,1.0934005,5.484763777777778,-1.1445411088888888,2.1059892444444444
901,1778415167530,1.1384230800000001,-1.49388599,0.58922952,6.413590999999999,-0.15798037,2.2906008
902,1778415167540,1.6545951777777779,-1.6613300333333334,-0.2498384222222222,7.221139622222221,0.4558617222222222,2.4255981111111113
903,1778415167550,2.31954988,-2.1147697,-1.4746836399999999,7.6320634,1.1194997,2.66871524
904,1778415167560,2.7934284666666667,-2.2593018666666667,-2.5291686666666666,6.792426711111111,0.7307768844444444,2.578649244444444
905,1778415167570,2.95411746,-2.181737,-3.23738412,4.8726906,-0.40506810499999996,2.2533392
906,1778415167580,2.8620267,-2.0348747,-3.3202548,3.9218685999999994,-0.92764795,2.0841346
907,1778415167590,2.6354464,-1.7685147300000001,-2.6387089099999996,2.5088261199999997,-0.8880650299999999,1.8593427599999999
908,1778415167600,2.709307866666667,-1.5378268666666666,-2.011624877777778,0.21069139333333334,-0.7085573599999999,1.4612738666666667
909,1778415167610,3.0789195444444446,-1.331249711111111,-1.6661710555555556,-0.5661706111111111,-0.1900159177777778,0.8584015466666667
910,1778415167620,3.41043064,-1.0988506,-1.32956536,-1.22794046,0.14793193799999999,-0.148344268
911,1778415167630,3.415504,-1.0706416,-1.2714766,-1.3193537,0.14133479,-0.4185831
912,1778415167640,3.17500228,-1.0896672,-0.983688476,-1.55135348,0.30039942000000003,-1.34723894
913,1778415167650,2.6874434,-1.1237444666666667,-0.5911015733333334,-1.7518336,0.5300372999999999,-2.5287295333333333
914,1778415167660,2.2701933,-1.21266225,-0.47016462499999995,-1.7840863200000001,0.442971192,-3.16221872
915,1778415167670,1.9485519999999998,-1.2867248,-0.47939451111111114,-1.8735279555555557,-0.08542528777777776,-3.782595244444445
916,1778415167680,1.6768844399999998,-1.36226848,-0.43387288,-2.00814512,-0.6542937820000001,-4.05597231
917,1778415167690,1.4199406444444442,-1.4644621111111111,-0.32460565777777783,-2.1632052999999996,-1.1299062888888889,-4.212165111111111
918,1778415167700,1.02029122,-1.6372175599999998,0.006683319999999995,-2.4618824399999997,-1.79555492,-4.37201712
919,1778415167710,0.7935083366666666,-1.8323358888888888,0.34278084444444445,-2.841313622222222,-2.3204560222222224,-4.570257333333334
920,1778415167720,0.709925542,-2.08635948,0.62178019,-3.09288762,-2.52741112,-4.7955787999999995
921,1778415167730,0.8031633888888889,-2.2104507444444446,0.6915444399999999,-3.337932322222222,-2.6623947111111113,-5.265198266666666
922,1778415167740,0.8624954500000002,-2.2020704899999997,0.6876559959999999,-3.55774996,-2.81237134,-5.74245318
923,1778415167750,0.6806393000000001,-2.2289613666666668,0.9218424333333333,-3.9247615333333337,-2.9275703555555554,-6.442792866666666
924,1778415167760,0.304938528,-2.3847305,1.33210214,-4.33090682,-2.73754256,-7.3608469
925,1778415167770,-0.17508812444444444,-2.459015422222222,1.8066162444444442,-4.372783855555555,-2.3011124666666665,-8.118880666666666
926,1778415167780,-0.44248855,-2.4385264222222225,2.054432266666667,-4.2533293,-2.0272493,-8.466724
927,1778415167790,-0.565728128,-2.4306722200000004,2.1586870599999997,-3.89237212,-1.80384723,-8.80165165
928,1778415167800,-0.7210786600000001,-2.428678233333333,2.2494606333333333,-3.1449726,-1.6236066333333334,-9.103228
929,1778415167810,-0.7133800499999999,-2.4184946999999997,1.9932413,-2.41985612,-1.6606646600000001,-9.3084722
930,1778415167820,-0.6746227199999999,-2.4233053,1.6712458777777777,-1.924228211111111,-1.8312607333333335,-9.53078611111111
931,1778415167830,-0.690494581,-2.4662445699999997,1.43647401,-1.7837197800000002,-1.9285975700000002,-9.6722466
932,1778415167840,-0.73986024,-2.5331967,1.2651348,-1.7654079333333332,-1.985100911111111,-9.756027555555555
933,1778415167850,-0.8698922359999999,-2.6616797,1.1907402,-1.91792295,-2.07391816,-9.869001
934,1778415167860,-1.1333147533333332,-2.7528061666666668,1.2860370888888888,-2.0271899444444443,-2.087315888888889,-9.891432222222223
935,1778415167870,-1.3371328999999998,-2.7987303,1.7565962800000001,-1.80546594,-2.091999,-9.8287464
936,1778415167880,-1.4850223222222223,-2.8241417555555555,2.0892444888888893,-1.0397383666666666,-2.0618640666666668,-9.757318333333334
937,1778415167890,-1.58935496,-2.82612224,2.0853595400000002,-0.5480216,-2.0526606800000002,-9.6982696
938,1778415167900,-1.6760327333333334,-2.8048283333333335,1.6814599666666665,0.3542405,-2.037633733333333,-9.50318
939,1778415167910,-1.6754391600000003,-2.8130238800000003,1.1957160999999998,0.69004358,-2.02346212,-9.3756656
940,1778415167920,-1.8411236222222225,-2.862155422222222,0.7394841777777779,0.6285108933333333,-2.0529048666666667,-9.316617
941,1778415167930,-1.9724076799999999,-2.90153512,0.66839262,0.30386597800000004,-2.07550624,-9.2727988
942,1778415167940,-1.9999269666666666,-2.9557686666666663,0.8247635466666667,0.16236660111111112,-1.8359014666666669,-9.162682888888888
943,1778415167950,-1.9265860333333333,-2.9746756666666667,0.9290786,0.23940121222222224,-1.5282465222222223,-9.017233555555556
944,1778415167960,-1.7638833999999999,-2.87047235,0.94505515,0.46286949499999996,-1.394946,-9.066271500000001
945,1778415167970,-1.7730540555555556,-2.8166988555555554,0.9917923666666668,0.692582,-1.0903368555555555,-9.256482777777778
946,1778415167980,-1.92847848,-2.92177418,1.06994054,1.0172133799999998,-0.5787319639999999,-9.5254762
947,1778415167990,-2.2681709555555556,-3.2196662666666667,1.093542811111111,1.4473516777777777,-0.12119379200000001,-9.785145222222221
948,1778415168000,-2.68512,-3.47884934,1.1320843799999998,1.88457072,0.006215370400000003,-9.8376644
949,1778415168010,-3.7253596666666664,-4.0025303,1.5168262333333336,3.0487640000000003,-0.3053981777777778,-9.384463777777777
950,1778415168020,-4.5197759500000005,-4.25630015,1.34811215,4.4927432,-0.79112355,-8.461227
951,1778415168030,-5.226910733333334,-4.296287166666667,0.6191418166666667,5.690686955555555,-1.3158753222222221,-7.15485388888889
952,1778415168040,-5.626377,-3.84389506,-0.8349024100000001,5.88575777,-1.51839835,-6.25336553
953,1778415168050,-5.878198333333334,-3.2735751333333334,-1.8340298333333334,5.229208922222222,-1.3456710555555556,-5.338499477777777
954,1778415168060,-6.0548102,-2.82729304,-2.26696158,3.79016976,-0.34343358999999996,-4.48294702
955,1778415168070,-6.065933,-2.7174757,-2.2867188,3.1546443,0.3496337,-4.116805
956,1778415168080,-5.896335,-2.95064485,-3.2214226499999996,2.3868093499999996,1.0824213500000002,-3.1686938000000002
957,1778415168090,-5.909034,-3.1084132,-3.7102470000000003,2.1009328,0.8842014,-2.904197
958,1778415168100,-6.580963288888889,-3.2135343333333335,-4.445106555555556,0.7259834666666667,-0.1813113444444444,-2.4135509444444443
959,1778415168110,-7.552559499999999,-3.250342,-3.9777167000000007,-1.82391364,-1.26361394,-1.37741474
960,1778415168120,-7.9748046666666665,-3.3120427666666665,-2.9148143333333336,-3.816191988888889,-0.9634164244444443,0.35464777777777773
961,1778415168130,-7.9494456,-3.35876906,-1.479958336,-5.221522299999999,0.027411775000000027,2.8852989
962,1778415168140,-7.785031077777778,-3.429600588888889,-0.8387955022222222,-5.433621955555555,0.5276702266666667,4.152403988888889
963,1778415168150,-6.65803768,-3.6536095599999996,-0.169363545,-5.4501015100000005,1.23128486,6.3399456
964,1778415168160,-5.4439219888888895,-3.8852773666666667,0.23969556111111112,-5.256136866666667,1.4938269333333334,7.747656
965,1778415168170,-4.333514920000001,-4.0707863,0.5120420699999999,-4.8629548,1.47855575,8.728473500000002
966,1778415168180,-3.664770022222222,-4.078784755555556,0.690856711111111,-4.488369777777778,1.4250048333333334,9.088262222222221
967,1778415168190,-3.417791,-4.032156,0.75214756,-4.278985,1.4199145,9.155455
968,1778415168200,-3.0829035777777776,-3.863253955555555,0.7290974244444445,-3.958765422222222,1.6117883444444443,8.995549
969,1778415168210,-2.8558070399999997,-3.6680126,0.5679416660000001,-3.8700227999999997,2.1755325,8.6512005
970,1778415168220,-2.701007911111111,-3.5569182444444443,0.41919114222222226,-4.112902399999999,2.668146911111111,8.431533333333334
971,1778415168230,-2.575587266666667,-3.5100423666666662,0.33612734,-4.4403844,2.9326438,8.331354333333334
972,1778415168240,-2.50434436,-3.5268796,0.33032109,-4.8299694,3.0661478,8.299047
973,1778415168250,-2.389143466666667,-3.6085641333333336,0.3794936933333333,-5.346135,2.8547947,8.448705
974,1778415168260,-2.2420974,-3.67657125,0.52237805,-5.85118372,2.20864043,8.8891866
975,1778415168270,-2.0183122222222223,-3.7121983444444444,0.6825669222222221,-6.2019322,1.3001628933333333,9.523007
976,1778415168280,-1.6660667,-3.73117504,0.87349,-6.3023555600000005,-0.015164271999999989,10.3978726
977,1778415168290,-1.3194401555555555,-3.6856182222222222,1.0174001777777777,-6.128223288888889,-0.8449289888888889,10.865360666666668
978,1778415168300,-0.8575378200000001,-3.52091292,1.20001518,-5.7419643,-1.9301245999999999,11.427883
979,1778415168310,-0.4790624733333334,-3.2994406,1.3686164666666667,-4.7612150333333325,-2.923158622222222,11.826197666666665
980,1778415168320,-0.10076807039999999,-2.9425742,1.5456877199999999,-3.8753067000000003,-3.4015335199999996,11.906099999999999
981,1778415168330,0.08068560266666666,-2.6529496,1.6804130333333334,-2.8121286666666667,-3.516155566666667,11.64751688888889
982,1778415168340,0.13198941,-2.3657936,1.9201425,-1.58289608,-3.36653185,11.12887325
983,1778415168350,0.08957501233333334,-2.238464044444444,2.0721839444444443,-0.8097628644444445,-3.181954222222222,10.757783444444446
984,1778415168360,0.0098481355,-2.1583576,2.1712852,0.9035958000000001,-2.5889234500000002,9.894351
985,1778415168370,-0.26281343977777777,-2.153479322222222,1.8269053666666666,2.1995845999999997,-2.172020133333333,9.265237888888889
986,1778415168380,-0.5422199888888889,-2.135361722222222,1.3384758111111112,3.0866366,-1.8531323999999998,8.836389333333333
987,1778415168390,-0.6573798,-2.1335086,0.9310665520000001,3.68852475,-1.5458253499999999,8.486883
988,1778415168400,-0.7152246,-2.157382,0.71918833,3.7728216999999997,-1.4804647,8.400448
989,1778415168410,-0.718041882,-2.3691016,0.5159508660000001,3.75529039,-1.45413721,8.1481684
990,1778415168420,-0.5733464566666666,-2.2605281666666666,0.30432671,3.5256322888888887,-1.5841051444444443,7.795097977777778
991,1778415168430,-0.492943382,-1.89898278,0.10831119999999998,2.88074046,-1.80384718,7.14112504
992,1778415168440,-0.5294414833333333,-1.7213708222222222,0.1916304238888889,2.4285505333333335,-1.8097113666666667,6.781880766666666
993,1778415168450,-0.5580509,-1.6434190999999998,0.28992546,2.0076564599999998,-1.76542498,6.452746020000001
994,1778415168460,-0.5539856088888889,-1.5447581777777777,0.45716422,1.7494920333333335,-1.7138083,6.202950333333334
995,1778415168470,-0.512279896,-1.4819035800000002,0.578722804,1.6436524599999998,-1.6618862799999998,5.976773799999999
996,1778415168480,-0.38327100555555554,-1.4633172,0.6804732944444445,1.6933618555555556,-1.6508910222222222,5.8409213555555555
997,1778415168490,-0.16529622800000002,-1.47604956,0.638317692,1.8758355999999998,-1.7782909,5.65247515
998,1778415168500,0.03773594666666666,-1.4866517666666668,0.5258335,2.032993055555556,-1.9880193888888888,5.515747266666667
999,1778415168510,0.394895012,-1.5002583,0.323207884,2.22004795,-2.4716407499999997,5.288715600000001
1000,1778415168520,0.8431546314285715,-1.4802213857142856,0.0936683602857143,2.2842741714285717,-3.0574868571428575,4.947426457142858
