id,timestamp,acc_x,acc_y,acc_z,gyro_x,gyro_y,gyro_z
0,1778471759,-0.0114706903,0.34656129,0.6234198400000001,0.0299323952,-0.2908940379999999,-0.162734504
1,1778471759,0.040573851096343,0.335456824638976,0.597769758325248,-0.0291680621044633,-0.2823114883580416,-0.1768758544883968
2,1778471759,0.092618392492686,0.324352359277952,0.572119676650496,-0.0882685194089267,-0.2737289387160831,-0.1910172049767936
3,1778471759,0.144664266246343,0.313247609638976,0.546468938325248,-0.1473704897044633,-0.2651461693580416,-0.2051589174883968
4,1778471759,0.19671014,0.30214286,0.5208182,-0.20647246,-0.2565634,-0.21930063
5,1778471759,0.188290165,0.248328245,0.34460885,-0.2968805,-0.30115658,-0.2950479
6,1778471759,0.17987019,0.19451363,0.1683995,-0.29871312,-2.2638667,-0.07941248
7,1778471759,0.405421684681452,0.2547149303778543,0.2810328794592023,-0.271223942095351,-2.781070313414342,-0.2602301296241935
8,1778471759,0.630973179362904,0.3149162307557087,0.3936662589184046,-0.2437347641907021,-3.298273926828686,-0.4410477792483872
9,1778471759,0.8565189,0.3751159899999999,0.506296755,-0.21624629,-3.8154643,-0.6218608
10,1778471759,1.1445064,0.3283790199999999,0.8488311,-0.0042760574999999,-3.44986155,-1.27884635
11,1778471759,1.0592890228210226,0.3142235808751322,0.6611494784706625,0.0522294583408966,-3.435098807359542,-1.4056019816342118
12,1778471759,0.9740716456420452,0.3000681417502645,0.473467856941325,0.1087349741817933,-3.4203360647190837,-1.5323576132684236
13,1778471759,0.88885645,0.285913065,0.28579104,0.1652390435,-3.4055736999999997,-1.65911
14,1778471759,1.131934398562432,0.397079712048704,0.33069699019648,-0.0132840381253055,-4.106227231519999,-1.53861836731264
15,1778471759,1.37501857,0.508249205,0.37560409,-0.1918116899999999,-4.8068987,-1.41812365
16,1778471759,1.7591647,0.6406503,0.7246059,-0.24373524,-5.699373,-1.4202617
17,1778471759,2.3455122,0.91521465,0.9624397,-0.24373524,-5.699373,-1.4202617
18,1778471759,2.9318597,1.189779,1.2002735,-0.24373524,-5.699373,-1.4202617
19,1778471759,2.5328262,0.92082804,0.9459658,-0.43860126,-6.304129,-1.8099937
20,1778471759,3.1250311,1.2322449999999998,1.46080465,-1.81029915,-4.7717738,-3.0295862
21,1778471759,3.083378988769232,1.2844728043170317,1.942854269790591,-2.1767133398922236,-4.038436391225989,-3.442629375319788
22,1778471759,3.041726877538464,1.3367006086340634,2.424903889581182,-2.543127529784447,-3.3050989824519785,-3.855672550639576
23,1778471759,3.0000736999999997,1.38892975,2.9069658499999997,-2.9095511,-2.5717428,-4.2687263
24,1778471759,2.86907417322752,1.3540291782784,3.25938893595776,-2.60533630610048,-2.61419844342528,-4.43244024551168
25,1778471759,2.738078,1.3191295,3.611803,-2.3011293,-2.656653,-4.59615
26,1778471759,3.175673,1.2559186,4.423782,-1.7763962,-3.264464,-4.606535
27,1778471759,3.5579886500000004,1.200700675,4.581808875,-0.8854492065,-4.1334197999999995,-4.5943176999999995
28,1778471759,3.9403043,1.1454827500000002,4.73983575,0.005497787,-5.0023756,-4.5821004
29,1778471759,3.5182072250000003,0.7632280480250001,4.834713125,1.0332785685,-5.45487405,-5.3963836999999995
30,1778471759,3.09611015,0.38097334605,4.9295905,2.06105935,-5.9073725,-6.210667
31,1778471759,2.465460861861624,0.0123624185936806,4.759196279321261,2.6353794008017033,-5.232564175042667,-6.847193831626105
32,1778471759,1.834811573723248,-0.3562485088626386,4.588802058642523,3.2096994516034063,-4.557755850085333,-7.4837206632522095
33,1778471759,1.20417843,-0.72485,4.418412200000001,3.7840048,-3.8829648,-8.1202312
34,1778471759,0.72900506229696,-0.92582857744128,4.3608155372467206,4.31499260326912,-3.99582095542272,-8.16207506439168
35,1778471759,0.25381953,-1.1268123,4.3032174,4.845994,-4.10868,-8.20392
36,1778471759,-0.59794027,-1.5336558,4.2666087,6.304129,-5.357899,-7.602218
37,1778471759,-0.721128185,-1.5420147,3.920596575,6.870706749999999,-5.839566349999999,-7.0915345
38,1778471759,-0.8443161,-1.5503736,3.5745844499999997,7.4372845,-6.3212337,-6.580851
39,1778471759,-0.3817055625,-1.427795875,3.2097187999999996,7.5373136,-6.1804291000000005,-6.23540675
40,1778471759,0.080904975,-1.30521815,2.84485315,7.6373427,-6.0396245,-5.8899625
41,1778471759,0.32150269687316,-1.3147363187772534,2.5103755542453516,7.382104978056439,-5.448515710859566,-5.980980789967317
42,1778471759,0.56210041874632,-1.3242544875545068,2.1758979584907028,7.126867256112879,-4.857406921719132,-6.071999079934635
43,1778471759,0.8027043,-1.3337729,1.8414118,6.871623,-4.266283,-6.1630197
44,1778471759,0.7854212326188763,-1.3432008443047192,1.843273891556563,6.66942432168004,-3.993969746164414,-6.249831387711449
45,1778471759,0.7681386076786143,-1.3526285472571535,1.8451359354441923,6.4672308195799895,-3.721663463458896,-6.336640853072138
46,1778471759,0.7508559827383523,-1.362056250209588,1.846997979331822,6.265037317479939,-3.4493571807533785,-6.4234503184328275
47,1778471759,0.7335729153572286,-1.371484194514307,1.848860070888385,6.062838639159979,-3.177043926917793,-6.510262006144276
48,1778471759,0.7162898479761048,-1.3809121388190262,1.850722162444948,5.86063996084002,-2.904730673082207,-6.597073693855724
49,1778471759,0.6990072230358427,-1.3903398417714603,1.8525842063325777,5.658446458739969,-2.6324243903766895,-6.683883159216413
50,1778471759,0.6817245980955807,-1.3997675447238949,1.854446250220207,5.456252956639919,-2.3601181076711715,-6.770692624577102
51,1778471759,0.664441530714457,-1.409195489028614,1.8563083417767705,5.254054278319959,-2.087804853835586,-6.857504312288551
52,1778471759,0.6471584633333333,-1.4186234333333332,1.858170433333333,5.0518556,-1.8154916000000003,-6.944316
53,1778471759,0.6217968375,-1.6136455,1.2901476375,5.0822459250000005,-1.2089023375,-6.7245572
54,1778471759,0.829306525,-1.53536415,-0.284204655,5.0475793,-1.6059648,-6.782437
55,1778471759,0.290794215,-1.6058967000000002,-0.4141651349999999,5.0475793,-1.6059648,-6.782437
56,1778471759,-0.0135096917201992,-1.626397883215715,-0.3780847342357087,4.489646311398875,-1.605353922907831,-6.750264184257639
57,1778471759,-0.3178058083600996,-1.6468985416078576,-0.3420052571178544,3.9317276056994377,-1.6047430614539155,-6.71809219212882
58,1778471759,-0.622101925,-1.6673992,-0.30592578,3.3738089,-1.6041322,-6.6859202
59,1778471759,-0.6267390125,-1.803339,-0.45132289,3.4956764500000004,-2.25134385,-5.5457401
60,1778471759,-0.6313761,-1.9392788,-0.59672,3.617544,-2.8985555,-4.40556
61,1778471759,-1.0750722,-2.5181828,-1.0992339,2.9217684,-2.4526238,-3.350596
62,1778471759,-1.34145724022784,-2.80970536846336,-1.2250437896128,2.9217684,-2.4526238,-3.350596
63,1778471759,-1.6078491,-3.1012354,-1.3508569,2.9217684,-2.4526238,-3.350596
64,1778471759,-2.0908384,-3.5400503,-1.6034561,2.1013765,-1.9486601,-2.5411994
65,1778471760,-2.8767028,-3.9017434,-1.1312053,-0.30665436,-0.8185594,-0.34391713
66,1778471760,-2.8861394722787317,-3.9259045543110216,-0.8988667819614636,-0.30665436,-0.8185594,-0.34391713
67,1778471760,-2.8955763861393655,-3.9500663271555103,-0.6665223159807317,-0.30665436,-0.8185594,-0.34391713
68,1778471760,-2.9050133,-3.9742281,-0.43417785,-0.30665436,-0.8185594,-0.34391713
69,1778471760,-2.8105633,-3.8927128,0.03099527,-0.14966199,0.03848451,3.018896
70,1778471760,-2.5338478226712633,-3.721062146208656,0.0353068740810151,0.1113766382170529,0.683343567597877,3.8398848216114274
71,1778471760,-2.2571252613356316,-3.549407098104328,0.0396185885405075,0.3724219491085265,1.3282191337989386,4.660894660805714
72,1778471760,-1.9804027,-3.37775205,0.043930303,0.63346726,1.9730947,5.4819045
73,1778471760,-1.466357025,-3.0790870999999997,-0.269317161,-0.0844521199999999,3.5147658500000003,6.70332975
74,1778471760,-0.95231135,-2.7804221499999997,-0.5825646250000001,-0.8023715,5.056437,7.924755
75,1778471760,-0.4556549,-2.5596724,-0.92400074,-0.3817908,4.646241,7.338324
76,1778471760,2.1442869,-1.9658812,-1.1568314,-2.2131648,5.8771343,9.851424
77,1778471760,3.2026411,-1.6080322,-0.2687070549999998,-4.7003026,3.78217205,11.06643475
78,1778471760,4.2609953,-1.2501832,0.61941729,-7.1874404,1.6872098,12.2814455
79,1778471760,4.232074450000001,-1.18300645,1.071167245,-7.1874404,1.6872098,12.2814455
80,1778471760,4.2031536,-1.1158297,1.5229172,-7.1874404,1.6872098,12.2814455
81,1778471760,3.77141655,-1.049812225,2.3761414,-7.3358807,1.21226207,10.77169225
82,1778471760,3.3396795,-0.98379475,3.2293656,-7.484321,0.73731434,9.261939
83,1778471760,2.7604096,-0.968175075,3.5830045,-7.484321,0.73731434,9.261939
84,1778471760,2.1811397,-0.9525554,3.9366434,-7.484321,0.73731434,9.261939
85,1778471760,1.6569047,-1.0413923,3.4607317,-3.0543263,2.1771238,8.52157
86,1778471760,2.07863545,-0.7585299,1.6627622,-0.7867944,0.89369583,8.409171
87,1778471760,2.030251125,-0.6677406,1.4009497,-0.7744243949999999,0.81397792,7.710341175
88,1778471760,1.9818668,-0.5769513,1.1391372,-0.76205439,0.7342600100000001,7.01151135
89,1778471760,1.6418340750000002,-0.5823815925,1.0970983,-1.26632367,1.5381586550000002,6.7456322
90,1778471760,1.30180135,-0.587811885,1.0550594,-1.7705929500000002,2.3420573,6.47975305
91,1778471760,0.9498709,-0.65065664,1.0199152,-2.02624,2.7446175,6.4177504
92,1778471760,0.6708488385633279,-0.782815311609344,1.03821973429504,-2.81854229133952,3.73942433336448,6.6740116801024
93,1778471760,0.39183392,-0.9149706,1.0565238,-3.6108243,4.7342057,6.9302664
94,1778471760,0.652365,-0.8542004,1.0858107,-3.921144,4.8557677,7.3823066
95,1778471760,1.08812925,-0.6467517349999999,0.87860607,-3.7519343,3.917478800000001,7.5496836
96,1778471760,1.5238935,-0.43930307,0.67140144,-3.5827246,2.9791899,7.7170606
97,1778471760,1.896510447892904,-0.18043584828809,0.6962272100342898,-3.594373334128262,2.798689749550222,7.569343191828469
98,1778471760,2.2691273957858074,0.07843137342382,0.7210529800685797,-3.606022068256524,2.618189599100443,7.421625783656936
99,1778471760,2.641753882794678,0.3373052222214325,0.7458793856507173,-3.617671100596197,2.4376848277876664,7.273904593871351
100,1778471760,3.0143803698035483,0.5961790710190451,0.7707057912328551,-3.6293201329358697,2.257180056474889,7.126183404085766
101,1778471760,3.3869973176964523,0.8550462927309551,0.7955315612671449,-3.640968867064131,2.076679906025111,6.978465995914234
102,1778471760,3.759614265589356,1.1139135144428651,0.8203573313014347,-3.652617601192393,1.8961797555753324,6.830748587742702
103,1778471760,4.132240752598227,1.3727873632404777,0.8451837368835724,-3.664266633532066,1.7156749842625554,6.683027397957117
104,1778471760,4.504867239607097,1.6316612120380902,0.8700101424657101,-3.6759156658717385,1.5351702129497784,6.535306208171531
105,1778471760,4.8774841875,1.89052843375,0.8948359124999999,-3.6875644,1.3546700625,6.3875888
106,1778471760,6.3633046,3.576415,3.4770837,-4.24307,1.5803084,3.0243938
107,1778471760,6.433837,3.4846492,2.2016404,-5.6370645,-0.7690793,-0.13500121
108,1778471760,6.689609,3.8109539,4.7386155,-5.6370645,-0.7690793,-0.13500121
109,1778471760,7.104872500000001,3.99668145,5.742301,-4.7726903,0.16371189,-0.8888089
110,1778471760,7.018762469629997,3.695438607943646,5.389440855556884,-1.8039358673908592,1.1441339272497184,-2.265064878263986
111,1778471760,6.932650234814998,3.394188053971823,5.036571677778442,1.1648945663045702,2.124581063624859,-3.6413560891319934
112,1778471760,6.846538,3.0929375,4.6837025,4.133725,3.1050282,-5.0176473
113,1778471760,6.0780015,1.5851518,2.1633234,8.025548,-0.8454375,-8.965058
114,1778471760,4.7554555,0.35022214,0.3912238,7.8080797,0.88514376,-7.390248
115,1778471760,3.7108903,-0.63503695,0.04148973,7.8080797,0.88514376,-7.390248
116,1778471760,3.295416459337213,-0.9122093470150272,0.3640982424481384,7.2534045003310945,0.209108035804654,-8.215133411197488
117,1778471760,2.879953254668606,-1.1893746485075136,0.6866984962240692,6.6987435001655475,-0.4669103820976731,-9.039997705598743
118,1778471760,2.46449005,-1.46653995,1.00929875,6.1440825,-1.1429288,-9.864862
119,1778471760,2.350351676031676,-1.558835087575093,1.1923839123067208,5.466016330576083,-1.1295914861897125,-9.78687450118186
120,1778471760,2.236213302063351,-1.651130225150186,1.3754690746134417,4.787950161152165,-1.1162541723794244,-9.708887002363724
121,1778471760,2.12207785,-1.743423,1.55854955,4.1099013499999995,-1.1029171999999998,-9.6309015
122,1778471760,2.02140546362304,-1.78521731502592,1.40308706494528,4.47397236483136,-1.3895620308991998,-9.4751327438656
123,1778471760,1.9207305,-1.8270127,1.2476206,4.8380527,-1.6762142,-9.31936
124,1778471760,1.9766197,-1.8343343,1.3901501,4.8380527,-1.6762142,-9.31936
125,1778471760,1.867282,-1.7364672,0.97598493,4.8380527,-1.6762142,-9.31936
126,1778471760,1.8941283,-1.811393,1.138039,4.5992045,-2.0286834,-9.376171
127,1778471760,1.8655736,-1.7255458250000002,1.034802775,4.3288965,-2.14841305,-9.3899155
128,1778471760,1.8370189,-1.63969865,0.93156655,4.0585885,-2.2681427,-9.40366
129,1778471760,1.9325673,-1.488322075,1.067750475,3.090978,-2.2321017,-9.16023
130,1778471760,2.0281157,-1.3369455,1.2039344,2.1233675,-2.1960607,-8.9168
131,1778471760,2.3302586,-1.1580516,1.4736177,1.5705346,-1.5033394,-8.801957
132,1778471760,2.3737006,-1.1370627,1.5280424,1.5705346,-1.5033394,-8.801957
133,1778471760,2.1009667,-1.1845319,1.40772225,1.42728665,0.29046642,-8.6694
134,1778471760,2.07589017098368,-1.18178628514432,1.3720903310944,1.46500709217216,0.361478591032576,-8.6351919378688
135,1778471760,2.050813,-1.1790406,1.3364575,1.5027285,0.43249258,-8.600983
136,1778471760,1.6544641,-1.2329772,0.8820229,1.9449949,-0.042760566,-8.251568
137,1778471760,1.311380615,-1.308451875,0.81753076,2.036319225,-0.1937969995,-8.15367675
138,1778471760,0.96829713,-1.38392655,0.75303862,2.12764355,-0.344833433,-8.0557855
139,1778471760,0.59067956,-1.649887925,0.3809123405,2.387872225,-0.6311765014999999,-7.7505056
140,1778471760,0.21306199,-1.9158493,0.008786061,2.6481009,-0.91751957,-7.4452257
141,1778471760,-0.1410620581027758,-2.1801610611774347,-0.43181488282382,2.3418563799866883,-0.9470444613843684,-6.0414693122078384
142,1778471760,-0.4951861062055517,-2.444472822354869,-0.8724158266476401,2.035611859973376,-0.9765693527687372,-4.637712924415677
143,1778471760,-0.8493192199999999,-2.7087913500000003,-1.31302805,1.7293595,-1.006095,-3.2339206
144,1778471760,-0.7926361894664959,-2.83991279083296,-1.32413277963872,1.197747215449856,-0.8524604335027199,-3.15664516088704
145,1778471760,-0.73595461,-2.971030875,-1.335237225,0.66614854,-0.6988298,-3.0793717
146,1778471760,-0.679273030533504,-3.10214895916704,-1.34634167036128,0.134549864550144,-0.54519916649728,-3.00209823911296
147,1778471760,-0.62259,-3.2332704,-1.3574464,-0.39706242,-0.3915646,-2.9248228
148,1778471760,-0.7598913951496484,-3.306010855351625,-1.2137645728104385,-0.3838501068845568,-0.1061559835307556,-2.466990894969483
149,1778471760,-0.8971892754285714,-3.3787494485714284,-1.0700864238285714,-0.370638132,0.1792453265714286,-2.0091707102857144
150,1778471760,-1.0344871557074944,-3.451488041791232,-0.9264082748467046,-0.3574261571154432,0.4646466366736129,-1.5513505256019455
151,1778471760,-1.1717885508571428,-3.524228497142857,-0.7827264476571428,-0.344213844,0.7500552531428573,-1.093518620571429
152,1778471760,-1.3090899460067913,-3.5969689524944823,-0.639044620467581,-0.3310015308845568,1.0354638696121017,-0.6356867155409116
153,1778471760,-1.4463878262857144,-3.669707545714286,-0.4953664714857143,-0.317789556,1.320865179714286,-0.1778665308571429
154,1778471760,-1.5836857065646373,-3.7424461389340897,-0.3516883225038475,-0.3045775811154432,1.60626648981647,0.2799536538266257
155,1778471760,-1.7209871017142857,-3.8151865942857146,-0.2080064953142857,-0.291365268,1.8916751062857144,0.7377855588571427
156,1778471760,-1.8582884968639344,-3.887927049637339,-0.064324668124724,-0.2781529548845567,2.1770837227549587,1.1956174638876598
157,1778471760,-1.9955863771428572,-3.960665642857143,0.0793534808571428,-0.26494098,2.462485032857143,1.6534376485714284
158,1778471760,-0.9336807411375544,-3.232111747037806,-0.1264625900919991,-1.336930293361152,4.013408464354542,5.033399060225865
159,1778471760,0.12825208,-2.5035392,-0.33228393,-2.40894705,5.5643716,8.413447
160,1778471760,1.97698573,-1.87216315,-0.1319129465,-3.517362,4.851492,10.998629
161,1778471760,2.7803746309936255,-1.440348218201251,0.006913767663542,-3.6096018795429528,3.453233321960115,11.105325756176024
162,1778471760,3.583763531987251,-1.008533286402502,0.145740481827084,-3.701841759085905,2.0549746439202297,11.212022512352052
163,1778471760,4.387173,-0.5767073,0.28457075,-3.794084,0.65668017,11.318722
164,1778471760,4.3715534,0.03099527,0.8432178,-4.070195,1.0409144,9.674884
165,1778471761,3.086348,0.16986385,1.0958171,-4.1642685,2.4275784,7.879551
166,1778471761,2.814310142838857,0.1056372119819862,1.0583956053350172,-4.143194009675906,2.379524486797283,7.785784766964195
167,1778471761,2.5422653214194284,0.0414089297409931,1.0209731526675083,-4.122118979837953,2.3314693433986418,7.692016133482097
168,1778471761,2.2702205,-0.0228193525,0.9835507,-4.10104395,2.2834142,7.5982475
169,1778471761,2.1365398361344,-0.062264599469376,0.872201015294208,-4.1504470801318405,1.98333051612032,7.4653095766272
170,1778471761,2.0028591722688,-0.101709846438752,0.760851330588416,-4.19985021026368,1.6832468322406402,7.3323716532544
171,1778471761,1.8691750861344,-0.141156103219376,0.649498795294208,-4.24925460513184,1.38315546612032,7.1994303266271995
172,1778471761,1.735491,-0.18060236,0.53814626,-4.298659,1.0830641,7.066489
173,1778471761,1.8577638,-0.21623473,0.14130914,-4.298659,1.0830641,7.066489
174,1778471761,1.6083373,-0.43979117,0.19158493,-6.9131618,1.1404854,6.4091983
175,1778471761,1.2315128,-0.75340474,0.6975156,-8.224079,1.2070698,6.301686
176,1778471761,1.230821338199203,-0.8310569269136935,0.8166175759810388,-8.302271001126405,1.1213435702910732,6.344956338470991
177,1778471761,1.2301298940996015,-0.9087071259568468,0.9357165029905192,-8.380461000563201,1.0356195351455366,6.3882255692354954
178,1778471761,1.22943845,-0.986357325,1.05481543,-8.458651,0.9498955,6.431494799999999
179,1778471761,1.46236356890336,-0.8610018267201599,1.323220808044864,-8.424594814086399,0.15453871956352,6.62659234721664
180,1778471761,1.69528868780672,-0.73564632844032,1.5916261860897278,-8.3905386281728,-0.64081806087296,6.82168989443328
181,1778471761,1.92820784390336,-0.6102940392201599,1.860024693044864,-8.3564833140864,-1.43615448043648,7.01678244721664
182,1778471761,2.161127,-0.48494175,2.1284232,-8.322428,-2.2314909,7.211875
183,1778471761,2.246140233333333,0.358682815,2.8043804999999997,-7.754628800000001,-1.7821994,7.061602150000001
184,1778471761,2.3311534666666667,1.20230738,3.4803377999999996,-7.1868296,-1.3329079,6.911329300000001
185,1778471761,4.173623,3.3265002,3.8209605,-5.657223,-0.39400807,6.8245864
186,1778471761,5.0416791016529,3.83132408422876,3.87135738988207,-4.565625446836707,-0.7610299994122266,6.124343167637472
187,1778471761,5.90975742582645,4.33616089211438,3.921755569941035,-3.4739999484183532,-1.1280613247061133,5.424082008818736
188,1778471761,6.7778357499999995,4.8409977,3.97215375,-2.38237445,-1.49509265,4.72382085
189,1778471761,7.183984234155239,4.881388788658298,4.475273539989503,-1.67153699255728,-1.0981354540780974,2.653005371184944
190,1778471761,7.590132718310478,4.921779877316596,4.978393329979007,-0.9606995351145604,-0.7011782581561948,0.5821898923698876
191,1778471761,7.9962916,4.962172,5.481526,-0.24984388,-0.3042109,-1.4886786
192,1778471761,7.781945731408,3.98043913398016,5.09456812200256,0.312770191367936,0.66723000928448,-2.2534916394816
193,1778471761,7.56760535,2.9987314,4.70762015,0.87536986,1.63864605,-3.0182851
194,1778471761,6.28089089515584,1.528183278256896,2.701129223412608,3.082092333590784,2.72001643328192,-4.9177462365862405
195,1778471761,4.9941435,0.05759751,0.69458693,5.2888713,3.8014145,-6.817256
196,1778471761,4.573869760753325,-0.2312084888926246,0.44003087563228,5.927236327957027,3.0938168238209016,-7.580647028373455
197,1778471761,4.153606780376663,-0.5200070944463123,0.1854813378161399,6.565585013978513,2.3862372619104506,-8.344018514186727
198,1778471761,3.7333438,-0.8088057,-0.0690682,7.2039337,1.6786577,-9.10739
199,1778471761,3.0562068,-1.1665936,0.015375605,5.51550225,1.9740111,-9.48521
200,1778471761,2.2589939,-1.5802706,0.62551874,4.17954,1.772731,-9.004153
201,1778471761,2.216058392220623,-1.610009098674677,0.6623890404925447,4.201711895878015,1.7139076026214437,-8.98342916172017
202,1778471761,2.1731228844412462,-1.6397475973493532,0.6992593409850894,4.2238837917560295,1.6550842052428876,-8.96270532344034
203,1778471761,2.1301862774988005,-1.6694868573393409,0.7361305853694085,4.246056255241845,1.596259301966083,-8.941980954623462
204,1778471761,2.0872496705563552,-1.6992261173293284,0.7730018297537276,4.268228718727659,1.5374343986892782,-8.921256585806582
205,1778471761,2.044314162776978,-1.7289646160040049,0.8098721302462722,4.290400614605674,1.478611001310722,-8.900532747526752
206,1778471761,2.001378654997602,-1.7587031146786816,0.8467424307388169,4.3125725104836885,1.4197876039321655,-8.879808909246922
207,1778471761,1.958442048055156,-1.788442374668669,0.883613675123136,4.334744973969504,1.360962700655361,-8.859084540430043
208,1778471761,1.9155054411127104,-1.8181816346586568,0.9204849195074551,4.356917437455318,1.3021377973785564,-8.838360171613163
209,1778471761,1.8725699333333337,-1.8479201333333333,0.9573552199999998,4.379089333333333,1.2433144,-8.817636333333333
210,1778471761,1.477217425,-1.670999,0.6617002325,3.28874575,0.2128865225,-8.33113275
211,1778471761,1.4299008625,-1.5740167,0.75001844125,2.970255875,0.14859296125,-8.284324875
212,1778471761,1.3825843,-1.4770344,0.83833665,2.651766,0.0842994,-8.237517
213,1778471761,1.36977135,-1.3381659,1.2063749,1.40896065,1.8280143,-7.1978252000000005
214,1778471761,1.46977254496832,-1.28862288415872,1.23871213607808,1.55083225902016,1.97629985192064,-6.94798444800256
215,1778471761,1.5697763,-1.2390786,1.2710502,1.6927075,2.1245892,-6.6981373
216,1778471761,1.8643533,-1.1404796,1.2661691,1.6927075,2.1245892,-6.6981373
217,1778471761,1.9746673,-1.09118,1.1243718,2.6126707,1.4147639,-6.826419
218,1778471761,1.8754579,-1.1748915,0.8235712,3.03538945,1.0112874,-7.144069
219,1778471761,1.6579418999999995,-1.2637284,0.7085592,3.2635475749999996,0.7698429250000001,-7.336797
220,1778471761,1.4404259,-1.3525653,0.5935472,3.4917057,0.52839845,-7.529525
221,1778471761,0.51630311,-1.5625765,0.27151369,3.4602461,0.5729916049999999,-7.294342
222,1778471761,0.1824370695400191,-1.6513512386688,0.055220726085376,3.40022941822336,0.6606496304629119,-6.60437843164672
223,1778471761,-0.151437518,-1.74012825,-0.161077775,3.3402112,0.7483099,-5.9143972
224,1778471761,-0.2239275198601472,-1.835523316041216,-0.4246792565557759,3.1474603814877695,0.6645592055048319,-5.54657019187456
225,1778471761,-0.296415666,-1.93091594,-0.6882739899999999,2.9547144973333332,0.580810655,-5.1787526
226,1778471761,-0.3689038121398528,-2.0263085639587843,-0.9518687234442238,2.761968613178897,0.4970621044951679,-4.81093500812544
227,1778471761,-0.441393814,-2.1217036300000003,-1.2154702049999997,2.5692177946666668,0.41331141,-4.4431080000000005
228,1778471761,-0.5138838158601472,-2.217098696041216,-1.4790716865557758,2.376466976154436,0.329560715504832,-4.0752809918745605
229,1778471761,-0.5863719620000001,-2.3124913200000003,-1.7426664199999995,2.183721092,0.245812165,-3.7074634
230,1778471761,-1.4625750904563968,-2.991730590626048,-1.298195049306368,0.9941373378669568,-0.2429959606759039,-2.318923343540224
231,1778471761,-2.33880065,-3.67098725,-0.8537123,-0.19547687,-0.7318166,-0.93034774
232,1778471761,-2.4762065837734397,-3.73230720988544,-0.78256866437312,-0.299325294242816,-0.72815135308544,-1.405912457150464
233,1778471761,-2.613609,-3.7936256,-0.71142685,-0.40317106,-0.7244862,-1.881465
234,1778471761,-2.46681052904448,-3.74481492478464,-0.75621080175808,-0.1860112456812032,-0.407756614190592,-0.27613164852992
235,1778471761,-2.3200083,-3.696003,-0.8009959,0.031154128,-0.09101892,1.3292428
236,1778471761,-2.5767562,-3.4980726,-0.6828722,0.031154128,-0.09101892,1.3292428
237,1778471761,-2.4427688,-3.6293752,-0.69434285,-0.18325958,0.893085,2.2107213
238,1778471761,-1.75391745,-2.96346505,-0.8904429,-0.16432275,1.391551,2.99629405
239,1778471761,-1.5346929749999998,-2.8602898249999997,-0.9607924,-0.192727985,2.0317378,3.976732725
240,1778471761,-1.3154685,-2.7571146,-1.0311419,-0.22113322,2.6719246,4.9571714
241,1778471761,-0.9555220621096704,-2.6483036005432186,-0.9494853409709638,-0.5854592819481912,2.50740009809996,5.457235268644933
242,1778471761,-0.5955756242193412,-2.539492601086437,-0.8678287819419277,-0.9497853438963824,2.342875596199921,5.9572991372898665
243,1778471761,-0.235619971582253,-2.430678816032414,-0.7861701324782229,-1.3141207327111433,2.17834688241872,6.4573758077337
244,1778471761,0.1243356810548351,-2.321865030978391,-0.704511483014518,-1.6784561215259044,2.01381816863752,6.957452478177534
245,1778471761,0.4842821189451645,-2.2130540315216094,-0.6228549239854819,-2.0427821834740953,1.84929366673748,7.457516346822467
246,1778471761,0.8442285568354939,-2.104243032064828,-0.5411983649564458,-2.407108245422287,1.6847691648374403,7.9575802154674
247,1778471761,1.204184209472582,-1.9954292470108048,-0.459539715492741,-2.771443634237048,1.52024045105624,8.457656885911234
248,1778471761,1.5641398621096705,-1.8866154619567816,-0.3778810660290362,-3.135779023051809,1.3557117372750396,8.957733556355068
249,1778471761,1.9240863,-1.7778044625,-0.2962245069999999,-3.500105085,1.191187235375,9.457797425
250,1778471761,2.3447441655104,-1.4598172515384,0.4756271666721152,-4.292158079091903,0.3521745646871503,9.21601230738912
251,1778471761,2.7654128,-1.1418219,1.2474986,-5.08423135,-0.486859585,8.974221
252,1778471761,2.7145766800509827,-1.1479221750799224,1.2208922918172764,-5.07559273897108,-0.5775280588736762,8.86786727250999
253,1778471761,2.663741861489979,-1.154022293994802,1.1942866647473238,-5.066954349087772,-0.6681942116641312,8.761516267640554
254,1778471761,2.6129070429289745,-1.1601224129096812,1.1676810376773714,-5.058315959204465,-0.7588603644545862,8.655165262771117
255,1778471761,2.562070922979957,-1.1662226879896038,1.1410747294946475,-5.049677348175545,-0.8495288383282624,8.548811535281107
256,1778471761,2.51123480303094,-1.1723229630695262,1.114468421311924,-5.041038737146625,-0.9401973122019386,8.442457807791097
257,1778471761,2.460399984469936,-1.1784230819844057,1.0878627942419714,-5.032400347263318,-1.0308634649923936,8.33610680292166
258,1778471761,2.4095651659089317,-1.184523200899285,1.061257167172019,-5.023761957380009,-1.1215296177828484,8.229755798052224
259,1778471761,2.3587290459599144,-1.1906234759792076,1.034650858989295,-5.01512334635109,-1.2121980916565247,8.123402070562214
260,1778471761,2.307892926010897,-1.19672375105913,1.0080445508065716,-5.006484735322171,-1.302866565530201,8.017048343072204
261,1778471761,2.257058107449893,-1.2028238699740097,0.9814389237366192,-4.997846345438863,-1.393532718320656,7.910697338202768
262,1778471761,2.206223288888889,-1.2089239888888887,0.9548332966666666,-4.989207955555555,-1.484198871111111,7.804346333333332
263,1778471761,2.09877035,-1.16439708,1.55549885,-5.4690766,-1.5039502,7.827627
264,1778471761,2.9472353,-0.7133793,1.6549523,-4.667621,-3.0311134,8.215527
265,1778471762,3.2669501,-0.43295756,1.9812566,-4.555222,-2.5937338,7.9815655
266,1778471762,3.312101,0.5464442,3.0624304,-4.279111,-0.84849185,7.475158
267,1778471762,3.3882465,1.2971642,3.5456638,-4.279111,-0.84849185,7.475158
268,1778471762,3.714307,2.016645,3.74994,-2.5717428,0.6462954,6.998683
269,1778471762,5.380486,3.7936256,3.2998981,0.077579886,0.36835176,5.3780575
270,1778471762,5.87030258026752,4.37593884629504,2.6616965690841603,0.7718193566210304,-0.3472677599528959,3.88420577154688
271,1778471762,6.3601317,4.958267,2.0234787,1.4660766,-1.0629056,2.3903158
272,1778471762,6.00111905469696,5.03770871684096,1.86166667883264,1.4660766,-1.0629056,2.3903158
273,1778471762,5.6421156,5.1171484,1.6998588,1.4660766,-1.0629056,2.3903158
274,1778471762,5.2096457,4.7061563,2.689755,0.6065892,-1.749518,-0.6988298
275,1778471762,5.765857012942452,4.385706198860805,3.0016627282452126,0.1624863770377514,-1.067582960895484,-0.9981563542205686
276,1778471762,6.322068325884903,4.06525609772161,3.313570456490426,-0.2816164459244972,-0.3856479217909683,-1.2974829084411372
277,1778471762,6.8782654,3.7448142,3.6254702,-0.7257079,0.29626966,-1.5968018
278,1778471762,6.7357364,2.5855424,3.244253,0.6047566,3.004846,-3.4324517
279,1778471762,6.151463,1.9173138,2.8144681,3.0921998,2.3371704,-5.720753
280,1778471762,4.8322115,0.89544602,1.4844781500000002,5.5930822,1.301143,-8.0154685
281,1778471762,4.183675584243986,0.4576924088786298,0.918758297537867,5.447697440632493,1.2542085838454775,-8.39257278200227
282,1778471762,3.535139668487972,0.0199387977572596,0.3530384450757337,5.302312681264987,1.2072741676909555,-8.76967706400454
283,1778471762,2.88658715,-0.4178260199999999,-0.21269589,5.156924200000001,1.16033855,-9.146791
284,1778471762,2.5928999044684993,-0.645006523830971,-0.1351657141686023,4.961851270797956,1.1740832679068498,-9.150354394147817
285,1778471762,2.2992201772342495,-0.8721812119154855,-0.0576375230843011,4.766783335398978,1.187827633953425,-9.153917697073908
286,1778471762,2.0055404500000003,-1.0993559,0.019890668,4.5717154,1.201572,-9.157481
287,1778471762,1.9259771210682837,-1.1912849177842442,0.1584350192299979,4.081593751015463,0.7566546634206575,-9.009853740263509
288,1778471762,1.8464137921365669,-1.2832139355684882,0.2969793704599959,3.591472102030925,0.3117373268413149,-8.862226480527017
289,1778471762,1.7668525,-1.3751406,0.4355201749999999,3.101363,-0.13316862,-8.714603
290,1778471762,1.7110854,-1.47495995,0.6711574499999999,2.9596422,-0.32375856,-8.66512325
291,1778471762,1.6981503,-1.5038807,0.84834296,2.8179214,-0.5143485,-8.6156435
292,1778471762,1.6791745571136,-1.5242597858489602,0.886965536862656,2.7458382773478403,-0.521068121010048,-8.59701201152
293,1778471762,1.6601993,-1.54463835,0.925587125,2.673757,-0.52778757,-8.578381
294,1778471762,1.61071738337664,-1.55293616878656,0.92491597109088,2.32679009123328,-0.16127311144512,-8.481559739328
295,1778471762,1.5612342,-1.5612342,0.9242448,1.9798143,0.20525073,-8.384736
296,1778471762,1.53957387275136,-1.50113438073216,0.922353340789632,1.82495796786432,0.4004246781945599,-8.2109427754752
297,1778471762,1.5179141,-1.4410361,0.92046193,1.6701056,0.59559363,-8.037154
298,1778471762,1.58319858934784,-1.33176084874112,0.969028693337472,1.57710256545408,0.748613406321792,-7.825186488218879
299,1778471762,1.64848475,-1.2224828,1.0175967,1.48409715,0.9016371,-7.613213549999999
300,1778471762,1.60394370488192,-1.18001628143552,1.04889745064448,1.54014476740032,1.06779457678848,-7.549224530951039
301,1778471762,1.5594038,-1.13755085,1.0801974,1.59619095,1.2339478,-7.48523715
302,1778471762,1.38179339844224,-1.1668983493472,0.905515653454976,2.08945828609728,1.38421872650752,-7.26425957854912
303,1778471762,1.20417845,-1.1962466,0.730829435,2.58273825,1.5344935,-7.04327635
304,1778471762,1.046664598941106,-1.29010927642688,0.5905342679022542,2.536968024611577,1.4439711610511146,-6.8066591745796625
305,1778471762,0.8891547801851853,-1.38396955,0.4502426923148147,2.491198970925926,1.3534511394444444,-6.570048056481482
306,1778471762,0.7316449614292647,-1.47782982357312,0.3099511167273753,2.445429917240275,1.2629311178377742,-6.333436938383301
307,1778471762,0.5741311103703706,-1.5716925,0.1696559496296295,2.399659691851852,1.1724087788888888,-6.096819762962963
308,1778471762,0.4166172593114763,-1.66555517642688,0.0293607825318837,2.353889466463429,1.0818864399400034,-5.860202587542625
309,1778471762,0.2591074405555558,-1.75941545,-0.1109307930555556,2.308120412777778,0.9913664183333332,-5.623591469444444
310,1778471762,0.1015976217996351,-1.85327572357312,-0.2512223686429951,2.262351359092127,0.9008463967266632,-5.3869803513462635
311,1778471762,-0.055916229259259,-1.9471384,-0.3915175357407409,2.216581133703704,0.8103240577777777,-5.150363175925926
312,1778471762,-0.2134300803181532,-2.04100107642688,-0.5318127028384867,2.1708109083152807,0.7198017188288924,-4.913746000505588
313,1778471762,-0.3709398990740738,-2.13486135,-0.6721042784259261,2.1250418546296297,0.6292816972222223,-4.677134882407407
314,1778471762,-0.5284497178299944,-2.22872162357312,-0.8123958540133656,2.0792728009439787,0.538761675615552,-4.440523764309226
315,1778471762,-0.6859635688888888,-2.3225843,-0.9526910211111111,2.0335025755555556,0.4482393366666666,-4.203906588888889
316,1778471762,-2.2253141,-3.6547575,-0.5635282,-0.91629785,1.491122,-1.4831808
317,1778471762,-2.1876072,-3.50002505,-0.1151950145,-1.7201965,2.3133466,-0.3903429
318,1778471762,-1.852074859825238,-3.2199334802906443,-0.1593686257607178,-1.2486165884001774,2.7085696547735263,0.2663260260402089
319,1778471762,-1.516533929912619,-2.939834740145322,-0.2035433678803589,-0.7770246042000887,3.103802827386763,0.9230117630201043
320,1778471762,-1.180993,-2.659736,-0.24771811,-0.30543262,3.499036,1.5796975
321,1778471762,-0.84883106,-2.0710697,-0.8700641,-0.30543262,3.499036,1.5796975
322,1778471762,-0.788793768487168,-1.93891449160832,-1.0372412101056,-0.521676157047296,4.50053683062528,1.91475281123712
323,1778471762,-0.72875494,-1.8067559,-1.2044226,-0.73792523,5.5020633,2.2498167
324,1778471762,-0.5784970333333334,-1.4270027,-1.1792032666666667,-3.0641000333333337,6.402071266666667,3.9231803666666663
325,1778471762,-0.3516661569166666,-1.299299775,-0.7933894158333333,-3.8661662166666666,4.910542033333333,4.989954683333333
326,1778471762,-0.1248352804999999,-1.17159685,-0.407575565,-4.6682324,3.4190128,6.056729
327,1778471762,0.051294204285699,-1.1492247424271258,-0.2543469941329317,-4.5878010469945725,2.4754215481243813,6.3623678080844455
328,1778471762,0.227423689071398,-1.1268526348542514,-0.1011184232658634,-4.507369693989146,1.5318302962487629,6.668006616168891
329,1778471762,0.403548665,-1.1044811,0.052106225,-4.4269404,0.5882632,6.9736376
330,1778471762,0.7217125299338669,-1.048755632726815,0.0482013753102877,-4.304158528837424,-0.0258495190087722,7.268680464537325
331,1778471762,1.0398845399669334,-0.9930287388634076,0.0442964256551438,-4.181373514418712,-0.6399779595043861,7.563730882268662
332,1778471762,1.35805655,-0.937301845,0.040391476,-4.0585885,-1.2541064,7.8587813
333,1778471762,2.2179923,-0.72485006,-0.04002539,-5.1208835,-1.7721201,9.724975
334,1778471762,3.1105096,-0.35827604,0.12739788,-5.1208835,-1.7721201,9.724975
335,1778471762,2.9826631923912856,-0.3657605238667781,0.3019002924015257,-6.065798113168157,-1.2714099406613306,8.872301540612947
336,1778471762,2.8548167847825714,-0.3732450077335563,0.4764027048030515,-7.0107127263363145,-0.7706997813226611,8.019628081225893
337,1778471762,2.7269736499999997,-0.3807293,0.65090065,-7.95560315,-0.27000244,7.16697645
338,1778471762,1.73829775,-0.67750295,1.11082655,-8.317846,0.022296585,6.4470717
339,1778471762,1.2842293,-0.82027644,1.1841658,-8.324261,-0.045814894,5.465411
340,1778471762,1.306235492234207,-0.8088868989543209,1.0969138359188733,-8.056697300304641,-0.5408278441128794,5.350159366397296
341,1778471762,1.3282411211171037,-0.7974976494771605,1.0096641054594366,-7.78914045015232,-1.0358281220564398,5.234910683198648
342,1778471762,1.3502467500000002,-0.7861084,0.922414375,-7.5215836,-1.5308284,5.119662
343,1778471762,1.54061135,-0.6765267,0.8700641,-7.5215836,-1.5308284,5.119662
344,1778471762,1.4467091480672,-0.66597107738976,0.99087399634688,-7.51257330966976,-2.09130437400064,4.9664852893632006
345,1778471762,1.35280935,-0.655415725,1.1116808,-7.50356325,-2.651766,4.8133125
346,1778471762,1.2078011415051029,-0.5647500123813018,1.4986269793673417,-7.587555816508516,-2.517581590109909,4.845484217595659
347,1778471762,1.0627892207525516,-0.4740819786906509,1.8855830646836709,-7.671550533254258,-2.383393745054954,4.877656758797829
348,1778471762,0.9177773,-0.383413945,2.27253915,-7.75554525,-2.2492059,4.9098293
349,1778471762,1.4206122924198077,0.2836701774759572,2.6015661422670604,-7.121676075752856,-2.1317171359169533,5.454003822984632
350,1778471762,1.9234472848396151,0.9507542999519144,2.9305931345341207,-6.487806901505714,-2.0142283718339065,5.998178345969262
351,1778471762,2.42629515,1.6178555,3.25962855,-5.8539215,-1.8967366,6.5423668
352,1778471762,3.087254046887453,2.3538633610400472,3.0333022707476087,-4.117812884125543,-1.920560739926784,6.091947846281584
353,1778471762,3.7481960234437266,3.0898523805200235,2.806981785373804,-2.3817487120627714,-1.944384269963392,5.641540423140792
354,1778471762,4.409138,3.8258414,2.5806613,-0.64568454,-1.9682078,5.191133
355,1778471762,5.2061070250000006,4.4187175,2.551557475,-0.7232644199999999,-3.14106915,3.42115085
356,1778471762,6.003076050000001,5.011593599999999,2.52245365,-0.8008443,-4.3139305,1.6511687
357,1778471762,5.9246754304916145,4.787003137995192,2.5928880029150188,-0.5044361895607474,-3.880301423707981,1.0761907700308466
358,1778471762,5.846274810983227,4.562412675990383,2.663322355830037,-0.2080280791214948,-3.4466723474159613,0.5012128400616935
359,1778471762,5.767872184393291,4.337816464396153,2.7337585118875705,0.0883876194625132,-3.0130321700774956,-0.0737798095308781
360,1778471762,5.689469557803355,4.113220252801923,2.804194667945104,0.3848033180465213,-2.57939199273903,-0.6487724591234497
361,1778471762,5.611068938294968,3.888629790797115,2.874629020860122,0.6812114284857739,-2.1457629164470107,-1.223750389092603
362,1778471762,5.532668318786582,3.6640393287923065,2.945063373775141,0.9776195389250264,-1.7121338401549913,-1.7987283190617562
363,1778471762,5.454265692196646,3.4394431171980764,3.015499529832674,1.2740352375090345,-1.2784936628165255,-2.373720968654328
364,1778471762,5.375863065606709,3.2148469056038462,3.0859356858902074,1.5704509360930423,-0.8448534854780597,-2.9487136182468996
365,1778471763,5.297462446098323,2.9902564435990384,3.156370038805226,1.8668590465322952,-0.4112244091860405,-3.5236915482160525
366,1778471763,5.219061826589937,2.76566598159423,3.226804391720244,2.1632671569715476,0.0224046671059787,-4.098669478185206
367,1778471763,5.1406592,2.54106977,3.2972405477777778,2.4596828555555557,0.4560448444444445,-4.673662127777778
368,1778471763,3.57680173288064,0.6427952873976319,1.8222481292275912,3.114674561564302,0.7121364001521778,-7.172167044342471
369,1778471763,2.0129843,-1.2554306,0.34729347,3.7696495,0.9682214,-9.670608
370,1778471763,1.8487337,-1.329868,0.44394013,3.2571335,1.0231993,-9.307754
371,1778471763,1.8893692,-1.34805025,0.5837849325,3.2571335,1.0231993,-9.307754
372,1778471763,1.9300047,-1.3662325,0.723629735,3.2571335,1.0231993,-9.307754
373,1778471763,1.90462275,-1.50436885,0.861278015,2.6129761,1.09650305,-8.811120500000001
374,1778471763,1.8079773620768,-1.54036681422016,0.874578972245568,2.56487111575168,0.95875473820096,-8.770498769964801
375,1778471763,1.7113295,-1.5763657,0.88788027,2.5167649,0.8210029,-8.729876
376,1778471763,1.7113295,-1.5338998,0.835408,2.5167649,0.8210029,-8.729876
377,1778471763,1.808586275,-1.4304195,0.7136844250000001,2.34633345,0.76266527,-8.49286
378,1778471763,1.90584305,-1.3269392,0.59196085,2.175902,0.70432764,-8.255844
379,1778471763,1.8865216684596544,-1.2976927671003002,0.6610703280599977,1.797569571604601,1.086936158217565,-8.148127080827388
380,1778471763,1.8672002869193092,-1.2684463342006007,0.7301798061199952,1.419237143209202,1.46954467643513,-8.040410161654776
381,1778471763,1.8478794,-1.23920065,0.7992875150000001,1.0409144,1.8521434,-7.932696
382,1778471763,1.77533430358912,-1.19911473810624,0.865975303885376,1.03938721954816,1.97309315182336,-7.86397457964544
383,1778471763,1.70278735,-1.1590278,0.9326648,1.03786,2.094046,-7.7952514
384,1778471763,1.5550488452951263,-1.165373408296995,0.7644658127740278,1.286893650119894,2.0561717202872334,-7.644568695048085
385,1778471763,1.4073141226475634,-1.1717188541484975,0.5962711313870139,1.535920925059947,2.018298410143617,-7.493889847524043
386,1778471763,1.2595794,-1.1780643,0.42807645,1.7849482,1.9804251,-7.343211
387,1778471763,1.4858205,-1.0716554,0.6960513,3.154508,1.2455542,-7.199047
388,1778471763,0.4378386815,-1.46556375,-0.13630598,3.997502,-0.35613444,-6.456235
389,1778471763,0.19036464225,-1.553424375,-0.2825572899999999,3.9028179,0.11270463,-6.8041227
390,1778471763,-0.057109397,-1.641285,-0.4288086,3.8081338,0.5815437,-7.1520104
391,1778471763,-0.4449163585,-1.908588725,-0.702823875,3.9028179,0.11270463,-6.804122700000001
392,1778471763,-0.8327233199999999,-2.17589245,-0.97683915,3.997502,-0.35613444,-6.456235
393,1778471763,-1.2902086,-2.732221,-1.53939105,2.2070561,0.151800025,-3.35823165
394,1778471763,-1.4433545,-2.9316158,-1.7760046,2.8002062,-0.20708331,-3.9229765
395,1778471763,-1.73390465,-3.1969059,-1.84507275,2.2070561,0.151800025,-3.35823165
396,1778471763,-2.0244548,-3.462196,-1.9141409,1.613906,0.51068336,-2.7934868
397,1778471763,-2.1923664,-3.8287702,-1.1831895,0.050701816,0.8906415,-1.9211712
398,1778471763,-2.0305562,-3.7694643,-0.47542354,-0.8136725,0.8173377,-0.6462954
399,1778471763,-2.1923664,-3.8287702,-1.1831895,-0.8136725,0.8173377,-0.6462954
400,1778471763,-2.0305562,-3.7694643,-0.47542354,-0.45998153,0.65240407,0.09712757
401,1778471763,-1.8043152,-3.0321672,-0.6062382,-0.45998153,0.65240407,0.09712757
402,1778471763,-2.2521603,-3.4036224,-0.3275248,0.71776664,0.6927212,0.86009824
403,1778471763,-1.829819225,-3.0632844500000003,-0.605506035,0.71776664,0.6927212,0.86009824
404,1778471763,-1.40747815,-2.7229465,-0.88348727,0.71776664,0.6927212,0.86009824
405,1778471763,-1.1708270033401174,-2.5009386584034132,-0.958899987204864,0.459068516378368,1.3393137651758933,1.680276181587968
406,1778471763,-0.9341758566802348,-2.2789308168068265,-1.034312704409728,0.2003703927567359,1.9859063303517863,2.5004541231759356
407,1778471763,-0.6975186516734507,-2.056917291736746,-1.1097273522048638,-0.0583343536216321,2.6325154485092264,3.3206530615879677
408,1778471763,-0.4608614466666667,-1.8349037666666668,-1.185142,-0.3170391000000001,3.279124566666667,4.140852
409,1778471763,-0.2006121780908584,-1.7522861736230857,-1.0349154178953313,-0.6477465735365046,3.0155892690560493,4.601546402760149
410,1778471763,0.0596370904849498,-1.6696685805795042,-0.8846888357906625,-0.9784540470730092,2.752053971445432,5.062240805520297
411,1778471763,0.3198930215273132,-1.5870488724984684,-0.7344584078362649,-1.3091699868292035,2.4885119272448395,5.522947002208118
412,1778471763,0.5801489525696766,-1.5044291644174326,-0.5842279798818675,-1.6398859265853984,2.224969883044247,5.98365319889594
413,1778471763,0.8403982211454849,-1.4218115713738513,-0.4340013977771987,-1.9705934001219028,1.9614345854336297,6.444347601656089
414,1778471763,1.1006474897212932,-1.33919397833027,-0.28377481567253,-2.3013008736584073,1.697899287823012,6.905042004416237
415,1778471763,1.3609034207636566,-1.2565742702492342,-0.1335443877181325,-2.632016813414602,1.4343572436224197,7.365748201104059
416,1778471763,1.62115935180602,-1.1739545621681984,0.0166860402362649,-2.9627327531707968,1.170815199421827,7.82645439779188
417,1778471763,1.881408620381828,-1.091336969124617,0.1669126223409337,-3.2934402267073013,0.9072799018112097,8.287148800552028
418,1778471763,2.1416578889576363,-1.0087193760810358,0.3171392044456024,-3.624147700243806,0.6437446042005923,8.747843203312177
419,1778471763,2.40191382,-0.926099668,0.4673696323999999,-3.95486364,0.3802025599999999,9.2085494
420,1778471763,2.18528855,-0.4070264725,1.1533535,-3.86509715,0.1818851149999999,7.14956665
421,1778471763,1.4343245,-0.609655,0.2889638,-3.613268,0.4269948,6.0982676
422,1778471763,1.6237129,-0.4898229,0.41172457,-3.613268,0.4269948,6.0982676
423,1778471763,1.4310907,-0.628813485,0.4216698949999999,-4.0350705,-0.3955352499999998,5.7851993
424,1778471763,1.2384685,-0.76780407,0.4316152199999999,-4.456873,-1.2180653,5.472131
425,1778471763,1.1826404,-0.801239885,0.66755756,-4.456873,-1.2180653,5.472131
426,1778471763,1.1268123,-0.8346757,0.9034999,-4.456873,-1.2180653,5.472131
427,1778471763,1.355494,-0.72875494,1.2439598,-5.169142,-1.5332718,6.169128
428,1778471763,1.5160836,-0.59110665,1.2697078,-5.2690183,-1.07878805,6.39301015
429,1778471763,1.7950411,-0.36242503,1.3013133,-5.287039,-0.51068336,6.681644
430,1778471763,2.13696094836992,-0.0663263536115712,1.39545714494336,-4.8490541062784,-1.024261706113024,6.8963603765952
431,1778471763,2.47888955,0.229779903,1.4896034,-4.411058000000001,-1.5378532,7.11108225
432,1778471763,2.8690810443871997,0.7904475779543808,1.48386800158784,-3.76872492824192,-2.05663724035072,7.26227341022208
433,1778471763,3.25926255,1.3511009,1.47813275,-3.1264083,-2.575408,7.4134607
434,1778471763,3.561685005257364,1.8442508501331196,1.3674546555969893,-3.1196889146789775,-2.312944012776052,7.12249009929515
435,1778471763,3.8641152026286822,2.33741342506656,1.2567737277984947,-3.1129693573394888,-2.050473306388026,6.831512049647575
436,1778471763,4.1665454,2.830576,1.1460928,-3.1062498,-1.7880026,6.540534
437,1778471763,4.456241,3.2720757,1.4999758,-3.1062498,-1.7880026,6.540534
438,1778471763,4.69981,3.6440187,2.246547,-3.7006216,-2.2351558,5.5967474
439,1778471763,4.68138385,4.09942965,3.3604241499999996,-3.7006216,-2.2351558,5.5967474
440,1778471763,4.6629577,4.5548406,4.4743013,-3.7006216,-2.2351558,5.5967474
441,1778471763,6.3828295,5.83650735,4.9010355,-0.92087937,-1.50883713,3.89548755
442,1778471763,7.101446551584,5.97897385140544,4.20566435086464,1.114039467705472,-0.380278060740992,2.4181289354323203
443,1778471763,7.820082,6.121444,3.5102754,3.1490104,0.7483099,0.9407325
444,1778471763,7.41640613301504,5.32739348628352,2.3741743580928,3.5295842712832,0.616361326079872,-2.641427101056
445,1778471763,7.0127406,4.5333633,1.2381024,3.9101484,0.48441613,-6.223495
446,1778471763,4.2685614,2.409089,1.308635,3.9101484,0.48441613,-6.223495
447,1778471763,3.4809885,1.6529999,1.2229708,4.1648793,-0.21991149,-9.748798
448,1778471763,2.68206715,0.451627922,0.71691817,4.034765,-0.16310102,-9.299812
449,1778471763,2.57825259134336,0.1270359388305664,0.7479740374798081,3.94145649436416,-0.054215683750144,-9.4097663425664
450,1778471763,2.47443803268672,-0.1975560443388672,0.779029904959616,3.84814798872832,0.054669652499712,-9.5197206851328
451,1778471763,2.37062081634336,-0.5221563371694335,0.810086567479808,3.75483709436416,0.163557776249856,-9.6296778425664
452,1778471763,2.2668036000000003,-0.84675663,0.84114323,3.6615262,0.2724459,-9.739635
453,1778471763,2.3236691,-1.29130695,1.2162593,2.4514022,0.8576548,-9.385334
454,1778471763,2.3135001902182815,-1.4474195356444346,1.18327145799971,2.797553292279073,0.5609829775972455,-9.474315148035634
455,1778471763,2.3033310201091406,-1.6035361178222172,1.150282771499855,3.1437132461395363,0.2643035602986228,-9.563298574017818
456,1778471763,2.2931618499999997,-1.7596527,1.1172940850000002,3.4898732,-0.032375857,-9.652282
457,1778471763,2.2502388369216,-1.7483652194816,0.993955230007552,3.29424610405888,-0.1267533347028223,-9.5774519578368
458,1778471763,2.2073158238432,-1.7370777389632,0.8706163750151041,3.09861900811776,-0.2211308124056447,-9.5026219156736
459,1778471763,2.1643917119216,-1.7257899694816,0.7472743625075521,2.90298690405888,-0.3155107062028223,-9.4277899578368
460,1778471763,2.1214676,-1.7145022,0.62393235,2.7073548,-0.4098906,-9.352958
461,1778471763,2.0681412,-1.5448823,0.66993713,1.6670512,-0.0012217305,-8.974833
462,1778471763,2.0559382,-1.4382293,0.7912336,1.6670512,-0.0012217305,-8.974833
463,1778471763,1.9846117436139352,-1.438244560156262,0.8005749854045622,1.7027642806972654,0.0726020894087397,-8.853132066298391
464,1778471763,1.9132852872278707,-1.438259820312524,0.8099163708091243,1.7384773613945308,0.1464259093174795,-8.73143113259678
465,1778471764,1.8419606567757176,-1.438275080078131,0.8192575170772811,1.7741895278486328,0.2202478393606199,-8.609733314399195
466,1778471764,1.7706360263235643,-1.438290339843738,0.8285986633454379,1.8099016943027344,0.2940697694037603,-8.48803549620161
467,1778471764,1.6993095699375,-1.4383056,0.8379400487499999,1.845614775,0.3678935893125,-8.3663345625
468,1778471764,1.627983113551435,-1.438320860156262,0.8472814341545621,1.8813278556972657,0.4417174092212397,-8.24463362879839
469,1778471764,1.5566584830992822,-1.438336119921869,0.8566225804227189,1.9170400221513673,0.5155393392643801,-8.122935810600804
470,1778471764,1.4853338526471291,-1.438351379687476,0.8659637266908757,1.9527521886054693,0.5893612693075205,-8.001237992403219
471,1778471764,1.4140073962610646,-1.438366639843738,0.8753051120954378,1.9884652693027347,0.6631850892162603,-7.87953705870161
472,1778471764,1.342680939875,-1.4383819,0.8846464975,2.02417835,0.7370089091250001,-7.757836125
473,1778471764,-1.3672087,-3.70967,-0.70190865,4.541172,-0.26145032,-6.0726113
474,1778471764,-1.546587705225791,-3.985531291907021,-1.019828474098884,4.541172,-0.26145032,-6.0726113
475,1778471764,-1.7259713026128956,-4.261399645953511,-1.337756437049442,4.541172,-0.26145032,-6.0726113
476,1778471764,-1.9053549,-4.537268,-1.6556844,4.541172,-0.26145032,-6.0726113
477,1778471764,-2.419369975,-4.6797976,-1.366263008,2.9066494305000004,0.106443265,-3.582724615
478,1778471764,-2.93338505,-4.8223272,-1.076841616,1.272126861,0.47433685,-1.09283793
479,1778471764,-2.9465846459684437,-4.728282997499744,-0.7803705424792214,1.0589330781030055,1.0479442280536404,-0.0681027257048502
480,1778471764,-2.9597842419368874,-4.634238794999488,-0.4838994689584429,0.8457392952060109,1.6215516061072806,0.9566324785902997
481,1778471764,-2.9729835,-4.540197,-0.187435985,0.63255097,2.1951443,1.98134145
482,1778471764,-2.2629110187254664,-4.142878614320579,-0.6426763204654914,1.1276488302216952,2.6423918335443903,3.3348938657430796
483,1778471764,-1.5528203593627332,-3.7455500571602895,-1.0979283102327455,1.6227593651108476,3.089650816772195,4.688480932871539
484,1778471764,-0.8427297,-3.3482215,-1.5531803,2.1178699,3.5369098,6.042068
485,1778471764,0.2215429850000002,-2.6604071,-1.24579021,0.11820245,4.2891904,7.4360625
486,1778471764,1.28581567,-1.9725927,-0.93840012,-1.881465,5.041471,8.830057
487,1778471764,2.164116735,-1.48002415,-0.35327287,-2.3197608,4.92571185,9.0230905
488,1778471764,3.0424178,-0.9874556,0.23185438,-2.7580566,4.8099527,9.216124
489,1778471764,2.4303222,-1.2994828,-0.1385024799999999,-3.4752123,3.9596286,9.836763
490,1778471764,2.6467371798528,-0.858415988227456,0.370167323943168,-3.46650761142144,2.78830941807744,9.564473360352
491,1778471764,2.8631577,-0.417337885,0.87885015,-3.4578027,1.61696025,9.29217675
492,1778471764,2.55375008963328,-0.47676659567776,0.90044947646784,-3.60334323789504,1.67025895721472,8.910380988076799
493,1778471764,2.2443504,-0.536193785,0.92204825,-3.74888005,1.7235563,8.528595
494,1778471764,2.15383683358848,-0.60275954544736,0.95990715289984,-3.99658271686528,1.84137540439616,8.4572774128768
495,1778471764,2.06332095,-0.6693270100000001,0.997767025,-4.244291725,1.959197525,8.385958
496,1778471764,1.97280506641152,-0.73589447455264,1.03562689710016,-4.49200073313472,2.07701964560384,8.3146385871232
497,1778471764,1.8822915,-0.8024602350000001,1.0734858,-4.7397034,2.19483875,8.243321000000002
498,1778471764,1.88692865,-1.030531685,0.9579247,-5.1153855,2.1875083,8.02738
499,1778471764,1.7471233236764856,-1.192546422508064,1.068727645506366,-5.20375820410409,1.7752726156338534,7.574114198848005
500,1778471764,1.6073179973529714,-1.3545611600161278,1.1795305910127318,-5.292130908208178,1.3630369312677066,7.12084839769601
501,1778471764,1.46751625,-1.51657175,1.2903307000000002,-5.38050135,0.9508118,6.6675942
502,1778471764,1.3594007451949006,-1.6078476088720688,1.2925271625132266,-5.322470123745606,0.9240359903130014,6.67472081170427
503,1778471764,1.2512824725974503,-1.6991258044360344,1.2947236812566134,-5.264437411872803,0.8972594951565007,6.681847605852135
504,1778471764,1.1431642,-1.790404,1.2969202,-5.2064047,0.870483,6.6889744
505,1778471764,1.3100992,-1.790404,1.2969202,-4.079358,0.7275405,7.647422
506,1778471764,1.7472057,-1.8253042,0.82393724,-4.079358,0.7275405,7.647422
507,1778471764,1.9420855,-1.84690325,0.8450481900000001,-3.7583484,-0.1976148999999999,8.384736
508,1778471764,2.1369653,-1.8685023,0.86615914,-3.4373388,-1.1227703,9.12205
509,1778471764,2.9616349,-1.6102897,1.363792,-3.4373388,-1.1227703,9.12205
510,1778471764,3.57817658316544,-1.13883815965696,1.52041367021696,-2.52364877038208,-1.12719901831168,9.3071398808192
511,1778471764,4.19473405,-0.66737455,1.6770393499999998,-1.60993535,-1.13162785,9.4922345
512,1778471764,4.51262269392256,-0.01164533177344,1.58942167850816,-1.238677252957184,-0.871243212119296,9.1382342188544
513,1778471764,4.8305032,0.6440671,1.50180625,-0.86742866,-0.61086524,8.784243
514,1778471764,4.96523198685395,0.8131409345387816,1.3413852243622677,-0.7985406814844491,-0.6445178909896948,8.573997172197501
515,1778471764,5.099964222808992,0.9822190974231302,1.180960091893711,-0.7296509394140749,-0.6781714034982824,8.363745962032917
516,1778471764,5.2346964587640334,1.151297260307479,1.020534959425155,-0.6607611973437005,-0.71182491600687,8.153494751868333
517,1778471764,5.369425245617983,1.3203710948462604,0.8601139337874225,-0.5918732188281497,-0.7454775669965649,7.943248924065834
518,1778471764,5.5041540324719325,1.489444929385042,0.6996929081496901,-0.5229852403125989,-0.7791302179862598,7.733003096263335
519,1778471764,5.638886268426974,1.6585230922693908,0.5392677756811338,-0.4540954982422245,-0.8127837304948474,7.52275188609875
520,1778471764,5.773618504382016,1.8276012551537393,0.3788426432125776,-0.3852057561718502,-0.846437243003435,7.312500675934166
521,1778471764,5.908347291235966,1.996675089692521,0.2184216175748451,-0.3163177776562995,-0.8800898939931299,7.102254848131667
522,1778471764,6.043076078089916,2.1657489242313024,0.0580005919371126,-0.2474297991407486,-0.9137425449828248,6.892009020329168
523,1778471764,6.177808314044958,2.3348270871156513,-0.1024245405314436,-0.1785400570703743,-0.9473960574914124,6.6817578101645845
524,1778471764,6.31254055,2.50390525,-0.262849673,-0.109650315,-0.98104957,6.4715066
525,1778471764,7.7962344,3.6338381142857146,3.849515039142857,-1.6886933614285713,1.84263135,1.0121164571428571
526,1778471764,6.1872173,1.29667615,-0.05442477,8.1440555,-0.01740965,-9.40763
527,1778471764,5.4316161,0.5532167575000001,-0.498059835,6.708064,0.1488984175,-10.03957
528,1778471764,4.6760149,-0.190242635,-0.9416949,5.2720725,0.315206485,-10.67151
529,1778471764,4.227522843847868,-0.6978773581282481,-0.470790458436004,4.001178178437028,0.7083967014005393,-10.75387463047949
530,1778471764,3.779030787695734,-1.205512081256496,0.0001139831279919,2.730283856874056,1.1015869178010786,-10.83623926095898
531,1778471764,3.33052725,-1.7131598,0.47103048,1.459357,1.4947872,-10.918606
532,1778471764,3.1745116280256,-2.01134051666432,0.830165286866688,1.459357,1.4947872,-10.918606
533,1778471764,3.0185,-2.3095136,1.1892909,1.459357,1.4947872,-10.918606
534,1778471764,2.98372224516096,-2.36637817212416,1.1795287749568,1.90192323507968,1.21196022023168,-10.8978367658496
535,1778471764,2.9489436,-2.4232442,1.1697664,2.3445008,0.929126,-10.877067
536,1778471764,2.87609169250752,-2.45759583969536,1.07799970040128,2.53875838646528,0.7718262065884159,-10.8917276876544
537,1778471764,2.80324165,-2.4919466,0.98623535,2.733011,0.61453044,-10.906388
538,1778471764,2.647899,-2.4492365,0.78037303,3.0854805,-0.43066,-10.841637
539,1778471764,2.5953657,-2.4076858,0.7125861299999999,2.7656925,-0.37018434,-10.6925855
540,1778471764,2.5428324,-2.3661351,0.64479923,2.4459045,-0.30970868,-10.543534
541,1778471764,2.4491146,-2.212867,0.5544981,2.4459045,-0.30970868,-10.543534
542,1778471764,2.3795582,-2.10084485,0.6117295,1.4184291,0.27122417,-10.056064
543,1778471764,2.037634,-1.9468447,0.8327233,0.012217305,1.840537,-9.050579
544,1778471764,1.9955740655196397,-1.813505807712033,0.8690884706243014,0.012217305,1.840537,-9.050579
545,1778471764,1.9535152077598197,-1.6801703288560164,0.9054527103121508,0.012217305,1.840537,-9.050579
546,1778471764,1.91145635,-1.54683485,0.94181695,0.012217305,1.840537,-9.050579
547,1778471764,1.940072075,-1.4438427,1.00929875,0.2246456874999999,1.875050875,-8.392982825
548,1778471764,1.9686878,-1.34085055,1.07678055,0.43707407,1.90956475,-7.735386650000001
549,1778471764,1.9574001,-1.3179091749999998,1.133279775,0.552680315,1.840536975,-7.720420475
550,1778471764,1.9461124,-1.2949678,1.189779,0.66828656,1.7715092,-7.7054543
551,1778471764,1.523893425,-1.316932925,1.2825818249999998,1.94804928,1.4920384,-7.29892345
552,1778471764,1.10167445,-1.33889805,1.37538465,3.227812,1.2125676,-6.8923926
553,1778471764,0.612949775,-1.52023255,0.83101495,3.227812,1.2125676,-6.8923926
554,1778471764,0.3200238150002816,-1.75391438383424,0.124966342537856,4.159980368092159,1.07023777184512,-6.43150069949184
555,1778471764,0.027090356,-1.9876022,-0.58110034,5.0921726,0.9279043,-5.970597
556,1778471764,-1.031874,-2.75394205,-3.46073175,5.6199603,0.7910705,-5.468466
557,1778471764,-1.46696705,-3.05516965,-3.0475429,3.632815625,0.40851613675,-4.520097525000001
558,1778471764,-1.9020601,-3.3563972499999997,-2.63435405,1.64567095,0.0259617735,-3.57172905
559,1778471764,-2.2337367302710174,-3.5652306820224764,-1.4930105439934125,1.0821429579560191,0.533187877274017,-2.666317235584744
560,1778471764,-2.565413360542035,-3.7740641140449536,-0.3516670379868246,0.5186149659120388,1.040413981048034,-1.7609054211694883
561,1778471764,-2.8970815,-3.9828922,0.78964725,-0.0448986,1.5476271,-0.8555167850000001
562,1778471764,-2.7783491947929604,-3.9353626833856,0.3662743442425599,1.20170864322304,1.57435210791552,-0.148602026124736
563,1778471764,-2.6596138500000004,-3.88783195,-0.0571094,2.4483478,1.6010778,0.55833083
564,1778471764,-2.447931237329653,-3.6283132876048536,-0.975715894016828,3.1399608867122635,1.829443497391349,1.1286850705877784
565,1778471765,-2.236254043664826,-3.368801268802427,-1.8942988720084144,3.831556268356131,2.0578033486956744,1.6990247102938891
566,1778471765,-2.02457685,-3.10928925,-2.81288185,4.52315165,2.2861632,2.26936435
567,1778471765,-1.7452805956851851,-2.9975402473918864,-2.630793607659392,3.89118337469056,2.247469985893817,2.774139279351268
568,1778471765,-1.465984341370371,-2.885791244783773,-2.4487053653187836,3.2592150993811204,2.208776771787634,3.2789142087025356
569,1778471765,-1.1866952369481485,-2.77404510291351,-2.2666217843775134,2.627263002252448,2.1700845482150535,3.7836762159810142
570,1778471765,-0.9074061325259258,-2.6622989610432453,-2.084538203436243,1.9953109051237756,2.131392324642473,4.288438223259493
571,1778471765,-0.6281098782111114,-2.550549958435132,-1.9024499610956351,1.3633426298143358,2.09269911053629,4.793213152610761
572,1778471765,-0.3488136238962969,-2.4388009558270185,-1.7203617187550269,0.7313743545048962,2.054005896430107,5.297988081962028
573,1778471765,-0.0695245194740743,-2.327054813956755,-1.5382781378137569,0.0994222573762236,2.015313672857527,5.802750089240507
574,1778471765,0.2097645849481482,-2.2153086720864907,-1.3561945568724867,-0.5325298397524488,1.976621449284946,6.307512096518986
575,1778471765,0.4890608392629627,-2.103559669478378,-1.1741063145318784,-1.1644981150618885,1.9379282351787632,6.812287025870254
576,1778471765,0.7683570935777772,-1.991810666870264,-0.9920180721912704,-1.7964663903713285,1.8992350210725808,7.317061955221521
577,1778471765,1.047646198,-1.880064525,-0.80993449125,-2.4284184875,1.8605427975,7.8218239625
578,1778471765,2.93112755,-1.1465809500000002,1.7545275,-6.097046,-1.319469,8.446434
579,1778471765,2.7175775,-1.0880072,2.0342171,-5.502674,-1.1038336,7.550905
580,1778471765,2.541121088515791,-1.051642062709601,1.9724695961894236,-5.0572438314224275,-1.1208362735085802,7.341272872324149
581,1778471765,2.3646691942578952,-1.0152778563548004,1.9107236730947117,-4.611825065711214,-1.1378385117542902,7.131646111162074
582,1778471765,2.1882173,-0.97891365,1.84897775,-4.1664063,-1.15484075,6.92201935
583,1778471765,2.0420269500000003,-0.8179578750000001,1.55537685,-3.72811055,-1.2177599,6.7164632
584,1778471765,1.94733156291456,-0.7687186822464,1.41882502715904,-3.68290594638848,-1.18278740235776,6.65507051418368
585,1778471765,1.8526386,-0.71948075,1.2822767,-3.6377025,-1.1478158,6.5936794
586,1778471765,1.2612879,-0.78513213,1.25518635,-4.2568143,-0.419358993,6.28458175
587,1778471765,1.1013083375,-0.8343096925,1.2997878749999998,-4.625624350000001,-0.0423024115,6.232658175
588,1778471765,0.941328775,-0.883487255,1.3443893999999998,-4.9944344,0.33475417,6.1807346
589,1778471765,1.108913336593436,-0.8134434227150196,1.3786791407238004,-5.051447880145409,0.3209079981555121,6.282951861068208
590,1778471765,1.2764978981868722,-0.7433995904300392,1.412968881447601,-5.108461360290817,0.3070618263110243,6.385169122136415
591,1778471765,1.44408675,-0.673353965,1.4472595,-5.1654763,0.2932153,6.487389
592,1778471765,1.7949234906528,-0.3195274360784,1.8625281903712,-5.2085429012454405,-0.08552599782656,6.72898929244416
593,1778471765,2.14575125,0.0342900349999999,2.27778625,-5.2516084,-0.4642576,6.9705834
594,1778471765,2.53748863569728,0.6133694764382719,2.50558024669952,-4.85760539330304,-0.17913989955328,7.14238710088448
595,1778471765,2.92923605,1.1924637424999998,2.733380075,-4.4635923,0.1059851,7.3141952
596,1778471765,3.3209834643027203,1.7715580085617275,2.96117990330048,-4.06957920669696,0.39111009955328,7.48600329911552
597,1778471765,3.71272085,2.35063745,3.1889738999999997,-3.6755762,0.6762278,7.657807
598,1778471765,4.5599656,3.1363797,3.0380247,-3.6755762,0.6762278,7.657807
599,1778471765,5.2574203,3.941280525,2.900742425,-1.896736595,-0.3222314,5.26932375
600,1778471765,5.9548749999999995,4.74618135,2.76346015,-0.11789699,-1.3206906,2.8808405
601,1778471765,5.929655865206038,4.802659768044664,3.0105049751905075,0.5768544947114441,-0.6753170055918319,1.615647552451347
602,1778471765,5.904436730412076,4.859138186089327,3.257549800381015,1.2716059794228882,-0.0299434111836638,0.3504546049026939
603,1778471765,5.87921695,4.91561805,3.50460095,1.96637525,0.615446705,-0.914770732
604,1778471765,6.2747116,4.425978,3.226925,2.2840252,1.4789047,-1.8570304
605,1778471765,5.7454735999999995,3.604359325,2.90513545,2.890309,1.6536122,-2.9138273000000003
606,1778471765,5.216235599999999,2.78274065,2.5833459000000003,3.4965928,1.8283197,-3.9706242
607,1778471765,4.598033291407823,2.1142621790567295,2.0828615959219374,4.44048942114807,1.4234143831855224,-5.2063132610783525
608,1778471765,3.9798309828156464,1.4457837081134586,1.582377291843875,5.38438604229614,1.0185090663710448,-6.442002322156705
609,1778471765,3.3616445,0.7773223499999999,1.0819058,6.3282585000000005,0.6136141150000001,-7.67765975
610,1778471765,3.067533452892788,0.4060904918825874,0.7824526629545118,5.969313426074343,0.5962047604567875,-7.913144369899933
611,1778471765,2.773414876446394,0.0348491301079603,0.4829918598105893,5.610359163037171,0.5787949602283937,-8.1486350182833
612,1778471765,2.4792963,-0.3363922316666667,0.1835310566666666,5.2514049,0.56138516,-8.384125666666668
613,1778471765,1.884366,-0.9554841,0.36559775,4.785518,0.54244834,-8.513018
614,1778471765,1.7380154977472095,-1.073849846532068,0.4725743509093081,4.495158422200225,0.4805483831061201,-8.569827697102093
615,1778471765,1.5916612488736048,-1.192218623266034,0.579553690454654,4.204791411100112,0.41864684155306,-8.626638848551046
616,1778471765,1.445307,-1.3105874,0.68653303,3.9144244,0.3567453,-8.68345
617,1778471765,1.5692881,-1.2381024,0.6062382,3.5063665,-0.023823744,-8.578992
618,1778471765,1.27910405,-1.4017428,0.76121457,3.48376455,-0.076052722,-8.545089
619,1778471765,1.2821584946330826,-1.3842814119670552,0.7830542486766445,3.445964505605114,-0.0549128364359954,-8.457234404977799
620,1778471765,1.285212939266165,-1.3668200239341104,0.8048939273532889,3.408164461210227,-0.0337729508719908,-8.369379809955596
621,1778471765,1.288267305706466,-1.3493590829069777,0.8267330469413156,3.370365384484091,-0.0126336064821296,-8.28152746398224
622,1778471765,1.2913216721467669,-1.3318981418798446,0.8485721665293422,3.3325663077579546,0.0085057379077314,-8.193675118008882
623,1778471765,1.2943761167798495,-1.3144367538468995,0.8704118452059867,3.2947662633630683,0.029645623471736,-8.10582052298668
624,1778471765,1.2974305614129322,-1.296975365813955,0.8922515238826311,3.2569662189681816,0.0507855090357406,-8.017965927964477
625,1778471765,1.300484927853233,-1.2795144247868222,0.9140906434706578,3.219167142242046,0.0719248534256018,-7.93011358199112
626,1778471765,1.303539294293534,-1.2620534837596893,0.9359297630586844,3.1813680655159096,0.0930641978154629,-7.842261236017762
627,1778471765,1.3065937389266165,-1.2445920957267445,0.9577694417353289,3.143568021121023,0.1142040833794675,-7.75440664099556
628,1778471765,1.3096481835596991,-1.2271307076937996,0.9796091204119732,3.1057679767261366,0.1353439689434721,-7.666552045973358
629,1778471765,1.31270255,-1.2096697666666667,1.00144824,3.0679689000000003,0.1564833133333333,-7.5786997
630,1778471765,1.2366381,-1.0086887,0.6718896,3.1471777,0.59315014,-7.0237284
631,1778471765,1.0973424,-0.96109749,0.5905575175,3.1471777,0.59315014,-7.0237284
632,1778471765,0.9580467,-0.91350628,0.5092254350000001,3.1471777,0.59315014,-7.0237284
633,1778471765,0.735222425,-0.9148486,0.7348563699999999,2.5222626,0.22540927,-5.7580156
634,1778471765,0.614048,-0.9637821,0.8598137,2.5222626,0.22540927,-5.7580156
635,1778471765,0.3233326692609312,-1.185387957679114,0.7921278990885585,3.308452775403625,0.1152489649774294,-5.160584301984845
636,1778471765,0.0326173385218622,-1.4069938153582278,0.7244420981771171,4.09464295080725,0.0050886599548588,-4.56315300396969
637,1778471765,-0.25809055,-1.628594,0.65675803,4.880813,-0.105068825,-3.965737
638,1778471765,-0.64809402,-2.0931569,-0.2928687,4.880813,-0.105068825,-3.965737
639,1778471765,-0.9896956949636484,-2.41088154454893,-1.256903059654572,5.074662654162542,-0.2017899820099754,-3.6472699491159504
640,1778471765,-1.3312973699272963,-2.72860618909786,-2.220937419309144,5.268512308325084,-0.2985111390199508,-3.328802898231901
641,1778471765,-1.6728903000000002,-3.0463227,-3.1849470999999996,5.462357,-0.39522982,-3.010344
642,1778471765,-2.09577516200448,-3.34199426535552,-2.311904490088448,1.94809428313856,-0.526564178898688,-2.46851343552
643,1778471765,-2.51867085,-3.6376734,-1.43883953,-1.5662584,-0.6579019,-1.926669
644,1778471765,-2.5992098,-3.9444532,0.03807293,-2.1954496,-0.44959682,-1.2663237
645,1778471765,-2.772368375,-3.94921235,0.483965515,-0.5977315999999998,0.2684752649999999,-0.0045814999999999
646,1778471765,-2.94552695,-3.9539715,0.9298581,0.9999864,0.98654735,1.2571607
647,1778471765,-2.76669395,-3.793259825,0.3946405699999999,1.4202617000000002,1.215010925,1.64780905
648,1778471765,-2.58786095,-3.63254815,-0.14057696,1.840537,1.4434745,2.0384574
649,1778471765,-2.338373475,-3.5112517249999997,-0.40147415,2.0143282,2.1957551,2.9281826
650,1778471765,-2.088886,-3.3899553,-0.66237134,2.1881194,2.9480357,3.8179078
651,1778471765,-1.595524285,-3.0832363,-1.02729797,0.9266826125000002,4.31713735,4.87760625
652,1778471765,-1.10216257,-2.7765173,-1.3922246,-0.334754175,5.6862390000000005,5.9373047
653,1778471765,-0.87860614,-2.561869,-1.5280424,-1.2681563,6.097046,6.943705
654,1778471765,-0.525093720016896,-2.4380114853964803,-1.4589750340736,-2.29134255304832,5.5460525528064,8.0533277966464
655,1778471765,-0.17157225,-2.3141508,-1.3899059,-3.314555,4.995045,9.162979
656,1778471765,2.40225545,-1.4145558,-0.44455025705,-4.80292825,1.048550215,11.0129835
657,1778471765,3.08988675,-0.9441964775,0.286462196475,-4.787503875,0.0478002274999999,9.97894175
658,1778471765,3.77751805,-0.473837155,1.01747465,-4.7720795,-0.95294976,8.9449
659,1778471765,3.5188152257641567,-0.2872537945090367,1.2539681513853806,-4.7720795,-0.95294976,8.9449
660,1778471765,3.2601124015283136,-0.1006704340180735,1.4904616527707617,-4.7720795,-0.95294976,8.9449
661,1778471765,3.0014162,0.08590815,1.7269491,-4.7720795,-0.95294976,8.9449
662,1778471765,2.6150734,0.10372432,1.5810028,-4.7720795,-0.95294976,8.9449
663,1778471765,2.03958645,0.0161077785,1.12058885,-3.4800992,0.8741482,6.5942903
664,1778471765,1.8427102400223576,-0.0257080779814825,0.9750062287550668,-3.448740964826303,0.7892364741917619,6.38292725945028
665,1778471766,1.645839070011179,-0.0675228639907413,0.8294273343775334,-3.417383532413152,0.7043269220958809,6.17156962972514
666,1778471766,1.4489679,-0.10933765,0.68384844,-3.3860261,0.61941737,5.960212
667,1778471766,1.1704986,-0.18523945,0.4510178,-4.120286,-0.6133087,5.295591
668,1778471766,1.1143653,-0.37413976,0.35656762,-5.027421,-0.6291912,5.385388
669,1778471766,1.0552633210100095,-0.4393431585905433,0.5016177538896807,-5.422851058953638,-0.4269965300832685,5.428759129894954
670,1778471766,0.9961613420200192,-0.5045465571810867,0.6466678877793612,-5.818281117907277,-0.2248018601665371,5.472130259789909
671,1778471766,0.93705785,-0.569751625,0.7917217350000001,-6.2137213,-0.022602014,5.5155025
672,1778471766,1.0554741935669394,-0.3831029661420324,0.8760899171131942,-6.115972884550582,-0.0281085979405151,5.5588744537253305
673,1778471766,1.1738875057142857,-0.1964590854285713,0.9604559394285714,-6.018226971428571,-0.0336150409142857,5.602245297142857
674,1778471766,1.292300817861632,-0.0098152047151102,1.0448219617439487,-5.92048105830656,-0.0391214838880563,5.645616140560384
675,1778471766,1.4107171614285714,0.1768334541428572,1.1291901438571428,-5.822732642857143,-0.0446280678285714,5.6889880942857145
676,1778471766,1.5291335049955108,0.3634821130008249,1.2135583259703369,-5.724984227407726,-0.0501346517690865,5.732360048011045
677,1778471766,1.6475468171428571,0.5501259937142859,1.297924348285714,-5.627238314285714,-0.0556410947428571,5.775730891428571
678,1778471766,1.7659601292902034,0.736769874427747,1.3822903706010916,-5.5294924011637026,-0.0611475377166277,5.8191017348460985
679,1778471766,1.8843764728571428,0.9234185332857144,1.4666585527142857,-5.431743985714286,-0.0666541216571428,5.862473688571429
680,1778471766,2.0027928164240825,1.1100671921436822,1.5510267348274795,-5.333995570264869,-0.0721607055976579,5.905845642296759
681,1778471766,2.1212061285714285,1.296711072857143,1.635392757142857,-5.236249657142857,-0.0776671485714285,5.9492164857142855
682,1778471766,4.4057217,3.81193,1.3076587,-2.4825563,-0.8228355,3.1844406
683,1778471766,4.3626451500000005,5.06662875,2.5261145,-2.5137105,-2.324953,0.90469146
684,1778471766,4.390874915115158,5.275626500182614,3.142898426310939,-2.1865865438226084,-1.9401013542826504,0.3523580302967906
685,1778471766,4.41910395755758,5.4846189000913075,3.75966656315547,-1.859470961911304,-1.555259560641325,-0.1999612598516047
686,1778471766,4.447333,5.693611300000001,4.376434700000001,-1.5323553799999998,-1.170417767,-0.75228055
687,1778471766,4.4881516,4.6808959,3.2254606000000003,0.1678352599999999,0.2868012165000001,-1.671174575
688,1778471766,4.5289702,3.6681805,2.0744865,1.8680259,1.7440202,-2.5900686
689,1778471766,4.025403097160948,2.9679861750680536,1.2907440546878066,3.341623858469796,1.177549354946419,-4.329390790927321
690,1778471766,3.521835994321896,2.267791850136107,0.5070016093756132,4.815221816939592,0.6110785098928381,-6.068712981854643
691,1778471766,3.018256,1.5675796,-0.2767609,6.2888575,0.044593163,-7.8080797
692,1778471766,3.09635425,1.64274925,-0.075047605,5.98250875,-0.2037235585,-8.059450850000001
693,1778471766,2.450944925,0.953409595,-0.057292439,5.3956198749999995,-0.49556442925,-8.313112425000002
694,1778471766,1.8055356,0.26406994,-0.039537273,4.808731,-0.7874053,-8.566774
695,1778471766,1.6093135,0.014399378,0.19085276,2.683531,-0.4978552,-8.40856
696,1778471766,1.4533609,-0.2203837,0.5017817,1.2211196,0.39400807,-7.8581705
697,1778471766,1.492166,-0.5767073,1.0535952,0.86498517,0.9285152,-7.4769907
698,1778471766,1.5611109899904427,-0.6919003456801891,1.1733845555688296,0.9677106051301329,0.9175198109903744,-7.480452190923132
699,1778471766,1.6300577449952214,-0.8070963403400945,1.2931769777844149,1.0704386700650663,0.9065241404951871,-7.483913770461567
700,1778471766,1.6990045,-0.922292335,1.4129694000000002,1.173166735,0.8955284699999999,-7.487375350000001
701,1778471766,1.59320575,-1.1857521,1.2435937,2.84388315,-0.189062805,-8.0402085
702,1778471766,1.5550114185249344,-1.1755832568838107,1.0944365839806975,2.924414225585384,-0.4823749307423114,-8.033081788297437
703,1778471766,1.516816109262467,-1.1654141534419054,0.9452756494903488,3.004947362792692,-0.7756945653711557,-8.025954894148718
704,1778471766,1.4786207999999998,-1.15524505,0.7961147150000001,3.0854805,-1.0690142,-8.018828
705,1778471766,1.5114466,-1.0982577,0.6740861,3.0854805,-1.0690142,-8.018828
706,1778471766,1.5827112,-0.891541135,0.451627935,2.6682594,-0.9388999,-7.842899
707,1778471766,1.6513523,-0.8142970275,0.465722225,1.3687963049999998,0.5122105499999999,-7.382153825
708,1778471766,1.7199934,-0.73705292,0.479816515,0.0693332099999999,1.963321,-6.92140865
709,1778471766,1.6833851290612438,-0.7393307605621784,0.6199855422089907,0.0320707463104269,2.1705043153464123,-6.845153017389728
710,1778471766,1.646776858122488,-0.7416086011243568,0.7601545694179815,-0.0051917173791461,2.377687630692824,-6.768897384779455
711,1778471766,1.61016765,-0.7438865,0.900327185,-0.042455135,2.58487625,-6.6926398
712,1778471766,1.577646608736,-0.74669318592512,0.951213743839616,0.384086972169088,2.40421061250944,-6.60711750532864
713,1778471766,1.5451264,-0.7494998,1.002099,0.81061816,2.2235496,-6.5215974
714,1778471766,1.4449409,-0.77183107,0.81185645,1.55617918,1.6969837,-6.464786999999999
715,1778471766,1.1532315,-0.9402915425,0.51026269425,2.34999854,1.1059715475,-6.374226149999999
716,1778471766,0.8615221,-1.108752015,0.2086689385,3.1438179,0.514959395,-6.2836653
717,1778471766,0.7569989930059065,-1.184520760409017,0.1400184502388867,3.173953580729644,0.453585104006427,-6.172098830505857
718,1778471766,0.6524758860118129,-1.2602895058180348,0.0713679619777734,3.2040892614592877,0.392210813012854,-6.060532361011713
719,1778471766,0.5479501031919298,-1.336060190931763,0.002715716241665,3.2342257136722328,0.3308349508173203,-5.948963035379393
720,1778471766,0.4434243203720467,-1.4118308760454912,-0.0659365294944433,3.2643621658851782,0.2694590886217864,-5.837393709747071
721,1778471766,0.3389012133779532,-1.4875996214545086,-0.1345870177555566,3.294497846614822,0.2080847976282135,-5.725827240252928
722,1778471766,0.2343781063838597,-1.563368366863526,-0.2032375060166699,3.324633527344466,0.1467105066346405,-5.6142607707587855
723,1778471766,0.1298523235639765,-1.6391390519772544,-0.2718897517527783,3.354769979557411,0.0853346444391067,-5.502691445126464
724,1778471766,0.0253265407440934,-1.7149097370909825,-0.3405419974888867,3.3849064317703563,0.023958782243573,-5.391122119494144
725,1778471766,-0.07919656625,-1.7906784825,-0.40919248575,3.4150421125,-0.0374155087499999,-5.279555650000001
726,1778471766,-0.1837196732440935,-1.8664472279090176,-0.4778429740111132,3.445177793229644,-0.0987897997435729,-5.167989180505857
727,1778471766,-0.2882454560639766,-1.9422179130227455,-0.5464952197472217,3.4753142454425894,-0.1601656619391067,-5.056419854873536
728,1778471766,-0.3927712388838598,-2.0179885981364736,-0.6151474654833301,3.5054506976555344,-0.2215415241346404,-4.944850529241215
729,1778471766,-0.4972943458779533,-2.0937573435454913,-0.6837979537444434,3.535586378385178,-0.2829158151282134,-4.833284059747072
730,1778471766,-0.6018174528720468,-2.169526088954509,-0.7524484420055566,3.565722059114822,-0.3442901061217864,-4.721717590252929
731,1778471766,-0.7063432356919299,-2.245296774068237,-0.8211006877416651,3.5958585113277675,-0.4056659683173202,-4.610148264620608
732,1778471766,-0.810869018511813,-2.321067459181965,-0.8897529334777735,3.625994963540713,-0.467041830512854,-4.498578938988287
733,1778471766,-0.9153921255059064,-2.3968362045909823,-0.9584034217388868,3.656130644270356,-0.5284161215064269,-4.3870124694941435
734,1778471766,-1.0199152325,-2.47260495,-1.02705391,3.686266325,-0.5897904125,-4.2754460000000005
735,1778471766,-2.18709459,-3.65973607,-0.423829837,0.3577226994,0.87011645,0.489975004
736,1778471766,-0.17816177,-2.5316058,-0.909113215,-2.0916026,5.883854,8.891144
737,1778471766,0.8021551899999999,-2.21128065,-0.7803119949999999,-2.85396245,5.5219165,9.8404285
738,1778471766,1.7824721499999998,-1.8909555,-0.651510775,-3.6163223,5.159979,10.789713
739,1778471766,2.4296361890624465,-1.4836611744662422,-0.2428334426647352,-4.230247022090572,3.731865587754868,10.90384397390518
740,1778471766,3.076800228124893,-1.0763668489324845,0.1658438896705294,-4.844171744181145,2.3037521755097368,11.017974947810355
741,1778471766,3.7239477,-0.66908295,0.57451076,-5.458080750000001,0.8756753225,11.132103
742,1778471766,3.38599362586752,-0.527104457347968,0.913379892419584,-5.407074377889921,-0.008388072593696,10.052259322176
743,1778471766,3.0480309,-0.38512233,1.2522577,-5.3560667,-0.8924741,8.972388
744,1778471766,2.765285757878007,-0.4277110401713501,1.203933563611962,-5.151830481079813,-0.7986028729515646,8.522478388307578
745,1778471766,2.482547853939004,-0.470298660085675,1.155610664305981,-4.947599490539906,-0.7047340489757823,8.072580294153788
746,1778471766,2.19980995,-0.51288628,1.107287765,-4.7433685,-0.610865225,7.6226822
747,1778471766,2.12369361322336,-0.5445226149399041,0.988430364894752,-4.6726599699424,-0.648128488213664,7.35137817735296
748,1778471766,2.04757727644672,-0.5761589498798081,0.869572964789504,-4.601951439884799,-0.685391751427328,7.08007415470592
749,1778471766,1.97146288822336,-0.607794474939904,0.750718607394752,-4.5312447199424,-0.722654060713664,6.808777077352961
750,1778471766,1.8953485,-0.63943,0.63186425,-4.460538,-0.75991637,6.53748
751,1778471766,1.6569047,-0.9368138,0.51910975,-5.353317499999999,-1.014036335,6.406144
752,1778471766,1.60443167835392,-1.00106267237504,0.69556540860352,-5.799712963788799,-1.141097943867776,6.3404751594496
753,1778471766,1.55196,-1.0653099,0.87201655,-6.246097,-1.2681563,6.274808
754,1778471766,1.5146197279616,-1.08605448446592,1.1294936292512,-6.407974277944319,-1.23669715268224,6.3148189878528
755,1778471766,1.4772785,-1.1067996,1.3869773,-6.5698557,-1.2052372,6.354831
756,1778471766,1.4969251,-0.9477963,1.84763535,-6.6260552,-0.6401868,6.7928214
757,1778471766,1.6047374,-0.8149681750000001,1.927381075,-6.4055328,-0.6853908,6.8685687
758,1778471766,1.7125497,-0.68214005,2.0071268,-6.1850104,-0.7305948,6.944316
759,1778471766,2.1574662,-0.17059602,2.2577736,-5.7598486,-0.93523467,7.043887
760,1778471766,2.31024785558016,0.241011783512448,2.54698515186048,-5.19295824389632,-1.134684737928192,7.005402007398399
761,1778471766,2.4630256,0.65260905,2.8361893,-4.6260824,-1.3341297,6.966918
762,1778471766,2.8000689,2.0156689,3.407283,-4.6260824,-1.3341297,6.966918
763,1778471766,3.5185124,2.887929625,3.2289993,-2.79669376075,-0.6511823525,6.342919225
764,1778471766,4.2369559,3.76019035,3.0507156,-0.9673051215,0.031764995,5.718920450000001
765,1778471767,4.7627162,4.527750175,2.8236203250000003,-0.1168279964999998,-0.2405281775,4.670217500000001
766,1778471767,5.2884765,5.295310000000001,2.5965250500000003,0.7336491285000001,-0.5128213500000001,3.62151455
767,1778471767,5.419535,5.513985,2.791771,1.4013249,-1.5253305,0.98899084
768,1778471767,6.0723886,5.2613864,3.5402944,0.65301496,-0.1563815,-1.4355333
769,1778471767,6.146255936323995,4.980315998498127,3.622052902318517,0.65301496,-0.1563815,-1.4355333
770,1778471767,6.22012327264799,4.699245596996254,3.703811404637033,0.65301496,-0.1563815,-1.4355333
771,1778471767,6.2939925,4.418168,3.785572,0.65301496,-0.1563815,-1.4355333
772,1778471767,5.588667,3.116123,3.1019676,3.1905491,3.1722233,-5.8679714
773,1778471767,4.9384375,2.248560475,2.319153975,3.1905491,3.1722233,-5.8679714
774,1778471767,4.288208,1.38099795,1.53634035,3.1905491,3.1722233,-5.8679714
775,1778471767,3.758908725,0.7692074250000001,1.094657755,4.07370755,2.7302622750000003,-6.966154525
776,1778471767,3.22960945,0.1574168999999999,0.65297516,4.956866,2.28830125,-8.06433765
777,1778471767,3.0925744933102965,0.0159731113669717,0.6247995538398216,4.892706054390222,2.1331670795064412,-8.150417056777458
778,1778471767,2.955539536620593,-0.1254706772660564,0.5966239476796432,4.828546108780444,1.9780329090128828,-8.236496463554918
779,1778471767,2.8185010717910943,-0.2669180869064225,0.5684476202147144,4.764384520655035,1.8228947670337248,-8.322578073993396
780,1778471767,2.681462606961595,-0.4083654965467886,0.5402712927497856,4.700222932529625,1.6677566250545663,-8.408659684431875
781,1778471767,2.544427650271892,-0.5498092851798169,0.5120956865896072,4.636062986919848,1.5126224545610076,-8.494739091209333
782,1778471767,2.4073926935821888,-0.6912530738128451,0.4839200804294288,4.57190304131007,1.3574882840674491,-8.58081849798679
783,1778471767,2.27035422875269,-0.8327004834532112,0.4557437529645,4.507741453184661,1.202350142088291,-8.666900108425269
784,1778471767,2.133315763923191,-0.9741478930935772,0.4275674254995712,4.443579865059251,1.0472120001091327,-8.752981718863747
785,1778471767,1.996280807233488,-1.1155916817266056,0.3993918193393928,4.379419919449473,0.892077829615574,-8.839061125641207
786,1778471767,1.8592458505437843,-1.2570354703596338,0.3712162131792144,4.315259973839695,0.7369436591220154,-8.925140532418665
787,1778471767,1.7222073857142857,-1.39848288,0.3430398857142857,4.251098385714286,0.5818055171428572,-9.011222142857145
788,1778471767,1.240543,-1.428711,0.6135599,2.4061983,-0.9419542,-8.435438
789,1778471767,1.3207768,-1.3248036749999998,0.73985954,1.8719966,-0.573297025,-8.0438735
790,1778471767,1.4010106,-1.22089635,0.8661591799999999,1.3377949,-0.20463985,-7.652309
791,1778471767,1.40515965,-1.1054573,0.97940172,1.3377949,-0.20463985,-7.652309
792,1778471767,1.36540830368928,-1.073698952248352,0.966374998260096,1.23638996453344,0.27077212269536,-7.40261465395328
793,1778471767,1.325657975,-1.0419414175,0.95334861,1.134987625,0.746171925,-7.1529267
794,1778471767,1.28590764631072,-1.0101838827516478,0.940322221739904,1.03358528546656,1.22157172730464,-6.90323874604672
795,1778471767,1.2461563,-0.978425535,0.9272955,0.93218035,1.6969837,-6.6535444
796,1778471767,1.2094257000000002,-0.861522075,0.774759735,0.93218035,1.6969837,-6.6535444
797,1778471767,1.0383836929104764,-0.9303456626978676,0.7045938754229991,1.1675650913578297,1.597209884747455,-6.440965080700078
798,1778471767,0.8673416858209528,-0.999169250395735,0.6344280158459983,1.4029498327156595,1.4974360694949098,-6.228385761400156
799,1778471767,0.6962953,-1.0679946,0.56426036,1.6383406,1.3976597,-6.015801
800,1778471767,0.2331907607877721,-1.32944422151232,0.310315542047936,2.56732581585856,0.9590528151537344,-5.58986972314944
801,1778471767,-0.2299019231,-1.59088715,0.056377225,3.49628725,0.5204571585,-5.16394935
802,1778471767,-0.4375911041259395,-1.7267840139971669,-0.176937518044083,3.910955922897396,0.1712518321805218,-4.770049755972455
803,1778471767,-0.6452856020629698,-1.8626843569985836,-0.4102582340220415,4.325635211448698,-0.1779624339097391,-4.376140077986228
804,1778471767,-0.8529801,-1.9985847,-0.64357895,4.7403145,-0.5271767,-3.9822304
805,1778471767,-1.0304097,-2.2902331,-1.7101091,3.9162571,-0.97005403,-2.430022
806,1778471767,-1.043954865,-2.719774,-2.0100555,1.28312245,0.426383935,-2.04487145
807,1778471767,-1.3810414531020667,-2.969690799262723,-1.594097037199884,0.4054034102267297,0.8918672287399309,-1.9164868377986657
808,1778471767,-1.7181280412041335,-3.2196075985254464,-1.178138574399768,-0.4723156295465406,1.3573505224798617,-1.788102225597331
809,1778471767,-2.055206,-3.469518,-0.76219076,-1.3500122,1.8228219,-1.6597209
810,1778471767,-1.9700302,-3.453654,-0.031483386,-2.561358,1.9761491,-1.065349
811,1778471767,-1.934886,-3.4802563,0.48713827,-1.6035212,1.4202617,-0.26328292
812,1778471767,-2.1542933,-3.1522434,0.8171036,0.68966687,1.2705997,0.82894415
813,1778471767,-1.5016843,-2.5032952,0.39927766,0.68966687,1.2705997,0.82894415
814,1778471767,-1.32340273203328,-2.37370240880896,0.2289278795051008,1.295637428477568,2.19635415019136,1.5237944308025602
815,1778471767,-1.1451166,-2.2441063,0.058573738,1.9016235,3.1221323,2.2186625
816,1778471767,-0.9182654,-1.7518429,-0.76963455,0.6407976499999999,5.19449265,3.2394184
817,1778471767,-0.9795848,-1.67057185,-0.853773275,-0.725402475,6.292064825,4.5796567
818,1778471767,-1.0409042,-1.5893008,-0.937912,-2.0916026,7.389637,5.919895
819,1778471767,-0.9169231,-1.6271297,-0.9681751,-2.0916026,7.389637,5.919895
820,1778471767,-0.792942,-1.6649586,-0.9984382,-2.0916026,7.389637,5.919895
821,1778471767,0.507395,-1.6957097,-0.65382934,-3.6780195,5.6737165,8.424442
822,1778471767,0.9560885191494402,-1.6782293487513602,-0.385918935547072,-4.01903076,3.94819693693312,9.0832518171264
823,1778471767,1.404793525,-1.66074855,-0.1180016725,-4.36005075,2.2226332,9.742078500000002
824,1778471767,1.8534985308505605,-1.64326775124864,0.1499155905470719,-4.70107074,0.4970694630668799,10.4009051828736
825,1778471767,2.3021920500000004,-1.6257874,0.417825995,-5.042082,-1.2284501,11.059715
826,1778471767,2.8701060056083203,-1.32419746040064,0.794157480395328,-4.9583945712128,-1.49081329170816,11.1183572493696
827,1778471767,3.4380345,-1.0225998,1.1704986,-4.874705,-1.7531832,11.177001
828,1778471767,3.5202818,-0.7412019,1.3511009,-4.874705,-1.7531832,11.177001
829,1778471767,3.3884998132807262,-0.7539888700931504,1.29130264180278,-4.883892512281316,-1.48559648852361,10.877248625446017
830,1778471767,3.256717826561453,-0.766775840186301,1.23150438360556,-4.893080024562633,-1.2180097770472202,10.577496250892032
831,1778471767,3.124932466180137,-0.7795631376300759,1.171704594553335,-4.902267772047275,-0.9504162152633324,10.277736202579035
832,1778471767,2.9931471057988204,-0.7923504350738508,1.1119048055011105,-4.911455519531917,-0.6828226534794448,9.977976154266038
833,1778471767,2.8613651190795473,-0.8051374051670014,1.0521065473038902,-4.920643031813235,-0.4152359420030549,9.678223779712054
834,1778471767,2.7295831323602737,-0.8179243752601518,0.99230828910667,-4.929830544094552,-0.1476492305266649,9.37847140515807
835,1778471767,2.5977977719789576,-0.8307116727039269,0.9325085000544452,-4.939018291579194,0.1199443312572227,9.078711356845073
836,1778471767,2.4660124115976414,-0.8434989701477018,0.8727087110022205,-4.948206039063836,0.3875378930411104,8.778951308532076
837,1778471767,2.334230424878368,-0.8562859402408523,0.8129104528050004,-4.957393551345152,0.6551246045175003,8.479198933978092
838,1778471767,2.2024484381590943,-0.8690729103340028,0.7531121946077803,-4.966581063626469,0.9227113159938902,8.179446559424107
839,1778471767,2.070663077777778,-0.8818602077777777,0.6933124055555555,-4.975768811111111,1.1903048777777778,7.879686511111111
840,1778471767,1.5168158,-1.4184607,1.5607461,-7.4061303,-0.46181414,7.825184
841,1778471767,2.0415389,-1.34658585,1.8052915,-7.09184,-1.07787172,8.370076
842,1778471767,2.566262,-1.274711,2.0498369,-6.7775497,-1.6939293,8.914968
843,1778471767,2.92185335,-1.013447715,2.301276825,-6.4536384,-1.661553475,8.954368749999999
844,1778471767,3.2774447,-0.75218443,2.55271675,-6.1297271,-1.62917765,8.993769499999999
845,1778471767,4.8035345,1.4911898,3.7374928,-3.9858956,1.0732902,8.512407
846,1778471767,6.66142065,3.72175105,2.4016453,-3.41687465,2.4077254,7.9782055
847,1778471767,7.040136475,4.100955025,2.26613255,-2.803107825,2.2426391,6.0871195
848,1778471767,7.4188523,4.480159,2.1306198,-2.189341,2.0775528,4.1960335
849,1778471767,6.914751750000001,5.12300565,3.0530342499999996,-0.9071349,-0.8454375,0.5412266
850,1778471767,6.35995582647872,4.73544778580416,2.9619409410092796,-0.447159252763648,-1.2647911322048,-0.3585663825023999
851,1778471767,5.8051457,4.34788,2.8708453,0.01282817,-1.6841555,-1.2583824
852,1778471767,6.1243725,5.0087867,3.269147,0.50946164,-1.464244,-2.116648
853,1778471767,5.69873665,3.92663725,2.6941478,0.8368853700000001,0.4419609999999999,-3.33074275
854,1778471767,5.3399725,2.932836,2.4886518,1.7562376,2.556471,-5.4116554
855,1778471767,4.997804275,2.217443175,2.4248918,1.7562376,2.556471,-5.4116554
856,1778471767,4.65563605,1.5020503500000002,2.3611318,1.7562376,2.556471,-5.4116554
857,1778471767,4.575829375,1.3442063250000005,2.3337364,3.0399709,1.9932533,-6.5429777
858,1778471767,4.4960227,1.1863623,2.306341,4.3237042,1.4300356,-7.6743
859,1778471767,3.2325382,-0.85834935,1.5540345,6.6333857,0.12889257,-9.859365
860,1778471767,2.7658947770406397,-1.27319093490432,1.17470368212768,6.94370932209152,-0.3045218776339199,-10.2240561679872
861,1778471767,2.2992633,-1.6880219,0.7953825750000001,7.254025,-0.73792523,-10.588738
862,1778471767,2.08945901403898,-1.7017295660528382,0.6059160302704202,7.10456915074581,-1.0325608914870124,-10.611950603833156
863,1778471767,1.87964935701949,-1.7154375830264192,0.4164446351352101,6.955109475372906,-1.327204095743506,-10.635163801916578
864,1778471767,1.6698397,-1.7291456,0.22697324,6.8056498,-1.6218473,-10.658377
865,1778471768,1.7084008,-1.7943089,0.28579104,4.6725082,-1.7825048,-9.95466
866,1778471768,1.6107779,-1.6410409,0.20183535,3.8960986,-1.5711454,-9.688933
867,1778471768,1.5663594,-1.4919219,0.28042176,3.8960986,-1.5711454,-9.688933
868,1778471768,1.7140139,-1.3005811,0.5108118,2.1135938,-0.86498517,-9.021869
869,1778471768,1.8215608822540044,-1.2411943734398867,0.6888907137071518,1.6479148071782703,-0.6161615216556444,-8.799923227294837
870,1778471768,1.9291078645080084,-1.1818076468797734,0.8669696274143037,1.1822358143565412,-0.3673378733112888,-8.577977454589673
871,1778471768,2.0366576,-1.1224194,1.0450531,0.7165449,-0.118507855,-8.356026
872,1778471768,2.09913712472768,-1.10612834147712,1.142616223792,0.244340040855168,0.7000620500606719,-8.0762459188608
873,1778471768,2.16161505,-1.0898377,1.24017685,-0.22785273,1.518611,-7.796473
874,1778471768,1.95721715,-1.180993,1.48399005,0.36713,1.7568485,-7.8502293
875,1778471768,1.869661525,-1.1825793999999998,1.4917389250000002,0.36713,1.7568485,-7.8502293
876,1778471768,1.7821059,-1.1841658,1.4994878,0.36713,1.7568485,-7.8502293
877,1778471768,1.67130395,-1.1762339,1.43761925,0.8848383,1.70248145,-7.792502399999999
878,1778471768,1.560502,-1.168302,1.3757507,1.4025466,1.6481144,-7.7347755
879,1778471768,1.3884417,-1.0657979,0.92448884,2.3530529,1.2388347,-7.496538
880,1778471768,1.2261436,-1.0753163,0.6465077,3.254079,0.6389651,-7.24364
881,1778471768,1.053107,-1.0814177,0.41099238,3.4220672,0.02321288,-6.8288627
882,1778471768,0.67091334,-1.2339534,0.3990336,3.4220672,0.02321288,-6.8288627
883,1778471768,0.5374157150018176,-1.428652066188823,0.2849844819019791,3.468355982741068,0.1504192340763927,-6.452214598172805
884,1778471768,0.4039180900036352,-1.6233507323776453,0.1709353638039582,3.514644765482136,0.2776255881527855,-6.075566496345609
885,1778471768,0.2704238825009088,-1.8180444143444112,0.0568891653259895,3.560932363245534,0.4048286857881964,-5.698928036586403
886,1778471768,0.1369296749981824,-2.0127380963111774,-0.0571570331519791,3.607219961008932,0.5320317834236072,-5.322289576827195
887,1778471768,0.00343205,-2.2074367625,-0.1712061512499999,3.65350874375,0.6592381375,-4.945641475
888,1778471768,-0.1300655749981824,-2.4021354286888226,-0.2852552693480208,3.699797526491068,0.7864444915763928,-4.5689933731728045
889,1778471768,-0.2635597825009088,-2.5968291106555887,-0.3993014678259895,3.7460851242544657,0.9136475892118036,-4.192354913413598
890,1778471768,-0.3970539900036351,-2.791522792622355,-0.5133476663039582,3.792372722017863,1.0408506868472145,-3.8157164536543906
891,1778471768,-0.5305516150018176,-2.9862214588111775,-0.6273967844019791,3.838661504758931,1.1680570409236073,-3.439068351827195
892,1778471768,-0.66404924,-3.180920125,-0.7414459025,3.8849502875,1.295263395,-3.0624202499999997
893,1778471768,-2.5804172,-4.5582576,-0.3743838,0.4569272,2.221106,-2.1697934
894,1778471768,-2.937595,-4.06074655,0.0093962024999999,1.4202617,3.209486,0.5314528
895,1778471768,-2.51018975,-3.84457285,-0.4022063487499999,1.7220291499999998,3.7238345,1.3555099
896,1778471768,-2.0827845,-3.62839915,-0.8138089,2.0237966,4.238183,2.179567
897,1778471768,-2.04458955,-3.583126575,-0.9612805,2.0237966,4.238183,2.179567
898,1778471768,-2.0063946,-3.537854,-1.1087521,2.0237966,4.238183,2.179567
899,1778471768,-1.6415290675,-3.345170775,-1.1689121999999998,0.8075638749999998,5.849493,4.473366
900,1778471768,-1.276663535,-3.15248755,-1.2290723,-0.40866885,7.460803,6.767165
901,1778471768,1.7076685,-2.443257,-0.38268176,-1.5888605,8.285166,9.359066
902,1778471768,-0.14350566,-2.9360087,-1.1707426,-3.9632938,8.301048,10.644327
903,1778471768,2.6792605,-2.051057,0.19256116,-6.58696,4.756197,12.44027
904,1778471768,3.95506985,-1.22773,1.5958904,-6.2479296,1.7183639,11.046276
905,1778471768,3.6461773025834776,-1.172898934564414,1.74301494452115,-5.651017610380844,1.3991895569892565,10.36699962989922
906,1778471768,3.3372847551669556,-1.1180678691288282,1.8901394890423,-5.054105620761688,1.0800152139785129,9.687723259798442
907,1778471768,3.0283843,-1.0632354,2.0372678,-4.4571783499999995,0.7608326999999999,9.0084295
908,1778471768,2.3829749,-1.172695,1.692537,-4.695721,2.2547035,9.416488
909,1778471768,2.3551524,-1.2217506,1.7237762,-4.695721,2.2547035,9.416488
910,1778471768,2.304104621226576,-1.2289094778202547,1.7685193030412671,-5.294358783117725,2.637709496613988,9.257869040464891
911,1778471768,2.253055535613288,-1.2360685389101274,1.8132635515206337,-5.893011891558863,3.020725298306994,9.099246020232448
912,1778471768,2.20200645,-1.2432276,1.8580078,-6.491665,3.4037411,8.940623
913,1778471768,2.1025531,-1.2800802,1.9387908,-6.491665,3.4037411,8.940623
914,1778471768,1.5151074,-1.5419537,2.2746134,-6.491665,3.4037411,8.940623
915,1778471768,1.7184072,-1.4523847,2.1862648,-6.9021664,3.3310483,8.345641
916,1778471768,1.2245573,-1.8077321,2.5422224,-6.86795785,3.20032315,8.24271
917,1778471768,1.2328144962043572,-1.931468077439477,2.7173320057122377,-6.6836818058423715,3.047811734780735,8.269689436439196
918,1778471768,1.2410716924087142,-2.055204054878954,2.892441611424476,-6.499405761684743,2.89530031956147,8.29666887287839
919,1778471768,1.2493291,-2.1789432,3.0675557,-6.315125,2.742785,8.323649
920,1778471768,1.5785623,-2.16552,2.9345443,-4.261396,2.5705209,8.969335
921,1778471768,2.56272315,-2.0143265,2.0953535,-3.4492506,2.7382034500000003,9.228342
922,1778471768,3.389452990296788,-1.6417794748839472,1.7218302582115916,-3.1243776112366453,2.783712123308701,9.31019626966925
923,1778471768,4.216203995148394,-1.2692229124419734,1.3482974541057955,-2.799496305618322,2.8292219616543504,9.392052634834624
924,1778471768,5.042955,-0.89666635,0.97476465,-2.474615,2.8747318,9.473909
925,1778471768,4.275639,-1.453605,0.8920292,-2.474615,2.8747318,9.473909
926,1778471768,6.5160844,0.954751875,1.3520772,-1.50181218,0.8707884350000001,8.0689194
927,1778471768,6.886140936663041,1.45187235681072,0.779938655470368,-1.10459197689648,0.4373739998662401,7.380847155288
928,1778471768,7.25619747332608,1.94899283862144,0.207800110940736,-0.7073717737929599,0.00395956473248,6.692774910576
929,1778471768,7.62624453666304,2.44610059431072,-0.364323787029632,-0.3101617393964799,-0.42944377513376,6.004720280288001
930,1778471768,7.9962916,2.94320835,-0.936447685,0.0870482949999999,-0.8628471150000001,5.31666565
931,1778471768,7.982258300000001,2.5098236750000003,-0.6045298175,-1.0093021525,-0.9112582075,2.789974285
932,1778471768,7.968225,2.076439,-0.27261195,-2.1056526,-0.9596693,0.26328292
933,1778471768,7.512875325,2.17631945,1.0781839,-3.8359283,-0.1096503199999999,-0.44990224
934,1778471768,7.0575256500000005,2.2761999,2.42897975,-5.566204,0.74036866,-1.1630874
935,1778471768,6.880517801034256,2.1724762551691863,2.294455762063424,-4.774566907054214,0.6692981291042217,-1.714023675800967
936,1778471768,6.7035099520685115,2.0687526103383727,2.159931774126848,-3.982929814108428,0.5982275982084435,-2.2649599516019343
937,1778471768,6.526506634445699,1.9650316207988787,2.0254112299602833,-3.191312986812821,0.527158886694968,-2.8158821236147693
938,1778471768,6.349503316822887,1.861310631259385,1.8908906857937189,-2.3996961595172146,0.4560901751814926,-3.3668042956276043
939,1778471768,6.172495467857143,1.7575869864285714,1.7563666978571428,-1.6080590665714285,0.3850196442857143,-3.917740571428572
940,1778471768,5.995487618891398,1.6538633415977575,1.621842709920567,-0.8164219736256425,0.313949113389936,-4.468676847229538
941,1778471768,5.818484301268586,1.550142352058264,1.487322165754002,-0.0248051463300356,0.2428804018764606,-5.019599019242374
942,1778471768,5.641480983645774,1.44642136251877,1.3528016215874372,0.7668116809655712,0.1718116903629851,-5.570521191255209
943,1778471768,5.46447313468003,1.3426977176879564,1.2182776336508616,1.558448773911357,0.1007411594672069,-6.121457467056176
944,1778471768,5.287465285714285,1.2389740728571428,1.0837536457142858,2.3500858668571425,0.0296706285714286,-6.672393742857143
945,1778471768,3.417370933333333,-1.2488409666666669,0.6766080420000001,-0.2083050533333333,0.3314961999999999,-10.130792666666666
946,1778471768,3.0709722,-1.9024262,1.9434278,0.8533788,-0.03848451,-10.31507
947,1778471768,3.0274483286010514,-2.070989855058112,1.8993344570749569,0.8533788,-0.03848451,-10.31507
948,1778471768,2.9839244572021024,-2.239553510116224,1.855241114149913,0.8533788,-0.03848451,-10.31507
949,1778471768,2.9404017,-2.40811285,1.8111489,0.8533788,-0.03848451,-10.31507
950,1778471768,2.7521139101145597,-2.4832815378284803,1.58393445838208,1.95857255333888,-0.625976660004224,-10.5743791808
951,1778471768,2.5638213,-2.55845215,1.3567142,3.0637946,-1.21348385,-10.833695
952,1778471768,2.6341097,-2.429834,0.9947773,3.5228598,-1.5900823,-10.961366
953,1778471768,2.7707208249999997,-2.3280621000000004,0.97537476,2.19544965,-0.8607091649999999,-10.663569
954,1778471768,2.9073319499999997,-2.2262902,0.95597222,0.8680395,-0.13133603,-10.365772
955,1778471768,2.809342975,-2.2049962,1.303509735,0.8680395,-0.13133603,-10.365772
956,1778471768,2.711354,-2.1837022,1.65104725,0.8680395,-0.13133603,-10.365772
957,1778471768,2.6491804,-2.1711943,1.753673375,0.6239988399999999,0.832914735,-10.158994
958,1778471768,2.5870068,-2.1586864,1.8562995,0.37995818,1.7971655,-9.952216
959,1778471768,2.5677872,-2.077964425,1.7414705,0.8480336900000001,1.889558875,-9.756892
960,1778471768,2.5485676,-1.99724245,1.6266415,1.3161092,1.98195225,-9.561568
961,1778471768,2.5125692,-1.9588034,1.4858205,1.8967366,1.5137241,-9.417709
962,1778471768,1.9461124,-1.9431838,1.343047,1.8967366,1.5137241,-9.417709
963,1778471768,1.7118968347194252,-1.8890026209931905,1.276988286306192,2.185576481402106,1.0569966143086749,-9.169797467848673
964,1778471768,1.4776812694388506,-1.8348214419863809,1.2109295726123837,2.474416362804212,0.6002691286173499,-8.921885935697341
965,1778471769,1.2434717000000002,-1.7806416500000002,1.14487255,2.76324885,0.143553335,-8.67398075
966,1778471769,0.964639854093312,-1.87734813714112,0.8462113179127041,3.18642035833536,0.267251959137344,-7.72302869734208
967,1778471769,0.68580087,-1.9740571,0.54754244,3.6096027,0.39095375,-6.7720523
968,1778471769,-0.076338670261248,-2.78220199412224,-0.668671447338496,4.07844785114112,0.1058287429466239,-6.410262669152
969,1778471769,-0.8384587000000001,-3.5903262,-1.8848542,4.547281,-0.179288965,-6.0484823
970,1778471769,-1.833096957956446,-4.350795721154043,-1.8121263745707752,3.907105159140867,-1.6169357738470662,-5.5749679480817145
971,1778471769,-2.827760678978223,-5.111284710577022,-1.7393966872853874,3.2669129295704336,-3.054619386923533,-5.101441474040858
972,1778471769,-3.8224244,-5.8717737,-1.666667,2.6267207,-4.492303,-4.627915
973,1778471769,-3.7742542665856,-5.8517001569446405,-1.1215415901945598,2.59678865813504,-4.42403972378112,-4.0590540315135994
974,1778471769,-3.7260841331712,-5.83162661388928,-0.5764161803891198,2.56685661627008,-4.35577644756224,-3.4901930630272
975,1778471769,-3.6779127665856,-5.8115525569446405,-0.0312768151945597,2.53692380813504,-4.28751142378112,-2.9213175315136
976,1778471769,-3.6297414,-5.7914785,0.51386255,2.506991,-4.2192464,-2.352442
977,1778471769,-3.8007035,-5.253576,0.41819205,3.200323,0.9987647,1.5222762
978,1778471769,-3.7816672,-4.967053,-0.0605262,3.3017266,3.2925637,3.4538321
979,1778471769,-1.70364168,-3.849148825,-1.0868479,3.3017266,3.2925637,3.4538321
980,1778471769,0.37438384,-2.73124465,-2.1131696,3.3017266,3.2925637,3.4538321
981,1778471769,1.9456243,-1.31681087,-1.92012045,-3.299894,4.5167375,7.3517632
982,1778471769,1.9338284346520125,-1.04530181548051,-1.1764093393320902,-3.201342781962317,3.1353911752790387,7.1593439506638905
983,1778471769,1.9220322673260064,-0.7737858102402551,-0.4326791894160451,-3.1027890409811585,1.7540094876395191,6.966919775331945
984,1778471769,1.9102361,-0.5022698050000001,0.3110509605,-3.0042353,0.3726278,6.7744956
985,1778471769,1.8093599608207396,-0.4877078475969604,0.5091830829175805,-2.7806605078626467,-0.0081416173927141,6.76044585322604
986,1778471769,1.708483821641479,-0.4731458901939208,0.7073152053351609,-2.5570857157252935,-0.3889110347854283,6.746396106452081
987,1778471769,1.6076051,-0.45858356,0.9054524,-2.3335052,-0.7696902,6.732346
988,1778471769,1.632987,-0.34509695,0.5205741,-1.5931365,-1.3255776,6.8734555
989,1778471769,1.67815227187712,-0.387512793476504,0.489308479580064,-1.9388722620256,-1.146023693006928,7.021645706266081
990,1778471769,1.72331754375424,-0.429928636953008,0.458042859160128,-2.2846080240512,-0.966469786013856,7.16983591253216
991,1778471769,1.76848397187712,-0.472345566289004,0.426776438330064,-2.6303526370256,-0.786911282381928,7.318029912516081
992,1778471769,1.8136504,-0.514762495625,0.3955100175,-2.97609725,-0.6073527787499999,7.4662239125
993,1778471769,1.85881567187712,-0.557178339101504,0.364244397080064,-3.3218330120256003,-0.427798871756928,7.61441411876608
994,1778471769,1.90398094375424,-0.599594182578008,0.332978776660128,-3.6675687740512,-0.248244964763856,7.76260432503216
995,1778471769,1.94914737187712,-0.6420111119140041,0.301712355830064,-4.0133133870256,-0.068686461131928,7.91079832501608
996,1778471769,1.9943138,-0.68442804125,0.270445935,-4.359058,0.1108720425,8.058992325
997,1778471769,1.8351084919026857,-0.9153957398837436,0.7392657560196524,-5.664491526824648,0.1740960554815167,8.009970868321785
998,1778471769,1.675903183805371,-1.146363438517487,1.2080855770393049,-6.969925053649296,0.2373200684630334,7.96094941164357
999,1778471769,1.5166938,-1.37733705,1.6769174,-8.275392,0.3005457,7.9119267
