id,timestamp,acc_x,acc_y,acc_z,gyro_x,gyro_y,gyro_z
0,1778471668,-0.07272906,0.19158493,0.7924539,-0.7128797,0.6933321,0.007330383
1,1778471668,0.122760795,0.21672285,0.92400074,-0.84116143,-0.65301496,-0.06352998
2,1778471668,0.22160399,0.25601605,1.0697029,-0.84116143,-0.65301496,-0.06352998
3,1778471668,0.33570075,0.3439987,1.2346856,-1.1609494,0.130419723,-0.55436023
4,1778471668,0.37584817,0.366574,1.2910628,-1.1276573,-0.122783914,-0.3115413
5,1778471668,0.2898168838136319,0.31324679242048,1.23309845806592,-0.9813531773312,-0.0479519641633023,-0.6786759992639999
6,1778471668,0.2037878,0.25992095,1.1751356,-0.8350528,0.02687807,-1.0458013
7,1778471668,0.239907810157952,0.304582855820288,0.99783031953664,-0.636524126199552,-0.436762710322048,-0.95692153767552
8,1778471668,0.276028745,0.3492459049999999,0.8205205,-0.43799037,-0.90041536,-0.8680395
9,1778471668,0.37536004,0.42465958,0.7817154,-0.43799037,-0.90041536,-0.8680395
10,1778471668,0.5833578450000001,0.53735303,0.950358925,-0.45387288,-1.798998155,-0.8662069124999999
11,1778471668,0.7913556500000001,0.6500464800000001,1.11900245,-0.46975539,-2.69758095,-0.864374325
12,1778471668,1.016071325,0.69013289,1.298872625,-0.418442695,-2.906802225,-0.8115344875
13,1778471668,1.240787,0.7302193,1.4787428,-0.36713,-3.1160235,-0.75869465
14,1778471668,1.2354177,0.6970275,1.6588572,-0.9370673,-2.7953193,-1.7104226
15,1778471668,0.937912,0.68409246,2.3881001,-0.8240572,-2.9486465,-2.0054705
16,1778471668,0.92937,0.5635282,2.9362526,-0.8240572,-2.9486465,-2.0054705
17,1778471668,1.1653733,0.5274077,2.8510768,0.3652974,-3.98895,-2.2632558
18,1778471668,1.364036,0.93059033,2.152585,2.5955665,-4.660902,-2.2101104
19,1778471668,1.37501840942336,1.068846995292032,2.1088993091840003,3.3716608158656,-5.2073140058368,-2.36587905613568
20,1778471668,1.3860011,1.2071072,2.0652125,4.147775,-5.75374,-2.5216517
21,1778471668,2.3412411,1.3010693,2.6997612,3.259577,-8.085412,-2.2473733
22,1778471668,2.7873777,1.29777445,3.04375995,3.259577,-8.085412,-2.2473733
23,1778471668,3.01044314472576,1.29612704608704,3.215757123408,3.2461381720192004,-7.9815663292416,-2.55982690054272
24,1778471668,3.2335143,1.2944796,3.3877587,3.232699,-7.877718,-2.8722885
25,1778471668,2.9763357581568,1.37312805668736,3.32643846511104,3.3440305500256,-7.23752313061056,-3.3269306943455996
26,1778471668,2.7191638,1.4517745,3.2651198,3.45535925,-6.59734465,-3.78156125
27,1778471668,2.48871569977344,1.4789865266816,3.22820672249344,3.77712830630336,-5.42663631025856,-4.4591549516896
28,1778471668,2.2582617,1.50619925,3.1912927,4.0989056,-4.255898,-5.136766
29,1778471668,2.076195,1.4518965,3.200811,4.0989056,-4.255898,-5.136766
30,1778471668,1.5243815,0.8261338,2.916728,4.0989056,-4.255898,-5.136766
31,1778471668,1.9673455,0.70874226,3.3614006,4.1966443,-4.269948,-4.5882087
32,1778471668,2.1889495,0.63113203,3.5354134,4.1966443,-4.269948,-4.5882087
33,1778471668,2.4105535,0.5535218,3.7094262,4.1966443,-4.269948,-4.5882087
34,1778471668,2.0132282,-0.1598575,3.3318696,5.2687125,-4.0689735,-5.493511
35,1778471668,1.7596227822860515,-0.3384893041202452,3.2675530319434207,5.374268992421015,-4.006014291377215,-5.493429587500341
36,1778471668,1.5060108721903074,-0.5171256812732107,3.2032348173616234,5.479828187122826,-3.943053470978059,-5.4933481729164955
37,1778471668,1.2523989620945633,-0.6957620584261762,3.138916602779826,5.585387381824637,-3.880092650578903,-5.49326675833265
38,1778471668,0.9987935443806149,-0.8743938625464214,3.0746000347232463,5.690943874245652,-3.817133441956118,-5.493185345832992
39,1778471668,0.7451881266666667,-1.0530256666666666,3.010283466666667,5.796500366666667,-3.7541742333333334,-5.493103933333333
40,1778471668,0.3811360665833333,-1.1635632833333334,2.2354220333333332,6.797402933333333,-5.004717116666667,-5.268509116666666
41,1778471668,0.0170840065,-1.2741009,1.4605606,7.7983055,-6.25526,-5.0439143
42,1778471668,0.0159399997885286,-1.241174857416992,1.4060845303420937,7.488218221584375,-6.153132027053829,-5.032407241583787
43,1778471668,0.0147959930770573,-1.2082488148339836,1.3516084606841874,7.1781309431687506,-6.051004054107659,-5.020900183167573
44,1778471668,0.0136519570786393,-1.175321929333496,1.297130996421047,6.868035726417188,-5.948873466651914,-5.0093928301668935
45,1778471668,0.0125079210802213,-1.1423950438330082,1.2426535321579064,6.557940509665625,-5.846742879196171,-4.997885477166213
46,1778471668,0.01136391436875,-1.10946900125,1.1881774625,6.24785323125,-5.74461490625,-4.98637841875
47,1778471668,0.0102199076572786,-1.076542958666992,1.1337013928420936,5.937765952834375,-5.642486933303829,-4.974871360333787
48,1778471668,0.0090758716588606,-1.043616073166504,1.079223928578953,5.627670736082812,-5.540356345848085,-4.963364007333107
49,1778471668,0.0079318356604426,-1.0106891876660165,1.0247464643158126,5.317575519331249,-5.438225758392341,-4.951856654332428
50,1778471668,0.0067878289489713,-0.9777631450830082,0.9702703946579064,5.007488240915625,-5.336097785446171,-4.940349595916214
51,1778471668,0.0056438222374999,-0.9448371025,0.915794325,4.6974009625,-5.2339698125,-4.9288425375000005
52,1778471668,0.3198370199999999,-0.78452205,0.575609035,2.3945918,-2.03082145,-4.63524565
53,1778471668,0.377008166781312,-0.77994591642624,0.475117181220736,2.3347262837312,-1.96835967549952,-4.6679273933209595
54,1778471668,0.43417785,-0.7753699,0.3746279,2.2748623,-1.9058995,-4.7006083
55,1778471668,0.3874414682333439,-0.8599346675571199,0.1951870928717312,1.901628327456,-1.9321664137792,-4.76291555245696
56,1778471668,0.34070389,-0.9445016,0.015741692,1.5283848,-1.958434,-4.8252244
57,1778471668,0.2231278140454912,-1.0298006918143998,-0.016291231766176,1.4714208958713602,-2.00058423951616,-4.72931739740608
58,1778471668,0.105554748,-1.1150976,-0.0483233355,1.41445845,-2.0427334,-4.63341285
59,1778471668,-0.2638259,-1.2898425,0.017816179,1.3536774,-2.2009475,-4.157549
60,1778471668,-0.9005712,-1.4074782,-0.090789296,1.3536774,-2.2009475,-4.157549
61,1778471668,-0.8256457,-1.4374971,0.030507157,1.8918496,-2.5216517,-3.0634892
62,1778471668,-0.81295466,-1.3410946,-0.40342662,2.6138923,-3.223536,-1.7519615
63,1778471668,-0.610389752864,-1.4625115458432,-0.773534672556288,2.56563461770624,-3.51888551947776,-1.48104621776
64,1778471668,-0.40781966,-1.5839316,-1.1436522,2.5173757,-3.8142426,-1.210124
65,1778471668,-0.576648428480576,-2.0355652558368003,-1.5016887828096,2.5173757,-3.8142426,-1.210124
66,1778471668,-0.745472875,-2.48718735,-1.8597162,2.5173757,-3.8142426,-1.210124
67,1778471668,-1.3423046639404206,-2.7888369517808993,-1.566608435769874,1.1967075730245418,-3.237188415184149,-1.3188561442809843
68,1778471668,-1.9391517319702103,-3.0904942758904497,-1.273493167884937,-0.1239943634877292,-2.6601194575920744,-1.4275910721404923
69,1778471668,-2.5359988,-3.3921516,-0.9803779,-1.4446963,-2.0830505,-1.536326
70,1778471668,-3.2563948,-3.430651575,-0.3293552274999999,-2.52806585,-1.11849427,-0.702189555
71,1778471668,-3.9767908,-3.4691515500000003,0.321667445,-3.6114354,-0.15393804,0.13194689
72,1778471668,-4.0162063,-3.2808616,0.73388016,-3.6114354,-0.15393804,0.13194689
73,1778471668,-3.0089817,-3.0656033,0.91570276,0.028710667,-0.91813046,4.469701
74,1778471668,-2.1126204875,-2.7405798999999997,0.5156929472499999,0.028710667,-0.91813046,4.469701
75,1778471668,-1.216259275,-2.4155565,0.1156831345,0.028710667,-0.91813046,4.469701
76,1778471668,-0.7578587575,-2.28101995,-0.0440523327499999,-0.2186897515,2.15024562,6.166074
77,1778471668,-0.29945824,-2.1464834,-0.2037878,-0.46609017,5.2186217,7.862447
78,1778471668,0.11067998,-2.0936451000000003,-0.31019675,-0.46609017,5.2186217,7.862447
79,1778471668,0.5208182,-2.0408068,-0.4166057,-0.46609017,5.2186217,7.862447
80,1778471668,2.7185535,-1.2415192,0.0046370877,-4.750088,5.842315,9.034086
81,1778471668,3.1263733,-0.9088692,0.7748818,-4.754975,7.467217,9.484294
82,1778471668,3.2220438,-0.6882414,1.5441502,-4.754975,7.467217,9.484294
83,1778471668,2.9385748784486396,-0.555720016295424,2.16343747302144,-4.460236272704,5.7171104016512,8.95162581824
84,1778471668,2.6550987,-0.42319524,2.7827406,-4.16549,3.966959,8.418944
85,1778471668,1.78784135,-0.57756147,1.79894595,-1.0164797,0.32925636,7.1520104
86,1778471669,1.765428957921527,-0.5914319383038221,1.4493776196879349,0.3679327528625186,0.4774917250420268,7.134906245957316
87,1778471669,1.7430165658430543,-0.6053024066076441,1.0998092893758693,1.7523452057250373,0.6257270900840537,7.117802091914632
88,1778471669,1.7206036,-0.6191732299999999,0.75023201,3.1367931,0.77396625,7.1006975
89,1778471669,1.803095,-0.58939826,0.27456442,2.07572,2.8832839,7.49776
90,1778471669,2.110485025,-0.3538830125,0.0670547375,-0.1572979000000001,3.8652498,7.456832
91,1778471669,2.41787505,-0.118367765,-0.140454945,-2.3903158,4.8472157,7.415904
92,1778471669,2.2251309,-0.14612927375,0.1178186399999999,-2.70460595,4.8832567,7.31694385
93,1778471669,2.0323867499999997,-0.1738907825,0.3760922249999999,-3.0188961,4.9192977,7.2179837
94,1778471669,2.0059403678144196,-0.1807395701175171,0.4846050638143073,-3.375003980908623,4.823530291920811,7.136151510472346
95,1778471669,1.97949398562884,-0.1875883577350342,0.5931179026286146,-3.7311118618172463,4.727762883841622,7.0543193209446935
96,1778471669,1.9530469264072097,-0.1944373206837585,0.7016335194071536,-4.087228859204312,4.631993024085405,6.972485036486173
97,1778471669,1.9265998671855795,-0.2012862836324829,0.8101491361856926,-4.443345856591377,4.536223164329188,6.890650752027653
98,1778471669,1.9001534849999997,-0.20813507125,0.918661975,-4.7994537375,4.44045575625,6.8088185625
99,1778471669,1.87370710281442,-0.214983858867517,1.0271748138143073,-5.1555616184086235,4.344688348170811,6.7269863729723465
100,1778471669,1.84726004359279,-0.2218328218162414,1.1356904305928464,-5.511678615795688,4.248918488414594,6.645152088513827
101,1778471669,1.82081298437116,-0.2286817847649657,1.2442060473713852,-5.8677956131827536,4.153148628658378,6.563317804055306
102,1778471669,1.79436660218558,-0.2355305723824829,1.3527188861856925,-6.223903494091377,4.057381220579188,6.481485614527654
103,1778471669,1.76792022,-0.24237936,1.461231725,-6.580011375,3.9616138125,6.399653425
104,1778471669,2.45312616,0.8083023699999999,1.8751223625,-6.0871576875,3.19826135625,5.7993638625
105,1778471669,3.1383321,1.8589841,2.289013,-5.594304,2.4349089,5.1990743
106,1778471669,4.03926955,2.55125255,2.21189085,-5.3301048,3.57478345,4.91777065
107,1778471669,4.940207,3.243521,2.1347687,-5.0659056,4.714658,4.636467
108,1778471669,6.4294443,4.168254,1.5378047,-5.0659056,4.714658,4.636467
109,1778471669,6.42346457346048,4.3886403209088005,1.52535769068032,-2.9009713891968,1.4403783397567995,2.63310888234432
110,1778471669,6.417485,4.609021,1.512911,-0.7360926,-1.8338175,0.62980205
111,1778471669,6.744922944987541,4.643757907149197,1.768678634843158,-0.7360926,-1.8338175,0.62980205
112,1778471669,7.072369272493771,4.678495703574598,2.024452817421579,-0.7360926,-1.8338175,0.62980205
113,1778471669,7.3998156,4.7132335,2.280227,-0.7360926,-1.8338175,0.62980205
114,1778471669,7.9960475,4.300777,3.0595016,-0.22418754,1.5894713,-2.6456573
115,1778471669,7.84571027434112,3.58167150466816,3.18262692397568,1.2959311222320635,0.8161258319486976,-4.251601593649919
116,1778471669,7.6953692,2.8625476,3.3057554,2.8160887,0.042760566,-5.857587
117,1778471669,6.500830649999999,1.57721995,2.78493725,2.8160887,0.042760566,-5.857587
118,1778471669,5.812635906003652,1.0108085901054724,2.477590456059546,3.89568205401879,-0.944796528738256,-6.874465322527243
119,1778471669,5.1244411620073045,0.4443972302109449,2.1702436621190917,4.9752754080375805,-1.9323536234765115,-7.891343645054485
120,1778471669,4.4362288,-0.12202863,1.862889,6.0548964,-2.919936,-8.908248
121,1778471669,2.9140435499999997,-1.23322132,1.66569065,6.010303199999999,-2.8338039,-9.1755015
122,1778471669,2.4882301129817597,-1.339567866246784,1.57371277733184,5.9826618538137595,-2.9782716757888,-9.0512682152064
123,1778471669,2.06241667596352,-1.445914412493568,1.48173490466368,5.95502050762752,-3.1227394515776,-8.9270349304128
124,1778471669,1.63659233798176,-1.552263681246784,1.38975467733184,5.92737845381376,-3.2672109257888,-8.802798465206399
125,1778471669,1.210768,-1.6586129500000002,1.29777445,5.8997364,-3.4116824,-8.678562
126,1778471669,1.287646,-1.4633673,1.108508,5.3572884,-3.944357,-7.959574
127,1778471669,1.3925906,-1.3737983,1.0684826,4.3029346,-4.0811906,-7.6510873
128,1778471669,1.4869187499999998,-1.2954559,1.086909,4.3029346,-4.0811906,-7.6510873
129,1778471669,1.5812469,-1.2171135,1.1053354,4.3029346,-4.0811906,-7.6510873
130,1778471669,1.585761975,-1.2025921,1.313821225,2.9332221000000005,-3.31806725,-7.60970115
131,1778471669,1.59027705,-1.1880707,1.52230705,1.5635096000000002,-2.5549438999999996,-7.568315
132,1778471669,1.6452717692822645,-1.174972854899819,1.69595524844566,1.5035424882871966,-2.173251676268048,-7.485745628750384
133,1778471669,1.7002664885645289,-1.1618750097996382,1.86960344689132,1.4435753765743933,-1.7915594525360956,-7.403176257500768
134,1778471669,1.7552598,-1.1487775,2.0432472,1.3836098,-1.409877,-7.320609
135,1778471669,1.8090737361728,-1.12961922022912,1.87057896018176,2.00393550972928,-1.17454416229888,-7.3264121757184
136,1778471669,1.86288905,-1.11046045,1.6979063,2.6242771,-0.9392053,-7.3322155
137,1778471669,1.9143851,-1.0799533,1.5878365,2.824641,-1.0238101,-7.334659
138,1778471669,2.1747942,-1.03163,0.9127741,2.824641,-1.0238101,-7.334659
139,1778471669,2.073674825792743,-1.0806032975116906,0.8121428841280678,2.953531300244052,-1.3229253617008567,-7.493277626207462
140,1778471669,1.9725528628963716,-1.1295778487558454,0.7115090920640339,3.0824249001220263,-1.6220482808504284,-7.651900313103731
141,1778471669,1.8714309,-1.1785524,0.6108753,3.2113185,-1.9211712,-7.810523
142,1778471669,1.1604922,-1.3838046,0.42441553,3.2113185,-1.9211712,-7.810523
143,1778471669,0.7794439933059699,-1.588754957691345,0.2298781145921653,2.995551004701278,-2.064314834761807,-7.794505017821506
144,1778471669,0.398386031652985,-1.7937105621790057,0.0353357189627493,2.7797779856839724,-2.2074621340475704,-7.77848662557742
145,1778471669,0.01732807,-1.9986661666666663,-0.1592066766666666,2.564004966666667,-2.3506094333333336,-7.762468233333333
146,1778471669,-0.0996473791560682,-2.0915696786558597,-0.3071445440968467,2.519391916843478,-2.378525684133933,-7.424032005631331
147,1778471669,-0.2166228283121365,-2.184473190645053,-0.4550824115270268,2.474778867020289,-2.4064419349345325,-7.08559577792933
148,1778471669,-0.3336012720780341,-2.2773790809945966,-0.60302406621509,2.4301646750884056,-2.4343589004002997,-6.747150886148999
149,1778471669,-0.4505797158439318,-2.3702849713441396,-0.7509657209031532,2.385550483156522,-2.4622758658660673,-6.408705994368669
150,1778471669,-0.567555165,-2.463188483333333,-0.8989035883333333,2.3409374333333335,-2.4901921166666665,-6.070269766666667
151,1778471669,-0.6845306141560683,-2.5560919953225265,-1.0468414557635133,2.296324383510145,-2.518108367467266,-5.731833538964665
152,1778471669,-0.801509057921966,-2.64899788567207,-1.1947831104515765,2.251710191578262,-2.546025332933034,-5.393388647184334
153,1778471669,-0.9184875016878636,-2.741903776021613,-1.3427247651396397,2.207095999646378,-2.573942298398801,-5.054943755404003
154,1778471669,-1.035462950843932,-2.8348072880108064,-1.4906626325698198,2.162482949823189,-2.6018585491994006,-4.716507527702002
155,1778471669,-1.1524384,-2.9277108,-1.6386005,2.1178699,-2.6297748,-4.3780713
156,1778471669,-2.9622042166666667,-4.409585666666667,0.0726069833333333,-0.7183775333333333,-1.9369518833333332,-1.23242065
157,1778471669,-2.5170844,-4.0996737,1.07324175,3.0042353,-3.5570683,2.1459696
158,1778471669,-1.6865240052060897,-3.714961349587411,0.661642712356746,2.6000495824289382,0.1368022785675885,3.762916101879901
159,1778471669,-0.8559636104121789,-3.3302489991748234,0.2500436747134921,2.1958638648578765,3.830672857135177,5.379862603759802
160,1778471669,-0.025381953,-2.9455268,-0.1615659,1.7916678,7.524638,6.9968505
161,1778471669,0.5080120008552192,-2.5574708329472,-0.36596646629376,0.6334524500332799,8.736610013043201,7.708822863129599
162,1778471669,1.0413923,-2.1694248,-0.5703618,-0.52473325,9.948551,8.420777
163,1778471669,1.47788311284608,-1.73903540905472,-0.533631650151936,-0.52473325,9.948551,8.420777
164,1778471669,1.9143851,-1.308635,-0.49690056,-0.52473325,9.948551,8.420777
165,1778471669,2.9299073,-0.4888467,0.16571487,-1.4477507,7.751269,9.453751
166,1778471669,2.9225855,-0.18133454,0.65138876,-1.0861185,2.8313603,9.438478
167,1778471669,2.4420369,-0.14741059,0.65919864,-0.46609017,0.6444628,8.682838
168,1778471669,2.33147895,-0.187069885,0.63528102,-0.46609017,0.6444628,8.682838
169,1778471669,2.220921,-0.22672918,0.6113634,-0.46609017,0.6444628,8.682838
170,1778471669,1.9834533,-0.5137405,0.6467517,-2.8502972,3.544851,8.132449
171,1778471669,1.876312,-0.66749656,0.73680884,-3.6957347,4.3114867,8.12573
172,1778471669,1.7657542,-0.83077085,0.8829991,-4.704884,4.9400673,8.167879
173,1778471669,1.9534342,-0.91497064,1.2395668,-5.6834903,4.773301,8.3658
174,1778471669,2.156406701279152,-0.7962784795194006,1.4537251558253048,-5.7144406025540375,4.322079050476589,8.282315712408373
175,1778471669,2.3593792025583045,-0.6775863190388012,1.6678835116506097,-5.745390905108075,3.870857100953178,8.198831424816746
176,1778471669,2.5623569,-0.55889112,1.88204735,-5.776342,3.4196236,8.115345
177,1778471669,2.5962808,-0.4249037,2.051057,-4.964502,2.3188446,7.1898837
178,1778471669,2.307482264445715,-0.4150601339995051,1.984836765086571,-4.739298255096555,2.3510165254627218,6.942892741016495
179,1778471669,2.01868372889143,-0.4052165679990101,1.9186165301731424,-4.51409451019311,2.3831884509254437,6.6959017820329905
180,1778471669,1.7298778,-0.39537275,1.8523946,-4.288885,2.4153612,6.4489045
181,1778471669,1.0108851,-0.5418071,1.4223657,-4.288885,4.4849725,6.5649686
182,1778471669,1.169803298190118,-0.4156929198381183,1.427653544597214,-4.320950197069405,4.371003807838162,6.667427972320347
183,1778471669,1.3287214963802365,-0.2895787396762367,1.4329413891944278,-4.353015394138811,4.257035115676325,6.7698873446406935
184,1778471669,1.4876437629283028,-0.1634613309500173,1.438229369162196,-4.385081412087768,4.143063505878621,6.872349339954546
185,1778471669,1.6465660294763695,-0.0373439222237979,1.4435173491299644,-4.417147430036726,4.029091896080919,6.974811335268399
186,1778471670,1.8054842276664875,0.0887702579380836,1.4488051937271784,-4.449212627106131,3.915123203919081,7.077270707588745
187,1778471670,1.9644024258566055,0.2148844380999653,1.4540930383243922,-4.481277824175536,3.801154511757243,7.179730079909092
188,1778471670,2.1233246924046725,0.3410018468261847,1.4593810182921605,-4.5133438421244945,3.68718290195954,7.282192075222944
189,1778471670,2.282246958952739,0.4671192555524041,1.4646689982599288,-4.545409860073452,3.5732112921618375,7.384654070536796
190,1778471670,2.441165157142857,0.5932334357142857,1.4699568428571428,-4.577475057142857,3.4592426,7.487113442857143
191,1778471670,7.115489,4.67247605,1.72768115,-1.653612295,1.740049633,5.64683845
192,1778471670,7.9855533,5.4466257,1.2363939,-1.2986995,2.1429152,6.618114
193,1778471670,7.847417,5.749745,0.9813542,0.103847094,-1.3494014,0.20525073
194,1778471670,7.2031054,5.4497986,1.5714846,0.103847094,-1.3494014,0.20525073
195,1778471670,7.05748708525105,5.342496564644844,1.8580028433593885,0.103847094,-1.3494014,0.20525073
196,1778471670,6.911865042625525,5.235191782322422,2.144528421679694,0.103847094,-1.3494014,0.20525073
197,1778471670,6.766243,5.127887,2.431054,0.103847094,-1.3494014,0.20525073
198,1778471670,6.3767276,4.1677656,2.8898818,0.13622294,-0.13805555,-2.3701572
199,1778471670,5.997280403652949,3.711628442630349,2.7261241980130246,0.5340404505373525,-0.2401434038143004,-2.87714851042816
200,1778471670,5.617823493333333,3.255479608,2.5623624037777777,0.9318681453333332,-0.3422338711111111,-3.3841528000000003
201,1778471670,5.238366583013717,2.7993307733696513,2.3986006095425307,1.3296958401293142,-0.4443243384079217,-3.89115708957184
202,1778471670,4.858919386666667,2.343193616,2.234843007555555,1.727513350666667,-0.5464121922222221,-4.3981484
203,1778471670,4.479472190319616,1.887056458630349,2.07108540556858,2.125330861204019,-0.6485000460365227,-4.90513971042816
204,1778471670,4.10001528,1.4309076240000005,1.9073236113333336,2.523158556,-0.7505905133333333,-5.4121440000000005
205,1778471670,3.720558369680384,0.9747587893696514,1.7435618170980864,2.920986250795981,-0.852680980630144,-5.91914828957184
206,1778471670,3.3411111733333336,0.5186216320000003,1.5798042151111111,3.318803761333333,-0.9547688344444444,-6.426139600000001
207,1778471670,2.9616639769862827,0.0624844746303491,1.4160466131241358,3.716621271870686,-1.056856688258745,-6.933130910428161
208,1778471670,2.5822070666666668,-0.39366436,1.2522848188888889,4.114448966666667,-1.1589471555555555,-7.4401352
209,1778471670,1.406502,-1.3244987,1.0794652,4.43366,-2.234545,-7.960185
210,1778471670,1.4974132999999998,-1.256162675,1.05414425,4.343557325,-2.53417445,-7.934528675
211,1778471670,1.5883246,-1.18782665,1.0288233,4.25345465,-2.8338039,-7.90887235
212,1778471670,1.7148682,-1.114121325,1.0885563,3.724750825,-2.9636128,-7.907345175
213,1778471670,1.8414118,-1.040416,1.1482893,3.196047,-3.0934217,-7.905818
214,1778471670,1.9165401588964648,-1.0264641973902395,1.2756047468942802,2.7054245533651344,-2.570729110367191,-7.880772713722512
215,1778471670,1.9916685177929292,-1.012512394780479,1.4029201937885605,2.214802106730269,-2.048036520734382,-7.855727427445023
216,1778471670,2.0667988,-0.998560235,1.5302389,1.7241671,-1.52533055,-7.8306815
217,1778471670,2.1767466,-0.956582335,1.48838315,1.4947872,-0.016493361,-7.6718564
218,1778471670,2.2137616508008566,-0.9558908625673068,1.256001949678292,1.802660672779404,-0.1264481690402946,-7.7052501483697
219,1778471670,2.2507767016017133,-0.955199390134614,1.023620749356584,2.1105341455588076,-0.2364029770805892,-7.7386438967394
220,1778471670,2.2877927,-0.9545079,0.7912336,2.4184155,-0.3463606,-7.7720385
221,1778471670,2.0513012,-1.002099,0.30751213,2.9590313,-0.99021256,-8.060978
222,1778471670,1.886075843274425,-1.032524573698448,0.2325058420618498,2.847447485527405,-1.3310724646249157,-8.111882898939303
223,1778471670,1.7208504865488494,-1.0629501473968956,0.1574995541236997,2.73586367105481,-1.6719323692498316,-8.162787797878604
224,1778471670,1.5556209,-1.0933765,0.082491346,2.624277,-2.012801,-8.213694
225,1778471670,1.0971534966923522,-1.3206577091622398,0.0051852234942975,2.65818048395904,-2.39062593609728,-7.57319365170048
226,1778471670,0.63869783,-1.5479330999999998,-0.07211892,2.6920831,-2.7684412,-6.9327097
227,1778471670,0.2541515263409223,-1.9088469736577125,-0.1849121149714988,2.6920831,-2.7684412,-6.9327097
228,1778471670,-0.1304046218295388,-2.2697700868288564,-0.2977081974857494,2.6920831,-2.7684412,-6.9327097
229,1778471670,-0.51496077,-2.6306932,-0.41050428,2.6920831,-2.7684412,-6.9327097
230,1778471670,-0.8466588605845075,-3.139846455169942,-0.7433413019766129,2.201087378772674,-2.7628755919382413,-5.904903704056764
231,1778471670,-1.1783569511690148,-3.648999710339885,-1.0761783239532257,1.7100916575453478,-2.7573099838764823,-4.877097708113528
232,1778471670,-1.5100635333333334,-4.1581660000000005,-1.4090238666666668,1.2190833666666665,-2.7517442333333335,-3.8492654
233,1778471670,-1.8636814238903063,-4.335585027912653,-0.9868518561343552,0.0641890011662271,-2.445763433550081,-3.2073708451398195
234,1778471670,-2.2172902619451533,-4.512999513956327,-0.5646906530671777,-1.0906757994168863,-2.1397904667750405,-2.5654927225699096
235,1778471670,-2.5708991,-4.6904140000000005,-0.14252945,-2.2455406,-1.8338175,-1.9236146
236,1778471670,-3.99326455,-4.8388012499999995,1.7685608,-2.2455406,-1.8338175,-1.9236146
237,1778471670,-4.178504,-4.731538,1.6869236,-1.7794504,0.115453534,0.122783914
238,1778471670,-3.466345025,-4.4691765000000006,1.04273455,-0.64049218,0.4489859669999999,1.3075571069999998
239,1778471670,-2.75418605,-4.206815000000001,0.3985455,0.49846604,0.7825184,2.4923303
240,1778471670,-0.42465958,-3.4807444,0.09152147,-0.26450464,5.583919,9.0438595
241,1778471670,-1.513399,-3.7909415,0.031239327,0.8668178,3.9596286,7.61077
242,1778471670,-0.42465958,-3.4807444,0.09152147,0.8668178,3.9596286,7.61077
243,1778471670,0.676695652472576,-3.13424853520384,0.276575511277952,-0.29747649684224,4.99869699975424,9.71273059456
244,1778471670,1.77807908,-2.7877438,0.46163429,-1.4618006,6.037792,11.814745
245,1778471670,2.385832625527746,-2.466843745598061,0.5330222394498536,-1.4746968423152738,5.967066170739074,11.727254062396
246,1778471670,2.993570612763873,-2.145951906132364,0.6044083613915935,-1.4875927544909702,5.896342152036204,11.639765364531332
247,1778471670,3.6013086,-1.8250600666666663,0.6757944833333333,-1.5004886666666666,5.825618133333333,11.552276666666666
248,1778471670,3.773003,-1.2346855983333331,0.8982526416666666,-1.7309884333333334,5.310455266666667,11.995357333333333
249,1778471670,3.9446974,-0.64431113,1.1207108,-1.9614882,4.7952924,12.438438
250,1778471670,3.4321161,-0.617159755,1.243959775,-2.069153225,3.4788777,10.56002725
251,1778471670,2.9195348,-0.59000838,1.36720875,-2.17681825,2.162463,8.6816165
252,1778471670,2.860347261427363,-0.5687050162938478,1.3530197235812291,-2.397785737678112,2.2405552821547334,8.586244218400337
253,1778471670,2.8011597228547256,-0.5474016525876958,1.3388306971624586,-2.6187532253562233,2.318647564309467,8.490871936800675
254,1778471670,2.7419736994636814,-0.5260988342406739,1.3246420339781146,-2.8397150563390556,2.396737847327367,8.395502096700168
255,1778471670,2.6827876760726372,-0.5047960158936521,1.3104533707937709,-3.0606768873218884,2.474828130345266,8.300132256599664
256,1778471670,2.6236001375,-0.4834926521875,1.2962643443750002,-3.281644375,2.5529204125,8.204759975
257,1778471670,2.5644125989273627,-0.4621892884813479,1.2820753179562292,-3.5026118626781115,2.6310126946547334,8.109387693400336
258,1778471670,2.5052265755363186,-0.4408864701343261,1.2678866547718854,-3.723573693660944,2.7091029776726328,8.014017853299832
259,1778471670,2.4460405521452744,-0.4195836517873042,1.2536979915875417,-3.944535524643777,2.7871932606905325,7.918648013199326
260,1778471670,2.386853013572637,-0.3982802880811521,1.2395089651687707,-4.165503012321889,2.865285542845266,7.823275731599662
261,1778471670,2.327665475,-0.376976924375,1.22531993875,-4.3864705,2.943377825,7.72790345
262,1778471670,2.25009444917184,-0.235692466745456,1.395021431855584,-4.345275827298559,2.5899395428179197,7.512308922145279
263,1778471670,2.17252342334368,-0.094408009115912,1.564722924961168,-4.30408115459712,2.23650126063584,7.29671439429056
264,1778471670,2.09495041167184,0.046880065442044,1.734428762480584,-4.26288542729856,1.88305393031792,7.08111434714528
265,1778471670,2.0173774,0.18816814,1.9041346,-4.2216897,1.5296066,6.8655143
266,1778471670,2.9114809,0.981354225,2.4443554,-4.479475,1.6713274,6.7616673
267,1778471670,4.33584171794816,2.18734757558752,2.027571984896,-3.189344013888,2.3078408025241597,6.78335287242112
268,1778471670,5.760239,3.3933718,1.6107779,-1.89918,2.9443705,6.805039
269,1778471670,5.082736,2.7915268,2.1257386,0.30543262,3.150843,5.295591
270,1778471670,6.18197,3.8080251,1.0111293,2.021964,2.2192733,2.4294112
271,1778471670,5.992826,4.138967,0.12544543,2.5833492,0.61636305,-0.105068825
272,1778471670,5.528019,4.1792365,-0.080904975,2.5833492,0.61636305,-0.105068825
273,1778471670,5.063212,4.219506,-0.28725538,2.5833492,0.61636305,-0.105068825
274,1778471670,5.1056776,3.989604,-0.021232981,2.0879374,-0.91507614,-1.541213
275,1778471670,5.5193495049318395,3.87367828386816,0.4109868770150016,1.413856248349184,-0.788323207458304,-1.66063567137024
276,1778471670,5.933032,3.7577496,0.8432178,0.73975784,-0.66156703,-1.7800614
277,1778471670,6.2282227783936,3.26657801308416,1.36404261647232,0.380259028474112,-0.1942491434076159,-2.01127675951872
278,1778471670,6.523406,2.775419,1.8848541,0.02076942,0.27305678,-2.2424862
279,1778471670,6.0904484,2.1623473,1.9480649,1.5534303,0.12034045,-5.2070155
280,1778471670,5.6145369,1.691072675,1.869844625,2.241875475,-0.3486513375,-6.034890625
281,1778471670,5.1386254000000005,1.21979805,1.79162435,2.9303206499999996,-0.817643125,-6.862765749999999
282,1778471670,4.0613565,0.26065314,1.4355447,4.307211,-1.7556267,-8.518516
283,1778471670,3.514542032419701,-0.1855843607825033,1.237210896051359,4.5899009864735865,-2.0377737735171975,-8.909191554607412
284,1778471670,2.967713566209851,-0.6318332853912517,1.0388720146923462,4.87259820990346,-2.319928070091932,-9.29987711063704
285,1778471670,2.4208851,-1.07808221,0.8405331333333333,5.155295433333333,-2.6020823666666666,-9.690562666666668
286,1778471671,2.1853292250000003,-1.237227855,0.7926369166666666,4.621297366666666,-2.9436578333333334,-9.573683833333332
287,1778471671,1.94977335,-1.3963735000000002,0.7447406999999999,4.0872993,-3.2852333,-9.456805
288,1778471671,1.766181275,-1.430724575,0.8531021175,3.78186665,-3.31058415,-9.207572
289,1778471671,1.5825892,-1.46507565,0.961463535,3.476434,-3.335935,-8.958339
290,1778471671,1.6273127,-1.4160811750000002,0.9255261075,3.300963,-3.2410982,-8.823796000000002
291,1778471671,1.6720362,-1.3670867000000002,0.8895886799999999,3.125492,-3.1462614,-8.689253
292,1778471671,1.735003,-1.3002760000000002,0.8966663275,1.5664111915,-2.05785227,-8.1805547
293,1778471671,1.7979698,-1.2334653000000002,0.903743975,0.007330383,-0.96944314,-7.6718564
294,1778471671,1.8190807,-1.21211025,0.9929469375,0.007330383,-0.96944314,-7.6718564
295,1778471671,1.8401916,-1.1907552,1.0821499,0.007330383,-0.96944314,-7.6718564
296,1778471671,1.8411678,-1.1685461,1.2349297,-0.5235115,-0.06536258,-7.470882
297,1778471671,1.8558112,-1.1297411,1.3579346,-0.5235115,-0.06536258,-7.470882
298,1778471671,1.897829391440177,-1.085811141540444,1.3821366934728254,-0.3862716177953186,0.2396601971056516,-7.352986006058693
299,1778471671,1.9398475828803536,-1.0418811830808878,1.406338786945651,-0.2490317355906371,0.5446829742113033,-7.235090012117385
300,1778471671,1.98186685,-0.9979501,1.4305415,-0.11178834,0.84971356,-7.117191
301,1778471671,2.16735045,-0.89190718,1.1503638500000002,0.49480084,1.0170907,-6.9925747
302,1778471671,2.0610169370744824,-0.9524573006628204,1.0381788517720725,0.6675716787430522,0.8943228946623086,-7.024804677927192
303,1778471671,1.954683424148965,-1.013007421325641,0.9259938535441448,0.8403425174861043,0.7715550893246171,-7.057034655854385
304,1778471671,1.8483471890506729,-1.073559092091392,0.813805983343501,1.0131177792192425,0.64878414109088,-7.089265458879573
305,1778471671,1.742010953952381,-1.1341107628571427,0.7016181131428573,1.185893040952381,0.5260131928571429,-7.1214962619047615
306,1778471671,1.6356774410268635,-1.1946608835199632,0.5894331149149294,1.3586638796954331,0.4032453875194514,-7.153726239831954
307,1778471671,1.529343928101346,-1.255211004182784,0.4772481166870017,1.531434718438485,0.2804775821817599,-7.185956217759147
308,1778471671,1.423007693003054,-1.3157626749485347,0.365060246486358,1.7042099801716235,0.1577066339480228,-7.218187020784336
309,1778471671,1.3166714579047618,-1.3763143457142857,0.2528723762857143,1.8769852419047617,0.0349356857142856,-7.250417823809524
310,1778471671,1.2103379449792444,-1.4368644663771062,0.1406873780577865,2.049756080647814,-0.0878321196234057,-7.282647801736716
311,1778471671,1.104004432053727,-1.4974145870399267,0.0285023798298587,2.222526919390866,-0.2105999249610972,-7.314877779663909
312,1778471671,0.997668196955435,-1.5579662578056774,-0.0836854903707849,2.3953021811240043,-0.3333708731948343,-7.347108582689097
313,1778471671,0.8913319618571428,-1.6185179285714284,-0.1958733605714286,2.5680774428571427,-0.4561418214285714,-7.379339385714286
314,1778471671,-0.4607626690714285,-2.544749964285714,-1.0164461802857143,2.8942795214285715,-1.1556698107142858,-6.765070692857143
315,1778471671,-1.8128573,-3.470982,-1.837019,3.2204816,-1.8551978,-6.150802
316,1778471671,-2.6220289833333332,-4.122940416666666,-0.4814435666666667,-1.40346291,0.1505783,-2.28677405
317,1778471671,-2.8094682044773167,-4.2473439675712035,-0.4093912131000168,-0.8539802389491156,0.1645266213816379,-1.1514616242492768
318,1778471671,-2.9969026272386583,-4.371744333785602,-0.3373407040500084,-0.3045116344745577,0.1784745856908189,-0.0161782621246383
319,1778471671,-3.18433705,-4.4961447,-0.2652901949999999,0.24495697,0.19242255,1.1191051
320,1778471671,-2.642957,-4.26435135,-0.5723141974999999,0.8976664599999999,1.2970196850000002,3.2475124
321,1778471671,-2.10157695,-4.032558,-0.8793382,1.55037595,2.40161682,5.3759197
322,1778471671,-1.1996710921951668,-3.715123525475522,-0.7703269069082748,0.8346516242590901,3.5927938818256293,6.425784507705633
323,1778471671,-0.2977652343903333,-3.397689050951044,-0.6613156138165496,0.1189272985181801,4.7839709436512585,7.475649315411266
324,1778471671,0.6041637125,-3.08024645,-0.55230153,-0.59681535,5.9751785,8.525541
325,1778471671,1.4259760003126398,-2.7920722614176,-0.32721686145312,-1.95234267552768,4.53855776148992,10.6802425798272
326,1778471671,2.24776725,-2.50390545,-0.1021379549999999,-3.3078353,3.1019738,12.834889
327,1778471671,4.4572177,-1.4465274,0.5679212,-2.8991663,0.9651671,12.368189
328,1778471671,4.57747685,-0.87134543,0.852247875,-2.2815816,0.1450804999999999,10.85477025
329,1778471671,4.697736,-0.29616346,1.13657455,-1.6639969,-0.6750061,9.3413515
330,1778471671,3.9622695,0.034168016,1.07434,-1.6639969,-0.6750061,9.3413515
331,1778471671,2.9003763,-0.018304294,0.85127175,-1.6279559,-0.29260445,8.699332
332,1778471671,2.6852786811904803,-0.0632518862145441,0.8908500043967813,-2.40029974058308,0.5753406730369148,8.424847491095505
333,1778471671,2.4701810623809606,-0.1081994784290883,0.9304282587935624,-3.1726435811661604,1.4432857960738297,8.150362982191009
334,1778471671,2.25508895,-0.15314592,0.9700055,-3.94496765,2.3112087,7.8758855
335,1778471671,2.2024946,-0.17291456,1.12839865,-5.7720656,2.9975157,7.1898837
336,1778471671,2.02603894139648,-0.22840778280416,1.1600654803302402,-5.868812638346241,3.03141917145888,7.09069321787808
337,1778471671,1.84958328279296,-0.28390100560832,1.19173231066048,-5.9655596766924806,3.06532264291776,6.9915027357561605
338,1778471671,1.67313214139648,-0.33939280780416,1.22339833033024,-6.062304238346241,3.09922524645888,6.89231479287808
339,1778471671,1.4966810000000002,-0.3948846099999999,1.25506435,-6.159048800000001,3.13312785,6.79312685
340,1778471671,1.3106671127018126,-0.3957795043030003,1.3906393235582994,-6.3405790823719155,2.671106157465355,6.48249924934507
341,1778471671,1.124653225403625,-0.3966743986060005,1.526214297116599,-6.522109364743831,2.2090844649307098,6.171871648690139
342,1778471671,0.9386441,-0.39756927,1.6617858,-6.703635,1.7470746,5.861252
343,1778471671,1.03852327153024,-0.2538823929655679,1.6773442258496,-6.55809826289408,1.48089348216192,6.061460512298241
344,1778471671,1.138405,-0.1101918375,1.69290305,-6.4125578,1.21470555,6.26167415
345,1778471671,2.1987116,1.4421343,3.044126,-6.043901,1.3225232,6.4672303
346,1778471671,1.8414118,0.6106312,2.3007276,-4.977941,2.4092526,6.2271605
347,1778471671,2.1987116,1.4421343,3.044126,-4.977941,2.4092526,6.2271605
348,1778471671,2.67511135,2.13812455,3.0375365000000003,-4.977941,2.4092526,6.2271605
349,1778471671,3.1515111,2.8341148,3.0309470000000003,-4.977941,2.4092526,6.2271605
350,1778471671,3.91211555,3.3504788999999997,2.7929912000000003,-2.2024747,1.9321668,5.5836139
351,1778471671,4.67272,3.866843,2.5550354,0.5729916,1.455081,4.9400673
352,1778471671,6.664471,5.0917664,1.1983211,2.5986207,-0.6621779,2.6951375
353,1778471671,6.650072099999999,5.19951775,-0.18096845,2.38603965,-1.8478673,0.97585725
354,1778471671,6.621029597832523,4.839943068409892,0.1979272000490668,1.1706317849465384,-1.845322081719474,-0.3981705914790034
355,1778471671,6.591987095665048,4.480368386819784,0.5768228500981337,-0.044776080106923,-1.842776863438948,-1.772198432958007
356,1778471671,6.56294385,4.1207845,0.9557282,-1.26021506,-1.84023158,-3.14626145
357,1778471671,6.2510471476503495,3.7260445392260326,1.0990396412856018,-0.7375724204778848,-1.7332799233903076,-3.6506269532999776
358,1778471671,5.939158429754079,3.331314683665714,1.2423474138452664,-0.2149431604360842,-1.6263310047079786,-4.154979545008339
359,1778471671,5.627269711857808,2.9365848281053957,1.385655186404931,0.3076860996057164,-1.51938208602565,-4.6593321367167
360,1778471671,5.315373009508158,2.541844867331428,1.5289666276905325,0.8303287391278316,-1.412430429415957,-5.163697640016678
361,1778471671,5.003476307158508,2.147104906557461,1.6722780689761343,1.3529713786499469,-1.305478772806265,-5.6680631433166555
362,1778471671,4.691587589262237,1.7523750509971423,1.8155858415357988,1.8756006386917472,-1.198529854123936,-6.172415735025017
363,1778471671,4.379698871365966,1.357645195436824,1.9588936140954631,2.398229898733548,-1.0915809354416073,-6.676768326733378
364,1778471671,4.067802169016316,0.9629052346628568,2.102205055381065,2.9208725382556633,-0.9846292788319148,-7.181133830033356
365,1778471671,3.7559054666666665,0.5681652738888888,2.2455164966666668,3.443515177777778,-0.8776776222222222,-7.685499333333333
366,1778471671,1.6078491,-1.1709867,0.90496427,5.098892,-2.4446826,-8.879538
367,1778471671,1.586356033425152,-1.2006637561030558,0.9324448345954166,4.522729853309236,-2.1867779523107305,-8.693836701605637
368,1778471671,1.5648624166207572,-1.2303415719484725,0.9599261027022916,3.946552956678716,-1.928866702177968,-8.50813064919718
369,1778471671,1.543368799816362,-1.2600193877938888,0.9874073708091669,3.3703760600481965,-1.6709554520452063,-8.322424596788727
370,1778471671,1.5218757332415145,-1.2896964438969445,1.0148879354045834,2.7942139133574315,-1.4130508043559364,-8.136723298394363
371,1778471671,1.5003826666666666,-1.3193735,1.0423685,2.2180517666666666,-1.1551461566666663,-7.951021999999999
372,1778471671,1.6013409333333333,-1.33194245,1.20869355,2.0060815333333335,-1.0451904133333332,-7.883216
373,1778471671,1.7022992,-1.3445114,1.3750186,1.7941113,-0.93523467,-7.81541
374,1778471671,1.7684387,-1.346952,1.4294434,1.491122,-0.3659083,-7.8184643
375,1778471671,1.8279889,-1.3711137,1.4404259,1.564426,0.047647487,-7.8587813
376,1778471671,1.8165181,-1.3320644,1.2661691,1.7140878,0.6200282,-7.755545
377,1778471671,1.84763579830144,-1.2816660049088,1.129861325282816,1.7140878,0.6200282,-7.755545
378,1778471671,1.8787527,-1.2312689,0.99355704,1.7140878,0.6200282,-7.755545
379,1778471671,1.9358622,-1.1922196,0.835652,1.7159204,1.2559389,-7.5142536
380,1778471671,1.93244525,-1.18026085,0.6417485249999999,1.6108516,1.8075503,-7.3853607
381,1778471671,1.9097475844736,-1.18709451246976,0.60764107593024,1.63834090185856,1.85244947470208,-7.40796313930752
382,1778471671,1.8870505,-1.193928,0.5735345,1.6658295,1.8973475,-7.430565
383,1778471671,1.6774055,-1.2712942,0.63308454,1.6658295,1.8973475,-7.430565
384,1778471671,1.2539662,-1.5358523,0.6530972,2.2382102,1.0256428,-7.5460186
385,1778471671,0.766333548381952,-1.72146022575104,0.47383485547136,3.26661496341248,-0.1347106023334401,-7.38260990839552
386,1778471672,0.27871338,-1.9070634,0.2945771,4.2949934,-1.2950343,-7.2192054
387,1778471672,-0.1104292652138443,-2.142411866668089,-0.2293641912875038,4.301916481844557,-1.4145582600983035,-6.644798236674403
388,1778471672,-0.499581872606922,-2.3777663583340445,-0.7533188956437519,4.308839740922278,-1.5340852800491518,-6.070376368337202
389,1778471672,-0.8887344799999999,-2.61312085,-1.2772736,4.315763,-1.6536123,-5.4959545
390,1778471672,-1.449456,-2.96627175,-2.0831507,1.9547688,-0.1795943749999999,-3.43245175
391,1778471672,-1.630064436494196,-3.130824949933806,-1.8867223413601988,1.40290374452929,0.0998287552436018,-3.180342623757854
392,1778471672,-1.810677496623549,-3.2953823624834517,-1.6902889540900496,0.8510245611323226,0.3792590388109005,-2.9282270434394637
393,1778471672,-1.9912905567529016,-3.4599397750330976,-1.4938555668199007,0.2991453777353551,0.6586893223781991,-2.676111463121073
394,1778471672,-2.171898993247098,-3.6244929749669033,-1.2974272081800995,-0.2527196777353548,0.938112452621801,-2.424002336878927
395,1778471672,-2.352507429741294,-3.7890461749007094,-1.100998849540298,-0.8045847332060648,1.2175355828654029,-2.1718932106367808
396,1778471672,-2.533120489870647,-3.953603587450355,-0.9045654622701492,-1.3564639166030323,1.4969658664327017,-1.9197776303183904
397,1778471672,-2.7137335499999997,-4.118161000000001,-0.708132075,-1.9083430999999995,1.77639615,-1.66766205
398,1778471672,-2.9799695,-4.149247775,-0.6477279174999999,0.0461202500000001,0.7015787499999999,-0.0238236749999999
399,1778471672,-3.24620545,-4.1803345499999995,-0.58732376,2.0005836,-0.37323865,1.6200147
400,1778471672,-2.9059896,-3.8519554,-1.1678139,2.0005836,-0.37323865,1.6200147
401,1778471672,-2.37479225076096,-3.67977089606656,-1.09545002375424,1.70003410301568,0.4309757188121599,2.63711826875904
402,1778471672,-1.8436085,-3.5075908,-1.023088,1.3994923,1.2351695,3.6541958
403,1778471672,-1.0862988,-3.42754,-0.44027928,-0.5699373,3.7232237,5.240002
404,1778471672,-0.3943965,-3.475131,-0.38585448,-2.5405886,5.8985147,7.63215
405,1778471672,0.97392796432896,-3.1550459029632,-0.1736440027406592,-3.35121702591104,4.24335416421632,10.572282633216
406,1778471672,2.3422174,-2.834969,0.038561042,-4.1618247,2.588236,13.51234
407,1778471672,3.90855665060096,-1.515856454856704,0.6249010657516287,-3.79103429617792,0.932812404693248,12.649503544448
408,1778471672,5.474936,-0.19671014,1.2112561,-3.4202344,-0.72265357,11.786645
409,1778471672,5.233696293599853,-0.1661433208925805,1.2184035857723612,-3.3100154563584367,-0.6605365068117683,11.429633301737326
410,1778471672,4.9924627628571425,-0.1355772842857142,1.2255508885714286,-3.1997993342857143,-0.5984210338,11.072630742857145
411,1778471672,4.751229232114432,-0.105011247678848,1.232698191370496,-3.089583212212992,-0.5363055607882317,10.71562818397696
412,1778471672,4.5099895257142855,-0.0744444285714285,1.2398456771428572,-2.979364268571429,-0.4741884976,10.358616485714286
413,1778471672,4.26874981931414,-0.0438776094640091,1.2469931629152182,-2.8691453249298653,-0.4120714344117683,10.001604787451612
414,1778471672,4.027516288571428,-0.0133115728571428,1.2541404657142856,-2.758929202857143,-0.3499559614,9.644602228571427
415,1778471672,3.786282757828718,0.0172544637497234,1.2612877685133532,-2.6487130807844204,-0.2878404883882317,9.287599669691245
416,1778471672,3.545043051428572,0.0478212828571428,1.2684352542857142,-2.538494137142857,-0.2257234252,8.93058797142857
417,1778471672,3.3038033450284257,0.0783881019645623,1.2755827400580757,-2.428275193501294,-0.1636063620117683,8.573576273165896
418,1778471672,3.0625698142857147,0.1089541385714285,1.2827300428571429,-2.3180590714285714,-0.1014908889999999,8.216573714285714
419,1778471672,1.7932107,0.173768765,0.4958023149999999,-3.6166278,1.62673415,6.540228600000001
420,1778471672,1.8938842,0.20744865,0.66700846,-4.937624,2.1148155,6.5881815
421,1778471672,1.5436621,0.19134088,1.0767806,-5.8355956,2.6096163,6.1843996
422,1778471672,1.135598375,0.275662655,1.41492195,-6.41316865,2.9248228,5.67249465
423,1778471672,0.72753465,0.35998443,1.7530633,-6.9907417,3.2400293,5.1605897
424,1778471672,0.97037166,0.2523552,1.5629426,-6.9907417,3.2400293,5.1605897
425,1778471672,0.673598,0.5723142,1.9314691,-6.2570925,2.5271494,5.3780575
426,1778471672,1.2051547,1.1668377,2.3046324,-5.144707,1.7629571,5.6999836
427,1778471672,1.78582049238272,1.90552851963648,2.46143721787264,-4.2326969238784,1.77364711316608,5.565595020195841
428,1778471672,2.36650115,2.64423825,2.61824605,-3.3206635,1.7843374,5.431203
429,1778471672,2.83189381944992,3.0138371683056,2.4046932540592,-2.25575901939712,1.87795367327296,5.185021098912
430,1778471672,3.2972745750000003,3.383426625,2.191145925,-1.1908818,1.97156755,4.9388455
431,1778471672,3.76265533055008,3.7530160816944,1.9775985959408,-0.1260045806028798,2.06518142672704,4.692669901088
432,1778471672,4.228048,4.122615,1.7640458,0.9388999,2.1587977,4.446488
433,1778471672,5.9920936,5.0964036,0.5530337,0.9388999,2.1587977,4.446488
434,1778471672,6.2505503,5.20147015,0.0721189,1.6902642,1.325577535,3.6178494
435,1778471672,6.509007,5.3065367,-0.4087959,2.4416285,0.49235737,2.7892108
436,1778471672,6.13108435,4.7661938,-0.137282207,1.758681,-2.0109684,-2.4917192
437,1778471672,5.42135661560128,3.91161651155072,0.2799390118632447,1.38971367727872,-1.429417236240384,-4.35121690126592
438,1778471672,4.71164705,3.0570611000000003,0.69714955,1.0207558,-0.84788096,-6.210667
439,1778471672,4.18491726722752,2.56419380878208,0.7962965059027199,1.11635497631488,-0.859792677528064,-6.387204740288
440,1778471672,3.658174,2.0713139,0.895446,1.2119566,-0.8717047,-6.563747
441,1778471672,3.18628325987584,1.61174821763456,1.02077100413952,1.513727962624,-1.0506904909888,-6.73020983069696
442,1778471672,2.7144046,1.1521943,1.1460928,1.8154916,-1.2296717,-6.8966684
443,1778471672,2.33325315380096,0.6735431318133759,1.2945997740864,1.8154916,-1.2296717,-6.8966684
444,1778471672,1.95209195,0.1948797099999999,1.44311055,1.8154916,-1.2296717,-6.8966684
445,1778471672,1.4955828,-0.47688788,1.4721533,3.8967094,-2.2455406,-7.1691146
446,1778471672,1.4294441465856,-0.55474114596544,1.398052373504,3.97505192220288,-2.48163700292736,-7.20683504217216
447,1778471672,1.3633054931712,-0.63259441193088,1.323951447008,4.05339444440576,-2.71773340585472,-7.24455548434432
448,1778471672,1.2971651465856,-0.71044967096544,1.249848623504,4.1317389722028794,-2.95383585292736,-7.28227689217216
449,1778471672,1.2310248,-0.78830493,1.1757458,4.2100835,-3.1899383,-7.3199983
450,1778471672,1.14950965,-0.8502955,1.0040515,4.287663,-2.7097983,-7.286401
451,1778471672,1.1618343672416,-0.82442573113728,0.98635757648512,3.91076402436864,-2.95505751064192,-7.2491384769664
452,1778471672,1.1741594,-0.7985553,0.9686632,3.5338554,-3.200323,-7.211875
453,1778471672,1.274955,-0.7753699,1.0904478,3.1215215,-3.0427198,-7.1294084
454,1778471672,1.3723339,-0.74437463,1.2083274,2.1019874,-2.2504275,-6.8704014
455,1778471672,1.6400647,-0.73339206,1.4296874,2.1019874,-2.2504275,-6.8704014
456,1778471672,1.4775226,-0.73461235,1.3079028,1.1777482,-0.16310102,-6.6394944
457,1778471672,1.6400647,-0.73339206,1.4296874,1.1777482,-0.16310102,-6.6394944
458,1778471672,1.6983944,-0.7704277175,1.3619615,1.2461651,0.4086688399999999,-6.71157645
459,1778471672,1.7567241,-0.807463375,1.2942356,1.314582,0.9804387,-6.7836585
460,1778471672,1.7550157,-0.8429737,1.2302926,1.4795157,1.1032226,-6.886284
461,1778471672,1.6532669266323712,-0.896360168480907,1.1453770213802204,1.608156836585472,1.0329285665336028,-6.8218368965162055
462,1778471672,1.551520758,-0.9497452702857144,1.0604636165714287,1.73679468,0.9626363325714288,-6.757391442857143
463,1778471672,1.4497745893676288,-1.0031303720905216,0.9755502117626368,1.865432523414528,0.8923440986092545,-6.69294598919808
464,1778471672,1.348025816,-1.0565168405714285,0.8906346331428572,1.99407366,0.8220500651428572,-6.6284988857142855
465,1778471672,1.2462770426323713,-1.1099033090523356,0.8057190545230776,2.122714796585472,0.75175603167646,-6.564051782230491
466,1778471672,1.144530874,-1.1632884108571429,0.7208056497142857,2.2513526400000003,0.6814637977142858,-6.499606328571429
467,1778471672,1.042784705367629,-1.21667351266195,0.635892244905494,2.379990483414528,0.6111715637521116,-6.435160874912365
468,1778471672,0.941035932,-1.270059981142857,0.5509766662857143,2.50863162,0.5408775302857144,-6.370713771428571
469,1778471672,0.8392871586323712,-1.323446449623764,0.4660610876659347,2.6372727565854723,0.4705834968193171,-6.306266667944778
470,1778471672,0.7375409900000001,-1.3768315514285714,0.3811476828571428,2.7659106,0.4002912628571428,-6.241821214285714
471,1778471672,0.0031821482468266,-2.362107164025015,-0.8800484550542262,2.78713062838016,-0.351965117899837,-5.1180470749692955
472,1778471672,-0.7311954933333333,-3.347408,-2.14127688,2.8083512,-1.1042407566666668,-3.994244166666667
473,1778471672,-1.6922441979326293,-3.8507010670688,-1.852289116003968,1.2505230500549118,-1.5905974536193703,-3.4958735542711468
474,1778471672,-2.6532682999999997,-4.35398125,-1.56330875,-0.30726522,-2.0769417,-2.9975157
475,1778471672,-3.24455053149056,-4.50602682879168,-0.8756252224618241,-0.7177614055815681,-2.13252983846272,-2.72476784121728
476,1778471672,-3.8358479,-4.6580763,-0.18792409,-1.1282681,-2.1881194,-2.452013
477,1778471672,-4.696882,-4.795969,0.9620737,0.8405506,-2.0231857,0.4184427
478,1778471672,-4.1514137,-4.4331777500000005,-0.185361475,2.814867,-1.400714,2.5729644
479,1778471672,-3.5443291207820797,-4.185188286805761,-0.530911583152,2.8002064376576,-0.73900267001344,3.30217541597952
480,1778471672,-2.937229,-3.937192475,-0.8764705374999999,2.7855455,-0.0772744,4.0314051
481,1778471672,-2.3301288792179196,-3.68919666319424,-1.222029491848,2.7708845623424,0.58445387001344,4.76063478402048
482,1778471672,-1.7230443,-3.4412072,-1.5675796,2.756224,1.2461652,5.4898458
483,1778471672,0.94303715,-2.459609,-1.3244987,0.39522982,4.9217415,8.231409
484,1778471672,1.7935767,-1.9973645,-0.8122225,-3.938859,6.686531,10.428692
485,1778471672,2.29548677436672,-1.71510868717184,-0.482130854881024,-4.48681221371136,5.5545830112512,10.6553254008704
486,1778471673,2.797384,-1.4328601,-0.15204766,-5.0347514,4.422664,10.881953
487,1778471673,3.9451854,-0.4761557,1.0860548,-5.0347514,4.422664,10.881953
488,1778471673,3.834200375,0.00219651,1.509921175,-4.632802000000001,2.71773925,10.2836105
489,1778471673,3.72321535,0.48054872,1.93378755,-4.2308526,1.0128145,9.685268
490,1778471673,2.6070194,0.5695075700000001,1.46751625,-1.01006565,0.586430612,6.4482934
491,1778471673,2.36040275673344,0.543454788479872,1.28972280078528,-0.9414969026912,0.8991896026336768,6.261676388728319
492,1778471673,2.1137798,0.51740134,1.1119248,-0.8729264,1.2119566,6.0750546
493,1778471673,1.33389485,0.2452775449999999,0.55169141,-1.2400564,1.56350955,5.96112845
494,1778471673,1.229377375,0.1486308674999999,0.528444955,-2.6111434,2.014480875,5.916077225
495,1778471673,1.1248599,0.05198419,0.5051985,-3.9822304,2.4654522,5.871026
496,1778471673,1.176844543596614,0.0636990399654401,0.6631862481448613,-3.9822304,2.4654522,5.871026
497,1778471673,1.228829187193228,0.0754138899308802,0.8211739962897225,-3.9822304,2.4654522,5.871026
498,1778471673,1.2808125,0.08712844,0.9791577,-3.9822304,2.4654522,5.871026
499,1778471673,1.198077,0.09689073,1.1582958,-5.4232616,2.6823094,5.6541686
500,1778471673,0.99795,0.08444381,1.3449996,-5.4232616,2.6823094,5.6541686
501,1778471673,0.61844105,0.052472305,1.6307905,-5.894239,3.164282,5.197852
502,1778471673,0.499585185,0.1098867715,1.60156465,-5.6505036,3.1740558,5.143332525
503,1778471673,0.38072932,0.167301238,1.5723388,-5.4067682,3.1838296,5.08881305
504,1778471673,0.8561528100000001,0.609471969,1.6779546,-4.73390025,2.57632415,5.285053375
505,1778471673,1.3315763,1.0516427,1.7835704,-4.0610323,1.9688187,5.4812937
506,1778471673,0.71996886,0.45687518,1.5653832,-4.0610323,1.9688187,5.4812937
507,1778471673,1.3315763,1.0516427,1.7835704,-4.0610323,1.9688187,5.4812937
508,1778471673,1.609681906470799,1.563435117239393,1.953842502970014,-3.1402468427313375,2.2868785140756733,5.245904991375397
509,1778471673,1.8877875129415984,2.075227534478786,2.124114605940028,-2.219461385462675,2.6049383281513467,5.010516282750793
510,1778471673,2.165886,2.58700685,2.29438235,-1.2986995,2.92299,4.7751336
511,1778471673,2.8126904707968,3.50159971806144,1.96405505324352,-0.3799699448888319,2.71988004984064,4.390293526016
512,1778471673,3.4595115,4.416216,1.6337193,0.53878313,2.5167649,4.0054436
513,1778471673,3.657249213510336,4.547136085755648,1.4434803328223886,0.6428911745659136,2.1585489268942335,3.6272826118513097
514,1778471673,3.854981865,4.67805282,1.2532462357,0.746996554,1.8003421240000002,3.2491313045000005
515,1778471673,4.052714516489664,4.808969554244352,1.0630121385776117,0.8511019334340865,1.4421353211057666,2.8709799971486913
516,1778471673,4.25045223,4.9398896400000005,0.8727731714,0.955209978,1.0839193480000002,2.492819009
517,1778471673,4.448189943510336,5.070809725755648,0.6825342042223885,1.0593180225659136,0.7257033748942338,2.114658020851309
518,1778471673,4.645922595,5.20172646,0.4923001071,1.163423402,0.3674965720000002,1.7365067135000003
519,1778471673,4.843655246489664,5.332643194244352,0.3020660099776115,1.2675287814340863,0.0092897691057666,1.358355406148691
520,1778471673,5.04139296,5.46356328,0.1118270427999999,1.371636826,-0.3489262039999998,0.9801944180000002
521,1778471673,5.239130673510336,5.594483365755648,-0.0784119243776115,1.4757448705659135,-0.7071421771057661,0.6020334298513089
522,1778471673,5.436863325,5.7254001,-0.2686460215,1.57985025,-1.06534898,0.2238821225
523,1778471673,4.4135800000000005,3.008152,1.4592183788,0.081978112,-0.76541415,-4.40336116
524,1778471673,1.7790553,0.084931915,1.70620415,4.433049,-2.081218,-7.175834
525,1778471673,1.5741693,-0.22111587,1.3874654,4.433049,-2.081218,-7.175834
526,1778471673,1.4743499,-0.520086,1.0221118,5.4440312,-2.7495046,-7.2094316
527,1778471673,1.4086984,-0.6347929,0.9081371,5.3236904,-3.0042353,-7.263188
528,1778471673,1.2820327,-0.788549,0.8266219,5.3236904,-3.0042353,-7.263188
529,1778471673,1.3359693,-0.71215904,0.84761083,4.7928486,-3.0469959,-7.347487
530,1778471673,1.2820327,-0.788549,0.8266219,4.004222,-3.109915,-7.3505416
531,1778471673,1.3349931,-0.8432178,1.0250404,4.004222,-3.109915,-7.3505416
532,1778471673,1.363120725,-0.854200365,1.103016725,3.1509958250000003,-2.774855425,-7.34351655
533,1778471673,1.39124835,-0.86518293,1.18099305,2.29776965,-2.4397958500000003,-7.3364915
534,1778471673,1.429504325,-0.861033965,1.205276725,2.1574233250000003,-2.211026775,-7.29159305
535,1778471673,1.4677603,-0.856885,1.2295604,2.017077,-1.9822577,-7.2466946
536,1778471673,1.5224291,-0.8520039,1.2132086,2.017077,-1.9822577,-7.2466946
537,1778471673,1.516124192397621,-0.8442752614329234,1.1264854199433385,1.8288255038822565,-1.4223901502161205,-7.120854152350517
538,1778471673,1.5098194461988106,-0.8365468207164617,1.039764459971669,1.6405788269411283,-0.8625369328580601,-6.995016926175258
539,1778471673,1.5035147000000002,-0.82881838,0.9530435,1.4523321500000002,-0.3026837154999999,-6.8691797
540,1778471673,1.5148634,-0.8092938,0.8412653,1.3017539,-0.015271631,-6.767776
541,1778471673,1.4799632,-0.8256457,0.792942,1.3017539,-0.015271631,-6.767776
542,1778471673,1.3781912,-0.85444444,0.83077085,1.0512991,0.36713,-6.67187
543,1778471673,1.2795933870681602,-0.887696809364224,0.8646333665542401,1.0512991,0.36713,-6.67187
544,1778471673,1.18099305,-0.92095003,0.8984967500000001,1.0512991,0.36713,-6.67187
545,1778471673,1.0616491,-0.9711038,0.9225364,1.8429805,-0.05009095,-6.4751716
546,1778471673,0.74181203,-1.1748916,0.6599308,2.5372288999999997,-0.3998112749999999,-6.1727933
547,1778471673,0.42197496,-1.3786794,0.3973252,3.2314773,-0.7495316,-5.870415
548,1778471673,-0.016595893,-1.8484896,-0.45004156,3.2314773,-0.7495316,-5.870415
549,1778471673,-0.35168648,-2.2013965,-1.036267,3.7006216,-1.1233811,-5.208848
550,1778471673,-1.148045335,-2.7868896999999997,-1.7612392,2.08824281,-0.90927285,-4.14991305
551,1778471673,-1.5114466,-3.0731688,-1.922195,0.47586402,-0.6951646,-3.0909781
552,1778471673,-1.800168763730928,-3.3445221488522714,-1.463688840797522,-0.3453494775988155,-0.2751911807726943,-2.72486307585845
553,1778471673,-2.0888909274618563,-3.6158754977045433,-1.005182681595044,-1.166562975197631,0.1447822384546114,-2.358748051716899
554,1778471673,-2.3776057,-3.8872219,-0.54668826,-1.98775545,0.5647449065,-1.9926424
555,1778471673,-3.07756185,-4.22109225,0.56975164,-1.98775545,0.5647449065,-1.9926424
556,1778471673,-2.8960630512300747,-4.086168048661552,0.4592334419234478,-1.1753995679852032,0.7564564069171971,-1.2605141592523124
557,1778471673,-2.7145642524601494,-3.951243847323105,0.3487152438468955,-0.3630436859704066,0.9481679073343942,-0.5283859185046249
558,1778471673,-2.5330701,-3.8163231,0.2381998749999999,0.4492914,1.1398745,0.20372358
559,1778471673,-2.303497518088883,-3.7027570048861658,0.0697218920610471,1.221717317095607,1.4628130551114449,0.8698607511134245
560,1778471673,-2.0739190590444414,-3.589188002443083,-0.0987604039694764,1.9941630085478037,1.7857598775557224,1.5360149755567123
561,1778471673,-1.8443406,-3.475619,-0.2672427,2.7666087,2.1087067,2.2021692
562,1778471673,-1.394116025,-2.92581915,-0.7521234250000001,2.247220525,3.142138025,2.7070493250000003
563,1778471673,-0.94389145,-2.3760193000000003,-1.2370041500000002,1.72783235,4.17556935,3.21192945
564,1778471673,-0.6153904149999999,-2.13098575,-1.2424954,0.689056,6.242432,4.2216897
565,1778471673,0.3277689,-1.4355447,-1.1453607,-3.3982434,6.127589,8.676119
566,1778471673,0.5393887696514637,-1.353033860588477,-0.977292392358166,-3.4904831104532748,5.668345242882935,8.796539683543083
567,1778471673,0.7510086393029273,-1.2705230211769545,-0.8092240847163323,-3.58272282090655,5.209101485765869,8.916960367086165
568,1778471673,0.9626339264923984,-1.1880100694609053,-0.6411514744707497,-3.6749648927266376,4.749845971858134,9.037384133438207
569,1778471673,1.1742592136818697,-1.105497117744856,-0.473078864225167,-3.7672069645467254,4.290590457950399,9.15780789979025
570,1778471673,1.3858790833333334,-1.0229862783333332,-0.3050105565833332,-3.859446675,3.8313467008333335,9.278228583333332
571,1778471673,1.597498952984797,-0.9404754389218104,-0.1369422489414994,-3.951686385453274,3.3721029437162677,9.398649266876417
572,1778471673,1.809124240174268,-0.8579624872057613,0.0311303613040832,-4.0439284572733625,2.912847429808533,9.51907303322846
573,1778471673,2.0207495273637393,-0.7754495354897122,0.1992029715496659,-4.136170529093451,2.453591915900798,9.6394967995805
574,1778471673,2.232369397015203,-0.6929386960781894,0.3672712791914997,-4.228410239546725,1.994348158783732,9.759917483123584
575,1778471673,2.4439892666666667,-0.6104278566666667,0.5353395868333334,-4.32064995,1.5351044016666666,9.880338166666666
576,1778471673,2.6265442,-0.0993313,1.0894716,-4.6456304,2.4495697,8.741482
577,1778471673,2.3409972,0.117391534,0.8105141,-4.6456304,2.4495697,8.741482
578,1778471673,1.999744125,0.051496077,0.8197882925000001,-4.9449542,2.2504276,7.8755805
579,1778471673,1.65849105,-0.01439938,0.829062485,-5.244278,2.0512855,7.009679
580,1778471673,1.2415192,-0.18279888,0.9974619,-5.7775636,1.6743816,5.9828143
581,1778471673,0.8251576,-0.26114124,1.3818521,-6.055507,1.5216653,5.588806
582,1778471673,0.9612590052531425,-0.0744797197986944,1.5956850752685878,-5.99757716100762,1.1966877798436686,5.753738259226706
583,1778471673,1.0973604105062849,0.1121818004026111,1.8095180505371755,-5.939647322015241,0.8717102596873374,5.918670518453412
584,1778471673,1.2334653,0.2988480992,2.0233565,-5.881716,0.54672442,6.083607
585,1778471673,1.4335948616256,0.8342555527276851,2.3499704306048,-5.7166273868927995,0.584903998692352,6.1025439923904
586,1778471674,1.6337193,1.3696493,2.676576,-5.551543,0.6230826,6.1214805
587,1778471674,1.52023405262976,1.80406558940032,2.88560817435392,-4.4135158169343995,1.54333927056384,5.54666375774848
588,1778471674,1.4067459,2.238493,3.0946457,-3.2754595,2.4636195,4.9718323
589,1778471674,1.9897987,3.1888518,3.3504179,-3.2754595,2.4636195,4.9718323
590,1778471674,2.7047583322663775,3.6621968940701617,2.9375578897838497,-1.295865726083098,2.556673872592523,4.865135310492631
591,1778471674,3.4197179645327553,4.135541988140322,2.5246978795676993,0.6837280478338039,2.649728245185046,4.758438320985262
592,1778471674,4.1346959,4.6088992,2.1118273,2.6633725,2.742785,4.6517386
593,1778471674,6.955143,5.848344,-1.023576,2.6633725,2.742785,4.6517386
594,1778471674,7.451068,5.8710413,-1.8911997,4.4135013,-0.014660766,1.8930714
595,1778471674,7.136563392377173,5.340020047159039,-1.530853742487296,2.774061808427435,-0.9075307207849558,-0.1948393077341866
596,1778471674,6.822050733333334,4.8089851999999995,-1.1704985600000002,1.1345803466666666,-1.8004235333333334,-2.2828034666666666
597,1778471674,5.931294453509633,3.997860690318892,-0.2717831021191771,0.8068794984215542,-0.96508497929338,-3.990404620464443
598,1778471674,5.040560976754817,3.186756945159446,0.6269093489404114,0.4791870392107771,-0.1297678096466899,-5.697962060232221
599,1778471674,4.1498275,2.3756532000000004,1.5256018,0.15149458,0.70554936,-7.4055195
600,1778471674,3.587962205477523,1.8177335891469264,1.552529696448442,0.15149458,0.70554936,-7.4055195
601,1778471674,3.026096910955047,1.2598139782938529,1.5794575928968837,0.15149458,0.70554936,-7.4055195
602,1778471674,2.464246,0.70190865,1.6063848,0.15149458,0.70554936,-7.4055195
603,1778471674,1.824572,-0.027090356,1.1495095,2.6762006,-0.80756384,-7.960796
604,1778471674,1.4333482,-0.47835222,0.9691513,4.075693,-2.370768,-8.105571
605,1778471674,1.26390930620992,-0.6090465378658559,0.96140241331552,4.1465541070105605,-2.4953860950911997,-8.0765546285952
606,1778471674,1.09447475,-0.73973751,0.953653725,4.2174134,-2.620001,-8.047539
607,1778471674,1.11668364072256,-0.7521842756793601,0.912957668416192,3.99170168914688,-2.26631455224448,-7.6874384843456
608,1778471674,1.1388931,-0.7646313600000001,0.87226057,3.7659842,-1.91261905,-7.32732875
609,1778471674,1.23584611598272,-0.735466169190336,0.830892367993792,3.5222458301888,-1.63589358295936,-7.0041767387072
610,1778471674,1.33279665,-0.706301725,0.789525225,3.2785137,-1.3591752,-6.681033
611,1778471674,1.43957030827968,-0.68537406162752,0.811459571736768,2.91887140348032,-1.31030660052608,-6.73387222364928
612,1778471674,1.5463467,-0.6644458625,0.8333944799999999,2.5592199,-1.26143675,-6.7867128
613,1778471674,1.65312309172032,-0.64351766337248,0.855329388263232,2.19956839651968,-1.21256689947392,-6.83955337635072
614,1778471674,1.75989675,-0.62259,0.877263735,1.8399261,-1.1636983,-6.8923926
615,1778471674,1.875824,-0.6218578,0.9410847,1.8399261,-1.1636983,-6.8923926
616,1778471674,2.0488605,-0.6953191,1.2341975,1.8399261,-1.1636983,-6.8923926
617,1778471674,1.9599919231783016,-0.7369009342625445,1.203664958432877,1.8960015364160712,-1.0641397573753264,-6.892059381710757
618,1778471674,1.8711256213630505,-0.7784817040437574,1.173133198488813,1.9520755373193452,-0.9645837634167213,-6.891726171951793
619,1778471674,1.7822593195477987,-0.8200624738249703,1.142601438544749,2.008149538222619,-0.8650277694581158,-6.891392962192828
620,1778471674,1.6933907427261006,-0.8616443080875149,1.1120688969776256,2.0642249746386905,-0.7654692268334421,-6.891059743903585
621,1778471674,1.6045221659044024,-0.9032261423500596,1.0815363554105024,2.120300411054762,-0.6659106842087685,-6.890726525614342
622,1778471674,1.5156558640891509,-0.9448069121312724,1.0510045954664384,2.1763744119580357,-0.5663546902501632,-6.890393315855378
623,1778471674,1.4267895622738993,-0.9863876819124852,1.0204728355223744,2.23244841286131,-0.4667986962915578,-6.890060106096414
624,1778471674,1.3379209854522012,-1.0279695161750295,0.9899402939552512,2.288523849277381,-0.3672401536668842,-6.889726887807171
625,1778471674,1.249052408630503,-1.0695513504375744,0.9594077523881278,2.344599285693452,-0.2676816110422105,-6.889393669517927
626,1778471674,1.1601861068152517,-1.1111321202187872,0.928875992444064,2.400673286596726,-0.1681256170836052,-6.889060459758964
627,1778471674,1.071319805,-1.15271289,0.8983442325,2.4567472875,-0.068569623125,-6.88872725
628,1778471674,-0.21806515,-2.0305563500000003,-0.00829794,2.7794368,0.044593163,-5.1239376
629,1778471674,-0.98379475,-2.7990925,-1.036267,3.3774738,-0.22174409,-4.397008
630,1778471674,-1.1999869551362354,-2.998566914463209,-1.1860355386254449,3.2685371296048196,-0.2158391103898043,-4.201939997934924
631,1778471674,-1.4161791602724707,-3.198041328926417,-1.3358040772508897,3.1596004592096394,-0.2099341307796086,-4.006871995869849
632,1778471674,-1.6323769,-3.3975208500000003,-1.48557645,3.050661,-0.204029,-3.811799
633,1778471674,-2.4234886,-3.829014,-1.317421,-0.24129178,1.7037032,-2.6847527
634,1778471674,-3.66574,-4.2697816,-0.6106312,-0.24129178,1.7037032,-2.6847527
635,1778471674,-4.0901556,-4.340314,-0.294089,-1.0317514,2.7934868,-1.3292428
636,1778471674,-4.139210950000001,-4.2957738,-0.3165422599999999,-0.1615738500000001,2.5008824,0.5409211500000001
637,1778471674,-4.1882663,-4.2512336,-0.33899552,0.7086037,2.208278,2.4110851
638,1778471674,-2.9557774,-3.764583,-0.79538256,0.7086037,2.208278,2.4110851
639,1778471674,-1.5387809,-3.2964811,-1.2930154,1.4874569,1.7721201,4.502688
640,1778471674,-1.28313095,-3.2638995499999996,-1.2777618,1.15789508,2.03906815,5.2097643
641,1778471674,-1.027481,-3.231318,-1.2625082,0.82833326,2.3060162,5.9168406
642,1778471674,-0.8293065,-3.2757363,-1.0675064,-1.2223413,3.6786306,7.416515
643,1778471674,-0.5776835,-3.4048426,-0.775858,-1.2223413,3.6786306,7.416515
644,1778471674,1.4482356,-3.1478503,0.21501444,-3.051272,4.1850376,9.61563
645,1778471674,2.314734988066936,-2.809011750562776,0.4819362820744621,-3.4021182210321963,3.8270645240043697,10.650045987140212
646,1778471674,3.181212194033468,-2.470181875281388,0.748851291037231,-3.7529554605160977,3.469100612002185,11.684435493570106
647,1778471674,4.0476894,-2.131352,1.0157663,-4.1037927,3.1111367,12.718825
648,1778471674,5.3643785,-0.7238738,1.6918048,-3.568064,1.1319333,13.31503
649,1778471674,4.8579597,0.13862452,1.9004737,-0.2779437,-0.5534439,8.494692
650,1778471674,4.3215218,0.358032,1.7574562,0.39400807,-0.56688297,7.6187115
651,1778471674,3.8899120746752,0.48140137085184,1.48277331598592,0.39400807,-0.56688297,7.6187115
652,1778471674,3.4582913,0.6047739,1.2080834,0.39400807,-0.56688297,7.6187115
653,1778471674,2.5589402999999997,0.6545615499999999,0.69763765,-0.3567453,1.8894062,5.26932355
654,1778471674,2.2099413781622532,0.5671898022484575,0.6686357474860692,-0.5683064946546972,2.1370081537696164,5.165273721236571
655,1778471674,1.860942456324507,0.4798180544969151,0.6396338449721386,-0.7798676893093944,2.3846101075392325,5.061223892473142
656,1778471674,1.5119346,0.39244407,0.6106312,-0.9914343,2.6322184,4.9571714
657,1778471674,1.31961508834176,0.3252054343564799,0.67189038410752,-1.77274095059712,3.31822898082304,4.79803916313344
658,1778471674,1.1273005,0.25796852,0.733148,-2.5540276,4.004222,4.638911
659,1778471674,1.3108315,0.40562314,0.9237567,-4.220468,4.41961,5.1709743
660,1778471674,1.31412625,0.52252657,1.02369815,-4.2555928,4.4070873,5.0396383
661,1778471674,1.317421,0.63943,1.1236396,-4.2907176,4.3945646,4.9083023
662,1778471674,1.2368821,0.8118564250000001,1.13889315,-4.2907176,4.3945646,4.9083023
663,1778471674,1.1563432,0.98428285,1.1541467,-4.2907176,4.3945646,4.9083023
664,1778471674,1.2781278,1.4963149,0.9169231,-4.2907176,4.3945646,4.9083023
665,1778471674,1.6892492330493143,2.072177861268741,0.8514332773213326,-3.4546323976618565,3.8565867186283462,4.644607699669758
666,1778471674,2.100360141524657,2.6480260806343705,0.7859451311606663,-2.618568598830928,3.318622609314173,4.380919849834879
667,1778471674,2.51147105,3.2238743,0.720456985,-1.7825048,2.7806585,4.117232
668,1778471674,2.9676750750000003,3.58745865,0.5862255075,-1.22753373,2.411085,3.72414015
669,1778471674,3.4238791,3.951043,0.45199403,-0.67256266,2.0415115,3.3310483
670,1778471674,4.33335855,4.46661355,0.216356745,-0.719904725,2.15299455,3.40771175
671,1778471674,4.562098267094144,4.5559556764061435,0.1014255556380544,-0.561265051863808,2.1199929724256,3.295481979059456
672,1778471674,4.79084384,4.64530009,-0.013508576,-0.4026213175000001,2.08699055,3.1832493349999997
673,1778471674,5.019589412905856,4.734644503593856,-0.1284427076380544,-0.243977583136192,2.0539881275744,3.0710166909405436
674,1778471674,5.24832913,4.82398663,-0.243373897,-0.08533791,2.02098655,2.9587869199999997
675,1778471674,5.477068847094144,4.913328756406144,-0.3583050863619457,0.0733017631361919,1.9879849724256,2.8465571490594557
676,1778471674,5.705814419999999,5.00267317,-0.4732392180000001,0.2319454974999998,1.95498255,2.734324505
677,1778471674,5.9345599929058555,5.092017583593856,-0.5881733496380546,0.3905892318638078,1.9219801275744,2.622091860940544
678,1778471674,6.1632997099999995,5.18135971,-0.7031045390000001,0.5492289049999999,1.88897855,2.50986209
679,1778471674,6.392039427094144,5.270701836406144,-0.8180357283619457,0.7078685781361919,1.8559769724256,2.397632319059456
680,1778471674,6.620785,5.36004625,-0.93296986,0.8665123124999999,1.82297455,2.285399675
681,1778471674,5.49231735958397,4.1441842682211165,-0.5544057442921598,1.334612771219646,0.7980100445333812,-0.2930443215476123
682,1778471674,4.363878607569763,2.928353412110558,-0.1758513197016355,1.8027012467209345,-0.2269282221777537,-2.8714223107738066
683,1778471674,3.2354398555555557,1.712522556,0.2027031048888888,2.270789722222222,-1.2518664888888889,-5.449800300000001
684,1778471674,1.5031487,-0.29384494,1.0465174,3.164282,-2.3225098,-6.6804223
685,1778471674,1.4775226,-0.37072295,0.9613415,3.8783834,-2.4764478,-6.7525043
686,1778471675,1.44042595,-0.51068978,0.6112413999999999,3.8783834,-2.4764478,-6.7525043
687,1778471675,1.41972208668379,-0.5248041791111718,0.6555776933175751,3.9024103232685943,-2.7309706227548896,-6.846575927823668
688,1778471675,1.399017693341895,-0.5389189395555859,0.6999151216587876,3.926437861634297,-2.9854999613774447,-6.9406499639118335
689,1778471675,1.3783133,-0.5530337000000001,0.74425255,3.9504654,-3.2400293,-7.034724
690,1778471675,1.4255994,-0.5573047,0.907709875,3.4474179499999997,-4.01094115,-7.241502
691,1778471675,1.4728855,-0.5615757,1.0711672,2.9443705,-4.781853,-7.44828
692,1778471675,1.518036,-0.55742675,1.1473131,2.094046,-4.632191,-7.415293
693,1778471675,1.63176818075328,-0.524844692955008,1.17629527096704,1.78555512636736,-4.15005947879552,-7.34672252230912
694,1778471675,1.74549745,-0.49226347,1.2052767,1.47707215,-3.6679403,-7.2781538
695,1778471675,1.76172701725888,-0.523624433574528,1.08038199867264,1.3484866709152,-3.4191686343180803,-7.25265052644608
696,1778471675,1.777957,-0.5549862,0.9554841,1.2198979,-3.1703906,-7.2271466
697,1778471675,1.8877828,-0.5095915,1.0106411,0.56382865,-1.858863,-7.2369204
698,1778471675,1.5309712,-0.5937913,0.93937635,0.56382865,-1.858863,-7.2369204
699,1778471675,1.5152704346298256,-0.6079463684170734,0.994695089214766,0.4190560474840427,-1.5996569238403249,-7.009886041435983
700,1778471675,1.4995692673149128,-0.6221017992085367,1.050015244607383,0.2742797387420214,-1.3404442119201625,-6.782845870717991
701,1778471675,1.4838681,-0.63625723,1.1053354,0.12950343,-1.0812315,-6.5558057
702,1778471675,1.2283401,-0.79440635,1.2378583,0.84665924,-1.5118915,-6.510602
703,1778471675,0.7665897039807232,-1.13223822569664,1.05329239997376,2.024697740914176,-1.8167093482816,-6.177073769216
704,1778471675,0.304827487,-1.47007875,0.868721775,3.2027664,-2.121535,-5.843537
705,1778471675,-0.102259986,-1.790892,0.64357895,3.2027664,-2.121535,-5.843537
706,1778471675,-1.0123495,-2.574072,-0.08127106,3.2027664,-2.121535,-5.843537
707,1778471675,-1.5802706,-2.9652956,-1.5473229,3.7641516,-2.0598376,-3.8331795
708,1778471675,-1.62639745,-3.1981262000000004,-1.71425805,3.7641516,-2.0598376,-3.8331795
709,1778471675,-1.6725243,-3.4309568,-1.8811932,3.7641516,-2.0598376,-3.8331795
710,1778471675,-1.62639745,-3.1981262,-1.71425805,1.363451235,-1.5628988,-2.6203065
711,1778471675,-2.14812422181184,-3.61344535884672,-1.0209003165925887,-0.8725923107762558,-0.08172220930304,-1.81382197313408
712,1778471675,-2.66986435,-4.02877515,-0.3275248329999999,-3.1086931,1.3994923,-1.0073168
713,1778471675,-3.7138193,-4.28833,1.1988091,-1.3213016,1.450805,0.5699373
714,1778471675,-3.4907508,-4.247084,1.1458488,-1.3213016,1.450805,0.5699373
715,1778471675,-3.2288818526205754,-4.0930458622845345,0.6998417836171793,-0.3569654582141515,1.1335677142523124,1.063711606143974
716,1778471675,-2.9670062013102876,-3.9390037811422673,0.2538233493085896,0.6073953708929244,0.8163223071261563,1.5574985530719871
717,1778471675,-2.70513055,-3.7849617,-0.192195085,1.5717562,0.4990769,2.0512855
718,1778471675,-1.8571536325,-3.385012975,-0.7166130925,1.5619824175,2.395355325,4.173736825
719,1778471675,-1.009176715,-2.98506425,-1.2410311,1.5522086350000002,4.29163375,6.296188150000001
720,1778471675,-0.54961693,-2.749793,-1.4748379,2.8087585,2.8515189,5.649282
721,1778471675,0.2037974135801599,-2.4041425007302397,-1.168603170245632,0.7889066387271042,4.6722261547545605,6.96326989382976
722,1778471675,0.95719247,-2.0585008499999997,-0.86237628,-1.230893515,6.492886800000001,8.27722415
723,1778471675,1.1257005601155,-1.8893505846092924,-0.7204540417758932,-1.3805102213860367,6.069927136494173,8.315276200971429
724,1778471675,1.294212964093324,-1.7201959889163634,-0.5785281702959821,-1.530130758008784,5.646956645082363,8.353329226087832
725,1778471675,1.4627253680711485,-1.5510413932234344,-0.4366022988160711,-1.679751294631531,5.223986153670552,8.391382251204233
726,1778471675,1.631233458186648,-1.381891127832727,-0.2946800605919643,-1.8293680010175677,4.801026490164725,8.429434302175661
727,1778471675,1.799741548302148,-1.2127408624420195,-0.1527578223678575,-1.9789847074036044,4.378066826658897,8.46748635314709
728,1778471675,1.968253952279972,-1.0435862667490907,-0.0108319508879465,-2.128605244026351,3.9550963352470863,8.505539378263492
729,1778471675,2.1367663562577963,-0.8744316710561616,0.1310939205919644,-2.278225780649098,3.532125843835276,8.543592403379895
730,1778471675,2.3052744463732964,-0.7052814056654544,0.2730161588160713,-2.4278424870351354,3.1091661803294484,8.581644454351324
731,1778471675,2.473782536488796,-0.5361311402747472,0.4149383970401781,-2.577459193421172,2.686206516823621,8.619696505322752
732,1778471675,2.6422949404666203,-0.366976544581818,0.5568642685200891,-2.7270797300439193,2.2632360254118105,8.657749530439153
733,1778471675,2.810807344444445,-0.1978219488888889,0.6987901400000001,-2.8767002666666666,1.840265534,8.695802555555556
734,1778471675,2.363206305555555,-0.0184127594444444,0.5780767083333334,-2.8839626333333332,1.802222217,7.548224277777777
735,1778471675,1.9156052666666668,0.16099643,0.4573632766666666,-2.891225,1.7641789,6.400645999999999
736,1778471675,1.26104385,-0.136916117,1.088983485,-4.4990225,1.5974126,5.615073
737,1778471675,1.1190000991510152,-0.1247130464035942,1.2560028070932785,-4.956772045492247,1.899185183519503,5.515907640932868
738,1778471675,0.9769599845755076,-0.1125102882017971,1.4230178535466391,-5.414509872746123,2.2009500417597514,5.416744820466434
739,1778471675,0.83491987,-0.10030753,1.5900329,-5.8722477,2.5027149,5.317582
740,1778471675,0.7311946448894084,0.0231864894688107,1.575389358376711,-5.713625113104584,2.926048079063556,5.352605298861658
741,1778471675,0.627469419778817,0.1466805089376216,1.5607458167534218,-5.555002526209169,3.349381258127112,5.3876285977233165
742,1778471675,0.52374685,0.270171367,1.54610265,-5.396384,3.7727036,5.422651
743,1778471675,1.113267115,1.251525625,1.38612315,-4.67678435,3.62059825,5.74243885
744,1778471675,1.4697477991443522,1.7417208181681598,1.36305944228832,-4.10515987080032,3.33677139206272,5.7144149912992
745,1778471675,1.826228483288704,2.23191601133632,1.33999573457664,-3.53353539160064,3.0529445341254395,5.6863911325984
746,1778471675,2.1827000416443525,2.7220986556681597,1.31693261728832,-2.96192554580032,2.76912494206272,5.6583679912992
747,1778471675,2.5391716000000004,3.2122813,1.2938695,-2.3903157,2.48530535,5.63034485
748,1778471675,4.6915126,5.196467,0.2613853,-1.6108516,2.2321017,5.3682837
749,1778471675,3.329673,4.127252,1.057256,-0.00061086525,1.6212363,4.742147
750,1778471675,4.6915126,5.196467,0.2613853,1.5033394,0.5369505,3.5289686
751,1778471675,5.989653,5.993314,-0.6633476,1.5033394,0.5369505,3.5289686
752,1778471675,6.3625727,6.0550604,-0.84565836,1.6633861,-0.97005403,1.3029755
753,1778471675,6.34418668132864,5.586789806213121,-0.645203440876544,0.3188544402150399,-1.302063564667648,-1.0516347386252796
754,1778471675,6.325801133333333,5.1185312000000005,-0.4447536533333334,-1.0256428,-1.6340646,-3.4061846999999994
755,1778471675,5.855199037267468,4.350604639447726,0.3349823567795337,-1.1682773990050177,-1.4164984631762638,-3.6983769298554456
756,1778471675,5.384584893633734,3.5826584197238627,1.114738328389767,-1.3109156495025087,-1.198926756588132,-3.9905766399277223
757,1778471675,4.913970750000001,2.8147122,1.8944943,-1.4535539,-0.98135505,-4.28277635
758,1778471675,3.8651347,1.5573293,2.8173969,0.6102544,0.6169739,-7.189273
759,1778471675,3.2706113,0.912286,2.8249626,0.6102544,0.6169739,-7.189273
760,1778471675,2.7588232,0.40733153,2.6546109,2.0042489,0.23823744,-7.6626935
761,1778471675,2.18729478452992,-0.1449160711788159,2.1555072865555203,3.008982385424,-0.365457897201408,-7.849467765679999
762,1778471675,1.615781,-0.697149535,1.65641645,4.0136901499999995,-0.96913778,-8.03623725
763,1778471675,1.4365240149139276,-0.8393104526448385,1.4035232327661535,4.904418209157649,-1.8701825419725568,-8.055275575075093
764,1778471675,1.257262440790297,-0.9814750096557524,1.1506235413830768,5.795169071245492,-2.7712503709862784,-8.074314387537546
765,1778471675,1.0780008666666667,-1.1236395666666663,0.8977238500000001,6.6859199333333335,-3.6723182,-8.093353200000001
766,1778471675,0.9884928758333332,-1.1426150083333333,0.7218399600000001,6.086966616666667,-3.7924551,-7.885048350000001
767,1778471675,0.898984885,-1.16159045,0.54595607,5.4880133,-3.912592,-7.6767435
768,1778471675,0.92833276,-1.07647549,0.5933641850000001,4.87501005,-3.958407,-7.51608575
769,1778471675,0.957680635,-0.99136053,0.6407723000000001,4.2620068,-4.004222,-7.355428
770,1778471675,1.087843379263698,-0.9032159388434724,0.8283693824844053,3.49690462895543,-3.798056625967044,-7.169115823217592
771,1778471675,1.2180061235273965,-0.8150713476869448,1.0159664649688105,2.7318024579108604,-3.591891251934088,-6.982803646435185
772,1778471675,1.3481722,-0.7269245,1.2035683499999998,1.9666807,-3.3857206,-6.7964867
773,1778471675,1.47898857442816,-0.65877065264192,1.31949700886784,1.83213590284864,-3.14854913924416,-6.74731139556416
774,1778471675,1.6098016,-0.5906185500000001,1.4354227,1.69759455,-2.9113837499999997,-6.69813735
775,1778471675,1.5865671809057786,-0.6344619560616127,1.3539444642116656,1.6737279433698922,-2.6969853831120822,-6.7234910116227224
776,1778471675,1.5633321670028149,-0.6783064845287874,1.272464142553796,1.6498607257468338,-2.482581527555717,-6.74884532230749
777,1778471675,1.5400971530998513,-0.722151012995962,1.1909838208959265,1.6259935081237755,-2.2681776719993523,-6.774199632992259
778,1778471675,1.51686273400563,-0.7659944190575746,1.109505585107592,1.602126901493668,-2.053779305111435,-6.799553294614982
779,1778471675,1.493628314911409,-0.8098378251191872,1.028027349319258,1.57826029486356,-1.8393809382235171,-6.8249069562377045
780,1778471675,1.470393301008445,-0.8536823535863619,0.9465470276613884,1.5543930772405017,-1.624977082667152,-6.850261266922472
781,1778471675,1.4471582871054811,-0.8975268820535365,0.8650667060035188,1.5305258596174434,-1.4105732271107871,-6.875615577607241
782,1778471675,1.4239238680112598,-0.9413702881151492,0.7835884702151845,1.5066592529873355,-1.1961748602228697,-6.900969239229964
783,1778471675,1.4006894489170385,-0.985213694176762,0.7021102344268502,1.4827926463572276,-0.981776493334952,-6.9263229008526865
784,1778471675,1.377454435014075,-1.0290582226439364,0.6206299127689806,1.4589254287341695,-0.767372637778587,-6.951677211537454
785,1778471675,1.3542194211111112,-1.072902751111111,0.539149591111111,1.4350582111111112,-0.5529687822222222,-6.977031522222223
786,1778471676,0.3328669805555554,-2.2233141005555557,-0.2981023369444445,2.2227011055555557,-1.215384241111111,-6.688533461111112
787,1778471676,-0.68848546,-3.37372545,-1.135354265,3.010344,-1.8777997,-6.4000354
788,1778471676,-1.666911,-4.006444,-1.910236,3.7378845,-2.117259,-5.801998
789,1778471676,-2.502319,-4.7164063,-2.2079859,2.466063,-1.4556919,-4.4550405
790,1778471676,-3.561893425,-5.196039799999999,-0.6093499074999998,-0.32834005,-0.0400117,-2.106568935
791,1778471676,-4.62146785,-5.6756733,0.989286085,-3.1227431,1.3756685,0.24190263
792,1778471676,-4.845390425,-5.67146315,1.5414045424999998,-3.1227431,1.3756685,0.24190263
793,1778471676,-5.069313,-5.667253,2.093523,-3.1227431,1.3756685,0.24190263
794,1778471676,-5.0287995,-5.541808,2.1752822,-3.1227431,1.3756685,0.24190263
795,1778471676,-4.7858436098752,-5.4119711619328,1.88815257530624,-1.00001357128576,0.570252999450368,1.645652946765952
796,1778471676,-4.5428815,-5.282131,1.6010156,1.1227703,-0.23518312,3.0494392
797,1778471676,-1.734881,-4.266487,-0.466637455,2.56593945,1.86985855,6.363689150000001
798,1778471676,0.03904916,-3.4636605,-1.0526189,0.23579398,6.7402873,9.264382
799,1778471676,1.667399,-2.5706549,-0.94938266,-2.702468,8.389624,10.742676
800,1778471676,2.78274065,-1.90730735,-0.5764632000000001,-2.702468,8.389624,10.742676
801,1778471676,3.8980823,-1.2439598,-0.20354374,-2.702468,8.389624,10.742676
802,1778471676,4.4623427,-0.36022848,0.90447617,-3.966348,4.9223523,11.057272
803,1778471676,4.11379418197085,-0.2323039948558257,1.0027888854415128,-3.3526425240408573,3.2138931247431475,10.24941637091255
804,1778471676,3.7652367409854257,-0.1043762348029128,1.1011041177207563,-2.738921337020429,1.5053902123715737,9.441540060456274
805,1778471676,3.4166793,0.02355152525,1.19941935,-2.12520015,-0.2031127,8.63366375
806,1778471676,3.00849365,0.0131180768749999,0.9947773375,-2.431549075,0.96257085,8.205905375
807,1778471676,2.600308,0.0026846284999999,0.790135325,-2.737898,2.1282544,7.778147
808,1778471676,2.44539265,-0.05967200075,0.7651804625,-3.08792385,2.51340495,7.715228
809,1778471676,2.2904773,-0.12202863,0.7402256,-3.4379497,2.8985555,7.652309
810,1778471676,2.0098114,-0.31898284,0.67677075,-4.92113,3.6664133,7.315111
811,1778471676,1.91456929411456,-0.5012302372034559,0.65218228973632,-5.7650296979456,3.35426514554752,7.05610766528512
812,1778471676,1.81932475,-0.6834823,0.6275932,-6.608951,3.042109,6.7970977
813,1778471676,1.461903,-0.942549115,1.304852,-6.77999325,2.9642236,6.74670135
814,1778471676,1.390394938918585,-0.9042487815337682,1.4255208243354225,-6.520011635579142,2.819185298544551,6.743097250239788
815,1778471676,1.3188868778371698,-0.8659484480675363,1.5461896486708444,-6.2600300211582836,2.674146997089102,6.739493150479575
816,1778471676,1.2473769861259592,-0.8276471341002174,1.666861562167711,-6.000041751122905,2.529104982605609,6.735888958453227
817,1778471676,1.1758670944147482,-0.7893458201328984,1.7875334756645775,-5.740053481087525,2.384062968122116,6.732284766426879
818,1778471676,1.1043590333333333,-0.7510454866666666,1.9082023,-5.480071866666667,2.239024666666667,6.7286806666666665
819,1778471676,1.20417718897792,-0.636787485854464,1.65027770147712,-5.25955225602048,2.1811968235392003,6.7167689858048
820,1778471676,1.3039979,-0.52252656,1.3923465,-5.039027,2.1233675,6.704857
821,1778471676,2.3209844,0.07297312,1.3064384,-2.9846876,-0.4783075,7.480045
822,1778471676,1.9793042,-0.16205402,1.1870944,-2.9804115,-0.46303585,7.6095486
823,1778471676,2.6338658,0.44491637,1.6215163,-2.9804115,-0.46303585,7.6095486
824,1778471676,3.0856156,1.2771516,2.1513648,-2.9681942,-0.07941248,7.68835
825,1778471676,3.77691664854016,1.89364804105344,2.05398465355008,-2.72537214191744,0.781613080986112,7.80747032472064
826,1778471676,4.4682,2.5101287,1.956607,-2.4825563,1.6426166,7.9265876
827,1778471676,5.41441,3.1393082,1.7035197,-0.8197812,1.7116444,7.538688
828,1778471676,5.548854384470653,3.146193408281408,1.7563532010081253,-0.6040078057309464,1.5607659310242534,6.754905929729886
829,1778471676,5.683298768941307,3.153078616562816,1.8091867020162509,-0.3882344114618928,1.409887462048507,5.971123859459773
830,1778471676,5.8177397116797716,3.159963648585149,1.862018850504063,-0.1724665409210288,1.2590128555121267,5.187361853753832
831,1778471676,5.952180654418236,3.166848680607481,1.9148509989918745,0.0433013296198352,1.1081382489757468,4.403599848047891
832,1778471676,6.086625038888889,3.173733888888889,1.9676845,0.2590747238888888,0.95725978,3.6198177777777776
833,1778471676,6.221069423359542,3.1806190971702972,2.020518001008125,0.4748481181579423,0.8063813110242535,2.8360357075076643
834,1778471676,6.355510366098007,3.187504129192629,2.0733501494959374,0.6906159886988064,0.6555067044878734,2.0522737018017234
835,1778471676,6.489951308836472,3.1943891612149615,2.1261822979837492,0.9063838592396704,0.5046320979514933,1.2685116960957823
836,1778471676,6.624395693307125,3.2012743694963697,2.1790157989918746,1.122157253508724,0.3537536289757467,0.484729625825669
837,1778471676,6.758840077777778,3.208159577777778,2.2318493,1.3379306477777777,0.20287516,-0.2990524444444444
838,1778471676,2.7383224000000004,-0.21745499,0.7767122,5.0200906,0.9584476,-6.3316183
839,1778471676,2.4572952629245317,-0.3926851110343209,0.6930426713115677,5.266265031902583,0.5422518431651704,-6.466413566131345
840,1778471676,2.176260931462266,-0.5679197180171603,0.6093710006557839,5.512445765951292,0.1260454315825851,-6.6012122830656725
841,1778471676,1.8952266,-0.7431543249999999,0.52569933,5.7586265,-0.29016098,-6.736011
842,1778471676,1.7675043899101437,-0.804290128301134,0.5611686773243619,5.583716992580235,-0.6472086731540189,-6.857063133675237
843,1778471676,1.6397821798202872,-0.8654259316022681,0.5966380246487238,5.4088074851604695,-1.0042563663080375,-6.978115267350474
844,1778471676,1.5120567,-0.9265633,0.63210828,5.2338935,-1.3613132,-7.0991705
845,1778471676,1.3676969,-0.9942892,0.6469958,5.209459,-1.6102408,-7.163006
846,1778471676,1.0701911000000002,-1.06518785,0.60208925,5.1398202,-1.8478674,-7.208515500000001
847,1778471676,1.06036787573888,-1.0473413909376,0.6052619468889601,4.91487190437504,-2.0534208938816003,-7.1720930912128
848,1778471676,1.0505444,-1.029494475,0.6084347250000001,4.6899178500000005,-2.25897965,-7.13566975
849,1778471676,1.04072092426112,-1.0116475590624,0.61160750311104,4.46496379562496,-2.4645384061184004,-7.0992464087872005
850,1778471676,1.0308977,-0.9938011,0.6147802,4.2400155,-2.6700919,-7.062824
851,1778471676,1.3568930272064,-0.862927090208768,0.612888791710336,3.88984150728448,-2.57571445804672,-7.1023769937151995
852,1778471676,1.6828967,-0.73204973,0.610997335,3.5396585500000004,-2.4813346000000003,-7.141931
853,1778471676,1.9230491,-0.793063995,0.695441125,2.23759935,-2.0366247499999997,-7.771122
854,1778471676,1.93763155,-0.8082565625,0.7150267375,2.092518875,-1.981341475,-7.9172715
855,1778471676,1.952214,-0.82344913,0.73461235,1.9474384,-1.9260582,-8.063421
856,1778471676,1.7760046,-1.006004,0.79513854,1.4404203,-1.971873,-8.235685
857,1778471676,1.6598334,-1.0538392,0.9198518,1.4404203,-1.971873,-8.235685
858,1778471676,1.55110585,-0.949138625,1.05115455,1.4746287,-2.0909917,-8.122675
859,1778471676,1.5531559190070243,-0.9342024729481548,1.000952501075561,1.537791513204514,-2.172907901167363,-8.063116269889202
860,1778471676,1.5552060404964876,-0.9192659385259226,0.9507491669622194,1.6009559433977432,-2.2548261994163186,-8.003556015055398
861,1778471676,1.5572561619859506,-0.9043294041036904,0.9005458328488777,1.6641203735909724,-2.336744497665274,-7.943995760221594
862,1778471676,1.5593062309929753,-0.8893932520518453,0.8503437839244389,1.7272831867954863,-2.418660698832637,-7.884437030110797
863,1778471676,1.5613563,-0.8744571,0.800141735,1.7904460000000002,-2.5005769,-7.8248783
864,1778471676,0.82991663,-1.21638135,0.518011515,1.2864822,-2.588847,-7.326107
865,1778471676,0.395916294866816,-1.52511772677504,0.400679490669312,1.09222456353408,-2.44498630860672,-6.7894549809420806
866,1778471676,-0.03807293,-1.8338462,0.28335047,0.8979719,-2.3011293,-6.2528167
867,1778471676,-0.25015867,-2.3895645,0.16913168,0.8979719,-2.3011293,-6.2528167
868,1778471676,-0.603065485,-2.7040322999999997,-0.080355844,0.74281215,-0.920879315,-5.274210350000001
869,1778471676,-0.9559723,-3.0185001,-0.3298433679999999,0.5876524,0.45937067,-4.295604
870,1778471676,-1.9304928,-3.5744627,-0.9830626,0.3555236,0.91446525,-3.825849
871,1778471676,-3.551521,-4.3984,-1.2798362,0.3555236,0.91446525,-3.825849
872,1778471676,-3.1009915,-4.1675215,-1.4096746,0.3555236,0.91446525,-3.825849
873,1778471676,-3.8399966,-4.5545964,-0.92937,-0.7538077,1.6420058,-2.4959953
874,1778471676,-4.230244,-4.69981,-0.447601,-1.5399913,2.144748,-1.169807
875,1778471676,-4.6966376,-4.723972,-0.25089085,-0.57604593,2.107485,0.8197812
876,1778471676,-3.8922248,-4.3432426,-0.44442827,-0.57604593,2.107485,0.8197812
877,1778471676,-2.9591942,-4.1143174,-0.74437463,1.0451905,1.314582,3.6658022
878,1778471676,-1.3100992,-3.7350519,-1.0987457,-0.6072,3.8105774,7.562512
879,1778471676,-2.2311714,-3.9220002,-0.9610975,-0.6072,3.8105774,7.562512
880,1778471676,-1.3100992,-3.7350519,-1.0987457,-0.6072,3.8105774,7.562512
881,1778471676,-0.8815749629599744,-3.549428751554112,-0.9286020654393536,-0.86906602059216,3.665769942738272,7.84187186951056
882,1778471676,-0.453061696,-3.363810355,-0.7584627865,-1.1309253375,3.5209661925,8.1212245875
883,1778471676,-0.0245484290400256,-3.178191958445888,-0.5883235075606463,-1.39278465440784,3.376162442261728,8.40057730548944
884,1778471676,0.4039758079999999,-2.99256881,-0.418179873,-1.6546506749999998,3.231354985,8.679937175000001
885,1778471676,0.8325000450400255,-2.806945661554112,-0.2480362384393535,-1.91651669559216,3.086547527738272,8.95929704451056
886,1778471677,1.261013312,-2.621327265,-0.0778969594999999,-2.1783760125,2.9417437775,9.2386497625
887,1778471677,1.6895265789599745,-2.435708868445888,0.0922423194393537,-2.44023532940784,2.7969400272617277,9.51800248048944
888,1778471677,2.118050816,-2.25008572,0.2623859540000001,-2.70210135,2.65213257,9.79736235
889,1778471677,2.5465750530400255,-2.064462571554112,0.4325295885606465,-2.96396737059216,2.507325112738272,10.07672221951056
890,1778471677,2.97508832,-1.878844175,0.6026688675,-3.2258266874999997,2.3625213625,10.3560749375
891,1778471677,2.370001905205248,-1.66836278169632,0.532579565904544,-3.50918814167696,1.74158475434032,9.15906146571856
892,1778471677,1.7649,-1.457876,0.46248847,-3.79255685,1.12063225,7.96201735
893,1778471677,1.9999271,-1.5674576999999998,0.3508322849999999,-4.4489317,1.0415252,8.207585
894,1778471677,2.1919578613165283,-1.592473353197027,0.5123561449787519,-5.557846337140639,0.5960046351574834,8.254417600356694
895,1778471677,2.3839886226330567,-1.617489006394054,0.6738800049575039,-6.666760974281277,0.1504840703149667,8.30125020071339
896,1778471677,2.5760243,-1.6425053,0.835408,-7.775704,-0.2950479,8.348084
897,1778471677,2.554059,-1.6376241,1.2002735,-7.775704,-0.2950479,8.348084
898,1778471677,2.3495393,-1.6083373,1.6119982,-8.326094,-0.20219639,7.9308634
899,1778471677,1.6825306,-1.615415,2.3051207,-8.579602,0.045814894,7.539299
900,1778471677,1.5547666999999998,-1.62237055,2.4483823499999997,-8.46292675,0.2968804969999999,7.22714685
901,1778471677,1.4270028,-1.6293261,2.591644,-8.3462515,0.5479461,6.9149947
902,1778471677,2.4693713,-1.3818521,2.6036026,-7.072598,-0.25595254,7.170947
903,1778471677,3.03923770561664,-1.061897175475456,2.7896939180006397,-6.10316705887488,-1.150858715054336,7.599158018828801
904,1778471677,3.6091187,-0.74193406,2.97579,-5.1337113,-2.0457878,8.02738
905,1778471677,4.054571435629378,-0.2739056257502965,2.9393028272935564,-4.554397613172963,-2.0881418228327373,8.046520993335438
906,1778471677,4.500012767814689,0.1941108271248517,2.9028165886467785,-3.9750987565864815,-2.1304947614163687,8.065661496667719
907,1778471677,4.945454099999999,0.66212728,2.86633035,-3.3957999,-2.1728477,8.084802
908,1778471677,5.544547474637632,1.086986474502465,2.474638857130452,-2.510891458653546,-1.690137037106081,7.724509910656229
909,1778471677,6.143640849275266,1.511845669004931,2.0829473642609044,-1.6259830173070915,-1.207426374212162,7.364217821312457
910,1778471677,6.742718887318817,1.9366939872512328,1.6912658985652262,-0.7410972293267728,-0.7247280685530405,7.0039349553281145
911,1778471677,7.341796925362368,2.361542305497535,1.299584432869548,0.1437885586535459,-0.2420297628939189,6.643652089343771
912,1778471677,7.9408903,2.7864015,0.90789294,1.028697,0.2406809,6.28336
913,1778471677,7.750281875,3.7592749,1.4742887850000002,0.1313360499999999,-1.4370605,2.9764408
914,1778471677,6.8116374,3.3052673,3.95568,-1.5045611,0.019547688,-0.44532076
915,1778471677,6.530854508756017,2.8273706728735024,3.45675409844438,1.1019564481977675,0.6745876791743863,-2.269944132695839
916,1778471677,6.250064429378008,2.349461811436751,2.95781542422219,3.708540724098884,1.329644439587193,-4.094614216347919
917,1778471677,5.96927435,1.87155295,2.45887675,6.315125,1.9847012,-5.9192843
918,1778471677,4.980659375,0.944318479,1.4567777,6.315125,1.9847012,-5.9192843
919,1778471677,3.9920444,0.017084008,0.45467865,6.315125,1.9847012,-5.9192843
920,1778471677,3.28507155,-0.483782471,0.40446388,6.8450505,0.8640688999999999,-6.850548150000001
921,1778471677,2.5780987,-0.98464895,0.35424911,7.374976,-0.2565634,-7.781812
922,1778471677,2.2324759160188417,-1.137793593148984,0.3823561334836628,6.782238191427377,-0.459776179228754,-7.99724216163909
923,1778471677,1.8868531320376831,-1.2909382362979682,0.4104631569673257,6.189500382854754,-0.662988958457508,-8.212672323278179
924,1778471677,1.5412215,-1.4440868,0.4385709,5.5967474,-0.86620694,-8.428108
925,1778471677,1.5688004373411726,-1.416426494603497,0.4177036388699685,5.348731900589656,-1.0317542519712937,-8.263782428879484
926,1778471677,1.5963786686705863,-1.3887668973017484,0.3968369119349842,5.100722750294828,-1.197297325985647,-8.099461064439742
927,1778471677,1.6239569,-1.3611073,0.375970185,4.8527136,-1.3628404,-7.9351397
928,1778471677,1.72890155,-1.2804463,0.507395,4.8527136,-1.3628404,-7.9351397
929,1778471677,1.77588312635648,-1.25292849777664,0.58610445746816,4.18289122638336,-1.86528348118912,-8.01027681174272
930,1778471677,1.8228635,-1.2254114,0.6648119,3.513086,-2.3677137,-8.085412
931,1778471677,2.012008,-1.2947236,1.309123,3.513086,-2.3677137,-8.085412
932,1778471677,2.0144486,-1.2398108,1.151218,3.513086,-2.3677137,-8.085412
933,1778471677,2.027554637755136,-1.228483686459247,1.142852155585229,3.3808251981945174,-2.3794085252474027,-8.136297740218026
934,1778471677,2.04066034,-1.217156862888889,1.1344865253333334,3.248567782222222,-2.391103051111111,-8.187182177777778
935,1778471677,2.053766042244864,-1.2058300393185308,1.126120895081438,3.116310366249927,-2.4027975769748195,-8.238066615337528
936,1778471677,2.06687208,-1.1945029257777775,1.1177550506666667,2.984049564444444,-2.4144924022222223,-8.288952355555555
937,1778471677,2.079978117755136,-1.1831758122370248,1.1093892062518955,2.8517887626389617,-2.426187227469625,-8.339838095773581
938,1778471677,2.0930838200000004,-1.1718489886666668,1.101023576,2.719531346666667,-2.4378817533333335,-8.390722533333333
939,1778471677,2.1061895222448643,-1.160522165096309,1.0926579457481045,2.5872739306943715,-2.449576279197042,-8.441606970893083
940,1778471677,2.1192955600000003,-1.1491950515555556,1.084292101333333,2.455013128888889,-2.4612711044444446,-8.49249271111111
941,1778471677,2.1324015977551363,-1.1378679380148025,1.075926256918562,2.322752327083406,-2.4729659296918474,-8.543378451329136
942,1778471677,2.1455073,-1.1265411144444444,1.0675606266666666,2.190494911111111,-2.484660455555556,-8.594262888888888
943,1778471677,1.5409775,-1.3408505,1.3542737,1.6267341,-2.6670377,-8.749423
944,1778471677,1.2993608,-1.46287915,1.1940501,1.80571765,-2.7791313499999997,-8.661153
945,1778471677,1.0577441,-1.5849078,1.0338265,1.9847012,-2.891225,-8.572883
946,1778471677,0.4754845125,-1.9777789500000005,0.4990360499999999,2.69177775,-2.7944029,-7.4247617
947,1778471677,-0.106775075,-2.3706501,-0.0357543999999999,3.3988543,-2.6975808,-6.2766404
948,1778471677,-0.6972765888817541,-2.778757882475168,-0.726971064973376,2.52225515311636,-2.349995533977028,-5.7464048753814385
949,1778471677,-1.2877781027635082,-3.186865664950336,-1.4181877299467522,1.64565600623272,-2.002410267954057,-5.216169350762876
950,1778471677,-1.8782645,-3.594963,-2.1093867,0.7690793,-1.6548339,-4.6859474
951,1778471677,-2.44483627278848,-4.02529159172352,-1.303825131320064,-1.2977567941593595,-0.6253864520960001,-3.69849633953536
952,1778471677,-3.01142255,-4.4556312,-0.49824294,-3.3646458,0.40408735,-2.71102
953,1778471677,-3.36120171878272,-4.5294391447296,0.481720510038272,-3.10543199877248,0.54250101333888,-2.358342609120512
954,1778471677,-3.710971933333333,-4.6032452,1.461658873333333,-2.8462248333333338,0.6809111333333333,-2.0056742466666666
955,1778471677,-3.31348895451392,-4.27781931550464,1.029988109623168,-0.3382478191833604,1.75154056243456,0.8599597960814079
956,1778471677,-2.9159958,-3.9523851,0.598306295,2.1697934,2.8221974,3.7256672
957,1778471677,-2.40694698425856,-3.70216219718784,-0.03966749596,0.4837837193523199,4.75438893173504,5.56317331977728
958,1778471677,-1.8979112,-3.4519457,-0.677624955,-1.2021828,6.686531,7.4006324
959,1778471677,-1.72469381721088,-3.32625785882496,-0.954809429493312,-1.2021828,6.686531,7.4006324
960,1778471677,-1.551472,-3.2005668,-1.232001,-1.2021828,6.686531,7.4006324
961,1778471677,2.4886518,-1.8018748,0.10518867,-1.2021828,6.686531,7.4006324
962,1778471677,0.24088451,-2.7080593,-0.91155386,-3.7476583,6.2124996,10.203282
963,1778471677,1.6637200924714242,-2.00615963443072,-0.153643763873408,-4.00284395858176,5.6715853737907205,10.4282301206272
964,1778471677,3.0865921,-1.304242,0.604285735,-4.25803615,5.1306573,10.653184
965,1778471677,2.9129430523206397,-0.791898227083648,0.941272080870016,-2.7172615533376,3.24367034687616,9.0391048400512
966,1778471677,2.7392984499999997,-0.27956757,1.2782498,-1.1765264,1.3567317,7.425067
967,1778471677,2.4791978168307196,-0.312484371159552,1.029894228992,-1.1765264,1.3567317,7.425067
968,1778471677,2.219090525,-0.345402015,0.7815323,-1.1765264,1.3567317,7.425067
969,1778471677,1.95898323316928,-0.378319658840448,0.5331703710079999,-1.1765264,1.3567317,7.425067
970,1778471677,1.6988826,-0.41123646,0.2848148,-1.1765264,1.3567317,7.425067
971,1778471677,1.64978193474656,-0.461206541624768,0.1915251148732543,-1.91650385941728,1.54697562109664,7.30751517968256
972,1778471677,1.6006800124999998,-0.5111779025,0.0982330414999999,-2.6565002625,1.7372244125,7.189960350000001
973,1778471677,1.55157809025344,-0.561149263375232,0.0049409681267456,-3.3964966655827196,1.92747320390336,7.0724055203174405
974,1778471677,1.502477425,-0.611119345,-0.088348717,-4.1364741249999994,2.117717125,6.9548537
975,1778471677,1.54552246151648,-0.691047069412032,-0.0001231553016447,-5.337267042153919,1.479447447456448,6.96821617895808
976,1778471677,1.5885686,-0.77097684,0.088104665,-6.5380907,0.84116143,6.981579
977,1778471677,1.5054660863014402,-0.858960596177664,0.5911130709251841,-6.9397398410432,0.63163197305728,6.9492025855872
978,1778471677,1.4223657,-0.9469421,1.0941086,-7.3413787,0.42210788,6.916827
979,1778471677,1.6117541,-0.88226694,0.57329047,-7.3413787,0.42210788,6.916827
980,1778471677,1.484417225,-0.8188730825,0.99075041,-7.3413787,0.42210788,6.916827
981,1778471677,1.35708035,-0.755479225,1.40821035,-7.3413787,0.42210788,6.916827
982,1778471677,1.8450727,-0.31873876,1.3220581,-6.572299,-0.44043383,6.8233647
983,1778471677,2.5096407,0.33142975,1.4680043,-6.572299,-0.44043383,6.8233647
984,1778471677,2.7662698846771376,0.5787476732989983,1.5824352042698424,-6.1811185779891105,-0.5453650452445729,6.648979155660852
985,1778471677,3.022899069354275,0.8260655965979967,1.6968661085396846,-5.789938155978222,-0.6502962604891457,6.474593611321703
986,1778471678,3.279521684408377,1.0733771886391987,1.811294083415874,-5.3987677480579555,-0.7552247895289916,6.300212531195348
987,1778471678,3.536144299462478,1.3206887806804006,1.925722058292063,-5.007597340137689,-0.8601533185688376,6.125831451068993
988,1778471678,3.792773484139616,1.568006703979399,2.0401529625619053,-4.6164169181268,-0.9650845338134104,5.951445906729845
989,1778471678,4.049402668816754,1.8153246272783976,2.154583866831748,-4.225236496115911,-1.0700157490579834,5.777060362390696
990,1778471678,4.306025283870855,2.0626362193195993,2.269011841707937,-3.834066088195644,-1.1749442780978292,5.602679282264341
991,1778471678,4.562647898924957,2.3099478113608014,2.383439816584126,-3.4428956802753783,-1.2798728071376753,5.428298202137985
992,1778471678,4.819277083602095,2.5572657346598,2.4978707208539688,-3.0517152582644886,-1.384804022382248,5.253912657798837
993,1778471678,5.075906268279232,2.804583657958798,2.612301625123811,-2.660534836253599,-1.489735237626821,5.079527113459689
994,1778471678,5.3325288833333335,3.05189525,2.7267296,-2.269364428333333,-1.5946637666666668,4.905146033333334
995,1778471678,7.989702,3.8648906,3.1725001,2.1355848,-3.0531044,-0.44043383
996,1778471678,5.7563343,2.1664963,2.8891497,2.0867157,-0.64568454,-4.5821004
997,1778471678,3.9983897,0.8022162,1.6776495,4.1783185,0.98899084,-7.1281867
998,1778471678,2.566994,-0.27432033,0.6169767,6.1960063,0.11911872,-8.056091
999,1778471678,2.2726647674624,-0.438934857907072,0.526188577102848,6.49593731083392,-0.482881284301312,-8.3621305826432
1000,1778471678,1.978328,-0.6035536,0.43539813,6.795876,-1.0848967,-8.668178
