id,timestamp,acc_x,acc_y,acc_z,gyro_x,gyro_y,gyro_z
0,1778472111,0.20146925,0.189510455,0.933518945,0.09773844,0.118507855,-0.33292156
1,1778472111,0.30751213,0.23868799,0.8534682,0.111177474,0.029932396,-0.2742785
2,1778472111,0.39244407,0.27724904,0.8683557,0.111177474,0.029932396,-0.2742785
3,1778472111,0.392871167966784,0.283289522317184,0.895141322851584,-0.0091645208578175,-0.1084303530205184,-0.384693810797888
4,1778472111,0.393298255,0.28932985,0.92192626,-0.129503435,-0.24678956,-0.495106295
5,1778472111,0.346744933390144,0.27840843979584,0.925770115798016,-0.155770306279744,-0.217468405315584,-0.519693307782208
6,1778472111,0.30019042,0.26748675,0.92961407,-0.18203785,-0.1881465,-0.54428095
7,1778472111,0.2951329535691185,0.2649783553492972,0.9294377991055656,-0.1926262982492469,-0.1728068199152072,-0.5476746830570908
8,1778472111,0.2900756166077204,0.2624700249126757,0.9292615327236086,-0.2032144754376882,-0.1574675325211982,-0.5510683292357273
9,1778472111,0.2850182796463222,0.259961694476054,0.9290852663416512,-0.2138026526261296,-0.1421282451271891,-0.5544619754143638
10,1778472111,0.2799608132154407,0.2574532998253513,0.9289089954472172,-0.2243911008753765,-0.1267885650423963,-0.5578557084714546
11,1778472111,0.2749033467845592,0.2549449051746486,0.9287327245527828,-0.2349795491246234,-0.1114488849576036,-0.5612494415285454
12,1778472111,0.2698460098231611,0.252436574738027,0.9285564581708255,-0.2455677263130647,-0.0961095975635945,-0.564643087707182
13,1778472111,0.264788672861763,0.2499282443014054,0.9283801917888684,-0.2561559035015061,-0.0807703101695855,-0.5680367338858184
14,1778472111,0.2597312064308815,0.2474198496507027,0.9282039208944344,-0.266744351750753,-0.0654306300847927,-0.5714304669429092
15,1778472111,0.25467374,0.244911455,0.92802765,-0.2773328,-0.05009095,-0.5748242
16,1778472111,0.2021336377777777,0.2255088966666666,0.9993059511111112,-0.45584123,0.0843672733333333,-0.3817907855555555
17,1778472111,0.2057356803762046,0.2121266528376625,0.9933628088383338,-0.4774813240043349,0.2239249704070383,-0.3989965267219624
18,1778472111,0.2093378151881023,0.1987440664188312,0.987419514419167,-0.4991219720021674,0.3634862402035191,-0.4162027083609813
19,1778472111,0.21293995,0.18536148,0.98147622,-0.52076262,0.50304751,-0.43340889
20,1778472111,0.18182266,0.17620933,0.97500867,-0.5204572,0.5143485,-0.43249258
21,1778472111,0.13081467,0.1552204,0.9257092,-0.5204572,0.5143485,-0.43249258
22,1778472111,0.1175947950251774,0.1297975580611922,0.9019133802782708,-0.3288474962847902,0.0346115729639554,-0.3321062067139127
23,1778472111,0.1043749200503549,0.1043747161223845,0.8781175605565417,-0.1372377925695805,-0.4451253540720891,-0.2317198334278253
24,1778472111,0.0911553835,0.078952525,0.85432235,0.054367006,-0.92485,-0.13133603
25,1778472111,0.1543043884323904,0.075230695140032,0.79324785676352,0.0842990198653184,-1.03908033783296,-0.0959062985063679
26,1778472111,0.21745501,0.07150877,0.7321718,0.1142318,-1.1533136,-0.06047566
27,1778472111,0.23942018,0.05588911,0.70264083,0.18509217,-1.7153096,0.053145275
28,1778472111,0.27846932,0.053936653,0.6450433,0.20341812,-1.9443841,0.08857546
29,1778472111,0.2723679,0.0302631,0.6042857,0.20708331,-2.225382,0.17165314
30,1778472111,0.2476495270871012,0.0068528883945015,0.5856200192658758,0.2031981678166532,-2.2827550794928144,0.2209138184228904
31,1778472111,0.2229311541742024,-0.0165573232109969,0.5669543385317516,0.1993130256333065,-2.340128158985628,0.2701744968457809
32,1778472111,0.1982134140435506,-0.0399669355227492,0.5482891356329379,0.1954279829083266,-2.3974997697464073,0.3194339142114452
33,1778472111,0.1734956739128987,-0.0633765478345015,0.5296239327341242,0.1915429401833467,-2.454871380507186,0.3686933315771096
34,1778472111,0.148777301,-0.08678675944,0.510958252,0.187657798,-2.51224446,0.41795401
35,1778472111,0.38561043,-0.037584815,0.50324607,0.84238315,-4.2797217,1.2608259
36,1778472111,0.7834238,-0.010494461,0.5357057,0.84238315,-4.2797217,1.2608259
37,1778472111,0.797050090774994,0.0289607867884851,0.5395698673840325,0.9965221693270642,-4.230038981262586,1.0547641834983104
38,1778472111,0.810676730387497,0.0684170446442425,0.5434341336920163,1.1506651346635322,-4.180354990631294,0.8486971917491551
39,1778472111,0.82430337,0.1078733024999999,0.5472984000000001,1.3048081,-4.130671,0.6426302
40,1778472111,0.724239885,0.11568313875,0.6722557125,1.37047615,-4.2583418,0.550389565
41,1778472111,0.6241764000000001,0.123492975,0.797213025,1.4361442,-4.3860126,0.45814893
42,1778472111,0.6530972,0.18206671,0.9540198,1.2779301,-3.8276815,0.9596693
43,1778472111,0.7639006182656,0.2616303934021119,0.897519796809216,0.981351223838976,-3.291945892672,1.12063431032576
44,1778472111,0.8747012,0.34119204,0.84102124,0.68477994,-2.756224,1.2815952
45,1778472111,1.0601847,0.47176263,0.7690244,-0.05009095,-1.9663752,1.4764613
46,1778472111,1.5620884,0.6676186049999999,0.976961125,-0.711658,-1.4752395,1.599856
47,1778472111,2.3854156,0.9523114,1.6517794,-1.2895365,-1.2620476,1.6542231
48,1778472111,2.856446,1.0726316,2.9901893,-1.7959439,-1.3390167,1.4850134
49,1778472111,2.698541,0.9518233,3.4538982,0.321926,-1.3347405,-0.50518554
50,1778472111,2.5545473,0.8607899,3.5834925,0.321926,-1.3347405,-0.50518554
51,1778472111,2.3611055311816416,0.7791860819875994,3.1079372143762067,0.8921134626448828,-1.3149727143804664,-0.673615048696093
52,1778472111,2.167668714409179,0.6975843530062004,2.632394102811897,1.4622863286775585,-1.295205434809767,-0.8420402456519536
53,1778472111,1.9742318976367164,0.6159826240248012,2.1568509912475875,2.0324591947102344,-1.2754381552390677,-1.010465442607814
54,1778472111,1.7807901288183583,0.5343788060124006,1.6812957056237936,2.602646657355117,-1.2556703696195337,-1.178894951303907
55,1778472111,1.58734836,0.452774988,1.20574042,3.17283412,-1.235902584,-1.34732446
56,1778472111,1.456397548023245,0.3922374084292411,1.0941166298854927,3.0841500603283194,-1.2410828681255004,-1.404727359189884
57,1778472111,1.3254467360464897,0.3316998288584821,0.9824928397709852,2.9954660006566387,-1.246263152251001,-1.462130258379768
58,1778472111,1.1944925716860373,0.271160699505849,0.8708661920508736,2.90677967064397,-1.2514435689934726,-1.519534627102681
59,1778472111,1.0635384073255851,0.2106215701532159,0.7592395443307618,2.818093340631301,-1.2566239857359442,-1.5769389958255942
60,1778472111,0.9325875953488298,0.150083990582457,0.6476157542162544,2.7294092809596204,-1.261804269861445,-1.634341895015478
61,1778472111,0.8016367833720747,0.0895464110116981,0.5359919641017469,2.6407252212879397,-1.266984553986945,-1.691744794205362
62,1778472111,0.6706826190116224,0.0290072816590649,0.4243653163816352,2.552038891275271,-1.272164970729417,-1.7491491629282752
63,1778472111,0.5397284546511701,-0.0315318476935681,0.3127386686615234,2.463352561262602,-1.2773453874718883,-1.8065535316511885
64,1778472111,0.4087776426744149,-0.092069427264327,0.201114878547016,2.3746685015909215,-1.2825256715973892,-1.8639564308410723
65,1778472111,0.2778268306976598,-0.1526070068350859,0.0894910884325085,2.2859844419192408,-1.2877059557228896,-1.921359330030956
66,1778472111,0.1468726663372075,-0.213146136187719,-0.0221355592876031,2.197298111906572,-1.2928863724653612,-1.9787636987538693
67,1778472111,0.0159185019767551,-0.2736852655403522,-0.1337622070077148,2.108611781893903,-1.298066789207833,-2.0361680674767824
68,1778472111,-0.1150323099999999,-0.3342228451111111,-0.2453859971222222,2.0199277222222225,-1.3032470733333337,-2.0935709666666664
69,1778472111,-1.2366381,-0.95072498,-0.453702435,1.6010778,-2.99995905,-0.559857995
70,1778472111,-1.2205545870891132,-0.9590514730518312,-0.4232112879788758,1.475401386241663,-2.7736112168565468,-0.1390395192283041
71,1778472111,-1.2044710741782263,-0.9673779661036624,-0.3927201409577516,1.349724972483326,-2.547263383713094,0.2817789565433918
72,1778472111,-1.188387973,-0.975704246,-0.3622297745,1.224051776,-2.320921345,0.7025866595
73,1778472111,-1.1723048718217737,-0.9840305258963374,-0.3317394080422483,1.098378579516674,-2.0945793062869065,1.123394362456608
74,1778472111,-1.1562213589108867,-0.9923570189481687,-0.3012482610211242,0.9727021657583372,-1.8682314731434533,1.544212838228304
75,1778472111,-1.140137846,-1.000683512,-0.2707571139999999,0.8470257520000001,-1.64188364,1.965031314
76,1778472111,-0.7507201,-0.9874556,-0.20451997,0.6817256,-1.246776,3.8063014
77,1778472111,-0.6080399560792192,-0.981689832552768,-0.196252635823232,0.74785092858496,-1.23975113991936,4.02636278317824
78,1778472111,-0.4653561595,-0.9759239175,-0.18798509,0.8139779500000001,-1.2327261,4.2464298000000005
79,1778472111,-0.3226723629207808,-0.970158002447232,-0.179717544176768,0.88010497141504,-1.22570106008064,4.466496816821761
80,1778472111,-0.179992219,-0.964392235,-0.17145021,0.9462303,-1.2186762,4.6865582
81,1778472111,0.6075805,-0.8873921499999999,-0.505564585,0.929126,-0.893085,4.6835036
82,1778472111,0.6641412493122162,-0.922902794686956,-0.5208793115173269,0.8389208019254958,-0.7376184667025634,4.606533959867478
83,1778472111,0.7207019986244325,-0.958413439373912,-0.5361940380346537,0.7487156038509916,-0.5821519334051268,4.5295643197349555
84,1778472111,0.7772612999999999,-0.993923175,-0.5515083725,0.658512715,-0.42668938,4.452596649999999
85,1778472111,0.8338206013755675,-1.029432910626088,-0.5668227069653463,0.5683098261490084,-0.2712268265948732,4.375628980265044
86,1778472111,0.8903813506877837,-1.064943555313044,-0.5821374334826731,0.4781046280745041,-0.1157602932974366,4.298659340132522
87,1778472111,0.9469421,-1.1004542,-0.59745216,0.38789943,0.03970624,4.2216897
88,1778472111,0.99880432,-1.7928446,-0.61770893,-0.624609685,-0.01191187,4.857295049999999
89,1778472111,1.467731433906112,-1.679122995186424,-0.494030685133048,-0.6561070226351677,-0.0442014137510496,4.95130026390536
90,1778472111,1.9366705525,-1.5653984790625,-0.3703492740625,-0.6876051666125,-0.076491784125,5.045307884374999
91,1778472111,2.4056096710938877,-1.451673962938576,-0.246667862991952,-0.7191033105898323,-0.1087821544989504,5.13931550484464
92,1778472111,2.8745367849999997,-1.337952358125,-0.122989618125,-0.7506006482250001,-0.14107169825,5.23332071875
93,1778472111,3.3434638989061116,-1.224230753311424,0.0006886267419519,-0.7820979858601677,-0.1733612420010496,5.327325932655359
94,1778472111,3.8124030175,-1.1105062371875,0.1243700378125,-0.8135961298375,-0.205651612375,5.421333553125
95,1778472111,4.281342136093888,-0.996781721063576,0.248051448883048,-0.8450942738148323,-0.2379419827489504,5.515341173594639
96,1778472111,4.75026925,-0.88306011625,0.37172969375,-0.87659161145,-0.2702315265,5.6093463875
97,1778472111,3.2656080999999997,0.3220335399999999,0.292380585,0.700357005,-0.2641992199999999,2.488665
98,1778472111,2.9145926749999997,0.4496144649999999,0.1361229325,0.8266533775,-0.0329867272499999,1.86756775
99,1778472111,2.56357725,0.57719539,-0.0201347199999999,0.95294975,0.1982257655,1.2464705
100,1778472112,2.196393175,0.6771368449999999,-0.1216015249999999,0.80481496,0.41859543275,1.0160216
101,1778472112,1.8292091,0.7770783,-0.22306833,0.65668017,0.6389651,0.7855727
102,1778472112,1.66345141999552,0.8152533994683521,-0.1364065615768959,0.4972422922212864,0.74220262142336,0.637894139738624
103,1778472112,1.49769373999104,0.853428498936704,-0.0497447931537919,0.3378044144425728,0.84544014284672,0.490215579477248
104,1778472112,1.3319403033288535,0.8916026211350188,0.0369147567564373,0.1783706182212864,0.94867502142336,0.3425407997386239
105,1778472112,1.1661868666666668,0.9297767433333334,0.1235743066666666,0.018936822,1.0519099,0.19486602
106,1778472112,0.613926,1.04920205,0.66615427,0.4670064785,-0.249538455,-1.2486085500000002
107,1778472112,0.6596061529312979,1.0776759026141978,0.6165691170908889,0.8892233580758445,-0.4897144122838711,-1.4288168755160555
108,1778472112,0.7052851364656489,1.1061490263070988,0.5669852335454445,1.3114294290379225,-0.7298842211419356,-1.609020587758028
109,1778472112,0.75096412,1.13462215,0.51740135,1.7336355,-0.97005403,-1.7892243
110,1778472112,0.823449135,1.0931934250000002,0.3474765,1.84328585,-1.030224265,-2.00027815
111,1778472112,0.89593415,1.0517647,0.17755165,1.9529362,-1.0903945,-2.211332
112,1778472112,1.0235746388274043,1.0013674531937924,0.2343376990037945,1.8727780164781176,-0.996811005074727,-2.397888139600753
113,1778472112,1.151215127654809,0.9509702063875848,0.291123748007589,1.7926198329562353,-0.903227510149454,-2.5844442792015063
114,1778472112,1.2788588841205537,0.9005716693953443,0.3479112507528459,1.712459597358588,-0.8096416194560453,-2.7710051947005647
115,1778472112,1.4065026405862977,0.850173132403104,0.4046987534981028,1.6322993617609411,-0.7160557287626365,-2.957566110199623
116,1778472112,1.5341431294137025,0.7997758855968963,0.4614848025018973,1.5521411782390588,-0.6224722338373635,-3.144122249800376
117,1778472112,1.661783618241107,0.7493786387906886,0.5182708515056919,1.4719829947171763,-0.5288887389120905,-3.33067838940113
118,1778472112,1.7894273747068512,0.6989801017984482,0.5750583542509486,1.3918227591195296,-0.4353028482186817,-3.517239304900188
119,1778472112,1.9170711311725956,0.6485815648062078,0.6318458569962055,1.3116625235218824,-0.3417169575252728,-3.7038002203992466
120,1778472112,2.04471162,0.598184318,0.688631906,1.23150434,-0.2481334626,-3.89035636
121,1778472112,3.7339538,-0.0146434374999999,0.5080051999999999,2.103209,0.062919122,-5.6007180000000005
122,1778472112,4.434032,-0.17425688,0.28164205,2.07572,0.14049901,-5.715866
123,1778472112,4.43840987478608,-0.371427146247104,0.147576642734752,1.881195131363552,0.155350860101248,-6.1309542505616
124,1778472112,4.4427876374999995,-0.5685923650000001,0.0135146674999999,1.6866752425,0.1702023299999999,-6.546031875000001
125,1778472112,4.44716540021392,-0.765757583752896,-0.120547307734752,1.492155353636448,0.1850537998987519,-6.9611094994384
126,1778472112,4.451543275,-0.96292785,-0.254612715,1.297630485,0.19990565,-7.37619775
127,1778472112,3.8333559997388784,-1.2443306525463576,-0.2479620464967104,0.916800413916646,-0.0430701467338527,-7.414886660282284
128,1778472112,3.215184549869439,-1.5257262512731788,-0.2413115482483551,0.5359800919583231,-0.2860397233669264,-7.453574580141142
129,1778472112,2.5970131,-1.80712185,-0.23466105,0.1551597699999999,-0.5290093,-7.4922625
130,1778472112,1.8815593,-1.866000625,-0.217271965,-0.016798795,-0.57146443,-7.204544749999999
131,1778472112,1.1661055,-1.9248794,-0.19988288,-0.18875736,-0.61391956,-6.916827
132,1778472112,0.8864194800268801,-1.88064464121216,-0.047654124803008,-0.269543260927232,-0.42898247722496,-6.3730112109312
133,1778472112,0.60673346005376,-1.83640988242432,0.104574630393984,-0.350329161854464,-0.24404539444992,-5.8291954218624
134,1778472112,0.32704028002688,-1.79217399121216,0.256807282696992,-0.431117130927232,-0.05910357722496,-5.2853657109312
135,1778472112,0.0473471,-1.7479380999999998,0.409039935,-0.5119051,0.12583824,-4.741536
136,1778472112,-0.2997023,-1.7181631,0.5593792,-0.5119051,0.12583824,-4.741536
137,1778472112,-0.98208635,-1.78210605,0.45199403,0.8042040500000001,-0.24648413,-3.67038385
138,1778472112,-1.7869871,-1.9490411,-0.24454537,2.7708848,-1.4453071,-1.7843374
139,1778472112,-2.0239668,-1.9963883,-0.50641876,2.7708848,-1.4453071,-1.7843374
140,1778472112,-2.24435045,-2.0109097,-0.708742235,2.443461,-1.9016235,-0.54183745
141,1778472112,-2.2709527,-1.9361062,-0.54888475,1.1453724,-1.4294246,1.0665708
142,1778472112,-2.121347125558527,-1.877968111673596,-0.4845719556954158,1.0640577620862657,-1.3210483658665673,1.3346670177701303
143,1778472112,-1.9717415511170533,-1.8198300233471911,-0.4202591613908316,0.9827431241725314,-1.2126721317331348,1.602763235540261
144,1778472112,-1.822139806529263,-1.7616934233367978,-0.3559480134727079,0.9014305678868828,-1.1042986719957837,1.8708525901350652
145,1778472112,-1.6725380619414736,-1.7035568233264042,-0.2916368655545842,0.8201180116012343,-0.9959252122584326,2.1389419447298694
146,1778472112,-1.5229324875,-1.645418735,-0.2273240712499999,0.7388033736875,-0.887548978125,2.4070381625
147,1778472112,-1.3733269130585266,-1.5872806466735958,-0.1630112769454157,0.6574887357737658,-0.7791727439915673,2.6751343802701304
148,1778472112,-1.2237251684707369,-1.5291440466632022,-0.098700129027292,0.5761761794881172,-0.6707992842542163,2.943223734864935
149,1778472112,-1.074123423882947,-1.4710074466528087,-0.0343889811091682,0.4948636232024686,-0.5624258245168652,3.211313089459739
150,1778472112,-0.9245178494414736,-1.4128693583264045,0.0299238131954159,0.4135489852887343,-0.4540495903834326,3.4794093072298695
151,1778472112,-0.774912275,-1.35473127,0.0942366075,0.332234347375,-0.34567335625,3.747505525
152,1778472112,0.19841854,-0.94206095,-0.47005424,0.30604348,0.5729916,4.731151
153,1778472112,0.4249037,-0.9471862,-0.50031734,0.30604348,0.5729916,4.731151
154,1778472112,0.72167724,-0.9178993,-0.51740134,-0.39095375,-0.028710667,5.2241197
155,1778472112,1.1055794,-0.8712844,-0.5879339,-0.39095375,-0.028710667,5.2241197
156,1778472112,1.5620884249999998,-0.8085616849999999,-0.580368135,-0.802066075,-0.1539380434999999,5.7546561
157,1778472112,2.0185974499999997,-0.74583897,-0.57280237,-1.2131784,-0.27916542,6.2851925
158,1778472112,3.095378,-0.5086153,-0.32679266,-1.2131784,-0.27916542,6.2851925
159,1778472112,4.493826,-0.065163285,-0.10933765,-1.3347405,0.63346726,5.9999185
160,1778472112,4.5799774648314235,0.0304249909696041,-0.1197506678077773,-1.3347405,0.63346726,5.9999185
161,1778472112,4.666128929662847,0.1260132669392082,-0.1301636856155546,-1.3347405,0.63346726,5.9999185
162,1778472112,4.7522826,0.22160399,-0.14057697,-1.3347405,0.63346726,5.9999185
163,1778472112,4.9299564,0.46688148,-0.035876416,-1.1551461,0.7837401,5.2699347
164,1778472112,5.171573,0.72729063,0.077122085,-1.2858714,0.9682214,5.4843483
165,1778472112,4.921529033869986,0.7801284185379108,0.0535945567916363,-1.052752597130108,0.8656565968911415,4.971083087670055
166,1778472112,4.671478666532503,0.8329675597405224,0.0300664262708409,-0.819627826342473,0.7630891680897146,4.457804735582486
167,1778472112,4.421428299195021,0.8858067009431339,0.0065382957500455,-0.5865030555548382,0.6605217392882877,3.944526383494917
168,1778472112,4.171384333065007,0.9386444894810446,-0.0169892324583181,-0.353384252684946,0.5579569361794292,3.431261171164972
169,1778472112,3.921340366934993,0.9914822780189556,-0.0405167606666818,-0.1202654498150539,0.4553921330705707,2.9179959588350273
170,1778472112,3.6712899995975103,1.0443214192215668,-0.0640448911874772,0.1128593209725809,0.3528247042691438,2.4047176067474583
171,1778472112,3.421239632260028,1.0971605604241783,-0.0875730217082726,0.3459840917602158,0.2502572754677169,1.891439254659889
172,1778472112,3.171195666130014,1.1499983489620893,-0.1111005499166363,0.5791028946301079,0.1476924723588584,1.3781740423299444
173,1778472112,2.9211517,1.2028361375,-0.134628078125,0.8122216975000001,0.04512766925,0.8649088300000001
174,1778472112,0.84809893,0.99160457,-0.09005712,0.031154128,0.3811799,-1.1606439
175,1778472112,0.7395322721527559,0.9688661919366482,0.0281906347358495,0.0678066675286678,0.3528760036196848,-1.320897001617927
176,1778472112,0.6309683935763779,0.9461283959683242,0.1464353623679247,0.1044582687643339,0.3245728318098423,-1.4811460008089634
177,1778472112,0.522404515,0.9233906,0.26468009,0.14110987,0.29626966,-1.641395
178,1778472112,0.470969465,0.8768367,0.2893298725,0.4115704424999999,0.155465215,-1.799609025
179,1778472112,0.419534415,0.8302828,0.313979655,0.682031015,0.01466077,-1.95782305
180,1778472112,0.4690170225,0.8049008249999999,0.23539321825,0.8520042575,-0.06597344,-2.039068125
181,1778472112,0.51849963,0.77951885,0.1568067815,1.0219775,-0.14660765,-2.1203132
182,1778472112,0.69458693,0.737541,-0.021965152,1.0415252,-0.09712757,-2.2724187
183,1778472112,0.949996134195968,0.771953505474432,-0.0676044401754112,1.0415252,-0.09712757,-2.2724187
184,1778472112,1.2053988,0.80636513,-0.11324256,1.0415252,-0.09712757,-2.2724187
185,1778472112,1.4492901781504,0.7882237788789334,-0.027701594938368,0.6129069263841279,0.2936175800647254,-2.54883171186816
186,1778472112,1.6931877999999998,0.7700819633333333,0.0578415599999999,0.18427768,0.6843727333333334,-2.8252518
187,1778472112,1.86313520029888,0.7204563623004373,0.159370669555968,0.14752348455232,0.7767163569832534,-3.04256988163584
188,1778472112,2.03307825,0.6708320316666666,0.26089718,0.11077023,0.8690576166666667,-3.2598824
189,1778472112,2.20302129970112,0.621207701032896,0.362423690444032,0.0740169754476799,0.96139887635008,-3.47719491836416
190,1778472112,2.3729687,0.5715821,0.4639528,0.03726278,1.0537425,-3.694513
191,1778472112,2.55576988982528,0.490838781498752,0.4051342631323648,0.4385045758292479,0.94449806835584,-4.1923745392128
192,1778472112,2.7385664,0.41009753,0.346317232,0.8397361,0.8352564333333333,-4.690223333333333
193,1778472112,3.0730468,0.123248908,-0.347537515,1.6102408,0.50823987,-5.764735
194,1778472112,2.6824331,-0.27944556,-0.7390053,0.6426302,0.8570439,-6.3829308
195,1778472112,2.40676702151936,-0.3839033970432,-0.7653638373849599,0.6426302,0.8570439,-6.3829308
196,1778472112,2.131108,-0.48835856,-0.7917217,0.6426302,0.8570439,-6.3829308
197,1778472112,2.0653353419008,-0.50092734911744,-0.745717518861056,0.289860055515648,0.65576640138496,-6.179515353751039
198,1778472112,1.999561,-0.51349646,-0.69971216,-0.06291912,0.45448375,-5.9760947
199,1778472112,1.778381293936,-0.6032496563262081,-0.551018359243712,-0.193035080462976,0.24296895514528,-5.7462537580736
200,1778472113,1.5572072499999998,-0.693000555,-0.402328365,-0.32314771,0.031459575,-5.5164187
201,1778472113,1.1722948692553845,-0.7455126404489367,-0.3179266738073011,-0.5041643639428952,-0.1284825802856094,-4.829105196967267
202,1778472113,0.7873726346276921,-0.7980260702244684,-0.2335228219036505,-0.6851856519714475,-0.2884288301428047,-4.1417740984836335
203,1778472113,0.4024504,-0.8505395,-0.14911897,-0.86620694,-0.44837508,-3.454443
204,1778472113,-0.166202985,-0.86896583,0.206472425,-0.80725845,-0.102625365,-2.30112935
205,1778472113,-0.3479954073696112,-0.9135326338279232,0.2479614496893595,-0.5549414707093445,-0.1227156993427939,-1.920091688681549
206,1778472113,-0.5297924836848057,-0.9581005785806282,0.2894515365113464,-0.3026180320213389,-0.1428065480047303,-1.5390442726741078
207,1778472113,-0.7115895600000001,-1.0026685233333332,0.3309416233333333,-0.0502945933333333,-0.1628973966666666,-1.1579968566666667
208,1778472113,-0.8214415192512822,-1.069187131256169,0.2501186907534083,0.2511308989139865,-0.2908386393318656,-0.8302365213684397
209,1778472113,-0.9312934785025644,-1.1357057391790044,0.1692957581734834,0.5525563911613064,-0.4187798819970645,-0.5024761860702126
210,1778472113,-1.04114825,-1.20222605,0.0884707565,0.8539896,-0.5467244,-0.17470746
211,1778472113,-1.1194916277824,-1.31357855029376,-0.1604708206614016,1.15469187393984,-0.81963194317184,0.396611582790144
212,1778472113,-1.197833,-1.4249282,-0.409406025,1.45538645,-1.0925325,0.967916
213,1778472113,-1.03974083036312,-1.3827748305378254,-0.3949391024608606,1.0706497129243608,-0.9283822348670512,1.6523109639542162
214,1778472113,-0.8816446135148934,-1.3406203819355793,-0.3804718095637637,0.6859031264621804,-0.7642277674335256,2.336723448643775
215,1778472113,-0.7235483966666667,-1.2984659333333333,-0.3660045166666667,0.30115654,-0.6000733,3.0211359333333334
216,1778472113,-0.6417668121112882,-1.2552287250403944,-0.3636313751812799,0.2447218984124126,-0.6126977182957305,3.1201590774185965
217,1778472113,-0.5599852275559096,-1.2119915167474555,-0.3612582336958931,0.1882872568248253,-0.625322136591461,3.21918222150386
218,1778472113,-0.4782015493651679,-1.168753201567816,-0.3588850314573066,0.1318511704919205,-0.6379468780764367,3.3182079006140603
219,1778472113,-0.3964178711744262,-1.125514886388177,-0.3565118292187201,0.0754150841590158,-0.6505716195614124,3.417233579724261
220,1778472113,-0.3146362866190476,-1.082277678095238,-0.3541386877333333,0.0189804425714285,-0.6631960378571429,3.5162567238095237
221,1778472113,-0.2328547020636691,-1.0390404698022992,-0.3517655462479465,-0.0374541990161587,-0.6758204561528733,3.615279867894787
222,1778472113,-0.1510710238729274,-0.99580215462266,-0.3493923440093601,-0.0938902853490635,-0.6884451976378491,3.714305547004987
223,1778472113,-0.0692873456821856,-0.9525638394430206,-0.3470191417707736,-0.1503263716819682,-0.7010699391228248,3.8133312261151873
224,1778472113,0.0124942388731928,-0.9093266311500816,-0.3446460002853868,-0.2067610132695555,-0.7136943574185552,3.912354370200451
225,1778472113,0.0942758234285714,-0.8660894228571429,-0.3422728587999999,-0.2631956548571428,-0.7263187757142857,4.011377514285714
226,1778472113,0.6167429239479055,-0.7678787938514547,-0.4354279774468375,-0.7724870824693167,-0.7018839619684487,4.46633055840676
227,1778472113,1.1392100244672396,-0.6696681648457667,-0.5285830960936752,-1.281778510081491,-0.6774491482226118,4.921283602527806
228,1778472113,1.66166375,-0.57146005,-0.62173583,-1.7910569,-0.65301496,5.376225
229,1778472113,2.7801780000000003,-0.43271349,-0.4624884999999999,-1.94957645,-0.691499435,5.1089716
230,1778472113,2.9070589740556803,-0.419412197245632,-0.385426431118144,-2.0631224658704,-0.670577033446688,5.05849822894912
231,1778472113,3.0339399481113603,-0.406110904491264,-0.308364362236288,-2.1766684817408,-0.649654631893376,5.00802485789824
232,1778472113,3.16081767405568,-0.392809952245632,-0.231304266118144,-2.2902115908704,-0.628732765946688,4.95755277894912
233,1778472113,3.2876954,-0.379509,-0.15424417,-2.4037547,-0.6078109,4.9070807
234,1778472113,3.9213289,-0.0813320574999999,-0.1339874195,-2.1401664,-0.92943145,5.1175237000000005
235,1778472113,4.5549624,0.216844885,-0.113730669,-1.8765781,-1.251052,5.3279667
236,1778472113,4.0302394,-0.180602355,0.0728510935,-1.8765781,-1.251052,5.3279667
237,1778472113,4.39491720706432,0.3723022702302079,-0.1252598448975296,-1.0232102382484478,-1.37994290017536,5.0222326134464
238,1778472113,4.75960435,0.92522105,-0.323375855,-0.16982053,-1.5088371,4.7164907
239,1778472113,3.00019575,1.43517865,0.2911603,-0.94073247,0.153938045,2.8316658500000003
240,1778472113,2.609582075,1.585334825,0.46993225,-0.78832161,0.4266893725,2.444224525
241,1778472113,2.2189684,1.735491,0.6487042,-0.63591075,0.6994407,2.0567832
242,1778472113,1.9282963,1.8152978,0.6101431,0.17959438,0.48624873,1.3329079
243,1778472113,1.679358,1.8619128,0.5103237,0.17959438,0.48624873,1.3329079
244,1778472113,1.4150439499999998,1.85678755,0.38292582,0.91568704,0.0448986,0.37537665
245,1778472113,1.1507299,1.8516623,0.25552794,1.6517797,-0.39645153,-0.5821546
246,1778472113,0.97354436,1.8021187,0.16473864,1.6542231,-0.36713,-0.9224065
247,1778472113,0.5989165,1.6119982,-0.04344219,1.6542231,-0.36713,-0.9224065
248,1778472113,0.59989274,1.4719093,-0.13227904,1.3286319,0.002443461,-1.450805
249,1778472113,0.695561945418496,1.40198774500736,-0.1132428111668479,0.99571461139584,0.1740944033398144,-1.67010279295232
250,1778472113,0.7912336,1.3320644,-0.094206095,0.6627888,0.34574974,-1.8894062
251,1778472113,0.8752449559976789,1.2445548476338673,-0.005801626360825,0.5254775232508725,0.355659500235521,-2.1337564701912326
252,1778472113,0.9592541613321728,1.1570475354836005,0.0826005791529208,0.3881697616254362,0.3655690067844272,-2.3781004850956164
253,1778472113,1.0432633666666666,1.069540223333333,0.1710027846666666,0.250862,0.3754785133333334,-2.6224445
254,1778472113,1.5190123,0.88958865,0.40659937,0.18081611,0.4538729,-2.9486465
255,1778472113,1.7030345739399422,0.7257420937212319,0.419046502428341,0.2443471842497888,0.7322285505422956,-3.332276547202335
256,1778472113,1.8870521369699709,0.5618997318606159,0.4314933162141705,0.3078766321248944,1.0105770752711478,-3.715896773601167
257,1778472113,2.0710697,0.39805737,0.44394013,0.37140608,1.2889256,-4.099517
258,1778472113,1.8211553,0.673842,0.50641876,0.37140608,1.2889256,-4.099517
259,1778472113,2.0710697,0.39805737,0.44394013,0.95111716,1.3726143,-4.8502703
260,1778472113,2.3236692,0.1461903,0.11299851,1.5515977,0.97005403,-5.3786683
261,1778472113,2.6208088500000004,-0.0339239595,-0.301410685,1.6609426,0.73731434,-5.5161133
262,1778472113,2.929419,-0.21330604,-0.5530337,1.3903292,0.49296826,-5.6309557
263,1778472113,2.78249471939328,-0.3995851218417279,-0.64284792460736,1.26815461118528,0.551153914766848,-5.6992208237824
264,1778472113,2.6355742,-0.5858594349999999,-0.73265985,1.14598315,0.60933808,-5.7674842
265,1778472113,2.302075675114346,-0.7459175583063965,-0.7386391596184763,0.6474238288546609,0.5992589803521692,-5.635641383479538
266,1778472113,1.968568612557173,-0.9059797791531982,-0.7446186223092381,0.1488517444273304,0.5891796226760846,-5.503795191739769
267,1778472113,1.63506155,-1.066042,-0.750598085,-0.3497203399999999,0.579100265,-5.371949000000001
268,1778472113,1.4939093537693078,-1.064197728733613,-0.6955527207065288,-0.3550653499618152,0.5193264072637932,-5.054899735938661
269,1778472113,1.3527571575386157,-1.062353457467226,-0.6405073564130577,-0.3604103599236304,0.4595525495275863,-4.73785047187732
270,1778472113,1.211601347765446,-1.0605091389868904,-0.5854605829402231,-0.3657555067194522,0.3997771615610345,-4.420793091250928
271,1778472113,1.070445537992277,-1.0586648205065547,-0.5304138094673885,-0.3711006535152739,0.3400017735944827,-4.1037357106245365
272,1778472113,0.9292933417615846,-1.056820549240168,-0.4753684451739173,-0.3764456634770891,0.2802279158582759,-3.786686446563196
273,1778472113,0.7881411455308923,-1.0549762779737808,-0.4203230808804461,-0.3817906734389044,0.220454058122069,-3.4696371825018564
274,1778472113,0.6469853357577231,-1.0531319594934452,-0.3652763074076115,-0.3871358202347261,0.1606786701555172,-3.152579801875464
275,1778472113,0.505829525984554,-1.0512876410131096,-0.3102295339347769,-0.3924809670305478,0.1009032821889654,-2.835522421249072
276,1778472113,0.3646773297538616,-1.0494433697467227,-0.2551841696413057,-0.397825976992363,0.0411294244527586,-2.518473157187732
277,1778472113,0.2235251335231692,-1.0475990984803356,-0.2001388053478345,-0.4031709869541783,-0.0186444332834482,-2.201423893126392
278,1778472113,0.08236932375,-1.04575478,-0.145092031875,-0.40851613375,-0.07841982125,-1.8843665125
279,1778472113,-0.7158199,-1.1116807,0.0053692595,0.2144137,-0.03848451,1.2632693
280,1778472113,-0.91570276,-1.1748916,-0.27651685,0.2144137,-0.03848451,1.2632693
281,1778472113,-0.8602620528668464,-1.1776168534884115,-0.3897981666407823,0.2528975565337747,-0.2260169394055705,1.825866598216541
282,1778472113,-0.8048199264334231,-1.180342176744206,-0.5030823833203911,0.2913823982668874,-0.4135541697027853,2.3884782991082707
283,1778472113,-0.7493778,-1.1830675,-0.6163666,0.32986724,-0.6010914,2.95109
284,1778472113,-0.56436206,-1.1239852666666668,-0.5222215099999999,-0.0838921533333333,-0.67653326,3.4664566333333333
285,1778472113,-0.37934632,-1.0649030333333334,-0.42807642,-0.4976515466666666,-0.75197512,3.9818232666666664
286,1778472113,-0.132868835,-0.9334375666666668,-0.0592448975,-0.6935356733333333,-0.4202752899999999,4.434372633333333
287,1778472113,0.11360865,-0.8019721,0.309586625,-0.8894198,-0.08857546,4.886922
288,1778472113,0.27621179,-0.698125755,0.31623718,-0.7545712925,-0.0905607715,4.883562175
289,1778472113,0.43881493,-0.59427941,0.322887735,-0.619722785,-0.092546083,4.88020235
290,1778472113,0.6462636,-0.4544346,0.15912533,-0.35002577,-0.096516706,4.8734827
291,1778472113,0.699102661331328,-0.374138742226176,0.009028198781312,-0.1970020748217728,-0.1496626632595455,4.78276818886912
292,1778472113,0.75194037,-0.29384494,-0.14106509,-0.043982297,-0.20280726,4.692056
293,1778472113,0.72655845,-0.33777523,-0.031239327,-0.043982297,-0.20280726,4.692056
294,1778472113,0.864084685,-0.2631547262499999,-0.1909747935,0.2138028314999999,-0.53633968,4.46725765
295,1778472113,1.00161092,-0.1885342225,-0.35071026,0.47158796,-0.8698721,4.2424593
296,1778472113,1.168421929791744,-0.1337135653383936,-0.378105331838592,0.412487506495488,-0.8878923943372801,4.25406557643776
297,1778472113,1.335232939583488,-0.0788929081767872,-0.405500403677184,0.353387052990976,-0.90591268867456,4.26567185287552
298,1778472113,1.502048219791744,-0.0240708475883935,-0.432896176838592,0.294285086495488,-0.92393344433728,4.27727842643776
299,1778472113,1.6688635,0.030751213,-0.46029195,0.23518312,-0.9419542,4.288885
300,1778472114,2.5521066,0.363157185,-0.25418561,-0.38759401,-0.6212499499999999,4.21435925
301,1778472114,2.7815572506587705,0.4896987203301532,-0.2089137668160136,-0.4895049506976823,-0.6340779010668327,3.877676446126737
302,1778472114,3.0110137753293853,0.6162434951650767,-0.1636407646580068,-0.5914185003488411,-0.6469061805334164,3.540985023063368
303,1778472114,3.2404703,0.74278827,-0.1183677625,-0.69333205,-0.65973446,3.2042935999999997
304,1778472114,3.31234475,0.92217031,0.0074437475,-0.6682866000000001,-0.92790432,2.57326985
305,1778472114,3.39056427377728,1.018876767141504,0.046431394701728,-0.66401060473344,-0.917825189014528,2.56212166769856
306,1778472114,3.4687858,1.1155857,0.08542004,-0.6597345,-0.9077458,2.5509732
307,1778472114,3.70808375,1.3720898,0.12983846,-0.88331115,0.29749137,1.5711454
308,1778472114,3.6122913,1.4126034,0.2421048,-0.7861836,-0.11362094,1.9730947
309,1778472114,3.2332704,1.3511009,0.2967736,-0.5821546,1.010982,0.14355333
310,1778472114,3.125200748380932,1.3126004857608045,0.2532699535783627,-0.3952890020207692,0.871794921742562,-0.1126156296365705
311,1778472114,3.0171310967618643,1.2741000715216089,0.2097663071567253,-0.2084234040415384,0.7326078434851239,-0.3687845892731411
312,1778472114,2.909064211690466,1.2356006428804025,0.1662637744141813,-0.0215625897603846,0.593424328371281,-0.6249469910682853
313,1778472114,2.800997326619068,1.1971012142391957,0.1227612416716373,0.1652982245207692,0.4542408132574381,-0.8811093928634296
314,1778472114,2.692927675,1.1586008,0.0792575952499999,0.3521638225,0.315053735,-1.1372783525
315,1778472114,2.37513056349904,1.024199784689024,0.0412604460802159,0.502514953844848,0.12633213814448,-1.534765802149232
316,1778472114,2.0573415875,0.88980221,0.0032642696249999,0.65286223625,-0.0623846274999999,-1.93224307625
317,1778472114,1.73955261150096,0.755404635310976,-0.034731906830216,0.803209518655152,-0.25110139314448,-2.329720350350768
318,1778472114,1.4217555,0.62100362,-0.072729056,0.95356065,-0.43982299,-2.7272078
319,1778472114,1.32364445,0.600136785,-0.082979468,0.4324926,0.0687223399999999,-2.88542195
320,1778472114,1.5853959,0.67799103,-0.13667206,0.34025195,0.19242255,-2.8515189
321,1778472114,1.601735323352704,0.6238140644115361,-0.1029620838307181,0.3776058817760531,0.3254062140373119,-3.007043199263488
322,1778472114,1.618075165,0.5696357118750001,-0.069251244675,0.414960769825,0.4583932825,-3.16257148
323,1778472114,1.634415006647296,0.515457359338464,-0.0355404055192819,0.4523156578739469,0.5913803509626879,-3.3180997607365117
324,1778472114,1.65075443,0.46128039375,-0.00183042935,0.48966958965,0.7243640149999999,-3.47362406
325,1778472114,1.667093853352704,0.407103428161536,0.0318795468192818,0.5270235214260531,0.8573476790373119,-3.629148359263488
326,1778472114,1.683433695,0.352925075625,0.0655903859749999,0.564378409475,0.9903347475,-3.78467664
327,1778472114,1.699773536647296,0.298746723088464,0.099301225130718,0.6017332975239469,1.123321815962688,-3.940204920736512
328,1778472114,1.71611296,0.2445697575,0.1330112012999999,0.6390872293,1.25630548,-4.09572922
329,1778472114,1.732452383352704,0.190392791911536,0.1667211774692819,0.676441161076053,1.389289144037312,-4.251253519263488
330,1778472114,1.748792225,0.136214439375,0.200432016625,0.7137960491249999,1.5222762125,-4.4067818
331,1778472114,1.6820425,-0.5459561,-0.1632743,2.7635543,0.9242391,-6.447683
332,1778472114,1.5638781333333334,-0.6712794833333333,-0.4165243733333333,2.45384565,1.0848966666666666,-6.576677166666666
333,1778472114,1.4457137666666666,-0.7966028666666666,-0.6697744466666666,2.144137,1.2455542333333334,-6.705671333333332
334,1778472114,1.2329772,-0.7895252,-0.8659151,1.7128662,1.3750577,-6.6071186
335,1778472114,1.2551864,-0.73778504,-0.8341876,1.2663237,1.3548992,-6.386596
336,1778472114,1.168058,-0.74535084,-0.6570021,0.96883225,1.2345587,-6.2314363
337,1778472114,1.0094208,-0.810026,-0.5715821,0.54061574,0.6414085,-6.081774
338,1778472114,0.7487676,-0.9025237,-0.5125202,0.49113566,0.25534168,-6.007249
339,1778472114,0.41733786,-0.96719885,-0.49104318,0.5112942,-0.82711154,-5.5014524
340,1778472114,0.055400997,-0.9942892,-0.51349646,0.46486846,-1.2137892,-5.0933943
341,1778472114,-0.4117795965118592,-1.00209892503424,-0.55309424064192,0.46486846,-1.2137892,-5.0933943
342,1778472114,-0.8789721500000001,-1.00990885,-0.5926930349999999,0.46486846,-1.2137892,-5.0933943
343,1778472114,-1.1892909,-0.96671075,-0.47786412,-0.7452556,-2.0042489,-1.8918496
344,1778472114,-1.0704352,-0.8449261,-0.084931925,-1.4563028,-1.8264871,0.2510656
345,1778472114,-0.920829944971776,-0.82296128115328,0.147773678830144,-1.4563028,-1.8264871,0.2510656
346,1778472114,-0.77122086,-0.8009959,0.38048524,-1.4563028,-1.8264871,0.2510656
347,1778472114,-0.40635532,-0.7653635,0.6582224,-1.6658295,-1.2858714,1.881465
348,1778472114,-0.32069122,-0.7612145499999999,0.67286585,-1.50730995,-1.0500774,2.37932015
349,1778472114,-0.23502712,-0.7570656,0.6875093,-1.3487904,-0.8142834,2.8771753
350,1778472114,-0.1057988175,-0.7895251750000001,0.635159,-0.463035835,-0.522900675,3.6154059
351,1778472114,-0.0429532713623059,-0.8438896308561281,0.515081293025024,-0.1805070511778559,-0.56306557660416,3.75758666989056
352,1778472114,0.01989066595,-0.898252695,0.39500666,0.1020144999999999,-0.60322945,3.8997638
353,1778472114,0.1258115075,-0.97159185,0.037096695,1.1972959,-0.8338311,4.465425
354,1778472114,0.2066358280253737,-0.9675242086232378,-0.1305720607550687,1.310306897681503,-0.8395325486517391,4.586377365446974
355,1778472114,0.2874601485507475,-0.9634565672464758,-0.2982408165101375,1.4233178953630066,-0.8452339973034781,4.707329730893949
356,1778472114,0.3682824,-0.95938903,-0.46590528,1.536326,-0.8509353,4.828279
357,1778472114,0.48006064,-0.91545874,-0.5440036,1.1820242,-0.53878313,5.393329
358,1778472114,0.6016011,-0.84517026,-0.5691415,0.7861836,-0.2883284,5.5246654
359,1778472114,0.8402891,-0.6640798,-0.49177536,0.13316862,0.15393804,5.561317
360,1778472114,0.9004893862843149,-0.5977781324481385,-0.4377578109556521,-0.0659717539803903,0.2995263509638441,5.467855464215313
361,1778472114,0.9606896725686296,-0.5314764648962769,-0.3837402619113041,-0.2651121279607806,0.4451146619276882,5.374393928430628
362,1778472114,1.0208915,-0.4651731,-0.32972133,-0.4642576,0.5907067,5.28093
363,1778472114,1.0987457,-0.30922052,-0.24527754,-0.4642576,0.5907067,5.28093
364,1778472114,0.98477095,-0.22794947,-0.21721096,-0.6542367,0.6469063,4.7519207
365,1778472114,0.83760446,-0.24186075,-0.22160399,-0.5235115,0.34208453,4.2772784
366,1778472114,0.75316066,-0.23819989,-0.25015867,-0.2828306,-0.15393804,4.1099014
367,1778472114,0.8747012,-0.19646609,-0.30507156,0.48258355,-1.6487253,4.3285913
368,1778472114,1.3620835,-0.0302631049999999,-0.49738868,0.48258355,-1.6487253,4.3285913
369,1778472114,1.8494658,0.13593988,-0.6897058,0.48258355,-1.6487253,4.3285913
370,1778472114,1.954587642607739,0.1829161847477179,-0.631030305854247,0.3048023560827244,-1.5385414541055642,4.245351256035208
371,1778472114,2.0597094852154783,0.2298924894954359,-0.5723548117084941,0.1270211621654489,-1.4283576082111282,4.162111212070415
372,1778472114,2.164828636738493,0.2768675916651453,-0.5136808196361647,-0.0507554806115169,-1.3181765829870429,4.0788732990234715
373,1778472114,2.269947788261507,0.3238426938348547,-0.4550068275638353,-0.2285321233884828,-1.2079955577629573,3.995635385976529
374,1778472114,2.3750696308692465,0.3708189985825727,-0.3963313334180823,-0.4063133173057583,-1.0978117118685211,3.912395342011736
375,1778472114,2.4801914734769857,0.4177953033302906,-0.3376558392723294,-0.5840945112230339,-0.9876278659740856,3.829155298046943
376,1778472114,2.585310625,0.4647704055000001,-0.2789818472,-0.7618711539999997,-0.87744684075,3.745917385
377,1778472114,2.6904297765230143,0.5117455076697095,-0.2203078551276706,-0.9396477967769656,-0.7672658155259146,3.6626794719530578
378,1778472114,2.7955516191307535,0.5587218124174275,-0.1616323609819176,-1.1174289906942412,-0.6570819696314787,3.5794394279882646
379,1778472114,2.9006734617384926,0.6056981171651454,-0.1029568668361646,-1.2952101846115167,-0.5468981237370428,3.496199384023472
380,1778472114,3.005792613261507,0.6526732193348548,-0.0442828747638352,-1.4729868273884823,-0.4367170985129573,3.412961470976529
381,1778472114,3.1109117647845212,0.6996483215045642,0.014391117308494,-1.6507634701654483,-0.3265360732888718,3.3297235579295856
382,1778472114,3.216033607392261,0.7466246262522822,0.073066611454247,-1.828544664082724,-0.2163522273944359,3.246483513964793
383,1778472114,3.32115545,0.7936009310000001,0.1317421056,-2.006325858,-0.1061683815,3.1632434700000003
384,1778472114,3.29465085,1.06274725,1.36855105,-1.509448,0.96089102,-0.1740966
385,1778472114,2.9982890246398948,1.015278943469468,1.1880737968512134,-0.680008984273731,0.8854504608686896,-0.6657329259659692
386,1778472114,2.7019196123199474,0.967809421734734,1.0075919234256068,0.1494512653631346,0.8100079704343448,-1.1573818379829848
387,1778472114,2.4055502,0.9203399,0.8271100499999999,0.9789115149999998,0.73456548,-1.64903075
388,1778472114,1.918412,0.77256322,0.276516875,2.4642303,0.18020524,-2.552806
389,1778472114,1.84141326412858,0.7426260492675871,0.0914026043239922,2.440814266305424,0.1706351833310578,-2.771695597569717
390,1778472114,1.76441255706429,0.7126881121337936,-0.0937164053380038,2.417397633152712,0.1610648816655288,-2.9905907987848583
391,1778472114,1.6874118500000002,0.682750175,-0.278835415,2.393981,0.15149458,-3.209486
392,1778472114,1.7668924217571065,0.6631850836242501,-0.2289261292313567,2.005066752110729,0.5074223493774906,-3.4043503371363717
393,1778472114,1.8463729935142124,0.6436199922485003,-0.1790168434627134,1.616152504221458,0.8633501187549814,-3.5992146742727433
394,1778472114,1.9258556,0.6240544,-0.12910628,1.2272283,1.219287,-3.794084
395,1778472114,1.9607970963272376,0.4992169861354075,-0.0189532334120678,1.3029768927594358,1.466895292460768,-4.10135457735073
396,1778472114,1.9957376981636188,0.3743827680677037,0.091196993293966,1.3787235463797178,1.7144972462303838,-4.408617288675365
397,1778472114,2.0306783,0.2495485499999999,0.20134722,1.4544702,1.9620992,-4.71588
398,1778472114,2.0327528,0.05832968,0.12471326,2.2015584,1.8784106,-5.4208183
399,1778472114,2.038366,-0.24649782,-0.1295944,2.5179865,1.7256943,-5.742133
400,1778472115,2.0278716562195465,-0.3540041292677515,-0.266224614073916,2.695339519901525,1.524314118466212,-5.973954421765213
401,1778472115,2.017377312439093,-0.4615104385355031,-0.4028548281478321,2.87269253980305,1.3229339369324242,-6.205775843530426
402,1778472115,2.0068827,-0.5690195,-0.53948854,3.0500501,1.1215486,-6.4376032
403,1778472115,1.90669594262592,-0.6889751604128,-0.672989578791424,2.6807773733696,0.7058494691192321,-6.90110333272576
404,1778472115,1.80651175,-0.8089277500000001,-0.8064872,2.3115141,0.29016098,-7.3645916
405,1778472115,1.6720362,-0.8937377,-0.8849516,2.3115141,0.29016098,-7.3645916
406,1778472115,1.487956025,-0.89691041,-0.91887555,2.106110675,0.33078352,-7.313431625
407,1778472115,1.3038758499999998,-0.90008312,-0.9527995,1.90070725,0.37140606,-7.26227165
408,1778472115,1.1932569249999998,-0.8311369399999999,-0.7951385000000001,1.15560435,0.47311513,-6.970125325
409,1778472115,1.082638,-0.76219076,-0.6374775,0.41050145,0.5748242,-6.677979
410,1778472115,1.0369992,-0.7678041,-0.47347105,-0.45081854,0.5155703,-6.136752
411,1778472115,0.7499879,-0.77732235,-0.0605262,-0.6872234,0.4251622,-5.9498277
412,1778472115,0.5259434,-0.78757274,0.017328065,-0.6872234,0.4251622,-5.9498277
413,1778472115,0.15424417,-0.79587066,-0.0053692595,-0.46731192,-0.30543262,-4.9138002
414,1778472115,-0.20818083,-0.75657743,-0.065407336,-0.3555236,-0.68233645,-4.307211
415,1778472115,-0.43295756,-0.70142055,-0.10396838,-0.36346483,-0.9663888,-3.7409387
416,1778472115,-0.568287295,-0.62222394,-0.07571875625,-0.606894615,-1.13162785,-2.7134634
417,1778472115,-0.70361703,-0.54302733,-0.0474691325,-0.8503244,-1.2968669,-1.6859881
418,1778472115,-0.74193406,-0.5037342,0.08566409,-0.8503244,-1.2968669,-1.6859881
419,1778472115,-0.7394935,-0.5205741,0.25870067,-1.3115277,-0.61208695,0.24251351
420,1778472115,-0.67274383,-0.5155709,0.35839805,-1.3115277,-0.61208695,0.24251351
421,1778472115,-0.60599416,-0.5105677,0.45809543,-1.3115277,-0.61208695,0.24251351
422,1778472115,-0.5195979,-0.53765815,0.46444094,-1.0922271,0.016493361,1.6749926
423,1778472115,-0.5137404400254719,-0.57146050766464,0.40281570120704,-0.7205108220925439,-0.03207104811648,2.11329401018624
424,1778472115,-0.50788313,-0.605262,0.34119204,-0.34880406,-0.080634214,2.5515842
425,1778472115,-0.49641246,-0.6557818,0.260165,-0.34880406,-0.080634214,2.5515842
426,1778472115,-0.4371028875402517,-0.6605318143895247,0.214885817997111,-0.2777597043901104,-0.1055195917355062,2.7112660076207806
427,1778472115,-0.3777933150805034,-0.6652818287790495,0.169606635994222,-0.2067153487802207,-0.1304049694710125,2.870947815241561
428,1778472115,-0.3184852609263758,-0.6700317215697623,0.1243286131235555,-0.1356728118825552,-0.1552897101490031,3.0306255350603903
429,1778472115,-0.2591772067722482,-0.6747816143604752,0.0790505902528889,-0.0646302749848896,-0.1801744508269937,3.1903032548792196
430,1778472115,-0.1998676343125,-0.67953162875,0.0337714082499999,0.0064140806249999,-0.2050598285625,3.3499850625
431,1778472115,-0.1405580618527517,-0.6842816431395248,-0.0115077737528889,0.0774584362348896,-0.2299452062980062,3.5096668701207805
432,1778472115,-0.0812500076986241,-0.6890315359302376,-0.0567857966235555,0.1485009731325551,-0.2548299469759968,3.6693445899396098
433,1778472115,-0.0219419535444965,-0.6937814287209505,-0.1020638194942221,0.2195435100302206,-0.2797146876539874,3.829022309758439
434,1778472115,0.0373676189152517,-0.6985314431104752,-0.147343001497111,0.2905878656401103,-0.3046000653894937,3.98870411737922
435,1778472115,0.096677191375,-0.7032814575,-0.1926221835,0.36163222125,-0.329485443125,4.148385925
436,1778472115,0.3492001706875,-0.59350146375,-0.26013451675,0.149967415625,-0.0508163565624999,4.4642033125
437,1778472115,0.60172315,-0.48372147,-0.32764685,-0.06169739,0.22785273,4.7800207
438,1778472115,0.6703642249999999,-0.42295121,-0.272428905,0.1350012149999999,-0.415999235,4.55827665
439,1778472115,0.7390053,-0.36218095,-0.21721096,0.33169982,-1.0598512,4.3365326
440,1778472115,0.822717,-0.32850105,-0.2865232,0.33169982,-1.0598512,4.3365326
441,1778472115,1.0782449,-0.21623473,-0.5366819,0.33169982,-1.0598512,4.3365326
442,1778472115,1.3906382,-0.07687803,-0.70142055,0.8717047,-1.5699236,4.4904704
443,1778472115,1.9346417,0.15619664,-0.8678676,0.80573124,-1.6438384,4.819116
444,1778472115,2.911115,0.5657247,-1.0418804,0.62796944,-1.6652187,5.054299
445,1778472115,3.068203768984026,0.6899883858726149,-0.9176166957943646,0.0222050651776632,-1.435537286612964,4.829911662926238
446,1778472115,3.225296559492013,0.8142552529363075,-0.7933498103971823,-0.5835748174111683,-1.205849993306482,4.6055185814631185
447,1778472115,3.38238935,0.93852212,-0.669082925,-1.1893547,-0.9761627,4.3811255
448,1778472115,3.3036809,0.9905673475,-0.378532785,-1.4966199,-0.80939645,4.042095349999999
449,1778472115,3.22497245,1.0426125750000002,-0.087982645,-1.8038851,-0.6426302,3.7030652
450,1778472115,3.297620769924395,1.1580933020895912,0.0224541990490067,-1.6545272588294024,-0.5704456806999864,3.518276839826177
451,1778472115,3.37026908984879,1.2735740291791822,0.1328910430980134,-1.5051694176588046,-0.4982611613999727,3.3334884796523534
452,1778472115,3.44291555,1.3890517999999998,0.2433250599999999,-1.3558154,-0.42607849,3.1487048499999997
453,1778472115,3.342487697323958,1.43383555234751,0.2016733391984674,-1.2388366964620952,-0.155368006851384,2.6434261235339793
454,1778472115,3.242057273661979,1.4786204511737548,0.1600205520992337,-1.1218549982310475,0.1153494065743079,2.1381344617669895
455,1778472115,3.1416268499999997,1.52340535,0.118367765,-1.0048733,0.38606682,1.6328428
456,1778472115,2.752050525,1.429138225,0.1735247025,-0.952491625,0.57497691,1.02381014375
457,1778472115,2.3624742,1.3348711,0.22868164,-0.90010995,0.763887,0.4147774875
458,1778472115,1.837019,1.1995413,0.3231318,-1.0311406,0.7318166,0.73426
459,1778472115,1.5944259,1.2163813,0.24015234,-0.2602286,0.6469063,-0.14721853
460,1778472115,1.5862907360876206,1.2328550260890714,0.1910972502754571,-0.1661561520951641,0.6359108104960448,-0.2280556668476025
461,1778472115,1.5781555721752414,1.2493287521781429,0.1420421605509143,-0.0720837041903282,0.6249153209920897,-0.3088928036952051
462,1778472115,1.5700202,1.2658029,0.092985815,0.021991152,0.6139195500000001,-0.38973201
463,1778472115,1.45878975126848,1.2368207290329598,0.082491215670848,0.0656685740638464,0.7192951587905281,-0.658668897348096
464,1778472115,1.34756215,1.2078392999999998,0.071996885,0.109344878,0.82466807,-0.9275989
465,1778472115,1.32698031793443,1.1704585046404068,0.1247530262836638,0.0910192340949926,1.0865211776497594,-1.2058432512356214
466,1778472115,1.306397958967215,1.1330767523202034,0.1775105181418319,0.0726931210474963,1.3483809888248797,-1.4840947256178108
467,1778472115,1.2858155999999998,1.095695,0.23026801,0.054367008,1.6102408,-1.7623462
468,1778472115,1.4009496499999998,1.06335741,0.303851265,0.120035024,1.67132735,-1.86466615
469,1778472115,1.5160836999999998,1.03101982,0.37743452,0.18570304,1.7324139,-1.9669861
470,1778472115,1.58222325,1.00240413,0.420205545,0.18570304,1.7324139,-1.9669861
471,1778472115,1.6483628,0.97378844,0.46297657,0.18570304,1.7324139,-1.9669861
472,1778472115,1.64506795,0.57158206,0.472372775,1.5326608,1.6737708,-3.7513235
473,1778472115,1.5961344,0.26577836,0.2979939,2.9266553,0.84421575,-5.0121493
474,1778472115,1.5797825,0.13960074,0.14277348,2.9266553,0.84421575,-5.0121493
475,1778472115,1.5983309,0.048567392,0.003172744,3.209486,0.5546656,-5.2998667
476,1778472115,1.599795225,-0.0367306164999999,-0.1525357805,3.17619385,0.22235493,-5.72625065
477,1778472115,1.60125955,-0.122028625,-0.308244305,3.1429017,-0.10995574,-6.1526346
478,1778472115,1.558653636695978,-0.1405042901816118,-0.3348468547477854,2.9401476098007855,-0.1325500843671873,-6.056132634225265
479,1778472115,1.516047723391956,-0.1589799553632236,-0.3614494044955709,2.737393519601571,-0.1551444287343747,-5.95963066845053
480,1778472115,1.4734429007853538,-0.1774551475738609,-0.3880512732267998,2.5346446198406283,-0.1777381946937498,-5.863131173094498
481,1778472115,1.4308380781787515,-0.1959303397844981,-0.4146531419580286,2.3318957200796855,-0.200331960653125,-5.766631677738466
482,1778472115,1.3882321648747298,-0.2144060049661099,-0.4412556917058141,2.129141629880471,-0.2229263050203124,-5.670129711963731
483,1778472115,1.3456262515707078,-0.2328816701477218,-0.4678582414535995,1.9263875396812569,-0.2455206493874997,-5.573627746188996
484,1778472115,1.3030214289641056,-0.251356862358359,-0.4944601101848284,1.723638639920314,-0.2681144153468749,-5.477128250832963
485,1778472115,1.2604166063575033,-0.2698320545689963,-0.5210619789160573,1.5208897401593713,-0.2907081813062501,-5.3806287554769305
486,1778472115,1.217810693053481,-0.2883077197506081,-0.5476645286638427,1.3181356499601569,-0.3133025256734374,-5.284126789702196
487,1778472115,1.1752047797494594,-0.3067833849322199,-0.5742670784116282,1.1153815597609424,-0.3358968700406248,-5.187624823927461
488,1778472115,1.132599957142857,-0.3252585771428571,-0.6008689471428571,0.91263266,-0.358490636,-5.091125328571429
489,1778472115,-0.06418706,-0.38780698,0.10518867,-1.9761491,-0.36163223,-2.8050933
490,1778472115,-0.16498269,-0.40903994,0.21672285,-2.1514673,-0.16126843,-1.4611896
491,1778472115,-0.39756927,-0.47542354,0.44027928,-2.1514673,-0.16126843,-1.4611896
492,1778472115,-0.4888467,-0.4949481,0.50446635,-1.599856,-0.20952678,-0.19181168
493,1778472115,-0.56987363,-0.5213063,0.54717636,-1.3402383,-0.24556783,0.20586158
494,1778472115,-0.5800020225,-0.566822975,0.523807875,-1.184620385,-0.2703078725,0.419969835
495,1778472115,-0.590130415,-0.61233965,0.5004393899999999,-1.02900247,-0.295047915,0.63407809
496,1778472115,-0.5769921104483006,-0.6430905959219027,0.4397510078808229,-0.7052466627515851,-0.3254891068985041,1.0813294600727896
497,1778472115,-0.5638538058966011,-0.6738415418438052,0.3790626257616459,-0.3814908555031701,-0.3559302987970082,1.5285808301455792
498,1778472115,-0.550715165,-0.704593275,0.31837269,-0.0577267599999999,-0.38637227,1.97584365
499,1778472115,-0.539488565,-0.7719530800000001,0.207326645,0.1863139,-0.39767328,2.5118778
500,1778472116,-0.5374141,-0.80441266,0.17523311,0.07880162,-0.39767328,2.2131648
501,1778472116,-0.481281626004864,-0.828940136044288,0.155891817571712,0.203721960999168,-0.384539843110144,2.6357253911552
502,1778472116,-0.425147715,-0.85346824,0.13655003,0.3286455,-0.37140607,3.0582968
503,1778472116,-0.27980976719808,-0.814296536108608,0.110557599801152,0.5028970428912,-0.277331620862464,3.61312232667584
504,1778472116,-0.13447554,-0.775125835,0.084565835,0.677144125,-0.1832595799999999,4.16793365
505,1778472116,0.0895661422297599,-0.671158768295488,-0.0262957484535679,0.691041134616,-0.1664610000245759,4.20550134412736
506,1778472116,0.31361356,-0.56718904,-0.13716017,0.7049385,-0.14966199,4.24307
507,1778472116,0.37755656,-0.5256993,-0.2186753,0.7556403,0.012217305,4.301102
508,1778472116,0.38194957,-0.50031734,-0.24552159,0.66339964,0.055588737,4.197866
509,1778472116,0.3590082,-0.47225076,-0.21769907,0.5821546,0.08735373,4.0982947
510,1778472116,0.34290043,-0.5047104,-0.21062139,0.5821546,0.08735373,4.0982947
511,1778472116,0.3633609191878792,-0.506866281793245,-0.2565862944576617,0.6481291592847329,0.0246371609842559,4.100738175034774
512,1778472116,0.3838208845939396,-0.5090221083966225,-0.3025500222288309,0.7141020296423665,-0.038077802507872,4.103181587517387
513,1778472116,0.40428085,-0.5111779350000001,-0.34851375,0.7800749,-0.100792766,4.105625
514,1778472116,0.7122811,-0.4364964,-0.61502425,1.0800097,-0.61941737,4.3408084
515,1778472116,1.1567982863295416,-0.3065336926648519,-0.7531630075379522,0.8989868772500362,-0.906732583450212,4.475608233887718
516,1778472116,1.6013040931647708,-0.1765743123324259,-0.891298228768976,0.7179686886250182,-1.194040441725106,4.610404616943859
517,1778472116,2.0458099,-0.046614932,-1.02943345,0.5369505,-1.4813483,4.745201
518,1778472116,2.482513326488207,0.0700861028360839,-1.000959873695259,0.06413678204125,-1.432376815448681,4.70406911567908
519,1778472116,2.919216752976414,0.1867871376721677,-0.9724862973905176,-0.4086769359175,-1.3834053308973615,4.66293723135816
520,1778472116,3.355909,0.303485185,-0.94401345,-0.88147855,-1.3344351,4.6218064000000005
521,1778472116,3.71430745,0.46688151,-0.554254025,-1.9669861,-1.097114,4.4263296
522,1778472116,3.825231374999999,0.544979805,-0.4001318675,-2.0980167,-1.016174335,4.470922799999999
523,1778472116,3.9361553,0.6230781,-0.24600971,-2.2290473,-0.93523467,4.515516
524,1778472116,3.922732,0.8722606150000001,0.29604144,-2.1813998,-0.529314725,4.24276455
525,1778472116,3.80326762916352,0.928271015557696,0.390246339161856,-2.1575763549439997,-0.3263573503876479,4.10639057060928
526,1778472116,3.6838002,0.98428285,0.48445365,-2.1337523,-0.12339478,3.9700131
527,1778472116,3.4246116,1.0199152,0.51788944,-1.0726794,0.7287622,2.656653
528,1778472116,3.1390643,1.0413923,0.4724948,-1.0726794,0.7287622,2.656653
529,1778472116,2.5848103,1.0772687,0.24527754,-0.54183745,0.6230826,2.2773056
530,1778472116,2.3634505,1.1141213,0.0622346,0.84971356,-0.23335053,1.5442673
531,1778472116,2.2863225297746177,1.1223436992453633,0.0279294735700021,0.8566775109674314,-0.2191599474628685,1.301457479174075
532,1778472116,2.2091965339999997,1.130565888,-0.00637477466,0.8636412836599999,-0.2049697282,1.0586538742
533,1778472116,2.132070538225382,1.1387880767546368,-0.0406790228900021,0.8706050563525686,-0.1907795089371315,0.8158502692259252
534,1778472116,2.054942568,1.147010476,-0.07498414932,0.87756900732,-0.1765889264,0.5730404484
535,1778472116,1.9778145977746175,1.1552328752453631,-0.1092892757499978,0.8845329582874314,-0.1623983438628685,0.3302306275740749
536,1778472116,1.900688602,1.163455064,-0.14359352398,0.8914967309799999,-0.1482081246,0.0874270226
537,1778472116,1.8235626062253825,1.1716772527546369,-0.1778977722100022,0.8984605036725686,-0.1340179053371315,-0.1553765823740747
538,1778472116,1.7464346359999998,1.179899652,-0.21220289864,0.90542445464,-0.1198273228,-0.3981864031999998
539,1778472116,1.6693066657746174,1.1881220512453632,-0.2465080250699978,0.9123884056074314,-0.1056367402628685,-0.640996224025925
540,1778472116,1.59218067,1.19634424,-0.2808122733,0.9193521783,-0.091446521,-0.883799829
541,1778472116,1.540221550085248,1.066397620838016,-0.1185040777214963,1.074509953105061,0.3259828963350656,-2.161469210122586
542,1778472116,1.4882611,0.936447675,0.043808273,1.2296717,0.743423,-3.4391713
543,1778472116,1.6119982,0.80465674,-0.110801995,1.2296717,0.743423,-3.4391713
544,1778472116,1.7313421,0.5440036,-0.2608972,1.7232509,-0.38728857,-4.7891836
545,1778472116,1.7638018,0.4253918,-0.28871974,1.7232509,-0.38728857,-4.7891836
546,1778472116,1.7364673,0.332283955,-0.29726173,1.7232509,-0.38728857,-4.7891836
547,1778472116,1.7091328,0.23917611,-0.30580372,1.7232509,-0.38728857,-4.7891836
548,1778472116,1.6261535,-0.039781332,-0.28701133,1.6120734,-0.7104363,-5.657223
549,1778472116,1.6182624346759054,-0.1081161950700754,-0.3105217720833191,1.5275718088456156,-0.680097174461037,-5.779190385063317
550,1778472116,1.6103711673379528,-0.1764528075350377,-0.3340328160416596,1.4430680544228078,-0.6497572722305185,-5.901160892531658
551,1778472116,1.6024799,-0.24478942,-0.35754386,1.3585643,-0.61941737,-6.0231314
552,1778472116,1.72096965,-0.381217425,-0.5181335499999999,0.45814893,-0.20891592,-5.991977
553,1778472116,1.70992626635712,-0.4578504315849599,-0.5314345047456,0.333534020091264,-0.326811400918528,-5.9528822004198405
554,1778472116,1.6988826,-0.5344854,-0.5447358,0.20891592,-0.4447099,-5.9137864
555,1778472116,1.68558122974464,-0.5516916202368,-0.480425866843392,-0.196398377956608,-0.81948049700224,-5.57475186041344
556,1778472116,1.6722802,-0.5688974,-0.41611758,-0.6017023,-1.1942415,-5.235726
557,1778472116,1.54244185,-0.5224045500000001,-0.27163571,-1.1453724,-1.128879,-4.59615
558,1778472116,1.363792,-0.47127452,-0.093473926,-1.5149459,-0.79779,-4.1276164
559,1778472116,1.0299215,-0.45467865,0.17718557,-2.0103576,0.40866885,-2.9590313
560,1778472116,0.8768977,-0.4417436,0.26821893,-2.0103576,0.40866885,-2.9590313
561,1778472116,0.54888475,-0.457973435,0.3925661,-1.8356501,0.7715228,-2.357329
562,1778472116,0.3633183059199458,-0.5147985749016537,0.3673873084770625,-1.660126635552275,0.7615452481926477,-2.185674401899512
563,1778472116,0.1777518618398915,-0.5716237148033075,0.342208516954125,-1.48460317110455,0.7515676963852954,-2.014019803799024
564,1778472116,-0.0078098318,-0.6284474,0.31703037,-1.3090842,0.7415904,-1.8423696
565,1778472116,-0.16473864,-0.7106947,0.22990192,-0.7141015,0.48380527,-1.3402383
566,1778472116,-0.3275248,-0.8053889,0.13593988,-0.42088616,0.23579398,-0.8173377
567,1778472116,-0.5852493,-0.93107843,0.06955632,-0.312763,0.073303826,-0.077579886
568,1778472116,-0.70117646,-0.97281224,0.09567044,-0.312763,0.073303826,-0.077579886
569,1778472116,-0.8676235,-1.0345587,0.15204766,-0.032375857,-0.004886922,0.9999864
570,1778472116,-0.9418169,-1.0455412,0.12495731,-0.032375857,-0.004886922,0.9999864
571,1778472116,-1.00014662,-1.04053805,0.0147654645,0.2864958,-0.045814894,1.7959439
572,1778472116,-0.94517271,-1.011251175,-0.09377899775,0.33658675,-0.01954768825,2.17498575
573,1778472116,-0.8901988,-0.9819643,-0.20232346,0.3866777,0.0067195175,2.5540276
574,1778472116,-0.75907905,-0.918448425,-0.25467373,0.297491375,0.0748309937499999,2.97735715
575,1778472116,-0.6279593,-0.85493255,-0.307024,0.20830505,0.14294247,3.4006867
576,1778472116,-0.43320164,-0.7648754,-0.29164842,0.059864793,0.19181168,3.694513
577,1778472116,-0.13227904,-0.6372335,-0.18865626,-0.1459968,0.23273966,3.962072
578,1778472116,-0.0583290596349114,-0.6068074237008055,-0.1491999991442169,-0.208916460240895,0.2129881814562071,4.011348887157388
579,1778472116,0.0156209207301771,-0.5763813474016111,-0.1097437382884339,-0.2718361204817899,0.1932367029124142,4.060625774314777
580,1778472116,0.089569008,-0.54595605,-0.0702884875,-0.33475417,0.17348573,4.1099014
581,1778472116,0.19134088,-0.5108118,-0.058085624,-0.2779437,-0.06841691,4.0915756
582,1778472116,0.3505202205250346,-0.4709305285332963,-0.1051395592826624,-0.2651945516278045,-0.1362973520992782,4.127311650008178
583,1778472116,0.5096995610500693,-0.4310492570665927,-0.1521934945653248,-0.2524454032556089,-0.2041777941985564,4.163047700016355
584,1778472116,0.6688748266361457,-0.3911690065473704,-0.1992462252826624,-0.2396965812574341,-0.2720564985807597,4.198782835193363
585,1778472116,0.8280500922222221,-0.3512887560281482,-0.246298956,-0.2269477592592592,-0.339935202962963,4.23451797037037
586,1778472116,0.9872294327472568,-0.3114074845614444,-0.2933528912826624,-0.2141986108870637,-0.4078156450622412,4.270254020378548
587,1778472116,1.1464087732722914,-0.2715262130947408,-0.3404068265653248,-0.2014494625148681,-0.4756960871615194,4.305990070386725
588,1778472116,1.3055840388583675,-0.2316459625755185,-0.3874595572826624,-0.1887006405166933,-0.5435747915437227,4.341725205563733
589,1778472116,1.4647593044444442,-0.1917657120562962,-0.4345122880000001,-0.1759518185185185,-0.611453495925926,4.377460340740741
590,1778472116,1.6239386449694788,-0.1518844405895926,-0.4815662232826624,-0.1632026701463229,-0.6793339380252043,4.413196390748919
591,1778472116,1.7831179854945134,-0.1120031691228889,-0.5286201585653248,-0.1504535217741274,-0.7472143801244825,4.448932440757097
592,1778472116,1.94229325108059,-0.0721229186036666,-0.5756728892826625,-0.1377046997759526,-0.8150930845066857,4.484667575934104
593,1778472116,2.1014685166666665,-0.0322426680844444,-0.6227256200000001,-0.1249558777777777,-0.8829717888888889,4.520402711111111
594,1778472116,3.060667758333333,0.3305619909577777,-0.363957145,-0.6632639388888889,-0.8513764944444444,4.546669855555555
595,1778472116,4.019867,0.69336665,-0.10518867,-1.201572,-0.8197812,4.572937
596,1778472116,4.107117499999999,0.79733506,-0.0564992509,-1.1038335,-0.8491027,4.4608433
597,1778472116,4.194368,0.90130347,-0.0078098318,-1.006095,-0.8784242,4.3487496
598,1778472116,3.97239785,0.98574716,0.10055158,-0.639881355,-0.3094032431,3.0918945
599,1778472116,3.4978224255123203,0.9512736562448,0.096524585955136,-0.4433329427125248,-0.100637373431072,2.59158942117696
600,1778472117,3.0232591500000003,0.916801035,0.0924976949999999,-0.246789562,0.1081231518999999,2.09129715
601,1778472117,2.6782842,0.93059033,-0.01415532,0.63529986,-0.013439035,1.0775663
602,1778472117,2.358081,0.9723241,-0.19134088,0.63529986,-0.013439035,1.0775663
603,1778472117,2.230599657679606,0.9758222930350636,-0.2530884171444785,0.7751903941012228,-0.1001833804178791,0.8649815619335762
604,1778472117,2.103121578839803,0.979320396517532,-0.3148343735722392,0.9150773470506114,-0.1869255052089395,0.6524022659667882
605,1778472117,1.9756435,0.9828185,-0.37658033,1.0549643,-0.27366763,0.43982297
606,1778472117,1.6376241,0.98062205,-0.48787045,1.1160508,-0.30787608,-0.073303826
607,1778472117,1.5340205238912,0.9928250811968,-0.462000053863168,0.97646631334144,-0.211052700676608,-0.2709212624708095
608,1778472117,1.4304196,1.0050278,-0.43613032,0.8368854,-0.1142318,-0.46853364
609,1778472117,1.31254143385984,1.00478370312448,-0.316848861822208,0.48472608269696,0.29534809481024,-0.754414920672768
610,1778472117,1.19466025,1.0045396,-0.19756435,0.1325577499999999,0.7049384750000001,-1.04030352
611,1778472117,1.1783084,1.0072243,-0.063943,-0.10629055,1.0928379,-1.4984524
612,1778472117,1.1504859,0.95987713,0.13618395,0.1777618,1.029308,-1.9834795
613,1778472117,1.17501328604544,0.918631992944512,0.143993680034176,0.1777618,1.029308,-1.9834795
614,1778472117,1.1995413,0.8773858,0.15180361,0.1777618,1.029308,-1.9834795
615,1778472117,1.2546983,0.8358961,0.107385196,1.0024298,0.52534413,-2.783102
616,1778472117,1.32132595,0.784461015,0.04765218125,1.1099421,0.440739285,-2.9220737999999997
617,1778472117,1.3879536,0.7330259299999999,-0.0120808335,1.2174544,0.35613444,-3.0610456
618,1778472117,1.39799057847168,0.6558723461967679,-0.0654690397352927,1.29480621509056,0.2961925195032384,-3.36136610655328
619,1778472117,1.40802755694336,0.5787187623935359,-0.1188572459705855,1.37215803018112,0.2362505990064768,-3.66168661310656
620,1778472117,1.41806427847168,0.501567153696768,-0.1722440854852927,1.44950786509056,0.1763102130032384,-3.96199943155328
621,1778472117,1.428101,0.424415545,-0.2256309249999999,1.5268577,0.116369827,-4.26231225
622,1778472117,1.44280545,0.33417538,-0.31160009,1.3701707499999998,0.2278527385,-4.64059055
623,1778472117,1.4575099,0.243935215,-0.397569255,1.2134838,0.33933565,-5.0188688500000005
624,1778472117,1.5160836249999998,0.1285571525,-0.4333846575,0.8860600375,0.302683735,-5.253135575
625,1778472117,1.5746573499999998,0.01317909,-0.46920006,0.558636275,0.26603182,-5.4874023
626,1778472117,1.6094222522122572,-0.0408664922941768,-0.4356961329923712,0.4812932866816141,0.1263800438756528,-5.482786882837834
627,1778472117,1.6441871544245146,-0.0949120745883537,-0.4021922059847425,0.4039502983632283,-0.0132717322486943,-5.4781714656756675
628,1778472117,1.6789511666666668,-0.1489562733333333,-0.3686891366666667,0.32660929,-0.1529199333333333,-5.473556166666667
629,1778472117,1.7203596,-0.3014107,-0.37072295,0.17348573,-0.5222898,-5.284595
630,1778472117,1.6759411,-0.32117933,-0.41148052,-0.059253927,-0.643852,-4.9577823
631,1778472117,1.5938551157504672,-0.3335044286789916,-0.3915488315035371,-0.2720422962083507,-0.5447883203348409,-4.708646848142712
632,1778472117,1.5117712328752335,-0.3458292118394958,-0.3716176532517685,-0.4848252181041754,-0.4457271766674204,-4.459517774071356
633,1778472117,1.42968735,-0.358153995,-0.351686475,-0.69760814,-0.346666033,-4.2103887
634,1778472117,1.0449311,-0.3959828875,-0.19341535925,-0.954629695,-0.1649336205,-3.818518675
635,1778472117,0.66017485,-0.43381178,-0.0351442435,-1.21165125,0.0167987919999999,-3.4266486499999997
636,1778472117,0.6024245235137698,-0.4439801441603324,-0.0019876635348676,-1.1493043609831728,0.0256780633608117,-3.1834525916452283
637,1778472117,0.5446741970275398,-0.4541485083206649,0.0311689164302646,-1.0869574719663455,0.0345573347216234,-2.940256533290457
638,1778472117,0.4869223921140277,-0.4643171327944519,0.064326345214709,-1.0246089868487294,0.0434368333946915,-2.6970542490368996
639,1778472117,0.4291705872005157,-0.4744857572682389,0.0974837739991533,-0.9622605017311132,0.0523163320677597,-2.4538519647833428
640,1778472117,0.3714202607142857,-0.4846541214285714,0.1306403539642857,-0.8999136127142858,0.0611956034285714,-2.2106559064285713
641,1778472117,0.3136699342280555,-0.4948224855889038,0.163796933929418,-0.8375667236974584,0.0700748747893831,-1.9674598480738
642,1778472117,0.2559181293145435,-0.5049911100626908,0.1969543627138624,-0.7752182385798423,0.0789543734624513,-1.7242575638202429
643,1778472117,0.1981663244010315,-0.5151597345364779,0.2301117914983067,-0.712869753462226,0.0878338721355194,-1.481055279566686
644,1778472117,0.1404159979148014,-0.5253280986968103,0.2632683714634391,-0.6505228644453988,0.0967131434963311,-1.2378592212119146
645,1778472117,0.0826656714285714,-0.5354964628571428,0.2964249514285714,-0.5881759754285715,0.1055924148571428,-0.9946631628571428
646,1778472117,-0.0182605746378651,-0.5899517084645983,0.2619577145030736,-0.4709882932389479,0.1471441728967183,-0.8386913469515315
647,1778472117,-0.1191868207043017,-0.644406954072054,0.2274904775775757,-0.3538006110493243,0.1886959309362937,-0.6827195310459201
648,1778472117,-0.2201104830919101,-0.6988608056430656,0.193024123002049,-0.2366159288259652,0.2302466252644788,-0.5267517079676877
649,1778472117,-0.3210341454795185,-0.7533146572140772,0.1585577684265224,-0.1194312466026061,0.271797319592664,-0.3707838848894553
650,1778472117,-0.421960391545955,-0.8077699028215328,0.1240905315010245,-0.0022435644129826,0.3133490776322394,-0.2148120689838439
651,1778472117,-0.5228866376123916,-0.8622251484289883,0.0896232945755266,0.1149441177766409,0.3549008356718148,-0.0588402530782324
652,1778472117,-0.6238103,-0.916679,0.05515694,0.2321288,0.39645153,0.09712757
653,1778472117,-0.5548946662500001,-0.9089912425,-0.306139300875,-0.0267253525,0.1446223445,2.13443953625
654,1778472117,-0.226683426875,-0.71996889125,-0.1254911809375,-0.47120617625,0.10529789525,2.806047768125
655,1778472117,0.1015278125,-0.53094654,0.055156939,-0.915687,0.065973446,3.477656
656,1778472117,0.10775127125,-0.4966564925,0.06833602875,-0.463341287,-0.2083050519999999,3.43917135
657,1778472117,0.11397473,-0.462366445,0.0815151185,-0.010995574,-0.48258355,3.4006867
658,1778472117,0.10958171,-0.42099872,-0.0605262,0.6927212,-0.88025683,3.4941492
659,1778472117,0.2511780098792528,-0.3730406648596687,-0.2729003078050466,0.8378041593841468,-1.07604247803229,3.659289285021376
660,1778472117,0.3927706849396264,-0.3250838374298344,-0.4852689789025233,0.9828834046920736,-1.2718231140161451,3.824425142510688
661,1778472117,0.53436336,-0.27712701,-0.69763765,1.1279626500000002,-1.46760375,3.989561
662,1778472117,1.5041248,-0.028066587,-1.23505165,0.65484756,-1.7250835,4.414723
663,1778472117,2.3447908103872,0.2371050006528768,-1.09831687481728,0.083986673074176,-1.72691612345728,4.64990921034496
664,1778472117,3.1854353,0.5022698,-0.9615856,-0.4868596,-1.7287487,4.8850894
665,1778472117,4.1121206,0.9086252,-0.33997175,-2.1056526,-1.3054191,5.277265
666,1778472117,4.153854756126907,1.0172315600957436,-0.1405752751718606,-2.21438749452589,-0.9403221678793904,4.898525301462607
667,1778472117,4.195588912253815,1.1258379201914872,0.0588211996562788,-2.3231223890517803,-0.5752252357587808,4.5197856029252135
668,1778472117,4.237322,1.2344415,0.25821257,-2.4318545,-0.21013765,4.1410556
669,1778472117,4.0349984,1.3901501,0.59794027,-1.9089539,0.46486846,3.0292807
670,1778472117,3.5825162,1.4409139,0.7641432,-1.9089539,0.46486846,3.0292807
671,1778472117,3.40801304138816,1.42199925789568,0.7198462680065281,-1.141391895332096,0.552528752037376,2.2858481841856
672,1778472117,3.23351435,1.4030851,0.67555047,-0.37384954,0.6401868,1.5424347
673,1778472117,2.8203256,1.3315763,0.4412555,0.1685988,0.552833,1.1417072
674,1778472117,2.5088475249999997,1.26378945,0.16443357075,0.9074403,0.38942657,0.4169155599999999
675,1778472117,2.19736945,1.1960026,-0.1123883585,1.6462818,0.22602014,-0.30787608
676,1778472117,1.7413484499999998,1.0974034499999998,-0.629911765,1.6432275,0.22021692,-0.40042217
677,1778472117,1.6949476689376,1.1164091442239998,-0.665147085232128,1.511740433056,0.233121282322048,-0.466165695972096
678,1778472117,1.6485457,1.135415325,-0.7003833075,1.38025,0.246025975,-0.531910905
679,1778472117,1.6021437310624,1.154421505776,-0.735619529767872,1.248759566944,0.258930667677952,-0.597656114027904
680,1778472117,1.55574295,1.1734272,-0.77085485,1.1172725,0.27183503,-0.66339964
681,1778472117,1.54707903589952,1.16854616247808,-0.472010555255936,0.2599341140718079,0.55847987339904,-0.78709829413696
682,1778472117,1.5384149,1.163665,-0.17315861,-0.59742622,0.845132055,-0.910800115
683,1778472117,1.4062149604832448,1.0843450462901174,0.0463746366527857,-0.5813398387959415,1.1333635557546486,-1.3773054382556087
684,1778472117,1.2740184052416224,1.0050271231450587,0.2659022633263929,-0.5652538693979708,1.4215876778773242,-1.8437988191278043
685,1778472117,1.14182185,0.9257092,0.48542989,-0.5491679,1.7098118,-2.3102922
686,1778472117,1.100515175,0.8020942,0.387806985,0.5491678499999999,1.2629639,-2.8273897000000003
687,1778472117,1.0592085,0.6784792,0.29018408,1.6475036,0.816116,-3.3444872
688,1778472117,1.0759913292527397,0.6438885012132894,0.2332732233968533,1.6292864252129242,0.7776250927074914,-3.4686001590670315
689,1778472117,1.0927741585054795,0.6092978024265789,0.1763623667937067,1.6110692504258486,0.7391341854149827,-3.5927131181340624
690,1778472117,1.1095574174041476,0.5747062181066447,0.1194500532539822,1.5928516092731289,0.7006422927426346,-3.716829254533516
691,1778472117,1.126340676302816,0.5401146337867104,0.0625377397142577,1.5746339681204091,0.6621504000702864,-3.8409453909329687
692,1778472117,1.1431235055555555,0.5055239349999999,0.005626883111111,1.5564167933333333,0.6236594927777778,-3.96505835
693,1778472117,1.1599063348082952,0.4709332362132895,-0.0512839734920355,1.5381996185462574,0.5851685854852692,-4.089171309067031
694,1778472117,1.1766895937069637,0.4363416518933552,-0.10819628703176,1.5199819773935377,0.546676692812921,-4.213287445466484
695,1778472117,1.1934728526056315,0.4017500675734209,-0.1651086005714845,1.501764336240818,0.5081848001405728,-4.337403581865937
696,1778472117,1.2102556818583712,0.3671593687867104,-0.2220194571746312,1.4835471614537423,0.4696938928480642,-4.461516540932968
697,1778472117,1.227038511111111,0.33256867,-0.2789303137777777,1.4653299866666665,0.4312029855555555,-4.5856295
698,1778472117,1.4682485,0.18475133,-0.2660224,0.5674938,-0.023823744,-5.335908
699,1778472117,1.4606826,0.052472305,-0.191829,0.5674938,-0.023823744,-5.335908
700,1778472118,1.3999124,-0.05515694,-0.1901206,0.37507126,-0.32375857,-5.4586916
701,1778472118,1.2722704,-0.16693515,-0.20183535,0.31031954,-0.4636467,-5.4140987
702,1778472118,1.1070436,-0.3104408,-0.2945771,0.23457226,-0.6792821,-5.1972413
703,1778472118,1.0424893566216815,-0.3374909399831466,-0.3053564789657129,-0.1541482940792068,-0.7656192234680468,-4.2059938162594825
704,1778472118,0.9779367658108408,-0.3645403874915733,-0.3161355819828564,-0.5428588970396035,-0.8519541367340233,-3.2147717081297413
705,1778472118,0.913384175,-0.391589835,-0.326914685,-0.9315695,-0.93828905,-2.2235496
706,1778472118,0.717528325,-0.4632206399999999,-0.273710205,-0.9315695,-0.93828905,-2.2235496
707,1778472118,0.6734754486304,-0.4843318702202879,-0.2491211177637119,-1.12307820128,-0.7721315482112,-1.76692195524096
708,1778472118,0.6294237,-0.50544256,-0.22453266,-1.314582,-0.6059783,-1.310306
709,1778472118,0.4915313,-0.6245425,-0.18109047,-1.314582,-0.6059783,-1.310306
710,1778472118,0.18377511,-0.8847075,-0.051252022,-1.6475036,-0.3463606,-0.5027421
711,1778472118,-0.053329544900736,-1.01113076819712,0.0900589277570048,-1.84053942082688,-0.245871973762048,-0.1035365552344319
712,1778472118,-0.29042813,-1.1375508,0.23136626,-2.0335703,-0.14538592,0.29565877
713,1778472118,-0.569504012782976,-1.21686838472192,0.372795619681024,-2.0335703,-0.14538592,0.29565877
714,1778472118,-0.84858704,-1.296188,0.5142286,-2.0335703,-0.14538592,0.29565877
715,1778472118,-0.95670444,-1.3359693,0.50641876,-0.51923543,-0.8533788,2.0506747
716,1778472118,-1.0440769,-1.3576905,0.47469133,-0.06658431,-1.0848967,2.4953845
717,1778472118,-1.04602927500928,-1.33621372490624,0.353030352280448,-0.06658431,-1.0848967,2.4953845
718,1778472118,-1.0479817,-1.3147364,0.23136626,-0.06658431,-1.0848967,2.4953845
719,1778472118,-0.819297192875776,-1.21497669809216,0.019582876707392,0.348503958061824,-1.2299790570304,3.077851955488
720,1778472118,-0.59061854,-1.11521955,-0.192195085,0.7635816,-1.3750577,3.6603045
721,1778472118,-0.353825025995776,-0.99093504086208,-0.233745295650496,0.456931160175872,-1.03343567281792,4.28017204059392
722,1778472118,-0.1170254499999999,-0.86664735,-0.27529657,0.15027287,-0.6918049000000001,4.90005545
723,1778472118,0.12422514,-0.7285109,-0.14252943,-0.52412236,-0.2003638,5.2833734
724,1778472118,0.19127987,-0.7034340149999999,-0.0103724272999999,-0.6319400825,-0.1977676225,5.2981869
725,1778472118,0.2583346,-0.67835713,0.1217845754,-0.739757805,-0.195171445,5.3130004
726,1778472118,0.3850613,-0.631437115,0.2108654727,-0.6013968275,-0.2936734725,5.3217052
727,1778472118,0.511788,-0.5845171,0.29994637,-0.46303585,-0.3921755,5.33041
728,1778472118,0.6621273,-0.49690056,0.19890666,0.40317106,-0.8142834,5.3566775
729,1778472118,1.02924570082432,-0.3285032155136,-0.099449505992192,0.927286721233664,-1.1404812246144,5.4541090028607995
730,1778472118,1.3963735000000002,-0.16010156,-0.39781331,1.4514158,-1.4666874,5.551543
731,1778472118,2.101089,0.1637624,-0.76975656,1.459357,-1.6358972,5.607132
732,1778472118,2.711232,0.33484653,-0.8329674,0.26389378,-1.4355333,4.759862
733,1778472118,2.6734851275548692,0.3193491694916714,-0.7126085541505957,-0.051714535215807,-1.0919274742811549,4.641458020787112
734,1778472118,2.635737288777434,0.3038514122458357,-0.5922466270752978,-0.3673309301079035,-0.7483128521405774,4.523051010393556
735,1778472118,2.59798945,0.288353655,-0.4718847,-0.682947325,-0.40469823,4.404644
736,1778472118,2.793235,0.30555966,-0.38097337,-0.80878556,-0.21624629,4.5533895
737,1778472118,3.3213751,0.38731885,-0.41416514,-0.7800749,-0.36835176,4.4984117
738,1778472118,3.5808101138171144,0.5201277949551575,-0.3845526073096221,-0.7668393737249548,-0.5200512444856982,4.187478613404956
739,1778472118,3.840245127634229,0.6529367399103151,-0.3549400746192443,-0.7536038474499096,-0.6717507289713964,3.876545526809912
740,1778472118,4.0996735,0.785742285,-0.3253283,-0.74036866,-0.82344633,3.5656204
741,1778472118,4.131698857840153,0.8082359674019376,-0.3153220660723855,-0.74036866,-0.82344633,3.5656204
742,1778472118,4.1637250355399615,0.8307302256495156,-0.3053155759819036,-0.74036866,-0.82344633,3.5656204
743,1778472118,4.195751213239769,0.8532244838970935,-0.2953090858914217,-0.74036866,-0.82344633,3.5656204
744,1778472118,4.227776571079923,0.8757181662990312,-0.2853028519638072,-0.74036866,-0.82344633,3.5656204
745,1778472118,4.259801928920076,0.8982118487009688,-0.2752966180361927,-0.74036866,-0.82344633,3.5656204
746,1778472118,4.291828106619885,0.9207061069485468,-0.2652901279457109,-0.74036866,-0.82344633,3.5656204
747,1778472118,4.323854284319693,0.9432003651961248,-0.2552836378552289,-0.74036866,-0.82344633,3.5656204
748,1778472118,4.355879642159847,0.9656940475980624,-0.2452774039276145,-0.74036866,-0.82344633,3.5656204
749,1778472118,4.387905,0.98818773,-0.23527117,-0.74036866,-0.82344633,3.5656204
750,1778472118,2.9263440600000004,1.09723258,-0.1545370522,0.0678060419999999,0.61355304,1.2809844
751,1778472118,1.663901,0.95938903,-0.7698379266666667,0.2469932133333333,-0.7165449433333334,-1.2781337333333334
752,1778472118,1.2515256,0.865427,-0.35607952,0.98349303,-0.89858276,-0.97433007
753,1778472118,1.14023687451392,0.842363910211328,-0.1225197266036224,0.2025118316872961,-0.5717740482050561,-1.274261095833728
754,1778472118,1.0289453,0.81930023,0.111046046,-0.57848936,-0.24495697,-1.5741998
755,1778472118,0.9835507,0.80441266,0.4419877,-0.59803706,0.52534413,-2.035403
756,1778472118,1.0559137,0.821618705,0.51849965,-0.59803706,0.52534413,-2.035403
757,1778472118,1.1282767,0.83882475,0.5950116,-0.59803706,0.52534413,-2.035403
758,1778472118,1.2115415771845242,0.8247099995556713,0.5322883431017255,0.0104917277125218,0.4709766494034372,-2.3930676520326313
759,1778472118,1.294806454369048,0.8105952491113424,0.4695650862034508,0.6190205154250437,0.4166091688068744,-2.750732304065263
760,1778472118,1.3780692,0.79648086,0.406843435,1.227533725,0.36224308,-3.1083878
761,1778472118,1.6090695,0.7387613,0.15229172,1.5192219,0.3848451,-3.3915238
762,1778472118,1.735491,0.56596875,-0.10348027,1.6468927,0.462425,-3.6884043
763,1778472118,1.71999325163136,0.450528187379712,-0.185362533079552,1.66888413148672,0.58612678336256,-4.10532518651904
764,1778472118,1.7044959,0.33509058,-0.2672427,1.690875,0.7098254,-4.5222354
765,1778472118,1.790648,0.20134723,-0.28237423,1.5625933,0.75136423,-5.191744
766,1778472118,1.8464151,0.141919288,-0.303607215,1.5198327,0.660345315,-5.34171135
767,1778472118,1.9021822,0.082491346,-0.3248402,1.4770721,0.5693264,-5.4916787
768,1778472118,2.1231760499999996,0.102870128,-0.40257245,1.4272866,0.47800205,-5.5784215999999995
769,1778472118,2.3441699,0.12324891,-0.4803047,1.3775011,0.3866777,-5.6651645
770,1778472118,2.499839028359559,0.02188293402141,-0.5089816713736901,0.9694396429201368,0.4410451722631583,-5.869602494515224
771,1778472118,2.655508156719118,-0.0794830419571799,-0.5376586427473803,0.5613781858402738,0.4954126445263166,-6.074040489030447
772,1778472118,2.8111733,-0.180846423,-0.56633488,0.153327175,0.5497787249999999,-6.27847325
773,1778472118,2.5538193588968157,-0.4074090319486466,-0.4473996698535686,0.0999791879839659,0.4524491911119738,-6.396775380951121
774,1778472118,2.2964588294484076,-0.6339774409743234,-0.3284614149267842,0.0466298352419829,0.3551171655559869,-6.5150805404755605
775,1778472118,2.0390983,-0.8605458500000001,-0.2095231599999999,-0.0067195175,0.25778514,-6.6333857
776,1778472118,1.3064384,-1.0526189,-0.12642166,0.22907446,-0.1685988,-6.3224554
777,1778472118,0.94816244,-1.0985017,-0.13325526,0.22907446,-0.1685988,-6.3224554
778,1778472118,0.4971446,-1.1238836,-0.17645338,0.38728857,-0.50885075,-5.9944205
779,1778472118,0.038982270597248,-1.0681158111814402,-0.2333804636573439,0.2797749070927295,-0.78847790418176,-4.8331508859392
780,1778472118,-0.41916833,-1.01234945,-0.2903060899999999,0.1722639965,-1.0680979,-3.671911
781,1778472118,-0.53844979067776,-0.90594186203456,-0.2397868891540479,-0.5195320466473023,-0.496182625609216,-2.225706046660352
782,1778472118,-0.657734305,-0.79953155,-0.1892663949999999,-1.2113458,0.07574729,-0.77946407
783,1778472118,-0.5976962,-0.66115105,0.07809832,-1.2113458,0.07574729,-0.77946407
784,1778472118,-0.6051399399999999,-0.645836475,0.2078757575,-1.4512630999999998,0.65988717,-0.0174096774999999
785,1778472118,-0.61258368,-0.6305219,0.337653195,-1.6911804,1.24402705,0.744644715
786,1778472118,-0.6046924393289415,-0.6210442524584429,0.4125387356817677,-1.488676838658395,1.2213230395949244,1.0541524510988751
787,1778472118,-0.5968011986578831,-0.6115666049168856,0.4874242763635355,-1.2861732773167902,1.1986190291898486,1.3636601871977507
788,1778472118,-0.58891016,-0.6020892,0.5623079,-1.0836749,1.1759156,1.67316
789,1778472118,-0.5560848726690559,-0.627775903705984,0.474509426334848,-0.6298078545725441,0.82925401232512,1.84358921847808
790,1778472118,-0.5232587449999999,-0.653463265,0.386708705,-0.17592919,0.48258355,2.0140228
791,1778472118,-0.54205114,-0.6953191,0.28164205,0.6188065,-0.24740042,2.221106
792,1778472118,-0.5042448944328523,-0.6928297441492388,0.2425112548187178,0.5844318462465455,-0.2501548352936663,2.351818535325574
793,1778472118,-0.4664386488657046,-0.6903403882984777,0.2033804596374356,0.550057192493091,-0.2529092505873326,2.4825310706511483
794,1778472118,-0.4286314354462818,-0.6878509687193911,0.1642486626949742,0.5156816587372365,-0.255663736394933,2.613246952260459
795,1778472118,-0.390824222026859,-0.6853615491403044,0.1251168657525128,0.4813061249813818,-0.2584182222025334,2.74396283386977
796,1778472118,-0.3530179764597113,-0.6828721932895433,0.0859860705712306,0.4469314712279273,-0.2611726374961998,2.8746753691953444
797,1778472118,-0.3152117308925636,-0.6803828374387821,0.0468552753899484,0.4125568174744728,-0.2639270527898661,3.0053879045209184
798,1778472118,-0.2774045174731409,-0.6778934178596955,0.0077234784474871,0.3781812837186182,-0.2666815385974665,3.1361037861302297
799,1778472118,-0.2395973040537181,-0.6754039982806088,-0.0314083184949742,0.3438057499627636,-0.269436024405067,3.2668196677395405
800,1778472119,-0.2017910584865704,-0.6729146424298478,-0.0705391136762564,0.3094310962093091,-0.2721904396987333,3.3975322030651145
801,1778472119,-0.1639848129194227,-0.6704252865790866,-0.1096699088575386,0.2750564424558546,-0.2749448549923996,3.528244738390689
802,1778472119,-0.1261775995,-0.667935867,-0.1488017058,0.2406809087,-0.2776993408,3.65896062
803,1778472119,0.5047104,-0.4566311,-0.18548352,0.20097467,-0.25289822,4.0720277
804,1778472119,0.5247431752438614,-0.4687117870318933,-0.260408133452672,0.3220771598682879,-0.459368022152704,4.05263302325504
805,1778472119,0.5447759504877226,-0.4807924740637866,-0.335332746905344,0.4431796497365759,-0.665837824305408,4.03323834651008
806,1778472119,0.5648092385771947,-0.4928734703652266,-0.410259278452672,0.5642852398682879,-0.872312912152704,4.01384317325504
807,1778472119,0.5848425266666667,-0.5049544666666667,-0.48518581,0.6853908299999999,-1.078788,3.994448
808,1778472119,1.1895146883333334,-0.3756041133333333,-0.6633475974999999,0.2330450999999999,-1.227533675,4.59508125
809,1778472119,1.79418685,-0.24625376,-0.8415093849999999,-0.21930063,-1.37627935,5.195714499999999
810,1778472119,2.2118401528181213,-0.1235190371215482,-0.8309605999848534,-0.5409578581065467,-1.2890606335209236,5.336384355922961
811,1778472119,2.6294934556362426,-0.0007843142430965,-0.8204118149697067,-0.8626150862130935,-1.201841917041847,5.477054211845923
812,1778472119,3.047136066666667,0.1219472666666666,-0.8098633,-1.18426408,-1.1146254333333332,5.617720466666667
813,1778472119,4.5790024,0.71264714,-0.46736962,-1.6462818,-1.0189233,5.588806
814,1778472119,4.718114875,0.902889745,-0.36016748,-1.710117225,-0.733954625,5.041318125
815,1778472119,4.8572273500000005,1.09313235,-0.25296534,-1.77395265,-0.4489859499999999,4.49383025
816,1778472119,4.805243025,1.1891689250000002,-0.14783768,-1.770592875,-0.3656028449999999,4.351956875
817,1778472119,4.7532587,1.2852055,-0.04271002,-1.7672331,-0.28221974,4.2100835
818,1778472119,3.9888716,1.2793481,0.2596769,-1.3414601,1.0384709,2.107485
819,1778472119,3.46768070384192,1.255552170416,0.2037870794944544,-1.070537892240128,1.00914899968448,1.88619624254016
820,1778472119,2.94650315,1.23175685,0.14789868975,-0.79962262,0.97982785,1.66491315
821,1778472119,2.7309728463232,1.22101849995264,0.0097945600679871,-0.384086848925952,0.797334193448704,1.38934011488
822,1778472119,2.515437025,1.210279875,-0.128313105125,0.0314595599999999,0.6148358650000001,1.113760025
823,1778472119,2.2999012036768,1.19954125004736,-0.2664207703179872,0.4470059689259519,0.432337536551296,0.83817993512
824,1778472119,2.0843709,1.1888029,-0.4045249,0.86254174,0.24984388,0.5626069
825,1778472119,1.8640316521712976,1.1834337166352358,-0.4839641642192033,0.823650643749872,0.1388210173144434,0.2089219598835759
826,1778472119,1.6436867635856487,1.1780643958176178,-0.5634054621096017,0.784758551874936,0.0277953124072217,-0.1447720346832121
827,1778472119,1.423341875,1.172695075,-0.6428467600000001,0.74586646,-0.0832303925,-0.49846602925
828,1778472119,1.2516475875000002,1.1427980625,-0.3554083485,0.06627887,0.28275424625,-0.8136724896249999
829,1778472119,1.0799533,1.11290105,-0.067969937,-0.61330872,0.648738885,-1.12887895
830,1778472119,1.0994779,1.089471575,0.0441133515,-0.615752185,0.6682865725,-1.3927727250000002
831,1778472119,1.1190025,1.0660421,0.15619664,-0.61819565,0.68783426,-1.6566665
832,1778472119,1.1820912499999998,1.06750645,0.156928815,-0.475253175,0.6884451300000001,-1.7977764
833,1778472119,1.24518,1.0689708,0.15766099,-0.3323107,0.689056,-1.9388863
834,1778472119,1.3524432,1.038646675,0.1673012425,-0.161726575,0.80634211,-2.4020748750000003
835,1778472119,1.4597064,1.00832255,0.176941495,0.0088575499999999,0.92362822,-2.86526345
836,1778472119,1.3971057,0.821801775,0.1959779675,0.07925977,0.96211271,-3.096017825
837,1778472119,1.334505,0.635281,0.21501444,0.14966199,1.0005972,-3.3267722
838,1778472119,1.3051907942997576,0.5580226640706386,0.1550843152694815,0.3594620502709321,0.9546461856674744,-3.6662803637659143
839,1778472119,1.2758765885995154,0.4807643281412772,0.095154190538963,0.5692621105418643,0.908695171334949,-4.00578852753183
840,1778472119,1.2465631333333334,0.40350797,0.0352256,0.7790567999999999,0.8627453333333334,-4.345288
841,1778472119,1.3786794,0.24332508,-0.19402552,1.2009611,0.45631635,-4.977941
842,1778472119,1.6478745,0.2037878,-0.21965154,1.1246029,0.44043383,-5.073847
843,1778472119,1.7579445,0.1637624,-0.18743597,0.7257079,0.5589417,-5.5008416
844,1778472119,1.9085277,0.14472595,-0.13667206,0.6389651,0.57543504,-5.621793
845,1778472119,2.1123154,0.16254212,-0.10494461,0.6389651,0.57543504,-5.621793
846,1778472119,2.052528454686764,0.1184796013712844,-0.1389309366839229,0.6552453236430942,0.5066004123804837,-5.673348645311326
847,1778472119,1.992741509373528,0.0744170827425688,-0.1729172633678458,0.6715255472861884,0.4377657847609674,-5.724904290622653
848,1778472119,1.9329560945865016,0.0303556920998918,-0.2069027200129422,0.6878053541608921,0.3689329192853627,-5.776458616126352
849,1778472119,1.8731706797994752,-0.013705698542785,-0.2408881766580385,0.7040851610355957,0.3001000538097581,-5.8280129416300515
850,1778472119,1.8133837344862391,-0.0577682171715006,-0.2748745033419614,0.7203653846786899,0.2312654261902418,-5.879568586941377
851,1778472119,1.753596789173003,-0.1018307358002162,-0.3088608300258844,0.7366456083217842,0.1624307985707255,-5.931124232252703
852,1778472119,1.6938113743859768,-0.1458921264428932,-0.3428462866709807,0.7529254151964878,0.0935979330951208,-5.982678557756403
853,1778472119,1.63402595959895,-0.1899535170855701,-0.376831743316077,0.7692052220711915,0.0247650676195162,-6.034232883260103
854,1778472119,1.5742390142857143,-0.2340160357142857,-0.41081807,0.7854854457142857,-0.04406956,-6.085788528571428
855,1778472119,0.583906985,-0.032581643,-0.38475626,-1.3799446,-0.1441642,-3.6047158
856,1778472119,0.49128726,-0.040513504,-0.029530926,-2.6535985,1.2205088,-2.2052236
857,1778472119,0.355959244720768,-0.1640659105089535,0.1723628427266816,-2.6535985,1.2205088,-2.2052236
858,1778472119,0.2206277649999999,-0.28762148,0.37426178,-2.6535985,1.2205088,-2.2052236
859,1778472119,-0.1804803475,-0.5202080250000001,0.5765852499999999,-2.3619105,1.7302758,-1.31763635
860,1778472119,-0.4011080912499999,-0.5919608625,0.5383292749999999,-1.7832684,1.41002965,-0.943786825
861,1778472119,-0.621735835,-0.6637137,0.5000732999999999,-1.2046263,1.0897835,-0.5699373
862,1778472119,-0.6936717175,-0.6872041999999999,0.4167277499999999,-0.4251622299999999,0.23609937,5.5582301998827196e-18
863,1778472119,-0.7656076,-0.7106947,0.3333822,0.35430184,-0.61758476,0.5699373
864,1778472119,-0.7756139500000001,-0.7214942275,0.29774984,0.49999319,-0.78923788,0.7113526
865,1778472119,-0.7856203,-0.732293755,0.26211748,0.64568454,-0.960891,0.8527679
866,1778472119,-0.870003085,-0.7917217000000001,0.1048225847499999,0.88544912,-0.84391033,1.41873455
867,1778472119,-0.95438587,-0.851149645,-0.0524723105,1.1252137,-0.72692966,1.9847012
868,1778472119,-0.85816631,-0.857861185,-0.13105874525,0.94653565,-0.462425,2.4333817
869,1778472119,-0.76194675,-0.8645727249999999,-0.20964518,0.7678576,-0.19792034,2.8820622
870,1778472119,-0.589398255,-0.8272930125,-0.21464836,0.5571091,-0.0571159,3.28462245
871,1778472119,-0.41684976,-0.7900133,-0.21965154,0.3463606,0.08368854,3.6871827
872,1778472119,-0.244179265,-0.74291025,-0.17694152,0.28221975,0.091629787,3.8017199
873,1778472119,-0.07150877,-0.6958072,-0.1342315,0.2180789,0.099571034,3.9162571
874,1778472119,0.12813005,-0.56011134,0.010982576,0.10262536,-0.0580322,4.1996984
875,1778472119,0.17913802,-0.4927516,0.036852647,0.52412236,-0.4831944,4.1453314
876,1778472119,0.21965154,-0.45126185,0.0034168016,0.73364913,-0.5693264,4.097073
877,1778472119,0.280482021359872,-0.388173860036608,-0.1446020320346777,0.916600923187072,-0.645989003706112,4.0488153677056005
878,1778472119,0.34131406,-0.325084255,-0.292624655,1.0995574,-0.72265357,4.0005565
879,1778472119,0.3757875862554879,-0.281641516440064,-0.451752014304128,1.15453600371712,-0.761749435420672,3.94130179154944
880,1778472119,0.41026023,-0.23819989,-0.6108753,1.2095132,-0.8008443,3.8820486
881,1778472119,0.5649295210410668,-0.2078151474296832,-0.6971077545437867,1.0614820781559466,-0.8860080182237866,3.9957190283332262
882,1778472119,0.7196027716666668,-0.177429627,-0.7833424166666666,0.9134471666666668,-0.9711739166666666,4.1093923666666665
883,1778472119,0.8742760222922668,-0.1470441065703168,-0.8695770787895466,0.7654122551773866,-1.0563398151095469,4.223065705000106
884,1778472119,1.0289453133333335,-0.116659364,-0.9558095333333332,0.6173811333333333,-1.1415035333333334,4.336736133333333
885,1778472119,2.374189,0.28871974,-0.9017916,0.05497787,-1.5497651,4.7836857
886,1778472119,2.710624737548213,0.4367823817850377,-0.7861888035354303,-0.3143951319426051,-1.599449257299382,4.684113783663856
887,1778472119,3.0470604750964263,0.5848450235700755,-0.6705860070708606,-0.6837681338852102,-1.6491334145987642,4.5845418673277125
888,1778472119,3.3834876,0.7329038750000001,-0.5549861700000001,-1.05313168,-1.6988162999999998,4.4849725
889,1778472119,3.49276285125888,0.8838513928470402,-0.352238212707072,-1.324657814420992,-1.43263518216192,4.19634239451264
890,1778472119,3.6020409,1.0348027750000002,-0.149485065,-1.5961909,-1.16644725,3.9077049
891,1778472119,3.760653718068557,1.1745414681765045,-0.0868833123882086,-1.524175437618507,-0.9479234355746372,3.7278359413868434
892,1778472119,3.919262475700945,1.3142765840882522,-0.0242831623607709,-1.4521618188092535,-0.7294052152873186,3.547971587360088
893,1778472119,4.077871233333333,1.4540117,0.0383169876666666,-1.3801482,-0.510886995,3.3681072333333333
894,1778472119,4.1706944,1.7220681,0.08175918,-1.1355985,0.43249258,2.0696115
895,1778472119,3.6733055,1.7843026,0.12032023,-0.9401216,1.1258247,0.8191703
896,1778472119,3.493923696199812,1.7391708849433472,0.0836714348439159,-0.8537870847626069,1.089743384346752,0.6183305599482454
897,1778472119,3.3145418923996246,1.6940391698866943,0.0470226396878318,-0.7674525695252139,1.053662068693504,0.4174908198964907
898,1778472119,3.1351554963664787,1.6489062994433472,0.0103729063105826,-0.6811158440959403,1.017579829346752,0.2166459382815787
899,1778472119,2.9557691003333333,1.603773429,-0.0262768270666666,-0.5947791186666667,0.98149759,0.0158010566666667
900,1778472120,2.7763872965331453,1.5586417139433473,-0.0629256222227507,-0.5084446034292737,0.945416274346752,-0.1850386833850879
901,1778472120,2.5970054927329578,1.5135099988866945,-0.0995744173788347,-0.4221100881918805,0.909334958693504,-0.3858784234368426
902,1778472120,2.417619096699812,1.4683771284433471,-0.136224150756084,-0.3357733627626069,0.873252719346752,-0.5867233050517545
903,1778472120,2.2382327006666665,1.423244258,-0.1728738841333333,-0.2494366373333333,0.83717048,-0.7875681866666665
904,1778472120,2.0588508968664785,1.3781125429433472,-0.2095226792894173,-0.1631021220959403,0.801089164346752,-0.9884079267184211
905,1778472120,1.8794690930662907,1.3329808278866946,-0.2461714744455014,-0.0767676068585472,0.765007848693504,-1.189247666770176
906,1778472120,1.7000826970331453,1.2878479574433472,-0.2828212078227507,0.0095691185707263,0.728925609346752,-1.390092548385088
907,1778472120,1.520696301,1.242715087,-0.3194709411999999,0.095905844,0.6928433700000001,-1.59093743
908,1778472120,1.0196712,0.8329674,-0.3184947,-0.9285152,0.9859365,-2.6957483
909,1778472120,1.02979942035712,0.7559683231008,-0.1735265516160512,-0.94623004824704,1.0952799753856,-2.81349106787328
910,1778472120,1.0399279,0.678967275,-0.028554692,-0.96394535,1.20462625,-2.93123685
911,1778472120,1.0412295722149214,0.5788207441877512,0.0869677118904571,-0.7333397810486657,1.2108368109922176,-3.185972064092007
912,1778472120,1.0425312111074607,0.4786767770938756,0.2024871584452285,-0.5027401155243328,1.2170472129961087,-3.4407007570460033
913,1778472120,1.04383285,0.37853281,0.318006605,-0.27214045,1.223257615,-3.69542945
914,1778472120,1.0965492,0.24674188,0.328257,0.2938262,0.98532563,-4.01705
915,1778472120,1.1119248,0.03734076,0.19548985,0.6957755,0.8002335,-4.2314634
916,1778472120,1.085322835407604,-0.012641651673553,0.1168920211520695,0.949801218743344,0.6768094358785943,-4.431000501713925
917,1778472120,1.0587208708152085,-0.0626240633471061,0.038294192304139,1.203826937486688,0.5533853717571885,-4.6305376034278485
918,1778472120,1.032118225203802,-0.1126077545867765,-0.0403056486739652,1.457859159371672,0.4299581479392971,-4.830079813356962
919,1778472120,1.0055155795923958,-0.1625914458264469,-0.1189054896520695,1.711891381256656,0.3065309241214057,-5.029622023286075
920,1778472120,0.978913615,-0.2125738575,-0.1975033185,1.9659171,0.1831068599999999,-5.229159125
921,1778472120,0.6894666619578967,-0.2414534721149349,-0.296243127152362,1.8190574064375191,0.0554891047042359,-5.219131021148496
922,1778472120,0.4000122989789483,-0.2703338260574675,-0.394985463576181,1.6721939532187595,-0.072131917647882,-5.209102660574248
923,1778472120,0.110557936,-0.29921418,-0.4937278,1.5253305,-0.19975294,-5.1990743
924,1778472120,0.29652956,-0.29482117,-0.44735694,1.423316,-0.47586402,-4.8838677
925,1778472120,0.04649290615,-0.285058855,-0.58781185,1.2614367,-0.9981538,-4.3066
926,1778472120,0.1248766246325028,-0.2240440253467846,-0.589520271245008,0.4852239764028739,-1.0561864952059938,-3.2597716338456157
927,1778472120,0.2032603431150057,-0.1630291956935693,-0.5912286924900161,-0.2909887471942521,-1.1142191904119876,-2.212943267691231
928,1778472120,0.281642055,-0.102015928,-0.5929370700000001,-1.0671816,-1.1722504,-1.1661417
929,1778472120,0.1244692,-0.117879644,-0.473227,-1.0671816,-1.1722504,-1.1661417
930,1778472120,0.013667206,-0.14960709,-0.30751213,-2.0140228,-0.47342056,-0.31581733
931,1778472120,-0.105188675,-0.204886065,0.107141125,-2.4086416,-0.20952678,0.25045475
932,1778472120,-0.1070191025,-0.2188583325,0.3056817125,-2.4116959500000004,-0.2284636,0.8319984749999999
933,1778472120,-0.10884953,-0.2328306,0.5042223,-2.4147503,-0.24740042,1.4135422
934,1778472120,-0.055400997,-0.23502712,0.68262815,-2.1551325,-0.37568212,1.6511687
935,1778472120,0.018792408,-0.2638259,0.8502955,-1.7989981,-0.5027421,1.8283197
936,1778472120,-0.037340759,-0.31178314,0.811612375,-1.50700455,-0.5674938199999999,1.9043724
937,1778472120,-0.093473926,-0.35974038,0.77292925,-1.215011,-0.63224554,1.9804251
938,1778472120,-0.14130914,-0.39927766,0.6892177,0.20525073,-0.8210029,2.417194
939,1778472120,-0.155464651188224,-0.4238057289552639,0.63820909709824,0.20525073,-0.8210029,2.417194
940,1778472120,-0.1696198,-0.44833317,0.5872018,0.20525073,-0.8210029,2.417194
941,1778472120,-0.1373435573629551,-0.4869060240089191,0.4823436636110608,0.3412890209500696,-0.6694182392467949,2.7036257369014702
942,1778472120,-0.1050664884435224,-0.5254798654955405,0.3774828428194696,0.4773307945249652,-0.5178296978766026,2.990064806549265
943,1778472120,-0.0727894195240896,-0.5640537069821618,0.2726220220278785,0.6133725680998607,-0.3662411565064102,3.2765038761970593
944,1778472120,-0.0405131768870448,-0.6026265609910809,0.1677638856389392,0.7494108590499303,-0.2146564957532051,3.56293561309853
945,1778472120,-0.0082369342499999,-0.641199415,0.06290574925,0.88544915,-0.063071835,3.849367350000001
946,1778472120,0.2026371054909952,-0.5848556014278339,-0.0750487865858598,0.8022010829589207,0.1327291085911099,4.14669157046754
947,1778472120,0.4135111452319905,-0.5285117878556678,-0.2130033224217197,0.7189530159178414,0.3285300521822199,4.444015790935079
948,1778472120,0.6243797866666667,-0.4721694166666666,-0.3509543266666666,0.63570708,0.5243259833333332,4.7413324
949,1778472120,0.722448888032768,-0.3809948653825279,-0.314468225361408,0.245012863449984,0.5008588920492799,4.49159354669824
950,1778472120,0.8205205,-0.28981798,-0.27798119,-0.145691355,0.4773912,4.2418483
951,1778472120,0.8479998478350964,-0.2562100097319883,-0.2941705084553693,-0.1149441212803964,0.3761334762602009,4.173226982214852
952,1778472120,0.8754784922078925,-0.2226028998170029,-0.310359412469491,-0.0841976746799009,0.2748783446849498,4.104607421112954
953,1778472120,0.9029571365806888,-0.1889957899020175,-0.3265483164836127,-0.0534512280794054,0.1736232131096987,4.035987860011056
954,1778472120,0.9304364844157852,-0.1553878196340058,-0.342737634938982,-0.0227039943598018,0.0723654893698996,3.967366542225907
955,1778472120,0.9579158322508816,-0.1217798493659941,-0.3589269533943512,0.0080432393598017,-0.0288922343698995,3.898745224440759
956,1778472120,0.9853944766236776,-0.0881727394510087,-0.375115857408473,0.0387896859602972,-0.1301473659451505,3.830125663338861
957,1778472120,1.012873120996474,-0.0545656295360234,-0.3913047614225947,0.0695361325607927,-0.2314024975204016,3.7615061022369622
958,1778472120,1.0403524688315704,-0.0209576592680116,-0.407494079877964,0.1002833662803963,-0.3326602212602008,3.692884784451815
959,1778472120,1.0678318166666667,0.0126503109999999,-0.4236833983333333,0.1310306,-0.4339179449999999,3.624263466666666
960,1778472120,2.5245283,0.45809543,-1.1011863,0.19242255,-1.6328428,3.9022071
961,1778472120,2.68761743743232,0.515753234470656,-0.97677971742464,-0.0253481249996799,-1.6778935233433598,3.88357593848192
962,1778472120,2.8507107499999997,0.573412515,-0.8523699499999999,-0.2431243749999999,-1.7229454,3.8649443
963,1778472120,3.01380406256768,0.631071795529344,-0.72796018257536,-0.46090062500032,-1.76799727665664,3.84631266151808
964,1778472120,3.1768932,0.6887296,-0.6035536,-0.6786713,-1.813048,3.8276815
965,1778472120,3.5426129,0.94706415,0.045882765,-2.0983222,-1.5088371,3.7873645
966,1778472120,3.6076543,1.0472497,0.25211114,-2.584571,-0.8216137,3.4348953
967,1778472120,3.4545673405120003,1.08111305844544,0.3882358123735039,-2.3020421336768,-0.2261652108568959,2.71620312585792
968,1778472120,3.3014843000000003,1.11497555,0.524357,-2.0195205,0.369268035,1.99752935
969,1778472120,2.9477234,1.0714114,0.51691324,-1.5204436,0.7837401,1.2822062
970,1778472120,2.4427688,0.9715919,0.24259292,-0.1160644,0.73914695,0.25045475
971,1778472120,2.231615046355398,0.92961333357497,0.0879393339459155,0.0519264103397987,0.6717469830552877,0.1158584762529973
972,1778472120,2.020466698177699,0.887635841787485,-0.0667102930270422,0.2199129201698994,0.6043487415276438,-0.0187343518735013
973,1778472120,1.80931835,0.84565835,-0.22135992,0.38789943,0.5369505,-0.15332718
974,1778472120,1.5631866,0.88788027,-0.6457755,0.5314528,0.3811799,-0.27550024
975,1778472120,1.583850519326376,0.922455626745202,-0.6002173558176248,0.3982818905789038,0.3923792911338288,-0.2441419481586694
976,1778472120,1.604513909663188,0.9570300983726012,-0.5546603779088124,0.2651143902894519,0.4035783955669144,-0.2127844590793347
977,1778472120,1.6251773,0.99160457,-0.5091034,0.13194689,0.4147775,-0.18142697
978,1778472120,1.5734371,0.9947773,-0.35168648,-1.1844677,1.1081096,-0.6957755
979,1778472120,1.4311517,0.98355067,-0.061990534,-1.3109168,1.2901474,-0.8875872
980,1778472120,1.3856355951136,0.964361929369024,0.0432272976945151,-1.17935337778336,1.32740971053632,-1.09260623822272
981,1778472120,1.3401194902272,0.945173188738048,0.1484451293890303,-1.04778995556672,1.36467202107264,-1.29762527644544
982,1778472120,1.2946022201135998,0.925983956869024,0.2536656546945152,-0.91622316528336,1.40193528553632,-1.50264956322272
983,1778472120,1.24908495,0.906794725,0.35888618,-0.7846563750000001,1.43919855,-1.70767385
984,1778472120,1.3548837749999998,0.8829381475,0.42947974,-0.0398589375,1.173472175,-2.203238275
985,1778472120,1.4606826,0.85908157,0.5000733,0.7049385,0.9077458,-2.6988027
986,1778472120,1.520843246697614,0.7992870114262979,0.4641559051754872,1.0065048733334472,0.8515457037653172,-3.0066813605309415
987,1778472120,1.5810038933952282,0.7394924528525958,0.4282385103509745,1.3080712466668942,0.7953456075306345,-3.3145600210618835
988,1778472120,1.641163,0.6796994249999999,0.3923220349999999,1.6096299,0.73914695,-3.6224308
989,1778472120,1.38661125,0.297627815,0.09530435,1.9425515,0.7440339,-4.0921865
990,1778472120,1.240848025,0.164433571,-0.0376458349999999,2.3096815,0.75014253,-4.67067575
991,1778472120,1.0950848,0.031239327,-0.17059602,2.6768115,0.75625116,-5.249165
992,1778472120,0.9066727,-0.094206095,-0.36803833,2.6768115,0.75625116,-5.249165
993,1778472120,0.80465674,-0.13203497,-0.4685899,2.7085764,0.2950479,-5.797722
994,1778472120,0.70190865,-0.15082738,-0.55059314,2.4715607,0.17165314,-5.8300977
995,1778472120,0.626495,-0.13886857,-0.5784157,2.4715607,0.17165314,-5.8300977
996,1778472120,0.52789587,-0.12739788,-0.5430274,2.2174408,0.111177474,-5.8178806
997,1778472120,0.375056946363264,-0.1090328060759552,-0.451934183508096,1.6826351206003198,0.2449552521225216,-5.54391103185536
998,1778472120,0.22221411,-0.090667262,-0.360838635,1.14781575,0.3787364549999999,-5.26993445
999,1778472120,0.21672285,0.05198419,-0.24820623,1.0219775,0.43493605,-5.0976706
1000,1778472121,0.2523552,0.19158493,-0.18084641,1.0219775,0.43493605,-5.0976706
