id,timestamp,acc_x,acc_y,acc_z,gyro_x,gyro_y,gyro_z
0,1778472146,0.12178457,0.38853914,0.84761083,-0.1142318,0.45081854,-0.86193085
1,1778472146,0.24186075,0.44735694,0.98379475,-0.07574729,-0.16310102,-0.6805039
2,1778472146,0.244423377801216,0.4591938565105919,1.0385863263232,0.077887286497408,-0.31520841694976,-0.7263193614304
3,1778472146,0.24698594,0.47103047,1.0933765,0.23151793,-0.46731192,-0.77213365
4,1778472146,0.251500937207296,0.4496757583438079,1.06531020925312,0.23151793,-0.46731192,-0.77213365
5,1778472146,0.25601605,0.4283205,1.0372432,0.23151793,-0.46731192,-0.77213365
6,1778472146,0.21891935,0.39659303,0.8834872,0.8741482,-0.5839872,-0.95233893
7,1778472146,0.14399378,0.3590082,0.6491923,0.95233893,-0.7623598,-0.93828905
8,1778472146,-0.071264714,0.25406358,0.35046622,0.95233893,-0.7623598,-0.93828905
9,1778472146,-0.0548821621060198,0.251714504932224,0.325663580030272,0.8594862240005761,-1.05710604770368,-0.782516411135744
10,1778472146,-0.0384996102120396,0.249365429864448,0.300860940060544,0.766633518001152,-1.35185229540736,-0.6267437722714879
11,1778472146,-0.0221174777060198,0.247016414932224,0.276058935030272,0.673783189000576,-1.64659099770368,-0.4709751211357439
12,1778472146,-0.0057353452,0.2446674,0.25125693,0.58093286,-1.9413297,-0.31520647
13,1778472146,0.05552302025,0.168155435,0.336554945,0.484721575,-2.70185695,0.0568104699999999
14,1778472146,0.20500809,0.10543273,0.41148052,0.48075095,-3.1612277,0.29932398
15,1778472146,0.37755654,0.065407341,0.450895775,0.545502675,-3.23972385,0.390953765
16,1778472146,0.523012793136128,0.0184269228570496,0.385794335809088,0.751361632471616,-3.32936717755072,0.452955788863936
17,1778472146,0.66847277,-0.028554698,0.32069123,0.95722586,-3.4190128,0.5149594
18,1778472146,0.6977597,-0.04075756,-0.064919226,1.3225232,-3.4807103,0.42210788
19,1778472146,0.6835231381535495,-0.0325410359485693,-0.1107202481596081,1.3180435715599854,-3.754375531360134,0.388510573367353
20,1778472146,0.669286576307099,-0.0243245118971387,-0.1565212703192162,1.3135639431199706,-4.028040762720268,0.3549132667347061
21,1778472146,0.65504965,-0.0161077775,-0.2023234649999999,1.3090842,-4.301713,0.3213151
22,1778472146,0.54205114,-0.16595893,-0.20940112,0.92057395,-4.6883907,0.37018433
23,1778472146,0.54083085,-0.25601605,-0.114218794,0.52534413,-4.9528956,0.56505036
24,1778472146,0.7316837,-0.31873876,0.20500809,-0.5216789,-4.889365,1.8228219
25,1778472146,0.8847075,-0.33118567,0.26162934,-1.3261884,-4.084856,2.1502457
26,1778472146,1.2197981,-0.3402158,0.39317623,-2.2858577,-2.8936687,2.6908615
27,1778472146,1.4565337,-0.35241866,0.6433349,-2.2858577,-2.8936687,2.6908615
28,1778472146,1.4765766309472002,-0.350313696943872,0.711395483813376,-2.45414894584448,-2.68231200540032,2.74156265101696
29,1778472146,1.496620075,-0.34820868,0.77945781,-2.6224445000000003,-2.4709499,2.7922651000000003
30,1778472146,1.5166635190528,-0.346103663056128,0.847520136186624,-2.79074005415552,-2.25958779459968,2.84296754898304
31,1778472146,1.53670645,-0.3439987,0.91558072,-2.9590313,-2.0482311,2.8936687
32,1778472146,1.51226290663136,-0.32115294477316,0.904480074277584,-2.71671178922944,-2.1584336081398403,2.9260918662281603
33,1778472146,1.4878187375,-0.2983066046875,0.893379144375,-2.474386075,-2.2686389375,2.9585158625
34,1778472146,1.46337456836864,-0.27546026460184,0.8822782144724161,-2.23206036077056,-2.37884426686016,2.99093985877184
35,1778472146,1.438931025,-0.2526145093749999,0.87117756875,-1.98974085,-2.489046775,3.023363025
36,1778472146,1.41448748163136,-0.2297687541481599,0.860076923027584,-1.7474213392294402,-2.59924928313984,3.05578619122816
37,1778472146,1.3900433125,-0.2069224140624999,0.848975993125,-1.505095625,-2.7094546125,3.0882101875
38,1778472146,1.36559914336864,-0.1840760739768399,0.837875063222416,-1.26276991077056,-2.81965994186016,3.12063418377184
39,1778472146,1.3411556,-0.16123031875,0.8267744175,-1.0204504,-2.92986245,3.15305735
40,1778472146,1.2443259,0.208180825,0.71899265,-0.5674938,-1.3775011,3.0427198
41,1778472146,1.070008,0.26266661,0.6483380799999999,-0.5626068750000001,-1.0980302675,2.912452775
42,1778472146,0.8956900999999999,0.317152395,0.57768351,-0.5577199500000001,-0.8185594350000001,2.78218575
43,1778472146,0.7747597199999999,0.3521135825,0.53143467,-0.5045746900000001,-0.7669413175,2.702926025
44,1778472146,0.65382934,0.38707477,0.48518583,-0.45142943,-0.7153232,2.6236663
45,1778472146,0.6633476,0.44467232,0.50763905,-0.45142943,-0.7153232,2.6236663
46,1778472146,0.9876996,0.652365,0.74437463,-0.35979962,-1.455081,2.669481
47,1778472146,1.113632075362455,0.7758162348693114,0.8458202209865429,-0.35979962,-1.455081,2.669481
48,1778472146,1.2395645507249098,0.8992674697386229,0.9472658119730856,-0.35979962,-1.455081,2.669481
49,1778472146,1.36550025,1.022721865,1.048714,-0.35979962,-1.455081,2.669481
50,1778472146,1.3967396,1.125592,1.0523748,0.204029,-0.2968805,1.1258247
51,1778472146,1.2207743,1.0899596,1.0186949,0.37690386,0.07880162,0.5907067
52,1778472146,1.0287013,1.0770246,0.94620997,0.6414085,0.4813618,-0.009162978
53,1778472146,0.7690244,1.0516427,0.5771954,0.6414085,0.4813618,-0.009162978
54,1778472146,0.8229617403891201,1.0385854828697598,0.41587148508032,1.07512835154304,0.308179288292224,-0.3781303117214207
55,1778472146,0.8768977,1.0255286,0.2545517,1.5088371,0.13500121,-0.7470882
56,1778472146,1.3069266,1.0777569,0.14887492,1.5088371,0.13500121,-0.7470882
57,1778472146,2.016157,1.104359,0.23990828,1.777007,-0.6377433,-0.9126327
58,1778472146,2.301220731692082,1.0893899111974878,0.2693583559415293,1.6509629822096308,-1.014857202661558,-1.1687932384172306
59,1778472147,2.586277165846041,1.074421205598744,0.2988076779707647,1.5249221911048154,-1.3919614513307792,-1.4249472192086152
60,1778472147,2.8713336,1.0594525,0.328257,1.3988814,-1.7690657,-1.6811012
61,1778472147,3.7016165,0.94913864,0.5537659,0.5198463,-1.241889,-2.7849348
62,1778472147,3.92981282087552,0.73284013391456,0.75877662410368,0.1343854161638399,-0.43553657882112,-3.53111615099904
63,1778472147,4.1580033,0.516547165,0.9637821,-0.2510656,0.3707952,-4.2772784
64,1778472147,4.072055966853261,0.295028318970031,0.9686224740565588,-0.1670730634909717,0.5289048015615934,-4.47621343813189
65,1778472147,3.9861064334266305,0.0735038019850155,0.9734629720282794,-0.0830783767454858,0.6870184507807967,-4.675153569065945
66,1778472147,3.9001569,-0.148020715,0.97830347,0.00091631,0.8451321,-4.8740936999999995
67,1778472147,3.6481678,-0.46151224,0.83809257,0.25289822,1.319469,-5.470909
68,1778472147,3.3466351,-0.699346025,0.68616693,0.8203920250000001,0.7351763,-5.56712055
69,1778472147,3.1709936845457727,-0.7620286082178636,0.6267791582308342,1.0223865236643257,0.5551731429593875,-5.611714013859355
70,1778472147,2.995352269091545,-0.8247111914357272,0.5673913864616684,1.2243810223286515,0.3751699859187749,-5.656307477718709
71,1778472147,2.81971535,-0.88739217,0.508005135,1.42637035,0.1951714369,-5.7008998
72,1778472147,2.2636309,-1.0179628,0.3214234,1.9498819,0.24801129,-5.8453693
73,1778472147,1.2852055,-1.0858107,-0.0031727445,1.9511036,0.59467733,-5.594303849999999
74,1778472147,0.8632861280011648,-1.0778787234720002,-0.0732180675686592,1.94041331316608,0.8202422021934079,-5.30841526567296
75,1778472147,0.441377557,-1.06994695,-0.1432615975,1.9297233,1.0458013,-5.022534
76,1778472147,0.0677917004601728,-1.031020308267392,-0.2205047350251839,2.11450773472896,0.643857109951488,-4.23880393187328
77,1778472147,-0.30580372,-0.99209267,-0.29774985,2.2992969,0.24190263,-3.4550538
78,1778472147,-0.3719443671192624,-0.989611399320189,-0.3361488470011605,2.32800798999633,0.0270780203735909,-3.202762227612278
79,1778472147,-0.4380833210596312,-0.9871301921600946,-0.3745468610005802,2.356718344998165,-0.1877410898132044,-2.950477113806139
80,1778472147,-0.504222275,-0.984648985,-0.412944875,2.3854287,-0.4025602,-2.698192
81,1778472147,-0.5429053625000001,-0.9938620925,-0.4264900475,2.31670645,-0.50426925,-2.4572056
82,1778472147,-0.58158845,-1.0030752,-0.44003522,2.2479842,-0.6059783,-2.2162192
83,1778472147,-0.5696296,-0.9828185,-0.48445365,1.9010127,-0.45875978,-1.767844
84,1778472147,-0.5983975212919058,-0.988035171617332,-0.4758032743955334,1.795274818494185,-0.3823855270220679,-1.6865404593015705
85,1778472147,-0.6271661790520235,-0.993251976783167,-0.4671526773386166,1.689534230063954,-0.306009318838233,-1.6052348372058574
86,1778472147,-0.6559348368121413,-0.998468781949002,-0.4585020802817,1.5837936416337233,-0.229633110654398,-1.5239292151101442
87,1778472147,-0.6847027581040471,-1.003685453566334,-0.4498517046772333,1.4780557601279078,-0.153258857676466,-1.4426256744117147
88,1778472147,-0.7134706793959529,-1.008902125183666,-0.4412013290727666,1.3723178786220922,-0.0768846046985339,-1.3613221337132853
89,1778472147,-0.7422393371560706,-1.014118930349501,-0.43255073201585,1.2665772901918615,-0.0005083965146989,-1.280016511617572
90,1778472147,-0.7710079949161883,-1.019335735515336,-0.4239001349589332,1.160836701761631,0.0758678116691359,-1.1987108895218588
91,1778472147,-0.7997759162080942,-1.024552407132668,-0.4152497593544666,1.0550988202558154,0.152242064647068,-1.1174073488234293
92,1778472147,-0.8285438375,-1.02976907875,-0.40659938375,0.94936093875,0.228616317625,-1.036103808125
93,1778472147,-0.7836064082055116,-1.0385246938802928,-0.4055824654890752,0.8927281659065242,0.0843999811196805,-0.4478101187081068
94,1778472147,-0.7386689789110233,-1.0472803090105856,-0.4045655472281504,0.8360953930630483,-0.0598163553856389,0.1404835707087864
95,1778472147,-0.6937327,-1.0560357,-0.403548655,0.77946407,-0.204029,0.7287622
96,1778472147,-0.60068706599936,-1.00856720760448,-0.535764965109568,0.768468640743296,-0.8237438175488,1.55006008725248
97,1778472147,-0.50763905,-0.9610975,-0.66798466,0.75747293,-1.4434745,2.371379
98,1778472147,-0.562429905,-0.99819415,-0.6058720799999999,0.75747293,-1.4434745,2.371379
99,1778472147,-0.2884847926055212,-0.962513987645167,-0.5580600052737295,0.5214855491204207,-1.3400433773622562,2.791589174436373
100,1778472147,-0.0145396802110423,-0.926833825290334,-0.5102479305474589,0.2854981682408413,-1.2366122547245126,3.2117993488727454
101,1778472147,0.2594124452680813,-0.8911527495116531,-0.4624346318164081,0.0495047460069821,-1.1331784842161368,3.632020280827279
102,1778472147,0.5333645707472049,-0.8554716737329721,-0.4146213330853574,-0.1864886762268771,-1.0297447137077609,4.052241212781814
103,1778472147,0.8073096831416838,-0.8197915113781391,-0.3668092583590869,-0.4224760571064564,-0.9263135910700172,4.472451387218187
104,1778472147,1.0812547955361629,-0.7841113490233061,-0.3189971836328164,-0.6584634379860358,-0.8228824684322734,4.892661561654559
105,1778472147,1.3552069210152862,-0.7484302732446252,-0.2711838849017656,-0.894456860219895,-0.7194486979238974,5.312882493609093
106,1778472147,1.62915904649441,-0.7127491974659441,-0.2233705861707149,-1.130450282453754,-0.6160149274155214,5.733103425563628
107,1778472147,1.9031041588888888,-0.6770690351111112,-0.1755585114444444,-1.3664376633333335,-0.5125838047777778,6.153313600000001
108,1778472147,3.871968,-0.014643434,-0.0302631,-1.8246545,-0.5363397,6.1349196
109,1778472147,3.4946556,-0.020012695,0.08639627,-1.8246545,-0.5363397,6.1349196
110,1778472147,3.16035397099392,-0.0174500603986969,0.170719126818752,-1.83198499382912,-0.92668754638848,5.36308157059968
111,1778472147,2.8260609,-0.0148874914,0.255039825,-1.8393153,-1.3170254,4.5912633
112,1778472147,2.75168540201856,0.278465549333015,0.343753506950336,-1.87474499649408,-1.0167889930752,4.69388733639552
113,1778472147,2.677308,0.5718261,0.43246946,-1.9101756,-0.7165449,4.796514
114,1778472147,2.6048229,0.34924594,0.36144876,-2.071444,0.40011674,4.383569
115,1778472147,2.6375268,0.75291663,0.52252656,-2.071444,0.40011674,4.383569
116,1778472147,2.4405725,0.916435,0.65138876,-1.9504927,0.35613444,3.8246274
117,1778472147,2.0881538,1.0028312,0.8078295,-1.2632693,-0.08552113,2.3719897
118,1778472147,1.7257851617408,1.07903907544832,0.97433968130304,-0.8055726665580799,-0.349418275340224,2.0954169099135997
119,1778472147,1.3634258,1.155245,1.1408456,-0.3478877499999999,-0.613308665,1.8188512
120,1778472147,1.27452908789248,1.18776518373632,1.0789778919168,0.39018072760256,-0.937368534480576,1.44882433640448
121,1778472147,1.1856301,1.2202862,1.0171086,1.1282681,-1.2614367,1.078788
122,1778472147,1.192504483987985,1.2745085420494593,0.7891552346456945,1.3638624540921775,-1.1920005149709438,0.9327887083106488
123,1778472147,1.1993786919939924,1.3287294960247298,0.5612077048228472,1.5994507770460886,-1.122566107485472,0.7867931541553244
124,1778472147,1.2062529,1.38295045,0.333260175,1.8350391,-1.0531317,0.6407976
125,1778472147,1.3718457,1.5727049,-0.09811102,1.6487253,-0.63713247,0.2321288
126,1778472147,1.62285865,1.6384783,-0.20317765,0.48349985,0.1111774749999999,-0.96547252
127,1778472147,1.491738925,1.38105895,0.001769415,0.270766025,0.2312124975,-1.24479066
128,1778472147,1.3606192,1.1236396,0.20671648,0.0580322,0.35124752,-1.5241088
129,1778472147,1.5282865,1.3903941,0.013667206,-0.3390302,0.37568212,-3.0775392
130,1778472147,1.3938109,1.0440769,0.26187342,-0.3390302,0.37568212,-3.0775392
131,1778472147,1.5685950751559474,1.0143835267200287,0.18987714937604,-0.2619600296738716,0.3144943088093389,-3.161023337592907
132,1778472147,1.7433792503118946,0.9846901534400574,0.11788087875208,-0.1848898593477433,0.2533064976186778,-3.2445074751858143
133,1778472147,1.9181679,0.95499602,0.045882765,-0.107817716,0.19211712,-3.32799375
134,1778472147,2.4247088,0.8854397,-0.17450093,-0.044593163,0.06047566,-3.7690387
135,1778472147,2.6109245,0.7917217,-0.27261195,-0.044593163,0.06047566,-3.7690387
136,1778472147,2.665543802530645,0.7220076408347127,-0.2430488603123916,-0.1071144202509968,0.1608700792683178,-3.8853153899726505
137,1778472147,2.7201645033333333,0.6522917969666666,-0.2134850137999999,-0.1696372780666666,0.2612670686666666,-4.001595056666667
138,1778472147,2.774785204136021,0.5825759530986205,-0.1839211672876083,-0.2321601358823363,0.3616640580650154,-4.117874723360683
139,1778472147,2.8294045066666667,0.5128618939333333,-0.1543580775999999,-0.2946813931333332,0.4620584773333333,-4.234151413333334
140,1778472147,2.884023809197312,0.443147834768046,-0.1247949879123916,-0.3572026503843301,0.5624528966016512,-4.350428103305984
141,1778472147,2.9386445099999996,0.3734319908999999,-0.0952311413999999,-0.4197255081999999,0.662849886,-4.46670777
142,1778472147,2.993265210802688,0.3037161470319539,-0.0656672948876083,-0.4822483660156696,0.7632468753983488,-4.582987436694016
143,1778472147,3.047884513333333,0.2340020878666666,-0.0361042051999999,-0.5447696232666666,0.8636412946666667,-4.699264126666667
144,1778472147,3.102503815863978,0.1642880287013793,-0.0065411155123916,-0.6072908805176634,0.9640357139349846,-4.815540816639317
145,1778472147,3.1571245166666664,0.0945721848333333,0.023022731,-0.6698137383333332,1.0644327033333334,-4.9318204833333334
146,1778472147,2.68755845,-0.4897008349999999,-0.45736326,1.4477507,0.8564331,-5.73969
147,1778472147,2.2238942899848104,-0.5210619457150963,-0.4773351195712835,1.424639813882086,0.8368855751410139,-5.648977274091837
148,1778472147,1.7602301299696212,-0.5524230564301927,-0.497306979142567,1.4015289277641718,0.8173380502820278,-5.558264548183673
149,1778472147,1.2965541,-0.58378497,-0.51727935,1.3784174500000002,0.797790025,-5.4675495000000005
150,1778472147,1.0278560565009771,-0.6130723276089498,-0.472900845949892,1.2940147595458542,0.790866765177878,-5.059179130568237
151,1778472147,0.7591648915838218,-0.6423589354711415,-0.428523477974946,1.209614229772927,0.7839436825889389,-4.650819215284119
152,1778472147,0.4904737266666666,-0.6716455433333334,-0.38414611,1.1252137,0.7770205999999998,-4.2424593
153,1778472147,-0.22209209,-0.76389915,-0.29067218,1.1252137,0.7770206,-4.2424593
154,1778472147,-0.36291313,-0.79562664,-0.30800024,1.2272283,0.6395759,-3.4965928
155,1778472147,-0.4978768,-0.83736044,-0.345341,1.2473868,0.4447099,-2.683531
156,1778472147,-0.7660957,-0.9498709,-0.4080637,1.0818423,0.36102137,-2.0066924
157,1778472147,-0.8219852769182852,-1.002547016163771,-0.400091105301396,0.8945087014404205,0.2382364045817063,-1.4831763993873093
158,1778472147,-0.8778748538365704,-1.055223132327542,-0.392118510602792,0.7071751028808411,0.1154514391634126,-0.9596603987746184
159,1778472148,-0.933763,-1.1078979,-0.38414612,0.5198463,-0.007330383,-0.4361578
160,1778472148,-0.89703238,-1.1570754,-0.33814131,0.4495968099999999,-0.0397062414999999,-0.320704265
161,1778472148,-0.91393334,-1.16756985,-0.290367115,0.3384193399999999,-0.06811147375,-0.1646281895
162,1778472148,-0.9308343,-1.1780643,-0.24259292,0.22724187,-0.096516706,-0.008552114
163,1778472148,-0.99148255,-1.19856515,-0.1059208535,0.131030595,-0.081855943,0.114842663
164,1778472148,-1.0521308,-1.219066,0.030751213,0.03481932,-0.06719518,0.23823744
165,1778472148,-1.04004995,-1.21064595,0.0285546935,-0.16982054,0.15974126,0.8506298299999999
166,1778472148,-1.02583344303104,-1.1944769680396798,0.1333786334792576,-0.113314781735552,0.300700224251648,1.241741321163008
167,1778472148,-1.0116173,-1.1783084,0.23819989,-0.05681047,0.44165558,1.6328428
168,1778472148,-0.93315390434432,-1.16171271242752,0.219285687104896,0.036039861500544,0.500603310459392,1.84847543986688
169,1778472148,-0.8546885,-1.1451166,0.200371,0.12889257,0.55955255,2.0641136
170,1778472148,-0.6557818200000001,-1.11192485,0.032215558,0.57421331,0.682641925,2.917187
171,1778472148,-0.18621568,-1.0323621,-0.2716357,0.7812967,0.64812803,3.3988543
172,1778472148,-0.029776987440896,-0.981720913215488,-0.3169077455103999,0.7345660781596159,0.470063094260352,3.78064026307712
173,1778472148,0.12666571,-0.93107843,-0.36218095,0.68783426,0.2919936,4.162436
174,1778472148,0.26553428,-0.85322416,-0.3577879,0.5870415,0.1966986,4.401895
175,1778472148,0.40098605,-0.780007,-0.340948,0.5039638,0.14844026,4.652961
176,1778472148,0.84834296,-0.536926,-0.33899552,0.28527406,0.08857546,5.7641244
177,1778472148,2.07497468,-0.0999414749999999,-0.402572425,0.28527406,0.08857546,5.7641244
178,1778472148,3.3016064,0.33704305,-0.46614933,0.28527406,0.08857546,5.7641244
179,1778472148,4.118954,0.68336034,-0.49201941,-0.32742378,-0.77457714,6.9192705
180,1778472148,4.761069,1.0030752,-0.39830142,-0.32742378,-0.77457714,6.9192705
181,1778472148,5.3446097,1.432616,-0.041001618,-0.6230826,-1.5033394,5.477018
182,1778472148,5.075044899614721,1.54158899483648,-0.0356322902734848,-0.8576578525248,-0.7654047225570304,4.06284674883968
183,1778472148,4.805487,1.6505592,-0.0302631,-1.0922271,-0.027488936,2.6487117
184,1778472148,5.3184953,1.6891203,0.013179091,-0.86132,-0.59315014,3.5735617
185,1778472148,4.31493205,1.5186462749999998,0.0891419112499999,-1.1301007,-0.0054977699999999,2.5977045
186,1778472148,3.3113688000000003,1.34817225,0.1651047315,-1.3988814,0.5821546,1.6218473
187,1778472148,3.118737758598992,1.339755145559378,0.1545604708802395,-1.281131552811215,0.5511327231228242,1.496989278366485
188,1778472148,2.926106717197984,1.331338041118756,0.1440162102604791,-1.1633817056224298,0.5201108462456485,1.3721312567329706
189,1778472148,2.733470744379194,1.3229207211975025,0.1334716797041916,-1.045628843998972,0.4890881751982594,1.2472700386931883
190,1778472148,2.5408347715604034,1.3145034012762489,0.1229271491479041,-0.927875982375514,0.4580655041508703,1.1224088206534055
191,1778472148,2.348203730159395,1.3060862968356268,0.1123828885281437,-0.810126135186729,0.4270436272736946,0.9975507990198912
192,1778472148,2.155572688758387,1.2976691923950048,0.1018386279083833,-0.6923762879979439,0.3960217503965189,0.8726927773863766
193,1778472148,1.962936715939597,1.2892518724737512,0.0912940973520958,-0.574623426374486,0.3649990793491297,0.7478315593465942
194,1778472148,1.7703007431208069,1.2808345525524971,0.0807495667958083,-0.4568705647510281,0.3339764083017406,0.6229703413068117
195,1778472148,1.5776697017197985,1.2724174481118755,0.0702053061760479,-0.339120717562243,0.3029545314245649,0.4981123196732971
196,1778472148,1.3850386603187903,1.2640003436712537,0.0596610455562874,-0.2213708703734579,0.2719326545473892,0.3732542980397825
197,1778472148,1.1924026875,1.25558302375,0.0491165149999999,-0.10361800875,0.2409099835,0.24839308
198,1778472148,1.376971,1.5082738,0.0053692595,-0.22174409,0.009162978,-0.99082345
199,1778472148,1.4963149,1.4545813,0.049299564,-0.31520647,0.18509217,-1.4795157
200,1778472148,1.511283527865481,1.3732302217428407,0.0333547624614294,-0.2401731337519967,0.2514717287743626,-1.9826564129552515
201,1778472148,1.5262525389327406,1.2918770608714203,0.0174095527307147,-0.1651378766259983,0.3178529868871813,-2.485810006477626
202,1778472148,1.54122155,1.2105239,0.001464343,-0.0901026195,0.384234245,-2.9889636
203,1778472148,1.4756920999999998,0.8412653,-0.120076165,0.0503963805,0.3576616099999999,-3.8316522
204,1778472148,1.5256019,0.5108118,-0.2550398,0.008552114,0.3555236,-4.745201
205,1778472148,1.5675797500000002,0.38463421,-0.265168185,0.008552114,0.3555236,-4.745201
206,1778472148,1.6095576,0.25845662,-0.27529657,0.008552114,0.3555236,-4.745201
207,1778472148,1.6047985,0.119099934,-0.25003665,-0.1050688179999999,0.42455136,-5.0005428
208,1778472148,1.6000394,-0.020256752,-0.22477673,-0.21868975,0.49357912,-5.2558846
209,1778472148,1.6168793,-0.099575356,-0.2613853,-0.21197024,0.49541172,-5.580865
210,1778472148,1.65177945,-0.1786499,-0.3853664,-0.241597205,0.335975885,-5.481904800000001
211,1778472148,1.695465725,-0.19597797,-0.4241714849999999,-0.2600758825,0.2959642125,-5.4483072
212,1778472148,1.739152,-0.21330604,-0.46297657,-0.27855456,0.25595254,-5.4147096
213,1778472148,1.679846025,-0.2749304925,-0.4015961875,-0.50274211,0.133474057,-5.3004778
214,1778472148,1.62054005,-0.336554945,-0.340215805,-0.72692966,0.010995574,-5.186246
215,1778472148,1.3005811,-0.39342028,-0.23136626,-0.8362745,-0.034208454,-4.8966956
216,1778472148,0.92278045,-0.43710655,-0.09030118,-0.7458665,-0.16432275,-4.225966
217,1778472148,0.51386253,-0.461634295,0.01086055,-0.634689,-0.12705997,-3.85058915
218,1778472148,0.10494461,-0.48616204,0.11202228,-0.5235115,-0.08979719,-3.4752123
219,1778472148,0.40098605,-0.47225076,0.05515694,-0.5235115,-0.08979719,-3.4752123
220,1778472148,-0.54778647,-0.472372815,0.2429589899999999,-0.340251935,0.0574213331,-2.881146
221,1778472148,-0.677840167166016,-0.454037776564512,0.216569962224768,-0.2122740281537599,0.1325587165711981,-2.48629292094528
222,1778472148,-0.807893864332032,-0.435702738129024,0.190180934449536,-0.0842961213075199,0.2076961000423962,-2.09143984189056
223,1778472148,-0.937944232166016,-0.417368169064512,0.1637925822247679,0.04367850934624,0.2828315600211981,-1.69659687094528
224,1778472148,-1.0679946,-0.3990336,0.13740423,0.17165314,0.35796702,-1.3017539
225,1778472148,-0.85871545,-0.42197497,-0.036120472,0.64263022,0.52045718,0.4303545499999999
226,1778472148,-0.4527262,-0.43613032,-0.3607166,1.128879,0.66523224,2.584571
227,1778472148,-0.2987680649595689,-0.4325915218647973,-0.4223405408023074,1.1119785442190686,0.64446300389975,2.704706741495217
228,1778472148,-0.1448099299191378,-0.4290527237295946,-0.4839644816046148,1.0950780884381373,0.6236937677994999,2.824842482990434
229,1778472148,0.0091521465,-0.425513835,-0.54559,1.0781772,0.602924,2.9449813
230,1778472148,0.11568313,-0.43613032,-0.5120321,0.40500367,0.4392121,3.5167513
231,1778472148,0.09859913,-0.48835856,-0.31678632,-0.29565877,0.59131753,3.626096
232,1778472148,0.1140558245357033,-0.5119910266674063,-0.1885770964654231,-0.4385987987922825,0.6355026992301259,3.796219113195037
233,1778472148,0.1295129147678516,-0.5356240983337031,-0.0603645907327115,-0.5815424868961413,0.679688999615063,3.9663465815975183
234,1778472148,0.1449700049999999,-0.55925717,0.067847915,-0.724486175,0.7238753,4.13647405
235,1778472148,0.18060236,-0.54790854,0.17450093,-0.6224717,0.6939429,4.2778893
236,1778472148,0.33509058,-0.4612682,0.18426323,-0.20647246,0.4783075,4.390899
237,1778472148,0.3752383459232174,-0.4039549275996689,0.0726467608849882,-0.110260362333942,0.3981816561015505,4.34986891654777
238,1778472148,0.4153861118464348,-0.3466416551993378,-0.0389697082300235,-0.0140482646678841,0.318055812203101,4.308838833095539
239,1778472148,0.45553285,-0.28932985,-0.15058332,0.08216137,0.2379320195,4.2678098
240,1778472148,0.4738177330933577,-0.2691622648812509,-0.1644351348373577,0.116042141320576,0.1474945780212112,4.23405995486069
241,1778472148,0.4921030842857142,-0.2489941634657143,-0.1782873042857142,0.14992378,0.0570548213142857,4.200309245714286
242,1778472148,0.5103884354780709,-0.2288260620501776,-0.1921394737340708,0.183805418679424,-0.0333849353926398,4.166558536567881
243,1778472148,0.5286733185714285,-0.2086584769314285,-0.2059912885714285,0.21768619,-0.1238223768714285,4.132808691428571
244,1778472148,0.5469582016647863,-0.1884908918126795,-0.2198431034087862,0.251566961320576,-0.2142598183502173,4.099058846289262
245,1778472148,0.5652435528571429,-0.1683227903971428,-0.2336952728571428,0.2854486,-0.3046995750571428,4.065308137142857
246,1778472148,0.5835289040494994,-0.1481546889816061,-0.2475474423054994,0.319330238679424,-0.3951393317640684,4.031557427996453
247,1778472148,0.6018137871428572,-0.1279871038628571,-0.2613992571428571,0.35321101,-0.4855767732428571,3.997807582857143
248,1778472148,0.6200986702362148,-0.1078195187441081,-0.2752510719802148,0.387091781320576,-0.5760142147216459,3.964057737717833
249,1778472148,0.6383840214285714,-0.0876514173285714,-0.2891032414285714,0.42097342,-0.6664539714285714,3.930307028571428
250,1778472148,3.223670866666667,1.1102977433333334,-0.31263733,-0.6530149533333334,-0.8468628866666666,4.058384966666666
251,1778472148,3.639812026661092,1.2985185227176792,-0.0221303323581114,-0.9242367877662768,-0.556432866145676,3.0668234058780692
252,1778472148,4.0559531866555165,1.486739302102025,0.2683766652837772,-1.19545862219922,-0.2660028456246853,2.0752618450894724
253,1778472148,4.472105,1.6749649,0.5588911,-1.4666874,0.02443461,1.0836749
254,1778472148,4.302241,1.6490947,0.6936107,-1.4666874,0.02443461,1.0836749
255,1778472148,4.084542,1.5707525,0.7922098,-1.2400564,0.10262536,0.47525316
256,1778472148,3.8385324,1.4636112,0.8061211,-1.2400564,0.10262536,0.47525316
257,1778472148,3.6266909,1.3550059,0.74291027,-0.9260717,0.12767084,-0.07086037
258,1778472148,3.449258171853533,1.2652726352385504,0.6302352403707749,-0.7627642795890329,0.1282817137587787,-0.2899611192715915
259,1778472149,3.2718299859267668,1.1755416676192751,0.5175630951853875,-0.5994610397945165,0.1288925718793893,-0.5090562596357958
260,1778472149,3.0944018,1.0858107,0.40489095,-0.4361578,0.12950343,-0.7281514
261,1778472149,2.6449704,0.891907185,0.1664470425,0.57726765,0.080634214,-2.0928242
262,1778472149,1.9300048,0.6245425,-0.13496366,0.5369505,0.47647488,-2.8680124
263,1778472149,1.6559895000000002,0.55272865,-0.2186752925,0.3312416375,0.580474685,-2.8035660499999997
264,1778472149,1.3819742000000002,0.4809148,-0.302386925,0.1255327749999999,0.68447449,-2.7391197
265,1778472149,1.2875850000000002,0.46877295,-0.2396642124999999,-0.0801760875,0.7884742950000001,-2.67467335
266,1778472149,1.1931958,0.4566311,-0.1769415,-0.28588495,0.8924741,-2.610227
267,1778472149,1.1519502,0.43198135,-0.08175918,-0.64996064,1.0128145,-2.5729644
268,1778472149,1.11644032953216,0.383719635257856,0.0767539735056639,-0.656985490080768,1.0428992399103998,-2.6421440144896
269,1778472149,1.08092955,0.335456685,0.235271185,-0.6640105199999999,1.0729847499999998,-2.7113254
270,1778472149,1.0416363,0.26943922,0.39293218,-0.6780604,1.133155,-2.8496864
271,1778472149,1.0535952,0.2294138,0.4339338,0.13194689,1.1068878,-3.1813862
272,1778472149,1.0845904,0.1803583,0.40220633,0.45753807,1.0946705,-3.3115005
273,1778472149,1.0889834,-0.0046370885,0.164128495,0.765108735,1.08214775,-3.5161403
274,1778472149,1.05749959701248,-0.0583303715152256,0.095120426708032,1.005029138441856,1.06489060411136,-3.713757829472
275,1778472149,1.0260166,-0.11202228,0.026114125,1.2449434,1.0476339,-3.9113703
276,1778472149,0.9654905,-0.2511349,-0.09737884,1.3903292,0.9981538,-4.1386123
277,1778472149,0.8828357280216405,-0.3364743215537427,-0.118205237716319,1.4136441156180668,0.933299729919019,-4.282879414396952
278,1778472149,0.8001809560432809,-0.4218137431074854,-0.1390316354326381,1.436959031236133,0.868445659838038,-4.427146528793903
279,1778472149,0.7175283,-0.50715098,-0.1598574999999999,1.46027335,0.80359325,-4.57140995
280,1778472149,0.6290586874255361,-0.556693950841856,-0.146373507597312,1.45714272757248,0.72089842100736,-4.6380697842432
281,1778472149,0.54058681,-0.60623819,-0.13288917,1.4540120250000002,0.638201475,-4.704731325
282,1778472149,0.452114932574464,-0.655782429158144,-0.119404832402688,1.45088132242752,0.55550452899264,-4.7713928657568
283,1778472149,0.36364532,-0.7053254,-0.10592084,1.4477507,0.4728097,-4.8380527
284,1778472149,0.1932345177861887,-0.713257163472128,-0.095243474172032,1.62581562073984,0.0785012322129919,-4.576605696564481
285,1778472149,0.022819353,-0.72118913,-0.084565835,1.8038851,-0.31581733,-4.315152
286,1778472149,-0.0671779104502272,-0.723263671553792,-0.177247763813504,1.98348174880768,-0.594680884407808,-4.0411754931456
287,1778472149,-0.15717287,-0.72533816,-0.26992732,2.1630738,-0.8735373,-3.767206
288,1778472149,-0.320078999774848,-0.7519400594913279,-0.5311872658298881,2.28860504317952,-1.05435108555392,-3.52988788771072
289,1778472149,-0.4829893,-0.77854264,-0.7924539,2.4141395,-1.2351695,-3.2925637
290,1778472149,-1.037324666666667,-0.8148258,-1.0345586166666667,1.1516845933333333,-1.4479542666666667,-1.14028184
291,1778472149,-0.9203843216703904,-0.7880408601664333,-0.9465861498305076,0.9224207505406768,-1.386998611723852,-0.6485076686788549
292,1778472149,-0.8034439766741144,-0.7612559203328664,-0.8586136829943486,0.6931569077480202,-1.326042956781037,-0.1567334973577099
293,1778472149,-0.6865006379666868,-0.7344702947960629,-0.7706389640342113,0.4638871957258619,-1.2650857413534815,0.3350532635433674
294,1778472149,-0.5695572992592592,-0.7076846692592593,-0.6826642450740741,0.2346174837037037,-1.204128525925926,0.8268400244444448
295,1778472149,-0.452616954262983,-0.6808997294256925,-0.594691778237915,0.0053536409110471,-1.143172870983111,1.3186141957655897
296,1778472149,-0.3356766092667069,-0.6541147895921257,-0.506719311401756,-0.2239102018816094,-1.0822172160402963,1.810388367086735
297,1778472149,-0.2187332705592793,-0.6273291640553221,-0.4187445924416187,-0.4531799139037676,-1.0212600006127408,2.302175127987812
298,1778472149,-0.1017899318518517,-0.6005435385185186,-0.3307698734814814,-0.6824496259259258,-0.9603027851851852,2.7939618888888895
299,1778472149,0.0151504131444244,-0.5737585986849517,-0.2427974066453224,-0.9117134687185824,-0.8993471302423703,3.2857360602100343
300,1778472149,0.1320907581407005,-0.5469736588513849,-0.1548249398091633,-1.140977311511239,-0.8383914752995555,3.777510231531179
301,1778472149,0.2490340968481281,-0.5201880333145814,-0.066850220849026,-1.3702470235333972,-0.777434259872,4.269296992432257
302,1778472149,0.3659774355555555,-0.4934024077777778,0.0211244981111111,-1.5995167355555555,-0.7164770444444444,4.761083753333334
303,1778472149,2.1420906,-0.1901206,0.31385764,-0.59742624,-1.2461652,6.1642413
304,1778472149,2.0910823,-0.13764828,0.26748675,0.09162979,-1.3738359,5.9858685
305,1778472149,2.003221775,-0.144420875,0.263520815,0.262977485,-0.9039278325,5.72304365
306,1778472149,1.91536125,-0.15119347,0.25955488,0.43432518,-0.434019765,5.4602188
307,1778472149,1.7760057725152962,-0.1206865731621852,0.2618734052149982,0.505592188513743,-0.0745286443634959,5.373578606005785
308,1778472149,1.636650295030592,-0.0901796763243704,0.2641919304299965,0.5768591970274859,0.2849624762730081,5.286938412011571
309,1778472149,1.49729125,-0.0596719985,0.266510515,0.64812803,0.6444628,5.200296
310,1778472149,1.5295068,0.030019043,0.23429495,0.77396625,0.8258898,5.208848
311,1778472149,1.7203596,0.30385128,0.08151512,1.3646729,0.8136725,4.678006
312,1778472149,1.7791773,0.47639978,-0.003172744,1.3646729,0.8136725,4.678006
313,1778472149,1.7723843253673583,0.5642204527268151,-0.050072812875465,1.4498893271708706,0.7299832525275626,4.528037320283646
314,1778472149,1.7655913507347167,0.6520411254536301,-0.0969728817509301,1.5351057543417417,0.6462940050551251,4.378068640567293
315,1778472149,1.7587985499999998,0.73985955,-0.14387175,1.62032,0.5626069,4.2281037999999995
316,1778472149,1.7003468,1.0216236,-0.31825066,2.3591616,-0.42760566,2.9168816
317,1778472149,1.61919775,1.0837362,-0.454556645,2.4547619500000004,-0.58032198,2.563496
318,1778472149,1.5380487,1.1458488,-0.59086263,2.5503623,-0.7330383,2.2101104
319,1778472149,1.4179726,1.1282767,-0.6967834,2.0964894,-0.12950343,0.9663888
320,1778472149,1.2883781,1.1138773,-0.7482795,1.6285667,0.26939157,0.53878313
321,1778472149,1.1075318,1.0897156,-0.74242216,1.2308935,0.5375614,0.2742785
322,1778472149,1.22187411356288,1.1709876902694398,-0.714355220747776,0.547631959364224,0.51923521542784,0.1209493589121151
323,1778472149,1.3362135,1.2522577,-0.686289,-0.13561209,0.5009095,-0.032375857
324,1778472149,1.9639287,1.4394495,-0.40049794,-0.43799037,-0.36651915,-0.22235495
325,1778472149,2.133487475,1.4620858250000002,-0.317640505,-0.418137255,-0.673478925,-0.5916229749999999
326,1778472149,2.30304625,1.48472215,-0.2347830699999999,-0.39828414,-0.9804387,-0.960891
327,1778472149,2.6421638,1.5299948,-0.0690682,-0.39828414,-0.9804387,-0.960891
328,1778472149,3.1180754,1.4816716,0.033435844,-0.35124752,-0.9095783,-1.6988163
329,1778472149,3.4124084,1.3196175,-0.04881145,-0.35124752,-0.9095783,-1.6988163
330,1778472149,3.5778792,1.0557917,-0.19451363,-0.8491027,-0.02443461,-3.19116
331,1778472149,3.677941846121157,0.9517157114598036,-0.1952729101873928,-0.8838538423420118,-0.0867423331895119,-3.3007754423806963
332,1778472149,3.7780044922423137,0.8476397229196072,-0.1960321903747856,-0.9186049846840236,-0.1490500563790238,-3.4103908847613926
333,1778472149,3.8780697,0.74356107,-0.1967914899999999,-0.9533570166666668,-0.2113593746666666,-3.520009133333333
334,1778472149,3.89893681709568,0.581423624667264,-0.188574789827584,-1.0563909771511466,-0.4645662483398314,-4.004635169800533
335,1778472149,3.9198034,0.41929033,-0.1803583,-1.1594223,-0.71776664,-4.4892488
336,1778472149,3.3845859,-0.020988923,-0.2523552,-1.4978416,-0.19181168,-5.1654763
337,1778472149,2.9906774,-0.22502078,-0.26870704,-1.4978416,-0.19181168,-5.1654763
338,1778472149,2.60860095948416,-0.368345244529664,-0.228009966584128,-1.80541623690496,0.4554083443102721,-5.35026551527168
339,1778472149,2.2265343,-0.51166604,-0.187313935,-2.112983,1.1026118,-5.53505
340,1778472149,1.674239801960064,-0.6683487644354561,-0.0278245639900799,-1.95614533254784,1.06534948946368,-5.38401553326592
341,1778472149,1.121931165,-0.8250355,0.13166889,-1.79930365,1.028086225,-5.2329772000000006
342,1778472149,0.777073868383104,-0.85963109281792,0.329418826166784,-1.64246196745216,0.99082296053632,-5.08193886673408
343,1778472149,0.4322254,-0.8942258,0.5271637,-1.4856243,0.95356065,-4.9309044
344,1778472149,0.3082443,-0.9264413,0.42685616,-0.25534168,0.015271631,-4.2449026
345,1778472149,0.2630281647149234,-0.9252860830596188,0.3769242436259431,-0.0919810674309612,-0.0746622290109388,-4.10114417348811
346,1778472149,0.2178120294298468,-0.9241308661192376,0.3269923272518862,0.0713795451380774,-0.1645960890218777,-3.957385746976221
347,1778472149,0.1725970516630172,-0.9229756787520316,0.2770616891185271,0.2347359757289637,-0.2545276467554694,-3.813631000632944
348,1778472149,0.1273820738961877,-0.9218204913848256,0.2271310509851679,0.3980924063198501,-0.3444592044890611,-3.669876254289667
349,1778472149,0.0821659386111111,-0.9206652744444443,0.177199134611111,0.5614530188888888,-0.4343930645,-3.5261178277777776
350,1778472149,0.0369498033260344,-0.9195100575040632,0.1272672182370542,0.7248136314579275,-0.5243269245109389,-3.382359401265888
351,1778472149,-0.008265174440795,-0.9183548701368572,0.077336580103695,0.8881700620488139,-0.6142584822445305,-3.2386046549226113
352,1778472149,-0.0534801522076246,-0.9171996827696512,0.0274059419703358,1.0515264926397,-0.7041900399781222,-3.0948499085793344
353,1778472149,-0.0986962874927012,-0.91604446582927,-0.0225259744037209,1.2148871052087389,-0.7941238999890611,-2.951091482067445
354,1778472149,-0.1439124227777778,-0.9148892488888888,-0.0724578907777777,1.3782477177777777,-0.88405776,-2.8073330555555556
355,1778472149,-0.26699865,-0.856885,0.14179726,1.8716911,-1.8356501,-1.9572122
356,1778472149,-0.8778739,-1.0928884,-0.25137895,1.527774,-0.45998153,-1.8704693
357,1778472149,-1.1953924,-1.210768,-0.43637437,1.527774,-0.45998153,-1.8704693
358,1778472149,-1.42194144979072,-1.27416271144192,-0.56035704445792,1.30633251558528,-0.24571779995936,-1.67086654511744
359,1778472150,-1.6484847,-1.3375558,-0.6843365450000001,1.0848967,-0.031459555,-1.4712689
360,1778472150,-1.6915607,-1.3288918,-0.5720702,-0.22724187,0.33414328,0.13988814
361,1778472150,-1.62700765,-1.3146144,-0.4825011899999999,-0.510683355,-0.12461651,1.00609502
362,1778472150,-1.5624546,-1.300337,-0.39293218,-0.79412484,-0.5833763,1.8723019
363,1778472150,-1.2454242,-1.2124764,-0.22135992,-0.6963864,-0.9138544,2.9309313
364,1778472150,-1.1607363,-1.1956364,-0.16815543,-0.6963864,-0.9138544,2.9309313
365,1778472150,-0.8839143375,-1.1114976875,-0.1228828175,-0.65118235,-0.8955284499999999,3.46360585
366,1778472150,-0.607092375,-1.027358975,-0.077610205,-0.6059783,-0.8772025,3.9962804
367,1778472150,0.0313966014909931,-0.8418770527993293,-0.2133862280297729,-0.6487385017749409,-0.5462181661024686,4.723916490759214
368,1778472150,0.6698855779819862,-0.6563951305986585,-0.3491622510595458,-0.6914987035498817,-0.2152338322049374,5.451552581518428
369,1778472150,1.3083909,-0.47090846,-0.48494175,-0.7342599999999999,0.115758975,6.1792073
370,1778472150,2.818129,-0.00109825,-0.3970811199999999,-0.889419785,0.07544187,6.790072800000001
371,1778472150,2.994160581177946,0.0973169929569548,-0.3464532342523772,-0.7449513882294324,0.0089769021749852,6.7134607482089885
372,1778472150,3.170192162355893,0.1957322359139096,-0.2958253485047544,-0.6004829914588649,-0.0574880656500294,6.636848696417976
373,1778472150,3.34622825,0.2941499983333333,-0.2451961666666666,-0.4560108962499999,-0.123954735,6.560234683333333
374,1778472150,3.522264337644107,0.3925677607527569,-0.1945669848285788,-0.311538801041135,-0.1904214043499706,6.483620670248691
375,1778472150,3.698295918822054,0.4909830037097117,-0.143939099080956,-0.1670704042705675,-0.2568863721749853,6.407008618457679
376,1778472150,3.8743275,0.5893982466666666,-0.0933112133333333,-0.0226020075,-0.32335134,6.330396566666667
377,1778472150,2.9035492,0.45370242,-0.60038084,1.2315043,0.312763,4.592485
378,1778472150,2.78487478098688,0.5341203043357441,-0.796117275394304,0.8994948003328,0.51923809284736,4.44770794687744
379,1778472150,2.6662034,0.6145361300000001,-0.9918487,0.5674938,0.7257079,4.3029346
380,1778472150,2.822034,0.87274873,-1.197833,0.5674938,0.7257079,4.3029346
381,1778472150,2.6316693,1.0726316,-0.9405966,0.07574729,0.61453044,3.9858956
382,1778472150,2.43690915710208,1.11790482948992,-0.6563883221806079,-0.340868152609408,0.53022996096768,3.58485741677696
383,1778472150,2.242154,1.1631769,-0.37218732,-0.75747293,0.44593164,3.1838295
384,1778472150,1.956851,1.1956364,-0.08664032,-1.241889,0.25900686,2.157576
385,1778472150,1.726827025,1.2232759,0.0801118,-1.1032226,0.255952535,1.714087875
386,1778472150,1.49680305,1.2509154,0.24686392,-0.9645562,0.25289821,1.27059975
387,1778472150,1.2136967,1.3293798,0.3338703,-0.36468655,0.3109304,0.552833
388,1778472150,1.1370627,1.3581786,0.26992732,-0.36468655,0.3109304,0.552833
389,1778472150,1.1365746,1.411017,0.194391603,-0.13530665,0.266642675,0.2464841034999999
390,1778472150,1.1360865,1.4638554,0.118855886,0.09407325,0.22235495,-0.059864793
391,1778472150,1.206985125,1.477034475,0.08365062475,0.1023199299999999,0.2228130975,-0.21838431975
392,1778472150,1.27788375,1.49021355,0.0484453635,0.11056661,0.223271245,-0.3769038465
393,1778472150,1.2408842811302885,1.4423615700019967,0.0755441313544976,0.1176934443111825,0.2409661558602346,-0.6016231049624193
394,1778472150,1.2038848122605763,1.3945095900039937,0.1026428992089953,0.1248202786223651,0.2586610667204692,-0.8263423634248387
395,1778472150,1.1668862905651445,1.3466588350009985,0.1297409733439155,0.1319469304889246,0.276355524596784,-1.0510558691478764
396,1778472150,1.1298877688697118,1.2988080799980033,0.1568390474788356,0.1390735823554841,0.2940499824730987,-1.275769374870914
397,1778472150,1.0928883,1.2509561,0.1839378153333333,0.1462004166666666,0.3117448933333333,-1.5004886333333334
398,1778472150,1.2100942324389548,1.2001291690902784,0.1703734816787515,0.1692235434700288,0.3287475275198208,-1.7292877585913171
399,1778472150,1.3272971644444445,1.1493035393333333,0.1568094952666666,0.1922460808888889,0.3457497264444444,-1.9580810266666664
400,1778472150,1.4445000964499342,1.0984779095763884,0.1432455088545817,0.215268618307749,0.3627519253690681,-2.1868742947420157
401,1778472150,1.5617060288888889,1.0476509786666668,0.1296811752,0.2382917451111111,0.3797545595555556,-2.4156734199999996
402,1778472150,1.6789119613278436,0.9968240477569452,0.1161168415454182,0.2613148719144732,0.396757193742043,-2.6444725452579836
403,1778472150,1.7961148933333333,0.945998418,0.1025528551333333,0.2843374093333333,0.4137593926666666,-2.873265813333333
404,1778472150,1.913317825338823,0.895172788243055,0.0889888687212484,0.3073599467521934,0.4307615915912903,-3.102059081408682
405,1778472150,2.030523757777778,0.8443458573333334,0.0754245350666666,0.3303830735555556,0.4477642257777778,-3.330858206666666
406,1778472150,2.147729690216732,0.7935189264236118,0.0618602014120849,0.3534062003589177,0.4647668599642653,-3.55965733192465
407,1778472150,2.264932622222222,0.7426932966666667,0.0482962149999999,0.3764287377777778,0.4817690588888889,-3.7884506
408,1778472150,2.7110229260821335,0.2984402330953344,-0.249558292413504,-0.4058420679166293,0.7210215669731413,-4.76253068161536
409,1778472150,3.15712465,-0.1458242035,-0.5474204250000001,-1.1881329,0.9602802,-5.7366357
410,1778472150,2.2567973,-0.6033095,-0.114218794,-1.1881329,0.9602802,-5.7366357
411,1778472150,1.999777809891584,-0.6606012041568,0.0549107183645312,-0.984793732774656,0.7937451895504192,-5.5859066293568
412,1778472150,1.7427583197831682,-0.7178929083136,0.2240402307290624,-0.781454565549312,0.6272101791008384,-5.435177558713599
413,1778472150,1.485732249891584,-0.7751860791568,0.3931740728645312,-0.578110192774656,0.4606709053004191,-5.284444629356799
414,1778472150,1.22870618,-0.83247925,0.562307915,-0.37476582,0.2941316315,-5.133711699999999
415,1778472150,0.719175675,-0.892883455,0.6632255575,-0.1061378299999999,0.12324207225,-5.05185585
416,1778472150,0.20964517,-0.95328766,0.7641432,0.16249016,-0.047647487,-4.97
417,1778472150,-0.14301755,-1.0540832,0.4639528,1.8930714,-0.6536258,-4.298659
418,1778472150,-0.4595598,-1.1609803,0.0924977,1.8930714,-0.6536258,-4.298659
419,1778472150,-1.2454242,-1.3891739,-0.75291663,1.8930714,-0.6536258,-4.298659
420,1778472150,-1.42748856954624,-1.44225562054528,-0.902887895343232,1.72355841979392,-0.642019518562304,-2.62613123362944
421,1778472150,-1.6095576,-1.4953387,-1.052863,1.5540411,-0.63041294,-0.95356065
422,1778472150,-1.6095576,-1.4972912,-0.84004503,1.5540411,-0.63041294,-0.95356065
423,1778472150,-1.3908823,-1.50925,-0.55718267,0.98715824,-0.70921457,-0.31031954
424,1778472150,-1.2664131,-1.4941185,-0.30287504,-0.106901415,-0.8356637,1.2889256
425,1778472150,-1.1407236,-1.4743499,-0.061746486,-0.106901415,-0.8356637,1.2889256
426,1778472150,-0.94059665,-1.37318815,0.338385375,-0.17104226,-0.86254174,1.754405
427,1778472150,-0.8073832034359614,-1.2898432845519554,0.2892489334696681,0.0866388744261735,-0.8551096000884056,2.1274368667539916
428,1778472150,-0.6741697568719226,-1.2064984191039108,0.2401124919393362,0.3443200088523471,-0.8476774601768114,2.500468733507983
429,1778472150,-0.5409529,-1.12315142,0.1909747925,0.60200774,-0.84024513,2.87351015
430,1778472150,-0.3917093412758667,-1.0052290841512284,0.0217182030578477,0.7427127663350457,-0.7928004536212208,3.0523949195943234
431,1778472150,-0.2424696031379333,-0.8873097670756142,-0.1475340534710761,0.8834141906675228,-0.7453569918106104,3.2312751097971617
432,1778472150,-0.093229865,-0.76939045,-0.31678631,1.024115615,-0.69791353,3.4101553
433,1778472150,-0.0270903534999999,-0.6440670500000001,-0.36401136,0.96577793,-0.59803706,3.4263432
434,1778472150,0.0457370739433115,-0.608214678876419,-0.3475373323081157,0.7701768800708862,-0.5067728614665691,3.476190310427877
435,1778472150,0.1185626370283442,-0.5723632255617906,-0.3310637263459421,0.5745808374645569,-0.4155109992667155,3.5260361447860613
436,1778472150,0.1913882001133769,-0.5365117722471623,-0.3145901203837686,0.3789847948582276,-0.3242491370668619,3.5758819791442455
437,1778472150,0.2642156275566885,-0.5006594011235811,-0.2981160926918843,0.1833837449291138,-0.232984938533431,3.625729089572123
438,1778472150,0.337043055,-0.46480703,-0.281642065,-0.012217305,-0.14172074,3.6755762
439,1778472150,1.2036903274999995,-0.0215380526666666,-0.5546200991666667,-0.4251622225,-0.3072652133333333,4.398331566666666
440,1778472150,2.0703376,0.4217309246666667,-0.8275981333333333,-0.83810714,-0.4728096866666666,5.121086933333333
441,1778472150,2.7457661,0.7836678123333333,-0.8173477166666666,-1.25196832,-0.3497203433333333,5.062952966666667
442,1778472150,3.4211946,1.1456047,-0.8070973,-1.6658295,-0.226631,5.004819
443,1778472150,3.762081625,1.35939885,-0.5598673012500001,-1.91536795,-0.0788016135,4.66395615
444,1778472150,4.10296865,1.5731929999999998,-0.3126373025,-2.1649064,0.069027773,4.3230933
445,1778472150,4.417192,2.0576468,0.61624455,-2.3005185,0.17592919,3.8557813
446,1778472150,4.3088291129728,2.07229028743424,0.70642485429312,-1.95812416740864,0.140498553993664,3.15327735806464
447,1778472150,4.200469,2.0869334,0.79660285,-1.6157386,0.105068825,2.4507914
448,1778472150,3.82072088583808,2.01371726217856,0.7619471685984,-1.33779845767936,0.125990690946688,2.13070209719552
449,1778472150,3.44096305,1.94049925,0.7272906,-1.0598512,0.1469130925,1.8106046
450,1778472150,3.222501908733184,1.8757256214637223,0.6047072113971541,-0.930814446684032,0.2052820145848618,1.5246956438566486
451,1778472150,3.00404636,1.8109536511111108,0.4821269608888889,-0.8017809966666667,0.2636494424444444,1.238794006888889
452,1778472150,2.785590811266816,1.746181680758499,0.3595467103806236,-0.6727475466493014,0.322016870304027,0.9528923699211292
453,1778472150,2.56712967,1.681408052222222,0.2369633217777778,-0.5437107933333334,0.3803857923888888,0.6669834137777777
454,1778472150,2.348668528733184,1.616634423685945,0.1143799331749319,-0.4146740400173654,0.4387547144737507,0.3810744576344262
455,1778472150,2.13021298,1.5518624533333332,-0.0082003173333333,-0.2856405900000001,0.4971221423333333,0.0951728206666665
456,1778472150,1.9117574312668155,1.4870904829807217,-0.1307805678415985,-0.1566071399826347,0.5554895701929159,-0.1907288163010931
457,1778472150,1.6932962899999997,1.4223168544444444,-0.2533639564444444,-0.0275703866666668,0.6138584922777778,-0.4766377724444446
458,1778472150,1.4748351487331837,1.357543225908167,-0.3759473450472903,0.1014663666493011,0.6722274143626397,-0.762546728587796
459,1778472151,1.2563795999999998,1.2927712555555555,-0.4985275955555555,0.2304998166666666,0.7305948422222222,-1.0484483655555554
460,1778472151,1.0355612753476464,1.1923433843613112,-0.2809407172339602,0.0642794339752875,0.7733546767042985,-1.3032087790703255
461,1778472151,0.8147372976738232,1.0919129421806557,-0.06334826861698,-0.1019452040123562,0.8161156058521493,-1.557975714535163
462,1778472151,0.59391332,0.9914825,0.15424418,-0.268169842,0.858876535,-1.81274265
463,1778472151,0.70947437,0.87531132,0.086030185,0.426689385,1.02472645,-2.346028
464,1778472151,0.7658509133710081,0.7933701338606081,0.024467530512064,0.598493043385024,1.1217000837216,-2.61068191238656
465,1778472151,0.8222289,0.71142685,-0.0370967,0.7703011,1.2186762,-2.8753426
466,1778472151,0.854810947044864,0.65944200960256,-0.032703613769216,0.85826682594688,1.25899376605824,-3.02836635867904
467,1778472151,0.88739216,0.6074585,-0.02831064,0.9462303,1.2993103,-3.1813862
468,1778472151,0.9813542,0.56865335,-0.045882765,0.9462303,1.2993103,-3.1813862
469,1778472151,1.138039,0.5527897,-0.08395569,1.0189233,1.3432927,-3.2724051
470,1778472151,1.199786520477527,0.5478271153063053,-0.1092567251321392,1.0189233,1.3432927,-3.2724051
471,1778472151,1.2615324602387636,0.5428646576531526,-0.1345571125660696,1.0189233,1.3432927,-3.2724051
472,1778472151,1.3232784,0.5379022,-0.1598575,1.0189233,1.3432927,-3.2724051
473,1778472151,1.249023975,0.2924415999999999,-0.2554669224999999,1.080467875,1.467909175,-4.390899525
474,1778472151,1.2153538148608,0.2530834747224447,-0.2653615376216746,1.1197249705399468,1.288991245713152,-4.403999349620054
475,1778472151,1.1816845166666667,0.2137263569999999,-0.2752558994444444,1.158981061111111,1.110077896666667,-4.417098838888889
476,1778472151,1.1480152184725334,0.1743692392775551,-0.2851502612672142,1.1982371516822756,0.9311645476201812,-4.430198328157725
477,1778472151,1.1143450583333334,0.1350111139999999,-0.2950448763888889,1.2374942472222223,0.7522466183333333,-4.4432981527777775
478,1778472151,1.0806748981941334,0.0956529887224447,-0.3049394915105635,1.2767513427621688,0.5733286890464853,-4.456397977397831
479,1778472151,1.0470056,0.056295871,-0.3148338533333333,1.3160074333333334,0.3944153399999999,-4.469497466666667
480,1778472151,0.8847075,-0.08395569,-0.6936107,1.382388,-0.032986723,-4.2540655
481,1778472151,0.7004969525345599,-0.1401706908063112,-0.6951564109676759,0.7206116906922211,-0.2121753866125797,-3.565207288485169
482,1778472151,0.5162864050691197,-0.1963856916126224,-0.6967021219353519,0.0588353813844421,-0.3913640502251595,-2.876349076970338
483,1778472151,0.3320805733333333,-0.2525992533333333,-0.6982477933333334,-0.6029239866666667,-0.5705481266666667,-2.1875085
484,1778472151,-0.09689073,-0.35510328,-0.2630937,-1.1600331,-0.45204028,-1.5509869
485,1778472151,-0.1342315,-0.40562314,-0.0134231495,-1.6303993,-0.42821655,-0.3182608
486,1778472151,-0.25674823,-0.5532778,0.4036707,-1.6303993,-0.42821655,-0.3182608
487,1778472151,-0.34045988,-0.5935472,0.5344854,-1.1691961,-0.43982297,1.1435398
488,1778472151,-0.34338856,-0.5945235,0.5613316,-1.1691961,-0.43982297,1.1435398
489,1778472151,-0.21232979,-0.6372335,0.35168648,-0.14538592,-0.5320636,2.4642303
490,1778472151,-0.1853001766203017,-0.63747754999904,0.2664974289252828,-0.1309693553762678,-0.4888139051287932,2.6594648291759895
491,1778472151,-0.1582712551898491,-0.63772159375048,0.1813105586623586,-0.116553159811866,-0.4455653174356033,2.8546943604120054
492,1778472151,-0.1312423337593964,-0.63796563750192,0.0961236883994345,-0.1021369642474643,-0.4023167297424134,3.049923891648022
493,1778472151,-0.1042127203796982,-0.63820968750096,0.0109346373247172,-0.0877203996237321,-0.3590670348712067,3.2451584208240103
494,1778472151,-0.077183107,-0.6384537375,-0.07425441375,-0.073303835,-0.31581734,3.4403929499999997
495,1778472151,0.0382239881140239,-0.61949378956544,-0.0957311760314239,-0.232508552153536,-0.2202945077079039,3.73665883274816
496,1778472151,0.1536310832280479,-0.60053384163088,-0.117207938312848,-0.391713269307072,-0.124771675415808,4.0329247154963195
497,1778472151,0.269041132801524,-0.5815734083154399,-0.138685250406424,-0.550922062153536,-0.0292463977079039,4.32919818274816
498,1778472151,0.384451182375,-0.562612975,-0.1601625625,-0.7101308550000001,0.06627888,4.62547165
499,1778472151,0.5896728261875,-0.4242020024999999,-0.1456106525,-0.8116871925000001,-0.0193949725,4.632802025
500,1778472151,0.79489447,-0.28579103,-0.1310587425,-0.91324353,-0.105068825,4.6401324
501,1778472151,0.779274785,-0.234905095,-0.07614586175,-0.8252789349999999,-0.3417790924999999,4.3759331999999995
502,1778472151,0.7636551,-0.18401916,-0.021232981,-0.73731434,-0.57848936,4.111734
503,1778472151,0.7988059600505858,-0.1481605446112074,-0.0350952909624147,-0.677389074042578,-0.6134915832869313,4.0838351956874135
504,1778472151,0.8339568201011714,-0.1123019292224148,-0.0489576009248294,-0.617463808085156,-0.6484938065738627,4.055936391374826
505,1778472151,0.8691085800252929,-0.076442395841318,-0.0628202657669216,-0.557537008021289,-0.68349692592918,4.028036872843707
506,1778472151,0.9042603399494142,-0.0405828624602211,-0.0766829306090138,-0.4976102079574219,-0.7185000452844972,4.000137354312587
507,1778472151,0.9394112,-0.0047242470714285,-0.0905452405714285,-0.4376849419999999,-0.7535022685714285,3.97223855
508,1778472151,0.9745620600505858,0.031134368317364,-0.1044075505338432,-0.377759676042578,-0.7885044918583599,3.944339745687413
509,1778472151,1.009713819974707,0.0669939016984608,-0.1182702153759354,-0.3178328759787109,-0.8235076112136771,3.9164402271562935
510,1778472151,1.0448655798988284,0.1028534350795576,-0.1321328802180277,-0.2579060759148439,-0.8585107305689944,3.888540708625174
511,1778472151,1.0800164399494143,0.1387120504683502,-0.1459951901804424,-0.1979808099574219,-0.8935129538559258,3.860641904312587
512,1778472151,1.1151673,0.1745706658571428,-0.1598575001428571,-0.138055544,-0.9285151771428573,3.8327431
513,1778472151,2.4103093,1.065554,-0.32093528,-0.40500367,-0.9804387,2.92299
514,1778472151,2.23532035,1.31437035,-0.22062774,-0.65301496,-0.70554936,2.0042489
515,1778472151,2.5256874,1.4948507,-0.19664912,-0.656221995,-0.789696045,1.982410475
516,1778472151,2.81605445,1.67533105,-0.1726705,-0.6594290300000001,-0.87384273,1.96057205
517,1778472151,2.9029153294440206,1.7168212048537477,-0.1700102497593862,-0.6643770846674313,-0.910433938689181,1.91506211398422
518,1778472151,2.9897762088880415,1.758311359707495,-0.1673499995187724,-0.6693251393348625,-0.947025147378362,1.8695521779684403
519,1778472151,3.0766348647220103,1.7998004524268738,-0.1646898173796931,-0.6742730673337156,-0.9836154193445904,1.82404340699211
520,1778472151,3.1634935205559795,1.8412895451462523,-0.1620296352406137,-0.6792209953325687,-1.020205691310819,1.77853463601578
521,1778472151,3.2503544,1.8827797,-0.159369385,-0.68416905,-1.0567969,1.7330247
522,1778472151,3.1903155690128,1.82069683034944,-0.0400238615218528,-0.8060382474057599,-0.2716722867835841,0.3048798287296319
523,1778472151,3.130278275,1.75861555,0.07931860675,-0.927904325,0.5134322275,-1.1232284825
524,1778472151,1.9475769,1.2141849,0.19451363,-0.8038987,0.89552844,-1.8301523
525,1778472151,1.794917780658856,1.141617897436171,0.029407494445677,-0.447863021867768,0.7299825440264361,-2.032044972795423
526,1778472151,1.642258661317712,1.0690508948723418,-0.1356986411086459,-0.091827343735536,0.5644366480528723,-2.2339376455908457
527,1778472151,1.4896034500000002,0.99648575,-0.30080055,0.26419922,0.3988949899999999,-2.4358251500000003
528,1778472151,1.42645443331776,0.9512137044896,-0.40104579184448,-0.0939159460671999,0.3643815567776,-2.5007287442233603
529,1778472151,1.3633038,0.9059405,-0.5012936,-0.45204028,0.32986724,-2.565634
530,1778472151,1.3257590092437728,0.8666059370320514,-0.3476569376345243,-0.7315159063229709,0.5391939657970595,-2.6017775001745074
531,1778472151,1.2882151796218866,0.8272723810160257,-0.1940242083172621,-1.0109843781614851,0.7485153328985298,-2.6379200750872536
532,1778472151,1.2506713500000002,0.787938825,-0.040391479,-1.29045285,0.9578367,-2.67406265
533,1778472151,1.2910628,0.7665838,0.17279254,-1.3219124,1.0403035,-2.688418
534,1778472151,1.3122959,0.66847277,0.39634898,-1.2663237,1.2400564,-2.7849348
535,1778472151,1.239608103610469,0.5904971570670808,0.4196155697892258,-1.0103733341377457,1.3085745486376477,-2.977253842189833
536,1778472151,1.1669203072209375,0.5125215441341616,0.4428821595784515,-0.7544229682754914,1.377092697275295,-3.1695728843796664
537,1778472151,1.09423065,0.434543935,0.466149345,-0.49846605,1.4456126,-3.36189685
538,1778472151,1.09203415,0.18926639,0.283472495,0.48930306,1.45538645,-3.8255435
539,1778472151,1.116961673393522,0.115649861869081,0.2284041586447075,0.687934382768794,1.4497699340393275,-3.959542450972094
540,1778472151,1.141889196787044,0.042033333738162,0.1733358222894149,0.8865657055375882,1.4441534180786548,-4.0935414019441865
541,1778472151,1.1668173583333334,-0.0315850789999999,0.1182660761666666,1.0852021133333334,1.4385367583333333,-4.227543783333334
542,1778472151,1.1917455198796223,-0.105203491738162,0.0631963300439184,1.2838385211290788,1.4329200985880115,-4.361546164722481
543,1778472151,1.2166730432731447,-0.178820019869081,0.0081279936886258,1.482469843897873,1.427303582627339,-4.495545115694574
544,1778472151,1.2416005666666667,-0.252436548,-0.0469403426666666,1.6811011666666669,1.4216870666666666,-4.629544066666667
545,1778472151,1.049242783333333,-0.406640024,-0.1716129213333333,1.9220874833333332,1.5868242833333333,-4.892928733333334
546,1778472151,0.856885,-0.5608435,-0.2962855,2.1630738,1.7519615,-5.1563134
547,1778472151,0.73461235,-0.57402265,-0.39927766,2.1630738,1.7519615,-5.1563134
548,1778472151,0.67555046,-0.5615757,-0.48103684,1.863139,1.9168952,-4.587598
549,1778472151,0.6452874,-0.5339973,-0.54790854,1.6597209,1.9920316,-4.301713
550,1778472151,0.6147802,-0.47395915,-0.6067263,1.6597209,1.9920316,-4.301713
551,1778472151,0.5092864500000001,-0.42032758,-0.637904625,1.258077,1.9098702,-3.8817432
552,1778472151,0.4037927,-0.36669601,-0.66908295,0.8564331,1.8277088,-3.4617734
553,1778472151,0.18597162,-0.31434575,-0.61624455,0.23762658,1.5063937,-2.8887818
554,1778472151,-0.21672285,-0.3184947,-0.5876899,0.23762658,1.5063937,-2.8887818
555,1778472151,-0.2627620315527463,-0.3393160567865774,-0.5329797930958086,0.0785414467669019,1.337787895688393,-2.4462057320369457
556,1778472151,-0.3088012131054927,-0.3601374135731547,-0.4782696861916172,-0.0805436864661962,1.1691820913767863,-2.003629664073892
557,1778472151,-0.3548415732763731,-0.3809593033932887,-0.4235581786907614,-0.2396328923308347,1.0005719707013394,-1.561042266018473
558,1778472151,-0.4008819334472536,-0.4017811932134226,-0.3688466711899056,-0.3987220981954733,0.8319618500258926,-1.118454867963054
559,1778472152,-0.4469211149999999,-0.42260255,-0.3141365642857143,-0.5578072314285714,0.6633560457142857,-0.6758788000000001
560,1778472152,-0.4929602965527463,-0.4434239067865774,-0.2594264573815229,-0.7168923646616695,0.4947502414026788,-0.2333027320369461
561,1778472152,-0.5390006567236267,-0.4642457966067113,-0.2047149498806671,-0.8759815705263081,0.326140120727232,0.2092846660184728
562,1778472152,-0.5850410168945072,-0.4850676864268453,-0.1500034423798114,-1.0350707763909466,0.1575300000517852,0.6518720640738918
563,1778472152,-0.6310801984472535,-0.5058890432134227,-0.09529333547562,-1.1941559096240448,-0.0110758042598216,1.0944481320369457
564,1778472152,-0.6771193799999999,-0.5267104,-0.0405832285714285,-1.3532410428571429,-0.1796816085714285,1.5370242
565,1778472152,-0.1010397,-0.6574902,0.1666911,-1.0708468,-1.0818423,3.9113703
566,1778472152,-0.0021965152,-0.73461235,0.15570852,-1.0708468,-1.0818423,3.9113703
567,1778472152,0.05735345,-0.76121455,0.15107143,-0.81489426,-1.0616838,4.2491784
568,1778472152,0.09225364,-0.79660285,0.13691612,-0.81489426,-1.0616838,4.2491784
569,1778472152,0.17938207,-0.8537123,0.08932495,-0.30543262,-1.0134255,5.045136
570,1778472152,0.297873381669376,-0.8261334469952,0.0303843715702528,-0.30543262,-1.0134255,5.045136
571,1778472152,0.41636166,-0.7985553,-0.028554698,-0.30543262,-1.0134255,5.045136
572,1778472152,0.87958235,-0.6028214,-0.19256116,-0.23579398,-0.82711154,5.712201
573,1778472152,1.0850785749999998,-0.4744472899999999,-0.262483555,-0.23579398,-0.82711154,5.712201
574,1778472152,1.2905748,-0.34607318,-0.33240595,-0.23579398,-0.82711154,5.712201
575,1778472152,1.3657444,-0.24478942,-0.328257,-0.68111473,-0.7305948,5.0353622
576,1778472152,1.40473200095232,-0.1120239751694464,-0.23954332929952,-0.793359785744896,-0.768162559126528,4.63280725276928
577,1778472152,1.4437205999999998,0.0207448685,-0.1508273875,-0.905607715,-0.80573128,4.230242
578,1778472152,1.4597064,0.15546446,-0.051496077,-0.89980453,-0.8533788,4.10868
579,1778472152,1.4567777,0.25430766,-0.0017084008,-0.81061816,-1.0323622,3.8643336
580,1778472152,1.51022556585856,0.3009219933288959,0.0130568736020684,-0.764498435340032,-1.09344796809216,3.8301255378688
581,1778472152,1.5636748,0.34753752,0.027822526,-0.71837753,-1.1545353,3.7959166
582,1778472152,2.3962760000000003,0.80416865,0.092131607,-0.1979203275,-1.7797559,3.7870591
583,1778472152,2.9396696,1.1202227,0.11251039,0.043982297,-1.9101756,3.3102787
584,1778472152,3.3142974,1.3242546,0.035632357,0.043982297,-1.9101756,3.3102787
585,1778472152,3.0593797,1.2571389,-0.0626006865,0.0842994035,-1.73241385,2.7394252
586,1778472152,2.804462,1.1900232,-0.16083373,0.12461651,-1.5546521,2.1685717
587,1778472152,2.49036,1.1033828,-0.21379416,-0.09773844,-0.8539896,0.83016586
588,1778472152,2.196027,1.027481,-0.23893206,-0.26939157,-0.6420194,0.5540548
589,1778472152,2.123542,1.0011228,-0.24698594,-0.70066243,-0.84116143,0.7452556
590,1778472152,2.1794859948435272,1.025027127530201,-0.2171563807630257,-0.7046670369518336,-0.8903366425530346,0.7291183913967767
591,1778472152,2.235428557539118,1.0489308431174498,-0.1873275851529935,-0.7086715413870416,-0.9395105962367414,0.7129815959008059
592,1778472152,2.291371120234709,1.0728345587046988,-0.1574987895429613,-0.7126760458222494,-0.988684549920448,0.696844800404835
593,1778472152,2.3473151150782363,1.0967388862348997,-0.1276692303059871,-0.7166806527740831,-1.0378597624734829,0.6807075918016117
594,1778472152,2.4032591099217635,1.1206432137651003,-0.0978396710690128,-0.7206852597259168,-1.0870349750265174,0.6645703831983883
595,1778472152,2.4592016726173545,1.1445469293523494,-0.0680108754589806,-0.7246897641611247,-1.136208928710224,0.6484335877024175
596,1778472152,2.515144235312945,1.1684506449395982,-0.0381820798489484,-0.7286942685963326,-1.1853828823939307,0.6322967922064466
597,1778472152,2.5710882301564726,1.192354972469799,-0.0083525206119742,-0.7326988755481663,-1.2345580949469654,0.6161595836032233
598,1778472152,2.627032225,1.2162593,0.021477038625,-0.7367034825,-1.2837333075,0.600022375
599,1778472152,2.363511375,1.2348686,0.20970619,-0.7370089075,-0.1305724425,-0.54183747
600,1778472152,1.9523359,1.13877115,0.1132425629999999,-0.70371675,0.49846604,-0.8350528
601,1778472152,1.8445236,1.114060325,0.0919485687499999,-0.4972443039999999,0.649655195,-1.180955275
602,1778472152,1.7367113,1.0893495,0.0706545745,-0.290771858,0.80084435,-1.52685775
603,1778472152,1.5397571,1.0116783,0.10256505725,-0.073914694,0.84116145,-1.981188725
604,1778472152,1.3428029,0.9340071,0.13447554,0.14294247,0.88147855,-2.4355197
605,1778472152,1.198077,0.8710403,0.1415532,0.14294247,0.88147855,-2.4355197
606,1778472152,1.1975611427968498,0.8600409316380586,0.1336378694973451,0.1840792664573689,0.8832278676083405,-2.47322726970987
607,1778472152,1.197045298799475,0.8490418448563432,0.1257227416245575,0.2252150098262281,0.8849771404347234,-2.5109338741183116
608,1778472152,1.1965294548021002,0.8380427580746276,0.1178076137517698,0.2663507531950873,0.8867264132611063,-2.548640478526753
609,1778472152,1.19601359759895,0.8270433897126862,0.109892283249115,0.3074875496524563,0.8884757308694469,-2.5863480482366232
610,1778472152,1.1954977403957998,0.8160440213507448,0.1019769527464602,0.3486243461098253,0.8902250484777873,-2.6240556179464933
611,1778472152,1.194981896398425,0.8050449345690294,0.0940618248736725,0.3897600894786844,0.8919743213041702,-2.661762222354935
612,1778472152,1.1944660524010502,0.7940458477873138,0.0861466970008849,0.4308958328475437,0.8937235941305531,-2.6994688267633764
613,1778472152,1.1939501951979,0.7830464794253724,0.0782313664982301,0.4720326293049126,0.8954729117388937,-2.7371763964732465
614,1778472152,1.1934343379947496,0.772047111063431,0.0703160359955752,0.5131694257622816,0.8972222293472342,-2.7748839661831166
615,1778472152,1.192918493997375,0.7610480242817156,0.0624009081227876,0.5543051691311408,0.8989715021736171,-2.812590570591558
616,1778472152,1.19240265,0.7500489375,0.05448578025,0.5954409125,0.900720775,-2.8502971749999997
617,1778472152,1.064626494,0.0763899243999999,-0.0102015942,1.40474572,0.9250943,-4.27923332
618,1778472152,0.8953239850000001,-0.34753752,-0.22526484,1.8051068,0.88025682,-5.0686544
619,1778472152,0.8033560257639573,-0.390686394149873,-0.2497842069184689,1.7496000750628051,0.8817228769873844,-5.069122688537997
620,1778472152,0.7113880665279144,-0.433835268299746,-0.2743035738369378,1.6940933501256108,0.8831889339747686,-5.069590977075994
621,1778472152,0.6194177528819786,-0.4769852470749365,-0.2988235684592344,1.6385852041980693,0.8846550284936922,-5.070059277602332
622,1778472152,0.5274474392360429,-0.5201352258501271,-0.3233435630815311,1.5830770582705278,0.8861211230126157,-5.070527578128669
623,1778472152,0.43547948,-0.5632841000000001,-0.34786293,1.5275703333333333,0.88758718,-5.070995866666666
624,1778472152,0.04759116,-0.7158199,-0.30555966,1.1178834,0.6151413,-4.6218066
625,1778472152,-0.09469421,-0.73778504,-0.26162934,0.9034697,0.18448131,-4.05248
626,1778472152,-0.33142975,-0.7294871,-0.24259292,0.7965683,-0.12705997,-3.5442402
627,1778472152,-0.43661842,-0.72021294,-0.25796852,0.5180137,-0.7819075,-1.8112154
628,1778472152,-0.5008055,-0.70215267,-0.26919514,0.37751472,-0.9211848,-1.2247849
629,1778472152,-0.630399865,-0.723080595,-0.3164812349999999,0.16768251,-1.0296134,-0.5265658799999999
630,1778472152,-0.75999423,-0.74400852,-0.36376733,-0.0421497,-1.138042,0.17165314
631,1778472152,-0.7107557025,-0.733453035,-0.406050245,-0.16187929,-1.17713735,0.5204572000000001
632,1778472152,-0.661517175,-0.72289755,-0.44833316,-0.28160888,-1.2162327,0.86926126
633,1778472152,-0.2860351,-0.6970275,-0.4131889,-1.0005972,-1.3500122,2.5576928
634,1778472152,0.10128376,-0.7067898,-0.31678632,-1.3561208,-1.2528846,3.154508
635,1778472152,0.172060365,-0.7327819,-0.1736467385,-2.11664805,-0.744644725,3.832263
636,1778472152,0.24283697,-0.758774,-0.030507157,-2.8771753,-0.23640485,4.510018
637,1778472152,0.25796852,-0.7963588,0.14985114,-2.8771753,-0.23640485,4.510018
638,1778472152,0.26626647,-0.81490713,0.32679266,-3.0592132,-0.0061086523,4.910135
639,1778472152,0.36950266,-0.7721971,0.584029,-2.5961773,-0.19608775,5.318804
640,1778472152,0.4742032,-0.7473033,0.65993077,-2.2339342,-0.35369098,5.4880133
641,1778472152,0.75218445,-0.65065664,0.6892177,-1.2382239,-0.6469063,5.7519073
642,1778472152,0.9354714,-0.53765815,0.6211257,-1.2382239,-0.6469063,5.7519073
643,1778472152,1.0692758,-0.4139821199999999,0.5064187825,-1.02075585,-0.682641915,5.7665679
644,1778472152,1.2030802,-0.2903060899999999,0.391711865,-0.8032878,-0.71837753,5.7812285
645,1778472152,1.1807080924271256,-0.1934145380360062,0.271838063296652,-0.3521599637584052,-0.7576768620166741,5.444435326068368
646,1778472152,1.1583359848542512,-0.0965229860720124,0.151964261593304,0.0989678724831894,-0.7969761940333482,5.107642152136737
647,1778472152,1.13596445,0.0003660855,0.03209352862,0.5500841599999999,-0.83627452,4.770857599999999
648,1778472152,1.08593336540608,0.0478346108950976,-0.0273946642313848,0.8118365545264641,-0.948366850199808,4.4790203855641595
649,1778472152,1.035901,0.0953043515,-0.08688438,1.07359565,-1.06046205,4.1871757
650,1778472152,1.2315162384573373,0.2425954064018278,-0.2041558947415669,1.0989469993241572,-1.0409140330514477,4.138000294083815
651,1778472152,1.4271264692286687,0.3898826907009139,-0.3214244073707835,1.1242976996620786,-1.0213665165257235,4.088826147041908
652,1778472152,1.6227367,0.537169975,-0.43869292,1.1496484,-1.001819,4.039652
653,1778472152,1.7810688,0.6611510749999999,-0.47524049,0.8416195975,-0.8970556175000001,3.651294375
654,1778472152,1.9394009,0.785132175,-0.51178806,0.5335907950000001,-0.792292235,3.2629367499999997
655,1778472152,2.0654564,0.9096014,-0.48738232,0.31215215,-0.752586,2.9523118
656,1778472152,2.00676065,0.99258082,-0.194391595,0.127059975,-0.709825425,2.37290605
657,1778472152,1.984734525,0.97903566,-0.1616269075,0.062308257,-0.7425066975,1.876119875
658,1778472152,1.9627084,0.9654905,-0.12886222,-0.002443461,-0.77518797,1.3793337
659,1778472153,1.9722266,0.9637821,-0.13105874,-0.002443461,-0.77518797,1.3793337
660,1778472153,2.073506006107008,0.995762341897664,-0.1449606734279744,-0.0392705286200006,-0.7875349287069056,1.3258302296031872
661,1778472153,2.174788005,1.0277434025,-0.15886296275,-0.076098539025,-0.7998822034999999,1.2723253895000002
662,1778472153,2.276070003892992,1.059724463102336,-0.1727652520720256,-0.1129265494299993,-0.8122294782930943,1.218820549396813
663,1778472153,2.37734941,1.091704705,-0.1866671855,-0.14975361705,-0.8245764369999999,1.165317079
664,1778472153,2.478628816107008,1.123684946897664,-0.2005691189279744,-0.1865806846700006,-0.8369233957069055,1.1118136086031871
665,1778472153,2.579910815,1.1556660075,-0.21447140825,-0.223408695075,-0.8492706704999999,1.0583087685
666,1778472153,2.681192813892992,1.187647068102336,-0.2283736975720256,-0.2602367054799994,-0.8616179452930943,1.0048039283968129
667,1778472153,2.78247222,1.21962731,-0.242275631,-0.2970637731,-0.8739649039999999,0.951300458
668,1778472153,2.8837516261070077,1.251607551897664,-0.2561775644279744,-0.3338908407200006,-0.8863118627069055,0.8977969876031873
669,1778472153,2.985033625,1.2835886125,-0.27007985375,-0.3707188511249999,-0.8986591374999999,0.8442921475
670,1778472153,2.7733264776832,1.16480746087072,-0.0235026082266559,-0.7772930471455969,0.06548944719392,-0.2869302557114238
671,1778472153,2.56162475,1.04602935,0.223068325,-1.183856835,1.02961335,-1.4181237
672,1778472153,2.2397133,0.9261973,-0.04466247625,-0.487775898,0.74556102,-1.89918005
673,1778472153,2.0002932,0.8273540999999999,-0.140698998125,-0.304974474,0.77381356,-2.331367175
674,1778472153,1.7608731,0.7285109,-0.23673552,-0.12217305,0.8020661,-2.7635543
675,1778472153,1.70315355,0.6756724999999999,-0.24076247,-0.16615535,0.847880965,-2.82586265
676,1778472153,1.645434,0.6228341,-0.24478942,-0.21013765,0.89369583,-2.888171
677,1778472153,1.6002834,0.571338,-0.20988922,-0.38423425,1.0592403,-3.1710014
678,1778472153,1.4659299,0.436008275,-0.0530824455,-0.4196644,1.1203269,-3.4617734
679,1778472153,1.4354094271113689,0.3694218904333103,-0.0053967817006508,-0.2581937379006204,1.101593826524273,-3.629963509203808
680,1778472153,1.404888954222738,0.3028355058666206,0.0422888820986983,-0.0967230758012407,1.0828607530485463,-3.798153618407616
681,1778472153,1.3743677,0.2362474166666666,0.0899757666666666,0.06475172,1.0641272,-3.966348033333333
682,1778472153,1.34326018932896,0.144633255353745,0.0940231030552426,0.295661735610368,1.11162260793344,-4.183513454681813
683,1778472153,1.312153475,0.0530214393333333,0.0980703358333333,0.52656584,1.1591167999999998,-4.4006733166666665
684,1778472153,1.2810467606710398,-0.0385903766870784,0.102117568611424,0.757469944389632,1.20661099206656,-4.617833178651519
685,1778472153,1.24993925,-0.1302045379999999,0.106164905,0.98837996,1.2541064,-4.8349986
686,1778472153,1.1917315,-0.37413976,-0.097988984,1.21256753,1.2321152,-5.03169705
687,1778472153,1.1447102179200763,-0.4506917300814937,-0.150176113997457,1.3877825414794305,1.1479183184892523,-5.245905305399489
688,1778472153,1.097688935840153,-0.5272437001629875,-0.2023632439949141,1.5629975529588604,1.0637214369785044,-5.4601135607989795
689,1778472153,1.05066645,-0.6037976300000001,-0.25455171,1.7382170499999998,0.9795224,-5.6743273
690,1778472153,0.8053889,-0.81783587,-0.36364532,1.8551978,0.7165449,-6.076277
691,1778472153,0.47225076,-0.839801,-0.3802412,1.8551978,0.7165449,-6.076277
692,1778472153,0.36413342,-0.86933196,-0.40684342,1.7935003,0.4746423,-6.0048056
693,1778472153,0.1402108935,-0.91765525,-0.45638705,1.5583172,0.41233405,-5.680436
694,1778472153,-0.0034192489230545,-0.9141570402979852,-0.4563056986116207,1.299102309455827,0.5078342631827762,-5.368482109388413
695,1778472153,-0.1470457144615272,-0.9106589201489926,-0.4562243493058104,1.0398940547279134,0.603332031591388,-5.056536204694207
696,1778472153,-0.29067218,-0.9071608,-0.456143,0.7806858,0.6988298,-4.7445903
697,1778472153,-0.7748818,-0.90130347,-0.41758195,0.5381723,0.35185838,-3.8918226
698,1778472153,-1.01735580362752,-0.884707322572032,-0.392321711673088,0.502130773674368,0.065664346763264,-3.33256829163648
699,1778472153,-1.2598236,-0.8681116,-0.36706212,0.46609017,-0.22052236,-2.7733283
700,1778472153,-1.4235859,-0.8639627,-0.34656128,0.46609017,-0.22052236,-2.7733283
701,1778472153,-1.53066605,-0.8876972575000001,-0.3167862999999999,0.436463205,-0.4205807299999999,-2.3069326500000003
702,1778472153,-1.6377462,-0.911431815,-0.2870113199999999,0.40683624,-0.6206391,-1.840537
703,1778472153,-1.288622315,-0.89434775,-0.17352471,0.2031126999999999,-1.5848898500000002,1.6566665
704,1778472153,-0.774034169312576,-0.84840458808,-0.204763630136704,0.1837179732556799,-1.84129729294272,3.2238211901632
705,1778472153,-0.25943285,-0.80246025,-0.23600335,0.16432275,-2.0977113,4.791016
706,1778472153,0.1732861887327999,-0.721310168792256,-0.341559456100864,-0.1722683083103999,-1.97523118227456,5.65326333662464
707,1778472153,0.60599415,-0.640162165,-0.44711286,-0.50885075,-1.8527542,6.5154886
708,1778472153,1.39966835,-0.49165334,-0.467491665,-0.726318775,-1.7482962999999998,6.5035768
709,1778472153,1.36840827904288,-0.504293629293632,-0.3157979720955839,-1.14889019009488,-1.4646984849944318,6.34849136493184
710,1778472153,1.33714820808576,-0.516933918587264,-0.1641042791911679,-1.57146160518976,-1.181100669988864,6.1934059298636805
711,1778472153,1.3058889373762133,-0.529573884293632,-0.0124144695955839,-1.99402220259488,-0.8975101149944319,6.03832446493184
712,1778472153,1.2746296666666663,-0.54221385,0.13927534,-2.4165828,-0.61391956,5.883243
713,1778472153,1.2849536294992885,-0.5040512239385679,0.1649920355812134,-2.279450490870143,-0.5663139519997931,5.880010485443861
714,1778472153,1.29527759233191,-0.4658885978771358,0.1907087311624268,-2.1423181817402854,-0.5187083439995861,5.876777970887722
715,1778472153,1.3056012908744663,-0.4277269487664259,0.21642476840466,-2.005189383152607,-0.4711039546873448,5.873545539082896
716,1778472153,1.3159249894170224,-0.389565299655716,0.2421408056468933,-1.8680605845649283,-0.4234995653751034,5.870313107278069
717,1778472153,1.326248952249644,-0.3514026735942839,0.2678575012281067,-1.7309282754350714,-0.3758939573748965,5.867080592721931
718,1778472153,1.3365729150822658,-0.3132400475328518,0.29357419680932,-1.593795966305214,-0.3282883493746896,5.863848078165791
719,1778472153,1.3468966136248222,-0.2750783984221419,0.3192902340515533,-1.4566671677175356,-0.2806839600624482,5.860615646360965
720,1778472153,1.3572203121673785,-0.236916749311432,0.3450062712937866,-1.3195383691298572,-0.2330795707502069,5.8573832145561395
721,1778472153,1.367544275,-0.19875412325,0.370722966875,-1.18240606,-0.18547396275,5.8541507
722,1778472153,1.120955,0.40220633,0.24649782,0.07452556,-0.548557,3.5240817
723,1778472153,1.28300895,0.52777379,0.136061915,0.355829,-0.542142925,3.67313265
724,1778472153,1.44908774916416,0.615572251165312,0.100246970937152,0.414624027414016,-0.53130020128864,3.69451270133184
725,1778472153,1.6151708,0.70337296,0.06443111,0.47342056,-0.5204572,3.7158933
726,1778472153,1.8848541,0.8459024,0.014887493,0.47342056,-0.5204572,3.7158933
727,1778472153,2.169913,1.0291895,-0.09396204,0.65118235,-0.5198463,3.3224962
728,1778472153,2.1221192823565556,1.0459477973213982,-0.1391525354056729,0.7176637237033655,-0.5876511927816841,2.821595215486227
729,1778472153,2.074324341178278,1.0627065236606992,-0.1843441877028364,0.7841467993516827,-0.6554578213908421,2.3206814077431135
730,1778472153,2.0265294000000003,1.0794652500000002,-0.22953584,0.850629875,-0.7232644500000001,1.8197676
731,1778472153,1.9496513,1.069825,-0.308976465,0.7915286374999999,-0.929431475,1.3432927
732,1778472153,1.8727732,1.06018475,-0.38841709,0.7324274,-1.1355985,0.8668178
733,1778472153,2.092060554561474,1.1209555185705873,-0.5072739908992389,0.4304537798580912,-1.1160506331936717,0.9912317283185992
734,1778472153,2.3113479091229476,1.181726287141175,-0.6261308917984776,0.1284801597161825,-1.0965027663873432,1.1156456566371984
735,1778472153,2.53062965,1.2424955,-0.74498475,-0.17348573,-1.0769554,1.2400564
736,1778472153,2.9713972,1.3496367,-0.7053254,-1.1545353,-0.5699373,1.2412782
737,1778472153,3.1878757,1.3967396,-0.59794027,-1.572978,-0.2180789,1.0384709
738,1778472153,3.3330898,1.4355447,-0.42441553,-2.0335703,0.344528,0.56688297
739,1778472153,3.2380905,1.390455125,-0.1582711144999999,-2.2036964,0.72692965,0.1114829199999999
740,1778472153,3.1430912,1.34536555,0.107873301,-2.3738225,1.1093313,-0.34391713
741,1778472153,2.8483922,1.2371262,0.44564855,-1.9657644,1.5033394,-1.3078625
742,1778472153,2.459609,1.0865428,0.61209553,-0.70738196,1.1612549,-2.0525072
743,1778472153,2.084737,0.9498709,0.39244407,0.66339964,0.46975538,-2.574797
744,1778472153,1.98821359801536,0.89489768491616,0.2462861515953023,0.8323017430254079,0.364077043950016,-2.6688690458624
745,1778472153,1.891687725,0.8399230624999999,0.1001244914999999,1.00120817,0.2583960025,-2.7629435
746,1778472153,1.79516185198464,0.78494844008384,-0.0460371685953024,1.170114596974592,0.152714961049984,-2.8570179541376
747,1778472153,1.69863845,0.729975225,-0.192195087,1.3390167,0.047036625,-2.95109
748,1778472153,1.3835605,0.53082454,-0.5518134,1.3377949,-0.004276057,-3.259577
749,1778472153,1.30656045,0.46224445,-0.51605905,0.72692965,0.3817907715,-3.4144313000000004
750,1778472153,1.2295604,0.39366436,-0.4803047,0.1160644,0.7678576,-3.5692856
751,1778472153,1.11485355,0.28737741,-0.32593847,-0.19425514,1.0451905,-3.6786306
752,1778472153,1.0490812291953102,0.2271776482557514,-0.2174568689430231,-0.2588021350505171,1.1488321644929511,-3.7344219811482406
753,1778472153,0.9833072245976552,0.1669763453778757,-0.1089724907215116,-0.3233507825252585,1.2524764822464758,-3.79021479057412
754,1778472153,0.91753322,0.1067750425,-0.0004881124999999,-0.38789943,1.3561208,-3.8460076
755,1778472153,0.86646423,0.00982330125,0.1287402037499999,-0.26847527,1.4129313,-3.92144945
756,1778472153,0.81539524,-0.08712844,0.25796852,-0.14905111,1.4697418,-3.9968913
757,1778472153,0.8376860102121377,-0.152699049528706,0.2290474848769925,0.3029930507274636,1.2940147338148955,-4.129450197821449
758,1778472153,0.8599767804242755,-0.218269659057412,0.200126449753985,0.7550372114549272,1.1182876676297917,-4.262009095642899
759,1778472154,0.88226698,-0.28383859,0.171206155,1.2070698,0.9425651,-4.3945646
760,1778472154,0.90838104,-0.4148973,-0.0046370877,1.8637499,0.6872234,-4.721988
761,1778472154,0.8639626199999999,-0.4544345899999999,-0.0624786588499999,1.96362635,0.6459900000000001,-4.81483975
762,1778472154,0.8195442,-0.49397188,-0.12032023,2.0635028,0.6047566,-4.9076915
763,1778472154,0.2375897285,-0.69031595,-0.35400503,2.2913556,0.3359759,-5.367062
764,1778472154,0.171699945592226,-0.6770467094450658,-0.3715341186036712,2.1655984429328057,0.2792931553060676,-5.094397775225027
765,1778472154,0.1058084758844186,-0.6637771291932253,-0.3890636559577547,2.039838066441182,0.2226089595152969,-4.821726570156552
766,1778472154,0.0399170061766111,-0.6505075489413847,-0.4065931933118382,1.9140776899495584,0.1659247637245263,-4.549055365088077
767,1778472154,-0.0259727767311627,-0.6372383083864506,-0.4241222819155095,1.788320532882364,0.1092420190305939,-4.2763911403131045
768,1778472154,-0.0918625596389367,-0.6239690678315163,-0.4416513705191807,1.6625633758151697,0.0525592743366615,-4.003726915538131
769,1778472154,-0.1577540293467441,-0.6106994875796757,-0.4591809078732642,1.5368029993235457,-0.0041249214541091,-3.731055710469657
770,1778472154,-0.2236454990545515,-0.5974299073278352,-0.4767104452273477,1.411042622831922,-0.0608091172448797,-3.4583845054011815
771,1778472154,-0.2895352819623255,-0.584160666772901,-0.4942395338310189,1.2852854657647277,-0.1174918619388121,-3.1857202806262084
772,1778472154,-0.3554250648700994,-0.5708914262179668,-0.5117686224346901,1.1595283086975334,-0.1741746066327445,-2.9130560558512357
773,1778472154,-0.4213165345779069,-0.5576218459661263,-0.5292981597887737,1.0337679322059097,-0.2308588024235151,-2.6403848507827608
774,1778472154,-0.4872080042857143,-0.5443522657142857,-0.5468276971428572,0.9080075557142856,-0.2875429982142857,-2.3677136457142858
775,1778472154,-0.38707477,-0.36144876,-0.2796896,-0.8491027,-0.5448918,1.4477507
776,1778472154,0.06992241,-0.298848095,-0.144237832,-1.25777155,-0.638048735,2.7024678
777,1778472154,0.300528946725888,-0.284601076390496,-0.0302006268424576,-1.5215159883856,-0.6043743552234561,3.1702439124576
778,1778472154,0.531135483451776,-0.270354057780992,0.0838365783150847,-1.7852604267712,-0.570699975446912,3.6380200249152
779,1778472154,0.761736116725888,-0.256107403890496,0.1978708641575423,-2.0489981133856,-0.537026457723456,4.1057841624576
780,1778472154,0.99233675,-0.24186075,0.31190515,-2.3127358,-0.50335294,4.5735483
781,1778472154,0.76194674,-0.22428861,0.06662763,-2.0830505,-0.79534656,4.6266932
782,1778472154,0.859692901134848,-0.2542775251032,0.3367719615531839,-2.12176454553344,-0.4631843255028192,4.449769210401921
783,1778472154,0.95743656,-0.2842656725,0.6069093775,-2.1604776,-0.13103059425,4.272849750000001
784,1778472154,0.82759815,-0.3316738,0.7058135,-1.2431108,0.106901415,4.1318927
785,1778472154,0.8540783500000001,-0.3125153,0.6671304499999999,-1.04702305,0.0671951755,4.15938165
786,1778472154,0.88055855,-0.2933568,0.6284474,-0.8509353,0.027488936,4.1868706
787,1778472154,0.9454777,-0.23112221,0.43295756,-0.43127087,-0.105068825,4.234518
788,1778472154,0.9330310290925692,-0.1984190981402532,0.3364345656801891,-0.0641471156589412,-0.1685977224262723,4.221995380388777
789,1778472154,0.9205840395462846,-0.1657151490701266,0.2399091003400945,0.3029860371705293,-0.2321282462131361,4.209472440194388
790,1778472154,0.90813705,-0.1330112,0.143383635,0.67011919,-0.29565877,4.1969495000000006
791,1778472154,0.90081537,-0.0776102,-0.025381953,0.92485,-0.26206118,4.169155
792,1778472154,0.885439931808128,-0.0355108661783705,-0.0939611586749312,0.912327425291008,-0.036654795238656,4.02682542184192
793,1778472154,0.8700641,0.0065895454,-0.16254212,0.89980453,0.18875736,3.8844922
794,1778472154,0.80697449246336,0.0991494449515494,-0.175599354630464,0.7086012476293121,0.426081542710656,3.62655104839552
795,1778472154,0.7438865,0.191706975,-0.188656255,0.51740286,0.66339965,3.3686165
796,1778472154,0.73571067965184,0.24570394632992,-0.2480834318224,0.479224278692096,0.71135196120256,3.27255917954944
797,1778472154,0.72753465,0.2997023,-0.30751213,0.44104472,0.7593055,3.1764994
798,1778472154,0.8019721,0.28701133,-0.35412705,0.5186246,0.3286455,2.3420575
799,1778472154,0.7828136099999999,0.26022604,-0.47231178,0.6418666525000001,-0.0452040399999999,2.09496245
800,1778472154,0.7636551199999999,0.23344075,-0.59049651,0.7651087050000001,-0.41905358,1.8478674
801,1778472154,0.69434285,0.3236199,-0.74583894,0.8961393,-1.2229522,2.3634377
802,1778472154,0.9535317,0.53228885,-0.8766537,0.9193522,-1.8533652,2.9596422
803,1778472154,1.2394447,0.699712125,-0.9402306,0.880256815,-2.19972575,3.273016
804,1778472154,1.5253577,0.8671354,-1.0038075,0.84116143,-2.5460863,3.5863898
805,1778472154,3.7595799,1.5054671,-1.32279025,0.08979719,-3.4574974,4.1825943
806,1778472154,4.3246943,1.581613,-0.87165042,-1.8484782,-2.0347922,2.905275
807,1778472154,3.99256718878144,1.456382727968,-0.532384695156864,-2.41321592126464,-1.04596670712832,2.1801872617418496
808,1778472154,3.66044007756288,1.331152455936,-0.193118970313728,-2.9779536425292803,-0.0571412142566399,1.4550995234836992
809,1778472154,3.32830446378144,1.205918977968,0.146155439843136,-3.5427058212646405,0.93170959287168,0.7299932227418496
810,1778472154,2.99616885,1.0806855,0.48542985,-4.107458,1.9205604,0.004886922
811,1778472154,2.9473985161788425,1.0611610999436798,0.6026576663098296,-3.721801624309864,1.686193733287822,-0.1274660892398474
812,1778472154,2.8986281823576845,1.0416366998873594,0.7198854826196592,-3.3361452486197276,1.451827066575644,-0.2598191004796948
813,1778472154,2.8498566,1.0221118,0.8371163,-2.950479,1.2174544,-0.3921755
814,1778472154,2.7800956760954714,0.9928650941959432,0.5538423738535417,-2.091689643515919,0.6159454943794108,-0.6156541806539975
815,1778472154,2.7103365380477356,0.9636191370979716,0.2705756994267708,-1.2329222717579595,0.0144519871897055,-0.8391271403269988
816,1778472154,2.6405773999999997,0.93437318,-0.012690975,-0.3741548999999999,-0.58704152,-1.0626001
817,1778472154,2.540015293590544,0.9045911111466296,-0.0242241540515751,-0.3794932434417148,-0.4266266635951182,-1.1957191797885958
818,1778472154,2.4394531871810887,0.8748090422932592,-0.0357573331031503,-0.3848315868834298,-0.2662118071902365,-1.3288382595771917
819,1778472154,2.3388936551286053,0.8450277358510926,-0.0472902169091209,-0.3901697936653018,-0.1058010573531146,-1.4619539315609644
820,1778472154,2.2383341230761222,0.815246429408926,-0.0588231007150915,-0.3955080004471739,0.0546096924840072,-1.5950696035447376
821,1778472154,2.1377720166666667,0.7854643605555556,-0.0703562797666666,-0.4008463438888889,0.2150245488888889,-1.7281886833333333
822,1778472154,2.037209910257211,0.7556822917021851,-0.0818894588182418,-0.4061846873306038,0.3754394052937707,-1.861307763121929
823,1778472154,1.9366503782047275,0.7259009852600186,-0.0934223426242124,-0.4115228941124759,0.5358501551308925,-1.994423435105702
824,1778472154,1.8360908461522445,0.696119678817852,-0.104955226430183,-0.4168611008943479,0.6962609049680144,-2.127539107089475
825,1778472154,1.735528739742789,0.6663376099644815,-0.1164884054817581,-0.4221994443360629,0.8566757613728961,-2.26065818687807
826,1778472154,1.6349666333333337,0.6365555411111111,-0.1280215845333333,-0.4275377877777778,1.017090617777778,-2.3937772666666666
827,1778472154,1.1377949,0.3577879,-0.036120474,1.4636332,1.1527027,-3.7501018
828,1778472154,1.02150162,0.1731586125,-0.15802707,1.4636332,1.1527027,-3.7501018
829,1778472154,0.95920596,0.08670133487,-0.215075455,1.5757269500000002,1.16278195,-4.0805799
830,1778472154,0.8969103,0.00024405724,-0.27212384,1.6878207,1.1728612,-4.411058
831,1778472154,0.8866599,-0.06199054,-0.31141704,1.7550159,0.97494096,-4.577824
832,1778472154,0.87323684,-0.12324891,-0.3612047,1.7440202,0.8564331,-4.6627345
833,1778472154,0.90081537,-0.16107778,-0.39756927,1.7440202,0.8564331,-4.6627345
834,1778472154,0.874883910581568,-0.221543736454336,-0.386037412394112,1.59008025459392,0.85322600894976,-4.79956992647104
835,1778472154,0.848953115,-0.282008145,-0.37450585,1.43614425,0.8500190000000001,-4.93640185
836,1778472154,0.797335,-0.33777523,-0.3648656,1.396438,0.8772025,-4.967556
837,1778472154,0.6135599,-0.42441553,-0.3785328,1.205848,0.8900307,-5.1337113
838,1778472154,0.5080440208853798,-0.4502453808238115,-0.3649467114670569,1.203200854822634,0.5996611184225724,-5.022939209513854
839,1778472154,0.4025308429426899,-0.4760745704119057,-0.3513609707335284,1.200553777411317,0.3092989702112862,-4.912169954756927
840,1778472154,0.297017665,-0.50190376,-0.33777523,1.1979067,0.018936822,-4.8014007
841,1778472154,0.114584875,-0.529787295,-0.331551775,1.1979067,0.018936822,-4.8014007
842,1778472154,-0.067847915,-0.55767083,-0.32532832,1.1979067,0.018936822,-4.8014007
843,1778472154,-0.305110218669093,-0.5376989704287165,-0.3450561049874133,1.0551690847099082,-0.5171946436195994,-4.0152238421283934
844,1778472154,-0.542372522338186,-0.517727110857433,-0.3647838899748265,0.9124314694198162,-1.0533261092391988,-3.229046984256786
845,1778472154,-0.7796409,-0.49775474,-0.38451218,0.7696902,-1.5894713,-2.44285
846,1778472154,-0.89764408542144,-0.455898399245696,-0.37926488783552,0.7125735689164799,-1.6097828349843202,-2.27485992475456
847,1778472154,-1.01564425,-0.41404313,-0.37401773,0.6554584,-1.6300938500000002,-2.10687415
848,1778472154,-1.0787331,-0.42392743,-0.3372871,-0.15577064,-1.5827519,-0.14538592
849,1778472154,-0.988187825,-0.473104965,-0.277554095,-0.4737259949999999,-1.47096355,0.59559359
850,1778472154,-0.89764255,-0.5222825,-0.21782109,-0.79168135,-1.3591752,1.3365731
851,1778472154,-0.5666399125,-0.562185875,-0.1192219635,-1.142318025,-1.2224940999999998,2.25027485
852,1778472154,-0.235637275,-0.60208925,-0.0206228369999999,-1.4929547,-1.085813,3.1639766
853,1778472154,0.0113100939239086,-0.6212885804988566,0.1149521272248865,-1.5998570455550054,-0.9792160903846808,3.5941310706044987
854,1778472154,0.2582574628478172,-0.6404879109977132,0.250527091449773,-1.7067593911100112,-0.872619180769362,4.0242855412089975
855,1778472154,0.50519851,-0.6596867500000001,0.386098585,-1.813659,-0.766025,4.454429
856,1778472154,0.553277159585408,-0.6671303797203201,0.53057862313184,-1.4178233167616,-0.70860440999296,4.6676182711424
857,1778472154,0.60135704,-0.6745742,0.67506236,-1.0219775,-0.65118235,4.880813
858,1778472154,0.6335851365114842,-0.684385405465458,0.6519132909565671,-0.7717339985393445,-0.5200893261246179,5.013066754261109
859,1778472155,0.6658124079942579,-0.694196359767271,0.6287648145217164,-0.5214969032303277,-0.388999658187691,5.145317122869446
860,1778472155,0.6980396794770317,-0.704007314069084,0.6056163380868657,-0.2712598079213109,-0.2579099902507641,5.277567491477782
861,1778472155,0.7302677759885158,-0.713818519534542,0.5824672690434328,-0.0210163064606554,-0.126816966375382,5.4098212457388914
862,1778472155,0.7624958725,-0.723629725,0.5593182,0.229227195,0.0042760574999999,5.5420750000000005
863,1778472155,1.0975254,-0.61770886,0.13447554,0.94134337,0.35063666,5.869193
864,1778472155,1.32669224162688,-0.461331194159744,-0.107260063244672,1.029612280143488,0.3132216389184,5.7586279152512
865,1778472155,1.55586495,-0.304949525,-0.349001855,1.11788345,0.27580566,5.64806
866,1778472155,1.52029314468672,-0.2042136070967551,-0.368099584447808,1.0390808163392,0.1128552692616959,5.1694408737536
867,1778472155,1.48472225,-0.103480268,-0.3871968249999999,0.9602802,-0.05009095,4.690834
868,1778472155,1.520151908068646,-0.0581381764815707,-0.3901853570703739,0.92640023366912,-0.0787560015826432,4.57032542215917
869,1778472155,1.555582473148148,-0.0127949241907407,-0.3931739656481481,0.8925194000000001,-0.107421787,4.449813759259259
870,1778472155,1.5910130382276504,0.0325483281000892,-0.3961625742259223,0.8586385663308801,-0.1360875724173568,4.329302096359348
871,1778472155,1.6264426962962963,0.0778904196185185,-0.3991511062962963,0.8247586,-0.164752624,4.208793518518519
872,1778472155,1.6618723543649423,0.1232325111369477,-0.4021396383666702,0.79087863366912,-0.1934176755826432,4.088284940677688
873,1778472155,1.6973029194444444,0.1685757634277778,-0.4051282469444444,0.7569978,-0.222083461,3.967773277777778
874,1778472155,1.7327334845239466,0.2139190157186078,-0.4081168555222186,0.7231169663308801,-0.2507492464173568,3.8472616148778664
875,1778472155,1.7681631425925926,0.2592611072370371,-0.4111053875925926,0.6892370000000001,-0.279414298,3.726753037037037
876,1778472155,1.8035928006612385,0.3046031987554663,-0.4140939196629665,0.6553570336691201,-0.3080793495826432,3.606244459196207
877,1778472155,1.8390233657407409,0.3499464510462963,-0.4170825282407407,0.6214762,-0.336745135,3.4857327962962965
878,1778472155,1.874453930820243,0.3952897033371264,-0.420071136818515,0.58759536633088,-0.3654109204173568,3.365221133396385
879,1778472155,1.909883588888889,0.4406317948555556,-0.4230596688888889,0.5537154000000001,-0.394075972,3.2447125555555556
880,1778472155,2.21762625,0.7225315,-0.39036958,0.02687807,-0.8405506,1.777007
881,1778472155,2.28449795,0.7810442025000001,-0.4678577499999999,-0.1847867299999999,-0.85612765,1.50669915
882,1778472155,2.35136965,0.839556905,-0.5453459199999999,-0.39645153,-0.8717047,1.2363913
883,1778472155,2.403383671712,0.8929234123166293,-0.57081906893952,-0.6215524828375893,-0.80934634819712,1.1304584351246934
884,1778472155,2.455397693424,0.9462899196332588,-0.59629221787904,-0.8466534356751787,-0.74698799639424,1.0245255702493867
885,1778472155,2.507413046712,0.9996577931499626,-0.62176601893952,-1.0717601511709227,-0.68462804819712,0.9185899934580268
886,1778472155,2.5594284000000003,1.0530256666666666,-0.64723982,-1.2968668666666667,-0.6222681,0.8126544166666667
887,1778472155,2.4618053,1.0233321,-0.2591888,-1.9388863,-0.17165314,0.54305923
888,1778472155,2.4882852110528,1.04962891339648,-0.118125514383168,-2.0928223295936,0.222349911696384,0.23213278490944
889,1778472155,2.5147658,1.0759264,0.0229413825,-2.2467623,0.61636305,-0.07880162
890,1778472155,2.53071120546477,1.0825567464897985,0.0304666090955566,-1.936844727474464,0.4664948806159813,-0.3574627307554165
891,1778472155,2.5466562027323847,1.0891869232448992,0.0379916430477783,-1.6269350887372318,0.3166305478079906,-0.6361167078777084
892,1778472155,2.5626011999999996,1.0958171,0.045516677,-1.31702545,0.166766215,-0.914770685
893,1778472155,2.4591208,1.0577441,0.011714748,-0.960891,0.11362094,-1.4251486
894,1778472155,2.16552,0.9193637,-0.02831064,-0.7452556,0.34880406,-1.9822577
895,1778472155,1.9536783,0.8251576,-0.059549972,-0.65668017,0.5852089,-2.2730296
896,1778472155,1.6216384499999998,0.6993460499999999,-0.1365500224999999,-0.602924,0.72387534,-2.4410176
897,1778472155,1.5094117756779704,0.669692830295764,-0.1522918526618979,-0.5644391649336109,0.7727449770155648,-2.5644133862972316
898,1778472155,1.3971851013559409,0.6400396105915281,-0.1680336828237959,-0.5259543298672219,0.8216146140311295,-2.6878091725944637
899,1778472155,1.2849613,0.61038715,-0.18377511,-0.48747048,0.870483,-2.8112018
900,1778472155,1.3132721,0.66237134,-0.094206095,-0.47586402,0.9309586,-2.92299
901,1778472155,1.32937985,0.63430477,-0.0158637204999999,-0.41263946,1.02594815,-3.0998356
902,1778472155,1.3454876,0.6062382,0.062478654,-0.3494149,1.1209377,-3.2766812
903,1778472155,1.344796139233874,0.5535222815149291,0.1295938282765153,-0.2561569424780905,1.2050327823794449,-3.4355048446875505
904,1778472155,1.3441046784677482,0.5008063630298583,0.1967090025530306,-0.1628989849561811,1.2891278647588895,-3.5943284893751013
905,1778472155,1.3434132,0.448089095,0.263825895,-0.06963864,1.3732251,-3.7531562
906,1778472155,1.2868521760281602,0.2313634904477696,0.1832859646020864,0.208308602679168,1.47829524488064,-4.04729136488192
907,1778472155,1.2302926,0.014643434,0.102748096,0.48624873,1.5833627,-4.341419
908,1778472155,1.1644796232225143,-0.0743545900809468,0.0445414365730365,0.8291419012149708,1.5725709508482095,-4.695613055010752
909,1778472155,1.0986649616112572,-0.1633548925404734,-0.0136667129634817,1.1720438506074855,1.5617789254241048,-5.049816177505376
910,1778472155,1.0328503,-0.252355195,-0.0718748625,1.5149458,1.5509869,-5.4040193
911,1778472155,0.9901402,-0.31751847,-0.23136626,1.994475,1.2730432,-5.7140336
912,1778472155,0.9288819,-0.38707477,-0.5374141,1.9339994,1.0555751,-5.83865
913,1778472155,0.8434611327521163,-0.3862205727109431,-0.5635284228393692,1.9339994,1.0555751,-5.83865
914,1778472155,0.7580403655042326,-0.3853663754218862,-0.5896427456787384,1.9339994,1.0555751,-5.83865
915,1778472155,0.672621785,-0.3845121999999999,-0.6157564,1.9339994,1.0555751,-5.83865
916,1778472155,0.1901206,-0.27944556,-0.36315718,0.8894198,1.0867293,-5.675549
917,1778472155,0.1713584573476479,-0.2488769949773759,-0.315809466457024,0.830165109049664,0.7594540484304,-5.27405271091328
918,1778472155,0.152596314695296,-0.218308429954752,-0.268461752914048,0.770910418099328,0.4321787968608,-4.87255642182656
919,1778472155,0.133834652347648,-0.1877406474773759,-0.221115251457024,0.711657244049664,0.1049119234303999,-4.47107041091328
920,1778472155,0.1150729899999999,-0.157172865,-0.17376875,0.65240407,-0.22235495,-4.0695844
921,1778472155,0.09200958,-0.14179726,-0.14204131,0.51007247,0.46914452,-4.5533895
922,1778472155,-0.0741934,-0.14887492,-0.30629185,0.65240407,-0.22235495,-4.0695844
923,1778472155,-0.1141505413429281,-0.1703957788873157,-0.256955560927852,0.4843671360780318,-0.2472728782912757,-3.698835818348969
924,1778472155,-0.1541076826858562,-0.1919166377746315,-0.2076192718557039,0.3163302021560635,-0.2721908065825515,-3.328087236697937
925,1778472155,-0.194065846944696,-0.2134380476029868,-0.1582817197583889,0.1482889664335238,-0.2971093727809568,-2.9573291637617265
926,1778472155,-0.2340240112035359,-0.2349594574313421,-0.108944167661074,-0.0197522692890158,-0.3220279389793621,-2.5865710908255157
927,1778472155,-0.273981152546464,-0.2564803163186578,-0.0596078785889259,-0.187789203210984,-0.3469458672706379,-2.215822509174484
928,1778472155,-0.3139382938893922,-0.2780011752059736,-0.0102715895167779,-0.3558261371329523,-0.3718637955619137,-1.845073927523453
929,1778472155,-0.353896458148232,-0.2995225850343289,0.0390659625805369,-0.523867372855492,-0.396782361760319,-1.474315854587242
930,1778472155,-0.3938546224070718,-0.3210439948626842,0.0884035146778519,-0.6919086085780317,-0.4217009279587242,-1.1035577816510318
931,1778472155,-0.4338117637499999,-0.34256485375,0.13773980375,-0.8599455425,-0.44661885625,-0.7328092
932,1778472155,0.107385196,-0.50544256,0.42148685,-0.049480084,-0.30298916,2.6933048
933,1778472155,0.1142798990010688,-0.527346975372928,0.359037905663744,0.0761306885473088,-0.346437506131712,2.76439519744544
934,1778472155,0.1211746020021376,-0.5492513907458559,0.296588961327488,0.2017414610946176,-0.389885852263424,2.83548559489088
935,1778472155,0.1280691285010688,-0.5711552453729279,0.234141615663744,0.3273490180473088,-0.433333086131712,2.90657417244544
936,1778472155,0.134963655,-0.5930591,0.1716942699999999,0.452956575,-0.47678032,2.97766275
937,1778472155,0.13618395,-0.6540734,0.07199689,0.39278635,-0.4654793,2.91566
938,1778472155,0.22550889,-0.680309635,-0.100429559,0.61208698,-0.294131615,3.46116245
939,1778472155,0.38268176,-0.6772589,-0.23917611,0.5119051,0.059864793,3.9449677
940,1778472155,0.43930307,-0.65090066,-0.24478942,0.103847094,0.4392121,4.6163087
941,1778472155,0.5630401,-0.59281504,-0.26114124,0.103847094,0.4392121,4.6163087
942,1778472155,0.88275504,-0.44540447,-0.33313814,0.103847094,0.4392121,4.6163087
943,1778472155,0.9625611123127992,-0.3797943082138804,-0.2876625280635224,0.0250461484433426,0.3803659254937834,4.705290707343818
944,1778472155,1.0423671846255984,-0.3141841464277607,-0.2421869161270448,-0.0537547971133146,0.3215197509875668,4.7942727146876365
945,1778472155,1.1221753,-0.248572305,-0.1967101399999999,-0.13255776,0.26267207,4.883257
946,1778472155,1.1255920937344002,-0.1485685684685568,-0.1068959243927551,0.264815156308224,-0.148750951147264,4.35088098567424
947,1778472155,1.1290088,-0.048567392,-0.017084008,0.6621779,-0.56016344,3.8185186
948,1778472155,1.1185144,0.01513155,-0.041977845,0.9297369,-0.64568454,3.6743546
949,1778472155,1.113084078661851,0.0402493210022357,-0.0837119902934814,0.9297369,-0.64568454,3.6743546
950,1778472155,1.1076537573237022,0.0653670920044714,-0.1254461355869628,0.9297369,-0.64568454,3.6743546
951,1778472155,1.102223575,0.09048422,-0.1671792125,0.9297369,-0.64568454,3.6743546
952,1778472155,1.0967933926762978,0.1156013479955285,-0.2089122894130371,0.9297369,-0.64568454,3.6743546
953,1778472155,1.091363071338149,0.1407191189977643,-0.2506464347065186,0.9297369,-0.64568454,3.6743546
954,1778472155,1.08593275,0.16583689,-0.29238058,0.9297369,-0.64568454,3.6743546
955,1778472155,1.87002765,0.686227965,-0.7512692375000001,1.155451605,-0.8232936125,3.477350375
956,1778472155,2.2777863,1.0492021,-0.74583894,0.15821409,-0.7965683,2.9113839
957,1778472155,2.310734,1.2249234,-0.5210622,-0.21197024,-0.8222246,2.7898216
958,1778472155,2.310734,1.363792,-0.4327135,-0.21197024,-0.8222246,2.7898216
959,1778472156,2.51846562733409,1.4468927575311257,-0.4022472766484337,-0.2491308895583981,-0.8936952234428733,2.736574971043716
960,1778472156,2.7261972546681803,1.5299935150622508,-0.3717810532968674,-0.2862915391167962,-0.9651658468857468,2.683328342087433
961,1778472156,2.9339342000000004,1.6130964,-0.34131405,-0.32345314,-1.0366383,2.63008035
962,1778472156,3.333334,1.8631331,-0.31068486,-0.57787853,-0.77946407,1.6884315
963,1778472156,3.3111248,1.85507915,-0.2568702399999999,-0.57787853,-0.77946407,1.6884315
964,1778472156,3.2889156,1.8470252,-0.20305562,-0.57787853,-0.77946407,1.6884315
965,1778472156,3.1498027,1.7699032,-0.15595257,-1.006095,0.09101892,0.007941248
966,1778472156,2.9772544,1.6756971,-0.12666571,-0.9584476,-0.10995574,0.40011674
967,1778472156,2.5120814,1.4472594,-0.13447554,-0.93401295,0.5381723,-1.0916162
968,1778472156,2.272905,1.3315763,-0.16083373,-0.93401295,0.5381723,-1.0916162
969,1778472156,1.7672185,1.0838583,-0.23551524,-0.8032878,0.5174029,-1.5259414
970,1778472156,2.0483723,1.228096,-0.19426957,-0.8032878,0.5174029,-1.5259414
971,1778472156,1.7672185,1.0838583,-0.23551524,-0.8081747,0.53878313,-1.7562376
972,1778472156,1.6925379559232,1.0318747153984,-0.207326990814208,-0.8081747,0.53878313,-1.7562376
973,1778472156,1.6178555,0.9798898,-0.17913802,-0.8081747,0.53878313,-1.7562376
974,1778472156,1.5986967547712,0.9673451034299392,-0.1660807900695961,-0.817643236195712,0.5524666921473536,-1.7816499252736
975,1778472156,1.5795385,0.954800728,-0.1530238944,-0.82711153,0.566149904,-1.8070616
976,1778472156,1.5603802452288,0.9422563525700608,-0.1399669987304038,-0.836579823804288,0.5798331158526464,-1.8324732747264
977,1778472156,1.5412215,0.929711656,-0.1269097688,-0.84604836,0.593516678,-1.8578856
978,1778472156,1.5220627547712,0.9171669594299392,-0.1138525388695961,-0.855516896195712,0.6072002401473536,-1.8832979252736
979,1778472156,1.5029045,0.904622584,-0.1007956431999999,-0.86498519,0.6208834520000001,-1.9087096
980,1778472156,1.4837462452288,0.8920782085700608,-0.0877387475304038,-0.874453483804288,0.6345666638526464,-1.9341212747264
981,1778472156,1.4645875,0.879533512,-0.0746815176,-0.88392202,0.648250226,-1.9595336
982,1778472156,1.4454287547712,0.8669888154299392,-0.0616242876695961,-0.893390556195712,0.6619337881473536,-1.9849459252736
983,1778472156,1.4262705,0.85444444,-0.048567392,-0.90285885,0.675617,-2.0103576
984,1778472156,1.0980135571428573,0.3906659328571428,0.1382410028571428,-0.2092649857142857,0.9409942614285712,-3.2457887999999997
985,1778472156,1.1153415999999998,-0.077854265,-0.148630865,1.085507525,0.8866708999999999,-4.406171049999999
986,1778472156,0.8799484,-0.32008109,-0.2451554899999999,1.1447614,0.86009824,-5.162422
987,1778472156,0.76591265,-0.410931395,-0.2222751349999999,1.08581295,0.8277224,-5.2797083
988,1778472156,0.6518769,-0.5017817,-0.19939478,1.0268645,0.79534656,-5.3969946
989,1778472156,0.541929115,-0.5587690574999999,-0.168277475,1.03220955,0.7770205975000001,-5.349499875
990,1778472156,0.43198133,-0.615756415,-0.13716017,1.0375546,0.758694635,-5.30200515
991,1778472156,0.288231615,-0.6263729075,-0.105920845,1.0542007,0.7602218025,-5.250539725
992,1778472156,0.1444819,-0.6369894,-0.07468152,1.0708468,0.76174897,-5.1990743
993,1778472156,0.07004443,-0.6067263,-0.11836776,1.251052,0.72204274,-4.831333
994,1778472156,-0.04612682,-0.50812715,-0.23502712,1.3878858,0.3371976,-4.224133
995,1778472156,-0.13716017,-0.4724948,-0.2882316,1.3878858,0.3371976,-4.224133
996,1778472156,-0.4637859291367679,-0.4890498164264106,-0.2689513301239467,1.2413818586077867,0.0434769963385173,-3.8353223101738663
997,1778472156,-0.7904200499999999,-0.5056052566666667,-0.2496705666666666,1.0948741666666666,-0.2502511266666666,-3.4465016666666664
