id,timestamp,acc_x,acc_y,acc_z,gyro_x,gyro_y,gyro_z
0,1778472091,-0.043503204,0.4224020675,0.977815375,-0.1959350249999999,0.0873537325,-0.05635232
1,1778472091,-0.08151512,0.3973252,0.9972179,-0.1301143,0.03359759,-0.07147124
2,1778472091,-0.0921314721089536,0.393542358420992,0.978303707104768,-0.0604765523745792,0.0134392942794879,-0.06658437755264
3,1778472091,-0.102748096,0.38975942,0.95938903,0.009162978,-0.0067195175,-0.06169739
4,1778472091,-0.109459678,0.38487829,0.91899755,0.016798795,0.0678060435,-0.01221730525
5,1778472091,-0.09030118,0.3863426,0.9025237,-0.028710667,0.13561209,0.037873644
6,1778472091,-0.07565775,0.39073566,0.9076489,-0.11728613,0.24495697,0.08979719
7,1778472091,-0.06809197,0.39366436,0.9093573,-0.15821409,0.2968805,0.1020145
8,1778472091,-0.048323333,0.39805737,0.8829991,-0.15821409,0.2968805,0.1020145
9,1778472091,-0.04155074575,0.402145325,0.87689766,-0.13561208,0.158214094,0.08124508
10,1778472091,-0.0347781585,0.40623328,0.8707962199999999,-0.11301007,0.019547688,0.06047566
11,1778472091,-0.0383576955449918,0.4047689258376711,0.8844228862793971,-0.0790049478266716,-0.074322735684029,0.0466292625122538
12,1778472091,-0.0419372325899836,0.4033045716753421,0.8980495525587944,-0.0449998256533433,-0.1681931593680581,0.0327828650245076
13,1778472091,-0.045516678,0.401840255,0.91167587,-0.010995574,-0.26206118,0.018936822
14,1778472091,-0.0532653960651392,0.396043964193472,0.917899245339776,-0.0064141435430604,-0.259312325185792,0.0103848183670476
15,1778472091,-0.0610143125,0.390247525,0.92412278,-0.0018325958,-0.2565634,0.0018325958
16,1778472091,-0.07248501,0.38536638,0.91375035,0.0012217305,-0.13500121,0.027488936
17,1778472091,-0.05027579,0.4085518,0.84858704,-0.07269296,0.07269296,0.040927973
18,1778472091,-0.0605262,0.40000984,0.8515157,-0.1020145,0.061086524,0.029321533
19,1778472091,-0.048323333,0.41148052,0.85639685,-0.12705997,0.043982297,0.01160644
20,1778472091,-0.0492995739957248,0.408795845636608,0.8840977295667201,-0.136833935105152,0.0195473747369983,-0.0113013002153216
21,1778472091,-0.05027579,0.40611124,0.9117979,-0.14660765,-0.004886922,-0.034208454
22,1778472091,-0.0676646476697728,0.396471108395264,0.92522087818368,-0.1178973554964736,-0.0363460783176447,-0.0448984586661888
23,1778472091,-0.0850539505,0.38683073,0.9386442,-0.089186326,-0.06780604,-0.055588737
24,1778472091,-0.102992155,0.38341394,0.92156017,-0.089186326,-0.06780604,-0.055588737
25,1778472091,-0.119343996,0.38170552,0.895202,-0.021991149,-0.13561209,-0.0421497
26,1778472091,-0.15229172,0.37975308,0.8808026,0.062308256,-0.2919936,-0.021380283
27,1778472091,-0.19646608,0.3676722524999999,0.869026825,0.088270028,-0.35430185,-0.0131336025
28,1778472091,-0.24064044,0.3555914249999999,0.85725105,0.1142318,-0.4166101,-0.004886922
29,1778472091,-0.2511349,0.34045988,0.8110022,0.4886922,-1.6896533,0.26083946
30,1778472091,-0.1769415,0.3585201,0.7292431,0.61941737,-2.1203132,0.31887165
31,1778472091,-0.152657494168704,0.364682618879232,0.70947419696128,0.655611590780096,-2.24141880013184,0.331547267245824
32,1778472091,-0.128373488337408,0.370845137758464,0.6897052939225601,0.6918058115601919,-2.36252440026368,0.344222884491648
33,1778472091,-0.104090104168704,0.3770074988792319,0.66993689696128,0.727999105780096,-2.4836269001318403,0.356898177245824
34,1778472091,-0.07980672,0.38316986,0.6501685,0.7641924,-2.6047294,0.36957347
35,1778472091,0.0040683357246475,0.4004167305047445,0.6795369839411886,0.8010482478325426,-2.780660067922484,0.3897321920188927
36,1778472091,0.0879433914492951,0.417663601009489,0.7089054678823771,0.8379040956650852,-2.956590735844967,0.4098909140377854
37,1778472091,0.1718163,0.43491003,0.7382732,0.874759,-3.1325169,0.43004912
38,1778472091,0.1854115499491614,0.4069577564407401,0.7190593194555248,0.8837781320168677,-3.144109721095285,0.4829332034302145
39,1778472091,0.1990071479411764,0.3790047672941176,0.6998449470294117,0.8927974949264705,-3.1557028389705883,0.5358186407102942
40,1778472091,0.2126027459331915,0.3510517781474951,0.6806305746032986,0.9018168578360732,-3.167295956845892,0.5887040779903737
41,1778472091,0.2261979958823529,0.3230995045882353,0.6614166940588235,0.9108359898529412,-3.1788887779411765,0.6415881614205883
42,1778472091,0.2397932458315143,0.2951472310289754,0.6422028135143484,0.9198551218698088,-3.1904815990364614,0.6944722448508027
43,1778472091,0.2533888438235294,0.2671942418823529,0.6229884410882353,0.9288744847794116,-3.2020747169117647,0.7473576821308824
44,1778472091,0.2669844418155445,0.2392412527357304,0.6037740686621221,0.9378938476890146,-3.2136678347870684,0.8002431194109619
45,1778472091,0.2805796917647059,0.2112889791764706,0.584560188117647,0.9469129797058824,-3.225260655882353,0.8531272028411765
46,1778472091,0.2941749417138672,0.1833367056172107,0.565346307573172,0.9559321117227502,-3.236853476977638,0.9060112862713908
47,1778472091,0.3077705397058823,0.1553837164705882,0.5461319351470588,0.964951474632353,-3.2484465948529415,0.9588967235514706
48,1778472091,0.3213661376978974,0.1274307273239657,0.5269175627209457,0.9739708375419558,-3.2600397127282448,1.0117821608315505
49,1778472091,0.3349613876470588,0.0994784537647059,0.5077036821764705,0.9829899695588236,-3.2716325338235297,1.0646662442617647
50,1778472091,0.3485566375962202,0.071526180205446,0.4884898016319954,0.9920091015756912,-3.283225354918814,1.1175503276919792
51,1778472091,0.3621522355882353,0.0435731910588235,0.4692754292058823,1.001028464485294,-3.294818472794118,1.1704357649720587
52,1778472091,0.3757478335802503,0.015620201912201,0.4500610567797692,1.010047827394897,-3.306411590669421,1.2233212022521385
53,1778472091,0.3893430835294117,-0.0123320716470588,0.4308471762352941,1.0190669594117647,-3.318004411764706,1.276205285682353
54,1778472091,0.4395823486938804,-0.588174164950388,0.414818558286583,-0.2036360694950173,-2.6339519118664283,2.6191214532942046
55,1778472091,0.4898229,-1.164031,0.39878953,-1.4263704,-1.9498819,3.962072
56,1778472091,1.0121055,-1.1629328,0.71142685,-0.8417723,-2.5460863,5.194187
57,1778472091,1.1312053,-1.1656175,0.5379022,-0.27855456,-2.7751608,5.266269
58,1778472091,1.002099,-1.3325526,-0.20818083,0.38973203,-2.941927,5.2558846
59,1778472091,0.8540783,-1.4587302,-0.50532054,-0.614225035,-2.72476435,5.5530705
60,1778472091,0.7060576,-1.5849078,-0.80246025,-1.6181821,-2.5076017,5.8502564
61,1778472091,0.7060576,-1.6471423,-0.7170402,-1.6181821,-2.5076017,5.8502564
62,1778472091,0.7845820198745599,-1.65525714612864,-0.53936879922304,-2.12840079411712,-2.55097259484544,6.10498396444544
63,1778472091,0.8631084499999999,-1.6633722,-0.36169285,-2.63863255,-2.5943446,6.35971805
64,1778472091,1.28935435,-1.4185827999999998,0.29067218,-3.8844922,-2.8765645,7.0823717
65,1778472091,1.361676049513598,-1.2640551853191906,0.4475182982293258,-3.790216071166597,-2.9531256133368036,7.0632314633321105
66,1778472091,1.4339977490271958,-1.1095275706383814,0.6043644164586516,-3.695939942333194,-3.0296867266736074,7.044091226664221
67,1778472091,1.5063213,-0.954996,0.76121455,-3.6016614,-3.1062498,7.0249505
68,1778472091,1.7411044,-0.6252747,0.84248555,-2.7403414,-3.186273,6.649879
69,1778472091,2.3666232,-0.10958171,0.8422416,-1.8869628,-3.0500503,6.5570273
70,1778472091,2.53013940696576,0.0204991449437439,0.833577630900224,-1.56320834411008,-2.55220152254592,6.06803610916736
71,1778472091,2.6936598,0.15058333,0.82491344,-1.2394456,-2.05434,5.5790324
72,1778472091,2.764844414868543,0.2895763004496658,0.8250761694438803,-1.2384274659574015,-1.982460256601415,5.486993762560694
73,1778472091,2.8360272074342716,0.4285657127248329,0.8252388947219402,-1.2374093579787009,-1.9105823533007071,5.394957481280347
74,1778472091,2.90721,0.5675551249999999,0.8254016200000001,-1.23639125,-1.83870445,5.3029212
75,1778472091,2.7851813,0.9508471,1.0023432,-1.4715744,-0.46181414,3.6670241
76,1778472091,2.753698,1.0797093,1.1375508,-1.713477,0.3866777,2.6786442
77,1778472092,2.8498566,1.4052817,1.2974083,-1.1166617,0.78984874,1.028697
78,1778472092,2.8979359,1.5404893,1.2200422,-1.1166617,0.78984874,1.028697
79,1778472092,2.8950071,1.5810028,1.0272369,-0.50579643,0.48380527,0.18570304
80,1778472092,2.7147708,1.42749085,0.49836488,0.263588353,-0.2009746699999999,-1.1359039
81,1778472092,2.8368469899238145,1.3792656338325344,0.4807197246887032,0.3156946268249262,-0.3378681681926354,-1.37053482734855
82,1778472092,2.9589231798476283,1.3310404176650692,0.4630745693774064,0.3678009006498525,-0.4747616663852707,-1.6051657546971
83,1778472092,3.0810024949619073,1.2828139669162673,0.4454289623443516,0.4199085084124632,-0.6116586690963177,-1.8398026886742749
84,1778472092,3.2030818100761858,1.234587516167465,0.4277833553112968,0.4720161161750738,-0.7485556718073646,-2.07443962265145
85,1778472092,3.325158,1.1863623,0.4101382,0.52412239,-0.88544917,-2.30907055
86,1778472092,5.0467379,0.7307074,0.6800655250000001,-0.15821409,-0.7098254,-5.2186217
87,1778472092,5.0959153,0.20769271,0.6718896,-0.1020145,-0.54000485,-6.0988784
88,1778472092,4.5411735,-0.7353445,0.78708464,-0.1020145,-0.54000485,-6.0988784
89,1778472092,4.33714155,-0.99197065,0.8361401199999999,0.309708675,-0.477696615,-6.9101077
90,1778472092,4.1331096,-1.2485968,0.8851956,0.72143185,-0.41538838,-7.721337
91,1778472092,4.116757649999999,-1.3137601,0.8585934,0.72143185,-0.41538838,-7.721337
92,1778472092,4.1004057,-1.3789234,0.8319912,0.72143185,-0.41538838,-7.721337
93,1778472092,4.166057,-1.61565895,0.54009871,0.965472525,-0.12339479,-7.676743500000001
94,1778472092,3.7848399,-1.744277,0.4036707,1.2095132,0.1685988,-7.63215
95,1778472092,3.0534003,-1.9092598,0.3392396,1.1954633,1.1184943,-7.8404555
96,1778472092,2.8684106641629694,-1.8909959540035417,0.3119753424775262,1.3129477671152638,1.1107565718472363,-7.722176898275499
97,1778472092,2.683425764,-1.8727325755555555,0.2847117829111111,1.4304292266666665,1.103019041777778,-7.603901324444444
98,1778472092,2.4984408638370303,-1.85446919710757,0.257448223344696,1.5479106862180692,1.0952815117083194,-7.485625750613391
99,1778472092,2.313451228,-1.8362053511111112,0.2301839658222222,1.665395153333333,1.0875437835555557,-7.367347148888889
100,1778472092,2.1284615921629695,-1.8179415051146528,0.2029197082997484,1.7828796204485973,1.079806055402792,-7.249068547164388
101,1778472092,1.943476692,-1.7996781266666668,0.1756561487333333,1.90036108,1.0720685253333333,-7.1307929733333335
102,1778472092,1.7584917918370304,-1.781414748218681,0.1483925891669182,2.0178425395514026,1.0643309952638749,-7.012517399502279
103,1778472092,1.573502156,-1.7631509022222225,0.1211283316444444,2.1353270066666665,1.0565932671111111,-6.894238797777779
104,1778472092,1.3885125201629696,-1.7448870562257637,0.0938640741219706,2.2528114737819305,1.0488555389583474,-6.775960196053277
105,1778472092,1.20352762,-1.726623677777778,0.0666005145555555,2.370292933333334,1.041118008888889,-6.657684622222223
106,1778472092,0.3660859,-1.3035098,-0.20134723,1.8851302,1.6847663,-4.2491784
107,1778472092,0.315688065,-1.2930153,-0.25272128,1.8851302,1.6847663,-4.2491784
108,1778472092,0.26529023,-1.2825208,-0.30409533,1.8851302,1.6847663,-4.2491784
109,1778472092,0.0242226799999999,-1.32108185,-0.30531562,1.829236,1.73271925,-4.1233402
110,1778472092,-0.21684487,-1.3596429,-0.30653591,1.7733418,1.7806722,-3.997502
111,1778472092,-0.3429015006694798,-1.3655003499829332,-0.2801774967444192,1.8814658893137524,1.5175906550662184,-3.8686083334547905
112,1778472092,-0.4689581313389596,-1.3713577999658668,-0.2538190834888384,1.9895899786275044,1.2545091101324368,-3.739714666909581
113,1778472092,-0.595011535,-1.3772151,-0.227461345,2.0977113,0.9914343,-3.6108243
114,1778472092,-0.7492558,-1.3335288,-0.15326795,2.3890939,0.37323865,-3.2485814
115,1778472092,-0.8878803000000001,-1.32767145,-0.239359145,2.7663032000000003,-0.15760325,-2.6688703499999997
116,1778472092,-1.0265048,-1.3218141,-0.32545034,3.1435125,-0.68844515,-2.0891593
117,1778472092,-1.3227903,-1.3247427,-0.6211257,3.1435125,-0.68844515,-2.0891593
118,1778472092,-1.6220044,-1.2612879,-0.8886124,3.0494392,-0.643852,-1.7366899
119,1778472092,-1.6134216767616991,-1.2189435886665017,-0.9489764150996688,2.5116696110915795,-0.4479661961292026,-0.8570364370531967
120,1778472092,-1.6048389535233984,-1.1765992773330032,-1.0093404301993378,1.9739000221831584,-0.2520803922584053,0.0226170258936067
121,1778472092,-1.59625645,-1.1342560499999998,-1.0697029,1.4361442,-0.056199603,0.90224797
122,1778472092,-1.43621792351936,-1.12187030853952,-0.99972039578752,0.5129859040774399,-0.1247683513087871,2.317910014293888
123,1778472092,-1.2761753,-1.10948425,-0.9297361,-0.4101960249999999,-0.1933388549999999,3.7336083
124,1778472092,-0.8031924,-1.104115,-0.51496077,-0.6383542,-0.24251351,4.133725
125,1778472092,-0.3120663835947816,-1.0490171938087571,-0.3835714608437474,-0.7872327434642009,-0.2007796237604653,4.622949790274023
126,1778472092,0.1790596328104367,-0.9939193876175144,-0.2521821516874948,-0.9361112869284016,-0.1590457375209306,5.112174580548046
127,1778472092,0.6701982222026094,-0.9388201709043784,-0.1207894789218737,-1.0849936417321004,-0.1173107828802326,5.601411895137011
128,1778472092,1.161336811594782,-0.8837209541912426,0.0106031938437474,-1.2338759965357993,-0.0755758282395347,6.090649209725976
129,1778472092,1.6524628280000002,-0.8286231479999999,0.141992503,-1.38275454,-0.0338419419999999,6.579873999999999
130,1778472092,2.1717123425211393,-0.6968705354550272,0.1433592065059712,-1.541088793295616,0.2188697742486271,6.6667988873472
131,1778472092,2.69097515,-0.5651145500000001,0.144725945,-1.6994271,0.47158796,6.753726
132,1778472092,2.9153277216761597,-0.411905658951296,0.2130628522012159,-1.77639713520384,0.4691444787238399,6.262278709555201
133,1778472092,3.1396745499999996,-0.25870069,0.28139801,-1.8533652,0.46670106,5.770844
134,1778472092,3.1300342,-0.16913168,0.31605414,-1.8533652,0.46670106,5.770844
135,1778472092,2.606592425,-0.2187363075,0.34582912,-1.89551485,0.60994895,5.290093000000001
136,1778472092,2.0831506500000003,-0.268340935,0.3756041,-1.9376645,0.75319684,4.809342
137,1778472092,1.9805256258936983,-0.2291213388138056,0.36908783672739,-1.7716941165584807,0.6119051588453346,4.734236894086129
138,1778472092,1.8779006017873967,-0.1899017426276112,0.36257157345478,-1.6057237331169616,0.4706134776906692,4.659131788172258
139,1778472092,1.7752729504468494,-0.1506811424069028,0.356055143363695,-1.4397491007792402,0.3293181794226673,4.584024759543064
140,1778472092,1.672645299106302,-0.1114605421861944,0.3495387132726099,-1.273774468441519,0.1880228811546653,4.508917730913871
141,1778472092,1.570020275,-0.072240946,0.34302245,-1.107804085,0.0467312,4.433812625
142,1778472092,1.524178965701693,0.0658931001487694,0.2523567313814042,-0.8684508166814008,-0.0687203612681332,4.153073941334863
143,1778472092,1.4783364828508463,0.2040306825743847,0.1616886916907021,-0.6290914208407004,-0.1841748781340667,3.872328070667432
144,1778472092,1.432494,0.3421682649999999,0.071020652,-0.389732025,-0.299629395,3.5915822
145,1778472092,1.6456780249999998,0.5915337425,0.0032337547499999,-0.4254676375,-0.2344195325,3.5706601
146,1778472092,1.85886205,0.8408992200000001,-0.0645531425,-0.46120325,-0.16920967,3.549738
147,1778472092,2.1237861,1.16293275,0.22074978,-1.27793005,0.60872724,2.43674145
148,1778472092,2.115414836182528,1.174598835990656,0.1954285169153144,-1.1646538260828927,0.5136448432942335,2.2110442161790513
149,1778472092,2.107043786666667,1.1862646233333334,0.1701079020466666,-1.051380502,0.4185648806666666,1.9853527601333336
150,1778472092,2.0986727371508054,1.1979304106760107,0.1447872871780189,-0.9381071779171072,0.3234849180390997,1.759661304087615
151,1778472092,2.0903014733333336,1.2095964966666666,0.1194660240933333,-0.824830954,0.2284025213333333,1.5339640702666666
152,1778472092,2.0819302095158614,1.221262582657323,0.0941447610086477,-0.7115547300828927,0.1333201246275669,1.3082668364457182
153,1778472092,2.07355916,1.23292837,0.06882414614,-0.598281406,0.0382401619999999,1.0825753804
154,1778472092,2.0651881104841388,1.2445941573426773,0.0435035312713522,-0.4850080819171071,-0.0568398006275669,0.8568839243542817
155,1778472092,2.0568168466666665,1.2562602433333332,0.0181822681866666,-0.3717318579999999,-0.1519221973333333,0.6311866905333332
156,1778472092,2.0484455828491948,1.2679263293239893,-0.0071389948980188,-0.2584556340828928,-0.2470045940390997,0.4054894567123847
157,1778472092,2.040074533333333,1.2795921166666666,-0.0324596097666666,-0.14518231,-0.3420845566666666,0.1797980006666666
158,1778472092,3.82950215,1.3790454,-0.17864991,-1.4367551,-0.40622538,-0.95111716
159,1778472092,3.897960225,1.3367625,-0.06858009,-1.8295414,0.07330381,-1.29778318
160,1778472092,3.9664183,1.2944796,0.04148973,-2.2223277,0.552833,-1.6444492
161,1778472092,3.7055211,0.88397535,0.74583897,-2.71529605,1.6979,-2.77790975
162,1778472092,3.6088746,0.6794554,1.0623811,-1.7916678,1.599856,-3.9498546
163,1778472092,3.700396,0.45004156,1.1194906,-1.7916678,1.599856,-3.9498546
164,1778472092,3.5423255356319387,0.2741546382349578,0.7887060313489551,-0.8539736302243424,1.4697395127070407,-4.432650039603369
165,1778472092,3.384259117815969,0.0982722191174788,0.4579299306744775,0.0836965348878286,1.3396263563535205,-4.915433119801684
166,1778472092,3.2261927,-0.0776102,0.12715383,1.0213667,1.2095132,-5.3982162
167,1778472092,3.5822723,0.17840585,0.5952556,1.0213667,1.2095132,-5.3982162
168,1778472092,2.88561085,-0.213061975,0.0235515249999999,1.0213667,1.2095132,-5.3982162
169,1778472092,2.1762586,-0.45687518,-0.13496366,0.99265605,1.9401081,-5.684101
170,1778472092,1.4333482,-0.63454884,-0.191829,0.99265605,1.9401081,-5.684101
171,1778472092,1.1931958,-0.6867771,-0.17035197,1.2522738,1.6157386,-5.5045066
172,1778472092,1.04358683502976,-0.726619954982016,-0.144847658548992,1.42515086279808,1.35367404561664,-5.35881343515136
173,1778472092,0.8939817,-0.76646179,-0.119344,1.5980235,1.0916162,-5.213124
174,1778472092,0.7623145153615359,-0.804961302199936,-0.126299540967936,1.75867899358336,0.933098699049984,-5.08667641854976
175,1778472092,0.63064396,-0.8434618,-0.13325526,1.9193386,0.77457714,-4.9602256
176,1778472092,0.265534275,-0.87592149,-0.354127065,2.1368067,0.49113566,-4.510018
177,1778472093,0.15692882,-0.844438,-0.43710655,2.1343632,0.3817908,-4.2968264
178,1778472093,0.06418706,-0.8190561,-0.43466598,1.7947221,0.3567453,-3.6480873
179,1778472093,0.0835490985539475,-0.8302421687865651,-0.4598447548561286,1.60575948753968,0.4788175833368177,-3.526625880209151
180,1778472093,0.102911137107895,-0.8414282375731303,-0.4850235297122572,1.4167968750793596,0.6008898666736355,-3.4051644604183022
181,1778472093,0.12227268,-0.85261402,-0.51020166,1.2278391,0.722959025,-3.28370615
182,1778472093,0.0317286024790271,-0.906977064144128,-0.438266720779008,1.12002278006656,0.78511376690912,-3.26186800453184
183,1778472093,-0.058817793,-0.9613415,-0.36632994,1.0122037,0.8472701,-3.2400293
184,1778472093,-0.20329969,-1.010397,-0.23868799,0.77579886,0.9505063,-3.1154127
185,1778472093,-0.49336174,-1.0474937,0.022697326,0.93584553,0.82039203,-2.98407675
186,1778472093,-0.564320461716736,-1.04529717811584,0.0589393590960384,1.200041383249792,0.608119067128704,-2.80601180426048
187,1778472093,-0.635281,-1.0431006,0.09518232,1.464244,0.39584067,-2.6279423
188,1778472093,-0.72094506,-1.0387076,0.06369894,2.0793853,0.016493361,-2.2467623
189,1778472093,-0.8251576,-1.0504224,-0.017572122,2.0793853,0.016493361,-2.2467623
190,1778472093,-1.1409676,-1.0457853,-0.25845662,2.415972,-0.13194689,-1.9449949
191,1778472093,-1.2798362,-1.0079564,-0.4127008,2.415972,-0.13194689,-1.9449949
192,1778472093,-1.34445117706112,-0.94151097450944,-0.5977595837221119,2.33380964833536,-0.421806155151104,-0.4330840977894398
193,1778472093,-1.4090645,-0.87506725,-0.7828136299999999,2.2516494,-0.711658,1.078788
194,1778472093,-1.245060820698621,-0.7855404446103696,-0.8899936074383042,1.9085525555944296,-0.7888293162593439,1.571340593661467
195,1778472093,-1.0810529428493103,-0.6960113473051849,-0.997176328719152,1.5654469277972147,-0.8660026081296719,2.0639057968307335
196,1778472093,-0.917045065,-0.60648225,-1.10435905,1.2223413,-0.9431759,2.556471
197,1778472093,-0.5939743075,-0.54455272,-1.00637006,0.730900235,-0.98624195,3.23269885
198,1778472093,-0.27090355,-0.48262319,-0.90838107,0.23945917,-1.029308,3.9089267
199,1778472093,0.7224094,-0.34949,-0.6582224,-1.1447614,-1.078788,5.6688294
200,1778472093,0.8598155504831424,-0.3282900023838224,-0.6275262254661765,-1.1447614,-1.078788,5.6688294
201,1778472093,0.997218183413857,-0.3070905474806371,-0.5968308367443628,-1.1447614,-1.078788,5.6688294
202,1778472093,1.1346208163445717,-0.2858910925774517,-0.566135448022549,-1.1447614,-1.078788,5.6688294
203,1778472093,1.2720269668277142,-0.2646910949612741,-0.5354392734887256,-1.1447614,-1.078788,5.6688294
204,1778472093,1.4094331173108563,-0.2434910973450965,-0.5047430989549021,-1.1447614,-1.078788,5.6688294
205,1778472093,1.5468357502415713,-0.2222916424419112,-0.4740477102330883,-1.1447614,-1.078788,5.6688294
206,1778472093,1.6842383831722858,-0.2010921875387258,-0.4433523215112745,-1.1447614,-1.078788,5.6688294
207,1778472093,1.8216445336554283,-0.1798921899225483,-0.412656146977451,-1.1447614,-1.078788,5.6688294
208,1778472093,1.9590506841385704,-0.1586921923063707,-0.3819599724436275,-1.1447614,-1.078788,5.6688294
209,1778472093,2.0964533170692854,-0.1374927374031853,-0.3512645837218138,-1.1447614,-1.078788,5.6688294
210,1778472093,2.23385595,-0.1162932825,-0.320569195,-1.1447614,-1.078788,5.6688294
211,1778472093,2.315669388888889,0.0063183706333333,0.4122940418888889,-1.6868704311111111,-0.1935085377777777,5.346767722222221
212,1778472093,1.9500744420742535,0.0567125344716097,0.2908870459397165,-0.9317376044165688,0.0062704321100368,4.756842835781177
213,1778472093,1.58448885437046,0.1071054082358048,0.1694831579698582,-0.1766241088749512,0.2060442877216851,4.166933051223922
214,1778472093,1.2189032666666666,0.157498282,0.04807927,0.5784893866666666,0.4058181433333334,3.5770232666666666
215,1778472093,1.3079028,0.43710655,-0.40098605,0.46975538,0.13988814,2.978579
216,1778472093,1.2290722,0.52301466,-0.43954712,0.46975538,0.13988814,2.978579
217,1778472093,1.1395032,0.6770148,-0.24234885,0.29016098,-0.076358154,2.787989
218,1778472093,1.1072878,0.775858,-0.16742326,-0.077579886,-0.33292156,2.5870142
219,1778472093,1.25197426797539,0.9041111777464416,-0.0939614063002056,-0.1142321134283373,-0.3361795411344165,2.5843671107451276
220,1778472093,1.39666073595078,1.0323643554928832,-0.0204995526004113,-0.1508843408566747,-0.3394375222688329,2.581720021490255
221,1778472093,1.5413435,1.16061425,0.0529604205,-0.18753563,-0.34269542,2.579073
222,1778472093,1.5198057756864,1.1830062133792,0.1266647693222592,-0.482121629250944,0.1597348188106241,1.903922892032
223,1778472093,1.4982675,1.20539875,0.200371005,-0.77671517,0.66217792,1.2287555
224,1778472093,1.4796646674423468,1.2134391890274134,0.1688329808184576,-0.6504850370527573,0.575875133671808,1.0057359162192
225,1778472093,1.4610623111111112,1.2214794222222225,0.137295764,-0.5242581355555556,0.4895745566666666,0.7827220416666667
226,1778472093,1.4424599547798758,1.2295196554170311,0.1057585471815424,-0.3980312340583538,0.4032739796615253,0.5597081671141333
227,1778472093,1.4238571222222225,1.2375600944444445,0.074220523,-0.2718011011111111,0.3169711933333333,0.3366885833333333
228,1778472093,1.4052542896645692,1.2456005334718578,0.0426824988184575,-0.1455709681638684,0.2306684070051413,0.1136689995525332
229,1778472093,1.3866519333333336,1.253640766666667,0.011145282,-0.0193440666666666,0.14436783,-0.109344875
230,1778472093,1.890461001161387,1.2996042616597334,-0.2045578829641471,-0.061289611423488,-0.363967378226048,-0.44409475264672
231,1778472093,2.3942829666666667,1.3455689333333334,-0.4202665699999999,-0.10323623,-0.8723156,-0.7788532
232,1778472093,3.0760975000000004,1.20222595,-0.254063595,-1.7916678,0.29138274,-1.4321736
233,1778472093,3.1646904,1.1210769749999998,-0.116415307,-2.2229386,0.81336712,-1.78296295
234,1778472093,3.2532833,1.039928,0.021232981,-2.6542094,1.3353515,-2.1337523
235,1778472093,3.147118,0.780007,0.43076107,-2.6542094,1.3353515,-2.1337523
236,1778472093,2.9726174,0.6540734,0.6079466,-2.1716259,1.4770721,-3.059824
237,1778472093,2.7815204,0.57329047,0.7316837,-1.641395,1.3384057,-3.223536
238,1778472093,2.557476,0.48640612,0.72021294,-1.641395,1.3384057,-3.223536
239,1778472093,2.5458017837146296,0.4591121387610079,0.6188469633547377,-1.215618255918289,1.3298535103555824,-3.24145481957197
240,1778472093,2.534127567429259,0.4318181575220159,0.5174809867094754,-0.7898415118365789,1.3213013207111648,-3.2593736391439396
241,1778472093,2.52245365,0.404524875,0.416117605,-0.3640756675,1.3127493499999998,-3.277292
242,1778472093,2.397010390925692,0.3375323100210772,0.3669815869321091,-0.1674822285709714,1.5474194615788306,-3.3996665947801823
243,1778472093,2.2715639204628464,0.2705380300105386,0.3178443109660545,0.0291162432145142,1.7820955807894152,-3.5220443223900912
244,1778472093,2.14611745,0.20354375,0.268707035,0.2257147149999999,2.0167717,-3.64442205
245,1778472093,1.70022485,0.034961205,0.3186167374999999,0.2585487225,2.15192565,-3.715282425
246,1778472093,1.25433225,-0.13362134,0.36852644,0.29138273,2.2870796,-3.7861428
247,1778472093,1.135293275,-0.2299629349999999,0.25894474,1.367116365,2.0543399,-3.819435
248,1778472093,1.0162543,-0.32630453,0.14936304,2.44285,1.8216002,-3.8527272
249,1778472093,1.0023432,-0.37755656,0.028066583,2.8160887,1.5247196,-3.9645154
250,1778472093,0.956705069175552,-0.416910291265792,-0.0278828265883904,2.8160887,1.5247196,-3.9645154
251,1778472093,0.91106577,-0.45626503,-0.0838336685,2.8160887,1.5247196,-3.9645154
252,1778472093,0.865426470824448,-0.495619768734208,-0.1397845104116096,2.8160887,1.5247196,-3.9645154
253,1778472093,0.81978834,-0.5349735,-0.19573392,2.8160887,1.5247196,-3.9645154
254,1778472093,0.7476044480156442,-0.5419217204616397,-0.2182210669408348,2.725486335625108,1.5042131241862502,-3.90729638941271
255,1778472093,0.6754187081,-0.5488701188,-0.24070878956,2.6348816518,1.4837061234,-3.850075914
256,1778472093,0.6032329681843558,-0.5558185171383603,-0.2631965121791652,2.5442769679748913,1.4631991226137495,-3.7928554385872895
257,1778472093,0.5310490762,-0.5627667376,-0.28568365912,2.4536746036,1.4426926468,-3.735636428
258,1778472093,0.4588651842156441,-0.5697149580616396,-0.3081708060608348,2.3630722392251085,1.4221861709862502,-3.67841741741271
259,1778472093,0.3866794443,-0.5766633564,-0.3306585286799999,2.2724675554,1.4016791702,-3.621196942
260,1778472093,0.3144937043843558,-0.5836117547383602,-0.3531462512991651,2.1818628715748916,1.3811721694137498,-3.5639764665872895
261,1778472093,0.2423098124,-0.5905599751999999,-0.3756333982399999,2.0912605072000003,1.3606656936,-3.506757456
262,1778472093,0.1701259204156441,-0.5975081956616396,-0.3981205451808348,2.0006581428251087,1.3401592177862502,-3.4495384454127103
263,1778472093,0.0979401805,-0.604456594,-0.4206082677999999,1.910053459,1.319652217,-3.3923179699999997
264,1778472093,-0.7324158,-0.4275883,-0.32947728,1.8936822,0.68966687,-2.0861049
265,1778472093,-0.7427272349999999,-0.3559575025,-0.5042832774999999,1.88513015,0.092546085,-1.248303175
266,1778472093,-0.75303867,-0.284326705,-0.6790892749999999,1.8765781,-0.5045747,-0.41050145
267,1778472093,-0.6716455,-0.17962612,-0.8583493,2.0696115,-0.33169982,-0.81122905
268,1778472093,-0.677380953412864,-0.158270846656,-0.90545295291904,1.82434596064128,-0.471284316658688,-0.422408343158656
269,1778472093,-0.68311626,-0.13691612,-0.9525554,1.5790867,-0.61086524,-0.03359759
270,1778472093,-0.78415596,-0.17132819,-0.8070973,0.57787853,-0.6249151,0.7703011
271,1778472093,-0.63332856,-0.17645338,-0.68262815,0.57787853,-0.6249151,0.7703011
272,1778472093,-0.31190515,-0.1581491,-0.5588911,-0.9468411,-0.74036866,2.6597073
273,1778472093,0.49299565,-0.17401282,-0.29262465,-1.9578232,-1.1252137,4.2589526
274,1778472093,0.6526877295536233,-0.2174949395623272,-0.1642120512697375,-1.9578232,-1.1252137,4.2589526
275,1778472093,0.8123838972768116,-0.2609781722811636,-0.0357961651348687,-1.9578232,-1.1252137,4.2589526
276,1778472093,0.972080065,-0.304461405,0.0926197209999999,-1.9578232,-1.1252137,4.2589526
277,1778472094,1.0312639325,-0.3488188175,0.1885952354999999,-2.0192151000000003,-1.20676425,4.3331728
278,1778472094,1.0904478,-0.39317623,0.28457075,-2.080607,-1.2883148,4.407393
279,1778472094,1.202918459737345,-0.3383035550925009,0.2689102763656688,-1.8843139749876268,-1.366811653164573,4.426329961593337
280,1778472094,1.3153891194746905,-0.2834308801850018,0.2532498027313377,-1.6880209499752534,-1.4453085063291464,4.445266923186674
281,1778472094,1.4278569,-0.2285596099999999,0.23758973,-1.4917329499999998,-1.52380335,4.4642034
282,1778472094,1.4230978,-0.16742326,0.23649146,-1.4379768,-1.5063937,4.425108
283,1778472094,1.3276714,-0.12813005,0.2677308,-1.2809844,-1.0549643,4.1935897
284,1778472094,1.2778838,-0.08053889,0.24356914,-1.2809844,-1.0549643,4.1935897
285,1778472094,1.4226097,0.13154685,-0.00097622897,-1.1722504,-0.73548174,4.114177
286,1778472094,1.3889297,0.208913,-0.06980037,-1.0677924,-0.5271767,3.8747182
287,1778472094,1.3482942249999998,0.2859130575,-0.0430150885,-1.055116975,-0.759000075,3.61937655
288,1778472094,1.30765875,0.362913115,-0.016229807,-1.04244155,-0.99082345,3.3640349
289,1778472094,1.2742229,0.44052333,0.040269446,-0.9999864,-1.2290609,3.2577443
290,1778472094,1.35439469878784,0.603246407117952,0.1778549618828544,-0.779161444095616,-1.36467123916544,3.23834964825472
291,1778472094,1.43456855,0.76597365,0.315444,-0.558330835,-1.50028505,3.2189544999999997
292,1778472094,1.8919317,1.1404796,0.19378147,-0.3549127,-1.4801265,3.150843
293,1778472094,1.5741693,0.8964222,0.3385074,-0.3549127,-1.4801265,3.150843
294,1778472094,1.9448922,1.1914874,0.15424417,-0.28771752,-0.9932669,2.5008824
295,1778472094,1.5851519,1.14328625,0.221481955,-0.59498274,-0.009162978,0.8570439
296,1778472094,1.39185602584448,1.10771436968576,0.265961946836608,-0.5632173634083839,0.0632254825604351,0.569322707215872
297,1778472094,1.1985651,1.0721434,0.3104408,-0.5314528,0.13561209,0.28160888
298,1778472094,1.0758044,1.1343781,0.34973404,-0.5314528,0.13561209,0.28160888
299,1778472094,1.34072855,1.2784939,0.30519359,-0.3185662449999999,-0.13805554,0.29352075
300,1778472094,1.6056527,1.4226097,0.26065314,-0.10567969,-0.41172317,0.30543262
301,1778472094,1.9839413,1.5622104,0.16351835,0.5161811,-1.7867808,0.5729916
302,1778472094,2.4271436269376,1.66953322625024,0.0218449339429376,0.5161811,-1.7867808,0.5729916
303,1778472094,2.8703573,1.7768588,-0.1198321089999999,0.5161811,-1.7867808,0.5729916
304,1778472094,3.065118390546733,1.7550153272095028,-0.1902031469836756,0.3090942574297917,-1.6609404190183212,0.3561307369553108
305,1778472094,3.2598744952733667,1.7331724136047513,-0.2605723834918378,0.1020127162148958,-1.5351032595091605,0.1392754254776554
306,1778472094,3.4546306,1.7113295,-0.33094162,-0.105068825,-1.4092661,-0.077579886
307,1778472094,3.325093453951782,1.624932245151964,-0.2430890505568931,-0.1561105904566535,-1.0959452277429649,-0.3020527841182092
308,1778472094,3.195556307903562,1.5385349903039285,-0.1552364811137861,-0.2071523559133071,-0.7826243554859299,-0.5265256822364184
309,1778472094,3.066022477963836,1.4521399471973064,-0.0673861606676698,-0.2581928147174901,-0.469311504140557,-0.7509928339219901
310,1778472094,2.9364886480241097,1.3657449040906846,0.0204641597784465,-0.3092332735216732,-0.1559986527951841,-0.975459985607562
311,1778472094,2.8069515019758904,1.2793476492426488,0.1083167292215534,-0.3602750389783267,0.1573222194618509,-1.199932883725771
312,1778472094,2.6774143559276715,1.192950394394613,0.1961692986646603,-0.4113168044349803,0.4706430917188859,-1.4244057818439804
313,1778472094,2.5478805259879453,1.106555351287991,0.2840196191107766,-0.4623572632391633,0.7839559430642589,-1.648872933529552
314,1778472094,2.4183466960482187,1.020160308181369,0.371869939556893,-0.5133977220433463,1.0972687944096318,-1.873340085215124
315,1778472094,2.28880955,0.9337630533333332,0.4597225089999999,-0.5644394875,1.4105896666666666,-2.097812983333333
316,1778472094,1.5590377,0.45687518,-0.1769415,1.8106046,1.4532484,-3.2467487
317,1778472094,1.3903941,0.35290676,-0.26236153,1.6621643,1.6517797,-3.540575
318,1778472094,1.1175382,0.16815543,-0.33753118,1.6621643,1.6517797,-3.540575
319,1778472094,1.007590375,0.077244112,-0.3291112049999999,1.5946637,1.6374243000000002,-3.60532665
320,1778472094,0.89764255,-0.013667206,-0.32069123,1.5271631,1.6230689,-3.6700783
321,1778472094,0.74510676,-0.19768637,-0.24723,1.6493362,0.9627236,-3.7146716
322,1778472094,0.7031296230856402,-0.2473104930707922,-0.2591885959040175,1.6829332266034065,0.9395111294979008,-3.7073413251049594
323,1778472094,0.6611514115428201,-0.2969358865353961,-0.2711474979520087,1.7165311133017034,0.9162980647489504,-3.70001086255248
324,1778472094,0.6191732,-0.34656128,-0.2831064,1.750129,0.893085,-3.6926804
325,1778472094,0.46078008,-0.49104318,-0.43661842,1.750129,0.893085,-3.6926804
326,1778472094,0.41074833,-0.5186216,-0.46248847,1.750129,0.893085,-3.6926804
327,1778472094,0.412090645,-0.52472307,-0.464929045,1.654834,0.9373727,-3.626707
328,1778472094,0.41343296,-0.53082454,-0.46736962,1.559539,0.9816604,-3.5607336
329,1778472094,0.485063775,-0.53143467,-0.456265015,1.23058805,1.0632109,-3.4263432
330,1778472094,0.4283205,-0.5422952,-0.36901456,0.9016371,1.1447614,-3.2919528
331,1778472094,0.3014107,-0.5603554,-0.25528386,0.71837753,1.0384709,-3.3848042
332,1778472094,0.16919099510944,-0.544979618192512,-0.143443207207968,0.7119633628997121,0.958141091791616,-3.39488362901504
333,1778472094,0.036974675,-0.5296042299999999,-0.0316054174999999,0.70554936,0.87781334,-3.4049628
334,1778472094,-0.1780767630751442,-0.4772141708017885,-0.0735011933029405,0.9651626425432638,0.7426108141526436,-3.239421191946274
335,1778472094,-0.3931337065375721,-0.4248227704008942,-0.1153980416514702,1.2247825712716318,0.6074048270763218,-3.073875345973137
336,1778472094,-0.60819065,-0.37243137,-0.15729489,1.4844025,0.47219884,-2.9083295
337,1778472094,-1.06811657,-0.26919514,-0.4866501399999999,1.5134186,0.28405234,-2.59403935
338,1778472094,-1.086725689300224,-0.250219934135744,-0.4828978080304639,1.198292537415232,-0.245331981293952,-1.66057282352448
339,1778472094,-1.105335285,-0.2312442425,-0.4791453799999999,0.8831584075000001,-0.774729855,-0.7270824000000001
340,1778472094,-1.123944880699776,-0.212268550864256,-0.4753929519695359,0.568024277584768,-1.304127728706048,0.2064080235244799
341,1778472094,-1.142554,-0.193293345,-0.4716406199999999,0.252898215,-1.83351205,1.13987455
342,1778472094,-0.793922702537728,-0.202872462385728,-0.3987294532748799,0.0015303850494079,-1.785865159888,1.87595777801408
343,1778472094,-0.44528248,-0.2124518249999999,-0.32581642,-0.24984388,-1.7382170499999998,2.61205985
344,1778472094,-0.065829603065344,-0.3159944378284799,-0.305437379151616,-0.355524917699968,-1.64979319318912,2.85091123225856
345,1778472094,0.31361356,-0.4195344,-0.28505886,-0.46120325,-1.5613716,3.0897565
346,1778472094,0.17718557,-0.36852646,-0.3065359,-0.9059132,-1.2993103,4.05248
347,1778472094,0.43881494,-0.44955346,-0.26211748,-0.9828822,-1.3090842,4.35608
348,1778472094,0.5826484680607917,-0.4538652035861486,-0.2156644588785872,-0.9828822,-1.3090842,4.35608
349,1778472094,0.7264783140303959,-0.4581768367930743,-0.1692126269392936,-0.9828822,-1.3090842,4.35608
350,1778472094,0.87030816,-0.46248847,-0.122760795,-0.9828822,-1.3090842,4.35608
351,1778472094,1.1392592,-0.405379085,0.167789365,-1.02839165,-0.8429940850000001,4.9443433
352,1778472094,1.1497945131337095,-0.3943556435356737,0.2047239903428708,-0.9950989318115492,-0.7145065538408698,4.968981953827643
353,1778472094,1.1603295565668548,-0.3833324842678369,0.2416576701714354,-0.9618070659057746,-0.5860223119204349,4.993619976913822
354,1778472094,1.1708646,-0.372309325,0.27859135,-0.9285152,-0.45753807,5.018258
355,1778472094,1.401620775,-0.229169750925,0.111107061,-0.5757405075,-0.1029307949999999,4.82140665
356,1778472094,1.63237695,-0.08603017685,-0.056377228,-0.222965815,0.25167648,4.6245553
357,1778472094,1.7030314,0.11348662,-0.22404456,-0.35002577,0.18020524,3.7861428
358,1778472094,1.676585092267072,0.1546127908282752,-0.1919941514754803,-0.3795225483114048,0.1366740135818304,3.676799319614464
359,1778472094,1.6501381075,0.1957400145,-0.15994292245,-0.40902008175,0.0931416727499999,3.5674530399999997
360,1778472094,1.623691122732928,0.2368672381717248,-0.1278916934245196,-0.4385176151885951,0.0496093319181695,3.458106760385536
361,1778472094,1.597244815,0.277993409,-0.0958412849,-0.4680143934999999,0.0060781054999999,3.34876328
362,1778472094,1.570798507267072,0.3191195798282752,-0.0637908763754803,-0.4975111718114047,-0.0374531209181696,3.239419799614464
363,1778472094,1.5443515225,0.3602468035,-0.03173964735,-0.52700870525,-0.08098546175,3.13007352
364,1778472094,1.517904537732928,0.4013740271717248,0.0003115816754803,-0.5565062386885952,-0.1245178025818304,3.020727240385536
365,1778472094,1.49145823,0.442500198,0.0323619901999999,-0.5860030169999999,-0.168049029,2.9113837599999997
366,1778472094,1.465011922267072,0.4836263688282752,0.0644123987245196,-0.6154997953114048,-0.2115802554181696,2.802040279614464
367,1778472094,1.4385649375,0.5247535925,0.09646362775,-0.6449973287499999,-0.25511259625,2.692694
368,1778472094,0.9523114,0.70874226,0.22819352,-0.38240165,0.30482176,1.1667526
369,1778472094,1.1400711310964526,0.8467147626195738,0.1095827154918207,-0.1398902094574483,-0.075336815938628,1.1987209605331648
370,1778472094,1.3278308621929054,0.9846872652391476,-0.0090280890163584,0.1026212310851033,-0.4554953918772561,1.23068932106633
371,1778472094,1.5155954,1.1226633,-0.12764193,0.34513888,-0.8356637,1.2626585
372,1778472094,0.9091133,0.8649389,0.12129646,0.59986967,-1.9608774,1.8839084
373,1778472094,2.0237226,1.3171769,-0.294089,0.59986967,-1.9608774,1.8839084
374,1778472094,2.8239864,1.5609901000000002,-0.5226486100000001,0.29138273,-2.288912,2.0885482
375,1778472094,3.5205257,1.666911,-0.5786598,-1.4691309,-0.5021312,0.7825184
376,1778472094,3.3411438,1.581735,-0.36779428,-2.225382,0.73914695,-0.051923547
377,1778472095,2.915264,1.411627,-0.09054524,-2.5674667,1.4899004,-0.57848936
378,1778472095,2.1084106,1.1607363,0.41514137,-2.3353379,1.8319849,-1.0910053
379,1778472095,1.95868145,1.1157077,0.61417006,-1.7510452499999998,1.3179417999999998,-1.01647975
380,1778472095,1.8089523,1.0706791,0.81319875,-1.1667526,0.8038987,-0.9419542
381,1778472095,1.8860743,1.1031388,0.86933196,-1.1667526,0.8038987,-0.9419542
382,1778472095,2.17259765,1.21052395,0.409406015,0.4783075,-0.4184427,-0.6939429
383,1778472095,2.2952780801929378,1.245261729758593,0.1940236654274755,0.6866143108620336,-0.4687376958451377,-0.7147124972316279
384,1778472095,2.417958510385876,1.279999509517186,-0.0213586841450489,0.8949211217240673,-0.5190326916902754,-0.7354820944632556
385,1778472095,2.5406358,1.3147364,-0.23673552,1.1032226,-0.5693264,-0.75625116
386,1778472095,2.335872,1.1163179,-0.106164895,-0.35979962,1.9511036,-2.1288655
387,1778472095,2.0680191,0.96366005,0.0524723025,-0.35979962,1.9511036,-2.1288655
388,1778472095,1.8001662,0.8110022,0.2111095,-0.35979962,1.9511036,-2.1288655
389,1778472095,1.6041883,0.694831,0.35193056,-0.5222898,2.8631253,-2.8173106
390,1778472095,1.5051011,0.528628,0.47347105,-0.29138273,2.864958,-2.9437597
391,1778472095,1.4804512,0.44882128,0.41172457,1.2644911,1.9297233,-3.3976326
392,1778472095,1.48081735,0.32764685,0.1806023515,1.7427986,1.5803084,-3.5607336
393,1778472095,1.46943832065344,0.2389026709400319,0.0477758938254208,1.94965017726592,1.442789115269376,-3.78362015951552
394,1778472095,1.4580592913068802,0.150158491880064,-0.0850505638491583,2.1565017545318397,1.305269830538752,-4.00650671903104
395,1778472095,1.44667997065344,0.061412040940032,-0.2178804219245791,2.36335862726592,1.167747025269376,-4.2293989845155195
396,1778472095,1.43530065,-0.02733441,-0.35071028,2.5702155,1.03022422,-4.45229125
397,1778472095,1.3476848476644168,-0.1235734987492639,-0.4398717458124194,2.580701910514818,1.0635160959056893,-4.623433872897591
398,1778472095,1.2600690453288337,-0.2198125874985279,-0.529033211624839,2.5911883210296365,1.0968079718113783,-4.794576495795182
399,1778472095,1.172451,-0.31605414,-0.61819696,2.601675,1.1301007,-4.9657235
400,1778472095,0.8891005,-0.52350277,-0.58329684,1.7214183,1.237613,-5.2925363
401,1778472095,0.7165521,-0.58280873,-0.45907167,1.3878858,1.0097603,-5.067127
402,1778472095,0.670669917299456,-0.581710479057792,-0.37999813215424,1.3878858,1.0097603,-5.067127
403,1778472095,0.62478656,-0.5806122,-0.30092257,1.3878858,1.0097603,-5.067127
404,1778472095,0.51666915,-0.5547421,-0.25430766,1.2357804,0.874759,-4.987104
405,1778472095,0.43173727,-0.50666285,-0.23039004,1.151481,0.7678576,-4.799568
406,1778472095,0.25333142,-0.40049794,-0.20061506,1.151481,0.7678576,-4.799568
407,1778472095,0.15375607,-0.37877685,-0.23136626,1.1099422,0.5864306,-4.514294
408,1778472095,-0.23917611,-0.38951537,-0.31239328,0.91996306,0.087964594,-3.8136318
409,1778472095,-0.3983014299999999,-0.361326755,-0.35876416,0.91996306,0.087964594,-3.8136318
410,1778472095,-0.55742675,-0.33313814,-0.40513504,0.91996306,0.087964594,-3.8136318
411,1778472095,-0.554217363511303,-0.3308683842579987,-0.3650756825849306,0.7629538091208503,-0.0271617750289292,-3.3740257522416903
412,1778472095,-0.551007977022606,-0.3285986285159974,-0.3250163251698613,0.6059445582417006,-0.1422881440578584,-2.9344197044833806
413,1778472095,-0.5477986726931515,-0.3263289308789994,-0.2849579932612153,0.4489393267479252,-0.2574115658894646,-2.494824910495845
414,1778472095,-0.544589368363697,-0.3240592332420013,-0.2448996613525693,0.2919340952541499,-0.3725349877210708,-2.0552301165083096
415,1778472095,-0.5413799818749999,-0.3217894775,-0.2048403039375,0.1349248443750001,-0.48766135675,-1.6156240687499996
416,1778472095,-0.538170595386303,-0.3195197217579987,-0.1647809465224306,-0.0220844065041496,-0.6027877257789293,-1.17601802099169
417,1778472095,-0.5349612910568484,-0.3172500241210006,-0.1247226146137846,-0.179089637997925,-0.7179111476105354,-0.7364232270041545
418,1778472095,-0.531751986727394,-0.3149803264840026,-0.0846642827051386,-0.3360948694917003,-0.8330345694421416,-0.296828433016619
419,1778472095,-0.5285426002386969,-0.3127105707420012,-0.0446049252900693,-0.49310412037085,-0.9481609384710707,0.1427776147416907
420,1778472095,-0.52533321375,-0.310440815,-0.004545567875,-0.65011337125,-1.0632873075,0.5823836625000001
421,1778472095,-0.220871805,-0.65834445,0.19939477,-0.3921755,-0.80084435,3.08609115
422,1778472095,-0.1786499,-0.7268025,0.10665302,-0.31948254,-0.8020661,3.2064316
423,1778472095,-0.06345488,-0.78708464,0.00024405724,-0.18997909,-0.8210029,3.4562755
424,1778472095,0.04271002,-0.7980672,-0.04490653,0.029321533,-0.8503244,4.075082
425,1778472095,0.070166108557568,-0.7991044367232,-0.05625504723712,0.0546721152583936,-0.81611638786816,4.21267763875328
426,1778472095,0.097622197115136,-0.8001416734464,-0.06760356447424,0.0800226975167872,-0.78190837573632,4.3502732775065605
427,1778472095,0.125078988557568,-0.8011789367232001,-0.07895237223712,0.1053739287583936,-0.74769948786816,4.48787243875328
428,1778472095,0.15253578,-0.8022162,-0.09030118,0.13072516,-0.7134906,4.6254716
429,1778472095,0.5265941833333333,-0.6914955166666666,-0.2676494466666666,0.0920370266666666,-0.5330817333333333,4.844975866666666
430,1778472095,1.0579882,-0.3756041,-0.46639338,-1.0928379,-0.05009095,4.2852197
431,1778472095,1.0030752,-0.2545517,-0.3773125,-1.0928379,-0.05009095,4.2852197
432,1778472095,0.99538730159616,-0.190851949653632,-0.313490718091648,-1.13773707470208,-0.2205245315219199,4.22107802899712
433,1778472095,0.9876996,-0.12715383,-0.24967057,-1.1826351,-0.39095375,4.156938
434,1778472095,0.99868226,-0.03904916,-0.18353106,-1.1826351,-0.39095375,4.156938
435,1778472095,1.23737025,0.1969542,-0.0153756075,-1.1826351,-0.39095375,4.156938
436,1778472095,1.5658754548128,0.35559344305632,-0.024161779961568,-0.827412423207936,-1.08795989656448,4.31637584077824
437,1778472095,1.89437225,0.514228625,-0.0329477274999999,-0.47219884,-1.7849482,4.4758096
438,1778472095,2.1190638652140152,0.666924510623528,-0.0508449528834437,-0.418850853817285,-1.8211922480936615,4.425923118073523
439,1778472095,2.3437612326070076,0.819624305311764,-0.0687426364417218,-0.3655015019086425,-1.8574372240468304,4.376035359036761
440,1778472095,2.5684586,0.9723241,-0.08664032,-0.31215215,-1.8936822,4.3261476
441,1778472095,2.642408,1.1316935,-0.01952458,-0.5381723,-1.0574077,2.9901853
442,1778472095,2.6751924404717204,1.1512990653940676,-0.0152129753856606,-0.620026836331365,-0.97107357345462,2.8649600372051744
443,1778472095,2.7079777202358604,1.170905132697034,-0.0109012603928303,-0.7018834681656825,-0.88473723672731,2.739731568602587
444,1778472095,2.740763,1.1905112,-0.0065895454,-0.7837401,-0.7984009,2.6145031
445,1778472095,2.9850643,1.3252308,-0.041977845,-0.6713409,-1.0574077,2.9901853
446,1778472095,3.0021482,1.3489044,0.005857374,-0.8368854,-0.9083566,2.2901337
447,1778472095,2.9518726,1.3969837,0.1403329,-0.9370673,-0.95294976,1.9065105
448,1778472095,2.9513843,1.415288,0.20525214,-1.0195341,-0.61269784,1.5809193
449,1778472095,2.9154675064938944,1.42435872259551,0.2292102222217481,-0.9555974222666336,-0.1433537117878263,1.1822313021811293
450,1778472095,2.8795507129877884,1.4334294451910197,0.2531683044434963,-0.8916607445332674,0.3259904164243474,0.7835433043622586
451,1778472095,2.8436329999999996,1.4425004,0.277127,-0.82772243,0.79534656,0.3848451
452,1778472095,2.3497831,1.3024115,0.249914625,-0.766330465,0.894001305,0.21563543
453,1778472095,2.12317595,1.2335264,0.2512569325,-0.5300783325,1.0044152025,-0.192727985
454,1778472095,1.8965688,1.1646413,0.25259924,-0.2938262,1.1148291,-0.6010914
455,1778472095,1.6913167,1.1114367,0.24356914,-0.2938262,1.1148291,-0.6010914
456,1778472095,1.4733735,1.0589644,0.21525851,0.1881465,0.96577793,-1.029308
457,1778472095,1.2900866,1.0150341,0.15424417,0.5039638,0.8362745,-1.2437216
458,1778472095,1.1742829323059198,0.97793787483776,0.095305104429696,0.60353357549056,0.79748507151104,-1.30877791726848
459,1778472095,1.0584763,0.9408407,0.03636453,0.7031059,0.75869465,-1.3738359
460,1778472095,0.8944698,0.8851956,-0.055400997,0.96577793,0.68233645,-1.6438384
461,1778472095,0.7485236,0.81246656,-0.14692247,0.96577793,0.68233645,-1.6438384
462,1778472095,0.7657971849564696,0.7869937493339818,-0.1352202112303999,0.9763846273445848,0.715137607122222,-1.75192918255949
463,1778472095,0.7830712121223745,0.7615202865556636,-0.1235176528791407,0.9869915962240976,0.7479396039648147,-1.8600227322784335
464,1778472095,0.8003452392882794,0.7360468237773454,-0.1118150945278815,0.99759856510361,0.7807416008074075,-1.9681162819973768
465,1778472095,0.8176188242447491,0.7105740131113273,-0.1001128357582814,1.008205262448195,0.8135427579296296,-2.076207064556867
466,1778472095,0.8348924092012189,0.6851012024453091,-0.0884105769886814,1.0188119597927798,0.8463439150518516,-2.1842978471163574
467,1778472095,0.8521664363671237,0.6596277396669908,-0.0767080186374222,1.0294189286722923,0.8791459118944444,-2.2923913968353005
468,1778472095,0.8694404635330286,0.6341542768886727,-0.065005460286163,1.0400258975518049,0.9119479087370372,-2.400484946554244
469,1778472095,0.8867140484894983,0.6086814662226545,-0.0533032015165629,1.0506325948963895,0.9447490658592592,-2.5085757291137343
470,1778472095,0.903987633445968,0.5832086555566364,-0.0416009427469628,1.0612392922409748,0.9775502229814812,-2.6166665116732246
471,1778472095,0.9212616606118728,0.5577351927783182,-0.0298983843957036,1.0718462611204873,1.010352219824074,-2.7247600613921676
472,1778472095,0.9385356877777776,0.53226173,-0.0181958260444444,1.0824532299999998,1.0431542166666667,-2.832853611111111
473,1778472095,1.232245,0.20354374,-0.23026801,1.382388,0.82344633,-4.2229114
474,1778472095,1.2166391053135646,0.1886564388932266,-0.2146553251227022,1.3107140729935645,0.8287064965578951,-4.274970022529991
475,1778472095,1.201032811111111,0.1737687566666666,-0.1990422405555555,1.2390383111111112,0.8339667977777777,-4.327029977777777
476,1778472095,1.1854265169086575,0.1588810744401066,-0.1834291559884089,1.167362549228658,0.8392270989976603,-4.379089933025564
477,1778472096,1.1698206222222225,0.1439937733333333,-0.1678164711111111,1.0956886222222222,0.8444872655555555,-4.431148555555556
478,1778472096,1.1542147275357866,0.12910647222656,-0.1522037862338133,1.0240146952157867,0.8497474321134506,-4.4832071780855465
479,1778472096,1.1386084333333333,0.11421879,-0.1365907016666666,0.9523389333333334,0.8550077333333332,-4.535267133333333
480,1778472096,1.0510721037159894,0.116476348896384,-0.1156421901958186,0.8191686071083094,0.4262766539790933,-4.245611534122453
481,1778472096,0.963538015,0.11873385,-0.094694215,0.68600169,-0.00244345,-3.95596335
482,1778472096,0.7587766284792961,0.10183310383232,-0.177306525048896,0.64171453188288,-0.29473873357248,-3.72536462670144
483,1778472096,0.55401,0.084931925,-0.25992095,0.59742624,-0.5870415,-3.49476
484,1778472096,0.4379587810845486,0.0727288534035772,-0.2299420767004446,0.0900940016406257,-0.5375605688695845,-2.6683470460661165
485,1778472096,0.3219105330422743,0.0605260942017885,-0.1999639708502222,-0.4172252491796871,-0.4880809044347922,-1.841955248033058
486,1778472096,0.205862285,0.0483233349999999,-0.1699858649999999,-0.9245445,-0.43860124,-1.01556345
487,1778472096,0.16180995,0.04075756,-0.08029483,-1.2241739,-0.35613444,-0.4202753
488,1778472096,0.193354758768384,0.0290426628012352,0.0349016644962559,-1.2241739,-0.35613444,-0.4202753
489,1778472096,0.22489876,0.0173280655,0.1500952099999999,-1.2241739,-0.35613444,-0.4202753
490,1778472096,0.252293829338624,-0.0053689682242495,0.2464355718275839,-1.46729513800832,-0.0855245988503039,0.25594386928384
491,1778472096,0.2796896,-0.028066583,0.3427784,-1.7104226,0.18509217,0.93218035
492,1778472096,0.20598431,-0.09152147,0.49958518,-1.5473217,0.51251596,1.065349
493,1778472096,0.010006348,-0.2072046,0.56987363,-0.9663888,0.5852089,1.1600331
494,1778472096,-0.10372432,-0.27480847,0.5527897,-0.63713247,0.52106804,1.2437216
495,1778472096,-0.15961345,-0.31361356,0.5142286,-0.63713247,0.52106804,1.2437216
496,1778472096,-0.23405088,-0.3704789,0.29945824,0.535118,0.07391469,1.5949692
497,1778472096,-0.233776324764352,-0.384542524983296,0.179841212367552,0.59818901768064,0.039019459164672,1.629177199632
498,1778472096,-0.233501769528704,-0.398606149966592,0.0602241847351039,0.66126003536128,0.004124228329344,1.663385199264
499,1778472096,-0.233227207264352,-0.4126701349832959,-0.059395905132448,0.72433266768064,-0.0307718958353279,1.697594074632
500,1778472096,-0.232952645,-0.42673412,-0.1790159949999999,0.7874053,-0.06566802,1.73180295
501,1778472096,-0.16852153,-0.394396515,-0.36022849,1.0140363,-0.17592919,2.2925773
502,1778472096,-0.07028849,-0.34778157,-0.45004156,0.86498517,-0.064751714,2.3970351
503,1778472096,0.0033557874999999,-0.2806048124999999,-0.4574853175,0.441960996,0.152105453,2.4141394
504,1778472096,0.077000065,-0.213428055,-0.464929075,0.018936822,0.36896262,2.4312437
505,1778472096,0.06613952,-0.15473229,-0.39830142,0.018936822,0.36896262,2.4312437
506,1778472096,-0.0078098318,-0.14863087,-0.34119204,-0.081855945,0.33169982,2.3402247
507,1778472096,0.0103725882063314,-0.1414717939099993,-0.376051839133145,0.0364493041918711,0.1101574678627931,2.392250510614568
508,1778472096,0.0285550082126628,-0.1343127178199986,-0.41091163826629,0.1547545533837423,-0.1113848842744137,2.444276321229136
509,1778472096,0.046736962755,-0.127153825,-0.445770545,0.273056774,-0.332921565,2.4963008
510,1778472096,0.1028083945723192,-0.0804581385457706,-0.50359104238816,0.3172421294202112,-0.4166090329533654,2.52445113967104
511,1778472096,0.1588812618366666,-0.0337612566666666,-0.56141302,0.361428616,-0.5002986433333334,2.5526022
512,1778472096,0.2149541291010141,0.0129356252124373,-0.61923499761184,0.4056151025797888,-0.5839882537133014,2.58075326032896
513,1778472096,0.2710255609183333,0.0596313116666666,-0.677055495,0.449800458,-0.6676757216666667,2.6089036
514,1778472096,0.3270969927356525,0.106326998120896,-0.7348759923881599,0.4939858134202112,-0.751363189620032,2.63705393967104
515,1778472096,0.38316986,0.15302388,-0.79269797,0.5381723,-0.8350528,2.665205
516,1778472096,0.6781819059391871,0.2944690683085696,-0.6974554402445567,0.4170921653607808,-0.844455156181952,2.6358678229889407
517,1778472096,0.9731863996666666,0.4359106356666666,-0.6022153486666666,0.2960151303333334,-0.8538572716666667,2.606531397
518,1778472096,1.268190893394146,0.5773522030247638,-0.5069752570887766,0.1749380953058859,-0.8632593871513814,2.577194971011059
519,1778472096,1.563202939333333,0.7187973913333333,-0.4117327273333333,0.0538579606666666,-0.8726617433333334,2.547857794
520,1778472096,1.8582149852725205,0.8602425796419029,-0.3164901975778901,-0.0672221739725525,-0.8820640995152853,2.518520616988941
521,1778472096,2.153219479,1.001684147,-0.221250106,-0.188299209,-0.891466215,2.489184191
522,1778472096,2.4482239727274795,1.143125714358097,-0.1260100144221098,-0.3093762440274474,-0.9008683304847148,2.4598477650110593
523,1778472096,2.743236018666667,1.2845709026666663,-0.0307674846666666,-0.4304563786666667,-0.9102706866666668,2.430510588
524,1778472096,3.038248064605854,1.4260160909752362,0.0644750450887765,-0.5515365133058859,-0.9196730428486186,2.401173410988941
525,1778472096,3.3332525583333332,1.567457658333333,0.1597151366666667,-0.6726135483333334,-0.9290751583333332,2.3718369850000003
526,1778472096,2.34719255089632,1.37898689162336,0.076075746431232,0.675116099673024,-0.1887413955601279,0.9628179906739842
527,1778472096,1.3611073,1.1905113,-0.007565785,2.02288025,0.55161132,-0.446237075
528,1778472096,1.2629950441792,1.09654804728576,-0.263829172629376,2.10214103952512,0.393700628769024,-0.4644105451174399
529,1778472096,1.1648853,1.0025872,-0.520086,2.1813998,0.23579398,-0.48258355
530,1778472096,0.90667265,0.855298635,-0.48530784,1.6927075,0.33108896,-0.8790351
531,1778472096,0.47932845,0.6382097,-0.23722363,0.41233405,1.6016886,-1.4953982
532,1778472096,0.3871139045585687,0.5671878295755929,-0.1103116990641026,0.398691158830971,1.6860912737871947,-1.5559767005265088
533,1778472096,0.2949017197792843,0.4961677772877964,0.0165969829679486,0.3850486169154855,1.7704917868935974,-1.6165536502632545
534,1778472096,0.202689535,0.425147725,0.143505665,0.371406075,1.8548923,-1.6771306
535,1778472096,0.160996068053636,0.3821932767934003,0.1523731490015616,0.5259563021450575,1.8879811490212308,-1.8273028814537324
536,1778472096,0.119302601107272,0.3392388285868006,0.1612406330031231,0.680506529290115,1.9210699980424617,-1.9774751629074647
537,1778472096,0.0776102015,0.29628548,0.1701078899999999,0.8350528,1.954158,-2.1276436
538,1778472096,0.0966734589829078,0.273832603200669,0.0271741422116314,1.262854798752432,1.5748171408335323,-2.2942033906765196
539,1778472096,0.1157372044914539,0.2513791516003345,-0.1157632647275176,1.690667749376216,1.1954665704167662,-2.46076744533826
540,1778472096,0.13480095,0.2289257,-0.2587006716666666,2.1184807,0.816116,-2.6273315
541,1778472096,0.1501689829878725,0.2403740695081768,-0.2900727546353314,2.118036441533256,0.7969572683953668,-2.635883500484539
542,1778472096,0.1655370159757451,0.2518224390163537,-0.3214448376039962,2.117592183066511,0.7777985367907336,-2.6444355009690774
543,1778472096,0.180905442390298,0.2632711016065415,-0.3528177237082652,2.1171479132266047,0.7586393147162934,-2.652987720387631
544,1778472096,0.1962738688048509,0.2747197641967293,-0.3841906098125341,2.116703643386698,0.7394800926418532,-2.6615399398061843
545,1778472096,0.2116419017927235,0.2861681337049061,-0.4155626927811989,2.116259384919953,0.7203213610372201,-2.6700919402907233
546,1778472096,0.2270099347805961,0.297616503213083,-0.4469347757498637,2.115815126453209,0.7011626294325869,-2.678643940775262
547,1778472096,0.242378361195149,0.3090651658032707,-0.4783076618541326,2.115370856613302,0.6820034073581467,-2.6871961601938157
548,1778472096,0.2577467876097019,0.3205138283934585,-0.5096805479584016,2.1149265867733953,0.6628441852837065,-2.695748379612369
549,1778472096,0.2731148205975745,0.3319621979016354,-0.5410526309270663,2.114482328306651,0.6436854536790734,-2.7043003800969077
550,1778472096,0.288482853585447,0.3434105674098123,-0.5724247138957311,2.1140380698399066,0.6245267220744402,-2.7128523805814466
551,1778472096,0.30385128,0.35485923,-0.6037976,2.1135938,0.6053675,-2.7214046
552,1778472096,0.7510861925,0.670059145,-0.391955935,1.016021635,0.5300783075,-2.746297425
553,1778472096,1.3019640666666668,0.6271050783333333,-0.1577016576666666,1.0522154133333332,-0.8355618533333334,-3.374216
554,1778472096,0.8105141,0.18426323,-0.7319277,0.92485,-1.9572122,-2.9138272
555,1778472096,0.6766068840063829,0.1025033513246322,-0.7459204360698194,0.5907038533227121,-1.849902617636618,-2.659501463114824
556,1778472096,0.5426996680127658,0.0207434726492644,-0.7599131721396389,0.2565577066454244,-1.7425930352732362,-2.4051757262296483
557,1778472096,0.40879588,-0.061014313,-0.77390555,-0.077579886,-1.6352862,-2.1508565
558,1778472096,0.0061014313,-0.27724904,-0.43100512,-1.2614367,-1.2443326,-1.0390818
559,1778472096,0.10714114,-0.2933568,0.009274175,-2.0653355,-1.0671816,0.089186326
560,1778472096,0.1242253636752639,-0.2964685698301439,0.100979862567776,-2.32434566528768,-0.99754205862528,0.6139262795854336
561,1778472096,0.14130915,-0.29958026,0.1926832025,-2.5833492,-0.9279043,1.1386528
562,1778472096,0.17547716,-0.30580372,0.37609223,-2.6163359,-0.6963864,1.7336355
563,1778472096,0.04612682,-0.33069757,0.72582626,-1.8429805,-0.38056904,2.1252003
564,1778472096,-0.019280521,-0.34509695,0.7246059,-1.8429805,-0.38056904,2.1252003
565,1778472096,-0.038561042,-0.35705575,0.6745742,-1.10139,-0.36713,2.4043655
566,1778472096,0.04368625,-0.34631723,0.4720067,-0.6377433,-0.398895,2.601675
567,1778472096,0.0772777938329613,-0.3199254597633317,0.4211950553129753,-0.5969328634619079,-0.3914881736989426,2.608734745785082
568,1778472096,0.1108693376659227,-0.2935336895266635,0.3703834106259507,-0.5561224269238156,-0.3840813473978852,2.6157944915701625
569,1778472096,0.144460021566369,-0.2671425949106654,0.3195730667003802,-0.5153130351195263,-0.3766747107091541,2.622854056628065
570,1778472096,0.1780507054668154,-0.2407515002946672,0.2687627227748099,-0.4745036433152368,-0.369268074020423,2.629913621685968
571,1778472096,0.2116422492997768,-0.214359730057999,0.2179510780877852,-0.4336932067771447,-0.3618612477193655,2.636973367471049
572,1778472096,0.2452337931327382,-0.1879679598213308,0.1671394334007605,-0.3928827702390525,-0.3544544214183082,2.64403311325613
573,1778472096,0.2788244770331845,-0.1615768652053326,0.1163290894751901,-0.3520733784347631,-0.3470477847295771,2.6510926783140323
574,1778472096,0.3124151609336309,-0.1351857705893345,0.0655187455496197,-0.3112639866304737,-0.3396411480408459,2.658152243371935
575,1778472096,0.3460067047665923,-0.1087940003526663,0.014707100862595,-0.2704535500923815,-0.3322343217397885,2.665211989157016
576,1778472096,0.3795982485995536,-0.0824022301159981,-0.0361045438244295,-0.2296431135542893,-0.3248274954387312,2.6722717349420972
577,1778472097,0.4131889325,-0.0560111355,-0.08691488775,-0.18883372175,-0.31742085875,2.6793313
578,1778472097,0.7025150878278079,0.2005507607156928,-0.0690226693983264,-0.1762729666547232,-0.605554656215184,2.74465491384704
579,1778472097,0.99184865,0.457119225,-0.051129993,-0.16371189,-0.89369583,2.8099802
580,1778472097,1.2839851,0.6321083,-0.08932495,0.034208454,-1.0409144,2.7623327
581,1778472097,1.5209647,0.78415596,-0.14277348,0.034208454,-1.0409144,2.7623327
582,1778472097,1.6849711,0.91253006,-0.17303659,0.05375614,-1.0299188,2.624888
583,1778472097,1.7562358750000002,1.01979323,-0.1852394524999999,0.0004581489999999,-0.948521015,2.3493877750000003
584,1778472097,1.82750065,1.1270563999999998,-0.1974423149999999,-0.052839842,-0.86712323,2.07388755
585,1778472097,1.8299413,1.202226,-0.20598431,-0.12034045,-0.77579886,1.8246545
586,1778472097,1.8375069,1.2661691,-0.18963248,-0.5002986,-0.79168135,1.1759156
587,1778472097,1.9089756265253268,1.2957409023428166,-0.1843038511962829,-0.5002986,-0.79168135,1.1759156
588,1778472097,1.9804443530506537,1.3253127046856332,-0.1789752223925658,-0.5002986,-0.79168135,1.1759156
589,1778472097,2.05191125,1.35488375,-0.17364673,-0.5002986,-0.79168135,1.1759156
590,1778472097,2.1804073,1.4445748,-0.18231077,-0.59986967,-1.0671816,1.2162327
591,1778472097,2.506712,1.6058967,-0.12129646,-1.0641272,-1.4172074,1.4428637
592,1778472097,2.6501386977843104,1.6720780294802324,0.0292080785779139,-1.1325452843203596,-1.2396461996609691,1.334026015860633
593,1778472097,2.7935617238921555,1.7382576647401162,0.1797087642889569,-1.2009616171601798,-1.0620895448304846,1.2251911179303163
594,1778472097,2.93698475,1.8044373,0.33020945,-1.26937795,-0.88453289,1.11635622
595,1778472097,2.8749943,1.7638018,0.5715821,-1.4746287,-0.35185838,0.78984874
596,1778472097,2.7229466,1.6866796,0.71142685,-1.1472049,1.6230689,-0.6401868
597,1778472097,2.5255044,1.598819,0.7814713,-1.1472049,1.6230689,-0.6401868
598,1778472097,2.21457945489024,1.45195940482688,0.6921475058592,-0.0577406953203197,1.82251389707136,-1.4452968444595198
599,1778472097,1.90364655,1.30509605,0.602821425,1.0317514,2.021964,-2.2504275
600,1778472097,1.5924735,1.0960611,0.34290043,1.0317514,2.021964,-2.2504275
601,1778472097,1.1282767,0.8102701,-0.11836776,2.3457224,0.8381071,-3.073263
602,1778472097,0.967323675300116,0.7296918968856027,-0.2323405565060416,2.3111073241048574,0.5290145665800936,-3.114393964689217
603,1778472097,0.806366530150058,0.6491116309428013,-0.3463162707530208,2.2764913620524285,0.2199141202900468,-3.1555259823446087
604,1778472097,0.645409385,0.568531365,-0.460291985,2.2418754,-0.089186326,-3.196658
605,1778472097,0.6005638575,0.5125202325,-0.4851858175,2.0022635,0.014660763,-3.141832775
606,1778472097,0.5557183299999999,0.4565091,-0.51007965,1.7626516,0.118507852,-3.08700755
607,1778472097,0.5812591880350385,0.4120780190315545,-0.4378135592547027,1.5429211389888793,0.3300526527910328,-3.104142480459442
608,1778472097,0.6068000460700772,0.3676469380631089,-0.3655474685094054,1.3231906779777587,0.5415974535820657,-3.1212774109188843
609,1778472097,0.6323402502675193,0.3232169945157772,-0.2932832277523513,1.1034658419944396,0.7531368388955164,-3.1384119027297213
610,1778472097,0.6578804544649612,0.2787870509684455,-0.2210189869952972,0.8837410060111206,0.9646762242089671,-3.155546394540558
611,1778472097,0.6834213124999999,0.23435597,-0.14875289625,0.664010545,1.176221025,-3.172681325
612,1778472097,0.6291796,0.037828874,0.00024405724,0.74464476,1.29198,-3.4012976
613,1778472097,0.516669155,-0.0970127544999999,-0.0130570625999999,1.1743884,0.83474735,-3.570202
614,1778472097,0.561026009724992,-0.1034801894657728,-0.0660778201256166,1.37810934233856,0.5510040840602931,-3.5792121346688
615,1778472097,0.6053839999999999,-0.10994779,-0.119099935,1.5818355,0.2672535542,-3.5882225
616,1778472097,0.6099804784455614,-0.1120223120713901,-0.1792203960427351,1.625105871804893,0.1470128557183459,-3.5971820195738435
617,1778472097,0.6145768392227806,-0.1140967810356951,-0.2393393180213675,1.6683751359024466,0.0267752353591729,-3.606141309786922
618,1778472097,0.6191732,-0.11617125,-0.29945824,1.7116444,-0.093462385,-3.6151006
619,1778472097,0.5657247,-0.12544543,-0.39073566,1.1478158,0.4654793,-3.5845573
620,1778472097,0.5199340808773573,-0.1599507658633821,-0.4130742694448877,0.9119579376996418,0.4535193015094645,-3.342156521858575
621,1778472097,0.4741446339795595,-0.1944552184014727,-0.4354123070286934,0.6761061132832736,0.4415596091909713,-3.099761949097642
622,1778472097,0.4283551870817618,-0.2289596709395634,-0.4577503446124991,0.4402542888669055,0.4295999168724782,-2.8573673763367076
623,1778472097,0.3825645679591191,-0.2634650068029455,-0.4800889540573868,0.2043964265665472,0.4176399183819427,-2.6149665981952825
624,1778472097,0.3367739488364763,-0.2979703426663277,-0.5024275635022745,-0.0314614357338109,0.4056799198914072,-2.3725658200538575
625,1778472097,0.2909845019386786,-0.3324747952044183,-0.5247656010860802,-0.2673132601501791,0.3937202275729141,-2.1301712472929237
626,1778472097,0.2451950550408809,-0.366979247742509,-0.5471036386698859,-0.5031650845665473,0.3817605352544209,-1.8877766745319904
627,1778472097,0.1994044359182381,-0.4014845836058911,-0.5694422481147736,-0.7390229468669055,0.3698005367638854,-1.6453758963905651
628,1778472097,0.1536138167955954,-0.4359899194692733,-0.5917808575596613,-0.9748808091672636,0.3578405382733499,-1.40297511824914
629,1778472097,0.1078243698977977,-0.4704943720073639,-0.614118895143467,-1.210732633583632,0.3458808459548568,-1.1605805454882063
630,1778472097,0.062034923,-0.5049988245454545,-0.6364569327272727,-1.446584458,0.3339211536363636,-0.9181859727272728
631,1778472097,0.06882414,-0.9796458,-0.013667206,-3.9278636,-1.006095,2.3218987
632,1778472097,0.0780171202248543,-0.9312809579172604,0.2246180793501497,-3.814240660859993,-1.0763457322638177,2.9280910788841767
633,1778472097,0.0872098651124271,-0.8829173539586302,0.4628972646750748,-3.700620630429997,-1.1465946661319089,3.5342679394420884
634,1778472097,0.09640261,-0.83455375,0.70117645,-3.5870006,-1.2168436,4.1404448
635,1778472097,0.50788313,-0.46663743,0.99770606,-3.5870006,-1.2168436,4.1404448
636,1778472097,0.6266596804271805,-0.3652705966948552,0.9426295333726435,-2.723222458375076,-1.361417500696323,4.29947601409798
637,1778472097,0.7454331902135902,-0.2639063583474276,0.8875544166863218,-1.8594664291875376,-1.5059877003481614,4.45850315704899
638,1778472097,0.8642067,-0.16254212,0.8324793,-0.9957104,-1.6505579,4.6175303
639,1778472097,1.1656175,0.0993313,0.4556549,-0.9957104,-1.6505579,4.6175303
640,1778472097,1.17098679372608,0.147411187914688,0.2892667342587391,-0.4242386237548928,-1.82710023471296,4.42632715263104
641,1778472097,1.17635595,0.195489845,0.122882828,0.147218523,-2.00363805,4.235128899999999
642,1778472097,1.1678139,0.30287504,-0.111290105,0.3866777,-2.1410828,4.0927973
643,1778472097,1.41638625,0.449675485,-0.09414508075,0.3060434875,-2.13222525,4.121813325
644,1778472097,1.6649585999999998,0.59647593,-0.0770000565,0.225409275,-2.1233677,4.15082935
645,1778472097,1.78869565,0.6827501650000001,-0.02690730825,-0.0592539274999999,-1.88115955,3.968486075
646,1778472097,1.9124327,0.7690244,0.02318544,-0.34391713,-1.6389514,3.7861428
647,1778472097,1.9152393,0.8307708500000001,0.16852154,-0.479529215,-1.36558925,3.4779613
648,1778472097,1.9180459,0.8925173,0.31385764,-0.6151413,-1.0922271,3.1697798
649,1778472097,1.5395131,0.88324314,0.7558453,-0.6151413,-1.0922271,3.1697798
650,1778472097,1.300706149268096,0.8248531924008959,0.691720088313216,-0.0464330295590399,-0.5937674178656,2.12307559798528
651,1778472097,1.061893085,0.7664617499999999,0.627593235,0.5222898,-0.095294975,1.0763446
652,1778472097,0.9780986599267836,0.7754106860598872,0.4127378281813255,0.832003769050748,-0.4819792609940095,1.01077726933188
653,1778472097,0.8943063799633918,0.7843593930299435,0.1978879215906627,1.141709809525374,-0.8686536479970047,0.94521161716594
654,1778472097,0.8105141,0.7933081,-0.016961985,1.45141585,-1.255328035,0.879645965
655,1778472097,0.8856837,0.8539563,-0.19378147,1.4587462,-1.5931365,0.9315695
656,1778472097,1.2005177,0.96036524,-0.379509,0.98532563,-1.6340646,1.0231993
657,1778472097,1.4057697,1.014546,-0.45297024,0.98532563,-1.6340646,1.0231993
658,1778472097,1.7960173,1.0960611,-0.5525456,0.50946164,-1.4257594,1.1001683
659,1778472097,2.0647242,1.1858741,-0.48225713,0.50946164,-1.4257594,1.1001683
660,1778472097,2.3202522,1.2525018,-0.35485923,-1.3054191,-0.9456194,1.3005321
661,1778472097,2.7124522,1.2700739,0.020500809,-1.3054191,-0.9456194,1.3005321
662,1778472097,2.65674693803648,1.23987218658688,0.2790761621931136,-1.58549721495424,-0.803595032935168,1.06871171733888
663,1778472097,2.60104025,1.2096697,0.537658135,-1.8655825,-0.66156703,0.8368854
664,1778472097,2.56009900095872,1.19606332584064,0.651024168566656,-1.91170344034048,-0.4480669122334719,0.602310132475008
665,1778472097,2.5191588,1.1824573,0.7643873,-1.9578232,-0.23457226,0.36774087
666,1778472097,2.3614979,1.1460928,0.80514485,-1.4740179,0.18509217,-0.021991149
667,1778472097,2.2344660999999997,1.11546365,0.6818959450000001,-1.03114055,0.305738055,-0.2254092745
668,1778472097,2.1074343,1.0848345,0.55864704,-0.5882632,0.42638394,-0.4288274
669,1778472097,1.812125,1.0121055,0.21745501,0.116675265,0.39828414,-0.8344419
670,1778472097,1.64482594145536,0.9686638060608,0.127765118045312,0.288326200339904,0.361021831963648,-1.05648860776576
671,1778472097,1.4775226,0.925221,0.03807293,0.45998153,0.32375857,-1.278541
672,1778472097,1.3352373,0.8871481,0.04368625,0.28344148,0.4709771,-1.6358972
673,1778472097,1.3053107523406595,0.8561151805589404,0.0626981139160215,0.3359482042575947,0.5364951229757459,-1.7077206389630153
674,1778472097,1.275384204681319,0.8250822611178809,0.081709977832043,0.3884549285151893,0.6020131459514918,-1.7795440779260303
675,1778472097,1.245456890892552,0.7940485472239147,0.1007223284580107,0.4409629969621307,0.6675328462100951,-1.8513693555926187
676,1778472097,1.215529577103785,0.7630148333299485,0.1197346790839784,0.493471065409072,0.7330525464686984,-1.923194633259207
677,1778472098,1.1856030294444444,0.7319819138888889,0.1387465429999999,0.5459777896666667,0.7985705694444443,-1.9950180722222224
678,1778472098,1.155676481785104,0.7009489944478293,0.1577584069160215,0.5984845139242614,0.8640885924201902,-2.0668415111852374
679,1778472098,1.125749167996337,0.6699152805538631,0.1767707575419892,0.6509925823712026,0.9296082926787936,-2.138666788851826
680,1778472098,1.09582185420757,0.6388815666598968,0.1957831081679568,0.703500650818144,0.9951279929373968,-2.210492066518414
681,1778472098,1.0658953065482295,0.6078486472188374,0.2147949720839784,0.7560073750757387,1.0606460159131428,-2.282315505481429
682,1778472098,1.035968758888889,0.5768157277777778,0.233806836,0.8085140993333333,1.1261640388888887,-2.3541389444444443
683,1778472098,1.0125935,0.17645338,0.04271002,2.2284365,0.67073005,-3.2265902
684,1778472098,0.9061846,0.02757847,-0.11495096,2.5686884,0.6407976,-3.8496728
685,1778472098,0.9148486,-0.0269683249999999,-0.1812125,2.45201315,0.709519975,-3.91686795
686,1778472098,0.9235126,-0.08151512,-0.24747404,2.3353379,0.77824235,-3.9840631
687,1778472098,0.99917036,-0.06199054,-0.29897013,2.3353379,0.77824235,-3.9840631
688,1778472098,1.1568314,-0.027090356,-0.3287451,2.193617,0.7861836,-3.9474113
689,1778472098,1.1805049,-0.033923957,-0.328257,1.8234328,0.78801614,-4.006665
690,1778472098,1.1039009992339848,-0.0801381631604714,-0.3276517417979233,1.7043641512785697,0.6456860006792824,-3.994081304858688
691,1778472098,1.0272951373830077,-0.1263535524197642,-0.3270464681010383,1.5852924543607152,0.5033522176603588,-3.981497287570656
692,1778472098,0.9506892755320308,-0.1725689416790571,-0.3264411944041533,1.4662207574428603,0.3610184346414352,-3.968913270282625
693,1778472098,0.8740853747660154,-0.2187831478395285,-0.3258359362020767,1.3471521087214302,0.2186882953207176,-3.956329575141313
694,1778472098,0.797481474,-0.264997354,-0.325230678,1.22808346,0.076358156,-3.94374588
695,1778472098,0.14130914,-0.46078008,-0.42807645,0.86315256,-0.57726765,-2.7751608
696,1778472098,-0.20256752,-0.42002252,-0.5954997,0.86315256,-0.57726765,-2.7751608
697,1778472098,-0.2462940651953715,-0.4114805945586968,-0.5494546179230632,0.3655052666445936,-0.5526296319137789,-1.945307448172579
698,1778472098,-0.290020610390743,-0.4029386691173935,-0.5034095358461262,-0.1321420267108126,-0.5279916138275577,-1.1154540963451576
699,1778472098,-0.333748275,-0.394396525,-0.457363275,-0.62980206,-0.503352965,-0.2855795
700,1778472098,-0.2709838166113988,-0.3969456046148463,-0.3349258004271805,-1.0460120098922234,-0.3857933336746397,0.3768472830501677
701,1778472098,-0.208220964972366,-0.3994946189740898,-0.2124914602135902,-1.4622113049461116,-0.2682367118373198,1.0392571081917503
702,1778472098,-0.1454581133333333,-0.4020436333333333,-0.0900571199999999,-1.8784106,-0.15068009,1.7016669333333334
703,1778472098,-0.0520452054166666,-0.4218936316666666,0.1113511175,-1.96179365,-0.07014769,2.109215916666667
704,1778472098,0.0413677025,-0.44174363,0.312759355,-2.0451767,0.01038471,2.5167649
705,1778472098,0.082247294,-0.48396555,0.41538543,-2.0451767,0.01038471,2.5167649
706,1778472098,0.15009521,-0.48665017,0.34290043,-2.0451767,0.01038471,2.5167649
707,1778472098,0.1568068422718623,-0.4927923207456821,0.2309585514415298,-1.4389896272698568,-0.2492352420619005,2.794303634966891
708,1778472098,0.1635184745437246,-0.4989344714913643,0.1190166728830596,-0.832802554539714,-0.5088551941238011,3.0718423699337816
709,1778472098,0.170229935,-0.505076465,0.0070776599999999,-0.226631,-0.7684685,3.349374
710,1778472098,0.276698542184384,-0.478718632384576,-0.158818139006592,-0.1371403899944704,-0.8924725452279041,3.4277165222028803
711,1778472098,0.383169875,-0.452360125,-0.324718185,-0.047647489,-1.016479765,3.50606105
712,1778472098,0.5008055,-0.4036707,-0.42929673,-0.5027421,-1.196685,3.5784485
713,1778472098,0.5452777604985195,-0.3622626677975088,-0.3371252209847224,-0.6265430657737917,-1.1039700289556578,3.6193082624366752
714,1778472098,0.5897500209970389,-0.3208546355950176,-0.2449537119694448,-0.7503440315475834,-1.0112550579113155,3.6601680248733506
715,1778472098,0.63422342,-0.2794455433333333,-0.1527798433333333,-0.8741481666666666,-0.9185377133333332,3.7010288333333334
716,1778472098,0.762395780585216,-0.1753537963093589,-0.0178144566318293,-0.9553943232708266,-0.5762451703781973,3.677001159116373
717,1778472098,0.89056486,-0.071264714,0.117147475,-1.0366384,-0.23396139,3.6529741
718,1778472098,1.010397,0.024405725,0.117147475,-1.0366384,-0.23396139,3.6529741
719,1778472098,0.9401085,0.0078098318,0.08932495,-0.3885103,-0.39584067,2.8661797
720,1778472098,0.75267255,-0.03807293,0.0078098318,-0.3885103,-0.39584067,2.8661797
721,1778472098,0.693610695,-0.05527897,-0.1142187840999999,-0.0320704349999999,-0.923322835,2.9657507
722,1778472098,0.63454884,-0.07248501,-0.2362474,0.32436943,-1.450805,3.0653217
723,1778472098,1.2068632,0.10860548,-0.51520485,0.32436943,-1.450805,3.0653217
724,1778472098,1.7027875,0.28554696,-0.6286915,0.26816985,-1.949271,3.685961
725,1778472098,1.735759272364729,0.2977741047924346,-0.6332309135158105,0.2464843550623105,-1.9528750730938191,3.696406683034836
726,1778472098,1.7687310447294584,0.3100012495848693,-0.6377703270316212,0.2247988601246211,-1.9564791461876383,3.706852366069673
727,1778472098,1.8017036611823645,0.3222287073962173,-0.6423098567579053,0.2031128100311552,-1.9600833115469096,3.717298316517418
728,1778472098,1.8346762776352707,0.3344561652075653,-0.6468493864841894,0.1814267599376894,-1.963687476906181,3.7277442669651633
729,1778472098,1.86764805,0.34668331,-0.6513888,0.159741265,-1.96729155,3.73818995
730,1778472098,1.9006198223647293,0.3589104547924346,-0.6559282135158105,0.1380557700623105,-1.970895623093819,3.7486356330348367
731,1778472098,1.933592438817635,0.3711379126037826,-0.6604677432420947,0.1163697199688447,-1.9744997884530904,3.759081583482582
732,1778472098,1.9665650552705416,0.3833653704151306,-0.6650072729683788,0.0946836698753788,-1.9781039538123617,3.769527533930327
733,1778472098,1.9995368276352707,0.3955925152075653,-0.6695466864841895,0.0729981749376894,-1.9817080269061809,3.779973216965163
734,1778472098,2.0325086,0.40781966,-0.6740861,0.05131268,-1.9853121,3.7904189
735,1778472098,2.815810425,0.890442865,0.175934769,-1.37146884,-1.152244575,3.327841125
736,1778472098,2.81886122654976,1.077210073089664,0.2360498889636864,-0.855548346302208,-0.47379367843968,2.1025061284128
737,1778472098,2.8219119499999996,1.2639725,0.29616347,-0.33964106,0.20463985,0.8772025
738,1778472098,2.425685,1.1758678,0.22135992,-0.049480084,0.48502702,0.09712757
739,1778472098,2.0249429,1.1236396,0.13227904,0.16187929,0.39706242,-0.16737708
740,1778472098,1.9241474,1.1312053,0.10958171,0.16187929,0.39706242,-0.16737708
741,1778472098,1.8879663631232,1.13935060823872,0.119770968325824,0.25114082868768,0.358349326783936,-0.361629733534208
742,1778472098,1.8517853262464,1.14749591647744,0.129960226651648,0.34040236737536,0.319636233567872,-0.555882387068416
743,1778472098,1.8156033631232,1.15564143323872,0.140149745825824,0.42966619118768,0.280922149283936,-0.750140013534208
744,1778472098,1.7794214,1.16378695,0.150339265,0.518930015,0.242208065,-0.94439764
745,1778472098,1.581979,1.0706791,0.17938207,0.61758476,0.5626069,-1.7977765
746,1778472098,1.3372537575232,0.95347211276864,0.1956116747584,0.6534726356293119,0.660344086448,-1.97629953987584
747,1778472098,1.09252225,0.836262125,0.211841695,0.6893614299999999,0.758083775,-2.15482715
748,1778472098,0.9193637,0.7353445,0.1867038,0.7611381,0.95356065,-2.3817637
749,1778472098,0.9786696,0.66237134,0.110557936,0.7611381,0.95356065,-2.3817637
750,1778472098,1.0084445,0.6128277,0.07468152,1.2956452,0.80756384,-2.7666087
751,1778472098,1.1265682,0.55913514,0.0021965152,1.3842206,0.7275405,-2.8906143
752,1778472098,1.23285651047296,0.509346832717824,0.0063455412068531,1.42575998169728,0.65454116562048,-3.01889764200576
753,1778472098,1.3391421,0.4595598,0.010494461,1.4672983,0.5815437,-3.1471777
754,1778472098,1.3459758,0.375116,0.022697324,1.3994923,0.7360926,-3.6829066
755,1778472098,1.3414606999999998,0.2272172999999999,0.051618109,1.35001225,0.9724975,-4.0512581999999995
756,1778472098,1.38777114276608,0.1555855781256959,0.0304458709988224,1.37841783858688,1.10566780455808,-4.3007999940940795
757,1778472098,1.4340804,0.08395569,0.009274175,1.4068227,1.2388347,-4.5503354
758,1778472098,1.7335385,-0.058573738,-0.16620298,1.6151277,0.72082096,-5.137377
759,1778472098,1.5456146,0.043930303,-0.04002539,1.6151277,0.72082096,-5.137377
760,1778472098,1.7127937000000002,-0.124225139,-0.22148194,1.6151277,0.72082096,-5.137377
761,1778472098,1.6683753,-0.1945136345,-0.28097091,1.58641705,0.474336845,-5.2256468499999995
762,1778472098,1.6239569,-0.26480213,-0.34045988,1.5577064,0.22785273,-5.3139167
763,1778472098,1.5624546,-0.35583547,-0.38316986,1.2901474,-0.15577064,-5.102557
764,1778472098,1.4516525,-0.46932206,-0.43124917,0.97005403,-0.28344148,-4.6755624
765,1778472098,1.3213259,-0.5112999,-0.48494175,0.97005403,-0.28344148,-4.6755624
766,1778472098,1.065557193881344,-0.551690875488896,-0.528688450035072,0.7310560542132479,-0.266642897524608,-4.3582220870079995
767,1778472098,0.80978194,-0.592082885,-0.5724362700000001,0.4920519599999999,-0.249843885,-4.04087365
768,1778472098,0.48689422,-0.6277153,-0.5625519,0.50885075,-0.24740042,-4.0610323
769,1778472098,0.29579738,-0.64016217,-0.51349646,-0.36346483,-0.30787608,-2.7214046
770,1778472098,0.131912938,-0.5815884,-0.2446673899999999,-0.93523467,-0.5992588,-1.4361442
771,1778472098,0.1126729278206813,-0.54790822593286,-0.0885100941414649,-1.0893776620033622,-0.5408188613189063,-0.7650011896529508
772,1778472098,0.0934329176413626,-0.5142280518657201,0.06764720171707,-1.2435206540067243,-0.4823789226378127,-0.0938581793059016
773,1778472098,0.0741934,-0.48054874,0.2238005,-1.3976597,-0.42394048,0.57726765
774,1778472098,-0.022941383,-0.45419052,0.47688788,-1.2742649,0.15393804,1.2596041
775,1778472098,-0.0640650265,-0.45040764,0.54095289,-1.06107293,0.35185837,1.46821455
776,1778472098,-0.10518867,-0.44662476,0.6050179,-0.84788096,0.5497787,1.676825
777,1778472099,-0.1143468738344862,-0.456988443746298,0.5371559852315807,-0.7138808972732141,0.4741988900308643,1.7601546909390633
778,1778472099,-0.1235050776689724,-0.467352127492596,0.4692940704631614,-0.5798808345464282,0.3986190800617286,1.8434843818781268
779,1778472099,-0.1326635159564778,-0.477716076552594,0.4014304184074868,-0.4458773413741269,0.3230373352246914,1.926816206084584
780,1778472099,-0.1418219542439832,-0.4880800256125919,0.3335667663518121,-0.3118738482018255,0.2474555903876542,2.0101480302910413
781,1778472099,-0.1509801580784695,-0.4984437093588899,0.2657048515833928,-0.1778737854750396,0.1718757804185186,2.093477721230105
782,1778472099,-0.1601383619129557,-0.508807393105188,0.1978429368149735,-0.0438737227482538,0.0962959704493829,2.1768074121691683
783,1778472099,-0.1692968002004611,-0.5191713421651859,0.1299792847592989,0.0901297704240475,0.0207142256123457,2.2601392363756254
784,1778472099,-0.1784552384879665,-0.5295352912251838,0.0621156327036243,0.2241332635963489,-0.0548675192246914,2.3434710605820825
785,1778472099,-0.1876134423224528,-0.5398989749714819,-0.0057462820647949,0.3581333263231347,-0.1304473291938271,2.426800751521146
786,1778472099,-0.196771646156939,-0.5502626587177799,-0.0736081968332142,0.4921333890499206,-0.2060271391629627,2.5101304424602096
787,1778472099,-0.2059300844444444,-0.5606266077777778,-0.1414718488888889,0.6261368822222222,-0.2816088839999999,2.5934622666666667
788,1778472099,0.1666911,-0.436008275,-0.1846293,-0.206167025,-0.290466425,3.5827247
789,1778472099,0.3099527,-0.38683072,-0.06443111,-0.43066,-0.02565634,3.6468656
790,1778472099,0.41636166,-0.34753752,-0.012935034,-0.4642576,0.10567969,3.6395352
791,1778472099,0.4181514219391064,-0.3415987393230535,-0.0165145708783237,-0.3066530171247738,0.0590499107643103,3.5291712582397516
792,1778472099,0.4199411838782128,-0.3356599586461071,-0.0200941077566474,-0.1490484342495477,0.0124201315286206,3.418807316479503
793,1778472099,0.4217309,-0.32972133,-0.023673553,0.008552114,-0.034208454,3.3084462
794,1778472099,0.39683739364096,-0.346194991634432,-0.1707161593305471,0.008552114,-0.034208454,3.3084462
795,1778472099,0.37194325,-0.362669075,-0.31776253,0.008552114,-0.034208454,3.3084462
796,1778472099,0.6678054369875199,-0.326426106095936,-0.5860458989831681,0.2394621326104064,-0.6047639300166143,3.70307015112192
797,1778472099,0.96366005,-0.290184065,-0.8543224,0.47036624,-1.1753048,4.097684
798,1778472099,1.48319037492672,-0.184630658600896,-0.8829377637186561,0.3136813055928319,-1.21103994258432,4.23024010326016
799,1778472099,2.002734,-0.07907455,-0.91155386,0.15699236,-1.246776,4.3627996
800,1778472099,3.2008922,0.2713103233333333,-0.73176498,-0.9120218133333332,-1.3836098,4.7175085333333335
801,1778472099,3.6397886,0.4711118316666666,-0.490229655,-1.4230106066666666,-1.5454891,4.648887966666667
802,1778472099,4.078685,0.67091334,-0.24869433,-1.9339994,-1.7073684,4.5802674
803,1778472099,4.4830875,0.87226063,0.006833603,-1.9339994,-1.7073684,4.5802674
804,1778472099,4.6546597,1.189047,0.38048524,-1.7916678,-0.9431759,3.5778377
805,1778472099,4.60475066384384,1.23187850174976,0.411480120760448,-1.73562161740032,-0.8443697147353599,3.4672724902528
806,1778472099,4.55484162768768,1.27471000349952,0.4424750015208959,-1.67957543480064,-0.74556352947072,3.3567072805055997
807,1778472099,4.50493131384384,1.31754260174976,0.473470675760448,-1.62352781740032,-0.64675481473536,3.2461392402528
808,1778472099,4.455021,1.3603752,0.50446635,-1.5674802,-0.5479461,3.1355712
809,1778472099,3.21069515,1.2024701,0.23527119,0.313373865,0.97830068,-0.246484125
810,1778472099,2.652342379342594,1.1085096369457623,0.048448555147114,0.5428516551955832,0.7053503884112708,-0.6162549058312284
811,1778472099,2.0939753146712974,1.0145467684728813,-0.138378862426443,0.7723353200977916,0.4323931092056354,-0.9860351529156144
812,1778472099,1.53560825,0.9205839,-0.32520628,1.001818985,0.15943583,-1.3558154
813,1778472099,1.1734272,0.8500514,-0.2979939,0.74036866,0.22724187,-1.4672983
814,1778472099,0.97452056,0.81417495,-0.21086545,0.5009095,0.41172317,-1.4819591
815,1778472099,0.856885,0.78757274,-0.05344854,0.3811799,0.5656612,-1.4337007
816,1778472099,0.8468786,0.8300387,0.24186075,0.47219884,0.7892379,-1.196685
817,1778472099,0.8468786,0.8300387,0.29262465,0.47219884,0.7892379,-1.196685
818,1778472099,1.3081468,0.9776934,0.29042813,0.82711154,0.8381071,-1.2278391
819,1778472099,1.7164546,0.9962417,0.23990828,0.82711154,0.8381071,-1.2278391
820,1778472099,1.70376348755584,0.89373633794816,0.217454727598208,1.046109523138304,0.846048451648,-1.67316560010624
821,1778472099,1.6910727,0.7912336,0.19500175,1.2651019,0.8539896,-2.1184807
822,1778472099,1.5419537,0.6303999,0.16595893,1.7482964,0.75869465,-3.3903022
823,1778472099,1.3379217,0.44101146,0.09225364,1.7482964,0.75869465,-3.3903022
824,1778472099,1.1114367,0.17230442,-0.1683995,2.2321017,0.4605924,-4.2620068
825,1778472099,1.0899596500000002,0.086396267245,-0.307024025,2.28494145,0.29413162,-4.6199739
826,1778472099,1.0684826,0.00048811449,-0.44564855,2.3377812,0.12767084,-4.977941
827,1778472099,1.1331578,-0.026602242,-0.5430274,2.1007655,0.24251351,-5.0347514
828,1778472099,1.143154104339947,-0.0614859264637792,-0.538798712748496,1.952849380893743,0.208546422518512,-5.02560951006864
829,1778472099,1.153150152777778,-0.0963687179166666,-0.5345701337500001,1.804937048391667,0.1745802045833333,-5.016467854166667
830,1778472099,1.1631462012156089,-0.1312515093695541,-0.530341554751504,1.6570247158895903,0.1406139866481546,-5.0073261982646935
831,1778472099,1.1731425055555555,-0.1661351938333333,-0.5261128675000001,1.509108596783333,0.1066468991666666,-4.998184308333333
832,1778472099,1.1831388098955022,-0.2010188782971125,-0.521884180248496,1.3611924776770763,0.0726798116851786,-4.989042418401973
833,1778472099,1.1931348583333334,-0.23590166975,-0.51765560125,1.2132801451750002,0.03871359375,-4.9799007625
834,1778472099,1.2031309067711644,-0.2707844612028874,-0.513427022251504,1.0653678126729238,0.0047473758148213,-4.9707591065980266
835,1778472099,1.213127211111111,-0.3056681456666666,-0.509198335,0.9174516935666668,-0.0292197116666666,-4.961617216666666
836,1778472099,1.2231235154510578,-0.3405518301304459,-0.504969647748496,0.7695355744604098,-0.0631867991481546,-4.952475326735306
837,1778472099,1.233119563888889,-0.3754346215833333,-0.50074106875,0.6216232419583334,-0.0971530170833333,-4.943333670833333
838,1778472099,1.24311561232672,-0.4103174130362208,-0.4965124897515039,0.473710909456257,-0.1311192350185119,-4.93419201493136
839,1778472099,1.2531119166666669,-0.4452010975,-0.4922838025,0.32579479035,-0.1650863225,-4.925050124999999
840,1778472099,1.1216851702962047,-0.4770452279710317,-0.4345779468565738,-0.0396243394771339,-0.183216198782224,-4.4575204822253385
841,1778472099,0.9902617884073844,-0.5088885432427579,-0.3768735684641434,-0.4050341146942834,-0.201345610945556,-3.9900028080563343
842,1778472099,0.8588384065185642,-0.5407318585144841,-0.319169190071713,-0.7704438899114329,-0.2194750231088879,-3.52248513388733
843,1778472099,0.7274116601481023,-0.5725759889855159,-0.2614633344282869,-1.1358630197385668,-0.237604899391112,-3.0549554911126693
844,1778472099,0.5959849137776404,-0.6044201194565476,-0.2037574787848608,-1.501282149565701,-0.2557347756733361,-2.5874258483380084
845,1778472099,0.4645615318888202,-0.6362634347282737,-0.1460531003924304,-1.8666919247828504,-0.273864187836668,-2.119908174169004
846,1778472099,0.33313815,-0.66810675,-0.088348722,-2.2321017,-0.2919936,-1.6523905
847,1778472099,-0.0525943375,-0.517035275,0.618685135,-1.960572025,-0.02336559725,-0.2399173285
848,1778472099,-0.2908582934896,-0.545407285657088,0.6889745171925761,-1.5456365013932798,0.0457394209079104,0.2664200867859583
849,1778472099,-0.52911615,-0.57377857,0.7592621,-1.1307116,0.11484267,0.77274454
850,1778472099,-0.58793317213248,-0.625579071945088,0.67921234964992,-0.2666537525820159,-0.0323739706028799,1.301594325636096
851,1778472099,-0.6467517,-0.6773809,0.59916055,0.597426215,-0.17959438,1.83045765
852,1778472099,-0.6050179,-0.873725,0.016595893,0.8527679,-0.21502456,2.039679
853,1778472099,-0.6582224,-0.83687234,0.22819352,1.563815,-0.10567969,3.14168
854,1778472099,-0.3782887299999999,-0.88678198,-0.37853282,1.1325442,0.07574729,4.0543127
855,1778472099,-0.1865817638999999,-0.84291269,-0.51435066,1.1325442,0.07574729,4.0543127
856,1778472099,0.0051252022,-0.7990434,-0.6501685,1.1325442,0.07574729,4.0543127
857,1778472099,0.09811102,-0.7397375,-0.54766446,0.41783184,0.18203785,4.356691
858,1778472099,0.23380683,-0.66090703,-0.25601605,-0.4361578,0.19792034,4.537507
859,1778472099,0.30629185,-0.59745216,-0.113974735,-0.4361578,0.19792034,4.537507
860,1778472099,0.3922,-0.53228885,-0.024649782,-0.35918877,-0.037873644,4.4904704
861,1778472099,0.46248847,-0.4795725,0.03172744,-0.35918877,-0.037873644,4.4904704
862,1778472099,0.4887648548772911,-0.440496888010092,-0.0471017044098258,-0.1516338734266875,-0.1731440540221183,4.364227065691596
863,1778472099,0.5150419124386456,-0.4014202756717127,-0.1259328668715795,0.0559263366199895,-0.3084179270110592,4.237980499512465
864,1778472099,0.54131897,-0.3623436633333333,-0.2047640293333333,0.2634865466666666,-0.4436918,4.111733933333333
865,1778472099,0.626739,-0.33045352,-0.6958072,0.49113566,-0.58276546,3.9645154
866,1778472099,0.74254269269376,-0.331856822037504,-0.86408249604864,0.434936774354944,-0.713641649763328,3.92542057542016
867,1778472099,0.85834935,-0.33326016,-1.0323621,0.37873645,-0.84452119,3.88632475
868,1778472099,1.1945439376475206,-0.2750515162518624,-1.0912622718834002,0.0374605756329626,-0.8637637784026385,4.09361517104457
869,1778472099,1.5307299188237602,-0.2168443626259312,-1.1501609359417,-0.3038065621835187,-0.8830058742013193,4.300900285522285
870,1778472099,1.8669159,-0.158637209,-1.2090596,-0.6450737,-0.90224797,4.5081854
871,1778472099,3.30734185,0.152779825,-0.2648021049999999,-2.1209242,-0.86254174,4.799568
872,1778472099,3.5376127974303997,0.273467687284864,0.016660512675392,-2.73790599726592,-0.778241240967424,4.57995933904512
873,1778472099,3.76787785,0.39415246,0.298115925,-3.354872,-0.6939429,4.3603563
874,1778472099,3.8591537422048328,0.5077184901149435,0.4502423453425265,-3.111548152780148,-0.5387857813820528,4.044340660069291
875,1778472099,3.950431971102416,0.6212874275574717,0.6023726601712633,-2.868218076390074,-0.3836246906910263,3.7283169300346457
876,1778472099,4.0417102,0.734856365,0.7545029750000001,-2.624888,-0.2284636,3.4122932
877,1778472100,4.0708747,0.92131615,0.7856203,-2.624888,-0.2284636,3.4122932
878,1778472100,3.8822188,0.95572823,0.73485637,-1.6352862,0.11728613,2.5735753
879,1778472100,3.312101,0.9071608,0.50788313,-0.14110987,0.3659083,0.75808376
880,1778472100,3.01044228881792,0.862009652072704,0.34118989635392,0.075444636862208,0.33047764649344,0.533282472580352
881,1778472100,2.7087913,0.81685966,0.17450093,0.2919936,0.2950479,0.30848694
882,1778472100,2.6433848724141704,0.8108026832148675,0.1347645285081268,0.3732930783854797,0.2718075797508075,0.1972277172395784
883,1778472100,2.577976770402362,0.8047455513691446,0.0950271097513544,0.4545946380642466,0.2485666645418012,0.0859656462065964
884,1778472100,2.512568668390553,0.7986884195234216,0.0552896909945821,0.5358961977430136,0.2253257493327949,-0.0252964248263856
885,1778472100,2.4471622408047233,0.7926314427382891,0.0155532895027089,0.6171956761284932,0.2020854290836025,-0.1365556475868072
886,1778472100,2.3817558132188936,0.7865744659531567,-0.0241831119891642,0.6984951545139729,0.1788451088344101,-0.2478148703472286
887,1778472100,2.316347711207085,0.7805173341074337,-0.0639205307459365,0.7797967141927399,0.1556041936254037,-0.3590769413802107
888,1778472100,2.2509396091952767,0.7744602022617109,-0.1036579495027089,0.8610982738715067,0.1323632784163975,-0.4703390124131928
889,1778472100,2.185533181609447,0.7684032254765784,-0.1433943509945821,0.9423977522569864,0.109122958167205,-0.5815982351736143
890,1778472100,2.1201267540236173,0.7623462486914458,-0.1831307524864552,1.023697230642466,0.0858826379180126,-0.6928574579340359
891,1778472100,2.0547186520118084,0.756289116845723,-0.2228681712432276,1.104998790321233,0.0626417227090063,-0.8041195289670179
892,1778472100,1.98931055,0.750231985,-0.26260559,1.18630035,0.0394008075,-0.9153816
893,1778472100,1.8188139167967603,0.7191394068365202,-0.2009953264971737,1.08082535861107,0.1352310078195212,-1.1347003341474151
894,1778472100,1.648317283593521,0.6880468286730405,-0.1393850629943475,0.9753503672221404,0.2310612081390425,-1.3540190682948308
895,1778472100,1.4778162856206023,0.6569534545293713,-0.0777732222485868,0.8698726756388684,0.326893861743094,-1.5733434170737075
896,1778472100,1.3073152876476837,0.625860080385702,-0.0161613815028262,0.7643949840555966,0.4227265153471455,-1.7926677658525847
897,1778472100,1.1368186544444443,0.5947675022222222,0.0454488819999999,0.6589199926666667,0.5185567156666667,-2.0119865
898,1778472100,1.5634308,0.3904916,0.1632743,1.3469579,0.57604593,-3.209486
899,1778472100,1.380876,0.13960074,0.06833603,1.6126842,0.6218608,-3.9504654
900,1778472100,1.32584034555264,0.0419765944269312,0.001585518104384,1.70278800331392,0.69027860073664,-4.29194357086464
901,1778472100,1.2708061,-0.055645052,-0.065163285,1.7928895,0.75869465,-4.633413
902,1778472100,1.3039979,-0.09567044,-0.107629254,1.8167132,0.8491027,-4.8521028
903,1778472100,1.3740423,-0.1313028,-0.1718163,1.7415768,0.8332202,-4.944343
904,1778472100,1.5295068,-0.16791138,-0.31507793,1.5265522,0.6151413,-5.041471
905,1778472100,1.5406114000000002,-0.21208574,-0.37572615,1.5265522,0.6151413,-5.041471
906,1778472100,1.551716,-0.2562601,-0.43637437,1.5265522,0.6151413,-5.041471
907,1778472100,1.4743499,-0.33313814,-0.42954078,0.9114109,0.19792034,-5.0665164
908,1778472100,1.3789234,-0.37804466,-0.35315084,0.6719518,0.05681047,-4.9754972
909,1778472100,1.2935034,-0.41538543,-0.2853029,0.19242255,-0.1563815,-4.5185704
910,1778472100,1.2036903,-0.46712556,-0.22599702,0.07696902,-0.22540927,-4.2308526
911,1778472100,1.0468835375,-0.48359943,-0.2437521799999999,0.006719515,-0.2573269824999999,-3.928932475
912,1778472100,0.890076775,-0.5000732999999999,-0.26150734,-0.06352999,-0.289244695,-3.62701235
913,1778472100,0.78025102,-0.4939718775,-0.2868892975,-0.1475239599999999,-0.3304781,-3.2771393
914,1778472100,0.670425265,-0.487870455,-0.3122712549999999,-0.23151793,-0.371711505,-2.9272662499999997
915,1778472100,0.5850052,-0.46614933,-0.30751213,-0.65301496,-0.5467244,-1.5289958
916,1778472100,0.49860895,-0.4356422,-0.17132819,-0.65301496,-0.5467244,-1.5289958
917,1778472100,0.39342028,-0.4334457,-0.06980037,-1.0409144,-0.42821655,-0.74036866
918,1778472100,0.2523552,-0.46273252,0.021232981,-1.1636983,-0.29138273,-0.4972443
919,1778472100,-0.037584815,-0.5418071,0.1598575,-1.2980887,0.23273966,0.18448131
920,1778472100,-0.19451363,-0.5950116,0.21818718,-1.2046263,0.35063666,0.4550946
921,1778472100,-0.34534101,-0.645470425,0.2425318925,-1.2046263,0.35063666,0.4550946
922,1778472100,-0.49616839,-0.69592925,0.266876605,-1.2046263,0.35063666,0.4550946
923,1778472100,-0.6191732,-0.7470592,0.2403964,-0.8912524,0.30848694,0.906524
924,1778472100,-0.66920495,-0.78684056,0.20598431,-0.33108896,-0.073303826,1.5033394
925,1778472100,-0.617600844805112,-0.7811730550299948,0.1475737762207127,-0.0624462857801633,-0.2579193085943833,1.853226425370277
926,1778472100,-0.5659967396102241,-0.7755055500599897,0.0891632424414255,0.2061963884396733,-0.4425347911887667,2.2031134507405543
927,1778472100,-0.5143913133333333,-0.7698379000000001,0.0307512133333333,0.4748459399999999,-0.627155,2.553009433333333
928,1778472100,-0.4111944557637973,-0.7358728402528001,-0.0682152650880426,0.56118264509568,-0.53318234716544,2.849486511524693
929,1778472100,-0.30800024,-0.70190865,-0.16717921,0.64751714,-0.4392121,3.145956
930,1778472100,-0.18353106,-0.60819066,-0.3333822,0.45753807,-0.19730948,3.4281757
931,1778472100,-0.076450937,-0.541685055,-0.3642554424999999,0.306196205,-0.212428395,3.5185838000000005
932,1778472100,0.030629186,-0.4751794499999999,-0.395128685,0.15485434,-0.22754731,3.6089919
933,1778472100,0.1774785838592028,-0.4477278818660513,-0.4287561797014471,0.0815090279060859,-0.3146482244458761,3.679449782386821
934,1778472100,0.3243279817184056,-0.4202763137321026,-0.4623836744028942,0.0081637158121718,-0.4017491388917523,3.749907664773642
935,1778472100,0.4711811389703139,-0.3928240428290142,-0.4960120299792249,-0.0651834739457659,-0.4888522831495798,3.820367350905339
936,1778472100,0.6180342962222222,-0.3653717719259259,-0.5296403855555556,-0.1385306637037036,-0.5759554274074073,3.8908270370370377
937,1778472100,0.764883694081425,-0.3379202037919772,-0.5632678802570027,-0.2118759757976177,-0.6630563418532835,3.961284919423858
938,1778472100,0.9117330919406278,-0.3104686356580285,-0.5968953749584498,-0.2852212878915318,-0.7501572562991596,4.031742801810679
939,1778472100,1.058586249192536,-0.2830163647549402,-0.6305237305347805,-0.3585684776494696,-0.8372604005569872,4.102202487942376
940,1778472100,1.2054394064444445,-0.2555640938518518,-0.6641520861111111,-0.4319156674074074,-0.9243635448148148,4.172662174074074
941,1778472100,1.3522888043036472,-0.2281125257179031,-0.6977795808125583,-0.5052609795013214,-1.011464459260691,4.243120056460895
942,1778472100,1.49913820216285,-0.2006609575839544,-0.7314070755140054,-0.5786062915952355,-1.098565373706567,4.313577938847716
943,1778472100,1.6459913594147582,-0.1732086866808661,-0.765035431090336,-0.6519534813531733,-1.1856685179643949,4.384037624979413
944,1778472100,1.7928445166666669,-0.1457564157777778,-0.7986637866666667,-0.7253006711111111,-1.2727716622222225,4.454497311111111
945,1778472100,2.4800224137846634,0.1880884556354468,-0.3040905198570092,-1.4818847911402764,-0.8075904397453908,4.2156284124481
946,1778472100,3.16720031090266,0.5219333270486716,0.1904827469526482,-2.238468911169442,-0.3424092172685593,3.97675951378509
947,1778472100,3.8543958,0.855786745,0.685068675,-2.9950724,0.122783914,3.7378845
948,1778472100,3.6059456,0.91497064,0.94303715,-2.9950724,0.122783914,3.7378845
949,1778472100,2.980427,0.8812907,1.1478013,-0.5369505,0.44776422,2.2101104
950,1778472100,2.8324081446656,0.8535905545664,1.1342562233792,-0.5369505,0.44776422,2.2101104
951,1778472100,2.6843855,0.8258897,1.1207108,-0.5369505,0.44776422,2.2101104
952,1778472100,2.5048792023488,0.794161863888896,0.9745186787648,-0.5369505,0.44776422,2.2101104
953,1778472100,2.3253775,0.76243484,0.8283303,-0.5369505,0.44776422,2.2101104
954,1778472100,2.3895645333333335,0.87079625,0.1485495233333333,2.5892542,0.004886922,1.4406238
955,1778472100,2.3888323,1.0133257,-0.6894617,3.0353894,0.065973446,0.8362745
956,1778472100,2.12573525740096,1.02534567885376,-0.887028603824,2.4006923259814403,0.1744034108857856,0.0375579765593599
957,1778472100,1.86264495,1.03736535,-1.08459045,1.7660115,0.2828306,-0.7611381
958,1778472100,1.5212089,1.0033194,-0.822717,0.49174652,0.5290093,-1.3078625
959,1778472100,1.275199,0.9266854,-0.34338856,0.49174652,0.5290093,-1.3078625
960,1778472100,1.11649880616352,0.855236707968448,-0.1043924328887296,0.2263221746118656,0.6661503053824,-1.43736760764416
961,1778472100,0.957802675,0.783789845,0.134597576,-0.039095376,0.8032878,-1.5668694
962,1778472100,0.8878814766703929,0.7202140150413865,0.1713275638001843,0.3375984203435846,0.8161157477335563,-1.892862269650476
963,1778472100,0.8179584883351965,0.6566365575206933,0.2080584919000921,0.7143018601717923,0.8289440238667782,-2.2188634848252384
964,1778472100,0.7480355,0.5930591,0.24478942,1.0910053,0.8417723,-2.5448647
965,1778472100,0.8511894697415242,0.564952094849514,0.1393169127102494,1.2319103642613942,0.6867156631669041,-2.6511543429834368
966,1778472100,0.9543434394830485,0.536845089699028,0.0338444054204988,1.3728154285227885,0.5316590263338083,-2.7574439859668733
967,1778472100,1.05750005,0.508737365,-0.071630802,1.5137241,0.37659842,-2.86373635
968,1778472100,1.1787965,0.4527262,-0.15619664,1.9285016,-0.2125811,-3.3719761
969,1778472100,1.25665075,0.41489732,-0.1748670199999999,1.9172006,-0.234114105,-3.4180964499999997
970,1778472100,1.334505,0.37706844,-0.1935374,1.9058996,-0.25564711,-3.4642168
971,1778472100,1.416386915383401,0.3317140863144691,-0.169131465072021,1.746666041224357,-0.2459749907989726,-3.7509186464911086
972,1778472100,1.498268830766802,0.2863597326289381,-0.144725530144042,1.5874324824487147,-0.2363028715979452,-4.037620492982217
973,1778472100,1.58014865,0.24100654,-0.12032022,1.428203,-0.226631,-4.324315
974,1778472100,1.705106,0.0588177925,-0.0807829499999999,1.3878859,-0.17715092,-4.4232752
975,1778472100,1.596743625319572,-0.0717946245450259,-0.1230052136253712,1.2818998522639689,-0.0869457159254445,-4.56306274283843
976,1778472100,1.4883812506391438,-0.2024070415900518,-0.1652274772507424,1.175913804527938,0.0032594881491108,-4.702850285676861
977,1778472101,1.38002165,-0.333016115,-0.20744866,1.06993047,0.093462383,-4.84263425
978,1778472101,1.2859375,-0.41172457,-0.31825066,0.81183994,-0.15332718,-4.3866234
979,1778472101,1.3542736,-0.414409185,-0.333016115,0.81183994,-0.15332718,-4.3866234
980,1778472101,1.4226097,-0.4170938,-0.34778157,0.81183994,-0.15332718,-4.3866234
981,1778472101,1.54427225,-0.390491585,-0.28627915,0.62124997,-0.5387831399999999,-3.9532144
982,1778472101,1.6659348,-0.36388937,-0.22477673,0.43066,-0.9242391,-3.5198054
983,1778472101,1.548360225,-0.3704789049999999,-0.2136111075,0.255647107,-1.074512,-3.2739322
984,1778472101,1.43078565,-0.37706844,-0.2024454849999999,0.080634214,-1.2247849,-3.028059
985,1778472101,1.4175558818432,-0.3779429696392106,-0.1974728815668053,0.0169523279719082,-1.17174210395648,-2.966464205090133
986,1778472101,1.4043261136864,-0.3788174992784213,-0.1925002781336106,-0.0467295580561834,-1.11869930791296,-2.9048694101802663
987,1778472101,1.3910960068432,-0.3796920513058773,-0.1875275474001386,-0.1104130743614251,-1.06565515395648,-2.8432730384234666
988,1778472101,1.3778659,-0.3805666033333333,-0.1825548166666666,-0.1740965906666667,-1.012611,-2.7816766666666664
989,1778472101,1.3646361318432,-0.381441132972544,-0.1775822132334719,-0.2377784766947584,-0.95956820395648,-2.7200818717568
990,1778472101,1.3514063636864,-0.3823156626117547,-0.1726096098002773,-0.3014603627228502,-0.90652540791296,-2.6584870768469333
991,1778472101,1.3381762568432,-0.3831902146392106,-0.1676368790668053,-0.3651438790280918,-0.85348125395648,-2.596890705090133
992,1778472101,1.32494615,-0.3840647666666666,-0.1626641483333333,-0.4288273953333334,-0.8004371,-2.5352943333333333
993,1778472101,1.3117163818431998,-0.3849392963058773,-0.1576915449001386,-0.4925092813614251,-0.74739430395648,-2.4736995384234666
994,1778472101,1.2984866136864,-0.385813825945088,-0.152718941466944,-0.5561911673895169,-0.69435150791296,-2.4121047435136
995,1778472101,1.2852565068431998,-0.386688377972544,-0.147746210733472,-0.6198746836947585,-0.64130735395648,-2.3505083717568
996,1778472101,1.2720264,-0.38756293,-0.14277348,-0.6835582,-0.5882632,-2.288912
997,1778472101,0.1000634727272727,-0.4561429999999999,0.1301268866727272,-0.5150149481818181,0.6495718972727272,-0.77280008
998,1778472101,-0.3892040359320902,-0.58183086617472,-0.1248098309318816,-0.1883311666968366,0.6758804068831301,0.4400850848711681
999,1778472101,-0.8784840700000001,-0.7075219500000001,-0.379753075,0.138360978,0.7021895899999999,1.6530013
1000,1778472101,-0.64235866,-0.6286915,-0.4554108,-0.116675265,0.48991394,2.3432791
