id,timestamp,acc_x,acc_y,acc_z,gyro_x,gyro_y,gyro_z
0,1778472044,0.084931925,0.15180361,0.5027579,0.57726765,0.15149458,-0.1386664
1,1778472044,0.11153416,0.19963883,0.56767714,0.57726765,0.15149458,-0.1386664
2,1778472044,0.09322987,0.1398448,0.485918,0.28344148,-0.16798794,-0.20280726
3,1778472044,0.1889003,0.093473926,0.4612682,0.28344148,-0.16798794,-0.20280726
4,1778472044,0.14008886,0.114462845,0.44662476,0.28344148,-0.16798794,-0.20280726
5,1778472044,0.22453266,0.08444381,0.51520485,0.047647487,-0.806953,-0.24617869
6,1778472044,0.260165,0.027334413,0.5440036,0.047647487,-0.806953,-0.24617869
7,1778472044,0.2336438936894562,-0.0132607877412789,0.4785956985263849,0.0824671051236048,-0.8816828376864526,-0.2565634819490903
8,1778472044,0.2071227873789125,-0.0538559884825579,0.4131877970527699,0.1172867232472096,-0.9564126753729052,-0.2669482738981807
9,1778472044,0.18060236,-0.09445015,0.34778157,0.15210545,-1.0311406,-0.2773328
10,1778472044,0.1571732660838766,-0.1320614436479275,0.2305276256040436,0.197037214265852,-1.1462527909490163,-0.2710885110150072
11,1778472044,0.1337435723752716,-0.1696737001572971,0.1132706794686884,0.2419701287995926,-1.2613679288078414,-0.2648440621741703
12,1778472044,0.1103138786666666,-0.2072859566666667,-0.0039862666666666,0.2869030433333333,-1.3764830666666663,-0.2585996133333333
13,1778472044,0.4753625143333333,-0.2752762383333333,0.0389474719166666,0.2624175291666666,-2.9127072833333334,0.2575306183333333
14,1778472044,0.84041115,-0.34326652,0.0818812105,0.237932015,-4.4489315000000005,0.77366085
15,1778472044,0.97683915,-0.44857722,0.122028615,0.08735373,-5.361564,0.838718
16,1778472044,1.02656646150144,-0.4290523850853119,0.138990809613312,-0.410202403636992,-4.9434213978432,1.0088461776128
17,1778472044,1.0762925,-0.40952805,0.15595257,-0.9077458,-4.5252895,1.17897
18,1778472044,1.15615917769344,-0.41898516644736,0.2885959971424,-1.1546848891392,-4.280335760448001,1.23929215286656
19,1778472044,1.2360278999999998,-0.428442525,0.42124282,-1.4016303,-4.03537575,1.29961585
20,1778472044,1.3955194,-0.46785772,0.70117646,-1.8955148,-3.545462,1.4202617
21,1778472044,1.6647146,-0.49592432,0.9906283,-2.905275,-2.3823745,1.750129
22,1778472044,1.668049959742465,-0.5274071643525787,1.0487943072874355,-2.820977055370004,-2.571535854938219,1.7591899953570331
23,1778472044,1.6713854048712324,-0.5588908146762894,1.106961803643718,-2.736676952685002,-2.7607020524691093,1.7682512226785168
24,1778472044,1.67472085,-0.590374465,1.1651293,-2.65237685,-2.9498682499999997,1.7773124500000002
25,1778472044,1.912554625,-0.5803681125,1.2538441,-1.94682755,-4.462981474999999,2.0586159
26,1778472044,2.1503884,-0.5703617599999999,1.3425589,-1.24127825,-5.9760947,2.3399193499999997
27,1778472044,2.102213596148181,-0.5118121308243392,1.3342631128893585,-1.2260969155888144,-5.873841333766258,2.3231401366177065
28,1778472044,2.0540387922963625,-0.4532625016486784,1.3259673257787166,-1.2109155811776284,-5.771587967532516,2.306360923235413
29,1778472044,2.0058652217037367,-0.3947143713243392,1.3176717510375064,-1.1957346354036291,-5.669337218951443,2.2895821393954843
30,1778472044,1.9576916511111109,-0.336166241,1.3093761762962963,-1.1805536896296296,-5.567086470370371,2.2728033555555553
31,1778472044,1.9095168472592925,-0.2776166118243391,1.3010803891856546,-1.1653723552184438,-5.464833104136629,2.256024142173262
32,1778472044,1.8613420434074737,-0.2190669826486783,1.292784602075013,-1.150191020807258,-5.362579737902887,2.239244928790969
33,1778472044,1.813168472814848,-0.1605188523243391,1.2844890273338028,-1.1350100750332586,-5.260328989321813,2.22246614495104
34,1778472044,1.7649949022222222,-0.1019707219999999,1.2761934525925926,-1.1198291292592593,-5.158078240740741,2.205687361111111
35,1778472044,1.7168200983704036,-0.0434210928243391,1.267897665481951,-1.1046477948480733,-5.055824874506999,2.1889081477288177
36,1778472044,1.6686452945185848,0.0151285363513216,1.2596018783713092,-1.0894664604368876,-4.9535715082732565,2.1721289343465244
37,1778472044,1.6204717239259592,0.0736766666756608,1.251306303630099,-1.0742855146628882,-4.851320759692184,2.1553501505065955
38,1778472044,1.5722981533333331,0.132224797,1.243010728888889,-1.0591045688888887,-4.749070011111112,2.1385713666666666
39,1778472044,0.39451854,0.7481575,0.86994205,0.4202753,-3.258966,2.3634377
40,1778472044,0.5972106844262399,0.84437828161024,0.731437792168192,0.328033459319552,-2.19421427135232,2.4514033259456
41,1778472044,0.79989764,0.9405966,0.59293708,0.23579398,-1.1294898,2.5393667
42,1778472044,0.96622264,1.040416,0.48835856,0.23579398,-1.1294898,2.5393667
43,1778472044,0.853529205,1.11766015,0.705325445,-0.1695151099999999,-0.623387965,2.1230621
44,1778472044,0.7408357699999999,1.1949043,0.92229233,-0.5748242,-0.11728613,1.7067575
45,1778472044,0.5903134624999999,1.18367765,1.247925715,-0.3869831335,0.4570799349999999,1.220661485
46,1778472044,0.439791155,1.172451,1.5735591,-0.199142067,1.031446,0.7345654699999999
47,1778472044,0.3287451,1.129985,1.6188318,0.6939429,1.0586295,0.5852089
48,1778472044,0.474022024520832,1.13218157811584,1.32595930128,1.0754331580128,0.8388679070876159,0.5485565208555521
49,1778472044,0.6192952300000001,1.1343781,1.0330943,1.4569136500000002,0.6191119399999999,0.51190508
50,1778472044,1.29875065,1.12034485,0.767926115,2.778826,-0.5656612,0.29810223
51,1778472044,1.43679731697472,1.075590263398624,0.7396761271547839,2.91848682513568,-0.6776800588230399,-0.3947805212856959
52,1778472044,1.57484398394944,1.030835676797248,0.711426139309568,3.05814765027136,-0.7896989176460799,-1.087663272571392
53,1778472044,1.71288711697472,0.986082235898624,0.6831768746547839,3.19780490013568,-0.9017149088230398,-1.780528286285696
54,1778472044,1.85093025,0.941328795,0.65492761,3.33746215,-1.0137309,-2.4733932999999997
55,1778472044,1.897789,0.84834296,0.94669807,2.8845057,0.20280726,-3.1050282
56,1778472044,2.4488704,0.7809832,1.364524,2.8112018,1.3390167,-3.40985
57,1778472044,2.84039422593088,0.7130141275152639,1.30595104974336,2.87641082781376,1.2987764650816,-3.50865614776512
58,1778472044,3.23191805186176,0.645045055030528,1.24737809948672,2.94161985562752,1.2585362301632,-3.60746229553024
59,1778472044,3.62345190093088,0.577074242515264,1.18880364974336,3.00683055281376,1.2182949650816,-3.70627097276512
60,1778472044,4.01498575,0.50910343,1.1302292,3.07204125,1.1780537,-3.80507965
61,1778472044,5.1658375,0.106775047,1.14511655,3.3142494,-0.387288575,-5.47304705
62,1778472044,5.1292294685888,-0.2760238516113791,1.05097268005696,3.23254724580096,-0.43707345024544,-5.920041953392
63,1778472044,5.092620500000001,-0.65883255,0.9568264,3.150843,-0.4868596,-6.3670483
64,1778472044,4.7312937,-0.9650024,0.83028275,2.7885997,-0.3830125,-6.986466
65,1778472044,4.361302925,-1.179162625,0.7782985600000001,2.7056747999999997,-0.13988813825,-7.129102850000001
66,1778472044,3.99131215,-1.39332285,0.7263143700000001,2.6227499,0.1032362235,-7.2717397
67,1778472044,3.2016175613590985,-1.6349822454671128,0.5272433066153361,2.6299785283501724,0.1512913657319649,-7.304930316556303
68,1778472044,2.411922972718197,-1.8766416409342253,0.3281722432306721,2.637207156700345,0.1993465079639297,-7.338120933112606
69,1778472044,1.6222486,-2.11829485,0.129106276,2.6444356,0.24740042,-7.3713107
70,1778472044,0.8344418510554623,-2.11933211172288,0.0024421893210623,2.88969486064128,-0.457223620696832,-6.96967199104128
71,1778472044,0.046614934,-2.1203694,-0.12422514,3.1349604,-1.1618657,-6.568023
72,1778472044,-0.1901246359702783,-1.976088404302525,-0.1592072770208299,2.884704995695768,-0.9450048322885644,-5.47537005229505
73,1778472044,-0.4268581454851392,-1.8318111021512624,-0.1941885185104149,2.6344559978478843,-0.7281495161442821,-4.3827450761475255
74,1778472044,-0.6635916550000001,-1.6875338,-0.22916976,2.384207,-0.5112942,-3.2901201
75,1778472044,-0.9227804275,-1.6362208,-0.368404405,2.1685716,-0.6151413,-2.7278187000000003
76,1778472044,-1.1819692,-1.5849078,-0.50763905,1.9529362,-0.7189884,-2.1655173
77,1778472044,-1.3899059,-1.6085813,-0.58842206,1.7403551,-1.0103711,-1.8338175
78,1778472044,-1.5705323617133722,-1.649663598853125,-0.4882246967235553,1.4917371764668736,-1.3272011260316756,-1.359183300527358
79,1778472044,-1.7511634475233528,-1.6907469494265626,-0.3880247683617777,1.2431128882334368,-1.6440392630158378,-0.884536950263679
80,1778472044,-1.9317945333333333,-1.7318303000000002,-0.28782484,0.9944886,-1.9608774,-0.4098906
81,1778472045,-1.945990384632622,-1.7395912405269518,-0.2479381598448329,0.9646175958829974,-1.9548299019271729,-0.1992664268191406
82,1778472045,-1.9601862359319109,-1.7473521810539037,-0.2080514796896657,0.9347465917659948,-1.9487824038543455,0.0113577463617187
83,1778472045,-1.9743824506496443,-1.755113320263476,-0.1681637784224164,0.9048748229414988,-1.9427347509635864,0.2219873115904297
84,1778472045,-1.988578665367378,-1.7628744594730483,-0.1282760771551671,0.8750030541170025,-1.936687098072827,0.4326168768191408
85,1778472045,-2.002774516666667,-1.7706354000000002,-0.088389397,0.84513205,-1.9306396,0.6432410500000002
86,1778472045,-2.016970367965955,-1.7783963405269518,-0.0485027168448328,0.8152610458829974,-1.924592101927173,0.8538652231808596
87,1778472045,-2.031166582683689,-1.7861574797365245,-0.0086150155775835,0.7853892770585013,-1.9185444490364136,1.0644947884095706
88,1778472045,-2.045362797401423,-1.7939186189460965,0.0312726856896657,0.7555175082340051,-1.912496796145654,1.2751243536382817
89,1778472045,-2.0595586487007114,-1.8016795594730484,0.0711593658448329,0.7256465041170025,-1.9064492980728271,1.485748526819141
90,1778472045,-2.0737545,-1.8094405,0.111046046,0.6957755,-1.9004018,1.6963727
91,1778472045,-0.7134607071716667,-1.3172583166666667,0.048445366,0.4598797166666666,-1.109942166666667,3.7121262666666666
92,1778472045,0.00561331638,-1.05469335,-0.200371,-0.53878313,0.16554448,4.148386
93,1778472045,0.1505007278649295,-1.1007384237436746,-0.2286814034147986,-0.5018261087039518,0.1285874493706981,4.263736682328245
94,1778472045,0.2953881393498591,-1.1467834974873492,-0.2569918068295971,-0.4648690874079036,0.0916304187413962,4.379087364656489
95,1778472045,0.44027926,-1.19282975,-0.285302935,-0.42791112,0.0546724419999999,4.494441
96,1778472045,1.7201155,-0.97342232,-0.556084425,-0.17715092,-0.30787608,5.4690766
97,1778472045,2.27701648407616,-0.8668926960966401,-0.69434107404224,-0.4750966262461439,-0.134698001707776,5.52344285410304
98,1778472045,2.83391746815232,-0.76036307219328,-0.83259772308448,-0.7730423324922879,0.0384800765844479,5.57780910820608
99,1778472045,3.39083270907616,-0.6538307210966401,-0.97085791154224,-1.070995666246144,0.2116625882922239,5.63217675410304
100,1778472045,3.94774795,-0.54729837,-1.1091181,-1.368949,0.3848451,5.6865444
101,1778472045,4.769509108333334,-0.0208058933333332,-0.58730339,-1.856826766666667,0.2881247683333333,5.82429465
102,1778472045,5.591270266666666,0.5056865833333334,-0.06548868,-2.344704533333333,0.1914044366666667,5.9620448999999995
103,1778472045,5.615228533333333,0.9377899416666668,0.43633371,-1.8369736666666667,0.0847066438333333,5.0173417
104,1778472045,5.6391868,1.3698933,0.9381561,-1.3292428,-0.021991149,4.0726385
105,1778472045,4.4413539,1.2610438,0.835408,-0.6078109300000001,0.3796527755,2.83685815
106,1778472045,3.243521,1.1521943,0.7326599,0.11362094,0.7812967,1.6010778
107,1778472045,2.91615972857936,1.10832442909784,0.522096804201872,0.6643993673736319,0.6548459609512576,1.245015163706592
108,1778472045,2.58879845715872,1.06445455819568,0.311533708403744,1.215177794747264,0.5283952219025152,0.8889525274131841
109,1778472045,2.26144556607936,1.02058581034784,0.100976002951872,1.7659421223736318,0.4019477199512576,0.5328990062065921
110,1778472045,1.934092675,0.9767170625,-0.1095817025,2.31670645,0.275500218,0.176845485
111,1778472045,1.142432,0.8849516,-0.6365013,2.3640485,-0.01282817,-0.47525316
112,1778472045,0.899595,0.8712844,-0.6242984,1.9529362,0.18875736,-0.5345071
113,1778472045,0.54839665,0.8407772,-0.3939084,1.0268645,0.79779,-0.56321776
114,1778472045,0.45809543,0.8449261,-0.20281157,0.7489208,1.0348058,-0.56688297
115,1778472045,0.42417148,0.85224795,-0.052716363,0.6017023,1.1863003,-0.59742624
116,1778472045,0.2928687,0.8429737,0.13520771,0.75991637,1.042747,-0.7415904
117,1778472045,0.3064544357335711,0.8584305364333075,0.128374166646983,0.855515975872921,0.9193532696399772,-0.7682646223770555
118,1778472045,0.3200401714671422,0.8738873728666149,0.121540623293966,0.951115581745842,0.7959595392799543,-0.7949388447541109
119,1778472045,0.333626255,0.889344605,0.114706905,1.046717635,0.67256265,-0.82161375
120,1778472045,0.481770923727488,0.894835972788608,-0.0036623776074239,1.4399672010300162,0.117279032460672,-1.16156462631552
121,1778472045,0.6299118,0.9003272,-0.12202863,1.8332067,-0.43799037,-1.5015068
122,1778472045,0.708954816986432,0.8887498794416,-0.135451604433728,1.695534690974272,-0.303487202287584,-1.57396975371232
123,1778472045,0.7879998575,0.8771722625,-0.1488749225,1.5578591575,-0.16898059125,-1.6464345625
124,1778472045,0.867044898013568,0.8655946455584,-0.1622982405662719,1.420183624025728,-0.034473980212416,-1.71889937128768
125,1778472045,0.946087915,0.854017325,-0.175721215,1.282511615,0.1000291874999999,-1.791362325
126,1778472045,1.438650202622016,0.915000346907328,0.02428113743712,0.970821597183296,0.37774023900304,-2.0566271170672
127,1778472045,1.9312251,0.97598493,0.22428861,0.6591236,0.6554584,-2.3218987
128,1778472045,2.29365476404032,0.926013557874624,0.3098317674383999,0.91935551842592,0.6279691056415361,-3.08976620357824
129,1778472045,2.65607515,0.876043465,0.395372735,1.179580775,0.6004805150000001,-3.85761405
130,1778472045,2.9606586,0.7197248,0.20671648,1.5925257,0.34697145,-4.4446554
131,1778472045,3.5866654,0.51569295,-0.29189247,1.5925257,0.34697145,-4.4446554
132,1778472045,3.453620849181177,0.4111876566086258,-0.2763584772785493,1.437601503662336,0.2892100084407893,-4.50480943662848
133,1778472045,3.320579704259259,0.3066850385185185,-0.2608248822222222,1.2826812733333333,0.2314500455555555,-4.5649619333333336
134,1778472045,3.1875385593373413,0.2021824204284112,-0.2452912871658951,1.1277610430043308,0.1736900826703218,-4.625114430038187
135,1778472045,3.0544940085185184,0.097677127037037,-0.2297572944444444,0.9728368466666668,0.1159286411111111,-4.685268466666667
136,1778472045,2.921449457699695,-0.0068281663543371,-0.2142233017229937,0.8179126503290027,0.0581671995519004,-4.7454225032951465
137,1778472045,2.7884083127777775,-0.1113307844444444,-0.1986897066666666,0.6629924200000001,0.0004072366666666,-4.805575
138,1778472045,2.65536716785586,-0.2158334025345517,-0.1831561116103395,0.5080721896709974,-0.057352726218567,-4.865727496704854
139,1778472045,2.522322617037037,-0.3203386959259259,-0.1676221188888889,0.3531479933333334,-0.1151141677777777,-4.9258815333333335
140,1778472045,2.3892780662182136,-0.4248439893173001,-0.1520881261674382,0.1982237969956695,-0.1728756093369884,-4.986035569961813
141,1778472045,2.256236921296296,-0.5293466074074075,-0.1365545311111111,0.0433035666666668,-0.2306355722222222,-5.046188066666667
142,1778472045,2.1231957763743785,-0.6338492254975147,-0.1210209360547839,-0.1116166636623357,-0.2883955351074559,-5.10634056337152
143,1778472045,1.9901512255555551,-0.7383545188888889,-0.1054869433333333,-0.2665408599999999,-0.3461569766666666,-5.1664946
144,1778472045,-0.577561465,-1.41687435,0.8164935,0.24862215,-0.6096435,-3.3243287
145,1778472045,-0.8896496925,-1.516083675,0.666093225,0.446847925,-0.630107485,-3.1545081500000003
146,1778472045,-1.20173792,-1.615293,0.51569295,0.6450737,-0.65057147,-2.9846876
147,1778472045,-1.4382313980518482,-1.6743146536449978,0.2829823810618962,0.9103950973802778,-0.5695293317826058,-2.5747935356154215
148,1778472045,-1.6747248761036966,-1.7333363072899954,0.0502718121237925,1.1757164947605556,-0.4884871935652115,-2.164899471230843
149,1778472045,-1.9112123,-1.79235645,-0.1824327995,1.4410311,-0.40744713,-1.7550159
150,1778472045,-1.804886514649964,-1.7410239094199065,-0.3140180872490101,1.1918023535583848,-0.4396188042630644,-0.4388273965713213
151,1778472045,-1.698558007324982,-1.6896900547099534,-0.4456067436245051,0.9425672267791924,-0.4717913021315322,0.8773948017143394
152,1778472045,-1.5922295,-1.6383562,-0.5771954,0.6933321,-0.5039638,2.193617
153,1778472045,-1.2646261144735622,-1.5027700347945308,-0.4960335014792881,0.258739105241025,-0.5267692542798547,2.6875991957424175
154,1778472045,-0.9370227289471244,-1.3671838695890617,-0.4148716029585762,-0.1758538895179499,-0.5495747085597095,3.1815813914848348
155,1778472045,-0.6094109566666667,-1.2315942333333334,-0.3337076266666667,-0.61045801,-0.5723807466666667,3.675576233333333
156,1778472045,-0.3363073976525226,-1.1042760570148693,-0.1668516776045226,-0.7749864909376,-0.5849036536244907,3.8350141574459737
157,1778472045,-0.06321083,-0.97696114,0.0,-0.93951076,-0.59742624,3.994448
158,1778472045,-0.0285856516454559,-0.967229485191776,-0.042419658427672,-0.878176856334016,-0.604164754995904,4.006932365198081
159,1778472045,0.006040413125,-0.95749758125,-0.0848404028125,-0.8168413825,-0.6109034425,4.01941705
160,1778472045,0.040666477895456,-0.947765677308224,-0.127261147197328,-0.755505908665984,-0.617642130004096,4.03190173480192
161,1778472045,0.07529165625,-0.9380340225,-0.169680805625,-0.694172005,-0.624380645,4.0443861
162,1778472045,0.109916834604544,-0.928302367691776,-0.212100464052672,-0.632838101334016,-0.6311191599959041,4.05687046519808
163,1778472045,0.144542899375,-0.91857046375,-0.2545212084375,-0.5715026275,-0.6378578475,4.06935515
164,1778472045,0.179168964145456,-0.908838559808224,-0.296941952822328,-0.5101671536659841,-0.644596535004096,4.08183983480192
165,1778472045,0.2137941425,-0.899106905,-0.33936161125,-0.44883325,-0.65133505,4.0943242
166,1778472045,1.19893115,-0.72265351,-1.1523162500000002,-0.9569204,-0.9764681,4.98466065
167,1778472045,1.95441035,-0.5413189725,-1.00081776,-1.2078333,-1.04625945,5.241529475
168,1778472045,2.70988955,-0.359984435,-0.8493192700000001,-1.4587462,-1.1160508,5.4983983
169,1778472045,4.377777,0.2587007,-0.418802245,-1.9761491,-1.2278391,6.0182443
170,1778472045,5.5532784,1.1163179,0.19744232,-2.415972,-1.3060299,6.673092
171,1778472045,4.984625,1.3291358,0.4544346,-1.241889,0.34208453,2.968805
172,1778472045,4.7970648492608,1.3324305921728,0.47847455770752,-1.0470205057152,0.437380734775808,2.6881089071360003
173,1778472045,4.6095095,1.3357253,0.5025139,-0.852157,0.5326745,2.40742
174,1778472045,3.68428815,1.28544955,0.4223410749999999,-0.852157,0.5326745,2.40742
175,1778472045,3.335161337489333,1.22081449845462,0.29738269703549,-0.0804240146294841,0.4141656287372428,1.548536114284654
176,1778472045,2.986034524978667,1.15617944690924,0.1724243190709799,0.6913089707410317,0.2956567574744854,0.6896522285693076
177,1778472045,2.63691665,1.09154605,0.04746914,1.4630222,0.17715092,-0.16920967
178,1778472045,1.5500076,0.85566473,-0.3077562,1.4630222,0.17715092,-0.16920967
179,1778472045,1.1753798,0.78610843,-0.37682438,1.4630222,0.17715092,-0.16920967
180,1778472045,0.95670444,0.750232,-0.2421048,0.9633345,0.70738196,-0.38789943
181,1778472046,1.1753798,0.78610843,-0.37682438,0.9633345,0.70738196,-0.38789943
182,1778472046,0.95670444,0.750232,-0.2421048,0.44348818,1.2357804,-0.46120325
183,1778472046,0.7718310575,0.718626565,-0.053021445,0.309403255,1.4605788,-0.56566121
184,1778472046,0.5869576750000001,0.68702113,0.13606191,0.17531833,1.6853772,-0.67011917
185,1778472046,0.5743001252442825,0.6758611890673385,0.1315857309052961,0.3019256182099702,1.605875401714585,-0.7436789833384883
186,1778472046,0.561642575488565,0.6647012481346771,0.1271095518105923,0.4285329064199406,1.5263736034291706,-0.8172387966769765
187,1778472046,0.548984701695426,0.6535410215038708,0.1226332581242369,0.5551434358179762,1.4468697698716682,-0.8908004931707906
188,1778472046,0.536326827902287,0.6423807948730645,0.1181569644378815,0.681753965216012,1.367365936314166,-0.9643621896646046
189,1778472046,0.5236692781465695,0.6312208539404031,0.1136807853431777,0.8083612534259822,1.2878641380287512,-1.037922003003093
190,1778472046,0.511011728390852,0.6200609130077417,0.1092046062484738,0.9349685416359524,1.2083623397433365,-1.1114818163415812
191,1778472046,0.498353854597713,0.6089006863769354,0.1047283125621184,1.061579071033988,1.128858506185834,-1.185043512835395
192,1778472046,0.485695980804574,0.5977404597461291,0.100252018875763,1.1881896004320238,1.0493546726283318,-1.2586052093292093
193,1778472046,0.4730384310488565,0.5865805188134677,0.0957758397810592,1.314796888641994,0.9698528743429172,-1.3321650226676975
194,1778472046,0.460380881293139,0.5754205778808062,0.0912996606863554,1.4414041768519643,0.8903510760575023,-1.4057248360061858
195,1778472046,0.4477230075,0.56426035125,0.086823367,1.56801470625,0.8108472425,-1.4792865325
196,1778472046,1.50851785,0.79001333,-0.37816669,1.36528385,0.99112885,-1.7281377
197,1778472046,1.8582519,0.84931916,-0.30214286,0.883922,0.89919364,-2.2821925
198,1778472046,1.9573374422517664,0.7859060555975014,-0.2292116699415759,0.883922,0.89919364,-2.2821925
199,1778472046,2.0564255211258833,0.7224913277987507,-0.1562786128207879,0.883922,0.89919364,-2.2821925
200,1778472046,2.1555136,0.6590766,-0.0833455556999999,0.883922,0.89919364,-2.2821925
201,1778472046,2.293406,0.39268813,-0.24064046,1.0225884,-0.004886922,-4.334089
202,1778472046,2.3866358,0.31703037,-0.41026023,1.0225884,-0.004886922,-4.334089
203,1778472046,2.4367895250000005,0.28066584,-0.5544370399999999,0.6159048725,-0.4321871485,-4.319733674999999
204,1778472046,2.4869432500000004,0.24430131,-0.69861385,0.2092213449999999,-0.859487375,-4.30537835
205,1778472046,2.3908457000000003,0.1276419425,-0.6219188575,-0.4111123025,-0.7973318525,-4.212068675
206,1778472046,2.29474815,0.010982575,-0.545223865,-1.03144595,-0.73517633,-4.118759
207,1778472046,1.9287812354556355,-0.1341106964467351,-0.2825346809143214,-1.2932039336395365,-0.5312474064954603,-4.012976597335051
208,1778472046,1.562814320911271,-0.2792039678934703,-0.0198454968286428,-1.554961917279073,-0.3273184829909206,-3.9071941946701023
209,1778472046,1.196856775,-0.424293525,0.2428369625,-1.8167132,-0.12339478,-3.8014145
210,1778472046,0.6596936352761984,-0.5447952200585601,0.38353415530288,-1.6071891319424,-0.184785949182976,-3.60349668338048
211,1778472046,0.122516744,-0.6653,0.52423495,-1.3976597,-0.24617869,-3.4055738
212,1778472046,-0.17401282,-0.70264083,0.54253924,-0.29443705,-1.0073168,-2.4495697
213,1778472046,-0.3802412,-0.7243619,0.5193538,-0.29443705,-1.0073168,-2.4495697
214,1778472046,-0.7148437,-0.8080735,0.4195344,-0.005497787,-1.1264355,-2.0861049
215,1778472046,-0.7952605500000001,-0.8305268,0.37633627,0.1847867365,-1.033889435,-1.64750365
216,1778472046,-0.8756774,-0.8529801,0.33313814,0.37507126,-0.94134337,-1.2089024
217,1778472046,-0.9213970598539089,-0.8927204058783824,0.2644366112605494,0.4616097681952776,-0.6640129065835801,-0.5412323508573477
218,1778472046,-0.9671167197078174,-0.9324607117567648,0.1957350825210987,0.5481482763905552,-0.3866824431671601,0.1264376982853045
219,1778472046,-1.01283755,-0.972202035,0.127031795,0.634689,-0.10934488,0.79412484
220,1778472046,-0.943402366241024,-0.945294423086976,0.0365464128019328,0.64690645638144,-0.300548147370496,1.469445063988224
221,1778472046,-0.87396896,-0.9183875,-0.053936653,0.6591236,-0.49174652,2.144748
222,1778472046,-0.7748020774697921,-0.8751087319670956,-0.0707356392936307,0.6591236,-0.49174652,2.144748
223,1778472046,-0.675632656234896,-0.8318288559835478,-0.0875350556468153,0.6591236,-0.49174652,2.144748
224,1778472046,-0.576463235,-0.7885489800000001,-0.104334472,0.6591236,-0.49174652,2.144748
225,1778472046,-0.41465324,-0.7228975,-0.11153416,0.6554584,-0.96883225,2.620612
226,1778472046,-0.2806658,-0.6347929,-0.14765464,0.34574974,-0.7629707,3.1160235
227,1778472046,-0.1726288814300952,-0.5921231858897669,-0.1801145253208093,0.2921967613537649,-0.6880372539094446,3.1437163029755606
228,1778472046,-0.0645919628601904,-0.5494534717795337,-0.2125744106416186,0.2386437827075298,-0.6131038078188893,3.171409105951122
229,1778472046,0.04344219,-0.50678485,-0.245033465,0.185092175,-0.53817228,3.1991012
230,1778472046,0.137280998847872,-0.4685293846762239,-0.298847393672896,-0.0705516552170879,-0.398591356658688,3.1914654477388797
231,1778472046,0.23112221,-0.43027294,-0.3526627,-0.32620203,-0.25900686,3.1838295
232,1778472046,0.4071311705144768,-0.3756438526755101,-0.3947226261468849,-0.2280546749732478,-0.6403969156403014,3.3505986128230947
233,1778472046,0.5831356252572384,-0.321016163837755,-0.4367814755734424,-0.1299098324866239,-1.0217772078201508,3.5173634564115472
234,1778472046,0.75914008,-0.266388475,-0.478840325,-0.03176499,-1.4031575,3.6841283
235,1778472046,1.1565872,-0.18109047,-0.6238103,-0.03176499,-1.4031575,3.6841283
236,1778472046,1.9095039,0.0026846298,-0.95597225,-0.6786713,-0.8136725,4.284609
237,1778472046,2.062698706789707,0.0707045488380584,-0.8972467263317413,-0.7547421398224533,-0.7762892990319307,4.198420822181131
238,1778472046,2.2158935135794136,0.1387244678761169,-0.8385212026634826,-0.8308129796449066,-0.7389060980638613,4.112232644362261
239,1778472046,2.369092242206374,0.2067461282463918,-0.7797941756025746,-0.9068857669057866,-0.7015219400735974,4.026042260097797
240,1778472046,2.522290970833333,0.2747677886166667,-0.7210671485416666,-0.9829585541666668,-0.6641377820833333,3.939851875833333
241,1778472046,2.67548577762304,0.3427877076547251,-0.662341624873408,-1.05902939398912,-0.626754581115264,3.853663698014464
242,1778472046,2.828680584412747,0.4108076266927836,-0.6036161012051493,-1.1351002338115732,-0.5893713801471947,3.7674755201955943
243,1778472046,2.9818793130397068,0.4788292870630585,-0.5448890741442413,-1.2111730210724534,-0.5519872221569306,3.6812851359311303
244,1778472046,3.1350780416666666,0.5468509474333334,-0.4861620470833332,-1.2872458083333334,-0.5146030641666667,3.5950947516666667
245,1778472046,3.2882728484563732,0.6148708664713918,-0.4274365234150746,-1.3633166481557866,-0.4772198631985973,3.508906573847798
246,1778472046,3.44146765524608,0.6828907855094503,-0.3687109997468159,-1.43938748797824,-0.439836662230528,3.422718396028928
247,1778472046,3.59466638387304,0.7509124458797252,-0.3099839726859079,-1.51546027523912,-0.4024525042402639,3.336528011764464
248,1778472046,3.7478651125,0.81893410625,-0.2512569456249999,-1.5915330625,-0.36506834625,3.2503376275
249,1778472046,1.87033265,0.80246023,-0.439425065,1.2473868,-0.064751714,-0.77824235
250,1778472046,1.3081468,0.69165826,-0.77244115,1.2473868,-0.064751714,-0.77824235
251,1778472046,1.10747075,0.6680457049999999,-0.7686582875000001,1.1224648499999998,-0.0262672045,-0.75869465
252,1778472046,0.9067947,0.64443315,-0.764875425,0.9975429,0.012217305,-0.73914695
253,1778472046,0.81271064,0.6626154,-0.5989165,0.15821409,0.35735616,-0.5510005
254,1778472046,0.78757274,0.69507504,-0.41977844,-0.67011917,0.8191703,-0.321926
255,1778472046,0.7996943417696778,0.7362397112673652,-0.1837324024329282,-0.7609352549540055,0.9194548724173977,-0.3809768005603816
256,1778472046,0.8118159435393556,0.7774043825347304,0.0523136351341434,-0.8517513399080111,1.0197394448347952,-0.4400276011207632
257,1778472046,0.823937235,0.818568,0.2883536299999999,-0.9425651,1.12002145,-0.49907689
258,1778472046,0.833882465199424,0.82747596097664,0.4257561187256319,-0.7495341208281601,1.120479569136,-0.758080479711616
259,1778472046,0.84382795,0.83638415,0.563162125,-0.5564982,1.1209377,-1.0170907
260,1778472046,0.869576,0.8429737,0.5886661,0.18142697,0.90041536,-1.46852
261,1778472046,0.9178993,0.7641432,0.39756927,0.18142697,0.90041536,-1.46852
262,1778472046,0.9576807,0.7485236,0.28749946,0.8570439,0.74097955,-2.1025982
263,1778472046,1.0848345,0.667130475,0.048079275,1.0873401,0.74097955,-2.47950205
264,1778472046,1.078000783372729,0.6091658940838147,-0.0057769424676798,1.0718646025548908,0.8621365677199689,-2.734644454374632
265,1778472046,1.0711672416863645,0.5512027970419073,-0.0596317812338399,1.0563895012774454,0.9832904838599844,-2.989780327187316
266,1778472046,1.0643337,0.4932397,-0.11348662,1.0409144,1.1044444,-3.2449162
267,1778472046,1.0438329,0.42392743,-0.1381364,0.7984009,1.5845845,-3.7891972
268,1778472046,1.2898425,0.42124277,-0.1871919,0.8533788,1.2339478,-4.094019
269,1778472046,1.4660518,0.41880223,-0.21672285,0.80878556,1.459968,-3.8991528
270,1778472046,1.5424417,0.40220633,-0.2272173,0.8717047,1.0317514,-4.283387
271,1778472046,1.604371275,0.3605335549999999,-0.2535754875,0.87017754,0.8956811700000001,-4.3627995
272,1778472046,1.66630085,0.3188607799999999,-0.279933675,0.86865038,0.7596109400000001,-4.442212
273,1778472046,1.7174308,0.23575929,-0.3048275,0.73731434,0.056199603,-4.78674
274,1778472046,1.5158396,0.08639627,-0.26651052,0.4886922,-0.19181168,-4.8673744
275,1778472046,1.3828272316423182,0.0462078317297163,-0.2902656260409769,0.4162022380935761,-0.2626726513392156,-4.687371063991193
276,1778472046,1.2498148632846366,0.0060193934594327,-0.3140207320819537,0.3437122761871523,-0.3335336226784312,-4.507367727982388
277,1778472046,1.1168059,-0.034168016,-0.33777523,0.27122417,-0.40439278,-4.327369
278,1778472046,1.07724220856231,-0.0255448067268776,-0.3514422023029092,-0.0523252646856333,-0.5302288723698673,-3.75357279291395
279,1778472046,1.037677504281155,-0.0169213766967721,-0.3651095244847879,-0.3758829823428166,-0.6560681861849336,-3.1797618964569754
280,1778472046,0.9981128,-0.0082979466666666,-0.3787768466666666,-0.6994406999999999,-0.7819075,-2.605951
281,1778472047,0.96862255,-0.0217210948333333,-0.2156245758333333,-0.6994406999999999,-0.7819075,-2.605951
282,1778472047,0.9391323,-0.035144243,-0.052472305,-0.6994407,-0.7819075,-2.605951
283,1778472047,0.8302818378212786,-0.0790749202036471,0.0418973019436717,-0.8977699923882991,-0.604755071651961,-2.329023103578865
284,1778472047,0.7214313756425572,-0.1230055974072942,0.1362669088873434,-1.0960992847765982,-0.4276026433039219,-2.0520952071577296
285,1778472047,0.6125837,-0.16693515,0.2306341,-1.2944235,-0.25045475,-1.7751744
286,1778472047,0.35607952,-0.24991462,0.37121108,-1.2944235,-0.25045475,-1.7751744
287,1778472047,-0.43100512,-0.56694496,0.61844105,-1.2021828,-0.20830505,-1.5589281
288,1778472047,-0.486081398300672,-0.608109840237056,0.567513804806272,-0.2133829435238401,-0.518017704271232,-0.7390346384980223
289,1778472047,-0.5411562666666666,-0.6492736666666666,0.5165878633333333,0.7753916,-0.82772243,0.080837834
290,1778472047,-0.5596747758806583,-0.6722461540270401,0.4580001482633234,0.7554716553175153,-0.7780070220463098,0.2402806933421203
291,1778472047,-0.5781937591745542,-0.6952192294906178,0.3994109333286094,0.7355512006779191,-0.728290341361885,0.3997276344736867
292,1778472047,-0.59671274246845,-0.7181923049541954,0.3408217183938954,0.7156307460383231,-0.6785736606774602,0.5591745756052531
293,1778472047,-0.6152312516824416,-0.7411647923145689,0.2822340033238856,0.6957108013558384,-0.6288582527237699,0.7186174349473734
294,1778472047,-0.6337497608964333,-0.7641372796749424,0.2236462882538756,0.6757908566733537,-0.5791428447700797,0.8780602942894937
295,1778472047,-0.6522687441903292,-0.78711035513852,0.1650570733191617,0.6558704020337576,-0.5294261640856549,1.0375072354210602
296,1778472047,-0.670787727484225,-0.8100834306020978,0.1064678583844477,0.6359499473941616,-0.4797094834012301,1.1969541765526266
297,1778472047,-0.6893062366982167,-0.8330559179624712,0.0478801433144378,0.6160300027116768,-0.4299940754475398,1.3563970358947468
298,1778472047,-0.7078247459122085,-0.8560284053228447,-0.010707571755572,0.596110058029192,-0.3802786674938496,1.5158398952368672
299,1778472047,-0.7263437292061042,-0.8790014807864224,-0.069296786690286,0.576189603389596,-0.3305619868094248,1.6752868363684337
300,1778472047,-0.7448627125,-0.90197455625,-0.127886001625,0.55626914875,-0.280845306125,1.8347337775
301,1778472047,0.092619725525,-0.647483875,-0.07687803425,-0.238695595,-0.2154827125,3.9533671
302,1778472047,0.5008055,-0.4373506,-0.255772,0.05131268,-0.41172317,3.9736784
303,1778472047,0.5462005123658139,-0.4142869931930744,-0.3182511931489572,0.0589485601586766,-0.4202753563110558,3.929186687008909
304,1778472047,0.5915955247316278,-0.3912233863861488,-0.3807303862979145,0.0665844403173533,-0.4288275426221115,3.8846949740178176
305,1778472047,0.636989375,-0.36816037,-0.44320798,0.074220125,-0.43737951,3.8402044
306,1778472047,0.77854080061856,-0.325938995440512,-0.5210612309656321,-0.046576931277888,-0.647514465238144,4.01139715870464
307,1778472047,0.92009585,-0.28371654,-0.598916475,-0.16737708,-0.8576548,4.1825943
308,1778472047,1.9165816,0.0014643435,-0.73339206,-0.46303585,-0.98532563,5.425094
309,1778472047,3.4687858,0.4888467,-0.9974619,-0.46303585,-0.98532563,5.425094
310,1778472047,4.392054,0.9479183,-0.6657882,-1.142318,-1.0170907,5.5191674
311,1778472047,4.5942555,1.13828295,-0.3153219785,-1.57175625,-1.0198395500000002,4.87226105
312,1778472047,4.796457,1.3286476,0.035144243,-2.0011945,-1.0225884,4.2253547
313,1778472047,4.6751604,1.3881977,0.2796896,-2.0011945,-1.0225884,4.2253547
314,1778472047,4.3759465,1.4128474,0.5437595,-1.8099937,-0.7104363,2.8979447
315,1778472047,4.0227957,1.40699,0.7299752,-1.8099937,-0.7104363,2.8979447
316,1778472047,3.7103984513664,1.36983179938112,0.645652365681536,-0.994172740125376,-0.38926977662112,1.92054778947968
317,1778472047,3.3980091999999997,1.33267455,0.5613316899999999,-0.178372665,-0.068111475,0.9431759
318,1778472047,3.0192323,1.2393227,0.20793676,0.21197024,0.009773844,0.6933321
319,1778472047,2.68646025,1.1348662,-0.01439938,0.59009582,0.095905847,0.319482547
320,1778472047,2.3536882,1.0304097,-0.23673552,0.9682214,0.18203785,-0.054367006
321,1778472047,1.7428128,0.8346757,-0.46029195,1.205848,0.43310347,-0.7806858
322,1778472047,1.4594624,0.75389284,-0.5347294,1.0519099,0.6407976,-1.1722504
323,1778472047,1.26665715,0.7165520825,-0.573534525,0.69241573,0.6676757,-1.2082915
324,1778472047,1.0738519,0.679211325,-0.61233965,0.33292156,0.6945538,-1.2443326
325,1778472047,0.9443185075,0.6605409425000001,-0.5892152125000001,0.1918116875,0.72311174,-1.2192870999999998
326,1778472047,0.8147851150000001,0.6418705600000001,-0.566090775,0.050701815,0.75166968,-1.1942415999999998
327,1778472047,0.6648119,0.65382934,-0.3333822,-0.23151793,0.80878556,-1.1441506
328,1778472047,0.6657882,0.70459324,0.022697324,-0.5375614,1.033584,-1.1050552
329,1778472047,0.71045065,0.74242216,0.20818083,-0.41233405,1.0396926,-1.1282681
330,1778472047,0.7681694361900799,0.772318797318144,0.280298821877888,-0.2580925463165184,1.02350490720512,-1.17347157138816
331,1778472047,0.8258897,0.8022162,0.35241866,-0.103847094,1.0073168,-1.2186762
332,1778472047,1.21003585,0.8487090749999999,0.414165155,0.5143485,0.93401295,-1.6554449
333,1778472047,1.274711,0.7695125,0.3380193,0.9242391,0.90224797,-2.1398609
334,1778472047,1.3408505,0.71996886,0.26748675,1.427592,0.8210029,-2.8570168
335,1778472047,1.3503687,0.6357691,0.18182266,1.1942415,0.86926126,-2.4929411
336,1778472047,1.2090596,0.4588276,-0.007565775,1.1942415,0.86926126,-2.4929411
337,1778472047,1.2013718,0.43759463,-0.0551569355,1.4443908,0.79992803,-2.9358184
338,1778472047,1.193684,0.41636166,-0.102748096,1.6945401,0.7305948,-3.3786957
339,1778472047,1.1568313,0.34338854,-0.24515551,1.8307631,0.54428095,-4.387234
340,1778472047,1.2218330093483063,0.3413546919561043,-0.2799342668831867,1.7324121214981183,0.5145516592932663,-4.427144581131866
341,1778472047,1.286833054674153,0.3393208959780522,-0.3147121334415934,1.6340636607490593,0.4848231296466331,-4.467054140565933
342,1778472047,1.3518331,0.3372871,-0.34949,1.5357152,0.4550946,-4.5069637
343,1778472047,1.5365844,0.38439015,-0.3533949,0.98837996,0.014660766,-4.3359213
344,1778472047,1.5727956823690206,0.3726119952517472,-0.3406224246794742,0.958311473817751,-0.0004752896198803,-4.3438400271334014
345,1778472047,1.6090060377410782,0.3608341420203965,-0.3278502763301315,0.9282437573788956,-0.0156109577616965,-4.351758551549983
346,1778472047,1.6452163931131356,0.3490562887890459,-0.3150781279807886,0.8981760409400401,-0.0307466259035127,-4.359677075966565
347,1778472047,1.6814276754821562,0.337278134040793,-0.3023056526602629,0.8681075547577911,-0.0458826815233931,-4.367595803099967
348,1778472047,1.717638957851177,0.3254999792925402,-0.2895331773397371,0.8380390685755421,-0.0610187371432735,-4.375514530233367
349,1778472047,1.7538493132232345,0.3137221260611896,-0.2767610289903943,0.8079713521366867,-0.0761544052850897,-4.38343305464995
350,1778472047,1.790059668595292,0.3019442728298389,-0.2639888806410515,0.7779036356978313,-0.0912900734269059,-4.391351579066531
351,1778472047,1.8262709509643127,0.2901661180815861,-0.2512164053205257,0.7478351495155823,-0.1064261290467862,-4.3992703061999325
352,1778472047,1.8624822333333333,0.2783879633333333,-0.23844393,0.7177666633333333,-0.1215621846666666,-4.407189033333334
353,1778472047,0.7933255028571429,-0.2141427994285714,-0.132139566,-0.2869321221428572,-0.6557201985714285,-3.412729657142857
354,1778472047,0.04881145,-0.44052332,0.123981073,-1.0323622,-0.5546656,-1.5839735
355,1778472047,-0.067970938196957,-0.5058091970990204,0.2371025789578284,-1.039590845016981,-0.4421636383288818,-1.3139687793225414
356,1778472047,-0.184753326393914,-0.5710950741980407,0.3502240849156569,-1.0468194900339625,-0.3296616766577636,-1.0439640586450831
357,1778472047,-0.301532725,-0.63637928,0.463342695,-1.05404795,-0.217162595,-0.77396625
358,1778472047,-0.45193107487648,-0.715513837064704,0.4465639722704,-0.53497186925888,-0.3834685362567039,-0.409437088532992
359,1778472047,-0.602333275,-0.79465042,0.4297848199999999,-0.0158824999999999,-0.549778735,-0.044898595
360,1778472047,-0.7420578447016,-0.872139556848256,0.3101342209919359,0.07284681072064,-0.590401796218528,0.0020622723414079
361,1778472047,-0.8817788375,-0.94962671,0.1904866849999999,0.16157385,-0.6310238175,0.0490219374999999
362,1778472047,-1.0214998302984,-1.027113863151744,0.0708391490080639,0.25030088927936,-0.671645838781472,0.0959816026585919
363,1778472047,-1.1612244,-1.104603,-0.04881145,0.3390302,-0.7122689,0.14294247
364,1778472047,-0.984845014872768,-1.06730754762432,-0.1074469548998559,0.27427765867808,-0.646218240812384,0.910351775213376
365,1778472047,-0.808470145,-1.03001305,-0.1660809587499999,0.209526775,-0.5801692724999999,1.677741435
366,1778472047,-0.632095275127232,-0.99271855237568,-0.2247149626001439,0.14477589132192,-0.514120304187616,2.445131094786624
367,1778472047,-0.45571589,-0.9554231,-0.2833504675,0.08002335,-0.4480696449999999,3.2125404
368,1778472047,-0.1942357110965504,-0.824271138776384,-0.1718148751126912,-0.22846754863296,-0.3904948705523199,3.62869777674624
369,1778472047,0.067237774,-0.6931225350000001,-0.060282138,-0.53695055,-0.33292157,4.0448445
370,1778472047,0.265534295,-0.56181975,0.00366085875,-0.4196644,-0.52534413,4.053702
371,1778472047,0.3504262677355617,-0.5013743975395945,-0.0174095979655958,-0.1482343021594787,-0.7390469602408096,4.078238542709151
372,1778472047,0.4353182404711233,-0.440929045079189,-0.0384800546811917,0.1231957956810424,-0.9527497904816192,4.102775085418303
373,1778472047,0.52020804,-0.38048524,-0.059549972,0.394618945,-1.16644715,4.127311000000001
374,1778472047,0.88983274,-0.16351835,-0.39366436,0.71593404,-1.0317514,4.557666
375,1778472047,1.41162712,0.06321084,-0.7294871299999999,0.71593404,-1.0317514,4.557666
376,1778472047,1.9334215,0.28994003,-1.0653099,0.71593404,-1.0317514,4.557666
377,1778472047,2.1794291007082696,0.385365605691331,-1.0568493388643792,0.3805718951269339,-0.8436065121902601,4.730132028271054
378,1778472047,2.425436701416539,0.4807911813826619,-1.0483887777287582,0.0452097502538677,-0.65546162438052,4.902598056542108
379,1778472047,2.6714506,0.5762192,-1.039928,-0.29016098,-0.46731192,5.0750685
380,1778472047,2.87754432546592,0.69230039832032,-0.801008134364864,-0.719032055729504,-0.41947292016864,4.901580535632481
381,1778472048,3.083632775,0.8083786249999999,-0.562094385,-1.1478921525,-0.371635145,4.7280970125
382,1778472048,3.28972122453408,0.92445685167968,-0.323180635635136,-1.5767522492704962,-0.32379736983136,4.55461348936752
383,1778472048,3.49581495,1.04053805,-0.08426077,-2.005623325,-0.27595837,4.381125525
384,1778472048,3.4936798,1.2644606,0.5015376,-1.7373008,-0.28710666,3.6340373
385,1778472048,3.310556962668214,1.2288285707305415,0.4127015364107794,-1.0833751225705412,-0.2101382974717673,2.9258469099686826
386,1778472048,3.127434125336428,1.1931965414610837,0.3238654728215587,-0.4294494451410822,-0.1331699349435346,2.217656519937365
387,1778472048,2.9443066,1.1575636,0.235027135,0.2244929729999999,-0.056199602,1.509448
388,1778472048,2.630449,1.0838583,0.0102504045,0.6261369,-0.12461651,1.0635164
389,1778472048,2.1303756,0.95060295,-0.3145898,0.6261369,-0.12461651,1.0635164
390,1778472048,2.02500527375744,0.929675310377216,-0.369929067898304,0.60261887603456,-0.070097484102464,0.8738451678228479
391,1778472048,1.91963225,0.908747135,-0.4252697524999999,0.57910025,-0.0155770625,0.68416908
392,1778472048,1.81425922624256,0.887818959622784,-0.4806104371016959,0.55558162396544,0.0389433591024639,0.494492992177152
393,1778472048,1.7088888999999998,0.86689132,-0.5359497049999999,0.5320636,0.093462385,0.30482176
394,1778472048,1.30424185,0.79953155,-0.434909995,0.34147367,0.20097467,0.21563543
395,1778472048,1.2697600488759957,0.7994538940963792,-0.3702867689848134,0.3417305149205208,0.2424306908002492,0.133174604138581
396,1778472048,1.235278247751991,0.7993762381927585,-0.3056635429696268,0.3419873598410416,0.2838867116004985,0.0507137782771621
397,1778472048,1.2007973293507963,0.7992985842771033,-0.2410419712878507,0.3422441981864166,0.3253416711401994,-0.0317449366141351
398,1778472048,1.1663164109496018,0.7992209303614483,-0.1764203996060747,0.3425010365317916,0.3667966306799003,-0.1142036515054324
399,1778472048,1.1318346098255971,0.7991432744578275,-0.1117971735908881,0.3427578814523125,0.4082526514801495,-0.1966644773668513
400,1778472048,1.097352808701593,0.7990656185542068,-0.0471739475757015,0.3430147263728333,0.4497086722803988,-0.2791253032282703
401,1778472048,1.0628718903003982,0.7989879646385517,0.0174476241060745,0.3432715647182083,0.4911636318200997,-0.3615840181195676
402,1778472048,1.0283909718992037,0.7989103107228966,0.0820691957878506,0.3435284030635833,0.5326185913598006,-0.4440427330108648
403,1778472048,0.993909170775199,0.7988326548192758,0.1466924218030372,0.3437852479841041,0.5740746121600498,-0.5265035588722837
404,1778472048,0.9594273696511946,0.798754998915655,0.2113156478182238,0.344042092904625,0.6155306329602991,-0.6089643847337027
405,1778472048,0.92494645125,0.798677345,0.2759372195,0.34429893125,0.6569855925,-0.6914230996249999
406,1778472048,1.1460928,0.6672525,0.051496077,1.5570955,0.6102544,-2.012801
407,1778472048,1.2498171,0.6433349,-0.09322987,1.5570955,0.6102544,-2.012801
408,1778472048,1.26504038235552,0.6394299375171201,-0.109124300946112,1.56030257855008,0.64056896927152,-2.20324065009632
409,1778472048,1.280263275,0.635525075,-0.1250183249999999,1.563509575,0.6708827624999999,-2.393675425
410,1778472048,1.29548616764448,0.63162021248288,-0.140912349053888,1.56671657144992,0.7011965557284799,-2.58411019990368
411,1778472048,1.31070945,0.6277152500000001,-0.1568067799999999,1.56992365,0.7315111249999999,-2.77454985
412,1778472048,1.88155935,0.6506566,-0.21684487,1.0067059,0.54367006,-3.7366626
413,1778472048,2.1982236,0.6125837,-0.19451363,0.9425651,0.45081854,-3.9828415
414,1778472048,2.2367847,0.37316352,-0.24820623,0.9034697,0.3378085,-4.283387
415,1778472048,2.1453031360339794,0.2537778342551882,-0.3047059587915145,0.8957320106392292,0.2634859224554562,-4.390492913958767
416,1778472048,2.0538215720679593,0.1343921485103765,-0.361205687583029,0.8879943212784586,0.1891633449109123,-4.497598827917534
417,1778472048,1.96234235,0.0150095189999999,-0.41770397,0.88025683,0.11484267,-4.604702
418,1778472048,1.6864356,-0.14765464,-0.5254553,0.62858033,-0.5290093,-4.714047
419,1778472048,1.3240106,-0.24552159,-0.5418071,-0.17470746,-0.66950834,-4.120286
420,1778472048,1.1126571,-0.29262465,-0.4886026,-0.17470746,-0.66950834,-4.120286
421,1778472048,0.9257092175,-0.31995906,-0.41532441,-0.32803463,-0.627053195,-3.946494875
422,1778472048,0.738761335,-0.34729347,-0.34204622,-0.4813618,-0.58459805,-3.77270375
423,1778472048,0.5856153975,-0.353760975,-0.227278305,-0.8045095500000001,-0.529314735,-3.219565375
424,1778472048,0.43246946,-0.36022848,-0.11251039,-1.1276573,-0.47403142,-2.666427
425,1778472048,0.41977844,-0.33484653,-0.021965152,-1.378112,-0.47769663,-1.4440855
426,1778472048,0.3543719395889216,-0.327646936530976,0.0563762238425536,-1.3198514644944,-0.442228719620064,-1.29331823609568
427,1778472048,0.2889637647499999,-0.3204471587499999,0.13471960525,-1.2615894375,-0.40675990125,-1.1425471125
428,1778472048,0.2235555899110784,-0.313247380969024,0.2130629866574464,-1.2033274105056,-0.371291082879936,-0.99177598890432
429,1778472048,0.1581490895,-0.3060477875,0.2914043625,-1.145066875,-0.3358231725,-0.841008725
430,1778472048,-0.13569583,-0.3226437,0.4229512,-0.65240407,-0.37812558,-0.3304781
431,1778472048,-0.30214286,-0.34168017,0.413677,-0.65240407,-0.37812558,-0.3304781
432,1778472048,-0.347660127613568,-0.357666114617472,0.390491288226688,-0.280687817092864,-0.467007627675648,-0.0955974035655679
433,1778472048,-0.39317623,-0.37365165,0.36730617,0.09101892,-0.5558874,0.13927728
434,1778472048,-0.485795945,-0.424171495,0.203421725,0.09101892,-0.5558874,0.13927728
435,1778472048,-0.4893348135312916,-0.4393031724553282,0.1233295842224801,0.1233950562728265,-0.4200705277108578,0.6220685397660171
436,1778472048,-0.4928736820625832,-0.4544348499106564,0.0432374434449602,0.1557711925456531,-0.2842536554217155,1.1048597995320342
437,1778472048,-0.49641246,-0.46956614,-0.036852647,0.1881465,-0.14844026,1.5876387
438,1778472048,-0.3995217,-0.43930307,-0.023673553,0.3744604,-0.34330627,1.1533136
439,1778472048,-0.19085276,-0.36950266,0.0102504045,0.10995574,-0.02321288,1.8228219
440,1778472048,-0.1319526081169413,-0.3406627394716564,0.00410819229092,0.1297073870904622,-0.0142533698929847,1.862121570705795
441,1778472048,-0.0730539640584706,-0.3118235572358282,-0.0020338626795399,0.1494585285452311,-0.0052940891464923,1.9014202353528975
442,1778472048,-0.0141553199999999,-0.282984375,-0.00817591765,0.16920967,0.0036651916,1.9407189
443,1778472048,0.0545467949999999,-0.2493654925,-0.033496857075,0.2373211449999999,-0.0952949742,1.9425515
444,1778472048,0.1232489099999999,-0.21574661,-0.0588177965,0.30543262,-0.19425514,1.9443841
445,1778472048,0.1902827296374171,-0.1869887754033297,-0.0938397121424944,0.407751683532815,-0.2605334560844632,1.8731170748197328
446,1778472048,0.2573165492748342,-0.1582309408066594,-0.1288616277849889,0.5100707470656302,-0.3268117721689266,1.8018500496394652
447,1778472048,0.324352085,-0.12947237,-0.16388444,0.61239243,-0.3930917849999999,1.7305812
448,1778472048,0.4387472482393472,-0.110411254904183,-0.2303339448761088,0.5572305892708096,-0.4138614706485734,1.845191163655424
449,1778472048,0.553139483,-0.0913506277666666,-0.2967817486666667,0.5020701606666667,-0.4346306246,1.9597981933333333
450,1778472048,0.6675317177606529,-0.0722900006291503,-0.3632295524572245,0.4469097320625237,-0.4553997785514265,2.0744052230112424
451,1778472048,0.7819268810000001,-0.0532288855333333,-0.4296790573333333,0.3917478913333333,-0.4761694642,2.1890151866666665
452,1778472048,0.8963220442393474,-0.0341677704375163,-0.4961285622094421,0.3365860506041429,-0.4969391498485734,2.3036251503220906
453,1778472048,1.010714279,-0.0151071432999999,-0.562576366,0.281425622,-0.5177083038,2.41823218
454,1778472048,1.125106513760653,0.0039534838375163,-0.6290241697905579,0.226265193395857,-0.5384774577514266,2.5328392096779093
455,1778472048,1.2395016770000002,0.0230145989333333,-0.6954736746666667,0.1711033526666666,-0.5592471434,2.647449173333333
456,1778472048,1.3538968402393474,0.0420757140291503,-0.7619231795427754,0.1159415119374762,-0.5800168290485735,2.762059136988757
457,1778472048,1.4682890750000002,0.0611363411666666,-0.8283709833333334,0.0607810833333333,-0.6007859830000001,2.8766661666666664
458,1778472048,2.2232943644114584,0.3419194131297886,-0.6709974258764265,-0.6451295189715103,-0.7379907558974582,3.5016725553099857
459,1778472048,2.9783189822057294,0.622709673231561,-0.5136198396048799,-1.3510581928190886,-0.8751990412820625,4.12669494432166
460,1778472048,3.7333436,0.9034999333333332,-0.3562422533333333,-2.056986866666666,-1.0124073266666669,4.751717333333333
461,1778472048,3.4673212,1.0733637916666667,0.1581897508333333,-2.150042008333333,-0.0428623583333332,4.004578091666666
462,1778472048,3.2012988,1.24322765,0.672621755,-2.24309715,0.92668261,3.25743885
463,1778472048,2.823254,1.2034464,0.65138876,-0.88514376,1.6358972,1.4294246
464,1778472048,2.1396499,1.0611609,0.39293218,-0.88514376,1.6358972,1.4294246
465,1778472048,1.90694429116992,1.008689266645504,0.2686476146128,-0.2463395967979519,1.0317591830656,1.111473327328384
466,1778472048,1.6742386823398403,0.956217633291008,0.1443630492256,0.3924645664040961,0.4276211661311999,0.7935220546567681
467,1778472048,1.44152711616992,0.903744656645504,0.0200753021128,1.031285083202048,-0.1765323169344002,0.4755626423283841
468,1778472048,1.2088155500000002,0.85127168,-0.104212445,1.6701056,-0.7806858,0.15760323
469,1778472048,0.9698835,0.8014840299999999,-0.25784648,1.7391334,-0.88086766,0.10323623
470,1778472048,0.7158199,0.75999427,-0.41562948,1.432479,-0.539394,0.08246681
471,1778472048,0.5418071,0.76170266,-0.3397277,1.1484267,-0.25045475,0.09896017
472,1778472048,0.52008572196992,0.775126001816576,-0.21708735522368,0.7773212899115519,0.1099603582543359,0.142637594063872
473,1778472048,0.4983649,0.788549,-0.09445015,0.40622538,0.47036624,0.1863139
474,1778472048,0.52203846,0.8190561,0.15473229,-0.05009095,0.93279123,0.2510656
475,1778472048,0.5652369586224698,0.8358555183532016,0.2146081792677151,0.0182247301196752,0.9484702371258148,0.1921166048083464
476,1778472048,0.6084354572449397,0.8526549367064034,0.2744840685354303,0.0865404102393504,0.9641492442516298,0.1331676096166928
477,1778472048,0.6516328499999999,0.869453925,0.334358425,0.1548543415,0.97982785,0.0742201235
478,1778472048,0.77219558177728,0.8809854648944,0.325938555275712,0.5676412370101056,0.78588060755648,-0.1687484132129216
479,1778472048,0.8927614,0.8925173,0.31751847,0.9804387,0.5919284,-0.41172317
480,1778472048,0.8694535288840912,0.8374001143454052,0.2178600625182827,1.353480099825066,0.5267683312823949,-1.0747268617848396
481,1778472049,0.8461462544420456,0.7822843396727026,0.1182042062591413,1.726511949912533,0.4616099306411974,-1.7377135808924196
482,1778472049,0.82283898,0.727168565,0.0185483499999999,2.0995438,0.39645153,-2.4007003
483,1778472049,0.8044124960960166,0.7030473708351112,-0.0846073902510495,2.0995438,0.39645153,-2.4007003
484,1778472049,0.7859860121920333,0.6789261766702223,-0.1877631305020991,2.0995438,0.39645153,-2.4007003
485,1778472049,0.76756,0.6548056,-0.29091623,2.0995438,0.39645153,-2.4007003
486,1778472049,1.3015573,0.82711005,-0.40293851,1.6578883,-0.037873644,-2.5143213
487,1778472049,1.8287209,0.9391323,-0.42270714,1.6578883,-0.037873644,-2.5143213
488,1778472049,1.926589536936691,0.90622468171717,-0.396389182512608,1.3925646218671863,-0.0551817880552109,-2.787790033806651
489,1778472049,2.0244556684683452,0.873317905858585,-0.370071898756304,1.1272477359335933,-0.0724894890276054,-3.0612517669033257
490,1778472049,2.1223218,0.84041113,-0.343754615,0.86193085,-0.08979719,-3.3347135
491,1778472049,2.158503325,0.7706717725,-0.3388124675,0.741895825,-0.0516181125,-3.4843754
492,1778472049,2.19468485,0.700932415,-0.33387032,0.6218608,-0.013439035,-3.6340373
493,1778472049,2.222446325,0.6477279375,-0.3727974425,0.6218608,-0.013439035,-3.6340373
494,1778472049,2.2502078,0.59452346,-0.411724565,0.6218608,-0.013439035,-3.6340373
495,1778472049,2.02970205,0.50043939,-0.31709137,0.2622138949999999,-0.2521346299999999,-3.8276817
496,1778472049,1.8091963,0.40635532,-0.2224581749999999,-0.09743301,-0.490830225,-4.0213261
497,1778472049,1.672463275,0.3380192825,-0.1869478475,-0.085979285,-0.5422956125,-3.895182399999999
498,1778472049,1.53573025,0.2696832449999999,-0.15143752,-0.07452556,-0.593761,-3.7690387
499,1778472049,1.4342634749999998,0.2126958825,-0.20384881,-0.059864795,-0.568410115,-3.6108245
500,1778472049,1.3327967,0.15570852,-0.2562601,-0.04520403,-0.54305923,-3.4526103
501,1778472049,1.2452135788626404,0.114943242058456,-0.2429713203288456,-0.1028894811267527,-0.5300072071544247,-3.344987128742047
502,1778472049,1.1576304577252807,0.074177964116912,-0.2296825406576912,-0.1605749322535055,-0.5169551843088495,-3.2373639574840936
503,1778472049,1.0700450944313202,0.0334116425708946,-0.2163934207894228,-0.2182618601467097,-0.5039028273272124,-3.12973803103769
504,1778472049,0.9824597311373596,-0.0073546789751227,-0.2031043009211543,-0.2759487880399139,-0.4908504703455753,-3.022112104591286
505,1778472049,0.8948766100000001,-0.0481199569166667,-0.18981552125,-0.3336342391666667,-0.4777984475,-2.9144889333333333
506,1778472049,0.8072934888626403,-0.0888852348582106,-0.1765267415788456,-0.3913196902934195,-0.4647464246544247,-2.8068657620753803
507,1778472049,0.7197081255686799,-0.129651556404228,-0.1632376217105772,-0.4490066181866237,-0.4516940676727877,-2.6992398356289766
508,1778472049,0.6321227622747194,-0.1704178779502454,-0.1499485018423087,-0.506693546079828,-0.4386417106911506,-2.591613909182573
509,1778472049,0.5445396411373598,-0.2111831558917894,-0.1366597221711543,-0.5643789972065807,-0.4255896878455753,-2.4839907379246196
510,1778472049,0.45695652,-0.2519484338333333,-0.1233709425,-0.6220644483333334,-0.412537665,-2.3763675666666666
511,1778472049,0.007443747,-0.5697516499999999,0.4139211,-0.33108896,-0.35124752,-0.7849618
512,1778472049,-0.1986626,-0.5942794,0.191829,0.4746423,-0.3885103,-0.27977628
513,1778472049,-0.2233733949999999,-0.588116965,0.1281910695,0.49205197,-0.4062253899999999,-0.214413695
514,1778472049,-0.2480841899999999,-0.58195453,0.064553139,0.50946164,-0.42394048,-0.14905111
515,1778472049,-0.31605414,-0.5859815,-0.020500809,0.4886922,-0.44593164,-0.015882496
516,1778472049,-0.328257153696576,-0.57414454848896,-0.0228803969583359,0.409278703520256,-0.448527843230976,0.1672267007677184
517,1778472049,-0.340459855,-0.5623079,-0.025259924,0.32986724,-0.45112398,0.35033121
518,1778472049,-0.31263736,-0.53058046,0.03294773,0.15515977,-0.39767328,0.7495316
519,1778472049,-0.28164205,-0.47810817,0.082735404,0.14049901,-0.19975294,1.1905763
520,1778472049,-0.261263019151744,-0.45296994823488,0.0522278590084223,0.14049901,-0.19975294,1.1905763
521,1778472049,-0.24088451,-0.42783237,0.021721095,0.14049901,-0.19975294,1.1905763
522,1778472049,-0.18597162,-0.38170552,-0.036608588,0.23640485,-0.116675265,1.4117095
523,1778472049,-0.15936938,-0.35925224,-0.07590181,0.38423425,-0.22113322,1.6242907
524,1778472049,-0.09493827,-0.26358184,-0.1632743,0.38423425,-0.22113322,1.6242907
525,1778472049,0.0584504043998907,-0.1821487649044689,-0.2505240221261744,0.4646641469894271,-0.3344477613702031,1.855297578716069
526,1778472049,0.2118390787997815,-0.1007156898089378,-0.3377737442523488,0.5450940439788543,-0.4477623027404063,2.086304457432138
527,1778472049,0.36523168,-0.01928053,-0.4250257,0.625526,-0.561079745,2.31731725
528,1778472049,0.898930671259648,0.19195372376384,-0.622775611166464,0.58154313702656,-0.571922741288576,2.9845434153856
529,1778472049,1.432616,0.40318257,-0.82052046,0.5375614,-0.58276546,3.6517525
530,1778472049,1.803095,0.56767714,-0.9193637,-0.036651913,-0.30787608,4.388456
531,1778472049,2.2968228,0.87958235,-0.92229235,-0.408058,-0.17898351,4.537507
532,1778472049,2.455948,1.002099,-0.7941623,-1.7611245,-0.02076942,4.555222
533,1778472049,2.5650415,1.0577441,-0.6016011,-1.7611245,-0.02076942,4.555222
534,1778472049,2.6418576417408,1.1196118080832,-0.2470514790432384,-2.11145126576,0.136220930497792,4.2836959755776
535,1778472049,2.71867575,1.1814811,0.1075072185,-2.461787,0.2932153,4.012163
536,1778472049,2.7031782,1.2029582,0.4527262,-2.461787,0.2932153,4.012163
537,1778472049,2.5733397,1.1421878,0.54790854,-1.6884315,0.8362745,2.9248228
538,1778472049,2.1206133,0.9689073,0.12178457,-1.6884315,0.8362745,2.9248228
539,1778472049,2.3946898,1.0787331,0.51496077,-1.0354166,0.7874053,2.5039365
540,1778472049,2.1206133,0.9689073,0.12178457,-0.08246681,0.25350907,2.0457878
541,1778472049,2.01481455,0.936813775,-0.06430909,-0.08246681,0.25350907,2.0457878
542,1778472049,1.9090158,0.90472025,-0.25040275,-0.08246681,0.25350907,2.0457878
543,1778472049,1.6224926,0.8773858,-0.45223808,0.62858033,-0.49968776,1.4563028
544,1778472049,1.47404284986752,0.873114735331072,-0.474691627401728,0.480443618874368,-0.2993214003434239,1.39674268764032
545,1778472049,1.3255969,0.86884378,-0.4971446,0.3323107,-0.09896017,1.3371841
546,1778472049,0.919119565,0.88080263,-0.23307468,0.3323107,-0.09896017,1.3371841
547,1778472049,0.8343096825,0.891541165,-0.15192564,0.00366519,0.342695415,1.1982122
548,1778472049,0.7494998,0.9022797,-0.0707766,-0.32498032,0.784351,1.0592403
549,1778472049,0.5418071,0.9530435,0.13740423,-0.41355577,1.0354166,0.8588765
550,1778472049,0.568734282103543,0.9886752752099192,0.1888587501649486,-0.1392819619995733,0.8965489267052941,0.6908914431483343
551,1778472049,0.5956621535517715,1.0243079626049596,0.2403145875824743,0.1349988675002133,0.7576776983526471,0.5229020858241671
552,1778472049,0.622590025,1.0599406500000002,0.291770425,0.409279697,0.61880647,0.3549127285
553,1778472049,0.6401096720965174,1.046503692739061,0.2495995088071378,0.5197579059886591,0.586465851857883,0.1706689297163633
554,1778472049,0.6576293191930348,1.0330667354781216,0.2074285926142757,0.6302361149773184,0.5541252337157662,-0.0135748690672733
555,1778472049,0.6751494147982587,1.0196294342266734,0.1652565968321403,0.7407171522443295,0.5217837876432272,-0.1978233845525326
556,1778472049,0.6926695104034827,1.006192132975225,0.1230846010500049,0.8511981895113409,0.4894423415706883,-0.3820719000377919
557,1778472049,0.7101891575,0.9927551757142856,0.0809136848571428,0.9616763985,0.4571017234285714,-0.5663156988214286
558,1778472049,0.7277088045965173,0.9793182184533464,0.0387427686642807,1.0721546074886592,0.4247611052864544,-0.7505594976050652
559,1778472049,0.7452289002017413,0.9658809172018984,-0.0034292271178546,1.1826356447556703,0.3924196592139156,-0.9348080130903246
560,1778472049,0.7627489958069652,0.95244361595045,-0.04560122289999,1.2931166820226816,0.3600782131413766,-1.1190565285755838
561,1778472049,0.7802686429034826,0.9390066586895108,-0.0877721390928522,1.403594891011341,0.3277375949992597,-1.3033003273592203
562,1778472049,0.79778829,0.9255697014285714,-0.1299430552857143,1.5140730999999998,0.2953969768571428,-1.4875441261428572
563,1778472049,1.1766435949999998,0.9832979757142856,-0.1641197851428571,1.264665575,0.1750347086785714,-2.0672115880714284
564,1778472049,1.5554989,1.0410262499999998,-0.198296515,1.01525805,0.0546724405,-2.64687905
565,1778472049,1.63475546050304,1.017810587164288,-0.181578807739392,1.0120510285504,0.0260384986441472,-2.81959897665664
566,1778472049,1.71401202100608,0.994594924328576,-0.164861100478784,1.0088440071008,-0.0025954432117055,-2.99231890331328
567,1778472049,1.79327061050304,0.971378667164288,-0.148142965239392,1.0056369035504,-0.0312301181058527,-3.16504325165664
568,1778472049,1.8725292,0.94816241,-0.13142483,1.0024298,-0.059864793,-3.3377676
569,1778472049,2.1413583000000003,0.8727487,-0.41794803,0.93462385,-0.67744953,-3.45169405
570,1778472049,2.2875485,0.759018,-0.6074585,0.784351,-0.9095783,-3.4666603
571,1778472049,2.34044795,0.675245375,-0.5820155149999999,0.6207918250000001,-0.9618073,-3.465591275
572,1778472049,2.3933473999999997,0.59147275,-0.55657253,0.45723265,-1.0140363,-3.46452225
573,1778472049,2.28882985,0.451810975,-0.4612071849999999,0.0114537249999999,-1.0769554499999998,-3.426801275
574,1778472049,2.1843123,0.3121492,-0.36584184,-0.4343252,-1.1398746,-3.3890803
575,1778472049,2.0705816500000003,0.229779895,-0.3131254699999999,-0.693026625,-1.045801325,-3.2629366999999996
576,1778472049,1.956851,0.14741059,-0.2604091,-0.95172805,-0.95172805,-3.1367931
577,1778472049,1.4958268,-0.011958805,-0.079562664,-1.6566665,-0.12767084,-2.8130345
578,1778472049,1.3985309938696795,-0.039943559054084,-0.0334366322276854,-1.6688836248250674,-0.0621057543251186,-2.7938943266631395
579,1778472049,1.3012326969348398,-0.067929029527042,0.0126905803861572,-1.6811010624125338,0.0034610098374406,-2.7747536633315697
580,1778472049,1.2039344,-0.0959145,0.058817793,-1.6933185,0.069027774,-2.755613
581,1778472050,0.8805613061523889,-0.1914824361431729,0.1279870967477194,-1.508278806525596,0.0373139564613737,-2.6252453124851733
582,1778472050,0.5571882123047778,-0.2870503722863458,0.1971564004954389,-1.3232391130511916,0.0056001389227474,-2.4948776249703464
583,1778472050,0.23380684,-0.382620755,0.266327475,-1.1381946825,-0.0261144904999999,-2.3645066
584,1778472050,-0.281398,-0.5771954,0.13569583,-0.47708577,-0.32253686,-1.8277088
585,1778472050,-0.3682824,-0.6169767,0.12398108,-0.25411993,-0.42943826,-1.1074986
586,1778472050,-0.41666613068032,-0.63589090789504,0.12721480110784,-0.220980921684736,-0.362549373688704,-0.8535346632799999
587,1778472050,-0.4650511,-0.6548056,0.130448605,-0.187841065,-0.295658775,-0.599564225
588,1778472050,-0.49622979908224,-0.67738118896384,0.107323881507328,-0.1009443707365504,-0.1719569806372992,-0.260071527049088
589,1778472050,-0.5274077,-0.6999562,0.08419975,-0.014049901,-0.048258353,0.07941248
590,1778472050,-0.5525456,-0.7128912,0.049787678,-0.1423316,-0.20525073,-0.3371976
591,1778472050,-0.56670094,-0.72094506,-0.018304294,-0.014049901,-0.014049901,0.24801129
592,1778472050,-0.565114534694272,-0.719419700475648,-0.0566827867384192,-0.014049901,-0.014049901,0.24801129
593,1778472050,-0.56352817,-0.7178943799999999,-0.095060297,-0.014049901,-0.014049901,0.24801129
594,1778472050,-0.561941805305728,-0.716369059524352,-0.1334378072615808,-0.014049901,-0.014049901,0.24801129
595,1778472050,-0.5603554,-0.7148437,-0.1718163,-0.014049901,-0.014049901,0.24801129
596,1778472050,-0.46387146,-0.6107939299999999,-0.30425803,0.0987565466666666,-0.3294599926666666,1.07471556
597,1778472050,-0.25089085,-0.48274526,-0.2511349,-0.13255776,-0.66706485,1.8551978
598,1778472050,-0.18157859,-0.4407674,-0.22648512,-0.24740042,-0.6395759,2.0158553
599,1778472050,-0.08688438,-0.4127008,-0.21965154,-0.29871312,-0.60903263,2.0916026
600,1778472050,0.010738519,-0.39586085,-0.20915705,-0.31764993,-0.5992588,2.1520782
601,1778472050,0.0507635611152687,-0.3819497020433153,-0.20915705,-0.31764993,-0.5992588,2.1520782
602,1778472050,0.0907886032305375,-0.3680385540866308,-0.20915705,-0.31764993,-0.5992588,2.1520782
603,1778472050,0.13081467,-0.35412705,-0.20915705,-0.31764993,-0.5992588,2.1520782
604,1778472050,0.9134249166666668,-0.0427100187666666,-0.4436960833333334,-0.3310889566666666,-0.5648467066666667,2.8238263999999997
605,1778472050,1.0907597419252884,0.0355234728459343,-0.4127917791855538,-0.3978732981195898,-0.5322646519302254,2.923477853841765
606,1778472050,1.26809456718391,0.1137569644585354,-0.3818874750377742,-0.464657639572513,-0.4996825971937842,3.02312930768353
607,1778472050,1.445433932272168,0.1919924588741576,-0.3509823797296817,-0.5314436907264616,-0.4670997083460651,3.122783312635168
608,1778472050,1.622773297360426,0.2702279532897798,-0.3200772844215891,-0.5982297418804101,-0.434516819498346,3.222437317586806
609,1778472050,1.8001081226190478,0.3484614449023809,-0.2891729802738095,-0.6650140833333332,-0.4019347647619048,3.322088771428571
610,1778472050,1.9774429478776696,0.4266949365149819,-0.25826867612603,-0.7317984247862565,-0.3693527100254636,3.4217402252703364
611,1778472050,2.1547823129659274,0.5049304309306042,-0.2273635808179374,-0.798584475940205,-0.3367698211777444,3.5213942302219743
612,1778472050,2.3321216780541856,0.5831659253462264,-0.1964584855098448,-0.8653705270941535,-0.3041869323300253,3.621048235173612
613,1778472050,2.509456503312807,0.6613994169588274,-0.1655541813620652,-0.9321548685470769,-0.2716048775935841,3.7206996890153774
614,1778472050,2.6867913285714287,0.7396329085714285,-0.1346498772142857,-0.99893921,-0.2390228228571429,3.8203511428571426
615,1778472050,2.5772445,1.087031,0.34241232,-0.8014552,0.5815437,3.277292
616,1778472050,2.44496375682816,1.08605476250432,0.2435678690572223,-0.328028580216832,0.3707925024192,2.96391418881536
617,1778472050,2.3126864,1.08507855,0.1447259484999999,0.14538592,0.1600467,2.6505444
618,1778472050,1.615903,1.0308977,-0.24503349,0.95294976,-0.37384954,2.0690005
619,1778472050,2.0268953,1.0758044,0.031239327,1.210124,-0.5174029,1.6798794
620,1778472050,1.615903,1.0308977,-0.24503349,1.210124,-0.5174029,1.6798794
621,1778472050,1.2476206,0.99917036,-0.46541715,1.210124,-0.5174029,1.6798794
622,1778472050,0.9994144,0.9959976,-0.54839665,0.96944314,-0.2125811,1.3988814
623,1778472050,0.92400072,1.0251625,-0.48701626,0.6637050800000001,0.02015856,1.3271047
624,1778472050,0.84858704,1.0543274,-0.42563587,0.35796702,0.25289822,1.255328
625,1778472050,0.90642864,1.1456047,-0.084931925,0.35796702,0.25289822,1.255328
626,1778472050,0.887575453823872,1.15646511098496,0.042769397902144,-0.0108381342335999,0.446998175488768,1.049010933392256
627,1778472050,0.868721785,1.1673258,0.17047399,-0.37965273,0.6411031,0.842688585
628,1778472050,0.778480437425536,1.14877721258112,0.3640748880597759,-0.521528000980224,0.68707128838528,0.822377082516096
629,1778472050,0.6882414,1.1302291,0.55767083,-0.66339964,0.7330383,0.8020661
630,1778472050,0.606117186203392,1.06982572317312,0.479085390906496,-0.0904153792924159,0.619418819347968,0.1221817776307201
631,1778472050,0.52399087,1.0094208,0.40049794,0.48258355,0.50579643,-0.55771995
632,1778472050,0.4795725,0.9247329,0.09859913,1.3365731,0.1337795,-1.16492
633,1778472050,0.524357,0.9174112,0.00280666,1.52044355,0.0198531249999999,-1.32313415
634,1778472050,0.5691415,0.9100895,-0.09298581,1.704314,-0.09407325,-1.4813483
635,1778472050,0.5725583,0.88958865,-0.14960709,1.627345,-0.1282817,-1.7806722
636,1778472050,0.6228341,0.89080894,-0.1803583,1.491733,-0.057421334,-1.8881844
637,1778472050,0.91472656,0.9679311,-0.17987019,0.88453287,0.26511553,-1.9187278
638,1778472050,1.2398866238638768,1.0129182155434004,-0.1564410948616752,0.8384133287835785,0.2775362396838413,-1.9142481764532209
639,1778472050,1.5650550119319384,1.0579064827717002,-0.1330113999308376,0.7922926068917894,0.2899572673419207,-1.9097684382266105
640,1778472050,1.8902234,1.10289475,-0.109581705,0.7461718850000001,0.302378295,-1.9052887
641,1778472050,2.3056088,1.1180873,-0.117269506,0.654542105,0.1458440775,-2.18185795
642,1778472050,2.7209942,1.13327985,-0.124957307,0.562912325,-0.0106901399999999,-2.4584272
643,1778472050,2.971641,1.0091767,-0.11153416,0.5564982,-0.5027421,-3.3890803
644,1778472050,3.0429058,0.810026,-0.14277348,0.5564982,-0.5027421,-3.3890803
645,1778472050,3.010446,0.6631035,-0.19256116,0.5564982,-0.5027421,-3.3890803
646,1778472050,3.004954820288,0.587202701542656,-0.225569484988032,0.362703698101376,-0.388511764667008,-3.75696926596096
647,1778472050,2.9994635,0.51129996,-0.258578655,0.168904235,-0.274278505,-4.1248676500000006
648,1778472050,2.8828042,0.29091623,-0.32947728,0.0421497,-0.16676621,-4.202753
649,1778472050,2.4208038,-0.0021965152,-0.36730617,0.0421497,-0.16676621,-4.202753
650,1778472050,2.1137798,-0.14252943,-0.35754386,-0.5821546,0.02565634,-4.3689084
651,1778472050,1.8404356,-0.25040275,-0.33362624,-0.7189884,0.06780604,-4.2675047
652,1778472050,1.1438963,-0.43661842,-0.17352471,-0.7189884,0.06780604,-4.2675047
653,1778472050,0.8806828144504937,-0.4790026683164515,-0.0712655934556307,-0.807868533213155,0.167681654383848,-4.047696875717443
654,1778472050,0.6174693289009874,-0.5213869166329029,0.0309935230887385,-0.8967486664263101,0.2675572687676961,-3.8278890514348864
655,1778472050,0.354249105,-0.56377225,0.1332552575,-0.985631075,0.36743544,-3.6080756
656,1778472050,-0.1998828849999999,-0.655537775,0.26773082,-0.6469063,0.36713,-2.7757716
657,1778472050,-0.2453780783723876,-0.6687955990584968,0.2386291788109068,-0.5550492779357973,0.3335759954414953,-2.537314801876239
658,1778472050,-0.2908732717447752,-0.6820534231169937,0.2095275376218137,-0.4631922558715944,0.3000219908829905,-2.2988580037524784
659,1778472050,-0.3363696298090212,-0.6953115865801308,0.1804251514211699,-0.3713328822375266,0.266467127330974,-2.060395101056547
660,1778472050,-0.3818659878732672,-0.7085697500432679,0.1513227652205261,-0.2794735086034589,0.2329122637789574,-1.8219321983606156
661,1778472050,-0.4273611812456547,-0.7218275741017648,0.122221124031433,-0.187616486539256,0.1993582592204527,-1.5834754002368547
662,1778472050,-0.4728563746180423,-0.7350853981602615,0.0931194828423398,-0.0957594644750532,0.1658042546619479,-1.3450186021130937
663,1778472050,-0.5183527326822884,-0.7483435616233987,0.064017096641696,-0.0039000908409855,0.1322493911099314,-1.1065556994171624
664,1778472050,-0.5638490907465343,-0.7616017250865358,0.0349147104410523,0.0879592827930822,0.0986945275579148,-0.868092796721231
665,1778472050,-0.6093442841189219,-0.7748595491450326,0.0058130692519591,0.179816304857285,0.0651405229994101,-0.62963599859747
666,1778472050,-0.6548394774913096,-0.7881173732035295,-0.023288571937134,0.2716733269214879,0.0315865184409054,-0.3911792004737091
667,1778472050,-0.7003358355555556,-0.8013755366666666,-0.0523909581377777,0.3635327005555556,-0.0019683451111111,-0.1527162977777778
668,1778472050,-0.5383903,-0.70361704,-0.15717287,-0.106901415,0.19547687,1.7018706
669,1778472050,-0.4716406425,-0.6383927549999999,-0.051496077,-0.14401148125,0.0917824949999999,1.769065775
670,1778472050,-0.404890985,-0.5731684699999999,0.054180716,-0.1811215475,-0.01191188,1.83626095
671,1778472050,-0.3716992,-0.52893309,0.105676793,-0.21823161375,-0.115606255,1.903456125
672,1778472050,-0.338507415,-0.48469771,0.15717287,-0.25534168,-0.21930063,1.9706513
673,1778472050,-0.21940747,-0.36852646,0.14106509,0.035430185,-0.46303585,2.1380284
674,1778472050,-0.0775510087859455,-0.283351565252608,0.014706067416192,0.035430185,-0.46303585,2.1380284
675,1778472050,0.064309084,-0.19817449,-0.11165619,0.035430185,-0.46303585,2.1380284
676,1778472050,0.18645974,-0.12666571,-0.30458343,0.106901415,-0.39767328,2.1630738
677,1778472050,0.41562948,0.027090356,-0.59086263,-0.12522738,-0.52290064,2.7391198
678,1778472050,0.6123115120100299,0.0950862928549725,-0.5819879413271092,-0.2333172840291893,-0.5194338295488612,2.8153023504866654
679,1778472050,0.8089985791445288,0.1630839704282097,-0.5731130254592801,-0.341409955195341,-0.5159669303462389,2.891486851271587
680,1778472050,1.0056856462790278,0.2310816480014469,-0.5642381095914512,-0.4495026263614928,-0.5125000311436164,2.967671352056509
681,1778472051,1.2023676782890576,0.2990775848564194,-0.5553634209185602,-0.5575925303906821,-0.5090332206924776,3.0438539025431743
682,1778472051,1.3990497102990875,0.3670735217113919,-0.5464887322456693,-0.6656824344198714,-0.5055664102413387,3.1200364530298397
683,1778472051,1.5957367774335864,0.4350711992846291,-0.5376138163778402,-0.7737751055860232,-0.5020995110387164,3.1962209538147617
684,1778472051,1.7924238445680851,0.5030688768578663,-0.5287389005100113,-0.881867776752175,-0.498632611836094,3.2724054545996832
685,1778472051,1.989105876578115,0.5710648137128388,-0.5198642118371203,-0.9899576807813644,-0.4951658013849551,3.348588005086349
686,1778472051,2.185787908588145,0.6390607505678113,-0.5109895231642294,-1.0980475848105535,-0.4916989909338163,3.4247705555730144
687,1778472051,2.382474975722644,0.7070584281410486,-0.5021146072964005,-1.2061402559767054,-0.4882320917311939,3.500955056357936
688,1778472051,2.579162042857143,0.7750561057142857,-0.4932396914285714,-1.3142329271428572,-0.4847651925285715,3.5771395571428575
689,1778472051,2.2592814964285717,0.7968730853571429,-0.3233148319642857,-0.6644468460714287,-0.5348343331892857,2.7978718785714287
690,1778472051,1.93940095,0.818690065,-0.1533899725,-0.014660765,-0.58490347385,2.0186042
691,1778472051,1.8597162,0.8393129,-0.5010495,1.1808025,-1.2956452,1.9089539
692,1778472051,1.8096845,0.88958865,-0.9054524,1.2113458,-1.2333369,1.8723019
693,1778472051,1.7149097587548106,0.8774672434373266,-0.8626207205016768,0.7838455813818939,-1.0254408807354058,1.78902132733665
694,1778472051,1.6201350175096214,0.8653458368746533,-0.8197890410033536,0.3563453627637878,-0.8175448614708116,1.7057407546733
695,1778472051,1.52535785,0.8532241199999999,-0.7769562649999999,-0.0711658,-0.60964352,1.62245805
696,1778472051,1.2769076,0.8088057,-0.36462155,-0.8051204,-0.3744604,1.509448
697,1778472051,0.9196077,0.80441266,0.3333822,-1.3866642,-0.30787608,1.5210545
698,1778472051,0.877447349659392,0.941327052473344,0.636009318823296,-0.71685898611648,-0.251066337174016,1.32069326465664
699,1778472051,0.83528592,1.07824495,0.938644185,-0.047036625,-0.19425514,1.1203269
700,1778472051,0.831533501969664,1.13090096148832,0.889954140525408,-0.24954103577328,-0.220828120129792,1.21104153613248
701,1778472051,0.82778118,1.183555625,0.8412653425,-0.4520402625,-0.24740042,1.30175385
702,1778472051,0.824028858030336,1.23621028851168,0.792576544474592,-0.65453948922672,-0.273972719870208,1.39246616386752
703,1778472051,0.82027644,1.2888663,0.7438865,-0.8570439,-0.3005457,1.4831808
704,1778472051,0.7650577632099841,1.3147977569184,0.5726781485611521,0.1431080017804799,0.0450557336417279,0.32267472071232
705,1778472051,0.7098405000000001,1.34072855,0.40147418,1.1432343,0.39064832,-0.8378016500000001
706,1778472051,0.6648119,1.2732466,0.24137263,1.1759156,0.43127087,-1.0042624
707,1778472051,0.6386978,1.205887,0.13032657,1.2168436,0.54611355,-1.4178182
708,1778472051,0.6282034,1.1251038,0.029774986,1.1997393,0.61575216,-1.6804903
709,1778472051,0.67091334,0.9752528,-0.054424766,1.1362094,0.6658431,-1.8973475
710,1778472051,0.7094744,0.91863143,-0.08517598,0.72692966,0.9462303,-2.289523
711,1778472051,0.8194966673484411,0.9153176431858416,-0.0867759288258514,0.6998612313587096,0.969823541101885,-2.331713897810293
712,1778472051,0.9295189346968822,0.912003856371683,-0.0883758776517028,0.6727928027174191,0.99341678220377,-2.373904795620586
713,1778472051,1.039538385511331,0.9086901543893812,-0.0899757855193885,0.6457250670190322,1.017009419326414,-2.4160946133577195
714,1778472051,1.1495578363257797,0.9053764524070792,-0.0915756933870742,0.6186573313206453,1.0406020564490577,-2.4582844310948535
715,1778472051,1.259580103674221,0.9020626655929208,-0.0931756422129257,0.5915889026793548,1.0641952975509426,-2.5004753289051465
716,1778472051,1.3696023710226617,0.8987488787787623,-0.0947755910387771,0.5645204740380643,1.0877885386528277,-2.5426662267154394
717,1778472051,1.4796218218371104,0.8954351767964603,-0.0963754989064628,0.5374527383396774,1.1113811757754717,-2.584856044452573
718,1778472051,1.589641272651559,0.8921214748141585,-0.0979754067741485,0.5103850026412905,1.134973812898115,-2.627045862189707
719,1778472051,1.6996635400000002,0.888807688,-0.0995753556,0.483316574,1.1585670540000002,-2.66923676
720,1778472051,2.741007,0.55620645,-0.883975325,0.6982189700000001,0.20433443,-4.02346395
721,1778472051,2.6281915,0.4180700615,-0.8817178,0.249080305,0.1846340225,-4.20977785
722,1778472051,2.515376,0.279933673,-0.879460275,-0.20005836,0.164933615,-4.39609175
723,1778472051,2.054962,-0.015375607,-0.6238103,-0.59437186,0.39828414,-4.420221
724,1778472051,1.83591779627008,-0.1204435958530431,-0.421362238697984,-0.792600192290176,0.452346391987968,-4.12028221083264
725,1778472051,1.6168792,-0.225508895,-0.21891936,-0.99082345,0.50640726,-3.8203511
726,1778472051,1.3691611,-0.28994003,-0.050031736,-0.8350528,0.34208453,-3.4972036
727,1778472051,0.99453324,-0.34924594,0.093473926,-0.65484756,0.17715092,-3.2821789
728,1778472051,0.8136023938197496,-0.3695843837716641,0.118937668575644,-0.433405122430773,0.0692295514988864,-3.0639944763668323
729,1778472051,0.6326761794098749,-0.389922306885832,0.144400759287822,-0.2119683537153865,-0.0386890542505567,-2.8458156381834163
730,1778472051,0.451749965,-0.41026023,0.1698638499999999,0.009468415,-0.1466076599999999,-2.6276368
731,1778472051,0.2718375597671263,-0.4316967812562293,0.142081757595846,0.1306243905177578,-0.1368337332635593,-2.4865257292009417
732,1778472051,0.0919251545342526,-0.4531333325124586,0.1142996651916919,0.2517803660355156,-0.1270598065271188,-2.345414658401884
733,1778472051,-0.087982645,-0.474569335,0.086518284,0.37293324,-0.1172861299999999,-2.2043071999999997
734,1778472051,-0.316112252403648,-0.528078207577664,0.0374023966914048,0.508085440029696,0.007634215999104,-1.55603479799296
735,1778472051,-0.5442477,-0.58158845,-0.011714748,0.6432411,0.13255776,-0.9077458
736,1778472051,-0.7570656,-0.6967834,-0.0353883,0.6432411,0.13255776,-0.9077458
737,1778472051,-0.827110055,-0.7789087,-0.0351442435,0.6218608,-0.0012217305,0.040317107
738,1778472051,-0.76072645,-0.8066092,-0.026846299,0.7079928,-0.4111123,0.7874053
739,1778472051,-0.5930591,-0.8031924,-0.04075756,0.6236934,-0.52656585,1.4844025
740,1778472051,-0.5186216,-0.780251,-0.07980672,0.68966687,-0.56505036,1.3084733
741,1778472051,-0.45223805,-0.7511471750000001,-0.1123273485,0.6525568025,-0.54748798,1.3927727250000002
742,1778472051,-0.3858545,-0.72204335,-0.144847977,0.615446735,-0.5299256,1.47707215
743,1778472051,-0.3231719301155835,-0.6541541873532273,-0.226241764218094,0.48319327811828,-0.7621582150262826,1.7829146431558691
744,1778472051,-0.260489360231167,-0.5862650247064546,-0.307635551436188,0.3509398212365601,-0.994390830052565,2.0887571363117385
745,1778472051,-0.197808395,-0.5183776,-0.389027255,0.21868975,-1.2266175,2.3945918
746,1778472051,-0.08151512,-0.40952805,-0.5256993,0.18020524,-1.5900823,2.5607471
747,1778472051,0.23893206,-0.19426957,-0.6152683,0.18020524,-1.5900823,2.5607471
748,1778472051,0.4813663908262862,-0.0318873753793509,-0.5474192320573954,0.1223756788881232,-1.819567883170488,2.699415866583324
749,1778472051,0.7237945154131431,0.1304906623103244,-0.4795719010286977,0.0645475981940616,-2.049047591585244,2.838081083291662
750,1778472051,0.96622264,0.2928687,-0.41172457,0.0067195175,-2.2785273,2.9767463
751,1778472051,1.0042142033333332,0.2735881773333333,-0.43702517,-0.3380121066666666,-1.9052887333333333,3.631390266666667
752,1778472051,1.3168962039450454,0.3986691146821717,-0.397161974757632,-0.4906285567988906,-1.4095652214869332,3.692274012635307
753,1778472051,1.6295702,0.52374685,-0.3572998,-0.6432411,-0.9138544,3.7531562
754,1778472051,1.65061988056064,0.55608403607872,-0.292930531437184,-0.59009648025984,-0.631943693503232,3.54241029758208
755,1778472051,1.6716701,0.58842205,-0.228559615,-0.5369505,-0.35002577,3.331659
756,1778472051,1.7945529,0.63015586,-0.2767609,0.07269296,-0.7666359,3.2522466
757,1778472051,1.939767,0.7165521,-0.4702983,0.58032197,-1.3616186,3.0622675
758,1778472051,1.9984617815962389,0.7551531612001229,-0.4958832050120319,0.58032197,-1.3616186,3.0622675
759,1778472051,2.057158065798119,0.7937552106000615,-0.5214687650060159,0.58032197,-1.3616186,3.0622675
760,1778472051,2.11585435,0.83235726,-0.547054325,0.58032197,-1.3616186,3.0622675
761,1778472051,2.142029425,0.86731848,-0.5462611624999999,0.548556985,-1.08092605,2.93520745
762,1778472051,2.1682045,0.9022797,-0.545468,0.516792,-0.8002335,2.8081474
763,1778472051,2.124322564404731,0.9110322867503412,-0.530848816013972,0.5051701686189699,-0.7030362063374526,2.723503533132898
764,1778472051,2.080440628809462,0.9197848735006824,-0.5162296320279443,0.4935483372379399,-0.6058389126749052,2.6388596662657955
765,1778472051,2.0365598165773653,0.9285372361876706,-0.5016108222882361,0.4819268033719849,-0.5086441072312263,2.554217966253949
766,1778472051,1.992679004345269,0.9372895988746588,-0.4869920125485278,0.4703052695060301,-0.4114493017875474,2.4695762662421026
767,1778472051,1.94879706875,0.946042185625,-0.4723728285624999,0.458683438125,-0.314252008125,2.384932399375
768,1778472051,1.9049151331547312,0.9547947723753412,-0.4577536445764721,0.4470616067439699,-0.2170547144624526,2.300288532507898
769,1778472051,1.8610343209226343,0.9635471350623296,-0.4431348348367639,0.435440072878015,-0.1198599090187737,2.215646832496051
770,1778472051,1.8171535086905377,0.9722994977493178,-0.4285160250970558,0.4238185390120601,-0.0226651035750948,2.131005132484205
771,1778472051,1.7732715730952688,0.981052084499659,-0.4138968411110278,0.41219670763103,0.0745321900874525,2.046361265617102
772,1778472051,1.7293896375,0.98980467125,-0.399277657125,0.40057487625,0.17172948375,1.96171739875
773,1778472051,1.25933538375,0.936279855625,-0.0549128785624999,0.1996765728749999,0.3292945418749999,0.960089279375
774,1778472051,0.78928113,0.88275504,0.2894519,-0.0012217305,0.4868596,-0.04153884
775,1778472051,0.75389284,0.8949579,0.35705575,-0.0012217305,0.4868596,-0.04153884
776,1778472051,0.780678462851584,0.92296383347136,0.323558466240256,0.1872326069346432,0.534507709888,-0.116981660655744
777,1778472051,0.8074634,0.95096905,0.29006204,0.37568212,0.5821546,-0.19242255
778,1778472051,0.7774752588531201,0.93049899952,0.249396520525312,0.452802865341824,0.616057176041472,-0.31642661272768
779,1778472051,0.7474863500000001,0.910028425,0.20872996,0.529925585,0.64996062,-0.44043385
780,1778472051,0.71749744114688,0.8895578504799999,0.168063399474688,0.6070483046581759,0.6838640639585281,-0.56444108727232
781,1778472052,0.6875093,0.8690878,0.12739788,0.68416905,0.71776664,-0.68844515
782,1778472052,0.5130083,0.7294871,-0.017816179,1.0512991,0.6731735,-1.8380935
783,1778472052,0.543515475,0.70288487,-0.1044565045,1.00059727,0.69974615,-1.9306396
784,1778472052,0.57402265,0.67628264,-0.19109683,0.94989544,0.7263188,-2.0231857
785,1778472052,0.656514,0.69556314,-0.24845028,0.94989544,0.7263188,-2.0231857
786,1778472052,0.8578612,0.75364876,-0.20476402,0.60903263,0.9627236,-2.1245892
787,1778472052,1.0560358,0.81368685,-0.17742962,0.32436943,1.1227703,-2.1355848
788,1778472052,1.2549424,0.8578612,-0.1564407,0.23884831,1.056186,-2.1685717
789,1778472052,1.8831457,0.9279056,-0.20769271,0.312763,0.70921457,-2.4379632
790,1778472052,2.254601,0.95621634,-0.298482,0.312763,0.70921457,-2.4379632
791,1778472052,2.6204426,0.9615856,-0.4385709,0.312763,0.70921457,-2.4379632
792,1778472052,3.0846395,0.835408,-0.6199054,0.31215215,0.44165558,-2.7519479
793,1778472052,3.008005525,0.6611511025,-0.6221019250000001,0.117286135,0.145691369,-3.252399275
794,1778472052,2.9313715499999997,0.4868942049999999,-0.62429845,-0.0775798799999999,-0.150272842,-3.75285065
795,1778472052,2.7655739352117963,0.3863417586301071,-0.5951333611277605,-0.1408049728472198,-0.1931355904241048,-3.867694279986432
796,1778472052,2.599776320423593,0.2857893122602143,-0.565968272255521,-0.2040300656944397,-0.2359983388482097,-3.982537909972864
797,1778472052,2.43398295,0.18523944,-0.53680393,-0.26725354,-0.27885999,-4.0973786
798,1778472052,2.180330445724818,0.085177681075878,-0.5701171681134587,-0.5355206031835171,-0.214211186520369,-3.874009362217121
799,1778472052,1.926671447862409,-0.0148866394620609,-0.6034312590567293,-0.8037945340917586,-0.1495607280101845,-3.6506344061085607
800,1778472052,1.67301245,-0.11495096,-0.63674535,-1.072068465,-0.0849102695,-3.42725945
801,1778472052,1.4072341,-0.19060871,-0.520086,-1.1606439,-0.087964594,-3.3609805
802,1778472052,1.1602482,-0.25308737,-0.3572998,-1.3329079,-0.077579886,-3.2626312
803,1778472052,0.9359596,-0.302631,-0.20061506,-1.5033394,-0.019547688,-3.1429017
804,1778472052,0.707519077248736,-0.3492617818663679,-0.084838919959376,-1.39994912662144,-0.0083992543018752,-2.98796901688704
805,1778472052,0.4790844025,-0.3958913699999999,0.03093425625,-1.2965615,0.002748894,-2.8330403
806,1778472052,0.250649727751264,-0.442520958133632,0.146707432459376,-1.19317387337856,0.0138970423018752,-2.67811158311296
807,1778472052,0.0222092049999999,-0.48915174,0.2624835725,-1.0897836,0.025045476,-2.5231789
808,1778472052,-0.1815820746599878,-0.5627159154791914,0.2841236793197624,-0.6152350178078626,-0.2127887816527088,-2.0819230359963137
809,1778472052,-0.3853681373299939,-0.6362782077395956,0.3057632321598812,-0.1406985839039312,-0.4506169508263543,-1.6406784679981568
810,1778472052,-0.5891542,-0.7098405,0.327402785,0.33383785,-0.6884451199999999,-1.1994338999999998
811,1778472052,-0.6733539,-0.767316,0.23551524,0.4392121,-0.7134906,-1.0726794
812,1778472052,-0.70923036,-0.8256457,0.05344854,0.6933321,-0.3494149,-0.18570304
813,1778472052,-0.72777873,-0.8363842,-0.038316987,0.6536258,-0.20891592,0.047647487
814,1778472052,-0.742421977564032,-0.8474886878607361,-0.0671153748759168,0.6105603512448,-0.1411107409174015,0.1994455604597887
815,1778472052,-0.7570656,-0.85859346,-0.0959145,0.5674938,-0.073303826,0.35124752
816,1778472052,-0.731514623364461,-0.8423981105500864,-0.1042908812293102,0.5492883015065105,-0.1202429442535515,0.5019745801022292
817,1778472052,-0.7059643008255514,-0.8262031756958118,-0.1126670480260057,0.5310832690678169,-0.1671808608810565,0.6526977816411094
818,1778472052,-0.6804139782866419,-0.8100082408415372,-0.1210432148227012,0.5128782366291232,-0.2141187775085616,0.8034209831799896
819,1778472052,-0.6548630016511029,-0.7938128913916235,-0.1294195960520115,0.4946727381356336,-0.2610578957621131,0.9541480432822188
820,1778472052,-0.6293120250155638,-0.7776175419417098,-0.1377959772813217,0.4764672396421441,-0.3079970140156646,1.104875103384448
821,1778472052,-0.6037617024766543,-0.7614226070874353,-0.1461721440780173,0.4582622072034505,-0.3549349306431697,1.255598304923328
822,1778472052,-0.5782113799377447,-0.7452276722331607,-0.1545483108747128,0.4400571747647569,-0.4018728472706747,1.4063215064622083
823,1778472052,-0.5526604033022058,-0.7290323227832469,-0.162924692104023,0.4218516762712673,-0.4488119655242262,1.5570485665644376
824,1778472052,-0.5271094266666667,-0.7128369733333333,-0.1713010733333333,0.4036461777777778,-0.4957510837777777,1.7077756266666666
825,1778472052,-0.2212717933333333,-0.5570335416666666,-0.3857799366666666,0.5788796563888889,-0.7770375818888888,2.2727750633333335
826,1778472052,0.0845658399999999,-0.40123011,-0.6002588,0.7541131350000001,-1.05832408,2.8377745
827,1778472052,1.2644606,0.0012202862,-1.1294969,0.8558222,-1.3988814,4.0506473
828,1778472052,1.7611255596401478,0.1728768203673513,-1.1489811491935966,0.1730668477911373,-1.1738755399491412,4.496790247408842
829,1778472052,2.2577778048200736,0.3445289601836756,-1.1684648995967983,-0.5096710261044312,-0.9488754399745706,4.942921773704421
830,1778472052,2.75443005,0.5161811,-1.18794865,-1.1924089,-0.72387534,5.3890533
831,1778472052,3.385318,0.85175985,-1.0186949,-1.5173893,-0.5222898,5.2644367
832,1778472052,3.5922785,1.0579882,-0.5442477,-1.5173893,-0.5222898,5.2644367
833,1778472052,3.60130875,1.13889315,-0.25076884,-1.74004965,-0.394313525,5.02894805
834,1778472052,3.610339,1.2197981,0.04271002,-1.96271,-0.26633725,4.7934594
835,1778472052,3.5659206,1.2878901,0.2796896,-1.7776178,-0.11789699,4.2143593
836,1778472052,3.19324515,1.2916729,0.40818573,-1.359786,-0.0018325958,3.6981783
837,1778472052,2.85397940515712,1.22379538134336,0.31108269793472,-0.8081817506247679,0.0435235675836774,3.11664199376
838,1778472052,2.51471366031424,1.15591786268672,0.21397966586944,-0.256577501249536,0.0888797309673548,2.53510568752
839,1778472052,2.1754392301571204,1.08803860634336,0.11687414793472,0.295040869375232,0.1342370554836774,1.95355449376
840,1778472052,1.8361648,1.02015935,0.01976863,0.84665924,0.17959438,1.3720033
841,1778472052,1.45635065,0.949504725,-0.1270318,1.04396872,0.176540055,1.06504353
842,1778472052,1.0765365,0.8788501,-0.27383223,1.2412782,0.17348573,0.75808376
843,1778472052,0.930712325,0.87043017,-0.298848105,1.10139005,0.31398474,0.73670348
844,1778472052,0.78488815,0.86201024,-0.32386398,0.9615019,0.45448375,0.7153232
845,1778472052,0.6221019,0.88934463,-0.24527754,0.6243043,0.7874053,0.57726765
846,1778472052,0.522283757688576,0.903621782250112,-0.178772786271744,0.6243043,0.7874053,0.57726765
847,1778472052,0.42246306,0.9178993,-0.11226633,0.6243043,0.7874053,0.57726765
848,1778472052,0.31654227,0.91814333,-0.050763905,0.6243043,0.7874053,0.57726765
849,1778472052,0.242592915,0.911553805,-0.0098843172499999,0.7678576075,0.6537785174999999,0.1774563549999999
850,1778472052,0.16864356,0.90496428,0.0309952704999999,0.911410915,0.520151735,-0.22235494
851,1778472052,0.12886222,0.88373125,0.0,1.1594223,0.3726278,-0.44898596
852,1778472052,0.2074486549999999,0.855298625,-0.22660715,1.1594223,0.3726278,-0.44898596
853,1778472052,0.2513789675,0.8559698125,-0.285241905,1.2324206999999998,0.355523575,-0.559552565
854,1778472052,0.29530928,0.856641,-0.34387666,1.3054191,0.33841935,-0.67011917
855,1778472052,0.48787045,0.87958235,-0.47786412,1.1563679,0.31764993,-1.0946705
856,1778472052,0.66847277,0.8917852,-0.43417785,0.9877691,0.29932398,-1.287093
857,1778472052,0.7779920681350401,0.903499795051264,-0.4093148357506559,0.929508575744256,0.1688295624749247,-1.43965465968576
858,1778472052,0.8875113662700801,0.915214390102528,-0.3844518215013119,0.871248051488512,0.0383351449498496,-1.59221631937152
859,1778472052,0.99703346813504,0.926929285051264,-0.3595881707506559,0.812986035744256,-0.0921626132750751,-1.74478188468576
860,1778472052,1.10655557,0.93864418,-0.3347245199999999,0.75472402,-0.2226603715,-1.89734745
861,1778472052,1.668614600368215,0.996892022945378,-0.5226063383879611,0.7865905480688131,-0.405816568047117,-1.9581280313324003
862,1778472052,2.2306736307364297,1.0551398658907558,-0.7104881567759221,0.8184570761376262,-0.5889727645942341,-2.018908612664801
863,1778472052,2.79274705,1.1133892,-0.8983747849999999,0.85032442,-0.77213365,-2.07969075
864,1778472052,2.972918597110601,1.0608617479874047,-1.035130512823436,0.4402232210291243,-0.858063499850666,-2.38950648745424
865,1778472052,3.153085531888634,1.008335640660369,-1.1718827397450513,0.0301325205145621,-0.943991149925333,-2.69931429372712
866,1778472052,3.3332524666666665,0.9558095333333334,-1.3086349666666666,-0.37995818,-1.0299188,-3.0091221000000004
867,1778472052,3.0729249,0.39586085,-1.0462735,-0.95356065,-0.8399397,-3.2381966
868,1778472052,3.010309932034372,0.3557265355887565,-0.9876448440558308,-1.0968440968930178,-0.7656169166049328,-3.2857767746830584
869,1778472052,2.947696566991407,0.3155932486028108,-0.9290176889860424,-1.2401238757767457,-0.6912960358487668,-3.3333557313292355
870,1778472052,2.885083201948442,0.2754599616168652,-0.870390533916254,-1.383403654660473,-0.6169751550926007,-3.3809346879754125
871,1778472052,2.8224682339828138,0.2353256472056217,-0.8117618779720847,-1.5266871015534913,-0.5426523716975336,-3.4285148626584707
872,1778472052,2.759853266017186,0.1951913327943782,-0.7531332220279153,-1.669970548446509,-0.4683295883024664,-3.476095037341529
873,1778472052,2.6972399009742207,0.1550580458084326,-0.694506066958127,-1.8132503273302367,-0.3940087075463003,-3.5236739939877064
874,1778472052,2.6346265359312557,0.1149247588224869,-0.6358789118883387,-1.9565301062139648,-0.3196878267901343,-3.5712529506338835
875,1778472052,2.5720115679656277,0.0747904444112434,-0.5772502559441693,-2.0998135531069826,-0.2453650433950671,-3.6188331253169417
876,1778472052,2.5093966,0.03465613,-0.5186216,-2.243097,-0.17104226,-3.6664133
877,1778472052,1.1014710533333334,-0.355021945,0.1272351808333333,-2.04334425,0.0133372205,-3.2588642666666665
878,1778472052,0.5582766728583132,-0.4357492855690856,0.2389843700116479,-1.7000438590683349,0.0644793441632505,-2.951434591311397
879,1778472052,0.0150683864291566,-0.5164786927845428,0.3507364200058239,-1.3567346795341677,0.1156227770816252,-2.6439970456556985
880,1778472052,-0.5281399,-0.5972081,0.46248847,-1.0134255,0.16676621,-2.3365595
881,1778472053,-0.6428468,-0.6106312,0.46736962,-0.27672195,0.29932398,-1.5247196
882,1778472053,-0.7397375,-0.6325964,0.44027928,-0.27672195,0.29932398,-1.5247196
883,1778472053,-0.831991105,-0.7102066,0.29616347,0.53633965,0.129198,-0.671035485
884,1778472053,-0.8349198299871999,-0.74687664437056,0.1904853270870848,0.8929368393856,-0.030698024142912,-0.159429284024448
885,1778472053,-0.83784848,-0.78354575,0.0848098895,1.2495249,-0.190589955,0.35216382
886,1778472053,-0.6897058,-0.77854264,-0.17254847,1.0910053,-0.16065755,1.3225232
887,1778472053,-0.61728088547296,-0.74748594872944,-0.158057385766496,0.947144708608,-0.12675409729136,1.48822254592448
888,1778472053,-0.54485597094592,-0.71642925745888,-0.143566301532992,0.803284117216,-0.09285064458272,1.65392189184896
889,1778472053,-0.47243291047296,-0.6853733612294399,-0.129075588266496,0.659427208608,-0.05894805979136,1.81961699592448
890,1778472053,-0.40000985,-0.654317465,-0.114584875,0.5155703,-0.025045475,1.9853121
891,1778472053,-0.29604145,-0.5967199625,-0.0376458275,0.5155703,-0.025045475,1.9853121
892,1778472053,-0.19207305,-0.53912246,0.03929322,0.5155703,-0.025045475,1.9853121
893,1778472053,-0.15595257,-0.5183776,0.08322352,0.45570546,0.03970624,2.1245892
894,1778472053,-0.1134871575642368,-0.51624211483456,0.0506422955450112,0.602158520376832,-0.015118213238016,2.14963440441728
895,1778472053,-0.071020658,-0.514106575,0.018060237,0.74861533,-0.06994407,2.17468025
896,1778472053,0.0923784566425286,-0.4675722008235128,-0.2316145863957777,0.9180315279994368,-0.1965989598824528,2.2343424515552064
897,1778472053,0.2557733883212643,-0.4210390179117564,-0.4812830181978889,1.0874433889997184,-0.3232506074412264,2.2940031257776035
898,1778472053,0.41916832,-0.374505835,-0.7309514500000001,1.25685525,-0.449902255,2.3536638
899,1778472053,0.61801395,-0.31611515,-0.944013425,1.196226875,-0.6207918025,2.5738807500000003
900,1778472053,0.81685958,-0.257724465,-1.1570754,1.1355985,-0.79168135,2.7940977
901,1778472053,0.88202289,-0.2630937325,-1.2776397000000002,0.636521585,-0.59070669,3.05371535
902,1778472053,0.9471862,-0.268463,-1.398204,0.13744467,-0.38973203,3.313333
903,1778472053,1.2418243,-0.1946356665,-1.461780925,-0.1116356224999999,-0.35445456,3.586695175
904,1778472053,1.5364624,-0.1208083329999999,-1.52535785,-0.360715915,-0.31917709,3.86005735
905,1778472053,3.1804321499999997,0.41623965,-1.0970373,-2.0729712,-0.482888975,5.63370465
906,1778472053,3.85701116467776,0.77091128514496,-0.5420582368229376,-2.36664089097984,-0.51480627895328,5.79787257362368
907,1778472053,4.5336075,1.125592,0.012935034,-2.6603181,-0.5467244,5.9620447
908,1778472053,4.399376,1.2503053,0.40830776,-2.6859746,-0.028099801,4.782464
909,1778472053,3.845122025,1.205276775,0.53363116,-2.285705125,0.15118914925,4.136321275
910,1778472053,3.2908680500000003,1.16024825,0.65895456,-1.88543565,0.3304780995,3.49017855
911,1778472053,2.6724269250000003,1.012593575,0.26297168,-0.9818132,0.37293323975,2.542268425
912,1778472053,2.0539858,0.8649389,-0.1330112,-0.07819075,0.41538838,1.5943583
913,1778472053,1.90587547083648,0.8384590326966399,-0.259370212583936,0.33390893755648,0.222281071805184,1.385903197009472
914,1778472053,1.75776514167296,0.81197916539328,-0.385729225167872,0.7460086251129601,0.029173763610368,1.177448094018944
915,1778472053,1.60965102083648,0.78549862019664,-0.512091472583936,1.15811886255648,-0.163938488194816,0.968987654509472
916,1778472053,1.4615369,0.759018075,-0.63845372,1.5702291000000002,-0.35705074,0.760527215
917,1778472053,1.421821738486684,0.754268399453295,-0.6459756036890162,1.5122524109230846,-0.3148780412161115,0.7545439386443342
918,1778472053,1.382106576973368,0.74951872390659,-0.6534974873780323,1.4542757218461688,-0.272705342432223,0.7485606622886685
919,1778472053,1.3423903987389034,0.7447689267666348,-0.6610195636297357,1.3962975485470148,-0.2305315640134262,0.7425772327591674
920,1778472053,1.3026742205044386,0.7400191296266794,-0.6685416398814391,1.3383193752478608,-0.1883577855946295,0.7365938032296664
921,1778472053,1.2629590589911226,0.7352694540799745,-0.6760635235704552,1.2803426861709453,-0.146185086810741,0.7306105268740006
922,1778472053,1.2232438974778066,0.7305197785332695,-0.6835854072594714,1.2223659970940297,-0.1040123880268524,0.7246272505183349
923,1778472053,1.183527719243342,0.7257699813933142,-0.6911074835111748,1.1643878237948757,-0.0618386096080557,0.7186438209888338
924,1778472053,1.1438115410088772,0.7210201842533589,-0.6986295597628782,1.1064096504957217,-0.019664831189259,0.7126603914593327
925,1778472053,1.1040963794955612,0.716270508706654,-0.7061514434518943,1.048432961418806,0.0225078675946294,0.7066771151036669
926,1778472053,1.0643812179822454,0.711520833159949,-0.7136733271409105,0.9904562723418904,0.064680566378518,0.7006938387480012
927,1778472053,1.0246650397477806,0.7067710360199937,-0.7211954033926139,0.9324780990427364,0.1068543447973147,0.6947104092185001
928,1778472053,0.9849488615133158,0.7020212388800383,-0.7287174796443172,0.8744999257435823,0.1490281232161114,0.6887269796889991
929,1778472053,0.9452336999999998,0.6972715633333334,-0.7362393633333334,0.8165232366666667,0.191200822,0.6827437033333333
930,1778472053,0.8029483454545455,0.8457471299999999,0.055534117,0.1221730363636363,0.5849312363636364,-0.1192853290909091
931,1778472053,0.7872066477272728,0.7451511475,-0.049049959,0.5604688431818182,0.4798485306818182,-1.1556876395454545
932,1778472053,0.77146495,0.6445551650000001,-0.153634035,0.99876465,0.374765825,-2.1920899499999997
933,1778472053,0.85883746,0.6286914325,-0.1939644925,0.9917397,0.3556762825,-2.303725575
934,1778472053,0.94620997,0.6128277,-0.23429495,0.98471475,0.33658674,-2.4153612
935,1778472053,1.1061301235614116,0.6311687973104325,-0.2806663028365751,0.9112269129941812,0.3313637895176716,-2.4641392744810893
936,1778472053,1.2660502771228237,0.649509894620865,-0.3270376556731503,0.8377390759883623,0.3261408390353432,-2.5129173489621786
937,1778472053,1.4259663367807058,0.6678505224052163,-0.3734078214182876,0.7642531202470906,0.3209180222588358,-2.561694174740545
938,1778472053,1.5858823964385884,0.6861911501895674,-0.4197779871634249,0.6907671645058189,0.3156952054823283,-2.6104710005189107
939,1778472053,1.74580255,0.7045322475,-0.46614934,0.6172793275,0.310472255,-2.659249075
940,1778472053,2.33819045,0.60611618,-0.457851385,-0.073303826,0.43676865,-3.3939674
941,1778472053,2.3954829749999997,0.53308204,-0.4231952625,-0.138055543,0.361021355,-3.5301903500000003
942,1778472053,2.4527755,0.4600479,-0.38853914,-0.20280726,0.28527406,-3.6664133
943,1778472053,2.47779125,0.293234775,-0.418436155,-0.18570304,0.15149458,-3.726889
944,1778472053,2.2611904,0.08419975,-0.43979117,-0.16371189,0.008552114,-3.8276815
945,1778472053,2.055206,-0.029286869,-0.45467865,-0.19608775,-0.43493605,-4.1453314
946,1778472053,1.72829135,-0.136305978,-0.49397187,-0.19608775,-0.43493605,-4.1453314
947,1778472053,1.607055925,-0.160284604,-0.5020257349999999,-0.586736075,-0.256868835,-3.6664131
948,1778472053,1.4858205,-0.18426323,-0.5100796,-0.9773844,-0.07880162,-3.1874948
949,1778472053,1.3518331,-0.21013328,-0.44516042,-0.9773844,-0.07880162,-3.1874948
950,1778472053,0.9767171,-0.27041543,-0.17132819,-1.4575244,0.31764993,-2.6285532
951,1778472053,0.779518865,-0.29835998,-0.0095182349999999,-1.3851369,0.34391713,-2.4706444999999997
952,1778472053,0.58232063,-0.32630453,0.15229172,-1.3127494,0.37018433,-2.3127358
953,1778472053,0.35998443,-0.35949633,0.3099527,-1.3127494,0.37018433,-2.3127358
954,1778472053,0.2279923926929378,-0.3838202831992183,0.3492045650929276,-1.099561070127402,0.3053319114954432,-2.197386051994231
955,1778472053,0.0959969763464689,-0.4081448590996092,0.3884574350464638,-0.886367282563701,0.2404778327477216,-2.082033350997116
956,1778472053,-0.03599844,-0.432469435,0.427710305,-0.673173495,0.175623754,-1.96668065
957,1778472053,-0.318677745,-0.5503490925000001,0.31330848,0.1514946025,-0.1049161079999999,-1.330617225
958,1778472053,-0.6013570500000001,-0.66822875,0.198906655,0.9761627,-0.38545597,-0.6945538
959,1778472053,-0.675245375,-0.7106947250000001,0.1150729915,1.010065725,-0.3791945974999999,-0.53007832825
960,1778472053,-0.7491337,-0.7531607,0.031239328,1.04396875,-0.372933225,-0.3656028565
961,1778472053,-0.7883049,-0.7936742,-0.08175918,1.1117748,-0.36041048,-0.036651913
962,1778472053,-0.7710380835180799,-0.803802430356992,-0.140210141818112,0.93798584952704,-0.236253716726912,0.5207554760940928
963,1778472053,-0.7537708249999999,-0.81393092,-0.1986626,0.76419245,-0.112093775,1.078177135
964,1778472053,-0.63289991537216,-0.77860316781056,-0.185117254121792,0.64323957682304,-0.08506264150592,1.320693771673216
965,1778472053,-0.5120321,-0.74327632,-0.171572255,0.5222898,-0.0580322,1.5632042
966,1778472053,-0.4074146821601188,-0.711224027032802,-0.1228429861568334,0.4273018694814315,-0.0387902727330955,1.7208047435829603
967,1778472053,-0.3027945860800594,-0.679170913516401,-0.0741124698284167,0.3323115072407158,-0.0195478528665477,1.8784093217914803
968,1778472053,-0.1981744899999999,-0.6471178,-0.0253819535,0.2373211449999999,-0.0003054329999999,2.0360139
969,1778472053,-0.1516205675,-0.6255187274999999,-0.040879588625,0.290160995,0.007177666625,2.197740475
970,1778472053,-0.105066645,-0.603919655,-0.05637722375,0.343000845,0.0146607662499999,2.35946705
971,1778472053,-0.0122796372026133,-0.5765363070161508,-0.1101902754764862,0.2780192219032782,-0.0075286320877928,2.4589799677305244
972,1778472053,0.0805073705947733,-0.5491529590323015,-0.1640033272029724,0.2130375988065564,-0.0297180304255857,2.558492885461049
973,1778472053,0.1732920030751644,-0.5217703120531878,-0.2178150013329677,0.148057639218093,-0.0519068607220521,2.6580032556934876
974,1778472053,0.2660766355555556,-0.494387665074074,-0.271626675462963,0.0830776796296296,-0.0740956910185185,2.757513625925926
975,1778472053,0.3588636433529423,-0.4670043170902248,-0.3254397271894492,0.0180960565329078,-0.0962850893563114,2.8570265436564504
976,1778472053,0.451650651150329,-0.4396209691063756,-0.3792527789159354,-0.0468855665638138,-0.1184744876941043,2.956539461386975
977,1778472053,0.5444352836307201,-0.4122383221272618,-0.4330644530459307,-0.1118655261522772,-0.1406633179905707,3.0560498316194136
978,1778472053,0.6372199161111113,-0.3848556751481481,-0.486876127175926,-0.1768454857407407,-0.162852148287037,3.155560201851852
979,1778472053,0.730006923908498,-0.3574723271642989,-0.5406891789024122,-0.2418271088374624,-0.1850415466248299,3.2550731195823768
980,1778472053,0.8227939317058847,-0.3300889791804496,-0.5945022306288984,-0.3068087319341842,-0.2072309449626228,3.354586037312901
981,1778472054,0.9155785641862758,-0.3027063322013359,-0.6483139047588937,-0.3717886915226476,-0.2294197752590892,3.4540964075453395
982,1778472054,1.0083631966666669,-0.2753236852222222,-0.7021255788888889,-0.4367686511111111,-0.2516086055555556,3.553606777777778
983,1778472054,3.4246112,0.65761227,0.0982330405,-2.3124303499999996,-0.657290995,4.87378835
984,1778472054,3.4016696063513603,0.761581980795264,0.2610823296942208,-2.0114226471507197,-0.6316343315989119,4.45518756697856
985,1778472054,3.3787286,0.8655490299999999,0.42392745,-1.71042265,-0.6059783249999999,4.0365975
986,1778472054,3.17762797412096,0.876226408327808,0.231612796659072,-1.15881838562496,-0.58093318308192,3.56929163159168
987,1778472054,2.9765222,0.88690406,0.03929322,-0.6072,-0.5558874,3.1019738
988,1778472054,2.8502204111437273,0.8674605081676295,-0.0686226017397834,-0.2857776027946359,-0.6180948999944107,2.8507002283192677
989,1778472054,2.723921855571864,0.8480174540838147,-0.1765356608698917,0.035636566102682,-0.6803008074972053,2.599433089159634
990,1778472054,2.5976233,0.8285743999999999,-0.28444872,0.3570507349999999,-0.742506715,2.34816595
991,1778472054,2.1762586,0.75950617,-0.54668826,0.24801129,-0.2773328,1.8625281
992,1778472054,2.084981,0.7678041,-0.5610876,0.036651913,-0.09162979,1.8710803
993,1778472054,1.994923925,0.798006185,-0.4963514175,-0.2406808935,0.190589955,1.7837265
994,1778472054,1.90486685,0.82820827,-0.431615235,-0.5180137,0.4728097,1.6963727
995,1778472054,1.7013231,0.82479147,-0.2856079944999999,-0.711658,0.70005155,1.49326005
996,1778472054,1.49777935,0.82137467,-0.139600754,-0.9053023,0.9272934,1.2901474
997,1778472054,1.3191309744856512,0.8312995886396102,-0.0333554043052557,-0.7621574281852083,0.8833114953170574,1.0787898369409576
998,1778472054,1.1404825989713023,0.8412245072792204,0.0728899453894885,-0.6190125563704165,0.8393295906341147,0.8674322738819152
999,1778472054,0.96182965,0.85114968,0.1791380149999999,-0.47586402,0.79534656,0.6560693
1000,1778472054,0.81942225,0.93620365,0.23527119,0.12583824,0.38973203,0.3549127
