id,timestamp,acc_x,acc_y,acc_z,gyro_x,gyro_y,gyro_z
0,1778472128,1.1966126,-0.067359805,1.0557917,0.13133603,-0.1704314,0.64751714
1,1778472128,1.153545191269888,-0.051691529478716,1.041717907257964,0.1635282163791843,-0.1474835227699217,0.5740852920063523
2,1778472128,1.11047668,-0.0360228528444444,1.0276437542222223,0.1957212268888888,-0.1245350580666666,0.5006515641333333
3,1778472128,1.067408168730112,-0.0203541762101728,1.0135696011864803,0.2279142373985934,-0.1015865933634116,0.4272178362603144
4,1778472128,1.02434076,-0.0046859006888888,0.9994958084444444,0.2601064237777777,-0.0786387161333333,0.3537859882666667
5,1778472128,0.981273351269888,0.010982374832395,0.9854220157024086,0.2922986101569621,-0.055690838903255,0.2803541402730189
6,1778472128,0.93820484,0.0266510514666666,0.9713478626666668,0.3244916206666667,-0.0327423741999999,0.2069204124
7,1778472128,0.895136328730112,0.0423197281009382,0.9572737096309248,0.3566846311763712,-0.0097939094967449,0.1334866845269811
8,1778472128,0.8520689199999999,0.0579880036222222,0.9431999168888888,0.3888768175555556,0.0131539677333333,0.0600548365333333
9,1778472128,0.809001511269888,0.0736562791435061,0.929126124146853,0.4210690039347399,0.0361018449634116,-0.0133770114603144
10,1778472128,0.765933,0.0893249557777777,0.9150519711111113,0.4532620144444444,0.0590503096666666,-0.0868107393333333
11,1778472128,0.4327135,0.45858356,0.61624455,0.8698721,-0.099571034,-0.6041457
12,1778472129,0.58110034,0.53887844,1.0631135,0.59864795,-0.376293,-0.6719518
13,1778472129,0.660417904722176,0.5230148980559359,1.24957076331648,0.70951855583808,-0.521371622969856,-0.86009584172544
14,1778472129,0.7397375,0.50715095,1.4360328,0.820392,-0.66645396,-1.0482447
15,1778472129,0.8168605871628801,0.5087983535864959,1.47837731700288,1.1808071132544,-0.652098446251776,-1.1951596804876798
16,1778472129,0.8939817000000001,0.5104457149999999,1.52072075,1.541213,-0.6377433,-1.3420709
17,1778472129,1.0819057,0.5213063,1.5556209,2.3212879,-0.5497787,-1.7330247
18,1778472129,1.1440793,0.465905305,1.418887825,2.66367785,-0.681420175,-1.94804925
19,1778472129,1.2062529,0.41050431,1.28215475,3.0060678,-0.81306165,-2.1630738
20,1778472129,1.2129645,0.3900035,1.2251674,3.3560936,-1.2211196,-2.3591616
21,1778472129,2.0134723,0.26065314,1.3676969,3.68535,-1.7012597,-2.5149322
22,1778472129,2.231905413938714,0.188533608921212,1.2879708196794897,3.942017440200788,-1.6444487485527528,-3.047204025328105
23,1778472129,2.450338527877428,0.1164140778424241,1.2082447393589788,4.198684880401577,-1.5876377971055058,-3.5794758506562103
24,1778472129,2.66876605,0.044296393,1.1285207,4.455345749999999,-1.5308283,-4.11173405
25,1778472129,2.753698,-0.18938842,0.69312257,4.4849725,-1.346347,-4.4733663
26,1778472129,2.5809054,-0.41026023,0.2037878,3.2711835,-0.050701816,-5.76779
27,1778472129,2.4003031,-0.5098356,0.16742326,3.2711835,-0.050701816,-5.76779
28,1778472129,2.54051385,-0.56926355,0.47908438,2.34908235,0.3631593919999999,-5.805358
29,1778472129,2.6807246,-0.6286915,0.7907455,1.4269812,0.7770206,-5.842926
30,1778472129,2.8200815,-0.6740861,0.9650024,1.4269812,0.7770206,-5.842926
31,1778472129,2.5150099,-0.87030816,0.90740484,1.5442673,0.6627888,-5.920506
32,1778472129,2.37809385,-0.922536405,0.81905612,1.96790235,0.1899790999999999,-6.058256149999999
33,1778472129,2.2411778,-0.97476465,0.7307074,2.3915374,-0.2828306,-6.1960063
34,1778472129,1.9168257,-1.0621371,0.44857723,2.3848178,-0.35918877,-5.960823
35,1778472129,1.3550059,-1.0831261,0.0605262,1.998751,-0.35613444,-5.2509975
36,1778472129,1.1158297,-1.0435888,0.064919226,1.998751,-0.35613444,-5.2509975
37,1778472129,0.9612214290112,-0.991971340711936,0.0826131515148544,1.70126345788928,-0.1884540763361279,-4.199101064446721
38,1778472129,0.8066092,-0.94035256,0.10030753,1.4037683,-0.02076942,-3.1471777
39,1778472129,0.674084418704512,-0.910455172318336,0.08383345663456,1.46149583890304,-0.003664973565888,-2.94864400880128
40,1778472129,0.54156303,-0.88055855,0.067359805,1.5192219,0.013439035,-2.7501154
41,1778472129,0.26529023,-0.8027043,-0.002928687,1.5192219,0.013439035,-2.7501154
42,1778472129,0.112510392,-0.70593558,-0.1575389435,1.9092594,-0.2730567575,-2.08091245
43,1778472129,-0.040269446,-0.60916686,-0.3121492,2.2992969,-0.55955255,-1.4117095
44,1778472129,-0.14399377,-0.462732555,-0.771831025,2.2992969,-0.55955255,-1.4117095
45,1778472129,-0.34704942,-0.5742667,-0.88934463,2.0842721,-1.781283,-0.61208695
46,1778472129,-0.4566311,-0.66188323,-0.9340071,1.5900823,-1.9529362,-0.24495697
47,1778472129,-0.5464442,-0.74291027,-0.9266854,1.1710287,-1.958434,0.10751228
48,1778472129,-0.63235235,-0.7703056975,-0.912530075,0.9763154,-1.88589375,0.26358836
49,1778472129,-0.7182605,-0.797701125,-0.89837475,0.7816021,-1.8133535,0.41966444
50,1778472129,-0.7299752,-0.82906246,-0.8266219,0.3921755,-1.668273,0.7318166
51,1778472129,-0.63162017,-0.87348086,-0.40000984,-1.6310102,-0.6267477,2.2962425
52,1778472129,-0.6113081877242738,-0.8741353714746781,-0.3493352696752753,-1.6310102,-0.6267477,2.2962425
53,1778472129,-0.5909962054485475,-0.8747898829493562,-0.2986606993505505,-1.6310102,-0.6267477,2.2962425
54,1778472129,-0.570683703179419,-0.8754444111797425,-0.2479848317402202,-1.6310102,-0.6267477,2.2962425
55,1778472129,-0.5503712009102906,-0.8760989394101287,-0.1973089641298898,-1.6310102,-0.6267477,2.2962425
56,1778472129,-0.5300592186345643,-0.8767534508848068,-0.1466343938051651,-1.6310102,-0.6267477,2.2962425
57,1778472129,-0.509747236358838,-0.8774079623594849,-0.0959598234804404,-1.6310102,-0.6267477,2.2962425
58,1778472129,-0.4894347340897095,-0.8780624905898713,-0.04528395587011,-1.6310102,-0.6267477,2.2962425
59,1778472129,-0.469122231820581,-0.8787170188202575,0.0053919117402202,-1.6310102,-0.6267477,2.2962425
60,1778472129,-0.4488102495448547,-0.8793715302949356,0.0560664820649449,-1.6310102,-0.6267477,2.2962425
61,1778472129,-0.4284982672691285,-0.8800260417696137,0.1067410523896697,-1.6310102,-0.6267477,2.2962425
62,1778472129,-0.408185765,-0.88068057,0.15741692,-1.6310102,-0.6267477,2.2962425
63,1778472129,0.0868030275,-0.6962546433333333,-0.0239582855,-0.8938994933333334,-0.8820894333333333,3.4031302666666665
64,1778472129,-0.33875146,-0.8620102199999999,0.09286378,-1.031446,0.860098265,3.7809504
65,1778472129,-0.16986385,-0.94352525,0.079562664,-1.001819,0.8790351,4.007276
66,1778472129,0.3133695,-0.8715284,0.035632357,-0.90041536,0.7635816,4.524068
67,1778472129,0.97208,-0.7053254,0.027090356,-0.72326446,0.12767084,5.364008
68,1778472129,1.6308391118502903,-0.4706799324447308,-0.0071316027466584,-0.7585585899306806,-0.0037998158804873,5.232265790881241
69,1778472129,2.289598223700581,-0.2360344648894616,-0.0413535614933169,-0.7938527198613612,-0.1352704717609746,5.1005235817624826
70,1778472129,2.9483742,-0.0013829903333333,-0.0755763963333333,-0.8291477533333333,-0.2667444933333333,4.968778
71,1778472129,3.5068583,0.32386398,0.09005712,-1.2284501,-0.68539083,3.9468002
72,1778472129,3.517271427806839,0.4147745192201353,0.3470472203230734,-1.6207240192197088,-0.6700175178539428,3.5900580109056466
73,1778472129,3.5276845556136776,0.5056850584402707,0.6040373206461468,-2.012997938439417,-0.6546442057078856,3.233315821811293
74,1778472129,3.53809795,0.596597925,0.861034,-2.4052819,-0.6392705,2.8765644999999997
75,1778472129,3.91016798743552,0.84010917940416,1.09618615990912,-2.60091395405824,-0.60460345626752,2.9816345948799996
76,1778472129,4.2822285,1.0836142,1.3313323,-2.796541,-0.5699373,3.086702
77,1778472129,3.9720357205184,1.16598244567296,1.3792889361472,-2.59007124284672,-0.609337575670016,2.75958783711488
78,1778472129,3.661835,1.2483528,1.4272468,-2.3835962,-0.64873886,2.4324653
79,1778472129,3.5266273,1.2930154,1.4094306,-2.3835962,-0.64873886,2.4324653
80,1778472129,3.45179420787584,1.31064828679616,1.40320722966016,-2.088552060363328,-0.7100536851601921,2.074884669590656
81,1778472129,3.37696111575168,1.32828117359232,1.39698385932032,-1.793507920726656,-0.771368510320384,1.717304039181312
82,1778472129,3.30212610787584,1.34591451179616,1.39076032966016,-1.498456227863328,-0.832684905160192,1.3597142545906562
83,1778472129,3.2272911,1.3635478499999998,1.3845368,-1.203404535,-0.8940013,1.00212447
84,1778472129,1.88265755,1.078733,1.25384415,-0.1120937849999999,0.03909537,-0.7528914200000001
85,1778472129,1.598213704570434,1.0152385236529338,1.1386510993198962,0.442155150697085,0.0790045545411987,-1.1323340707625356
86,1778472129,1.313762577285217,0.9517424218264668,1.023455099659948,0.9964182753485424,0.1189147607705993,-1.5117864353812678
87,1778472129,1.02931145,0.8882463199999999,0.9082591,1.5506814,0.1588249669999999,-1.8912388
88,1778472129,1.0513376,0.91399437,0.581649455,1.704008575,0.145080497,-1.824501775
89,1778472129,1.07336375,0.93974242,0.25503981,1.85733575,0.131336027,-1.7577647500000002
90,1778472129,1.533777775,1.01289861,0.28920783,1.5419766249999998,0.3597996135,-1.901470725
91,1778472129,1.9941918,1.0860548,0.32337585,1.2266175,0.5882632,-2.0451767
92,1778472129,2.027057902872332,0.9381573537410294,0.4001312016792818,1.3543890596687345,0.7730483731463388,-2.485199595089899
93,1778472129,2.0599240057446644,0.7902599074820587,0.4768865533585636,1.4821606193374692,0.9578335462926776,-2.9252224901797983
94,1778472129,2.09279095,0.642358675,0.5536438699999999,1.60993545,1.14262345,-3.36525665
95,1778472129,1.72194585,0.19451361,0.45614299,2.3796257,1.6242907,-4.96175315
96,1778472129,1.658307925,0.074071365,0.263703852,2.3825272,1.63223195,-4.997030574999999
97,1778472129,1.59467,-0.04637088,0.071264714,2.3854287,1.6401732,-5.032308
98,1778472129,1.6285329750000002,-0.159003305,-0.0935959555,2.7879889,1.35551,-5.2027395
99,1778472129,1.66239595,-0.27163573,-0.258456625,3.1905491,1.0708468,-5.373171
100,1778472129,1.7633137,-0.4058672,-0.5964759,3.3786957,0.43188173,-5.7494636
101,1778472129,1.9090158,-0.47884035,-0.8539563,2.3475552,0.14905111,-6.1489697
102,1778472129,1.9557124318061576,-0.5601120985100437,-0.8307299851379835,2.3475552,0.14905111,-6.1489697
103,1778472129,2.002409063612315,-0.6413838470200873,-0.8075036702759668,2.3475552,0.14905111,-6.1489697
104,1778472129,2.0491045,-0.722653515,-0.78427795,2.3475552,0.14905111,-6.1489697
105,1778472129,2.0061505,-0.91545874,-0.65090066,1.4618006,0.16249016,-6.527706
106,1778472129,1.7917823726670448,-0.9400076645206268,-0.6077264930450464,1.382919629026339,0.1633279251500339,-6.439557257368429
107,1778472129,1.5774142453340896,-0.9645565890412532,-0.5645523260900928,1.304038658052678,0.1641656903000677,-6.351408514736859
108,1778472129,1.363051605754951,-0.9891048851174562,-0.5213792643796661,1.225159706406027,0.1650034340035883,-6.263262028684215
109,1778472129,1.1486889661758124,-1.013653181193659,-0.4782062026692393,1.1462807547593752,0.1658411777071089,-6.175115542631572
110,1778472129,0.9343208388428572,-1.0382021057142858,-0.4350320357142857,1.0673997837857143,0.1666789428571428,-6.086966800000001
111,1778472129,0.7199527115099021,-1.0627510302349124,-0.3918578687593321,0.9885188128120532,0.1675167080071767,-5.998818057368429
112,1778472130,0.5055900719307634,-1.0872993263111153,-0.3486848070489054,0.909639861165402,0.1683544517106973,-5.910671571315786
113,1778472130,0.2912274323516248,-1.1118476223873182,-0.3055117453384787,0.8307609095187506,0.1691921954142179,-5.822525085263142
114,1778472130,0.0768593050186696,-1.136396546907945,-0.262337578383525,0.7518799385450896,0.1700299605642518,-5.734376342631571
115,1778472130,-0.1375088223142857,-1.1609454714285714,-0.2191634114285714,0.6729989675714286,0.1708677257142856,-5.6462276000000005
116,1778472130,-0.80209415,-0.68616695,-0.8384586,1.7479909,-2.2177462500000003,-0.168293385
117,1778472130,-0.7918845875787623,-0.5834612728659931,-0.8356520145663379,1.1441609121637029,-1.9586420221020928,0.4106951951350821
118,1778472130,-0.7816747637893812,-0.4807529664329965,-0.832845357283169,0.5403154660818514,-1.6995311610510462,0.9896985975675412
119,1778472130,-0.77146494,-0.37804466,-0.8300387,-0.06352998,-1.4404203,1.568702
120,1778472130,-0.8268659433333334,-0.4100975266666666,-0.70032228,-0.6168720999999999,-0.9151779716666668,1.9734001666666667
121,1778472130,-0.8822669466666667,-0.4421503933333333,-0.57060586,-1.17021422,-0.3899356433333333,2.3780983333333334
122,1778472130,-0.9901402,-0.61966133,0.05296042,-1.6297885,0.36468655,4.514294
123,1778472130,-0.7712984818158157,-0.6944661633194809,0.069190505323244,-1.5513927953971005,0.3088932411397169,4.698982151970782
124,1778472130,-0.5524623659079079,-0.7692690816597404,0.085420175161622,-1.4729990976985503,0.2531013605698584,4.883665575985391
125,1778472130,-0.33362625,-0.8440719999999999,0.101649845,-1.3946054,0.19730948,5.068349
126,1778472130,0.4770099,-0.86640325,-0.115072993,-0.57299162,-0.57543504,6.4214155
127,1778472130,0.6385785307360031,-0.8629050452980705,-0.1163339776871965,-0.6535253877587105,-0.5426513871661532,6.471405419817045
128,1778472130,0.8001430253680016,-0.8594069301490354,-0.1175949300935982,-0.7340570938793552,-0.5098685735830766,6.5213940599085225
129,1778472130,0.96170752,-0.855908815,-0.1188558825,-0.8145888,-0.4770857599999999,6.5713827
130,1778472130,1.05585266,-0.7930640575000001,0.0785864337499999,-1.23929285,-0.130114295,6.7404398500000005
131,1778472130,1.1499978,-0.7302193,0.27602875,-1.6639969,0.21685717,6.909497
132,1778472130,1.336537291509297,-0.5614144721529691,0.3509943536186607,-1.5823452801027418,0.1386670822306228,6.8548250332067555
133,1778472130,1.523076783018594,-0.3926096443059383,0.4259599572373215,-1.5006936602054834,0.0604769944612457,6.80015306641351
134,1778472130,1.70962105,-0.223800495,0.50092748,-1.41903995,-0.017715095,6.745479700000001
135,1778472130,1.5910091,0.1403329,0.571338,1.0464121,-1.7330247,5.1355443
136,1778472130,1.655992774558655,0.2383290178402419,0.4438112632238333,1.0931631745962016,-1.7381966403719862,5.122838436776372
137,1778472130,1.7209764491173096,0.3363251356804839,0.3162845264476666,1.1399142491924033,-1.7433685807439725,5.110132573552743
138,1778472130,1.7859617872793274,0.4343237622534543,0.18875452494525,1.186666520631434,-1.7485406535193264,5.0974263850548525
139,1778472130,1.850947125441345,0.5323223888264247,0.0612245234428333,1.233418792070465,-1.7537127262946808,5.084720196556962
140,1778472130,1.9159308,0.6303185066666667,-0.0663022133333333,1.2801698666666663,-1.7588846666666669,5.072014333333334
141,1778472130,2.353444,1.0128375,-0.28335047,1.5039502,-1.2370021,4.690834
142,1778472130,2.575292,1.1736712,-0.27554062,1.5039502,-1.2370021,4.690834
143,1778472130,2.6478999293696,1.30216904475136,-0.1759639934354944,1.17468963551872,-1.0308324610624,4.34110932358144
144,1778472130,2.720506,1.4306636,-0.076389916,0.8454375,-0.8246681,3.9913936
145,1778472130,2.200989666666666,1.4101628000000002,0.3563235766666666,0.074321938,-0.0614937733333333,1.9844975333333332
146,1778472130,2.1361240909319497,1.4163455860924328,0.353964344312586,0.2287364096532921,0.0995045316123948,1.4600313135010978
147,1778472130,2.071258515197233,1.4225283721848654,0.3516051119585053,0.3831508813065843,0.2605028365581231,0.9355650936688624
148,1778472130,2.0063946,1.428711,0.34924594,0.5375614,0.42149702,0.4111123
149,1778472130,2.7358818,1.5929617,-0.0319715,0.5375614,0.42149702,0.4111123
150,1778472130,2.88152476420608,1.6090086553984,-0.135941215795328,0.82650437342272,-0.0352833067133439,0.293671955532832
151,1778472130,3.02716772841216,1.6250556107968,-0.239910931590656,1.11544734684544,-0.4920636334266879,0.176231611065664
152,1778472130,3.17280696420608,1.6411021553984,-0.3438779857953281,1.40438292342272,-0.948832266713344,0.058794273032832
153,1778472130,3.3184462,1.6571487,-0.44784504,1.6933185,-1.4056009,-0.058643065
154,1778472130,3.4356853625,1.36864253375,-0.48677217,0.558025424,-0.9931141535,-1.1786644825
155,1778472130,3.552924525,1.0801363675,-0.5256993,-0.5772676520000001,-0.580627407,-2.2986858999999997
156,1778472130,3.5999358125,0.87674513375,-0.3330161,-1.3286318259999998,-0.1543961885,-2.65268235
157,1778472130,3.6469471,0.6733539,-0.1403329,-2.079996,0.27183503,-3.0066788
158,1778472130,3.569275124649153,0.6097600697741804,-0.0832839353260791,-2.0614560618201296,0.3192284754693363,-3.143412200132095
159,1778472130,3.4916031492983057,0.5461662395483609,-0.0262349706521583,-2.0429161236402593,0.3666219209386728,-3.2801456002641913
160,1778472130,3.413933162324577,0.4825740373037568,0.0308125335869604,-2.0243766600767317,0.4140141531513349,-3.416875500066048
161,1778472130,3.336263175350847,0.4189818350591529,0.0878600378260792,-2.0058371965132036,0.4614063853639969,-3.553605399867904
162,1778472130,3.2585912,0.3553880048333333,0.1449090025,-1.9872972583333333,0.5087998308333334,-3.6903388
163,1778472130,3.180919224649153,0.2917941746075138,0.2019579671739209,-1.9687573201534632,0.5561932763026698,-3.827072200132096
164,1778472130,3.1032492376754233,0.2282019723629098,0.2590054714130396,-1.9502178565899353,0.6035855085153319,-3.963802099933952
165,1778472130,3.025579250701694,0.1646097701183058,0.3160529756521584,-1.9316783930264072,0.6509777407279939,-4.100531999735809
166,1778472130,2.947907275350847,0.1010159398924862,0.3731019403260792,-1.913138454846537,0.6983711861973303,-4.237265399867904
167,1778472130,2.8702352999999996,0.0374221096666666,0.430150905,-1.8945985166666668,0.7457646316666667,-4.3739988
168,1778472130,1.257627,-0.7076846666666666,0.5225265833333333,0.44715336,1.5210545,-5.2595496
169,1778472130,0.6972716,-0.954996,0.03904916,2.4801128,0.41355577,-5.277265
170,1778472130,0.40550111,-1.0267488,-0.266144425,2.620612,0.100792766,-4.990158
171,1778472130,0.26156650516064,-1.05139891551744,-0.399828493634176,2.5137091316608,0.0882698677089536,-4.8230843614848
172,1778472130,0.117635585,-1.0760484,-0.53350914,2.406809,0.07574729,-4.656015
173,1778472130,0.0436261760825599,-1.05341238974464,-0.641564099378816,2.406809,0.07574729,-4.656015
174,1778472130,-0.0303851275,-1.0307758,-0.749621825,2.406809,0.07574729,-4.656015
175,1778472130,-0.081149688528064,-1.0318740640576,-0.706423149564032,1.63833071360384,0.3317031211927039,-4.12760978649984
176,1778472130,-0.13191295,-1.0329723,-0.66322558,0.8698721,0.5876524,-3.5992181
177,1778472130,-0.19378147,-1.0516427,-0.5759751,0.18020524,0.8405506,-3.3573153
178,1778472130,-0.4228902175,-1.12260235,-0.435947255,0.13133602225,0.8078693,-3.318372675
179,1778472130,-0.651998965,-1.193562,-0.29591941,0.0824668044999999,0.775188,-3.27943005
180,1778472130,-1.1065556,-1.2932593,-0.088348724,0.6377433,-0.5882632,-2.370768
181,1778472130,-1.19557432304576,-1.3066822906835198,-0.1230959319800448,0.79045764523136,-0.75204936601024,-2.0990891650336
182,1778472130,-1.284595325,-1.3201056249999998,-0.1578440295,0.9431759,-0.915839725,-1.827403375
183,1778472130,-1.37361632695424,-1.33352895931648,-0.1925921270199552,1.09589415476864,-1.07963008398976,-1.5557175849664
184,1778472130,-1.46263505,-1.34695195,-0.227339335,1.2486085,-1.24341625,-1.28403875
185,1778472130,-1.5941819,-1.3801438,-0.4373506,1.3866642,-1.4489723,-0.29565877
186,1778472130,-1.6293261,-1.3879535,-0.53717,1.3866642,-1.4489723,-0.29565877
187,1778472130,-1.5870731841696002,-1.40082768978752,-0.58476177166688,1.165986282858816,-1.3866632524544,0.5637632729613441
188,1778472130,-1.54482135,-1.41370155,-0.632352325,0.945314015,-1.3243558,1.4231633150000005
189,1778472130,-1.5025695158304,-1.42657541021248,-0.67994287833312,0.724641747141184,-1.2620483475456,2.282563357038656
190,1778472130,-1.4603166,-1.4394496,-0.72753465,0.50396383,-1.1997393,3.1419854000000003
191,1778472130,-1.045169883690048,-1.3990576329894402,-0.685739322526656,0.3981300703452159,-1.17408264659904,3.52408646583104
192,1778472130,-0.6300337949999999,-1.3586667,-0.643945065,0.2922990199999999,-1.14842665,3.90617775
193,1778472130,0.1510004251340161,-1.26690232459904,-0.6681674424496,0.0511630515799039,-1.01098373429184,4.88981098433344
194,1778472130,0.93205464,-1.1751356,-0.69239044,-0.18997909,-0.8735373,5.8734694
195,1778472130,1.668201767562624,-0.98983277815424,-0.7077662418077441,-0.4780057316938239,-0.796872733706112,6.78092131523584
196,1778472130,2.40433005,-0.8045347,-0.72314165,-0.766025,-0.72021013,7.68835
197,1778472130,2.923806,-0.6142921,-0.7050814,-0.99204516,-0.84788096,8.505076
198,1778472130,4.16117605,0.0336799,-0.657978355,-1.4068227,-0.74281216,8.671232
199,1778472130,4.268888454934848,0.1766592068156024,-0.5170735685890927,-1.5941578971464412,-0.6601403090851374,8.539283081433947
200,1778472130,4.376598102467423,0.3196348534078012,-0.3761723892945463,-1.7814882985732206,-0.5774705745425688,8.407337540716973
201,1778472130,4.484307749999999,0.4626105,-0.23527121,-1.9688187,-0.49480084,8.275392
202,1778472130,4.498829124999999,0.56261295,-0.08895888,-2.0109683499999997,-0.463952155,7.6080215
203,1778472130,4.5133505,0.6626154,0.05735345,-2.053118,-0.43310347,6.940651
204,1778472130,3.1073369,0.751574315,0.5747548,-2.053118,-0.43310347,6.940651
205,1778472130,2.50109865,0.82174077,0.05479084,-0.33933566,-0.292299015,4.775439
206,1778472130,2.4290521922537156,0.8679656793370129,-0.0706558725578942,-0.5126399026127293,-0.199629811079498,4.579776896445705
207,1778472130,2.357005734507432,0.9141905886740258,-0.1961025851157884,-0.6859441452254587,-0.106960607158996,4.384114792891411
208,1778472130,2.284961121126858,0.9604143146685064,-0.3215460862789471,-0.8592439513063647,-0.014293775539749,4.1884576982228525
209,1778472130,2.2129165077462845,1.0066380406629871,-0.4469895874421057,-1.0325437573872709,0.078373056079498,3.992800603554295
210,1778472130,2.14087005,1.05286295,-0.5724363,-1.205848,0.17104226,3.7971385
211,1778472130,2.078951950003919,1.0912336806845206,-0.4526902954525789,-1.0453216711074724,0.1267872833617314,3.477246477252701
212,1778472131,2.0170354350909094,1.1296034290909092,-0.3329473563636363,-0.8847994516363636,0.0825334396363636,3.157362643636364
213,1778472131,1.9551189201778991,1.1679731774972977,-0.2132044172746938,-0.724277232165255,0.0382795959109957,2.837478810020026
214,1778472131,1.8932008201818185,1.206343908181818,-0.0934584127272727,-0.5637509032727274,-0.0059753807272727,2.517586787272727
215,1778472131,1.8312827201857371,1.2447146388663388,0.0262875918201483,-0.4032245743801996,-0.0502303573655412,2.197694764525429
216,1778472131,1.7693662052727273,1.2830843872727271,0.1460305309090909,-0.2427023549090909,-0.0944842010909091,1.877810930909091
217,1778472131,1.7074496903597172,1.3214541356791156,0.2657734699980335,-0.0821801354379823,-0.1387380448162769,1.5579270972927537
218,1778472131,1.6455315903636365,1.3598248663636363,0.3855194745454545,0.0783461934545454,-0.1829930214545455,1.2380350745454547
219,1778472131,1.5836134903675554,1.3981955970481572,0.5052654790928757,0.2388725223470731,-0.2272479980928139,0.9181430517981558
220,1778472131,1.5216969754545453,1.4365653454545455,0.6250084181818182,0.3993947418181818,-0.2715018418181818,0.5982592181818182
221,1778472131,1.1331578,1.0560358,-0.42051062,2.276084,-0.4990769,-2.4239132
222,1778472131,1.23505165,1.02479642,-0.34119202,2.0628919999999997,-0.40439279,-2.5051582999999997
223,1778472131,1.3369455,0.99355704,-0.26187342,1.8497,-0.30970868,-2.5864034
224,1778472131,1.4448189,0.9445015,-0.15277983,0.9242391,0.3304781,-2.9309313
225,1778472131,1.6034561,0.88885653,-0.059794027,0.6585127,0.63224554,-3.0763173
226,1778472131,1.9944358,0.7826916,-0.08908089,0.4978552,0.88331115,-3.2265902
227,1778472131,2.2615203415178304,0.7214321878527482,-0.1221918884204732,0.4383966319200935,0.937271854250898,-3.4646280957947555
228,1778472131,2.528598045758915,0.6601743439263741,-0.1553020392102366,0.3789395859600467,0.9912311771254492,-3.7026598978973775
229,1778472131,2.79567575,0.5989165,-0.1884121899999999,0.31948254,1.0451905,-3.9406917
230,1778472131,2.794048719449517,0.4070451860524115,-0.2350682047928968,0.3780242912165494,0.8754703017395125,-4.377158691137318
231,1778472131,2.7924216888990343,0.215173872104823,-0.2817242195857937,0.436566042433099,0.7057501034790251,-4.813625682274636
232,1778472131,2.7907947,0.02330747,-0.32837904,0.495106295,0.5360342499999999,-5.2500815
233,1778472131,2.6411877,-0.21891935,-0.6718896,0.51068336,0.5357288,-5.2784867
234,1778472131,2.634842,-0.2796896,-0.86567104,-0.052534413,0.711658,-4.903415
235,1778472131,2.5511293284915197,-0.325145846832512,-0.867562519210624,-0.3411719542632384,0.69348454238272,-4.78353129050816
236,1778472131,2.4674188,-0.37060093,-0.86945395,-0.6298021065,0.67531155,-4.66365065
237,1778472131,2.2908659682385064,-0.382224003722752,-0.6920774449483265,-0.8024202370013142,0.6650033361134934,-4.566957066860374
238,1778472131,2.1143086166666665,-0.393847375,-0.5146963990000001,-0.9750427865833332,0.6546948583333334,-4.470261008333334
239,1778472131,1.9377512650948263,-0.405470746277248,-0.3373153530516736,-1.1476653361653526,0.6443863805531733,-4.373564949806294
240,1778472131,1.7611984333333333,-0.41709382,-0.159938848,-1.3202834666666667,0.6340781666666667,-4.276871366666668
241,1778472131,1.4254613141568,-0.43124896381184,0.0725633799333888,-1.01200405436032,0.5980375646589441,-3.86627323905664
242,1778472131,1.0897156,-0.44540447,0.30507156,-0.70371675,0.56199604,-3.4556646
243,1778472131,0.59086263,-0.51447266,0.34387666,-0.70371675,0.56199604,-3.4556646
244,1778472131,0.12129646,-0.61941725,0.17059602,0.9804387,0.13561209,-2.842356
245,1778472131,-0.039047107576064,-0.66639767364288,0.0456403069535999,0.9804387,0.13561209,-2.842356
246,1778472131,-0.19939478,-0.7133793,-0.079318605,0.9804387,0.13561209,-2.842356
247,1778472131,-0.34607318,-0.7604824,-0.18548352,1.310306,-0.036651913,-2.0769417
248,1778472131,-0.4412555,-0.8073414,-0.23673552,1.310306,-0.036651913,-2.0769417
249,1778472131,-0.5793919,-0.89715445,-0.29774985,1.2669345,-0.032375857,-1.8063285
250,1778472131,-0.6325964,-0.9022797,-0.30897647,1.1099422,0.0061086523,-1.1404854
251,1778472131,-0.68994987,-0.9117979,-0.27944556,0.95294976,-0.03970624,-0.59620446
252,1778472131,-0.6788046751068805,-0.904394879839914,-0.2691138881647281,0.9217959058496248,-0.0541632632984887,-0.48645327655542
253,1778472131,-0.667659480213761,-0.896991859679828,-0.2587822163294563,0.8906420516992499,-0.0686202865969774,-0.3767020931108399
254,1778472131,-0.656514,-0.88958865,-0.24845028,0.8594874,-0.08307768,-0.2669481
255,1778472131,-0.655354717036368,-0.890000506521696,-0.238398041332992,0.792864057857136,-0.110643325335744,-0.092772921836256
256,1778472131,-0.65419546375,-0.8904123525000001,-0.22834606,0.72624242125,-0.138208265,0.0813977975
257,1778472131,-0.653036210463632,-0.890824198478304,-0.218294078667008,0.659620784642864,-0.165773204664256,0.255568516836256
258,1778472131,-0.6518769275,-0.891236055,-0.20824184,0.5929974425,-0.19333885,0.429743695
259,1778472131,-0.714233525,-0.90325585,-0.148020725,0.421497015,-0.361021355,1.0800097
260,1778472131,-0.6769537975000001,-0.912163925,-0.2103163375,0.5534439225000001,-0.6172793275,1.74585285
261,1778472131,-0.63967407,-0.921072,-0.27261195,0.68539083,-0.8735373,2.411696
262,1778472131,-0.5339973,-0.8973985,-0.38927132,0.68539083,-0.8735373,2.411696
263,1778472131,-0.302934494056163,-0.8043681090262375,-0.3886069339404117,0.5403492008242432,-0.8504259352060949,2.6511243057541973
264,1778472131,-0.0718776032444444,-0.7113400996,-0.3879425648888888,0.3953112846666667,-0.8273151620555556,2.890546482222222
265,1778472131,0.159179287567274,-0.6183120901737625,-0.387278195837366,0.2502733685090901,-0.8042043889050161,3.129968658690247
266,1778472131,0.390242093511111,-0.5252816992,-0.3866138097777777,0.1052317393333333,-0.781093024111111,3.3693969644444444
267,1778472131,0.621304899454948,-0.4322513082262374,-0.3859494237181894,-0.0398098898424234,-0.757981659317206,3.6088252701986416
268,1778472131,0.8523617902666666,-0.3392232988,-0.3852850546666666,-0.1848478059999999,-0.7348708861666666,3.8482474466666665
269,1778472131,1.083418681078385,-0.2461952893737625,-0.3846206856151438,-0.3298857221575764,-0.7117601130161272,4.087669623134691
270,1778472131,1.314481487022222,-0.1531648984,-0.3839562995555555,-0.4749273513333332,-0.6886487482222221,4.327097928888889
271,1778472131,1.545544292966059,-0.0601345074262374,-0.3832919134959672,-0.6199689805090901,-0.665537383428317,4.566526234643086
272,1778472131,1.7766011837777778,0.032893502,-0.3826275444444444,-0.7650068966666667,-0.6424266102777777,4.805948411111111
273,1778472131,3.7816672,1.1736712,0.5266756,-1.6450601,0.0067195175,5.050634
274,1778472131,3.6552455,1.1983211,0.47688788,-1.3274102,0.27366763,4.5949283
275,1778472131,3.4458442,1.1597601,0.30287504,-0.93645644,0.49541172,4.154495
276,1778472131,3.116611,1.1111927,0.008786061,-0.44348818,0.6096435,3.6596937
277,1778472131,3.00166,1.1087521,-0.16303024,0.56138515,0.1600467,2.687807
278,1778472131,2.8681607,1.0941086,-0.32410803,0.56138515,0.1600467,2.687807
279,1778472131,2.422024,1.0609169,-0.5952556,0.73364913,-0.020158553,2.389705
280,1778472131,2.255789918548986,1.0444513078415183,-0.5957762572236681,0.6274816613073293,-0.0030544724566888,2.207709406382278
281,1778472131,2.0895558370979717,1.0279857156830363,-0.5962969144473363,0.5213141926146586,0.0140496080866222,2.025713812764556
282,1778472131,1.9233175,1.011519702,-0.596817585,0.415144006,0.0311541265,1.84371356
283,1778472131,1.7570791629020284,0.9950536883169636,-0.5973382555526636,0.3089738193853414,0.0482586449133777,1.6617133072354442
284,1778472131,1.5908450814510142,0.978588096158482,-0.5978589127763319,0.2028063506926707,0.0653627254566888,1.479717713617722
285,1778472131,1.424611,0.962122504,-0.59837957,0.096638882,0.082466806,1.29772212
286,1778472131,1.0350468,1.108508,-0.16888762,-0.7458665,0.40317106,1.0910053
287,1778472131,1.04066,1.1619565,-0.0034168016,-1.110553,0.4636467,1.0311406
288,1778472131,1.0906918,1.2422514,0.18377511,-1.138042,0.5540548,0.8185594
289,1778472131,1.1678139,1.3359693,0.37218732,-1.138042,0.5540548,0.8185594
290,1778472131,1.2210184,1.4050376,0.5256993,-0.96944314,0.5919284,0.5338962
291,1778472131,1.2041172336678398,1.38679404148544,0.6698169596824319,-0.225399746366464,0.662789672012672,-0.3072760168665599
292,1778472131,1.1872165,1.36855095,0.8139309299999999,0.5186246,0.73364913,-1.1484267
293,1778472131,1.16793622179072,1.2752612941228798,0.662678386057344,1.14475343544832,0.658819122836352,-1.67590199822976
294,1778472131,1.14865545,1.18196925,0.51142197,1.7708983,0.5839872,-2.2033908
295,1778472131,1.20344625,1.0450531,0.1201981925,1.7708983,0.5839872,-2.2033908
296,1778472131,1.274711025,1.0013669,0.0066505562499999,1.8154915,0.54244835,-2.46025965
297,1778472131,1.3459758,0.9576807,-0.10689708,1.8600847,0.5009095,-2.7171285
298,1778472131,1.5114466,0.8495633,-0.26480213,1.7983873,0.5137377,-2.968805
299,1778472131,1.6051645,0.7995315,-0.3018988,1.491733,0.6102544,-3.5515707
300,1778472131,1.6659348,0.72094506,-0.3184947,1.3029755,0.68539083,-3.7867537
301,1778472131,1.78588741458688,0.677747502935808,-0.266877265711616,1.01770510150784,0.838105185231232,-4.0747729633062395
302,1778472131,1.9058431,0.63454884,-0.21525851,0.7324274,0.99082345,-4.3627996
303,1778472131,2.1010913741459203,0.554680082692992,-0.192560884474112,0.74067420555776,0.93370679391616,-4.5100199843968
304,1778472131,2.2963346500000004,0.47481337,-0.16986384,0.7489208,0.8765916,-4.6572366
305,1778472131,2.5879831,0.307024,-0.25357547,0.86009824,-0.12950343,-5.2277846
306,1778472131,2.56028255,0.251745045,-0.27334411,0.81336707,-0.176845485,-5.29436895
307,1778472131,2.532582,0.19646609,-0.29311275,0.7666359,-0.22418754,-5.3609533
308,1778472131,2.3881001,0.07565775125,-0.3637673125,0.536034256,-0.14553864175,-5.373170575
309,1778472131,2.2436182,-0.0451505875,-0.434421875,0.305432612,-0.0668897435,-5.38538785
310,1778472131,1.9895546,-0.18109047875,-0.4781081375,0.183259568,-0.0071776652499999,-5.3496522749999995
311,1778472131,1.735491,-0.31703037,-0.5217944,0.061086524,0.052534413,-5.3139167
312,1778472132,1.2605556,-0.45907167,-0.40147418,-0.5564982,0.24190263,-4.8704286
313,1778472132,1.0648217,-0.4893348,-0.30677995,-1.070236,0.009162978,-3.880827
314,1778472132,0.8617661,-0.52496713,-0.15912533,-1.070236,0.009162978,-3.880827
315,1778472132,0.66896087,-0.5559624,0.0036608586,-1.1203269,-0.23273966,-3.095865
316,1778472132,0.5612625644697651,-0.583470418689283,0.0330236956856995,-0.9865335080618702,-0.2282574818730915,-2.879162780559131
317,1778472132,0.4535642589395301,-0.610978437378566,0.0623865327713991,-0.8527401161237405,-0.223775303746183,-2.662460561118262
318,1778472132,0.3458631962973825,-0.6384871602821415,0.0917501215553497,-0.7189432990309351,-0.2192930108740457,-2.445752794029566
319,1778472132,0.2381621336552349,-0.6659958831857169,0.1211137103393004,-0.5851464819381298,-0.2148107180019084,-2.229045026940869
320,1778472132,0.130463828125,-0.6935039018749999,0.150476547425,-0.4513530899999999,-0.210328539875,-2.0123428075
321,1778472132,0.022765522594765,-0.721011920564283,0.1798393845106995,-0.3175596980618702,-0.2058463617480915,-1.795640588059131
322,1778472132,-0.0849355400473825,-0.7485206434678584,0.2092029732946502,-0.1837628809690648,-0.2013640688759542,-1.5789328209704343
323,1778472132,-0.1926366026895301,-0.7760293663714338,0.2385665620786009,-0.0499660638762594,-0.1968817760038169,-1.362225053881738
324,1778472132,-0.3003349082197651,-0.8035373850607169,0.2679293991643005,0.0838273280618702,-0.1923995978769085,-1.145522834440869
325,1778472132,-0.40803321375,-0.8310454037499999,0.29729223625,0.21762072,-0.18791741975,-0.928820615
326,1778472132,-0.625259406875,-0.925236301875,-0.0373865193749999,0.78030396,-0.277065564875,0.4465424925000002
327,1778472132,-0.8424856000000001,-1.0194272,-0.372065275,1.3429872,-0.36621371,1.8219056
328,1778472132,-0.6016011,-0.9086252,-0.35071027,1.4129313,-0.42088616,1.9376645
329,1778472132,-0.46614933,-0.83833665,-0.25284332,0.5332854,-0.051923547,3.0518827
330,1778472132,-0.3731627281911543,-0.7835860044671383,-0.1144210021446734,0.329152840924459,0.1763383781434959,3.3443878626787726
331,1778472132,-0.2801761263823087,-0.7288353589342765,0.0240013157106529,0.1250202818489179,0.4046003032869918,3.636893025357545
332,1778472132,-0.187191905,-0.674086115,0.16242009,-0.0791070515,0.632856385,3.9293907
333,1778472132,-0.063943,-0.5976962,0.26162934,-0.029321533,0.6658431,3.9883392
334,1778472132,0.10640897,-0.5110559,0.21623473,0.46609017,0.59437186,4.157549
335,1778472132,0.35315085,-0.36425543,-0.069556323,0.581238285,0.54244833,4.1318925
336,1778472132,0.3952507249999999,-0.32844004,-0.1986626115,0.6388123425,0.516486565,4.11906425
337,1778472132,0.4373506,-0.29262465,-0.3277689,0.6963864,0.4905248,4.106236
338,1778472132,0.6772589,-0.26529023,-0.58207655,1.0451905,-0.1459968,3.4843755
339,1778472132,0.719562684814848,-0.2498330738176,-0.6028623577216,1.005483706759552,-0.28833022184448,3.4987309337472
340,1778472132,0.7618653866666666,-0.2343763133333333,-0.6236476333333334,0.96577793,-0.43066,3.513086
341,1778472132,1.230978088613888,-0.1217046583823104,-0.8320291493491201,0.33415136492352,-0.54672291437568,3.65113983288832
342,1778472132,1.7001028,-0.009030119,-1.040416,-0.29749137,-0.6627888,3.7891972
343,1778472132,1.8606594315161964,0.0583653154671282,-0.973996810583086,-0.454097664665955,-0.666143749123758,3.833878141696651
344,1778472132,2.0212119528352366,0.1257590246332179,-0.9075793214756572,-0.6106999502620827,-0.6694986123619177,3.878557939575837
345,1778472132,2.1817644741542765,0.1931527337993076,-0.8411618323682282,-0.7673022358582103,-0.6728534756000774,3.9232377374550222
346,1778472132,2.342321105670474,0.2605481682664358,-0.7747426429513141,-0.9239085305241654,-0.6762084247238354,3.967918679151674
347,1778472132,2.5028777371866697,0.3279436027335641,-0.7083234535344002,-1.0805148251901204,-0.6795633738475932,4.012599620848326
348,1778472132,2.6634302585057097,0.3953373118996537,-0.6419059644269712,-1.2371171107862482,-0.682918237085753,4.057279418727512
349,1778472132,2.82398277982475,0.4627310210657435,-0.5754884753195423,-1.3937193963823755,-0.6862731003239128,4.101959216606697
350,1778472132,2.9845394113409465,0.5301264555328717,-0.5090692859026283,-1.550325691048331,-0.6896280494476706,4.146640158303349
351,1778472132,3.145096042857143,0.59752189,-0.4426500964857142,-1.7069319857142855,-0.6929829985714286,4.191321100000001
352,1778472132,3.83047855,1.43932765,0.40513502,-1.18507858,0.437379535,1.5464053
353,1778472132,3.0324113,1.3115636,0.28871974,-0.89858276,0.6737844,0.9492846
354,1778472132,2.85369809375024,1.28011033490336,0.1905006944373088,-0.666107383103264,0.6201420971373119,0.7245978497964096
355,1778472132,2.67498488750048,1.24865706980672,0.0922816488746176,-0.433632006206528,0.5664997942746239,0.4999110995928192
356,1778472132,2.4962762562502396,1.21720460990336,-0.0059348823126912,-0.201162580603264,0.512858864637312,0.2752301012964096
357,1778472132,2.3175676249999997,1.18575215,-0.1041514135,0.031306845,0.459217935,0.050549103
358,1778472132,1.7638018,1.0936205,-0.6604189,0.3567453,0.12522738,-0.49968776
359,1778472132,1.4138237,0.9999026,-0.7060576,0.10567969,0.09896017,-0.6945538
360,1778472132,1.3245808448821117,0.988838751079386,-0.6258854858107981,-0.2102367574784745,0.1885529687983308,-0.7730493134963775
361,1778472132,1.235337989764223,0.9777749021587718,-0.5457133716215963,-0.5261532049569492,0.2781457675966617,-0.8515448269927551
362,1778472132,1.14609285,0.96671077,-0.465539205,-0.84207774,0.36774086,-0.93004235
363,1778472132,1.15884498822528,0.998804695796992,-0.2943308505361133,-1.233494630072064,0.601094366886656,-0.94180165051712
364,1778472132,1.1715968,1.0308978,-0.12312687895,-1.6249015,0.8344419,-0.95356065
365,1778472132,1.22974270572288,1.0628688907648,0.0843801394011667,-1.67163210184064,0.97860425469824,-1.04427296386752
366,1778472132,1.2878901,1.0948408,0.29189247,-1.7183639,1.1227703,-1.1349876
367,1778472132,1.2798362,1.0265048,0.53253293,-1.5063937,1.3878858,-1.6071864
368,1778472132,1.289802785440859,0.9670683158998878,0.4909856586120047,-1.2255665525817987,1.3301214488895268,-1.870145923510012
369,1778472132,1.2997693708817175,0.9076318317997756,0.4494383872240095,-0.9447394051635972,1.2723570977790537,-2.1331054470200246
370,1778472132,1.3097362114704294,0.848193826106194,0.4078900522122524,-0.6639050684783994,1.2145912678822637,-2.396071702380006
371,1778472132,1.3197030520591413,0.7887558204126123,0.3663417172004952,-0.3830707317932014,1.1568254379854732,-2.659037957739988
372,1778472132,1.3296696375,0.7293193363125,0.3247944458125,-0.102243584375,1.099061086875,-2.92199748125
373,1778472132,1.339636222940859,0.6698828522123877,0.2832471744245047,0.1785835630432014,1.0412967357645269,-3.184957004760012
374,1778472132,1.3496030635295708,0.6104448465188062,0.2416988394127476,0.4594178997283993,0.9835309058677366,-3.4479232601199943
375,1778472132,1.3595699041182827,0.5510068408252246,0.2001505044009904,0.7402522364135973,0.9257650759709464,-3.710889515479976
376,1778472132,1.369536489559141,0.4915703567251123,0.1586032330129952,1.0210793838317986,0.8680007248604732,-3.973849038989988
377,1778472132,1.379503075,0.432133872625,0.117055961625,1.30190653125,0.81023637375,-4.2368085625
378,1778472132,1.2302925999999998,-0.125933533,-0.40525705,1.72661065,0.51190508,-5.7128118
379,1778472132,1.19493435992032,-0.1517124109654143,-0.382071316976416,1.464546103116736,0.4357750222977344,-5.66020035158208
380,1778472132,1.159577025,-0.1774906289999999,-0.3588861775,1.202488265,0.3596469135,-5.60759025
381,1778472132,1.12421969007968,-0.2032688470345856,-0.335701038023584,0.940430426883264,0.2835188047022656,-5.55498014841792
382,1778472132,1.08886145,-0.2290477249999999,-0.312515305,0.67836588,0.2073887469999999,-5.5023687
383,1778472132,0.97854755,-0.30287505,-0.0932298648,0.67836588,0.2073887469999999,-5.5023687
384,1778472132,0.9183065907294324,-0.3145083440612867,-0.0597129568812752,0.6092368765750467,0.0323773481163866,-5.200501942629302
385,1778472132,0.8580656314588649,-0.3261416381225733,-0.0261960489625504,0.5401078731500935,-0.1426340507672267,-4.898635185258604
386,1778472132,0.79782313,-0.33777523,0.007321717,0.4709771,-0.31764993,-4.5967607
387,1778472132,0.5172793499999999,-0.346195225,-0.137648285,0.45265115,-0.446237065,-4.05614505
388,1778472132,0.24161668,-0.35071027,-0.22233616,0.4343252,-0.5748242,-3.5155294
389,1778472132,0.07834238,-0.36315718,-0.25650415,0.28038713,-0.6078109,-3.055548
390,1778472132,-0.11348662,-0.38902727,-0.2723679,0.124005646,-0.6377433,-2.6645942
391,1778472132,-0.256139910938752,-0.417582325500032,-0.252110880713472,0.0351236153245696,-0.6569857963008,-2.45170487505152
392,1778472132,-0.39878955,-0.44613665,-0.23185438,-0.05375614,-0.6762278,-2.238821
393,1778472132,-0.45052966,-0.45419052,-0.1696198,-0.48380527,-0.8038987,-1.0659598
394,1778472132,-0.434909995,-0.4546786399999999,-0.1181237149999999,-0.655458405,-0.869566685,-0.4587597699999999
395,1778472132,-0.41929033,-0.45516676,-0.06662763,-0.82711154,-0.93523467,0.14844026
396,1778472132,-0.37056026,-0.5126829233333333,0.2316916866666666,-0.8271115400000001,-0.9352346700000002,0.14844026
397,1778472132,-0.40635532,-0.5708499,0.3402158,-0.82711154,-0.93523467,0.14844026
398,1778472132,-0.36956369,-0.5961708250000001,0.3453410025,-0.5876523699999999,-0.621249945,1.5848898299999998
399,1778472132,-0.33277206,-0.62149175,0.350466205,-0.3481932,-0.30726522,3.0213394
400,1778472132,-0.2254691388299811,-0.6607846413630352,0.2987671845039552,-0.2730574145002432,-0.2731588677112649,3.149314607930914
401,1778472132,-0.1181662176599622,-0.7000775327260703,0.2470681640079104,-0.1979216290004864,-0.2390525154225298,3.2772898158618275
402,1778472132,-0.0108605495,-0.73937143,0.19536782,-0.1227839199999999,-0.20494529,3.4052683
403,1778472132,0.107629254,-0.7924539,0.07907455,0.26633725,-0.105068825,4.057367
404,1778472132,0.2848148,-0.7807391,-0.08932495,0.36713,-0.12034045,4.2485676
405,1778472132,0.347882452723712,-0.7652823428490241,-0.1119609694219093,0.344935516593024,-0.1214094504832853,4.425869072178774
406,1778472132,0.4109517199999999,-0.74982519,-0.1345975683333333,0.322740465,-0.1224784783333333,4.603175083333333
407,1778472132,0.474020987276288,-0.734368037150976,-0.1572341672447573,0.300545413406976,-0.1235475061833813,4.780481094487893
408,1778472132,0.53708864,-0.71891128,-0.1798701866666666,0.27835093,-0.1246165066666666,4.957782566666666
409,1778472132,0.7592621,-0.6286915,-0.119099945,0.15760323,-0.02565634,5.0371947
410,1778472132,0.8190561,-0.58720175,-0.0903011859999999,0.028405232,0.135001215,5.0631566
411,1778472132,0.8788501,-0.545712,-0.061502427,-0.100792766,0.29565877,5.0891185
412,1778472133,0.9186314666666668,-0.5071102933333334,-0.0067929265,-0.1504764696666667,0.3318016416666666,4.9133928
413,1778472133,0.9584128333333334,-0.4685085866666666,0.0479165739999999,-0.2001601733333333,0.3679445133333333,4.7376670999999995
414,1778472133,0.9609754416666668,-0.4301102433333333,0.0809456544999999,0.0416406533333333,0.1451823136666666,4.60124055
415,1778472133,0.96353805,-0.3917119,0.113974735,0.28344148,-0.077579886,4.464814
416,1778472133,1.193562,-0.265412265,-0.04966565,0.85276789,-0.6432411429999999,4.5729371500000005
417,1778472133,1.42358595,-0.13911263,-0.213306035,1.4220943,-1.2089024,4.6810603
418,1778472133,1.75812735,0.028554699,-0.445831585,1.42392685,-1.2757921,4.67434065
419,1778472133,2.0926687499999996,0.196222028,-0.6783571349999999,1.4257594,-1.3426818,4.667621
420,1778472133,2.5435646,0.43588626,-0.92595315,0.91507614,-1.3933836,4.433049
421,1778472133,2.6286311498970876,0.5052248435153516,-0.915382885600992,0.7310177508689222,-1.3337231077014011,4.379537817735022
422,1778472133,2.7136998775257277,0.5745652021211621,-0.904812350599752,0.5469546497827695,-1.2740610880746497,4.326025265566244
423,1778472133,2.798768605154368,0.6439055607269728,-0.8942418155985118,0.3628915486966169,-1.2143990684478982,4.272512713397465
424,1778472133,2.8838351550514556,0.7132441442423243,-0.8836715511995039,0.178833159565539,-1.1547385761492994,4.219001531132489
425,1778472133,2.968901704948544,0.7825827277576758,-0.8731012868004961,-0.0052252295655388,-1.0950780838507006,4.165490348867511
426,1778472133,3.053970432577184,0.8519230863634865,-0.862530751799256,-0.1892883306516914,-1.0354160642239492,4.111977796698732
427,1778472133,3.139039160205824,0.9212634449692972,-0.8519602167980157,-0.3733514317378441,-0.9757540445971976,4.0584652445299545
428,1778472133,3.224105710102912,0.9906020284846486,-0.8413899523990079,-0.557409820868922,-0.9160935522985988,4.004954062264977
429,1778472133,3.3091722599999995,1.059940612,-0.8308196880000001,-0.74146821,-0.85643306,3.95144288
430,1778472133,3.6358835333333337,1.6299770333333334,0.13008251,-1.4233160333333332,-0.0032579433333333,1.877799716666667
431,1778472133,3.255861152442453,1.5673552151176535,-0.061016756039296,-0.932937668403938,0.0467827407208906,0.7449356453588267
432,1778472133,2.8758485,1.5047350000000002,-0.25211113,-0.442571857,0.0968221437499999,-0.3878994249999999
433,1778472133,2.693961182027739,1.4256211057833,-0.3607689833266774,-0.3854569343293795,0.0963809694183605,-0.7975115258639962
434,1778472133,2.512069207680536,1.3465051862249835,-0.4694296183300053,-0.3283405494980231,0.0959397837925136,-1.207134112931998
435,1778472133,2.3301772333333335,1.2673892666666668,-0.5780902533333333,-0.2712241646666666,0.0954985981666666,-1.6167566999999998
436,1778472133,2.0674903166666665,1.1199786733333337,-0.5467085441666666,-0.6122396823333334,0.2392555565833333,-1.932981275
437,1778472133,1.8048034,0.97256808,-0.515326835,-0.9532552,0.383012515,-2.24920585
438,1778472133,1.6317668,0.83687234,-0.33045352,-1.5735888,0.6609562,-2.641992
439,1778472133,1.4169964,0.6733539,-0.032703668,-1.5735888,0.6609562,-2.641992
440,1778472133,1.423301162865335,0.6537481573044791,0.0550748389471528,-1.5397879051046617,0.7228566817757942,-2.720182116102469
441,1778472133,1.4296059257306697,0.6341424146089584,0.1428533458943057,-1.5059870102093236,0.7847571635515885,-2.798372232204937
442,1778472133,1.43591085,0.61453617,0.2306341,-1.47218525,0.84665923,-2.87656435
443,1778472133,1.419273982734433,0.562795136964339,0.2272172416863645,-1.2227443562632374,0.8486954880850265,-3.0276542785684417
444,1778472133,1.4026375413672163,0.5110554284821696,0.2238004708431822,-0.9733098481316186,0.8507316940425133,-3.178740339284221
445,1778472133,1.3860011,0.45931572,0.2203837,-0.72387534,0.8527679,-3.3298264
446,1778472133,1.3237665,0.170962105,0.1675453049999999,0.200058365,0.83627452,-4.17709645
447,1778472133,1.332674752032222,0.1148279791565148,0.1666097340331265,0.4210935356186266,0.8207989958877692,-4.375834691755911
448,1778472133,1.341582776016111,0.0586952903282574,0.1656741870165632,0.6421230478093133,0.8053238679438846,-4.574567845877955
449,1778472133,1.3504908,0.0025626014999999,0.16473864,0.86315256,0.78984874,-4.773301
450,1778472133,1.4301754,-0.1147069,0.12032023,1.310306,0.8943067,-5.2186217
451,1778472133,1.38679369472128,-0.27127162900288,0.0523494129846784,1.438283888096,0.962266319872,-5.41898808965696
452,1778472133,1.3434131,-0.42783235,-0.0156196639999999,1.5662585,1.0302242,-5.61934935
453,1778472133,1.1363305,-0.6216138,-0.088104665,1.9908098,1.1404854,-6.1563
454,1778472133,0.8361401,-0.8263778,-0.24649782,2.3970351,0.81122905,-6.264423
455,1778472133,0.6752222837044212,-0.8360995992499168,-0.3311464513181496,2.412917904396392,0.685185035543021,-6.200179286921331
456,1778472133,0.5143085868522106,-0.8458211496249584,-0.4157929156590748,2.428800302198196,0.5591442477715105,-6.135937218460666
457,1778472133,0.35339489,-0.8555427,-0.50043938,2.4446827,0.43310346,-6.07169515
458,1778472133,0.04148973,-0.7936742,-0.6262509,2.3554964,-0.19608775,-5.624236
459,1778472133,-0.19158493,-0.71777236,-0.6640798,2.3554964,-0.19608775,-5.624236
460,1778472133,-0.31873876,-0.7043492,-0.64479923,1.8649716,-0.7147123,-4.8991394
461,1778472133,-0.438996423182208,-0.697820768564992,-0.624725809443072,1.56565148134656,-0.84177064863232,-4.42786283241728
462,1778472133,-0.559257165,-0.69129217,-0.6046518750000001,1.2663237,-0.96883225,-3.9565742
463,1778472133,-0.7285109,-0.6369894,-0.5332651,0.6774496,-0.97433007,-2.8857274
464,1778472133,-0.7507201,-0.5981843,-0.48713827,0.26511553,-0.89919364,-2.043955
465,1778472133,-0.72216535,-0.5520575,-0.40220633,0.26511553,-0.89919364,-2.043955
466,1778472133,-0.66237134,-0.54888475,-0.021965152,-1.1129965,-0.2932153,0.9279043
467,1778472133,-0.66896087,-0.5349735,-0.15473229,-1.1129965,-0.2932153,0.9279043
468,1778472133,-0.63064396,-0.5696296,0.087616555,-1.2162327,-0.2284636,1.5833627
469,1778472133,-0.48640612,-0.63162017,0.24503349,-1.2162327,-0.2284636,1.5833627
470,1778472133,-0.3949732652550381,-0.630195441457098,0.2360595858002873,-1.1567274564188392,-0.2374021782267724,1.8383941243669093
471,1778472133,-0.3035404105100762,-0.6287707129141962,0.2270856816005747,-1.0972222128376783,-0.2463407564535449,2.0934255487338187
472,1778472133,-0.2121098964162354,-0.627346020843878,0.2181120071298691,-1.0377184925712548,-0.2552791058556437,2.3484504443798317
473,1778472133,-0.1206793823223947,-0.6259213287735599,0.2091383326591634,-0.9782147723048312,-0.2642174552577425,2.603475340025845
474,1778472133,-0.0292465275774328,-0.624496600230658,0.2001644284594508,-0.9187095287236704,-0.2731560334845149,2.858506764392754
475,1778472133,0.062186327167529,-0.623071871687756,0.1911905242597382,-0.8592042851425098,-0.2820946117112874,3.1135381887596636
476,1778472133,0.1536168412613698,-0.6216471796174379,0.1822168497890325,-0.7997005648760862,-0.2910329611133862,3.3685630844056766
477,1778472133,0.2450473553552105,-0.6202224875471197,0.1732431753183269,-0.7401968446096627,-0.299971310515485,3.6235879800516897
478,1778472133,0.3364802101001724,-0.6187977590042179,0.1642692711186143,-0.6806916010285019,-0.3089098887422575,3.878619404418599
479,1778472133,0.4279130648451343,-0.6173730304613159,0.1552953669189016,-0.6211863574473411,-0.3178484669690299,4.133650828785509
480,1778472133,0.5193435789389751,-0.6159483383909977,0.146321692448196,-0.5616826371809176,-0.3267868163711287,4.388675724431522
481,1778472133,0.6107740930328158,-0.6145236463206797,0.1373480179774903,-0.502178916914494,-0.3357251657732275,4.643700620077535
482,1778472133,0.7022069477777778,-0.6130989177777777,0.1283741137777777,-0.4426736733333333,-0.344663744,4.898732044444444
483,1778472133,0.9654599684844232,-0.5467619647867591,0.1274588851741127,-0.4966850280031573,0.0758375103471615,5.245453460199538
484,1778472133,1.22870625,-0.48042671,0.12654368,-0.5506949999999999,0.496328,5.592166000000001
485,1778472133,1.3600378814336,-0.390584282497792,0.0944810702066585,-0.5002229110510079,0.503276501058048,5.6339334653696005
486,1778472133,1.491372875,-0.300739555,0.0624176395999999,-0.44974953,0.51022518,5.675702
487,1778472133,1.6227078685664,-0.210894827502208,0.0303542089933414,-0.399276148948992,0.517173858941952,5.7174705346304
488,1778472133,1.7540395,-0.1210524,-0.0017084008,-0.34880406,0.52412236,5.759238
489,1778472133,2.0412947333333333,0.2372236436666666,-0.012609623,0.0173078466666666,0.1777617966666667,4.939863666666667
490,1778472133,2.118173746538773,0.4013237294542123,0.0294094380870976,0.1921193550586667,0.0552817485254506,4.592327814098026
491,1778472133,2.1950527597442133,0.5654238152417579,0.0714284991741952,0.3669308634506667,-0.0671982996157653,4.244791961529386
492,1778472133,2.2719298048721064,0.729519700120879,0.1134464845870976,0.5417378967253335,-0.1896752123078826,3.897265005764693
493,1778472133,2.34880685,0.893615585,0.15546447,0.7165449300000001,-0.312152125,3.54973805
494,1778472133,1.9368384,0.9862353,-0.17938207,1.1282681,-0.36713,2.7305677
495,1778472133,1.87899610962816,1.01967157797888,-0.355959760165504,1.28007004304,-0.08337946803968,1.92329891709184
496,1778472133,1.8211553,1.053107,-0.53253293,1.4318681,0.2003638,1.1160508
497,1778472133,2.0056624,1.1775762,-0.93620354,1.0647382,-0.2125811,0.88208944
498,1778472133,2.2006642,1.23871255,-1.01308157,1.0647382,-0.2125811,0.88208944
499,1778472133,2.395666,1.2998489,-1.0899596,1.0647382,-0.2125811,0.88208944
500,1778472133,2.5152529961779035,1.3106279913505765,-1.0522937880857093,0.4982673006135493,-0.459775803911526,0.4791254320035498
501,1778472133,2.6348399923558072,1.3214070827011528,-1.0146279761714183,-0.0682035987729015,-0.7069705078230522,0.0761614240070997
502,1778472133,2.75443005,1.33218645,-0.9769612,-0.634689,-0.95417154,-0.3268129
503,1778472133,2.7175775,1.2390786,-0.8881243,-0.93951076,-0.81122905,-0.61575216
504,1778472133,2.5355108,1.0897156,-0.7238738,-0.93951076,-0.81122905,-0.61575216
505,1778472133,2.4659543,1.0045396,-0.6296677,-1.5632042,-0.4654793,-1.0586295
506,1778472133,2.4527755,0.8851956,-0.40733153,-1.7672331,-0.39095375,-1.1704178
507,1778472133,2.5050037,0.85224795,-0.29213652,-2.0647244,-0.28221974,-1.3683381
508,1778472133,2.53160564759257,0.8486115242374764,-0.2682923717672033,-2.0608759994081263,-0.2824029981234128,-1.376706874302654
509,1778472133,2.5582075951851397,0.8449750984749529,-0.2444482235344064,-2.0570275988162527,-0.2825862562468256,-1.3850756486053084
510,1778472133,2.584810223796285,0.8413385796187381,-0.2206034648836016,-2.0531790997040633,-0.2827695190617064,-1.3934446371513272
511,1778472133,2.61141285240743,0.8377020607625235,-0.1967587062327967,-2.0493306005918734,-0.2829527818765872,-1.401813625697346
512,1778472134,2.6380148,0.834065635,-0.172914558,-2.0454822,-0.28313604,-1.4101824
513,1778472134,2.41012925447232,0.713411383144192,-0.022424683670048,-1.73425038381824,0.0046541604882815,-2.1219840388224
514,1778472134,2.182237875,0.5927540425,0.12806904325,-1.4230106,0.2924517285,-2.8338039
515,1778472134,1.9206040515065663,0.5121120837281865,0.0359155221000367,-1.005069823902054,0.3998131312778209,-2.984282934809322
516,1778472134,1.6589769257532834,0.4314721893640932,-0.0562356399499816,-0.587139746951027,0.5071717856389104,-3.134758117404661
517,1778472134,1.3973498,0.350832295,-0.148386802,-0.16920967,0.61453044,-3.2852333
518,1778472134,1.394055,0.3673061549999999,-0.285791035,-0.004276057,0.43066,-3.245527
519,1778472134,1.36836764620608,0.3278293909538879,-0.23459937350512,-0.0620035616526015,0.6024680491148799,-3.3997724743168
520,1778472134,1.34268095,0.2883536375,-0.1834090225,-0.1197295885,0.7742716999999999,-3.554014
521,1778472134,1.31699425379392,0.248877884046112,-0.13221867149488,-0.1774556153473984,0.9460753508851198,-3.7082555256832
522,1778472134,1.2913069,0.20940112,-0.08102701,-0.23518312,1.1178834,-3.862501
523,1778472134,1.2283401,0.14130914,-0.0078098318,-0.23518312,1.1178834,-3.862501
524,1778472134,1.1446285,0.0054912885,0.10775127,0.05039638,1.61024075,-4.2836927
525,1778472134,1.0937210875571493,-0.0481145828211609,0.0710017534589085,0.1836811533815233,1.5602129769876631,-4.366866361305645
526,1778472134,1.042812371867858,-0.1017218264701934,0.0342512961181514,0.3169693388969205,1.510183923247944,-4.450042151884274
527,1778472134,0.9919036561785672,-0.155329070119226,-0.0024991612226057,0.4502575244123177,1.4601548695082245,-4.533217942462903
528,1778472134,0.9409962437357164,-0.2089349414403869,-0.0392486777636971,0.583542297793841,1.4101270964958876,-4.616391603768548
529,1778472134,0.8900888312928655,-0.2625408127615479,-0.0759981943047885,0.7168270711753644,1.3600993234835508,-4.6995652650741935
530,1778472134,0.8391801156035746,-0.3161480564105804,-0.1127486516455457,0.8501152566907616,1.3100702697438316,-4.7827410556528225
531,1778472134,0.7882713999142836,-0.369755300059613,-0.1494991089863028,0.9834034422061588,1.2600412160041123,-4.8659168462314515
532,1778472134,0.7373639874714328,-0.4233611713807739,-0.1862486255273943,1.1166882155876825,1.2100134429917755,-4.949090507537097
533,1778472134,0.6864565750285819,-0.4769670427019348,-0.2229981420684857,1.2499729889692055,1.1599856699794384,-5.032264168842742
534,1778472134,0.635547859339291,-0.5305742863509674,-0.2597485994092428,1.3832611744846026,1.1099566162397192,-5.115439959421371
535,1778472134,0.58463914365,-0.58418153,-0.29649905675,1.51654936,1.0599275625,-5.19861575
536,1778472134,-0.0990872431749999,-0.66720674,-0.432515203375,1.52521598,0.63472717125,-5.122486675
537,1778472134,-0.7828136299999999,-0.7502319500000001,-0.56853135,1.5338826,0.20952678,-5.0463576
538,1778472134,-0.940840715,-0.7239347975000001,-0.5206351125,1.2227995,-0.161573865,-3.86662415
539,1778472134,-1.0988677999999998,-0.697637645,-0.472738875,0.9117164,-0.53267451,-2.6868907
540,1778472134,-1.1286424959193424,-0.6328816725913711,-0.4401168367116233,0.8398385300323414,-0.6395750044374376,-2.2171393419295655
541,1778472134,-1.1584171918386852,-0.5681257001827421,-0.4074947984232466,0.767960660064683,-0.7464754988748752,-1.747387983859131
542,1778472134,-1.18819265,-0.5033680700000001,-0.374871925,0.69608095,-0.85337873,-1.2776246
543,1778472134,-1.1419438,-0.456143,-0.38536638,0.1966986,-1.0158689,0.6426302
544,1778472134,-1.0760484,-0.49031103,-0.2962855,0.1966986,-1.0158689,0.6426302
545,1778472134,-0.978182687697152,-0.550226298074752,-0.1859730370175999,-0.1209472640808959,-0.97463602778752,1.24279766775808
546,1778472134,-0.88031447,-0.6101431,-0.07565775,-0.43860126,-0.9334021,1.8429805
547,1778472134,-0.6678996953342478,-0.6900325517625249,-0.0032935416666524,-0.622576646473073,-0.9120214517749408,2.45253261955635
548,1778472134,-0.4554903584171239,-0.7699199583812625,0.0690688141666737,-0.8065473232365366,-0.8906413508874704,3.062069134778175
549,1778472134,-0.2430810215,-0.849807365,0.14143117,-0.990518,-0.86926125,3.67160565
550,1778472134,0.20500809,-0.95011485,0.2255089,-0.8924741,-0.70249504,5.638286
551,1778472134,0.6960513,-0.9628058,0.20061506,-0.8924741,-0.70249504,5.638286
552,1778472134,0.96817505,-0.9261973,0.14350566,-0.63591075,-0.571159,6.392705
553,1778472134,1.1675699,-0.8871481,0.0741934,-0.5345071,-0.312763,6.6217794
554,1778472134,1.2634233499999998,-0.8528580250000001,0.0154976350499999,-0.5636759124999999,-0.2651155125,6.5949013
555,1778472134,1.3592768,-0.81856795,-0.0431981299,-0.592844725,-0.217468025,6.568023200000001
556,1778472134,1.38301135,-0.7983112450000001,-0.0873724899499999,-0.6220135375,-0.1698205375,6.5411451000000005
557,1778472134,1.4067459,-0.77805454,-0.13154685,-0.65118235,-0.12217305,6.514267
558,1778472134,1.2460749,-0.8498887033333333,0.1001448206666666,-1.1089241,0.0474438686666666,6.327749466666667
559,1778472134,1.2392682838352376,-0.8450617198427585,0.2178366623594995,-0.9361820185728792,0.1281473330992744,6.46078458154801
560,1778472134,1.2324618419176188,-0.8402348599213793,0.3355254911797497,-0.7634443592864397,0.2088487315496372,6.593816290774005
561,1778472134,1.2256554,-0.835408,0.45321432,-0.5907067,0.28955013,6.726848
562,1778472134,1.4889933,-0.50495446,0.084687866,-0.39095375,0.40622538,6.7830477
563,1778472134,1.6444902403353598,-0.46081003870864,0.0401773555227584,-0.374918334749312,0.421573566454272,6.7607508271036805
564,1778472134,1.7999832,-0.4166667475,-0.0043320154999999,-0.35888333,0.43692136,6.738454525
565,1778472134,1.95547615966464,-0.37252345629136,-0.0488413865227583,-0.342848325250688,0.452269153545728,6.71615822289632
566,1778472134,2.1109731,-0.328379035,-0.0933518969999999,-0.32681291,0.46761734,6.693861350000001
567,1778472134,2.2069284,0.1657148688333333,0.1199948133333333,-0.2032145033333333,-0.1185078566666666,4.5366924
568,1778472134,2.050813,0.28725538,0.4288086,0.5045747,-0.81000733,3.6053267
569,1778472134,2.1555138,0.45638704,0.40708748,0.5045747,-0.81000733,3.6053267
570,1778472134,2.2997513,0.54034275,0.26480213,0.5045747,-0.81000733,3.6053267
571,1778472134,2.322123581815389,0.5658064879088978,0.191746408864985,0.7817086296918601,-0.8195777166658418,3.516546118164131
572,1778472134,2.3444952909076946,0.5912695739544489,0.1186925579324925,1.0588354648459302,-0.8291478583329208,3.427767809082065
573,1778472134,2.366867,0.61673266,0.045638707,1.3359623,-0.838718,3.3389895
574,1778472134,2.48901785,0.8089277425,-0.5895202825,1.39720156,0.0067195149999999,2.180178025
575,1778472134,2.520143026212759,0.8199123251700232,-0.5820858358525854,1.2028618812159555,0.0044404915343443,1.9956992432016776
576,1778472134,2.5512674056312066,0.8308966266383294,-0.574651579524569,1.0085271774640074,0.0021615264109426,1.8112251839997204
577,1778472134,2.582391785049654,0.8418809281066357,-0.5672173231965526,0.8141924737120595,-0.0001174387124591,1.6267511247977628
578,1778472134,2.6135169612624134,0.852865510776659,-0.5597828765491382,0.6198527949280149,-0.0023964621781147,1.4422723429994406
579,1778472134,2.6446421374751727,0.8638500934466822,-0.5523484299017236,0.4255131161439704,-0.0046754856437704,1.2577935612011184
580,1778472134,2.67576651689362,0.8748343949149884,-0.5449141735737072,0.2311784123920224,-0.0069544507671721,1.073319501999161
581,1778472134,2.7068908963120677,0.8858186963832946,-0.5374799172456908,0.0368437086400743,-0.0092334158905738,0.8888454427972037
582,1778472134,2.738016072524827,0.8968032790533178,-0.5300454705982763,-0.1574959701439701,-0.0115124393562295,0.7043666609988815
583,1778472134,2.7691412487375864,0.907787861723341,-0.5226110239508618,-0.3518356489280147,-0.0137914628218852,0.5198878792005591
584,1778472134,2.800265628156034,0.9187721631916472,-0.5151767676228454,-0.5461703526799627,-0.0160704279452869,0.3354138199986017
585,1778472134,2.8313900075744813,0.9297564646599537,-0.507742511294829,-0.7405050564319108,-0.0183493930686886,0.1509397607966443
586,1778472134,2.8625151837872407,0.9407410473299768,-0.5003080646474145,-0.9348447352159552,-0.0206284165343443,-0.0335390210016779
587,1778472134,2.89364036,0.95172563,-0.4928736179999999,-1.129184414,-0.02290744,-0.2180178028
588,1778472134,2.8234982,0.66749656,-0.13960074,-2.0409007,0.81245077,-1.9034561
589,1778472134,2.724411,0.61795294,-0.038316987,-1.7305813,0.57726765,-2.453235
590,1778472134,2.3244013,0.454434615,0.13850249,-1.1685852,0.46303585,-3.037833
591,1778472134,2.13623074144768,0.401351478044544,0.070592693265728,-0.82130386735584,0.57054950115712,-3.2209420937664
592,1778472134,1.948065,0.3482697,0.0026846349999999,-0.474031425,0.6780604,-3.4040465
593,1778472134,1.8619142703246068,0.3240270920791378,-0.0484038130793255,-0.4162038319368877,0.857244491885688,-3.4681862886669284
594,1778472134,1.7757613351623034,0.2997838635395689,-0.0994935690396627,-0.3583747584684438,1.036433170942844,-3.532327719333464
595,1778472134,1.6896084,0.275540635,-0.150583325,-0.300545685,1.21562185,-3.59646915
596,1778472134,1.666911,0.26992732,-0.12398108,-0.25350907,1.3298537,-3.6822958
597,1778472134,1.6129744,0.20061506,-0.021477038,-0.25350907,1.3298537,-3.6822958
598,1778472134,1.4872849,0.117391534,0.09152147,0.22724187,1.3671165,-4.3463063
599,1778472134,1.2390786,-0.06687169,0.25357547,0.22724187,1.3671165,-4.3463063
600,1778472134,1.17818635,-0.148264775,0.231976405,0.517097435,1.366811,-4.52192995
601,1778472134,1.1172941,-0.22965786,0.21037734,0.806953,1.3665055,-4.6975536
602,1778472134,1.1602482,-0.2894519,0.136428,1.8490891,1.3646729,-4.9535065
603,1778472134,1.1636649,-0.36706212,0.016351834,1.8490891,1.3646729,-4.9535065
604,1778472134,1.1983211,-0.49055508,-0.24820623,2.1526892,1.3933836,-5.130657
605,1778472134,1.1109486,-0.59672,-0.3590082,2.4312437,1.4025466,-5.6462274
606,1778472134,1.007834425,-0.656636035,-0.4355811675,2.4178046749999997,1.399186825,-5.6178222
607,1778472134,0.90472025,-0.71655207,-0.5121541350000001,2.40436565,1.3958270499999998,-5.589417
608,1778472134,0.7629839900000001,-0.7684142549999999,-0.5743277175,2.3463334249999996,1.288314775,-5.7354138
609,1778472134,0.62124773,-0.82027644,-0.6365013,2.2883012,1.1808025,-5.8814106
610,1778472134,0.538207245,-0.84114334,-0.65797835,2.13589035,1.1359039,-5.8297925
611,1778472134,0.45516676,-0.86201024,-0.6794554,1.9834795,1.0910053,-5.7781744
612,1778472135,0.23130525,-0.7844000125,-0.5928150625,1.7777706,1.0607674825,-5.534744625
613,1778472135,0.00744374,-0.706789785,-0.5061747249999999,1.5720617,1.030529665,-5.29131485
614,1778472135,-0.5005614,-0.5339973,-0.42026657,1.1227703,0.91324353,-4.5491133
615,1778472135,-0.559257921305856,-0.48567333146112,-0.459316234829312,1.1023060380608,0.829248489877248,-4.316370870935041
616,1778472135,-0.61795294,-0.4373506,-0.4983649,1.0818423,0.7452556,-4.0836344
617,1778472135,-0.64138246,-0.3785328,-0.53887844,0.97249746,0.39584067,-3.1752775
618,1778472135,-0.6892176649999999,-0.225142805,-0.5442477,0.78160207,0.0522289735,-2.3096815
619,1778472135,-0.69409883,-0.08053889,-0.53887844,0.064751714,-0.4990769,-0.5204572
620,1778472135,-0.707033845,-0.061502426,-0.53460744,-0.082772243,-0.530231025,-0.3161227699999999
621,1778472135,-0.71996886,-0.042465962,-0.53033644,-0.2302962,-0.56138515,-0.11178834
622,1778472135,-0.69214636,-0.06613952,-0.35534734,-0.2302962,-0.56138515,-0.11178834
623,1778472135,-0.6833194793564985,-0.134069942664374,-0.2178594152361183,-0.6454880525169174,-0.6179929660943619,0.4715979296648946
624,1778472135,-0.6744928246782492,-0.201998626332187,-0.0803750101180591,-1.0606692762584589,-0.674599333047181,1.0549692648324474
625,1778472135,-0.66566617,-0.26992731,0.057109395,-1.4758505,-0.7312057,1.6383406
626,1778472135,-0.6057501,-0.33460248,0.17987019,-1.5125023,-0.9584476,2.4459045
627,1778472135,-0.24649782,-0.47395915,0.24918245,-1.5125023,-0.9584476,2.4459045
628,1778472135,-0.1833121454356802,-0.5048339065058999,0.2345204147013422,-1.4631872648374122,-0.961196459597674,2.618077174149134
629,1778472135,-0.1201264708713604,-0.5357086630117996,0.2198583794026844,-1.4138722296748245,-0.963945319195348,2.790249848298268
630,1778472135,-0.0569391787330668,-0.5665842099215832,0.2051959687511185,-1.3645559320311769,-0.9666942491647282,2.9624269301242783
631,1778472135,0.0062481134052267,-0.5974597568313668,0.1905335580995525,-1.3152396343875292,-0.9694431791341086,3.1346040119502887
632,1778472135,0.0694337879695465,-0.6283345133372665,0.1758715228008948,-1.2659245992249415,-0.9721920387317826,3.3067766860994228
633,1778472135,0.1326194625338662,-0.6592092698431664,0.161209487502237,-1.2166095640623538,-0.9749408983294564,3.4789493602485564
634,1778472135,0.1958067546721598,-0.69008481675295,0.1465470768506711,-1.167293266418706,-0.9776898282988368,3.651126442074567
635,1778472135,0.2589940468104534,-0.7209603636627335,0.1318846661991052,-1.1179769687750585,-0.9804387582682172,3.8233035239005777
636,1778472135,0.3221797213747732,-0.7518351201686333,0.1172226309004474,-1.0686619336124707,-0.9831876178658912,3.9954761980497113
637,1778472135,0.385365395939093,-0.7827098766745332,0.1025605956017896,-1.019346898449883,-0.9859364774635652,4.167648872198845
638,1778472135,0.4485526880773866,-0.8135854235843167,0.0878981849502237,-0.9700306008062354,-0.9886854074329456,4.339825954024856
639,1778472135,0.5117399802156801,-0.8444609704941003,0.0732357742986577,-0.9207143031625876,-0.991434337402326,4.512003035850866
640,1778472135,0.57492565478,-0.8753357270000001,0.058573739,-0.871399268,-0.994183197,4.68417571
641,1778472135,1.5329236,-0.6045298,0.17035197,-1.4795157,-0.3231477,5.5423803
642,1778472135,1.608764375,-0.5022087925,0.20031,-1.35978605,-0.40256018,5.387831449999999
643,1778472135,1.68460515,-0.399887785,0.23026803,-1.2400564,-0.48197266,5.2332826
644,1778472135,1.854103,-0.058085624,0.3521746,-1.0030408,-0.7318166,5.0335298
645,1778472135,1.91353013932288,0.0312381846406143,0.334480686484992,-0.642329457164288,-0.87139751334144,4.79040851199232
646,1778472135,1.9729588,0.12056428,0.31678632,-0.28160888,-1.010982,4.547281
647,1778472135,2.0343837609835496,0.2548264244267612,0.3411532443141112,-0.1620002385431886,-0.8955761490592127,4.336163814187689
648,1778472135,2.095807149508225,0.3890851317866194,0.3655195448429444,-0.0423946590284057,-0.7801732524703937,4.125052032906156
649,1778472135,2.157230538032901,0.5233438391464778,0.3898858453717775,0.0772109204863772,-0.6647703558815747,3.913940251624623
650,1778472135,2.2186554990164504,0.6576059835732389,0.4142527696858887,0.1968195619431885,-0.5493645049407874,3.702823065812312
651,1778472135,2.28008046,0.7918681280000001,0.4386196939999999,0.3164282034,-0.433958654,3.49170588
652,1778472135,2.3341637,1.2483528,0.25821257,0.9089675,0.19975294,2.5192082
653,1778472135,2.222794067399392,1.2601487153471345,0.1066556035386695,1.2374037612827251,0.0629214586205072,1.937063582061986
654,1778472135,2.111421583699696,1.2719449326735672,-0.0449052428306652,1.5658484306413627,-0.0739135256897463,1.354904061030993
655,1778472135,2.0000491,1.28374115,-0.1964660892,1.8942931,-0.21074851,0.77274454
656,1778472135,1.7537954,1.3154685,-0.6643238,2.0781636,-0.8417723,0.33536503
657,1778472135,1.811881,1.38112,-0.937912,2.0781636,-0.8417723,0.33536503
658,1778472135,1.9883344,1.4592183,-1.1133891,1.9101756,-1.0140363,0.37568212
659,1778472135,2.527945,1.599063,-1.1197346,-0.9492846,-0.36835176,0.79534656
660,1778472135,2.7449117,1.6239569,-0.9471862,-0.9492846,-0.36835176,0.79534656
661,1778472135,2.8673993095180395,1.5937756817660511,-0.6976283578416902,-1.2822683392269971,-0.1998236995823804,0.6541712205344119
662,1778472135,2.98989005475902,1.5635936908830257,-0.4480641269208451,-1.615260602946832,-0.0312913247911901,0.5129922669338727
663,1778472135,3.1123808000000004,1.5334117,-0.1984998959999999,-1.9482528666666667,0.13724105,0.3718133133333333
664,1778472135,3.174534,1.4388395,0.1072224819999999,-2.051845433333334,0.396197025,-0.3179044683333333
665,1778472135,3.2366872,1.3442673,0.4129448599999999,-2.155438,0.655153,-1.00762225
666,1778472135,3.0762196,1.1941721,0.384878275,-1.4460707475,0.56275962,-1.6589573000000002
667,1778472135,2.915752,1.0440769,0.35681169,-0.736703495,0.47036624,-2.31029235
668,1778472135,2.713405856709191,0.9489360618788772,0.2598811154848234,-0.5942712951703295,0.4783074215677166,-2.435946262739553
669,1778472135,2.5110597134183825,0.8537952237577546,0.1629505409696468,-0.4518390953406589,0.4862486031354331,-2.5616001754791062
670,1778472135,2.30870839,0.7586519499999999,0.0660174849999999,-0.3094032492,0.494189988,-2.687257305
671,1778472135,2.1063570665816176,0.6635086762422452,-0.0309155709696468,-0.166967403059341,0.5021313728645669,-2.812914434520894
672,1778472135,1.904010923290809,0.5683678381211226,-0.1278461454848234,-0.0245352032296705,0.5100725544322835,-2.938568347260447
673,1778472135,1.7016647800000002,0.4732269999999999,-0.22477672,0.1178969966,0.518013736,-3.06422226
674,1778472135,1.4631232,0.40733153,-0.099087246,-0.032375857,0.7476991,-3.0274482
675,1778472135,1.462635,0.3917119,-0.018060237,-0.2883284,1.1795808,-2.8887818
676,1778472135,1.4355447,0.37413976,0.10006347,-0.3304781,1.3683381,-2.937651
677,1778472135,1.3384099,0.2757847,0.30214286,-0.27672195,1.5662584,-3.0647109
678,1778472135,1.271741031099601,0.2067565818009309,0.3458294877877854,-0.0414350139105113,1.6359994784495853,-3.241354290670973
679,1778472135,1.205072162199201,0.1377284636018619,0.3895161155755709,0.1938519221789773,1.7057405568991706,-3.417997681341946
680,1778472135,1.138405,0.0687021125,0.433201625,0.429132835,1.77547985,-3.5946365499999997
681,1778472135,1.1268123,-0.022453265,0.34900185,0.71837753,1.822211,-3.7665951
682,1778472135,1.0892274,-0.1769415,-0.014399378,1.5302174,1.858252,-4.114788
683,1778472135,1.044770457847313,-0.2168941820544512,-0.053926310916043,1.55943070725888,1.8184366581479257,-4.199699385740715
684,1778472135,1.0003146537777778,-0.2568458413333334,-0.0934522319555555,1.5886432666666666,1.7786223355555555,-4.284608597777778
685,1778472135,0.9558588497082424,-0.2967975006122155,-0.132978152995068,1.617855826074453,1.7388080129631858,-4.369517809814841
686,1778472135,0.9114019075555556,-0.3367501826666667,-0.1725050859111111,1.6470691333333332,1.6989926711111112,-4.454429195555555
687,1778472135,0.8669449654028686,-0.3767028647211179,-0.2120320188271542,1.6762824405922132,1.6591773292590364,-4.53934058129627
688,1778472135,0.8224891613333334,-0.4166545240000001,-0.2515579398666667,1.705495,1.6193630066666669,-4.624249793333333
689,1778472135,0.7780333572637981,-0.4566061832788822,-0.2910838609061791,1.7347075594077863,1.579548684074297,-4.709159005370396
690,1778472135,0.7335764151111112,-0.4965588653333334,-0.3306107938222222,1.7639208666666666,1.5397333422222224,-4.79407039111111
691,1778472135,0.6891194729584242,-0.5365115473877846,-0.3701377267382653,1.7931341739255466,1.4999180003701476,-4.878981776851825
692,1778472135,0.6446636688888889,-0.5764632066666667,-0.4096636477777778,1.8223467333333332,1.4601036777777778,-4.963890988888888
693,1778472135,0.1483868,-0.7167961,-0.25772443,1.6102408,0.8258898,-4.4593163
694,1778472135,-0.0211109475,-0.7212501625000001,-0.2668155725,1.61512775,0.59131755,-4.2281038
695,1778472135,-0.190608695,-0.725704225,-0.2759067149999999,1.6200147,0.3567453,-3.9968913
696,1778472135,-0.4422317225,-0.723934815,-0.2890248024999999,1.528079475,0.25121833,-3.638160675
697,1778472135,-0.6938547500000001,-0.722165405,-0.30214289,1.43614425,0.14569136,-3.27943005
698,1778472135,-0.8700641,-0.69971216,-0.31434575,1.2522738,-0.06536258,-2.5619688
699,1778472135,-1.04340796877312,-0.6281414414065281,-0.3084272742444799,1.060765078719744,-0.168905565333248,-1.96514581076352
700,1778472135,-1.2167474,-0.556572555,-0.30250895,0.86926126,-0.2724459,-1.3683381
701,1778472135,-1.2947236,-0.46712556,-0.07370529,0.43371433,-0.39767328,-0.20586158
702,1778472135,-1.29789645,-0.46810178,-0.036364530515,0.21991149115,-0.415693805,0.45875976
703,1778472135,-1.3010693,-0.469078,0.00097622897,0.0061086523,-0.43371433,1.1233811
704,1778472135,-0.91783834,-0.416727735,0.070776601985,-0.05497787385,-0.572380765,2.3167064
705,1778472135,-0.53460738,-0.36437747,0.140576975,-0.1160644,-0.7110472,3.5100317
706,1778472135,0.19988288,-0.26626647,0.12056428,-0.06047566,-0.77091193,4.1215076
707,1778472135,0.6203935,-0.17620933,0.08908089,0.0018325958,-0.72692966,4.647463
708,1778472135,0.8710403,-0.11665936,0.050031736,0.0720821,-0.46120325,4.9070807
709,1778472135,1.159272,-0.061258372,-0.05222825,0.0720821,-0.46120325,4.9070807
710,1778472135,1.2815446,-0.025381953,-0.09030118,0.13622294,-0.16249016,4.7812424
711,1778472135,1.4372531,0.049787678,-0.16693515,0.13622294,-0.16249016,4.7812424
712,1778472136,1.5282865,0.107629254,-0.20305562,0.15821409,-0.2003638,4.659069
713,1778472136,1.4063412978914225,0.0488531346252773,-0.1281720020301054,0.1074113335781411,-0.1521062686057446,4.505031895600232
714,1778472136,1.2843929739457112,-0.0099244894373613,-0.0532864670150527,0.0566072765890705,-0.1038475018028723,4.350990847800117
715,1778472136,1.16244465,-0.0687021135,0.0215990679999999,0.0058032196,-0.055588735,4.1969498000000005
716,1778472136,0.955362075,-0.17553817175,0.1103748889999999,0.0096211273,0.0293215325,4.2077927
717,1778472136,0.7482795,-0.28237423,0.19915071,0.013439035,0.1142318,4.2186356
718,1778472136,0.7307074,-0.3214234,0.19890666,0.23151793,0.54244834,4.7610836
719,1778472136,1.2456682,-0.10079564,-0.014399378,0.23151793,0.54244834,4.7610836
720,1778472136,1.6019918,0.097134784,-0.15424417,0.2919936,0.6560693,4.868596
721,1778472136,1.7644119,0.3127593549999999,-0.204519965,0.0784961825,0.29596421,3.63495365
722,1778472136,1.61645215,0.3522356275,-0.1241031075,0.04596760875,0.2386955899999999,3.440851175
723,1778472136,1.4684924,0.3917119,-0.04368625,0.013439035,0.18142697,3.2467487
724,1778472136,1.240909085,0.43735059,0.043686245,0.1072068525,-0.0247400499999999,3.0088167500000003
725,1778472136,1.01332577,0.48298928,0.13105874,0.20097467,-0.23090707,2.7708848
726,1778472136,1.11131471,0.6220409125,0.1621150275,0.2727513325,-0.2466368475,2.831971325
727,1778472136,1.20930365,0.761092545,0.193171315,0.344527995,-0.262366625,2.89305785
728,1778472136,1.5896669250000002,1.0282742225,0.1438107325,0.3243694475,-0.2777909625,2.918408775
729,1778472136,1.9700302,1.2954559,0.09445015,0.3042109,-0.2932153,2.9437597
730,1778472136,2.2148197,1.5292627,-0.10323621,0.874759,-0.11056661,1.6236799
731,1778472136,2.10255191299072,1.53792686089984,-0.170840940329472,0.874759,-0.11056661,1.6236799
732,1778472136,1.990287,1.5465908,-0.23844394,0.874759,-0.11056661,1.6236799
733,1778472136,1.9556311936,1.55025160314112,-0.4056210101061119,0.84391071986304,0.0577246108447999,1.11483561329024
734,1778472136,1.9209745,1.5539125,-0.57280236,0.81306165,0.22602014,0.6059783
735,1778472136,1.962184103726176,1.551276646261504,-0.5948837212628063,0.6594576178935552,0.1513714508340089,0.5055813144850342
736,1778472136,2.0033926525,1.54864086,-0.61696451725,0.505857518,0.0767246726499999,0.4051868991
737,1778472136,2.044601201273824,1.546005073738496,-0.6390453132371936,0.3522574181064448,0.002077894465991,0.3047924837149657
738,1778472136,2.085810805,1.54336922,-0.6611266745,0.198653386,-0.0725707947,0.2043954982
739,1778472136,2.127020408726176,1.540733366261504,-0.6832080357628064,0.0450493538935551,-0.147219483865991,0.1039985126850342
740,1778472136,2.1682289575,1.53809758,-0.70528883175,-0.108550746,-0.22186626205,0.0036040972999999
741,1778472136,2.209437506273824,1.535461793738496,-0.7273696277371936,-0.2621508458935552,-0.296513040234009,-0.0967903180850342
742,1778472136,2.25064711,1.53282594,-0.749450989,-0.415754878,-0.3711617294000001,-0.1971873036
743,1778472136,2.291856713726176,1.530190086261504,-0.7715323502628064,-0.5693589101064448,-0.4458104185659911,-0.2975842891149657
744,1778472136,2.3330652625,1.5275543,-0.79361314625,-0.72295901,-0.52045719675,-0.3979787045
745,1778472136,2.51415575,1.2088155500000002,0.215258489,-2.71010365,0.5262604200000001,-1.62581785
746,1778472136,2.4506596915072363,1.1746472751011197,0.2790393269228504,-2.351828109421186,0.5141448232815647,-1.8837070006259171
747,1778472136,2.3871636330144725,1.1404790002022391,0.3428201648457009,-1.9935525688423728,0.5020292265631293,-2.1415961512518344
748,1778472136,2.3236692,1.1063116,0.40659937,-1.6352862,0.48991394,-2.3994787
749,1778472136,2.20377758463232,0.988311392921984,0.259129666386368,-1.029621092612608,0.628883991160576,-2.84082315071872
750,1778472136,2.0838829,0.870308165,0.1116561875,-0.42394048,0.7678576,-3.2821789
751,1778472136,2.0209763448064,0.7767109919715199,0.0226961863265599,-0.2556449508448,0.8784256352527361,-3.4654407957222397
752,1778472136,1.9580714,0.683116215,-0.0662615375,-0.08735373,0.98899084,-3.648698
753,1778472136,1.7598969,0.4639528,-0.255772,0.09101892,1.0415252,-3.9205332
754,1778472136,1.5728389482370209,0.3434417337853978,-0.2906182473508379,0.1521738396264122,1.015393538123784,-4.0187475491961635
755,1778472136,1.3857809964740415,0.2229306675707956,-0.3254644947016759,0.2133287592528245,0.989261876247568,-4.116961898392327
756,1778472136,1.198727833333333,0.1024226864,-0.36030985,0.2744821133333333,0.9631308833333332,-4.215173733333334
757,1778472136,0.79513854,-0.11665936,-0.23575929,0.3866777,0.98349303,-4.1013494
758,1778472136,0.79147767,-0.14167523,-0.20781474,0.447458785,1.015258015,-4.0411791
759,1778472136,0.7878168,-0.1666911,-0.17987019,0.50823987,1.047023,-3.9810088
760,1778472136,0.79489446,-0.24820623,-0.10518867,0.50823987,1.047023,-3.9810088
761,1778472136,0.817103395721984,-0.2864006961045759,-0.12690949196992,0.7791551172404481,1.19026911642624,-4.07111024668672
762,1778472136,0.8393129,-0.32459614,-0.14863087,1.0500773,1.3335189,-4.161214
763,1778472136,0.7925751256855283,-0.3841064422961591,-0.1893891205985732,1.1900696558389583,1.230280888093816,-4.315052875483202
764,1778472136,0.7458385478427642,-0.4436152211480795,-0.2301463277992866,1.3300584279194791,1.127045519046908,-4.468887812741601
765,1778472136,0.6991019700000001,-0.503124,-0.270903535,1.4700472,1.02381015,-4.622722749999999
766,1778472136,0.4837215,-0.592571,-0.37194324,1.59558,0.852157,-4.781853
767,1778472136,0.3145898,-0.6164886,-0.37145513,1.6102408,0.4447099,-4.937624
768,1778472136,0.13496366,-0.6472398,-0.33704305,1.6102408,0.4447099,-4.937624
769,1778472136,-0.23893206,-0.6706693,-0.30360723,1.5864171,0.32375857,-4.9119673
770,1778472136,-0.41514137,-0.6760386,-0.27724904,1.4611896,0.16432275,-4.350582
771,1778472136,-0.61209553,-0.69263446,-0.26480213,1.4611896,0.16432275,-4.350582
772,1778472136,-0.9308343,-0.65285313,-0.27871338,1.3396275,-0.073303826,-3.1581733
773,1778472136,-0.99270205808256,-0.619173646102912,-0.249304861433856,1.3396275,-0.073303826,-3.1581733
774,1778472136,-1.0545714,-0.5854933,-0.21989559,1.3396275,-0.073303826,-3.1581733
775,1778472136,-1.0040516,-0.464685,-0.2328306,1.2253957,-0.408058,-2.0421226
776,1778472136,-0.9723241,-0.3385074,-0.25552794,0.7892379,-0.4868596,-0.04642576
777,1778472136,-1.005352636305765,-0.3456662878200839,-0.2404779968556507,0.7892379,-0.4868596,-0.04642576
778,1778472136,-1.0383820181528824,-0.352825358910042,-0.2254276684278253,0.7892379,-0.4868596,-0.04642576
779,1778472136,-1.0714114,-0.35998443,-0.21037734,0.7892379,-0.4868596,-0.04642576
780,1778472136,-0.9401085,-0.48323336,-0.09396204,0.21868975,-0.4569272,2.2742512
781,1778472136,-0.826379288252544,-0.499401948039424,-0.105127517080064,0.21868975,-0.4569272,2.2742512
782,1778472136,-0.712647165,-0.51557095,-0.11629328,0.21868975,-0.4569272,2.2742512
783,1778472136,-0.47066130512064,-0.522831747937024,-0.181884499556864,0.250149717682432,-0.570855028257536,2.80540539868672
784,1778472136,-0.22868164,-0.53009236,-0.24747404,0.28160888,-0.68477994,3.336546
785,1778472136,0.37230932,-0.5111779000000001,-0.319348915,0.2724459,-0.8772025,3.9480221
786,1778472136,0.61862412,-0.51776745,-0.2460097075,-0.1177442799999999,-0.8797986750000001,4.845688575
787,1778472136,0.8649389199999999,-0.524357,-0.1726705,-0.50793446,-0.8823948500000001,5.74335505
788,1778472136,0.9277146791679978,-0.4898598602552326,-0.1418488263179784,-0.5656789606887441,-0.8170512630668951,5.722610281429149
789,1778472136,0.9904904383359956,-0.4553627205104653,-0.1110271526359568,-0.6234234613774883,-0.7517076761337901,5.701865512858299
790,1778472136,1.053267804583999,-0.4208646976276163,-0.0802046899089892,-0.6811694403443721,-0.6863624163834475,5.681120213214575
791,1778472136,1.116045170832002,-0.3863666747447673,-0.0493822271820216,-0.7389154193112558,-0.6210171566331051,5.660374913570851
792,1778472136,1.17882093,-0.3518695349999999,-0.0185605535,-0.79665992,-0.5556735697,5.639630145
793,1778472136,1.241596689167998,-0.3173723952552326,0.0122611201820215,-0.8544044206887441,-0.490329982766895,5.618885376429149
794,1778472136,1.304374055416001,-0.2828743723723836,0.0430835829089891,-0.912150399655628,-0.4249847230165525,5.598140076785425
795,1778472136,1.3671514216640044,-0.2483763494895347,0.0739060456359567,-0.9698963786225115,-0.35963946326621,5.577394777141701
796,1778472136,1.4299271808320022,-0.2138792097447673,0.1047277193179783,-1.027640879311256,-0.294295876333105,5.556650008570851
797,1778472136,1.49270294,-0.17938207,0.135549393,-1.08538538,-0.2289522894,5.53590524
798,1778472136,1.0478598,0.0108605475,0.52289265,-1.1136073,-0.16187929,4.5210137
799,1778472136,1.5107143,0.23673552,0.35071027,-0.3268129,-0.08857546,4.681671
800,1778472136,1.8914437,0.4698102,0.16815543,-0.3268129,-0.08857546,4.681671
801,1778472136,1.965852741180553,0.6088662156358444,0.0461560074834624,0.0634554460016383,-0.1753168451502998,4.333958967694644
802,1778472136,2.0402636872569433,0.7479257911512555,-0.0758465382582687,0.4537337830008191,-0.2620604509084832,3.986238033847322
803,1778472136,2.1146746333333333,0.8869853666666666,-0.197849084,0.8440121199999999,-0.3488040566666666,3.6385171
804,1778472136,1.6649586,0.9679311,-0.22502078,0.59864795,-0.8436049,1.863139
805,1778472136,1.4409139,0.9359596,-0.21477039,0.59864795,-0.8436049,1.863139
806,1778472136,1.304486,0.9340071,-0.25430766,0.2938262,-0.5015204,1.7519615
807,1778472136,1.35415228572032,0.98538180758784,-0.325451255626368,0.2938262,-0.5015204,1.7519615
808,1778472136,1.4038173,1.0367552,-0.39659303,0.2938262,-0.5015204,1.7519615
809,1778472136,1.4878529324401817,1.0915857642130593,-0.4281572346306789,0.1451848535114516,-0.3302774209175854,1.8144722998020275
810,1778472136,1.5718907162200908,1.1464177321065296,-0.4597222473153394,-0.0034602982442741,-0.1590300579587927,1.8769846999010136
811,1778472136,1.6559285,1.2012497,-0.49128726,-0.15210545,0.012217305,1.9394971
812,1778472137,1.9577053,1.3363353999999998,-0.463098645,-0.454483745,0.1997529375,1.93063955
813,1778472137,2.2594821,1.4714211,-0.43491003,-1.3487904,0.13194689,1.2864822
814,1778472137,2.3242182500000004,1.5105313,-0.4036706975,-1.375057675,-0.1090394425,1.0288497875
815,1778472137,2.3889544000000003,1.5496415,-0.372431365,-1.40132495,-0.350025775,0.771217375
816,1778472137,2.492434675,1.5915583,-0.37139411,-1.458746225,-0.3903428874999999,0.6803511875
817,1778472137,2.59591495,1.6334751,-0.370356855,-1.5161675,-0.43066,0.589485
818,1778472137,2.6281004244688,1.62554317347264,-0.269102312708448,-1.6294844504383998,-0.3617840608992639,0.5172492503942401
819,1778472137,2.6602858989376,1.61761124694528,-0.167847770416896,-1.7428014008767998,-0.292908121798528,0.44501350078848
820,1778472137,2.6924705494688,1.60967952347264,-0.066595820208448,-1.8561154504384,-0.2240339458992639,0.37277960039424
821,1778472137,2.7246552,1.6017478,0.03465613,-1.9694295,-0.15515977,0.3005457
822,1778472137,2.6497294499999997,1.5260899499999998,0.37462785,-2.189952,0.71593404,-0.48441613
823,1778472137,2.4871874,1.4006445,0.67750293,-1.9620992,0.93584555,-0.78984874
824,1778472137,2.271685,1.2176017,0.4275883,-0.9095783,1.106277,-1.5308284
825,1778472137,1.9631965,1.0225998,0.0026846298,1.0763446,0.4801401,-2.7537806
826,1778472137,1.6608096,0.8361401,-0.33411437,1.0763446,0.4801401,-2.7537806
827,1778472137,1.59894025808256,0.79208723613056,-0.384146750406272,1.19729744817664,0.3292544436883199,-2.94926000210432
828,1778472137,1.5370725,0.7480355,-0.43417785,1.3182472,0.17837265,-3.1447344
829,1778472137,1.43408166829952,0.680066385015808,-0.491774612752,0.94776216726912,0.44440106979264,-3.33471101826816
830,1778472137,1.3310882,0.61209553,-0.54937285,0.57726765,0.7104363,-3.5246925
831,1778472137,1.2804464,0.52984825,-0.496290415,0.57726765,0.7104363,-3.5246925
832,1778472137,1.1850809999999998,0.426734075,-0.3717602075,0.476474885,0.807258435,-3.5726454000000003
833,1778472137,1.0897156,0.3236199,-0.24723,0.37568212,0.90408057,-3.6205983
834,1778472137,1.073577115930048,0.2608963873368144,-0.1883351794534462,0.468992978113696,0.955050298654176,-3.762359020764
835,1778472137,1.057438631860096,0.1981728746736288,-0.1294403589068924,0.562303836227392,1.006020027308352,-3.904119741528
836,1778472137,1.041300560930048,0.1354509677118144,-0.0705470460484462,0.655612305613696,1.056988451154176,-4.045876833264
837,1778472137,1.02516249,0.0727290607499999,-0.01165373319,0.748920775,1.107956875,-4.187633925
838,1778472137,1.0599406,-0.17791773,-0.017328065,1.382388,0.8051204,-4.636467
839,1778472137,1.0660421,-0.26211748,-0.08078295,1.5552629,0.75991637,-4.8020115
840,1778472137,1.0400014516596523,-0.2852050590801641,-0.0985013235615323,1.581652009772057,0.750509139331275,-4.853384723931454
841,1778472137,1.0139608033193046,-0.3082926381603281,-0.1162196971230646,1.608041119544114,0.7411019086625502,-4.904757947862906
842,1778472137,0.987919488329826,-0.331380808290082,-0.1339385242807661,1.6344309048860286,0.7316944371656375,-4.956132486965727
843,1778472137,0.9618781733403478,-0.3544689784198359,-0.1516573514384676,1.660820690227943,0.722286965668725,-5.007507026068547
844,1778472137,0.935837525,-0.3775565575,-0.1693757249999999,1.6872098,0.712879735,-5.05888025
845,1778472137,0.9097968766596524,-0.400644136580164,-0.1870940985615323,1.713598909772057,0.7034725043312751,-5.110253473931453
846,1778472137,0.8837555616701739,-0.4237323067099179,-0.2048129257192338,1.7399886951139714,0.6940650328343625,-5.1616280130342735
847,1778472137,0.8577142466806955,-0.4468204768396719,-0.2225317528769353,1.766378480455886,0.6846575613374498,-5.213002552137094
848,1778472137,0.8316735983403478,-0.4699080559198359,-0.2402501264384676,1.792767590227943,0.675250330668725,-5.264375776068547
849,1778472137,0.80563295,-0.492995635,-0.2579685,1.8191567,0.6658431,-5.315749
850,1778472137,0.3129220591666666,-0.494215925,-0.3325483233333333,1.723352675,0.2241366341666666,-4.765003208333333
851,1778472137,-0.1797888316666666,-0.495436215,-0.4071281466666667,1.6275486499999998,-0.2175698316666666,-4.214257416666666
852,1778472137,-0.698369825,-0.449919525,-0.51044573,-0.3323107,-0.816116,-0.58276546
853,1778472137,-0.8920292,-0.49982923,-0.3653537,-0.3323107,-0.816116,-0.58276546
854,1778472137,-0.92461087,-0.529116095,-0.305681705,-0.3323107,-0.816116,-0.58276546
855,1778472137,-0.95719254,-0.55840296,-0.24600971,-0.3323107,-0.816116,-0.58276546
856,1778472137,-0.8965443200000001,-0.59989271,-0.1273978855,-0.7260133499999999,-0.7104363,0.07696902
857,1778472137,-0.8358961,-0.64138246,-0.008786061,-1.119716,-0.6047566,0.7367035
858,1778472137,-0.48567393,-0.7072779,0.23136626,-1.6688838,-0.44348818,3.3115005
859,1778472137,-0.38829383355072,-0.706301637504,0.284571426017408,-1.61970857056512,-0.484722097787392,2.76232562065152
860,1778472137,-0.29091623,-0.7053254,0.33777523,-1.5705346,-0.52595496,2.2131648
861,1778472137,0.5452239,-0.5418071,0.17206036,-1.600467,-0.3231477,3.8649445
862,1778472137,0.5206010265541694,-0.568436683902874,0.1821752616460559,-1.4045811884624706,-0.4146425251902925,3.956710771951053
863,1778472137,0.4959781531083387,-0.5950662678057481,0.1922901632921118,-1.2086953769249411,-0.506137350380585,4.048477043902106
864,1778472137,0.47135591,-0.6216951700000001,0.202404806,-1.01281458,-0.5976298333333333,4.140240966666667
865,1778472137,0.346603571850368,-0.6871830217447681,0.2880271320201984,-0.814591352289792,-0.766430090995712,4.26312521039488
866,1778472137,0.22184804,-0.75267255,0.37365165,-0.61636305,-0.93523467,4.3860126
867,1778472137,0.415448923059584,-0.7139889848567039,0.387258016659264,-0.4324902497082816,-0.8069513354943361,4.81347102139776
868,1778472137,0.60904485,-0.6753064099999999,0.400864035,-0.2486221565,-0.6786712850000001,5.2409185
869,1778472137,0.9977264997482678,-0.4586957374250207,0.2511917017738506,-0.1005237985776615,-0.3517282121220887,5.401539369813178
870,1778472137,1.386418099874134,-0.2420795195458436,0.1015155368869253,0.0475783507111692,-0.0247767693943777,5.562164351573256
871,1778472137,1.7751097,-0.0254633016666666,-0.048160628,0.1956805,0.3021746733333333,5.722789333333334
872,1778472137,1.783055065532013,0.1358029227328258,-0.079535277599563,0.1638479049749545,0.284731224408225,5.221409034055541
873,1778472137,1.7910004310640255,0.2970691471323184,-0.1109099271991261,0.1320153099499091,0.2672877754831167,4.720028734777748
874,1778472137,1.798946,0.4583395,-0.14228538,0.1001819,0.24984388,4.2186356
875,1778472137,1.6141946,0.56596875,-0.0026846298,0.23823744,-0.3811799,3.4910948
876,1778472137,1.68118825,0.6489482249999999,0.0255039841,0.35277468,-0.5488624,3.40587915
877,1778472137,1.7481819,0.7319277,0.053692598,0.46731192,-0.7165449,3.3206635
878,1778472137,1.8067559,0.8090498,0.020012695,0.7458665,-0.68661255,3.1563408
879,1778472137,1.7367105034304,0.861644780707136,-0.054547748111456,0.7458665,-0.68661255,3.1563408
880,1778472137,1.6666669,0.914238415,-0.1291062825,0.7458665,-0.68661255,3.1563408
881,1778472137,1.52950850564992,0.9748858645360426,-0.2362460431768426,0.76541389979008,-0.2934239787114667,2.48164873616896
882,1778472137,1.3923466,1.0355348666666666,-0.3433885466666666,0.7849618,0.0997746583333333,1.8069394
883,1778472137,1.55212551019183,1.116603961339284,-0.4261660321621141,0.6562706753662523,-0.146272485261946,1.701054276250352
884,1778472137,1.711900330095915,1.197670980669642,-0.508941398581057,0.5275828451831261,-0.392313330130973,1.595171863125176
885,1778472137,1.87167515,1.278738,-0.5917167649999999,0.398895015,-0.638354175,1.48928945
886,1778472137,1.9008321306631295,1.2830182792952087,-0.5657038480114246,0.304422795965213,-0.588696392292554,1.3841859941228092
887,1778472137,1.9299891113262595,1.2872985585904178,-0.5396909310228493,0.2099505769304259,-0.539038609585108,1.2790825382456184
888,1778472137,1.9591453455802383,1.2915787283118791,-0.5136786799564251,0.1154807763534899,-0.4893820981006276,1.173981772982458
889,1778472137,1.9883015798342176,1.2958588980333403,-0.4876664288900009,0.0210109757765539,-0.4397255866161472,1.0688810077192978
890,1778472137,2.017458560497347,1.3001391773285491,-0.4616535119014256,-0.0734612432582331,-0.3900678039087012,0.9637775518421068
891,1778472137,2.046615541160477,1.3044194566237584,-0.4356405949128503,-0.1679334622930202,-0.3404100212012552,0.858674095964916
892,1778472137,2.075771775414456,1.3086996263452195,-0.4096283438464261,-0.2624032628699562,-0.2907535097167748,0.7535733307017557
893,1778472137,2.104928009668435,1.3129797960666811,-0.3836160927800019,-0.3568730634468922,-0.2410969982322944,0.6484725654385954
894,1778472137,2.134084990331565,1.3172600753618902,-0.3576031757914266,-0.4513452824816792,-0.1914392155248484,0.5433691095614046
895,1778472137,2.1632419709946946,1.321540354657099,-0.3315902588028513,-0.5458175015164664,-0.1417814328174024,0.4382656536842137
896,1778472137,2.1923982052486735,1.3258205243785603,-0.305578007736427,-0.6402873020934023,-0.092124921332922,0.3331648884210534
897,1778472137,2.2215544395026523,1.330100694100022,-0.2795657566700029,-0.7347571026703383,-0.0424684098484416,0.2280641231578931
898,1778472137,2.250711420165782,1.3343809733952308,-0.2535528396814276,-0.8292293217051254,0.0071893728590043,0.1229606672807023
899,1778472137,2.2798684008289123,1.3386612526904396,-0.2275399226928522,-0.9237015407399124,0.0568471555664503,0.0178572114035114
900,1778472137,2.309024635082891,1.342941422411901,-0.201527671626428,-1.0181713413168485,0.1065036670509307,-0.0872435538596488
901,1778472137,2.33818086933687,1.3472215921333626,-0.1755154205600038,-1.1126411418937845,0.1561601785354111,-0.192344319122809
902,1778472137,2.3673378499999997,1.3515018714285714,-0.1495025035714285,-1.2071133609285716,0.2058179612428571,-0.2974477749999999
903,1778472137,1.962323754514579,1.1067780127186524,-0.1431104166240648,-0.6781822953110731,0.4349108789643217,-1.3243443088098508
904,1778472137,1.5573200272572896,0.8620604188593262,-0.1367184933120324,-0.1492647701555365,0.663997931982161,-2.351214554404925
905,1778472137,1.1523163,0.6173428249999999,-0.13032657,0.3796527549999999,0.893084985,-3.3780848
906,1778472137,1.2024701,0.49079913,-0.19378147,0.45631635,0.91751957,-3.4196236
907,1778472137,1.19539234690592,0.4184352300039359,-0.1510709015617216,0.48166757449152,0.986242782145856,-3.55661190342784
908,1778472137,1.188314775,0.3460731824999999,-0.1083614265,0.50701815,1.054964235,-3.6935967
909,1778472137,1.18123720309408,0.273711134996064,-0.0656519514382784,0.5323687255084799,1.123685687854144,-3.83058149657216
910,1778472137,1.17415945,0.2013472349999999,-0.022941383,0.55771995,1.1924089,-3.9675698
911,1778472137,1.18477606089088,-0.012693712189056,-0.0491778723227648,1.1007861261580798,1.23944615206912,-4.53843070692608
912,1778472138,1.1953924,-0.22672918,-0.07541369,1.6438384,1.2864822,-5.109277
913,1778472138,1.1365746,-0.3436326,-0.17230442,1.6438384,1.2864822,-5.109277
914,1778472138,1.047248882208076,-0.4099625026745913,-0.2268923569222105,1.772664221521828,1.19620912967966,-5.27108975856231
915,1778472138,0.9579231644161518,-0.4762924053491825,-0.2814802938444209,1.901490043043656,1.1059360593593202,-5.432902517124621
916,1778472138,0.8685997333333333,-0.5426206100000001,-0.3360668333333333,2.0303125666666664,1.0156653,-5.594711133333334
917,1778472138,0.690013145104256,-0.6071322542403841,-0.476641999781504,2.0017039995276797,0.710796534870144,-5.56045218018688
918,1778472138,0.511421985,-0.67164555,-0.617220765,1.9730947,0.405919965,-5.5261923500000005
919,1778472138,0.2511349,-0.6535853,-0.601113,1.8099937,0.08735373,-5.4177637
920,1778472138,0.009274175,-0.5708499,-0.56645685,1.8099937,0.08735373,-5.4177637
921,1778472138,-0.0606473274933119,-0.5346078639040001,-0.5421734558314241,1.373841512819456,-0.3546016278990079,-4.74276649007488
922,1778472138,-0.13057062,-0.4983649,-0.51788944,0.93767816,-0.7965683,-4.067752
923,1778472138,-0.17791773,-0.4846977,-0.47273886,0.93767816,-0.7965683,-4.067752
924,1778472138,-0.41660572,-0.5305804199999999,-0.37694644,0.70341134,-0.88972525,-3.692986
925,1778472138,-0.583172677915648,-0.527529749049088,-0.350161487851776,0.3740064679363328,-0.94118999124288,-3.0474623628083197
926,1778472138,-0.7497439,-0.524479,-0.32337585,0.044593163,-0.99265605,-2.4019222
927,1778472138,-0.9665887,-0.49055507,-0.247107965,-0.47678033,-1.1459832,-0.88636551
928,1778472138,-0.99697385,-0.50068344,-0.1391126305,-0.726471515,-1.27457035,-0.041844305
929,1778472138,-1.027359,-0.51081181,-0.0311172959999999,-0.9761627,-1.4031575,0.8026769
930,1778472138,-0.94614895,-0.5442476549999999,0.043625232,-1.0662653,-1.4569136,1.24005645
931,1778472138,-0.8649389,-0.5776835,0.11836776,-1.1563679,-1.5106697,1.677436
932,1778472138,-0.33094162,-0.6045298,0.22868164,-1.2534955,-1.5216653,2.3402247
933,1778472138,-0.003172744,-0.60843474,0.2997023,-1.4208726,-1.2986995,3.7415497
934,1778472138,0.331307725,-0.6666424,0.450041565,-1.4782939,-0.94989544,4.439769
935,1778472138,0.3956992489346088,-0.705082056028399,0.4558176819111335,-1.2361835013687523,-0.7975837805809518,4.643597711965491
936,1778472138,0.4600891244673044,-0.7435207280141996,0.4615936509555667,-0.9940793006843762,-0.6452760202904759,4.847421205982745
937,1778472138,0.524479,-0.7819594,0.46736962,-0.7519751,-0.49296826,5.0512447
938,1778472138,0.59916055,-0.8070973,0.41221267,-0.7519751,-0.49296826,5.0512447
939,1778472138,0.7167961,-0.8031924,0.3692586,-0.52412236,-0.5522222,5.2167892
940,1778472138,1.0186949,-0.7568215,0.26943922,-0.30848694,-0.6096435,5.384777
941,1778472138,1.0668547336172076,-0.7364295146943373,0.2113816983054977,-0.1933747460510348,-0.4975855835906975,5.469550108742647
942,1778472138,1.1150158001419372,-0.7160370073471686,0.1533226903194155,-0.078259605192184,-0.3855247984620154,5.554325387704657
943,1778472138,1.1631768666666666,-0.6956444999999999,0.0952636823333333,0.0368555356666666,-0.2734640133333333,5.639100666666667
944,1778472138,1.1815142244958927,-0.6381373321033373,0.093309397648634,0.0736273454377062,-0.2376917908851287,5.555769432563742
945,1778472138,1.1998515823251188,-0.5806301642066748,0.0913551129639348,0.1103991552087457,-0.2019195684369242,5.472438198460818
946,1778472138,1.218189409596714,-0.5231215241076699,0.0894007782489072,0.1471719063501649,-0.166146430208103,5.389104831050994
947,1778472138,1.2365272368683096,-0.4656128840086649,0.0874464435338797,0.1839446574915842,-0.1303732919792818,5.30577146364117
948,1778472138,1.2548645946975356,-0.4081057161120024,0.0854921588491804,0.2207164672626237,-0.0946010695310772,5.222440229538245
949,1778472138,1.2732019525267615,-0.3505985482153398,0.0835378741644811,0.2574882770336633,-0.0588288470828727,5.139108995435321
950,1778472138,1.291539779798357,-0.2930899081163349,0.0815835394494536,0.2942610281750825,-0.0230557088540515,5.055775628025497
951,1778472138,1.3098776070699525,-0.23558126801733,0.079629204734426,0.3310337793165017,0.0127174293747697,4.972442260615673
952,1778472138,1.3282149648991786,-0.1780741001206675,0.0776749200497268,0.3678055890875412,0.0484896518229742,4.889111026512749
953,1778472138,1.3465523227284046,-0.1205669322240049,0.0757206353650275,0.4045773988585808,0.0842618742711787,4.805779792409824
954,1778472138,1.36489015,-0.0630582921249999,0.0737663006499999,0.44135015,0.1200350125,4.722446425
955,1778472138,1.889003,0.98818773,-1.2202863,0.6047566,0.4886922,3.101363
956,1778472138,1.9395229,1.1153417,-1.2415192,0.6047566,0.4886922,3.101363
957,1778472138,2.1589303,1.3467078,-0.97500867,0.05681047,0.0421497,2.8661797
958,1778472138,2.2788844000000004,1.4054036,-0.889100535,0.05681047,0.0421497,2.8661797
959,1778472138,2.3988385,1.4640994,-0.8031924,0.05681047,0.0421497,2.8661797
960,1778472138,2.6446042666666667,1.5667661333333334,-0.7060983033333333,-0.4234314166666666,-0.5363396833333334,2.5537221666666663
961,1778472138,2.8903700333333333,1.669432866666667,-0.6090042066666667,-0.9036733033333334,-1.1148290666666667,2.241264633333333
962,1778472138,3.4070394,1.8216432,-0.39805737,-1.1808025,-1.3451253,1.7959439
963,1778472138,3.3882465,1.7821059,-0.4075756,-1.1808025,-1.3451253,1.7959439
964,1778472138,3.33943525,1.74171445,-0.40818575,-1.35612085,-0.86559606,0.99509952
965,1778472138,3.290624,1.701323,-0.4087959,-1.5314392,-0.38606682,0.19425514
966,1778472138,2.9530928,1.4824038,-0.29994637,-1.5314392,-0.38606682,0.19425514
967,1778472138,2.7923789928896,1.37465109578304,-0.1770009503187712,-1.52533044680896,-0.1797444498574655,-0.256721902432256
968,1778472138,2.6316693,1.26690115,-0.054058678,-1.51922185,0.0265726385,-0.7076874
969,1778472138,2.5377073,1.1829455,0.03172744,-1.4037683,0.023823744,-0.8979719
970,1778472138,2.4825501,1.121443,-0.0134231495,-0.8368854,-0.1863139,-1.251052
971,1778472138,2.49402104682624,1.1129008906624,-0.1034814174810752,-0.5784860925312,-0.188757391276288,-1.4153768533312
972,1778472138,2.5054917,1.104359,-0.19353738,-0.3200934,-0.19120082,-1.5796975
973,1778472138,2.452640646447304,1.05880243306425,-0.2198951201554767,-0.3185323233093832,0.0527338679058151,-1.8712788791696533
974,1778472138,2.3997882398903188,1.0132446998654585,-0.2462535350777383,-0.3169712066546916,0.2966748006195743,-2.16286772291816
975,1778472138,2.346935833333333,0.9676869666666666,-0.27261195,-0.31541009,0.5406157333333333,-2.4544565666666665
976,1778472138,1.9761316,0.73778504,-0.19060871,-0.47403142,0.915687,-2.7892108
977,1778472138,1.76136392406144,0.63577043330368,-0.0907905729385088,-0.3824028178611199,1.10199854018176,-3.03401186650624
978,1778472138,1.54659075,0.533753215,0.0090301195,-0.29077187,1.28831485,-3.2788192
979,1778472138,1.4216335,0.47151858,0.05662128,-0.19975294,1.2663237,-3.309057
980,1778472138,1.3706255,0.40733153,0.06272271,0.008552114,1.1942415,-3.3658676
981,1778472138,1.3750998236372325,0.3582768638770181,0.0675224224171928,0.2066726946988087,1.294625353426972,-3.538535886423525
982,1778472138,1.3795742618186164,0.309220941938509,0.0723222577085964,0.4047983473494044,1.395011776713486,-3.7112085932117624
983,1778472138,1.3840487,0.2601650199999999,0.077122093,0.602924,1.4953982,-3.8838813
984,1778472138,1.436582025,0.1552814225,0.0607702555,0.7690793375,1.644602025,-4.20748715
985,1778472138,1.48911535,0.050397825,0.044418418,0.935234675,1.79380585,-4.531093
986,1778472138,1.343840225,-0.1649216875,0.0240396383,1.0497718875,1.862986325,-4.767956
987,1778472138,1.1985651,-0.3802412,0.0036608586,1.1643091,1.9321668,-5.004819
988,1778472138,0.9232686,-0.62503064,-0.14765464,1.6719382,1.758681,-5.678603
989,1778472138,0.792942,-0.7214332,-0.24527754,2.0891593,1.2718215,-5.960212
990,1778472138,0.70923036,-0.77292925,-0.32606047,2.2241604,0.5717699,-6.0457335
991,1778472138,0.6411384,-0.80514485,-0.35363895,2.2241604,0.5717699,-6.0457335
992,1778472138,0.5201470175,-0.8279642150000001,-0.3203251425,1.968971425,0.479223795,-5.941733650000001
993,1778472138,0.399155635,-0.8507835800000001,-0.287011335,1.71378245,0.3866776899999999,-5.8377338000000005
994,1778472138,0.3089764775,-0.8396179400000001,-0.2689510925,1.2851077625,0.545808095,-5.6335521250000005
995,1778472138,0.21879732,-0.8284523,-0.25089085,0.856433075,0.7049385,-5.42937045
996,1778472138,-0.00976229,-0.8166155,-0.19378147,0.30848694,1.0005972,-5.119662
