id,timestamp,acc_x,acc_y,acc_z,gyro_x,gyro_y,gyro_z
0,1778471715,-0.0078098318,0.2638259,0.7043492,-0.02443461,-0.29932398,-1.006095
1,1778471715,0.0699233990726195,0.285181173344,0.75206301072896,-0.02443461,-0.29932398,-1.006095
2,1778471715,0.14765464,0.3065359,0.7997756,-0.02443461,-0.29932398,-1.006095
3,1778471715,0.3521746,0.3973252,1.0150341,-0.43004912,-0.40317106,-0.820392
4,1778471715,0.4139211,0.43002886,0.997828075,-0.66981371,-0.14110987,-0.91965765
5,1778471715,0.4756676,0.46273252,0.98062205,-0.9095783,0.12095132,-1.0189233
6,1778471715,0.446868825,0.45663109,0.967809025,-0.9095783,0.12095132,-1.0189233
7,1778471715,0.41807005,0.45052966,0.954996,-0.9095783,0.12095132,-1.0189233
8,1778471715,0.516913225,0.49238548,0.9957536,-0.6988298199999999,-0.89491759,-0.976468125
9,1778471715,0.6157564,0.5342413,1.0365112,-0.48808134,-1.9107865,-0.93401295
10,1778471715,0.7417211977706268,0.5958163121304716,1.1281537482349608,-0.3943552077678791,-2.095184461740702,-1.0423386090643858
11,1778471715,0.8676859955412537,0.6573913242609432,1.2197962964699216,-0.3006290755357581,-2.279582423481404,-1.1506642681287718
12,1778471715,0.9936540180519802,0.7189679127319024,1.3114411907841472,-0.2069005438839395,-2.463985105870351,-1.2589927003655264
13,1778471715,1.1196220405627066,0.7805445012028618,1.4030860850983726,-0.1131720122321208,-2.648387788259298,-1.3673211326022807
14,1778471715,1.2455868383333335,0.8421195133333333,1.4947286333333334,-0.0194458799999999,-2.83278575,-1.475646791666667
15,1778471715,1.2102507999107557,0.8582071002043964,1.535439027285162,0.2184124640446091,-3.1260451067987467,-1.6187723738450768
16,1778471715,1.174913856874015,0.874295098922955,1.5761504634364158,0.4562768973407683,-3.419311971133124,-1.7619016200852906
17,1778471715,1.1395769138372742,0.8903830976415136,1.6168618995876698,0.6941413306369275,-3.7125788354675016,-1.9050308663255044
18,1778471715,1.1042408754146964,0.9064706845125766,1.6575722935394983,0.9319996746815368,-4.005838192266249,-2.0481564485039145
19,1778471715,1.0689048369921184,0.9225582713836395,1.698282687491327,1.1698580187261458,-4.299097549064996,-2.191282030682325
20,1778471715,1.0335678939553778,0.938646270102198,1.738994123642581,1.407722452022305,-4.592364413399373,-2.3344112769225385
21,1778471715,0.9982309509186372,0.9547342688207568,1.779705559793835,1.645586885318464,-4.885631277733751,-2.4775405231627525
22,1778471715,0.9628949124960592,0.9708218556918198,1.8204159537456637,1.8834452293630732,-5.178890634532498,-2.6206661053411624
23,1778471715,0.9275588740734813,0.9869094425628828,1.861126347697492,2.1213035734076824,-5.472149991331245,-2.7637916875195727
24,1778471715,0.8922219310367406,1.0029974412814415,1.901837783848746,2.3591680067038414,-5.765416855665622,-2.9069209337597868
25,1778471715,0.856884988,1.01908544,1.94254922,2.5970324400000004,-6.058683719999999,-3.0500501800000004
26,1778471715,1.4285367857142857,1.7844768714285717,3.2955049857142855,2.065073528571429,-3.895313128571429,-2.3640484142857145
27,1778471715,1.1905112,1.0177187,4.8203745,3.6034942,-3.5937202,-2.519819
28,1778471715,1.133645885,0.451627935,4.40596535,5.5148916,-5.5136695,-1.7580702
29,1778471715,1.365991366484096,0.374199776432256,4.36301082518912,5.5148916,-5.5136695,-1.7580702
30,1778471715,1.5983309,0.2967736,4.3200574,5.5148916,-5.5136695,-1.7580702
31,1778471715,1.5578175,-0.011714748,3.8731883,5.5148916,-5.5136695,-1.7580702
32,1778471715,1.218699925,-0.4095280739999999,3.3274763999999997,7.1495673,-5.76901125,-3.0237830999999997
33,1778471715,0.87958235,-0.8073414,2.7817645,8.784243,-6.024353,-4.289496
34,1778471715,0.62600684,-0.9974619,2.5674822,8.784243,-6.024353,-4.289496
35,1778471715,0.26943922,-1.1285207,1.5141312,8.690169,-5.8154373,-4.491692
36,1778471715,0.2076512646409612,-1.14275756556288,1.3791251386112,8.498507496764159,-5.94596052900928,-4.5991038748544
37,1778471715,0.1458633092819225,-1.15699443112576,1.2441190772224,8.30684599352832,-6.07648375801856,-4.7065157497087995
38,1778471715,0.0840769356742946,-1.1712309322295469,1.1091164719445334,8.11518939676416,-6.207003645675947,-4.8139248748544
39,1778471715,0.0222905620666666,-1.1854674333333337,0.9741138666666668,7.923532799999999,-6.337523533333333,-4.921334
40,1778471715,-0.0847565737460889,-1.1736440879976335,0.8593788487181566,7.5930519965999075,-6.484403858918291,-4.9764481369679485
41,1778471715,-0.1918037095588445,-1.1618207426619336,0.7446438307696466,7.262571193199816,-6.631284184503248,-5.031562273935897
42,1778471716,-0.298848105,-1.1499977,0.62991175,6.93209885,-6.77816075,-5.086675
43,1778471716,-0.64187056,-1.0409042,0.856641,4.188092,-5.5955257,-4.3811255
44,1778471716,-0.47151858,-1.1251038,0.64357895,5.45747,-6.646825,-4.896085
45,1778471716,-0.6714015,-0.9851371,1.0644557,4.822781,-6.12117535,-4.6386052499999995
46,1778471716,-0.6861669699999999,-0.95725355,1.16836305,4.1331142000000005,-5.178457525,-4.146706075
47,1778471716,-0.70093244,-0.92937,1.2722704,3.4434474,-4.2357397,-3.6548069
48,1778471716,-0.480426715,-0.88617185,1.21211035,3.59280395,-3.2953126499999996,-2.81333985
49,1778471716,-0.3178824962106304,-0.918997987669184,0.928390158428032,3.76247392174784,-3.2307127731321597,-2.6337432011923205
50,1778471716,-0.1553424385,-0.951823285,0.64467723,3.93213955,-3.16611455,-2.4541511500000004
51,1778471716,-0.2615868740717564,-1.083449243554886,0.4318222631046011,3.965532963411783,-3.216204645118101,-2.451198717055501
52,1778471716,-0.3678340295358782,-1.215078571777443,0.2189618470523006,3.998927231705891,-3.2662960225590503,-2.4482462085277503
53,1778471716,-0.4740811849999999,-1.3467079,0.0061014309999999,4.0323215,-3.3163874,-2.4452937
54,1778471716,-0.6536462925,-1.4050376,-0.0538146245,3.98895005,-3.38663695,-2.47492065
55,1778471716,-0.8332114,-1.4633673,-0.11373068,3.9455786,-3.4568865,-2.5045476
56,1778471716,-1.0368772,-1.5357303,-0.20586229,3.65144695,-3.3551774,-1.8747455
57,1778471716,-1.240543,-1.6080933,-0.2979939,3.3573153,-3.2534683,-1.2449434
58,1778471716,-1.2014938,-1.7659983,-0.7464491,3.04882835,-2.8814514,-0.769690225
59,1778471716,-1.0697051492217633,-1.90291206330853,-0.9819196479178756,2.2378167947743797,-2.3381978383127966,-0.3862770136692324
60,1778471716,-0.9379131246108816,-2.039829331654265,-1.2173962239589378,1.4267844773871898,-1.7949303691563985,-0.0028539868346162
61,1778471716,-0.8061211,-2.1767466,-1.4528728,0.61575216,-1.2516629,0.38056904
62,1778471716,-1.1246158,-2.28315555,-0.953165585,0.61575216,-1.2516629,0.38056904
63,1778471716,-1.4431105,-2.3895645,-0.45345837,0.61575216,-1.2516629,0.38056904
64,1778471716,-1.1443844,-2.396154,-1.5270662,-3.1600058,0.3304781,0.73853606
65,1778471716,-1.45385293614656,-2.33141699637696,-0.56186844562688,-3.24384814816832,0.8798056938032,0.992964686644736
66,1778471716,-1.76331355,-2.26668165,0.4033045999999999,-3.32768835,1.429119225,1.2473868
67,1778471716,-1.7594087249824,-2.19316041608384,0.644857188087296,-2.89688118940224,2.41977728191456,1.87901331507712
68,1778471716,-1.7555038,-2.1196373,0.88641596,-2.466063,3.4104607,2.510656
69,1778471716,-1.5848323821480996,-2.087403881703241,0.7859990611087178,-2.698971451190016,3.682447561387264,2.854769547454171
70,1778471716,-1.4141653334285715,-2.0551712885714286,0.6855847328571428,-2.93187394,3.95442746,3.198874285714286
71,1778471716,-1.2434982847090432,-2.022938695439616,0.585170404605568,-3.164776428809984,4.226407358612736,3.5429790239744
72,1778471716,-1.0728268668571428,-1.990705277142857,0.4847535057142857,-3.39768488,4.49839422,3.887092571428571
73,1778471716,-0.9021554490052424,-1.9584718588460983,0.3843366068230034,-3.630593331190016,4.770381081387264,4.231206118882743
74,1778471716,-0.7314884002857143,-1.9262392657142855,0.2839222785714286,-3.86349582,5.04236098,4.575310857142858
75,1778471716,-0.560821351566186,-1.8940066725824731,0.1835079503198537,-4.096398308809984,5.314340878612736,4.919415595402972
76,1778471716,-0.3901499337142856,-1.8617732542857144,0.0830910514285714,-4.32930676,5.58632774,5.263529142857143
77,1778471716,-0.2194785158623852,-1.8295398359889552,-0.0173258474627108,-4.562215211190016,5.858314601387264,5.607642690311315
78,1778471716,-0.0488114671428571,-1.7973072428571428,-0.1177401757142857,-4.7951177,6.1302945,5.951747428571429
79,1778471716,2.23690665,-1.085322615,1.5796606,-6.0720005,1.275486655,7.573202
80,1778471716,2.4735203,-0.75535715,1.9404991,-4.5478916,-0.103847094,7.5179186
81,1778471716,2.4657104,-0.52399087,1.4594624,-4.0311,0.8258898,7.475158
82,1778471716,2.4671747208376353,-0.4349921027992012,1.3044059898316367,-4.433351234078866,1.3858448549890343,7.306153408857638
83,1778471716,2.4686390416752713,-0.3459933355984025,1.1493495796632731,-4.835602468157731,1.9457999099780692,7.137148817715276
84,1778471716,2.4701034,-0.25699229,0.9942892,-5.237864,2.5057693,6.9681399
85,1778471716,2.19675935,-0.21123155,0.87958228,-6.087883,2.9492574,6.439131
86,1778471716,2.049104625,-0.261324295,0.94559979,-6.6678995,2.68353105,6.0329055
87,1778471716,1.9014499,-0.31141704,1.0116173,-7.247916,2.4178047,5.62668
88,1778471716,1.7762486,-0.3380193,1.249085,-7.247916,2.4178047,5.62668
89,1778471716,1.6171232,-0.22135992,1.6837509,-7.247916,2.4178047,5.62668
90,1778471716,1.5326801872562656,-0.2068793135694232,1.7597334516072602,-7.403685337417973,1.7672387415672388,5.098693172211935
91,1778471716,1.448237174512531,-0.1923987071388464,1.8357160032145203,-7.559454674835946,1.1166727831344774,4.570706344423869
92,1778471716,1.363792,-0.17791773,1.9117005,-7.715228,0.46609017,4.042706
93,1778471716,1.38667261786816,0.1637057502245759,1.93153035381888,-7.37039026113344,0.342999249456384,4.04728765864448
94,1778471716,1.40955265,0.505320485,1.9513597,-7.02556135,0.21991148,4.0518692000000005
95,1778471716,1.5734371,0.8449261,1.9334215,-6.859406,0.08979719,4.065919
96,1778471716,1.8101726,1.5979647500000005,2.1668623,-6.859406,0.08979719,4.065919
97,1778471716,2.0469081,2.3510034,2.4003031,-6.859406,0.08979719,4.065919
98,1778471716,1.84409655,3.3827553999999997,3.5226002000000003,-5.31483295,-0.493579118,2.11451
99,1778471716,2.6104876150688003,4.0470708466534395,3.920835502522881,-4.31547021700672,-0.7872488174797312,1.85581188637824
100,1778471716,3.3768983,4.7114033,4.319081000000001,-3.3160819000000004,-1.080926035,1.59710715
101,1778471716,4.685189527884493,4.86955511575644,3.4342770662061497,-0.6910472999829337,-0.8928781473571301,1.174483007306954
102,1778471716,5.9934472639422465,5.02770288287822,2.5494957831030747,1.9339201000085329,-0.704835073678565,0.7518696836534768
103,1778471716,7.301705,5.18585065,1.6647145,4.5588875,-0.516792,0.32925636
104,1778471716,7.279129500000001,4.307671575,1.51400915,4.21130505,-1.0720685,-1.06107292
105,1778471716,7.256554,3.4294925,1.3633038,3.8637226,-1.627345,-2.4514022
106,1778471716,6.336221986933705,2.620002181072474,1.9895087063164003,3.682500813112376,-1.086326635082475,-3.8340838342990264
107,1778471716,5.415889973867409,1.810511862144948,2.6157136126328004,3.501279026224752,-0.5453082701649501,-5.2167654685980525
108,1778471716,4.4955344,1.00100082,3.24193455,3.3200526,-0.0042760549999999,-6.5994825
109,1778471716,4.0054611271424,0.577739112319488,3.30166833958272,4.30844520126336,0.209224085266816,-7.427062842892799
110,1778471716,3.5154004,0.15448824,3.3614006,5.2968125,0.42271876,-8.254622
111,1778471716,2.4925568,-0.6936107,2.2943823,5.2968125,0.42271876,-8.254622
112,1778471716,2.0228685250000003,-1.08904445,1.3885637725000002,6.84841025,-0.8068002199999998,-8.249276875
113,1778471716,1.55318025,-1.4844782,0.482745245,8.400008,-2.0363192,-8.24393175
114,1778471716,1.426392575,-1.46379435,0.3332601775,8.4632325,-2.4478896,-8.234310625
115,1778471716,1.2996049,-1.4431105,0.18377511,8.526457,-2.85946,-8.2246895
116,1778471716,1.3260851,-1.3262071,0.147410578,8.21797,-2.9434541,-8.11992575
117,1778471716,1.3525653,-1.2093037,0.111046046,7.909483,-3.0274482,-8.015162
118,1778471716,1.3744084,-1.12815465,0.1573559155,6.3734625000000005,-3.1358767999999997,-7.91498065
119,1778471716,1.3962515,-1.0470056,0.203665785,4.837442,-3.2443054,-7.8147993
120,1778471716,1.33975225,-1.013081635,0.367123115,3.9962805,-2.9840766999999997,-7.875580299999999
121,1778471716,1.283253,-0.97915767,0.530580445,3.155119,-2.723848,-7.9363613
122,1778471716,1.311653708340397,-0.9558323911339772,0.5942108704623367,3.0924381502149454,-2.6632259841970973,-7.901712073865871
123,1778471716,1.3400544166807942,-0.9325071122679548,0.6578412959246733,3.029757300429891,-2.602603968394195,-7.867062847731741
124,1778471716,1.3684558520886312,-0.9091812362671496,0.7214733503467525,2.967074845994542,-2.541980400647823,-7.83241273456607
125,1778471716,1.3968572874964682,-0.8858553602663447,0.7851054047688316,2.904392391559194,-2.4813568329014513,-7.797762621400397
126,1778471716,1.4252579958368652,-0.8625300814003221,0.8487358302311683,2.841711541774139,-2.4207348170985488,-7.763113395266269
127,1778471716,1.4536587041772624,-0.8392048025342994,0.9123662556935048,2.779030691989085,-2.3601128012956463,-7.72846416913214
128,1778471716,1.4820601395850994,-0.8158789265334945,0.975998310115584,2.7163482375537367,-2.2994892335492745,-7.693814055966468
129,1778471716,1.5104615749929364,-0.7925530505326894,1.0396303645376632,2.653665783118388,-2.2388656658029027,-7.659163942800796
130,1778471716,1.5388622833333334,-0.7692277716666668,1.10326079,2.5909849333333335,-2.17824365,-7.624514716666667
131,1778471716,1.18794865,-0.95499598,0.61050922,3.6532797,-2.5170703000000003,-7.62146015
132,1778471716,0.8161274,-1.1141213,0.366574,3.6884043,-3.1086931,-7.433619
133,1778471716,0.2582664289709695,-1.31095599445184,0.2344763171713024,3.48712157361408,-3.36831422310784,-6.87222666427008
134,1778471716,-0.299580261,-1.50778565,0.1023820159999999,3.285844,-3.6279287,-6.3108487
135,1778471716,-0.6489482,-1.6151708,0.009518232,3.2198708,-4.012774,-5.607132
136,1778471716,-0.6672525,-1.7769808,-0.11665936,3.2198708,-4.012774,-5.607132
137,1778471716,-0.601844347786368,-2.22629595116032,-0.399403324076416,3.04241212855808,-3.82706847299968,-4.8682810428288
138,1778471716,-0.53643787,-2.6755996,-0.68214005,2.864958,-3.6413677,-4.129449
139,1778471716,-0.4502856,-2.204569,-0.5252112,0.8594874,-1.8600847,-2.3866506
140,1778471716,-0.53643787,-2.6755996,-0.68214005,0.8594874,-1.8600847,-2.3866506
141,1778471716,-0.668718578171392,-3.1230843277312,-0.6252739471232,0.8594874,-1.8600847,-2.3866506
142,1778471717,-0.8009959,-3.5705576,-0.5684093,0.8594874,-1.8600847,-2.3866506
143,1778471717,-0.98177898594688,-3.83572225584896,0.0685719615354879,-1.030810903872,-0.921196820418688,-1.7008103788672
144,1778471717,-1.1625667,-4.1008937,0.70556953,-2.9211576,0.017715095,-1.0149526
145,1778471717,-1.6529999,-4.2568464,1.457998,-3.6822958,0.44409904,-0.6597345
146,1778471717,-2.404208,-4.0762444,1.9758875,-3.6822958,0.44409904,-0.6597345
147,1778471717,-1.9456912440896,-3.63237088165376,1.418650915219584,-2.047183134710016,1.225843813538816,0.7823471411187201
148,1778471717,-1.48716275,-3.188486,0.861400065,-0.41202861,2.0076086,2.2244657
149,1778471717,-1.24038722881376,-3.0174301855136,0.3066203226601919,-0.134005011343488,2.90276673287744,2.97973394230976
150,1778471717,-0.993618025,-2.8463787500000004,-0.2481452175000001,0.14401147,3.79790195,3.73498285
151,1778471717,-0.7468488211862401,-2.6753273144864003,-0.8029107576601922,0.422027951343488,4.69303716712256,4.49023175769024
152,1778471717,-0.5000733,-2.5042715,-1.3576905,0.70005155,5.5881953,5.2455
153,1778471717,1.7030315,-1.5702643,-1.4306635,-3.83165225,6.71890685,9.1501505
154,1778471717,2.510617,-1.1421879,-0.4677356650000001,-5.050481125,5.934555775,9.99222825
155,1778471717,3.3182025,-0.7141115,0.49519217,-6.26931,5.1502047,10.834306
156,1778471717,3.195196550362665,-0.4571170270085674,0.8854430434314947,-6.322455686837389,4.298651366837901,10.622334191197051
157,1778471717,3.07219060072533,-0.2001225540171348,1.2756939168629895,-6.37560137367478,3.4470980336758026,10.4103623823941
158,1778471717,2.9491878,0.05686534,1.6659348,-6.4287457,2.5955665,10.198396
159,1778471717,2.7871337,0.20769271,1.6695957,-3.4238997,1.2962561,8.774468
160,1778471717,2.654169958468714,0.2462053376975931,1.393791900471909,-3.1668449677932347,1.3632076055746416,8.638243605080051
161,1778471717,2.5212062169374287,0.2847179653951862,1.1179881009438184,-2.909790235586469,1.4301591111492833,8.502019210160103
162,1778471717,2.3882458792343573,0.3232296071821299,0.8421913619026212,-2.6527420838966176,1.4971089027873206,8.365798302540027
163,1778471717,2.255285541531286,0.3617412489690736,0.5663946228614242,-2.3956939322067656,1.564058694425358,8.22957739491995
164,1778471717,2.1223218,0.4002538766666667,0.2905908233333333,-2.1386392,1.6310101999999995,8.093353
165,1778471717,1.504857,0.25845662,0.10884953,-3.9144244,1.1582005,6.7867126
166,1778471717,1.8648415,0.45248213,0.0012202862,-5.275432,0.788627,6.2998533
167,1778471717,1.504857,0.25845662,0.10884953,-5.275432,0.788627,6.2998533
168,1778471717,1.42871115,0.108727505,0.749011675,-5.275432,0.788627,6.2998533
169,1778471717,1.450041968424785,0.252478690993303,0.8362630334424744,-5.6076850022271945,0.7403681588357918,6.186231176524348
170,1778471717,1.4713722407876075,0.3962261970033485,0.9235121582787628,-5.939929498886403,0.6921105530821041,6.072611961737826
171,1778471717,1.4927025131504303,0.539973703013394,1.0107612831150512,-6.272173995545612,0.6438529473284164,5.958992746951304
172,1778471717,1.514033331575215,0.683724889006697,1.0980126415575258,-6.604426997772806,0.5955941061642082,5.8453706234756515
173,1778471717,1.53536415,0.827476075,1.185264,-6.93668,0.547335265,5.7317485
174,1778471717,1.5273555466768307,0.8934114609033399,1.2255194345693412,-6.936781887729618,0.53946197847054,5.585685517448985
175,1778471717,1.5193469433536615,0.95934684680668,1.265774869138682,-6.936883775459236,0.53158869194108,5.439622534897969
176,1778471717,1.5113381350076232,1.0252839206775048,1.3060313342603391,-6.936985665797214,0.523715203852905,5.293555813086739
177,1778471717,1.5033293266615846,1.09122099454833,1.3462877993819962,-6.937087556135191,0.5158417157647299,5.147489091275507
178,1778471717,1.4953207233384154,1.15715638045167,1.3865432339513373,-6.937189443864809,0.50796842923527,5.001426108724493
179,1778471717,1.4873121200152462,1.2230917663550098,1.4267986685206782,-6.937291331594428,0.50009514270581,4.8553631261734775
180,1778471717,1.4793033116692078,1.289028840225835,1.4670551336423352,-6.937393221932405,0.492221654617635,4.709296404362246
181,1778471717,1.4712945033231692,1.35496591409666,1.5073115987639922,-6.9374951122703825,0.4843481665294599,4.5632296825510155
182,1778471717,1.4632859,1.4209013,1.5475670333333331,-6.937597,0.47647488,4.4171667
183,1778471717,2.4770591250000003,4.45239745,3.52296645,-2.542421235,-0.990976162,3.4211508
184,1778471717,5.2189202125000005,5.341284325,2.320069225,0.1895208324999999,-0.1004109709999999,1.747685525
185,1778471717,7.960781300000001,6.2301712,1.117172,2.9214629,0.79015422,0.0742202499999997
186,1778471717,6.90822315,4.9052456,1.12418865,3.89686195,-0.8736899900000002,-3.881590375
187,1778471717,5.855665,3.58032,1.1312053,4.872261,-2.5375342,-7.837401
188,1778471717,4.071972875,2.0700936624999997,0.9629888625,5.11446925,-2.43674145,-8.34503
189,1778471717,2.28828075,0.559867325,0.7947724249999999,5.3566775,-2.3359487,-8.852659
190,1778471717,1.5853959,-0.073217176,0.46297657,4.9596148,-1.527774,-8.321817
191,1778471717,1.48094068704384,-0.2269712699224063,0.584881624595328,4.72107495334912,-1.2709084379212798,-8.0573158856576
192,1778471717,1.3764828,-0.3807293,0.7067898,4.482529,-1.0140363,-7.792808
193,1778471717,1.6068729,-0.48640612,0.9952655,3.4929276,-0.050701816,-6.6242228
194,1778471717,1.7357352,-0.5513253,1.0587204,3.5753944,-0.21319197,-6.351166
195,1778471717,1.735003,-0.65041256,1.0904478,3.5753944,-0.21319197,-6.351166
196,1778471717,1.2556745,-0.90838104,1.0064921,3.8148534,-0.6731735,-6.6022315
197,1778471717,1.4294434,-0.85908157,1.0201592,3.8148534,-0.6731735,-6.6022315
198,1778471717,1.13669665,-0.88812435,1.0122275,3.8008037,-1.8723019,-7.27174
199,1778471717,1.1254295589608152,-0.8456591080827389,0.9512548739461378,3.8008037,-1.8723019,-7.27174
200,1778471717,1.1141621794804075,-0.8031927790413694,0.890280686973069,3.8008037,-1.8723019,-7.27174
201,1778471717,1.1028948,-0.76072645,0.8293065,3.8008037,-1.8723019,-7.27174
202,1778471717,1.121199,-0.7668279,0.8829991,3.037833,-0.5510005,-7.05305
203,1778471717,1.20271415,-0.65175488,0.793430125,2.1997259,0.8503244,-6.6077294
204,1778471717,1.261043825,-0.6064212400000001,0.7889150625,2.1997259,0.8503244,-6.6077294
205,1778471717,1.3193735,-0.5610876,0.7844,2.1997259,0.8503244,-6.6077294
206,1778471717,1.40125465,-0.57865975,0.726558425,2.4672848,0.4486805124999999,-6.8279464
207,1778471717,1.4831358,-0.5962319,0.66871685,2.7348437,0.047036625,-7.0481634
208,1778471717,1.4451439091400142,-0.6102246194030105,0.6468328565923133,2.8281032624714135,-0.1252288466465423,-7.0939786576185275
209,1778471717,1.4071520182800286,-0.6242173388060211,0.6249488631846264,2.9213628249428267,-0.2974943182930846,-7.139793915237055
210,1778471717,1.3691611,-0.6382097,0.60306543,3.01462,-0.46975538,-7.185608
211,1778471717,0.976559395366144,-0.747912015792384,0.467412021385856,3.2379902241578664,-1.2484967853157547,-7.0480632605952005
212,1778471717,0.58394764,-0.85761714,0.33175514,3.461366166666666,-2.0272581266666667,-6.910515
213,1778471717,0.469401968834176,-0.944380630558464,0.365150732458112,3.5699997738257068,-2.248801399050923,-6.941160392256
214,1778471717,0.35485923,-1.0311419,0.39854547,3.6786306,-2.470339,-6.971805
215,1778471717,-0.46614933,-1.5014402,0.1181237,3.7879753,-3.2491922,-4.760473
216,1778471717,-0.814297015,-1.82420595,-0.146312315,3.6807685,-2.9746083,-3.97551105
217,1778471717,-1.1624447,-2.1469717,-0.41074833,3.5735617,-2.7000244,-3.1905491
218,1778471717,-0.7608484499999999,-2.4184854,-1.2727585499999998,2.3341162,-2.1917844,-1.3231341
219,1778471717,-0.3961049,-2.4527755,-1.3381659,-0.3463606,-1.6670512,-0.5919284
220,1778471717,-0.6364220006796771,-2.738812990822012,-0.8332884956012945,-1.457737550295252,-1.0539409015257537,-0.8425889056089361
221,1778471717,-0.8767391013593543,-3.024850481644025,-0.328411091202589,-2.569114500590504,-0.4408306030515068,-1.093249411217872
222,1778471717,-1.11705005,-3.3108806499999996,0.1764533885,-3.680463,0.172264,-1.3439035
223,1778471717,-2.4928007,-4.2570906,1.5258459,-4.0732493,0.6261369,-1.4636332
224,1778471717,-1.9541665,-4.071119,0.9554841,-3.3750305,1.2999213,-0.86009824
225,1778471717,-2.9411337,-4.2827163,1.9383026,-2.3561072,1.5259414,-0.20097467
226,1778471717,-2.5838772266031143,-4.059909597694835,1.689415573510774,-2.396538434228862,1.8294772392532208,0.5103477245904436
227,1778471717,-2.226620753206229,-3.837102895389671,1.4405285470215476,-2.436969668457724,2.133013078506441,1.2216701191808874
228,1778471717,-1.8693551339265573,-3.6142904891599175,1.191635148942887,-2.477401937739431,2.4365566883766103,1.9330107238577217
229,1778471717,-1.5120895146468851,-3.391478082930164,0.9427417508642264,-2.5178342070211377,2.7401002982467797,2.644351328534556
230,1778471717,-1.15483304125,-3.168671380625,0.693854724375,-2.55826544125,3.0436361375000005,3.355673723125
231,1778471717,-0.7975765678531144,-2.9458646783198357,0.4449676978857738,-2.598696675478862,3.347171976753221,4.066996117715443
232,1778471717,-0.4403109485734426,-2.723052272090082,0.196074299807113,-2.639128944760569,3.6507155866233902,4.778336722392278
233,1778471717,-0.0830453292937708,-2.5002398658603284,-0.0528190982715476,-2.679561214042276,3.95425919649356,5.489677327069112
234,1778471717,0.2742111441031147,-2.2774331635551643,-0.3017061247607738,-2.719992448271138,4.25779503574678,6.200999721659556
235,1778471717,0.6314676175,-2.05462646125,-0.55059315125,-2.7604236825,4.561330875,6.9123221162499995
236,1778471717,1.74554330875,-1.024994686775,0.311783124375,-4.30075859125,3.1606167875000004,8.076440558124999
237,1778471717,2.859619,0.0046370877,1.1741594,-5.8410935,1.7599027,9.240559
238,1778471717,2.657539525,0.07815933385,1.144628475,-5.26199315,1.74218765,8.693681625
239,1778471717,2.45546005,0.1516815799999999,1.11509755,-4.6828928,1.7244726,8.146804249999999
240,1778471717,2.28327544189856,0.1651964221544319,0.947468755212224,-4.4738724579072,1.57328151477888,7.77501161194848
241,1778471717,2.11109083379712,0.1787112643088639,0.779839960424448,-4.2648521158144,1.42209042955776,7.403218973896959
242,1778471718,1.9389106335652264,0.1922257604877653,0.6122154568788908,-4.055837124573866,1.27090321477888,7.031435853615147
243,1778471718,1.7667304333333331,0.2057402566666666,0.4445909533333333,-3.846822133333333,1.1197160000000002,6.659652733333334
244,1778471718,1.691620851109653,0.1748056059165386,0.4949487470715094,-4.306376819724694,0.7974040969604481,6.407667699632854
245,1778471718,1.6165112688859733,0.1438709551664106,0.5453065408096853,-4.765931506116053,0.475092193920896,6.155682665932374
246,1778471718,1.5414036094429868,0.1129370963332053,0.5956630454048427,-5.2254744280580265,0.1527885419604479,5.903704082966186
247,1778471718,1.46629595,0.0820032374999999,0.64601955,-5.68501735,-0.16951511,5.6517254999999995
248,1778471718,1.32596305,0.034900187675,0.7997145999999999,-5.757557524999999,-0.162642875,5.61476825
249,1778471718,1.1856301500000002,-0.01220286215,0.95340965,-5.8300977,-0.15577064,5.577811
250,1778471718,1.4001546027012384,0.2381163891483803,1.1041950632813369,-5.9382199940112805,-0.2224561876093764,5.5785235605860715
251,1778471718,1.6146790554024766,0.4884356404467607,1.2549804765626733,-6.046342288022562,-0.2891417352187529,5.579236121172143
252,1778471718,1.829209,0.7387613,1.40576975,-6.15446735,-0.3558289899999999,5.5799487
253,1778471718,1.76721855,1.4169964,1.67606315,-5.78947525,-0.400422155,5.2485542
254,1778471718,1.65635695654656,1.55629026701568,1.75614341245952,-5.570253743571199,-0.272829314459264,4.88173434535424
255,1778471718,1.54549536309312,1.69558413403136,1.83622367491904,-5.3510322371424,-0.145236473918528,4.51491449070848
256,1778471718,1.43463093154656,1.83488156701568,1.91630598745952,-5.1318051185712,-0.017640366959264,4.14808524535424
257,1778471718,1.3237665,1.974179,1.9963883,-4.912578,0.10995574,3.781256
258,1778471718,1.6469796466666666,3.8029814,3.0804093,-4.0386336,-0.1612684233333333,3.5900551000000003
259,1778471718,1.4609268,4.0474453,3.649632,-2.2907448,-0.70371675,3.2076533
260,1778471718,2.9103827,5.0917664,3.3182025,2.3084598,0.8026769,3.2314773
261,1778471718,5.931689349999999,5.94486835,0.7202129399999999,2.3084598,0.8026769,3.2314773
262,1778471718,6.404871762125064,6.001123086620103,0.4297872949972266,2.885722507295178,1.029102367811276,3.036612929530579
263,1778471718,6.87805417425013,6.0573778232402065,0.1393616499944533,3.462985214590356,1.255527835622552,2.841748559061158
264,1778471718,7.3512487,6.113634,-0.15107143,4.0402627,1.4819591,2.6468792
265,1778471718,6.90144534259072,5.5275229978752005,0.075538615571456,4.06469766276352,0.7073720454126081,1.06441249468544
266,1778471718,6.4516535,4.941427,0.30214286,4.089132,-0.06719518,-0.5180137
267,1778471718,4.1675215,3.205448,1.0389518,3.4116824,-1.387275,-4.5185704
268,1778471718,2.2753458,1.1448725,0.75999427,4.133725,-0.13744467,-6.8655143
269,1778471718,1.82701255,0.5668229300000001,0.6833602750000001,4.161519500000001,-0.0733038239999999,-6.758002149999999
270,1778471718,1.728657475,0.18737494,0.6117294875000001,4.38311075,0.0803287829999999,-6.526789575
271,1778471718,1.6303024,-0.19207305,0.5400987,4.604702,0.23396139,-6.295577
272,1778471718,1.61151,-0.0046370877,0.6889736,4.450764,0.27000242,-6.2735863
273,1778471718,1.60967952657024,-0.1987260956575027,0.46657359081632,4.6109655505536,-0.0129845156864128,-6.41255985383872
274,1778471718,1.6078491,-0.392810135,0.2441792749999999,4.771163,-0.295964207,-6.55152985
275,1778471718,1.4406699,-0.5791479,0.040513504,4.7836857,-0.5112942,-6.6474357
276,1778471718,1.12107695,-0.764753415,0.09994144,4.7067165,-1.0396926,-6.850243
277,1778471718,1.114273763867635,-0.7557314883408912,0.153820603589418,4.5108412285403094,-1.1935911489558677,-6.8808699708402274
278,1778471718,1.107470751894606,-0.7467097926401486,0.207698387889903,4.314970971423385,-1.3474857581593112,-6.9114961576400376
279,1778471718,1.1006677399215767,-0.737688096939406,0.261576172190388,4.11910071430646,-1.5013803673627546,-6.942122344439848
280,1778471718,1.0938645537892118,-0.7286661702802971,0.315455335779806,3.9232254428467694,-1.6552789163186226,-6.972749315280076
281,1778471718,1.0870613676568468,-0.7196442436211883,0.3693344993692239,3.727350171387079,-1.8091774652744903,-7.003376286120304
282,1778471718,1.0802583556838177,-0.7106225479204455,0.423212283669709,3.5314799142701547,-1.9630720744779335,-7.034002472920114
283,1778471718,1.0734553437107883,-0.7016008522197029,0.477090067970194,3.33560965715323,-2.116966683681377,-7.064628659719924
284,1778471718,1.0666521575784234,-0.6925789255605941,0.530969231559612,3.1397343856935396,-2.270865232637245,-7.095255630560152
285,1778471718,1.0598489714460586,-0.6835569989014852,0.58484839514903,2.9438591142338493,-2.424763781593113,-7.12588260140038
286,1778471718,1.0530459594730293,-0.6745353032007426,0.6387261794495149,2.7479888571169244,-2.5786583907965563,-7.15650878820019
287,1778471718,1.0462429475,-0.6655136075,0.69260396375,2.5521186,-2.732553,-7.187134975
288,1778471718,1.1498757,-0.43600825,0.738151175,1.29198,-1.1148291,-6.496552
289,1778471718,1.20954848880192,-0.416300392742656,0.755174365394048,1.38361097286144,-1.24021075486464,-6.505409613376
290,1778471718,1.26921975,-0.39659304,0.77219712,1.4752396,-1.3655892,-6.514267
291,1778471718,1.0149977771105403,-0.5376557258326792,0.757553929913643,1.9673849506118375,-1.4709616849532376,-6.4128650972812915
292,1778471718,0.7607692960552702,-0.6787220229163395,0.7429103649568215,2.4595429003059186,-1.5763368674766187,-6.311460598640646
293,1778471718,0.506540815,-0.81978832,0.7282668,2.95170085,-1.68171205,-6.2100561
294,1778471718,0.1402718975,-1.22956036,0.323009753,3.234531425,-1.7229454750000002,-6.086661250000001
295,1778471718,-0.22599702,-1.6393324,-0.082247294,3.517362,-1.7641789,-5.9632664
296,1778471718,-0.524543848850496,-1.91447999684416,-0.4715235656724992,3.74315592762528,-1.83992714456512,-5.64698687667392
297,1778471718,-0.8230906777009919,-2.18962759368832,-0.8607998373449983,3.96894985525056,-1.91567538913024,-5.33070735334784
298,1778471718,-1.1216298638504958,-2.46476814684416,-1.2500661436724991,4.1947380026252805,-1.9914216945651195,-5.01443592667392
299,1778471718,-1.42016905,-2.7399087,-1.63933245,4.420526150000001,-2.0671679999999997,-4.6981645
300,1778471718,-1.6676859287836638,-3.051287723733658,-1.3865683597740384,2.1980777020159916,-1.594557883778629,-3.356896621327269
301,1778471718,-1.9152028075673275,-3.3626667474673173,-1.1338042695480766,-0.0243707459680173,-1.1219477675572582,-2.0156287426545383
302,1778471718,-2.16271335,-3.6740378,-0.88104665,-2.2467623,-0.64934975,-0.6743952
303,1778471718,-2.4464299,-4.2191395499999995,0.933152875,-2.2467623,-0.64934975,-0.6743952
304,1778471718,-2.530060880308564,-4.186150885166996,1.2430675612381388,-2.206241287558453,-0.1867171989194285,-0.0519181882641568
305,1778471718,-2.613691860617128,-4.153162220333993,1.5529822474762776,-2.165720275116906,0.2759153521611429,0.5705588234716864
306,1778471718,-2.6973207,-4.1201744,1.862889,-2.1252003,0.73853606,1.1930199
307,1778471718,-2.3978624,-4.0013185,1.2402989,-2.1252003,0.73853606,1.1930199
308,1778471718,-1.0132037,-3.2640215,-0.1465563799999999,1.2483031,3.17222335,4.3869287
309,1778471718,-0.5856487631558108,-2.8946752299043412,-0.4630633549832318,1.3198773548516474,3.8081449529231057,4.893853684742335
310,1778471718,-0.1581047715779054,-2.5253384149521705,-0.7795622274916159,1.3914497774258237,4.444050276461553,5.400765692371167
311,1778471718,0.26943922,-2.1560016,-1.0960611,1.4630222,5.0799556,5.9076777
312,1778471718,-0.09200958,-2.4998784,-1.2251674,-1.2046263,7.104974,7.378641
313,1778471718,1.80480335,-1.37428635,-0.4429638765,-2.924212,6.3224554,9.478185
314,1778471718,2.509884675,-0.954019775,-0.08676232825,-3.1538972999999997,4.9400673,9.92656
315,1778471718,3.214966,-0.5337532,0.26943922,-3.3835826,3.5576792,10.374935
316,1778471718,3.1262512,-0.23258655775,0.531739745,-2.7855454500000003,2.21560825,9.476047
317,1778471718,3.0375364,0.0685800845,0.79404027,-2.1875083,0.8735373,8.577159
318,1778471718,2.661505225,0.12947237225,0.7412018725,-1.749518,1.0311405,8.144972000000001
319,1778471718,2.28547405,0.19036466,0.6883634750000001,-1.3115277,1.1887437,7.712785
320,1778471718,1.9810127,0.15204766,0.38316986,-1.3115277,1.1887437,7.712785
321,1778471718,1.7708794,0.05027579,0.033191785,-2.629164,2.2449298,7.600996
322,1778471718,1.6742326,-0.012446919,-0.009518232,-2.629164,2.2449298,7.600996
323,1778471718,1.6984550399488,-0.0331305057467008,0.0624777334398463,-3.7195445429504,2.08625955600512,7.62145991305856
324,1778471718,1.7226781,-0.053814622,0.134475542,-4.809953,1.92758525,7.64192435
325,1778471718,1.8877856511328048,-0.0572314823136696,0.2567909854901823,-5.317794333714491,1.5281743834751291,7.579614969933525
326,1778471718,2.0528889755664026,-0.0606482551568348,0.3791032977450912,-5.825622666857245,1.1287737417375647,7.517307184966763
327,1778471718,2.2179923,-0.064065028,0.50141561,-6.333451,0.7293731,7.4549994
328,1778471718,2.1511204,-0.19988288,0.77195305,-6.333451,0.7293731,7.4549994
329,1778471718,1.5038807,-0.36950266,1.3005811,-7.839234,0.88270026,5.8905735
330,1778471718,1.5008347827165822,-0.2574848564835932,1.3827038235986726,-7.632755998787756,0.8567110217227996,5.8811170983512255
331,1778471718,1.497788865433164,-0.1454670529671864,1.4648265471973454,-7.426277997575511,0.8307217834455991,5.871660696702451
332,1778471718,1.4947428701732657,-0.0334463817583031,1.5469513731646525,-7.219794710458776,0.8047318798353825,5.862204052966694
333,1778471718,1.4916968749133672,0.0785742894505801,1.6290761991319596,-7.013311423342041,0.7787419762251659,5.852747409230939
334,1778471718,1.4886509576299494,0.1905920929669869,1.7111989227306323,-6.806833422129796,0.7527527379479655,5.843291007582164
335,1778471718,1.4856050403465313,0.3026098964833937,1.793321646329305,-6.600355420917552,0.726763499670765,5.833834605933389
336,1778471718,1.4825590450866328,0.414630567692277,1.875446472296612,-6.393872133800817,0.7007735960605483,5.824377962197633
337,1778471718,1.4795130498267344,0.5266512389011603,1.957571298263919,-6.187388846684081,0.6747836924503318,5.814921318461877
338,1778471718,1.4764671325433163,0.6386690424175671,2.0396940218625916,-5.980910845471837,0.6487944541731313,5.8054649168131025
339,1778471718,1.4734212152598984,0.7506868459339738,2.1218167454612646,-5.774432844259593,0.6228052158959309,5.796008515164327
340,1778471718,1.47037522,0.8627075171428571,2.2039415714285715,-5.567949557142858,0.5968153122857143,5.786551871428571
341,1778471718,2.1228099499999997,3.48562565,3.1577347500000004,-1.60871362,2.3628267000000003,4.5255952
342,1778471719,5.5105685,5.26760935,1.326451135,3.6969564,0.50762904,2.2547035
343,1778471719,6.5847864000000005,5.6615181,0.157783008,3.33165895,-0.55894172,-0.4697554
344,1778471719,6.651373934873025,5.655375914254019,0.1363464644105027,3.1687601766149265,-0.6446672115148309,-0.9525466864329112
345,1778471719,6.717961469746049,5.6492337285080385,0.1149099208210055,3.005861403229853,-0.7303927030296617,-1.4353379728658224
346,1778471719,6.7845473,5.6430917,0.093473926,2.8429668,-0.816116,-1.9181169
347,1778471719,5.319472,3.8360918,0.99038434,2.8429668,-0.816116,-1.9181169
348,1778471719,3.5343149,1.99858475,1.07556035,3.1465669,0.1337794899999999,-6.38415275
349,1778471719,3.22710401775104,1.60808822670848,0.989773106937344,3.71681674910464,-0.277032643328,-6.80382259670528
350,1778471719,2.919901,1.2176017,0.90398806,4.287052,-0.68783426,-7.2234817
351,1778471719,2.59860371265792,0.79917085598336,0.828209249981184,4.579958250752,-0.856736368025344,-7.43728176332416
352,1778471719,2.2772982,0.3807293,0.7524285,4.872872,-1.0256428,-7.6510873
353,1778471719,1.4119932,-0.51764543,0.71032864,5.03475125,-1.1420126,-7.493178650000001
354,1778471719,1.34350552665344,-0.603857553970688,0.6423900746247679,5.054909554470401,-1.32778962202368,-7.43064203797888
355,1778471719,1.27501785330688,-0.690069677941376,0.574451509249536,5.0750678589408,-1.51356664404736,-7.36810542595776
356,1778471719,1.20652842665344,-0.7762840089706879,0.506511204624768,5.0952266794704,-1.69934842202368,-7.30556721297888
357,1778471719,1.138039,-0.86249834,0.4385709,5.1153855,-1.8851302,-7.243029
358,1778471719,0.8659151,-0.916679,0.24625377,5.1153855,-1.8851302,-7.243029
359,1778471719,0.8561529,-0.84565836,0.31654227,3.5521815,-2.6957483,-7.1471233
360,1778471719,0.8831211999999999,-0.7505980800000001,0.520818185,3.5521815,-2.6957483,-7.1471233
361,1778471719,0.9100895,-0.6555378,0.7250941,3.5521815,-2.6957483,-7.1471233
362,1778471719,1.0132037,-0.58500523,0.8614000799999999,2.8286116000000003,-2.56288515,-7.02678295
363,1778471719,1.1163179,-0.51447266,0.99770606,2.1050417,-2.430022,-6.9064426
364,1778471719,1.21113415,-0.47823018,1.03834158,1.8096883,-2.1071797,-6.82214305
365,1778471719,1.3059504,-0.4419877,1.0789771,1.5143349,-1.7843374,-6.7378435
366,1778471719,1.3789234,-0.39830142,1.0577441,1.3897184,-1.427592,-6.7073
367,1778471719,1.4472382422254932,-0.3874003337023573,0.975233473649536,1.4415903776968535,-1.2149627216896,-6.702260531172693
368,1778471719,1.5155548333333333,-0.3764989683333333,0.892720735,1.4934636833333337,-1.002328,-6.697220933333333
369,1778471719,1.5838714244411731,-0.3655976029643093,0.810207996350464,1.5453369889698134,-0.7896932783104,-6.692181335493974
370,1778471719,1.652186266666667,-0.3546965166666667,0.72769737,1.597208966666667,-0.577064,-6.687141866666667
371,1778471719,1.5047571954496,-0.5018204876224001,0.623832004493696,1.79706115019264,-1.05256561350144,-6.97516107164032
372,1778471719,1.35732435,-0.648948225,0.51996398,1.99691845,-1.5280794,-7.26318765
373,1778471719,0.6724997500000001,-0.935593475,0.48103686,2.20247455,-1.75990275,-6.97852445
374,1778471719,0.339486475082987,-1.0706779972639884,0.4271820129005777,2.402327661231621,-1.7619389826239258,-6.604678156862536
375,1778471719,0.006473200165974,-1.2057625195279766,0.3733271658011554,2.6021807724632424,-1.7639752152478518,-6.230831863725072
376,1778471719,-0.3265486,-1.3408505,0.31947094,2.802039,-1.7660115,-5.856976
377,1778471719,-0.51593703,-1.458242,0.15107143,2.802039,-1.7660115,-5.856976
378,1778471719,-0.794894455,-2.0527655,-1.04688355,2.430022,-1.6255124,-2.8038714
379,1778471719,-0.790379460292672,-2.16942335676032,-1.2935612674848,2.91229392684032,-1.65239015596032,-3.4070929786649597
380,1778471719,-0.78586435,-2.2860842,-1.5402453,3.3945782,-1.6792686,-4.01033
381,1778471719,-0.96109737,-2.7823746,-1.7491582499999998,1.286482235,-1.46546575,-2.4199425999999997
382,1778471719,-1.204544485,-2.95901105,-1.559281725,0.1734857375,-1.235169525,-2.08870095
383,1778471719,-1.4479916,-3.1356475,-1.3694052,-0.93951076,-1.0048733,-1.7574593
384,1778471719,-1.526365381985839,-3.1901135558058584,-1.186533060736959,-0.9610864243688614,-0.7462537762721938,-1.3282876322926382
385,1778471719,-1.604739163971678,-3.244579611611717,-1.003660921473918,-0.9826620887377226,-0.4876342525443876,-0.8991159645852764
386,1778471719,-1.6831109396143793,-3.299044273104394,-0.8207934636777193,-1.004237200776646,-0.2290213493916454,-0.4699552835319787
387,1778471719,-1.7614827152570809,-3.353508934597071,-0.6379260058815207,-1.0258123128155694,0.0295915537610967,-0.0407946024786809
388,1778471719,-1.8398564972429197,-3.4079749904029293,-0.4550538666184796,-1.0473879771844308,0.2882110774889029,0.3883770652286809
389,1778471719,-1.9182302792287584,-3.4624410462087876,-0.2721817273554385,-1.068963641553292,0.5468306012167091,0.8175487329360427
390,1778471719,-1.99660205487146,-3.516905707701465,-0.0893142695592398,-1.0905387535922153,0.8054435043694513,1.2467094139893404
391,1778471719,-2.0749738305141614,-3.571370369194142,0.0935531882369588,-1.112113865631139,1.0640564075221934,1.6758700950426382
392,1778471719,-2.1533476125,-3.625836425,0.2764253275,-1.13368953,1.32267593125,2.10504176275
393,1778471719,-0.27822527,-2.7446678,-0.8876362,-1.1765264,5.4067683,6.7030244
394,1778471719,-1.0423685,-2.946747,-0.85322416,-1.1765264,5.4067683,6.7030244
395,1778471719,0.71118283,-2.4835265,-0.50885934,-3.5973854,6.3169575,9.360899
396,1778471719,2.784693,-1.5277983,0.19915071,-4.442823,3.2388074,11.972959
397,1778471719,3.7577496,-0.9725681,0.46248847,-4.442823,3.2388074,11.837957
398,1778471719,3.9802077,-0.47298293,0.62802031,-3.8117992,1.9566013,11.4216525
399,1778471719,4.2026658,0.02660224,0.79355215,-3.1807754,0.6743952,11.005348
400,1778471719,4.1191983,0.40635532,0.8576172,-1.8967366,-0.15027285,9.200241
401,1778471719,3.61631191313664,0.507640376432128,0.7197230699777281,-1.57908258408064,0.0171063724266239,8.43176281360512
402,1778471719,3.1134384,0.60892284,0.58183247,-1.2614367,0.18448131,7.6633043
403,1778471719,2.90879894441856,0.574389177036544,0.504345284348672,-1.37704147024,0.354146950752,7.51746219180288
404,1778471719,2.70415425,0.53985463,0.426856115,-1.4926492,0.523816935,7.37161635
405,1778471719,2.4995095555814397,0.505320082963456,0.349366945651328,-1.60825692976,0.693486919248,7.22577050819712
406,1778471719,2.2948701,0.47078642,0.27187976,-1.7238617,0.86315256,7.0799284
407,1778471719,1.76441185,0.35827604,0.266754565,-2.48897035,1.00365158,7.0173147
408,1778471719,1.5138872,0.1398448,0.58842206,-3.254079,1.1441506,6.954701
409,1778471719,1.3642801,0.052472305,0.71899265,-5.2430563,1.1618657,6.358496
410,1778471719,1.1687901,-0.02831064,0.8820229,-5.2430563,1.1618657,6.358496
411,1778471719,0.91204196,-0.07541369,1.2075952,-6.0078597,1.3414601,6.042068
412,1778471719,0.91570276,0.033923957,1.3428029,-6.232658,1.3029755,6.0048056
413,1778471719,1.2202862,0.593913315,1.49216595,-6.056423499999999,1.08428578,6.07933095
414,1778471719,1.381608,0.9230245,1.547811,-5.0885077,0.35918877,5.919895
415,1778471719,1.42590388300544,1.7085126956224002,1.74988786338304,-4.2177303460928,0.34697162638144,4.97856384919296
416,1778471719,1.4702009,2.494021,1.9519699,-3.3469307,0.33475417,4.0372086
417,1778471719,1.5766098,1.7674625,1.6525116,-4.2491784,0.31581733,5.031086
418,1778471719,1.4848443,2.3548473249999997,1.936472275,-3.2714887,0.3011565674999999,4.351803975
419,1778471719,1.3930788,2.9422321499999997,2.22043295,-2.293799,0.286495805,3.67252195
420,1778471719,1.3159567,3.3904433,2.488896,-3.3469307,0.33475417,4.0372086
421,1778471719,2.1794312,4.25465,2.0351934,-1.2406673,0.23823744,3.3078353
422,1778471719,3.6701329,4.988286,-0.3192269,2.2925773,-0.08735373,2.9767463
423,1778471719,4.27600495,5.2115985,-1.64543395,3.4251215,-2.470339,0.21380283
424,1778471719,4.578940975,5.323254749999999,-2.308537475,3.4251215,-2.470339,0.21380283
425,1778471719,4.881877,5.434911,-2.971641,3.4251215,-2.470339,0.21380283
426,1778471719,5.289941,4.656124,-1.7201155,3.4251215,-2.470339,0.21380283
427,1778471719,4.920926,4.180701,-0.21525851,-1.9181169,-2.2944098,-2.8619037
428,1778471719,4.436757333333333,3.62990425,0.9323393116666666,-1.72447261,-1.9528343283333336,-3.3192381333333336
429,1778471719,3.952588666666667,3.079107500000001,2.0799371333333334,-1.53082832,-1.6112588566666666,-3.7765725666666663
430,1778471719,3.194994208333333,2.336034575,1.8874573916666668,0.66614849,-0.6773477283333333,-4.942917983333333
431,1778471719,2.43739975,1.59296165,1.69497765,2.8631253,0.2565634,-6.1092634
432,1778471719,2.318583552781428,1.3411330844237463,1.3996251563576476,3.0824278380243713,0.2577851437587466,-6.145304640881319
433,1778471719,2.199767355562856,1.089304518847493,1.104272662715295,3.3017303760487424,0.2590068875174932,-6.181345881762637
434,1778471719,2.0809542,0.8374824000000001,0.80892773,3.5210273,0.2602286,-6.2173862
435,1778471719,2.0262057088159895,0.7128846003151822,0.778138121133587,3.483293013278239,0.131990337968107,-6.364762328430629
436,1778471719,1.9714558160526647,0.5882836108858638,0.7473477240430978,3.4455577605463734,0.0037487929946844,-6.512142229738438
437,1778471719,1.91670592328934,0.4636826214565452,0.7165573269526087,3.4078225078145072,-0.1244927519787381,-6.659522131046248
438,1778471719,1.8619574321053296,0.3390848217717274,0.6857677180861956,3.3700882210927463,-0.252731014010631,-6.806898259476877
439,1778471719,1.8072089409213197,0.2144870220869095,0.6549781092197827,3.332353934370986,-0.3809692760425239,-6.954274387907505
440,1778471719,1.7524590481579947,0.089886032657591,0.6241877121292935,3.2946186816391196,-0.5092108210159465,-7.101654289215315
441,1778471719,1.69770915539467,-0.0347149567717274,0.5933973150388043,3.256883428907254,-0.6374523659893692,-7.249034190523124
442,1778471720,1.6429606642106598,-0.1593127564565452,0.5626077061723913,3.219149142185493,-0.7656906280212621,-7.396410318953753
443,1778471720,1.5882121730266494,-0.2839105561413631,0.5318180973059784,3.181414855463732,-0.893928890053155,-7.543786447384382
444,1778471720,1.5334622802633249,-0.4085115455706816,0.5010277002154891,3.143679602731866,-1.0221704350265777,-7.691166348692191
445,1778471720,1.4787123875,-0.533112535,0.470237303125,3.10594435,-1.15041198,-7.83854625
446,1778471720,1.4955828,-0.56767714,0.6299118,2.2974641,-2.0500638,-7.4134607
447,1778471720,1.6952217,-0.49079913,0.5779276,2.0274618,-1.9908098,-7.4268994
448,1778471720,1.8538588,-0.422219,0.5357057,2.0274618,-1.9908098,-7.4268994
449,1778471720,1.9343990412025225,-0.406843147588811,0.5104860029226791,1.7580656023637435,-1.8920515478807376,-7.581654574454504
450,1778471720,2.0149372206012615,-0.3914676887944055,0.4852669514613396,1.4886763011818718,-1.793295823940369,-7.736405787227252
451,1778471720,2.0954754,-0.37609223,0.4600479,1.219287,-1.6945401,-7.891157
452,1778471720,1.7933327,-0.6372335,0.5447358,0.7623598,-1.35551,-8.178264
453,1778471720,0.89861877,-0.924976945,0.7809831700000001,1.0946705,-1.0183123,-7.3401566
454,1778471720,0.751452235,-0.9980720725,0.802460205,1.28159525,-1.0720685,-7.20026855
455,1778471720,0.6042857,-1.0711672,0.82393724,1.46852,-1.1258247,-7.0603805
456,1778471720,0.19329333,-1.3144923,0.66944903,3.101363,-1.7311921,-5.9015694
457,1778471720,0.04759116,-1.4099188,0.4510178,3.101363,-1.7311921,-5.9015694
458,1778471720,-0.36547572,-1.82359585,-0.287743505,3.4342844,-1.9474384,-5.488624
459,1778471720,-0.5877673861736696,-2.210094603670171,-0.5638488910744274,3.3681084960832166,-2.084066268187869,-5.099509640970065
460,1778471720,-0.8100647430868348,-2.5966032518350857,-0.8399613455372137,3.301930898041608,-2.2206976340939346,-4.710385320485033
461,1778471720,-1.0323621,-2.9831119,-1.1160738,3.2357533,-2.357329,-4.321261
462,1778471720,-0.9652464,-2.7246552,-1.1507299,0.5497787,-1.7195857,-2.0207422
463,1778471720,-1.1099724,-3.163958,-0.78586435,1.5784758,-2.1056526,-2.7458394
464,1778471720,-1.10557935,-3.32039865,-0.39305420362,0.56566122,-1.6444493,-2.0693061
465,1778471720,-1.1011863,-3.4768393,-0.00024405724,-0.44715336,-1.183246,-1.3927728
466,1778471720,-1.3501246999999998,-3.853358575,0.47694888138,-1.1792753299999998,0.1957822999999997,-0.85032444
467,1778471720,-1.5990631,-4.22987785,0.95414182,-1.9113973,1.5748106,-0.30787608
468,1778471720,-2.85363935,-4.6132922,1.31192975,-1.55923355,1.6209308999999998,-0.1395827065
469,1778471720,-2.48956230237344,-4.32798558562208,0.853706394816128,-0.98883082393856,2.22271726526688,0.8662197817320608
470,1778471720,-2.125494575,-4.042686274999999,0.39549477,-0.4184426999999999,2.824488225,1.87199652175
471,1778471720,-1.76142684762656,-3.75738696437792,-0.062716854816128,0.1519454239385601,3.42625918473312,2.8777732617679392
472,1778471720,-1.3973498,-3.4720803499999997,-0.52094021,0.72234815,4.02804555,3.88357575
473,1778471720,-1.09062692399744,-3.20465125195136,-0.994844420896256,-0.109508257625728,5.72108024556672,5.543165117472
474,1778471720,-0.7839119,-2.9372290000000003,-1.4687365,-0.94134337,7.4140716,7.202712
475,1778471720,-0.25137895,-2.7173333,-1.692781,-3.8588357,8.3407545,9.822103
476,1778471720,1.7640458,-1.9819889,-1.1685461,-3.8588357,8.3407545,9.822103
477,1778471720,3.1903164,-1.4211453,-0.76853627,-6.8526864,4.128838,13.043195
478,1778471720,3.92724715,-0.934617214,-0.1165983475,-6.3383379,1.30602985,11.5603195
479,1778471720,4.6641779,-0.448089128,0.535339575,-5.8239894,-1.5167783,10.077444
480,1778471720,4.081404960401236,-0.1817390375083199,0.9311224606373946,-4.780418978313053,-1.2108340459757825,9.143524863992049
481,1778471720,3.4986320208024715,0.0846110529833601,1.326905346274789,-3.736848556626105,-0.9048897919515648,8.209605727984094
482,1778471720,2.915874,0.350954325,1.7226781,-2.6933048499999996,-0.59895337,7.2757105
483,1778471720,1.9954121,0.24259291,0.96780898,-1.9669861,0.37323865,7.0997813
484,1778471720,1.7813739,0.136428,0.35290676,-2.0231857,0.57543504,7.1868296
485,1778471720,1.7699029708986491,0.1274384049128742,0.2879050789855103,-2.531434273997969,0.544687635251009,7.104361425894511
486,1778471720,1.7584323354493243,0.1184490399564371,0.2229050619927551,-3.0396698369989843,0.5139410176255046,7.021895362947255
487,1778471720,1.7469617,0.109459675,0.157905045,-3.5479054,0.4831944,6.9394293
488,1778471720,1.7201155,0.011226633,0.122272685,-3.5479054,0.4831944,6.9394293
489,1778471720,1.6940669306130869,0.0518413184957766,0.2634323546342232,-3.7908289115134006,0.4846682516895773,6.88870751496968
490,1778471720,1.668019028061014,0.092454964268913,0.4045884106271584,-4.0337462042645065,0.4861420656490343,6.837987028400437
491,1778471720,1.6419711255089415,0.1330686100420493,0.5457444666200936,-4.276663497015613,0.4876158796084912,6.787266541831194
492,1778471720,1.615922556122028,0.173683295537826,0.6869041362543168,-4.5195870085290135,0.4890897312980685,6.736544756800874
493,1778471720,1.5898739867351148,0.2142979810336026,0.82806380588854,-4.762510520042414,0.4905635829876458,6.685822971770555
494,1778471720,1.5638260841830425,0.254911626806739,0.9692198618814752,-5.005427812793521,0.4920373969471028,6.635102485201311
495,1778471720,1.5377781816309697,0.2955252725798754,1.1103759178744104,-5.248345105544627,0.4935112109065597,6.584381998632068
496,1778471720,1.5117296122440564,0.336139958075652,1.2515355875086336,-5.491268617058028,0.494985062596137,6.533660213601748
497,1778471720,1.485681042857143,0.3767546435714285,1.3926952571428568,-5.734192128571428,0.4964589142857143,6.482938428571429
498,1778471720,1.4599682112713144,1.0307150618780707,1.8648528241629256,-5.256348887900343,0.4031940745195154,6.083939428681143
499,1778471720,1.4342553796854858,1.684675480184713,2.3370103911829943,-4.778505647229257,0.3099292347533166,5.684940428790857
500,1778471720,1.4085418898427429,2.3386526400923566,2.809180045591497,-4.3006501736146285,0.2166620073766582,5.285931214395429
501,1778471720,1.3828284,2.9926298,3.2813497,-3.8227947,0.12339478,4.886922
502,1778471720,2.99092165,4.642213,2.18480055,-1.7085901,0.4092797,4.0732493
503,1778471720,4.10496781502656,5.00859926019584,1.171487780569472,0.35824604415872,0.2177759042799616,2.2467856790335996
504,1778471720,5.2190425000000005,5.3749949,0.15814907,2.4251351,0.026267206,0.4202753
505,1778471720,5.93352,5.5959888,-0.4385709,3.1881058,1.9712621,3.128852
506,1778471720,5.4283215,4.51188625,0.7069118400000001,2.4251351,0.026267206,0.4202753
507,1778471720,5.054676193628187,4.101226275353278,0.9538935447916168,2.022174510615421,0.2689801783122504,-1.6199797792009425
508,1778471720,4.681021321814094,3.6905557876766393,1.2008815723958084,1.6192036053077106,0.5116993641561253,-3.6602870896004713
509,1778471720,4.30736645,3.2798853,1.4478696,1.2162327,0.75441855,-5.7005944
510,1778471720,3.7211409,2.6277645,1.7120615,1.2162327,0.75441855,-5.7005944
511,1778471720,3.0043447,1.6222485,1.6432374,1.2162327,0.75441855,-5.7005944
512,1778471720,2.5079324,0.8459024,1.3545178,2.6816983,0.7458665,-6.4146957
513,1778471720,2.0732663,0.11519502,1.1251038,2.6816983,0.7458665,-6.4146957
514,1778471720,2.5079324,0.8459024,1.3545178,4.65968,0.12461651,-7.334659
515,1778471720,2.0732663,0.11519502,1.1251038,4.65968,0.12461651,-7.334659
516,1778471720,1.4431105,-0.77829856,1.0623811,4.65968,0.12461651,-7.334659
517,1778471720,1.2507933,-0.9835507,1.0082005,5.713423,-0.5039638,-7.797084
518,1778471720,0.94816245,-1.1986872,0.669937135,5.713423,-0.5039638,-7.797084
519,1778471720,0.9596304479994132,-1.1577547464421118,0.661982495570688,5.554574575994186,-0.6162534022580266,-7.760801615462133
520,1778471720,0.9710987395833331,-1.116821245,0.6540276525,5.395722085416667,-0.7285458791666666,-7.724518302083333
521,1778471720,0.9825670311672532,-1.075887743557888,0.646072809429312,5.236869594839146,-0.8408383560753065,-7.688234988704533
522,1778471720,0.9940350291666666,-1.03495529,0.6381181699999999,5.078021170833333,-0.9531279583333332,-7.651952604166667
523,1778471720,1.00550302716608,-0.994022836442112,0.630163530570688,4.9191727468275195,-1.0654175605913598,-7.6156702196288
524,1778471720,1.01697131875,-0.953089335,0.6222086874999999,4.76032025625,-1.1777100374999998,-7.57938690625
525,1778471720,1.02843961033392,-0.912155833557888,0.614253844429312,4.60146776567248,-1.2900025144086398,-7.5431035928712
526,1778471720,1.0399076083333332,-0.87122338,0.606299205,4.442619341666666,-1.4022921166666664,-7.506821208333333
527,1778471720,1.0513756063327466,-0.830290926442112,0.5983445655706879,4.283770917660853,-1.514581718924693,-7.470538823795467
528,1778471720,1.0628438979166666,-0.789357425,0.5903897225,4.124918427083333,-1.6268741958333333,-7.434255510416667
529,1778471720,1.0743121895005867,-0.748423923557888,0.5824348794293119,3.9660659365058137,-1.7391666727419732,-7.397972197037866
530,1778471720,1.0857801875,-0.70749147,0.57448024,3.8072175125,-1.851456275,-7.3616898125
531,1778471720,1.15663216183312,-0.597560334636544,0.545941175304704,3.1004555279192,-1.37731630656928,-7.06962354474608
532,1778471720,1.2274859500000002,-0.487626385,0.51740138,2.39367545,-0.9031642,-6.7775498
533,1778471720,1.13492604024832,-0.5199643814210559,0.3028112927820416,2.5726612409888,-1.44088523274112,-6.84718941637568
534,1778471720,1.0423685,-0.5523015499999999,0.088226699,2.7516424500000003,-1.9785925,-6.91682725
535,1778471720,0.80441266,-0.66822875,-0.029530926,2.6407704,-2.574186,-6.9369855
536,1778471720,-0.050397822,-1.050666435,-0.0181822655,2.5069909,-2.6618453,-6.71676875
537,1778471720,-0.2712114423781632,-1.167693365425536,-0.0522897043196288,2.4401002938112,-2.70567551101952,-6.6066589656128
538,1778471720,-0.49201941,-1.2847173,-0.08639627,2.3732114,-2.7495046,-6.496552
539,1778471720,-0.592283126986783,-1.452778147278468,-0.1002204549421071,2.0601145804936185,-2.5240889421755344,-6.048474182060393
540,1778471720,-0.6925494107575757,-1.620843296969697,-0.1140449937878787,1.7470097456060607,-2.2986675136363637,-5.600384893181818
541,1778471720,-0.7928156945283684,-1.7889084466609262,-0.1278695326336504,1.433904910718503,-2.0732460850971925,-5.1522956043032435
542,1778471721,-0.8930794115151515,-1.956969293939394,-0.1416937175757575,1.1208080912121214,-1.8478304272727273,-4.704217786363636
543,1778471721,-0.9933431285019344,-2.125030141217862,-0.1555179025178647,0.8077112717057399,-1.6224147694482618,-4.256139968424029
544,1778471721,-1.0936094122727271,-2.293095290909091,-0.1693424413636363,0.494606436818182,-1.3969933409090909,-3.8080506795454543
545,1778471721,-1.19387569604352,-2.46116044060032,-0.183166980209408,0.1815016019306242,-1.17157191236992,-3.3599613906668804
546,1778471721,-1.2941394130303028,-2.629221287878788,-0.1969911651515151,-0.1315952175757573,-0.9461562545454546,-2.9118835727272727
547,1778471721,-1.3944031300170858,-2.797282135157256,-0.2108153500936223,-0.4446920370821389,-0.7207405967209891,-2.4638057547876655
548,1778471721,-1.4946694137878789,-2.965347284848485,-0.2246398889393939,-0.7577968719696967,-0.4953191681818182,-2.015716465909091
549,1778471721,-1.5949356975586713,-3.1334124345397143,-0.2384644277851656,-1.0709017068572546,-0.2698977396426473,-1.5676271770305163
550,1778471721,-1.6951994145454543,-3.3014732818181822,-0.2522886127272727,-1.3839985263636363,-0.0444820818181818,-1.1195493590909091
551,1778471721,-1.88399985,-3.4515794499999997,-0.02147704,0.057421334,0.829555,2.3170118
552,1778471721,-1.771550525,-3.436142975,-0.47517947,0.003665192,2.831055,4.5741589000000005
553,1778471721,-1.6591012,-3.4207065,-0.9288819,-0.05009095,4.832555,6.831306
554,1778471721,-0.6626154,-3.1012354,-1.3037539,-0.05009095,4.832555,6.831306
555,1778471721,0.5417051959987372,-2.675159421789774,-0.9090793525318293,-1.6193770171749666,4.170591964313752,8.600748801122982
556,1778471721,1.7460566229993688,-2.249072535894887,-0.5143947012659146,-3.1887032585874833,3.508611982156876,10.37023690056149
557,1778471721,2.95040805,-1.82298565,-0.1197100499999999,-4.7580295,2.846632,12.139725
558,1778471721,3.708327825,-0.97506974,0.6161835750000001,-3.99780765,1.9596557,11.1473745
559,1778471721,4.4662476,-0.12715383,1.3520772,-3.2375858,1.0726794,10.155024
560,1778471721,3.9573883,0.0821252699999999,1.43652095,-3.2375858,1.0726794,10.155024
561,1778471721,3.448529,0.29140437,1.5209647,-3.2375858,1.0726794,10.155024
562,1778471721,2.3905408,0.21965154,0.69507504,0.91813046,-0.08979719,7.520362
563,1778471721,2.147704,0.19329333,0.34509695,0.91813046,-0.08979719,7.520362
564,1778471721,2.0179875000000003,0.1786499,0.1616879275,0.5009095,0.078801615,7.5197511
565,1778471721,1.888271,0.16400647,-0.021721095,0.08368854,0.24740042,7.5191402
566,1778471721,2.0447116,0.42514774,-0.06833603,-1.1111639,0.66889745,7.6865172
567,1778471721,1.9358622,0.3333822,-0.08127106,-1.1111639,0.66889745,7.6865172
568,1778471721,2.14611745,0.522038445,0.2279494825,-2.4019221,0.9776898,7.65811215
569,1778471721,2.02463638256224,0.540190432342464,0.442722594685648,-3.04639319912448,1.19676415411584,7.38864071330976
570,1778471721,1.903158425,0.558341955,0.65749020875,-3.6908478,1.4158329,7.119176175
571,1778471721,1.78168046743776,0.5764934776575359,0.872257822814352,-4.335302400875521,1.63490164588416,6.84971163669024
572,1778471721,1.6601994,0.5946454649999999,1.087030935,-4.9797735,1.853976,6.5802402
573,1778471721,1.55299582781184,0.959454701998464,1.232490929364096,-5.1016428099072,2.0467064669184,6.39636754646016
574,1778471721,1.445795,1.3242546,1.3779472,-5.223509,2.239432,6.2124996
575,1778471721,1.5209647,1.3242546,1.3779472,-4.811175,2.0885482,6.0365705
576,1778471721,1.5881415,1.6616637499999998,1.39442105,-4.5005498500000005,1.87902145,5.77847975
577,1778471721,1.6553182999999998,1.9990729,1.4108949,-4.1899247,1.6694947,5.520389
578,1778471721,1.6788697,3.1524875,1.6473864,-4.1899247,1.6694947,5.520389
579,1778471721,1.6281880483112603,3.411997304309315,1.7637183645757244,-3.6937069855573945,1.6969831641908728,4.943029420396286
580,1778471721,1.5775050991556303,3.6715137521546577,1.8800533072878625,-3.197476567778698,1.7244723320954365,4.365655060198143
581,1778471721,1.52682215,3.9310302,1.99638825,-2.70124615,1.7519615,3.7882807
582,1778471721,2.2803424698776316,4.444400194186642,1.4103304535905432,-1.23126240235521,1.9520690590603051,2.9257972674528316
583,1778471721,3.0338627897552635,4.957770188373283,0.8242726571810866,0.2387213452895797,2.1521766181206106,2.0633138349056632
584,1778471721,3.7874024,5.4711533249999995,0.2381998575,1.708742725,2.3522893,1.2008083225
585,1778471721,4.275037122192735,5.206834922357002,-0.8664627476671474,2.3116261057446645,1.6161332197637108,0.1398700235514605
586,1778471721,4.762659361096367,4.942523286178501,-1.9710970738335736,2.9144940528723327,0.8799959848818555,-0.9210411157242696
587,1778471721,5.2502816,4.67821165,-3.0757314,3.5173620000000003,0.1438587500000001,-1.981952255
588,1778471721,3.77056245,3.05413245,-1.095206905,0.18448131,-2.4129176,-5.359121
589,1778471721,3.42405773979648,2.72294248582272,-0.6723112945054719,-0.2159459954039039,-2.11542249211136,-5.81941369167104
590,1778471721,3.0775619,2.391761,-0.24942651,-0.61636305,-1.817935,-6.2796946
591,1778471721,2.5914671220928,1.8475813405888,0.297132713952384,-0.358428494104576,-1.8077031309696,-6.36292388465152
592,1778471721,2.1053599,1.30338775,0.84370593,-0.100487335,-1.797471,-6.4461553
593,1778471721,2.008819373997084,1.1597972690353693,0.8254624145859917,0.1655601024636108,-1.851172852374912,-6.445837653934182
594,1778471721,1.9122813194,1.01621046394,0.8072193662,0.4316007292,-1.90487333,-6.445520016
595,1778471721,1.8157432648029157,0.8726236588446308,0.7889763178140083,0.6976413559363891,-1.958573807625088,-6.445202378065818
596,1778471721,1.7192027388,0.72903317788,0.7707328024000001,0.9636887934,-2.01227566,-6.444884732
597,1778471721,1.622662212797084,0.5854426969153692,0.7524892869859917,1.2297362308636108,-2.065977512374912,-6.444567085934183
598,1778471721,1.5261241582,0.44185589182,0.7342462386,1.4957768576,-2.11967799,-6.444249448
599,1778471721,1.4295861036029158,0.2982690867246308,0.7160031902140084,1.761817484336389,-2.173378467625088,-6.443931810065818
600,1778471721,1.3330455776,0.1546786057600001,0.6977596748000001,2.0278649218,-2.22708032,-6.443614164
601,1778471721,1.236505051597084,0.0110881247953693,0.6795161593859917,2.2939123592636106,-2.280782172374912,-6.443296517934183
602,1778471721,1.139966997,-0.1324986802999999,0.6612731110000001,2.559952986,-2.33448265,-6.44297888
603,1778471721,1.0866533309236608,-0.2351356413800819,0.7160022349582464,1.8758842991912703,-2.04872353276352,-6.451133835615232
604,1778471721,1.0333383,-0.33777523,0.77073276,1.1917981,-1.7629571,-6.459289
605,1778471721,1.0568902686151194,-0.3302500049044689,0.8464731492860983,1.022280098596474,-1.4406183704894313,-6.4464606143983545
606,1778471721,1.0804416343075598,-0.3227249724522344,0.9222115996430492,0.852766436798237,-1.1182878927447155,-6.433632557199178
607,1778471721,1.103993,-0.31519994,0.99795005,0.683252775,-0.795957415,-6.4208045
608,1778471721,1.1454217,-0.29256363,0.990506315,0.7166976375,-0.6148358724999999,-6.40125675
609,1778471721,1.1868504,-0.26992732,0.98306258,0.7501425,-0.43371433,-6.381709
610,1778471721,1.2390786,-0.24478942,0.92912596,1.2186762,-0.50885075,-6.387818
611,1778471721,1.4355447,-0.25113491,0.5746327499999999,1.817935,-1.2223413,-6.822143
612,1778471721,1.25176961,-0.381705555,0.5737785774999999,1.84939455,-1.34146005,-6.8758992999999995
613,1778471721,1.06799452,-0.5122762,0.572924405,1.8808541,-1.4605788,-6.9296556
614,1778471721,0.8323602629070976,-0.641624876815744,0.566334938096256,2.24263441915264,-1.68293092885632,-6.56619535235072
615,1778471721,0.5967260058141952,-0.770973553631488,0.559745471192512,2.60441473830528,-1.90528305771264,-6.20273510470144
616,1778471721,0.3610857164070976,-0.9003255418157441,0.553155835596256,2.96620431915264,-2.12764087885632,-5.83926555235072
617,1778471721,0.125445427,-1.02967753,0.5465662,3.3279939,-2.3499987,-5.475796
618,1778471721,-0.0057749022388575,-1.2206100406883869,0.326143709295997,3.3279939,-2.3499987,-5.475796
619,1778471721,-0.1369952314777151,-1.411542551376774,0.105721218591994,3.3279939,-2.3499987,-5.475796
620,1778471721,-0.26821892,-1.60247995,-0.114706915,3.3279939,-2.3499987,-5.475796
621,1778471721,-0.423197243697152,-1.89047111123968,-0.482139810580864,3.3279939,-2.3499987,-5.475796
622,1778471721,-0.5781716,-2.1784549,-0.8495633,3.3279939,-2.3499987,-5.475796
623,1778471721,-0.96182471417728,-2.69298211396736,-1.10246436282496,3.38602530718848,-2.33136748848256,-4.5408787170944
624,1778471721,-1.34548765,-3.2075225,-1.3553719,3.4440582,-2.3127358,-3.6059375
625,1778471721,-1.4911898,-3.537366,-0.66993713,0.16310102,-0.9669997,-1.6792686
626,1778471721,-2.53758525,-4.35581185,0.511299905,-2.7036896,0.8179486,-0.6921103
627,1778471721,-2.8463746724448,-4.5208534624403205,0.885678960386752,-2.87961654810624,1.63680291853056,0.1832483952652799
628,1778471721,-3.155172,-4.6858993,1.2600676,-3.055548,2.4556782,1.0586295
629,1778471721,-3.2848901603711997,-4.65124255639936,1.4627596944256,-3.055548,2.4556782,1.0586295
630,1778471721,-3.414605,-4.6165867,1.6654466,-3.055548,2.4556782,1.0586295
631,1778471721,-2.63802474035456,-4.20755213570944,0.955249130643968,-0.7843800713216001,3.13189734428416,3.50480808851328
632,1778471721,-1.8614246,-3.7985071,0.24503348,1.486846,3.8081338,5.9510493
633,1778471721,-0.65212095,-3.2869632,-0.84834296,0.6719518,5.0231447,6.8966684
634,1778471721,0.110557936,-2.7715142,-1.3659884,-1.7379116,6.3310075,8.677952
635,1778471721,1.4934907412335103,-2.05814400625536,-0.944689975188864,-2.21392223198592,6.0184012264115205,9.328514922688
636,1778471721,2.87645895,-1.34475555,-0.523380765,-2.68994505,5.70578695,9.9790945
637,1778471721,3.5200488504603755,-0.8008239736865864,-0.1312147504523539,-2.8533543554831167,3.962856811039706,9.959546333048888
638,1778471721,4.163622275230188,-0.2569063218432932,0.2609412247738231,-3.0167594777415583,2.219971290519853,9.939998666524444
639,1778471721,4.8071957,0.28701133,0.6530972,-3.1801646,0.47708577,9.920451
640,1778471721,4.25026517138048,0.387472687138912,0.6858317952474561,-3.07322363117312,0.686997023079648,9.52498714437744
641,1778471721,3.69333464276096,0.487934044277824,0.718566390494912,-2.9662826623462397,0.896908276159296,9.12952328875488
642,1778471722,3.13641837138048,0.588392829638912,0.751300147747456,-2.85934443117312,1.106814155579648,8.73406955687744
643,1778471722,2.5795021,0.688851615,0.784033905,-2.7524062,1.316720035,8.338615825
644,1778471722,2.06512095,0.6077636075,0.6800045025,-2.6956721,1.7933476175,7.4096426625
645,1778471722,1.5507398,0.5266756,0.5759751,-2.638938,2.2699752,6.4806695
646,1778471722,1.5160460586017923,0.5121109486994939,0.5722790266260536,-2.846799715913228,2.1414233234991764,6.441947818737314
647,1778471722,1.4813523172035854,0.4975462973989878,0.5685829532521072,-3.0546614318264567,2.0128714469983526,6.403226137474627
648,1778471722,1.4466576876342296,0.4829812732386359,0.5648867852574713,-3.262528469067725,1.884316279527366,6.364503464924213
649,1778471722,1.411963058064874,0.4684162490782839,0.5611906172628354,-3.4703955063089937,1.7557611120563794,6.325780792373798
650,1778471722,1.3772693166666663,0.4538515977777778,0.557494543888889,-3.678257222222222,1.6272092355555556,6.287059111111112
651,1778471722,1.3425755752684594,0.4392869464772717,0.5537984705149425,-3.8861189381354504,1.498657359054732,6.248337429848425
652,1778471722,1.3078809456991036,0.4247219223169197,0.5501023025203066,-4.093985975376719,1.3701021915837452,6.209614757298009
653,1778471722,1.273186316129748,0.4101568981565677,0.5464061345256707,-4.301853012617988,1.2415470241127586,6.170892084747595
654,1778471722,1.2384925747315407,0.3955922468560616,0.5427100611517243,-4.509714728531216,1.1129951476119349,6.132170403484908
655,1778471722,1.2037988333333334,0.3810275955555555,0.5390139877777779,-4.717576444444444,0.9844432711111112,6.093448722222222
656,1778471722,1.5559191916666666,1.1920637477777778,0.7188163863888889,-4.747424047222221,0.3318695115555555,5.5749428611111105
657,1778471722,1.90803955,2.0030999,0.898618785,-4.777271649999999,-0.3207042479999999,5.056437
658,1778471722,2.0312884,2.7488167,1.1663495,-4.6053133,-0.6114761,4.791627
659,1778471722,1.99992745142528,3.0238656293286397,1.36037256647296,-4.41533643173504,-0.8619276441792,4.4758135424639995
660,1778471722,1.9685657,3.2989216,1.5544006,-4.2253547,-1.1123856,4.159992
661,1778471722,2.0881286738486353,3.7677094005427225,1.7487005715659587,-4.0170461782467335,-1.182839935738606,3.865753645063019
662,1778471722,2.2076885869243177,4.236485200271361,1.9429955691163123,-3.808742989123367,-1.253292467869303,3.57152282253151
663,1778471722,2.3272485,4.705261,2.1372905666666666,-3.6004398,-1.323745,3.2772920000000005
664,1778471722,3.3828367499999996,5.18723335,0.9312410483333334,-0.1450805500000001,0.3161228,2.2360722500000003
665,1778471722,4.438425,5.6692057,-0.27480847,3.3102787,1.9559906,1.1948525
666,1778471722,4.659297,4.5602098,-1.2781278,2.932764,-0.24373524,-1.4581354
667,1778471722,5.5566955,5.6386986,-1.8174944,1.3261884,-1.3316863,-4.0146065
668,1778471722,4.659297,4.5602098,-1.2781278,1.3261884,-1.3316863,-4.0146065
669,1778471722,3.74407063525248,3.5782327308544,-0.25405049197824,1.3261884,-1.3316863,-4.0146065
670,1778471722,2.8288677,2.5962808,0.7700006,1.3261884,-1.3316863,-4.0146065
671,1778471722,1.9683217,1.120955,1.0853225,0.73364913,-1.0812315,-5.960212
672,1778471722,2.1884613,1.5207207,1.1260802,2.2944098,-0.61086524,-6.546643
673,1778471722,1.7389079,0.72582626,1.0631135,2.2944098,-0.61086524,-6.546643
674,1778471722,1.58551795,0.44503839,1.04017205,2.5561656,-0.6194173399999999,-6.591847
675,1778471722,1.432128,0.16425052,1.0172306,2.8179214,-0.62796944,-6.637051
676,1778471722,1.17586785,-0.287987555,0.53570567,3.4519994,-0.5729916,-6.681033
677,1778471722,1.14475017669888,-0.34766030630144,0.376944392881664,3.68871272989184,-0.56321762489472,-6.6911126290176
678,1778471722,1.1136333,-0.40733153,0.21818718,3.92542,-0.5534439,-6.701192
679,1778471722,1.08983800458368,-0.4322250613587199,0.142164323105024,3.82493393623808,-0.66523081910912,-6.7076059179008
680,1778471722,1.0660421,-0.45711923,0.06613952,3.7244453,-0.7770206,-6.71402
681,1778471722,1.09581743111936,-0.452238022521344,0.11849046508352,2.9749040559948803,-0.93645844077824,-6.76227881770496
682,1778471722,1.125592,-0.44735694,0.17084007,2.225382,-1.0958922,-6.8105364
683,1778471722,1.2000295,-0.48640612,0.3397277,1.486846,-1.0030408,-6.922325
684,1778471722,1.1502419,-0.57451075,0.6489482,1.2284501,-0.93462384,-7.027394
685,1778471722,1.14365221565312,-0.56499240316672,0.75670087921664,1.2284501,-0.93462384,-7.027394
686,1778471722,1.1370627,-0.5554743,0.8644508,1.2284501,-0.93462384,-7.027394
687,1778471722,1.3296238,-0.4583395,0.7743936,1.7470746,-0.9089675,-7.0567155
688,1778471722,1.3789234,-0.43759465,0.6562699,1.7470746,-0.9089675,-7.0567155
689,1778471722,1.38856382339584,-0.438082781248,0.524721381200512,1.7470746,-0.9089675,-7.0567155
690,1778471722,1.398204,-0.4385709,0.39317623,1.7470746,-0.9089675,-7.0567155
691,1778471722,1.24085008915584,-0.4870156398993919,0.346378844014208,1.6847671475456,-0.755642292587776,-7.16300468948096
692,1778471722,1.08349215,-0.53546162,0.29958026,1.6224581,-0.60231316,-7.2692966
693,1778471722,0.83748243,-0.60819065,0.466393395,1.6218473,-1.4227052,-6.76136215
694,1778471722,0.798616315,-0.632352325,0.5161810725,1.71866945,-1.5491543,-6.652170075
695,1778471722,0.7597502,-0.656514,0.56596875,1.8154916,-1.6756034,-6.542978
696,1778471722,0.52960426,-0.78684056,0.58427304,1.8154916,-1.6756034,-6.542978
697,1778471722,0.31361356,-0.9488945,0.35998443,3.0250046,-1.8484782,-5.915619
698,1778471722,0.1594821342593355,-1.1412503258066864,0.273006028802451,2.7689868172112084,-1.7241751858791574,-5.576028916113637
699,1778471722,0.0053507085186709,-1.333606151613373,0.1860276276049021,2.512969034422417,-1.5998721717583149,-5.236438832227274
700,1778471722,-0.1487846630369989,-1.5259669017922322,0.0990469997317811,2.256944697494493,-1.475565975439579,-4.896840054723485
701,1778471722,-0.3029200345926688,-1.7183276519710913,0.01206637185866,2.0009203605665693,-1.3512597791208425,-4.557241277219696
702,1778471722,-0.4570514603333333,-1.9106834777777777,-0.0749120293388888,1.7449025777777778,-1.226956765,-4.217651193333333
703,1778471722,-0.6111828860739978,-2.103039303584464,-0.1618904305364377,1.4888847949889863,-1.1026537508791574,-3.8780611094469704
704,1778471722,-0.7653182576296678,-2.2954000537633235,-0.2488710584095588,1.2328604580610625,-0.9783475545604212,-3.538462331943182
705,1778471722,-0.9194536291853376,-2.4877608039421824,-0.3358516862826798,0.9768361211331386,-0.8540413582416851,-3.198863554439393
706,1778471722,-1.0735850549260022,-2.680116629748869,-0.4228300874802288,0.7208183383443472,-0.7297383441208426,-2.85927347055303
707,1778471722,-1.2277164806666667,-2.8724724555555556,-0.5098084886777777,0.4648005555555555,-0.60543533,-2.519683386666667
708,1778471722,-2.8803637,-3.97032345,0.78025102,-0.768468465,1.41965085,1.36833818
709,1778471722,-2.456876455910212,-3.690547608553424,0.4901840295867289,-0.4308578481858909,2.012811089805183,2.291982216656455
710,1778471722,-2.033400052955106,-3.4107789292767117,0.2001244647933644,-0.0932558740929455,2.6059561449025916,3.2156026083282274
711,1778471722,-1.60992365,-3.13101025,-0.0899351,0.2443461,3.1991012,4.139223
712,1778471722,-1.137977925,-2.864865875,-0.4588886499999999,-0.4599815,4.4370196,4.98985285
713,1778471722,-0.6660322,-2.5987215,-0.8278422,-1.1643091,5.674938,5.8404827
714,1778471722,-0.3269146685,-2.51098285,-0.8305268,-2.6044240500000004,6.2274657499999995,7.8929901
715,1778471722,0.012202863,-2.4232442,-0.8332114,-4.044539,6.7799935,9.9454975
716,1778471722,1.99834083,-1.532801525,-0.40196232,-4.288274,6.3490281,10.48428075
717,1778471722,2.7023765687228103,-0.8703781781195867,0.0641136409279186,-4.354655899569918,5.035136309867135,10.89010575932484
718,1778471722,3.4063942843614052,-0.2079717890597935,0.5301776704639594,-4.421036099784959,3.721278154933568,11.29592037966242
719,1778471722,4.110412,0.4544346,0.9962417,-4.4874163,2.40742,11.701735
720,1778471722,3.781786129095129,0.5506346475632318,1.0180036356994744,-3.5735540268084187,1.5130038144129092,10.372378989640575
721,1778471722,3.4531602581902585,0.6468346951264634,1.0397655713989489,-2.6596917536168374,0.6185876288258184,9.043022979281156
722,1778471722,3.1245428,0.74303228,1.06152695,-1.745852875,-0.2758056599999999,7.713701
723,1778471722,2.50519447776,0.706363134371072,0.786111892857856,-1.294429230796608,0.2108949901519359,7.0461865442944
724,1778471722,1.8858303,0.66969305,0.5106897850000001,-0.84299403,0.6976081,6.378655
725,1778471722,1.51022141726784,0.60074601748928,0.2925608289851008,-1.537251351379968,1.10444960750464,6.0872684703001605
726,1778471722,1.13462215,0.5318007499999999,0.074437457,-2.2314909,1.5112807,5.7958894
727,1778471722,1.1269751305108031,0.4947860217261152,0.0386430055664573,-2.979991492093047,1.3184541676149435,5.69448756394682
728,1778471722,1.1193279152554017,0.4577703458630576,0.0028476377832286,-3.728511246046524,1.1256226988074718,5.59308313197341
729,1778471722,1.1116807,0.42075467,-0.03294773,-4.477031,0.93279123,5.4916787
730,1778471722,0.99801106,0.3301484275,0.2437521649999999,-4.477031,0.93279123,5.4916787
731,1778471722,0.8843414199999999,0.239542185,0.52045206,-4.477031,0.93279123,5.4916787
732,1778471722,0.870125085,0.3351516275,0.79934848,-5.2320605,0.912327265,5.3811121
733,1778471722,0.85590875,0.43076107,1.0782449,-5.98709,0.8918633,5.2705455
734,1778471722,0.8851140174451945,0.6511835440374786,1.1251848661071622,-5.824805051515954,0.7951437920170327,5.2821517676252485
735,1778471722,0.9143192848903888,0.8716060180749572,1.172124832214324,-5.662520103031906,0.6984242840340652,5.293758035250497
736,1778471722,0.9435253,1.092034135,1.219066,-5.500231,0.6017023,5.3053646
737,1778471722,0.9637821,1.1914874,1.2180897,-4.7580295,0.44715336,5.214346
738,1778471722,1.06408965,1.977229725,1.367391775,-4.594317625,0.4932736825,5.136766
739,1778471722,1.1643972,2.76297205,1.51669385,-4.43060575,0.539394005,5.059186
740,1778471722,1.4020296111039523,3.438690966060945,1.517385322567157,-3.4502604346603873,0.6123930262503413,4.478248209394307
741,1778471722,1.6396620222079052,4.1144098821218895,1.518076795134314,-2.4699151193207753,0.6853920475006826,3.8973104187886136
742,1778471723,1.87728835,4.7901115,1.51876825,-1.4895949005,0.7583892,3.3163875000000003
743,1778471723,2.7119498382615967,5.047058764710551,1.1069693514578285,-0.7139110721734563,0.8936935241099772,2.975734080559443
744,1778471723,3.5466326941307984,5.304012607355276,0.6951599107289143,0.0617926139132718,1.0290013120549886,2.6350719402797216
745,1778471723,4.38131555,5.56096645,0.28335047,0.8374963,1.1643091,2.2944098
746,1778471723,5.864452,5.6330853,0.18963248,0.8374963,1.1643091,2.2944098
747,1778471723,5.9425497,4.899205,0.8254016,1.6994271,0.39950588,-2.6529877
748,1778471723,4.996941914250179,4.010137580055125,0.979931835307796,2.4597572214006553,0.0769662676972044,-3.822804782311329
749,1778471723,4.051334128500359,3.1210701601102504,1.134462070615592,3.2200873428013104,-0.245573344605591,-4.992621864622658
750,1778471723,3.10575055,2.2320255,1.28898835,3.980398,-0.5681047,-6.162409
751,1778471723,2.8783324542123436,2.0409986512666327,1.1800451439918989,3.980398,-0.5681047,-6.162409
752,1778471723,2.650908536446914,1.8499669121833415,1.0710991490020252,3.980398,-0.5681047,-6.162409
753,1778471723,2.423484618681484,1.6589351731000506,0.9621531540121514,3.980398,-0.5681047,-6.162409
754,1778471723,2.196066522893828,1.4679083243666833,0.8532099480040505,3.980398,-0.5681047,-6.162409
755,1778471723,1.9686484271061715,1.2768814756333162,0.7442667419959494,3.980398,-0.5681047,-6.162409
756,1778471723,1.741224509340742,1.0858497365500253,0.6353207470060757,3.980398,-0.5681047,-6.162409
757,1778471723,1.513800591575312,0.8948179974667341,0.526374752016202,3.980398,-0.5681047,-6.162409
758,1778471723,1.286382495787656,0.703791148733367,0.4174315460081009,3.980398,-0.5681047,-6.162409
759,1778471723,1.0589644,0.5127643,0.30848834,3.980398,-0.5681047,-6.162409
760,1778471723,1.4963556833333334,0.3690552383333333,0.1211744383333333,4.567643100000001,-0.3839288,-6.210768733333333
761,1778471723,0.5276518,-0.8778739,1.0069802,3.522249,-2.652377,-7.7005672
762,1778471723,0.74364245,-0.8097819,1.0047837,3.843564,-2.8893926,-7.5405207
763,1778471723,0.5276518,-0.8778739,1.0069802,3.843564,-2.8893926,-7.5405207
764,1778471723,0.48835856,-0.7653635,0.65993077,3.843564,-2.8893926,-7.5405207
765,1778471723,0.5544981,-0.6984919,0.511788,3.2375858,-2.3261747,-6.65049
766,1778471723,0.6789673,-0.58988637,0.34607318,1.4929546,-1.3054191,-6.3139033
767,1778471723,0.9027678,-0.41099238,0.24771811,1.4929546,-1.3054191,-6.3139033
768,1778471723,0.9041101,-0.4157515,0.41880224,1.4929546,-1.3054191,-6.3139033
769,1778471723,0.9054524,-0.42051062,0.58988637,1.4929546,-1.3054191,-6.3139033
770,1778471723,0.97598493,-0.38658667,0.45370242,0.41783184,-0.91751957,-6.3517766
771,1778471723,0.7941623,-0.45602095,0.82625582,0.38973203,-0.95356065,-6.323677
772,1778471723,0.685402890397376,-0.491379198829792,0.874274692133696,0.578186372184704,-1.05290387157696,-6.2479287179344
773,1778471723,0.576643480794752,-0.526737447659584,0.922293564267392,0.766640714369408,-1.15224709315392,-6.172180435868801
774,1778471723,0.467886855397376,-0.562094791329792,0.970311207133696,0.955090232184704,-1.25158777157696,-6.0964340929344
775,1778471723,0.35913023,-0.597452135,1.01832885,1.14353975,-1.35092845,-6.02068775
776,1778471723,0.082003235,-0.76633975,0.38829508,3.3475416,-2.0922134,-5.1410418
777,1778471723,-0.0136684320816639,-0.91716910559104,0.066745544218624,3.3475416,-2.0922134,-5.1410418
778,1778471723,-0.10933765,-1.0679946,-0.25479576,3.3475416,-2.0922134,-5.1410418
779,1778471723,-0.54168504,-1.7443992,-1.30314365,3.885103,-2.5014932,-4.7409253
780,1778471723,-0.6491922699999999,-2.04800645,-1.499548775,3.4171802,-2.7418686,-4.066224549999999
781,1778471723,-0.7566995,-2.3516136999999997,-1.6959539,2.9492574,-2.982244,-3.3915238
782,1778471723,-0.8544842655593197,-2.58155432114825,-1.2430281636824223,1.4743358628248868,-2.626723500480429,-2.6584917719533734
783,1778471723,-0.9522690311186396,-2.8114949422965005,-0.7901024273648444,-0.0005856743502264,-2.2712030009608575,-1.9254597439067471
784,1778471723,-1.0500563,-3.04144145,-0.337165096,-1.47554497,-1.9156734,-1.19240895
785,1778471723,-1.24573170461312,-3.19336896964736,0.1527250925141503,-2.397505185939712,-0.7122534664220159,-0.7324215372364801
786,1778471723,-1.4414021,-3.3452926,0.64260274,-3.3194418,0.49113566,-0.2724459
787,1778471723,-1.7173053183936,-3.44035183322624,0.945107797885696,-2.85091414723072,1.073588224511744,-0.036349502072576
788,1778471723,-1.9932156,-3.5354135,1.2476206,-2.3823745,1.6560557,0.19975294
789,1778471723,-2.3237953313664,-3.4861741947449603,1.09752346628128,-1.393981863736192,2.1386453770688,0.6884514252605439
790,1778471723,-2.6543666000000004,-3.43693615,0.947430175,-0.40561453,2.6212227,1.1771374
791,1778471723,-1.4831358,-2.7058628,-0.5862255,-0.40561453,2.6212227,1.1771374
792,1778471723,-2.1186609,-2.8972035999999997,-1.2686095,-0.0235183149999999,3.7595702,2.1847596499999997
793,1778471723,-2.754186,-3.0885444,-1.9509935,0.3585779,4.8979177,3.1923819
794,1778471723,-2.0344612,-2.9068438000000003,-2.01798725,-1.4908166499999995,5.71953135,5.55948475
795,1778471723,-1.3147364,-2.7251432,-2.084981,-3.3402112,6.541145,7.9265876
796,1778471723,-0.4690856406470638,-2.3502023497215037,-1.422749305500914,-3.5064904226774463,6.100095779713793,8.07054963415236
797,1778471723,0.3765651187058722,-1.975261499443007,-0.7605176110018278,-3.672769645354893,5.659046559427586,8.214511668304722
798,1778471723,1.222194229676468,-1.6003302475274186,-0.0983028694171236,-3.839044611338723,5.218008629856897,8.358470017076181
799,1778471723,2.067823340647064,-1.22539899561183,0.5639118721675805,-4.005319577322554,4.776970700286208,8.502428365847639
800,1778471723,2.9134741,-0.8504581453333334,1.226143566666667,-4.171598800000001,4.3359214800000005,8.6463904
801,1778471723,2.6543665,0.409284,1.6786258,-2.820365,-0.6469063,8.594874
802,1778471723,2.220677,0.5801241,0.09274176,1.2889256,0.7648033,7.167893
803,1778471723,2.1280069284143215,0.564770381530112,0.0760349005172053,0.8098369160803157,0.8073732756528924,7.097847997698617
804,1778471723,2.0353344844444443,0.54941627,0.0593276133333333,0.3307359673333334,0.8499443411111111,7.027801202222222
805,1778471723,1.942662040474567,0.534062158469888,0.0426203261494613,-0.1483649814136489,0.8925154065693297,6.957754406745828
806,1778471723,1.8499919688888888,0.51870844,0.0259134666666666,-0.6274536653333332,0.9350853822222222,6.887709404444444
807,1778471723,1.7573218973032103,0.5033547215301121,0.009206607183872,-1.1065423492530175,0.9776553578751146,6.817664402143062
808,1778471723,1.6646494533333331,0.48800061,-0.0075006799999999,-1.585643298,1.0202264233333334,6.747617606666667
809,1778471723,1.571977009363456,0.472646498469888,-0.0242079671838719,-2.064744246746982,1.062797488791552,6.677570811190272
810,1778471723,1.4793069377777777,0.45729278,-0.0409148266666666,-2.5438329306666665,1.1053674644444444,6.607525808888889
811,1778471723,1.3866368661920996,0.441939061530112,-0.0576216861494613,-3.022921614586351,1.1479374400973368,6.537480806587506
812,1778471723,1.2939644222222222,0.42658495,-0.0743289733333333,-3.502022563333333,1.1905085055555555,6.467434011111111
813,1778471723,1.1324255,0.413677,0.58280873,-6.3438354,0.3707952,5.8771343
814,1778471723,1.1885581051947651,0.4882601442588269,0.6071165750844802,-6.292645444191857,0.1536959231250512,5.788681945763701
815,1778471723,1.2446907103895306,0.5628432885176539,0.6314244201689604,-6.241455488383714,-0.0634033537498975,5.700229591527402
816,1778471723,1.3008247525973828,0.6374283421294135,0.6557328875422401,-6.190264222095928,-0.2805081884374743,5.61177497288185
817,1778471723,1.3569587948052348,0.7120133957411732,0.6800413549155198,-6.1390729558081425,-0.4976130231250511,5.523320354236299
818,1778471723,1.4130914,0.78659654,0.7043492,-6.087883,-0.7147123,5.434868
819,1778471723,1.3908823,1.5214529,1.2549424,-6.087883,-0.7147123,5.434868
820,1778471723,1.2770294999999998,2.5312398,2.06509035,-5.230839,-0.8417722999999999,4.1251731
821,1778471723,1.87789845,4.02914115,2.3244012,-1.9529362,0.7415904,2.5137105
822,1778471723,2.323974025,4.3577640749999995,1.9614881,-0.23426685,1.09589225,1.9593503
823,1778471723,2.7700496,4.686387,1.598575,1.4844025,1.4501941,1.4049901
824,1778471723,3.4902015,5.050764675,0.7808611750000001,1.8483255,1.286634925,1.2206615075
825,1778471723,4.2103534,5.41514235,-0.03685265,2.2122485,1.12307575,1.036332915
826,1778471723,5.5093484,5.637234,-0.6057501,2.9400945,0.7959574,0.66767573
827,1778471723,5.396106,4.828673,-0.14301755,2.0323486,0.044593163,-2.4312437
828,1778471723,4.617231270354046,4.153889525254719,0.2039941277950814,2.0590232942878113,0.1539389750723196,-3.669885369606957
829,1778471723,3.8383565407080926,3.4791060505094378,0.5510058055901628,2.0856979885756224,0.2632847871446394,-4.908527039213912
830,1778471723,3.05950175,2.80433985,0.8980086,2.112372,0.3726278,-6.147137
831,1778471723,2.31253338631744,2.034328747934933,0.6686180745696427,2.9789750740053336,0.1786805658897066,-6.3376227284181335
832,1778471723,1.5655459,1.2642979333333333,0.4392216766666667,3.8456003333333335,-0.0152716333333333,-6.528113333333334
833,1778471723,1.34843382100096,0.8085965337634133,0.2398040215700203,3.9450709398741335,0.0879659147570346,-6.343426002699093
834,1778471723,1.1313273,0.3529067999999999,0.0403914715,4.044539,0.19120082,-6.1587434
835,1778471723,1.1418216042282487,0.2267720243943919,0.0303852957742516,3.8969156528040414,0.1109752212010786,-6.241412355765095
836,1778471723,1.1523161771141244,0.1006340196971959,0.0203788638871258,3.7492885264020206,0.0307475686005393,-6.324083427882548
837,1778471723,1.16281075,-0.025503985,0.010372432,3.6016614,-0.049480084,-6.4067545
838,1778471723,1.186423275,-0.0965856574999999,0.042771031,3.6016614,-0.049480084,-6.4067545
839,1778471723,1.2100358,-0.16766733,0.07516963,3.6016614,-0.049480084,-6.4067545
840,1778471723,0.758774,-0.6823841,0.43417785,3.9144244,-1.2516629,-7.1837754
841,1778471723,0.233684815,-0.9414508,0.437960745,4.0540073,-2.2467624,-7.04846865
842,1778471724,0.2077537374999999,-0.89514093,0.4210597725,4.042248150000001,-2.3185391,-6.9963923249999995
843,1778471724,0.18182266,-0.84883106,0.4041588,4.030489,-2.3903158,-6.944316
844,1778471724,0.37804466,-0.7004443,0.49470404,3.8020253,-2.6004534,-6.604064
845,1778471724,0.41929033,-0.67677075,0.5920829,3.1887167,-2.4947736,-6.2564816
846,1778471724,0.45077375,-0.55962324,0.7148437,3.1887167,-2.4947736,-6.2564816
847,1778471724,0.41026023,-0.66188323,0.68091977,2.515543,-1.8710803,-6.0671134
848,1778471724,0.5554743,-0.43295756,0.6628595,2.162463,-1.2687671,-5.816659
849,1778471724,0.534363345,-0.45894964,0.6822620500000001,2.0845776999999996,-1.1814134,-5.7674842
850,1778471724,0.5880961631407494,-0.3845128185356737,0.6710761837872802,2.0224735966284655,-1.227533323104952,-5.7801086922696205
851,1778471724,0.6418289812814988,-0.3100759970713475,0.6598903175745604,1.960369493256931,-1.2736532462099035,-5.792733184539241
852,1778471724,0.695563175,-0.23563727,0.648704165,1.8982638,-1.31977435,-5.805358
853,1778471724,0.6489482,-0.1598575,0.67091334,1.8796324,-1.4178182,-5.843537
854,1778471724,0.573919961390275,-0.2395301696556537,0.6184268538909692,1.952861325648463,-1.416892659254915,-5.717299153816771
855,1778471724,0.49889172278055,-0.3192028393113075,0.5659403677819385,2.026090251296926,-1.41596711850983,-5.591061307633542
856,1778471724,0.4238615634233311,-0.3988775486134119,0.5134525380016642,2.0993210516298815,-1.4150415540705985,-5.464820229720083
857,1778471724,0.3488314040661122,-0.4785522579155163,0.4609647082213901,2.172551851962837,-1.4141159896313673,-5.338579151806625
858,1778471724,0.2738031654563873,-0.55822492757117,0.4084782221123593,2.2457807776113,-1.4131904488862823,-5.212341305623395
859,1778471724,0.1987749268466623,-0.6378975972268238,0.3559917360033285,2.319009703259763,-1.412264908141197,-5.086103459440166
860,1778471724,0.1237447674894433,-0.7175723065289282,0.3035039062230544,2.392240503592719,-1.411339343701966,-4.959862381526708
861,1778471724,0.0487146081322244,-0.7972470158310326,0.2510160764427802,2.465471303925674,-1.4104137792627347,-4.83362130361325
862,1778471724,-0.0263136304775005,-0.8769196854866863,0.1985295903337494,2.538700229574137,-1.4094882385176497,-4.70738345743002
863,1778471724,-0.1013418690872254,-0.95659235514234,0.1460431042247186,2.6119291552226,-1.4085626977725647,-4.581145611246791
864,1778471724,-0.1763720284444444,-1.0362670644444445,0.0935552744444444,2.6851599555555556,-1.4076371333333333,-4.454904533333333
865,1778471724,-0.6541547566666667,-2.3760600000000003,-1.6697583333333337,0.8431976600000001,-0.6631960366666667,-1.2856677
866,1778471724,-1.72719315,-3.2510866,-0.64406706,-1.4288138,0.551000455,-0.463341311
867,1778471724,-1.91731129145664,-3.39983754596352,-0.418439028075776,-1.55220702054656,0.763273410371392,-0.2411419106887296
868,1778471724,-2.1074343,-3.5485923,-0.19280522,-1.6756034,0.9755518,-0.018936822
869,1778471724,-2.6933012990016,-3.72175316643072,0.181339328988928,-0.736996920990848,1.4367609534016,0.8762976478545407
870,1778471724,-3.2791533,-3.8949096,0.5554743,0.20158553,1.8979583,1.7715092
871,1778471724,-2.3522236,-3.3218632,-0.27334413,1.3500122,3.245527,3.9095376
872,1778471724,-1.7078515,-3.026614925,-0.7178333475,1.3500122,3.245527,3.9095376
873,1778471724,-1.0634794,-2.73136665,-1.162322565,1.3500122,3.245527,3.9095376
874,1778471724,-0.640955325,-2.265278325,-1.3902110825,0.7757988650000001,4.3154575,4.3881505999999995
875,1778471724,-0.21843125,-1.79919,-1.6180996,0.20158553,5.385388,4.8667636
876,1778471724,0.7909081966666666,-0.7643873053333333,-0.6208816333333332,-3.7859392333333335,4.5511496,7.280698999999999
877,1778471724,1.1927129280347306,-0.4306652536624149,-0.0166491534232532,-3.3381438057918933,2.9832929941923196,7.47783284828096
878,1778471724,1.5945073733333337,-0.0969517451666666,0.5875678583333335,-2.8903598416666667,1.4154765249999997,7.67496165
879,1778471724,1.996301818631936,0.2367617633290816,1.19178487008992,-2.44257587754144,-0.1523399441923203,7.87209045171904
880,1778471724,2.39810655,0.570483815,1.79601735,-1.99478045,-1.72019655,8.0692243
881,1778471724,2.2863283,0.7844,1.9043787,-2.4367414,-1.6426166,8.167879
882,1778471724,1.9580714,0.8500514,1.300337,-0.68539083,-1.1270463,7.687128
883,1778471724,1.6088314104387822,0.735427801267792,1.1667993024058778,-1.0136234847576544,0.0985320498617606,7.262991138695089
884,1778471724,1.2595824802193911,0.6208012681338959,1.0332581862029389,-1.3418645423788271,1.3241417749308804,6.838843419347544
885,1778471724,0.91033355,0.506174735,0.89971707,-1.6701056,2.5497515,6.4146957
886,1778471724,0.7462471168888186,0.3629957039767039,0.7248515455382423,-2.2952190656301465,2.791855734017425,6.43444696478705
887,1778471724,0.5821606837776374,0.2198166729534078,0.5499860210764846,-2.9203325312602932,3.0339599680348504,6.4541982295741
888,1778471724,0.4180700499999999,0.0766339765,0.37511602,-3.545462,3.2760704,6.47395
889,1778471724,0.30714461767264,-0.2504069228199296,0.323131144602112,-4.48147230577856,2.50667575187456,6.5388552057760005
890,1778471724,0.196222025,-0.57743945,0.2711476,-5.41745865,1.7373008,6.60375875
891,1778471724,0.98135417,-0.43027296,1.03346042,-6.491054,0.04337143,7.5545707
892,1778471724,1.130841165909056,-0.177365392824576,1.273829379183296,-6.18958821628736,0.281001056620288,7.41422260356736
893,1778471724,1.280328161818112,0.075542174350848,1.514198338366592,-5.88812243257472,0.518630683240576,7.27387450713472
894,1778471724,1.429811330909056,0.328443267175424,1.754561144183296,-5.586664366287359,0.7562542266202881,7.13353000356736
895,1778471724,1.5792945,0.58134436,1.99492395,-5.2852063,0.99387777,6.9931855
896,1778471724,1.7568461,1.5465908,1.65080325,-5.2852063,0.99387777,6.9931855
897,1778471724,2.0157026008208,2.1507927086854397,1.59073389362208,-4.187849147758239,1.509760068208896,6.27136258578496
898,1778471724,2.274552475,2.75497915,1.530666075,-3.0905200875,2.02562916,5.54955815
899,1778471724,2.5334023491792,3.35916559131456,1.47059825637792,-1.99319102724176,2.541498251791104,4.8277537142150395
900,1778471724,2.79225885,3.9633675,1.4105289,-0.895833875,3.05738055,4.105930799999999
901,1778471724,3.3823893,4.7691226,0.91106576,-0.48930305,3.1942143,3.857614
902,1778471724,4.036707,5.107386,-0.84150934,-0.48930305,3.1942143,3.857614
903,1778471724,4.2841778323328,5.2092786957568,-1.470192722749696,0.5815300181612801,3.24796976192128,3.17895148699136
904,1778471724,4.531655,5.311174,-2.0988922,1.6523905,3.3017266,2.5002716
905,1778471724,4.726849864616383,5.219379766731805,-1.743213431515605,1.450665779497726,2.1255194485437805,1.3663505613286455
906,1778471724,4.922039732308191,5.127587883365902,-1.3875437682911358,1.2489462230821964,0.9493424076052236,0.232458550664323
907,1778471724,5.1172296,5.035796,-1.0318741050666669,1.0472266666666668,-0.2268346333333333,-0.90143346
908,1778471724,4.800974272698011,4.659274174354746,-0.898354434616075,1.322532870210551,-0.3267189103574603,-1.35216161717503
909,1778471724,4.484718945396023,4.282752348709491,-0.7648347641654835,1.5978390737544352,-0.4266031873815875,-1.80288977435006
910,1778471724,4.168471714126784,3.906240161899595,-0.6313185117747042,1.87313822954972,-0.5264849074009524,-2.2536063930319594
911,1778471724,3.852224482857544,3.5297279750896995,-0.4978022593839249,2.1484373853450047,-0.6263666274203173,-2.7043230117138584
912,1778471724,3.5359691555555557,3.1532061494444448,-0.3642825889333332,2.4237435888888887,-0.7262509044444444,-3.1550511688888885
913,1778471724,3.219713828253567,2.77668432379919,-0.2307629184827416,2.699049792432773,-0.8261351814685715,-3.6057793260639186
914,1778471724,2.903466596984328,2.4001721369892945,-0.0972466660919624,2.974348948228058,-0.9260169014879364,-4.0564959447458175
915,1778471724,2.587219365715089,2.023659950179399,0.0362695862988168,3.2496481040233425,-1.0258986215073014,-4.507212563427717
916,1778471724,2.2709640384131,1.647138124534144,0.1697892567494084,3.524954307567227,-1.1257828985314284,-4.957940720602747
917,1778471724,1.9547087111111112,1.270616298888889,0.3033089272,3.8002605111111114,-1.2256671755555557,-5.408668877777777
918,1778471724,1.3568633555555556,0.5247502144444445,0.1883850811,3.390641455555556,-1.1012203377777778,-5.610220438888889
919,1778471724,0.759018,-0.22111587,0.073461235,2.9810224,-0.9767735,-5.811772
920,1778471724,0.7883049,-0.28359452,0.35437113,2.4416285,-1.4795157,-5.861252
921,1778471724,0.81441903,-0.27529657,0.67628264,2.1398609,-2.0115793,-5.902791
922,1778471724,0.8080735941484124,-0.320609479991552,0.7883039707390752,2.3194538007876297,-2.040900549788799,-6.0023610836577435
923,1778471724,0.8017281582968248,-0.3659223899831039,0.9003253014781504,2.49904670157526,-2.0702217995775984,-6.101931167315487
924,1778471724,0.79538256,-0.41123646,1.0123495,2.6786442,-2.0995438,-6.2015038
925,1778471724,0.73412424,-0.4515059,0.99550945,2.6786442,-2.0995438,-6.2015038
926,1778471724,0.64943635,-0.50885934,0.88373125,2.6786442,-2.0995438,-6.2015038
927,1778471724,0.61441457328448,-0.5097135090664959,0.742301905318784,2.67528444300544,-1.80694309533696,-6.05581446484736
928,1778471724,0.5793919,-0.5105677,0.60086894,2.6719246,-1.5143349,-5.9101214
929,1778471724,0.606238563632896,-0.470663874237568,0.5069056922858239,2.55341523309952,-1.59619189775616,-5.856059008010241
930,1778471724,0.63308454,-0.43076107,0.41294485,2.4349089,-1.6780468,-5.801998
931,1778471724,0.814297015,-0.27981164,0.45028561,1.8817703,-2.43796315,-5.8710260000000005
932,1778471724,0.723781120161376,-0.32612209526624,0.538055817194272,1.73370995485184,-2.28570303859552,-5.72731808556224
933,1778471724,0.633265225322752,-0.37243255053248,0.625826024388544,1.58564960970368,-2.13344292719104,-5.58361017112448
934,1778471724,0.5427516476613761,-0.41874182026624,0.713593984694272,1.43759305485184,-1.98118671359552,-5.439905935562241
935,1778471724,0.45223807,-0.46505109,0.801361945,1.2895365,-1.8289305,-5.2962017
936,1778471724,0.30116664,-0.577866545,0.9194246725,1.2895365,-1.8289305,-5.2962017
937,1778471724,0.15009521,-0.690682,1.0374874,1.2895365,-1.8289305,-5.2962017
938,1778471724,-0.028094806638592,-0.97306787916448,0.4249420519308161,1.9732386235008,-1.5827549635872,-4.9080017940224
939,1778471724,-0.206284823277184,-1.25545375832896,-0.1876032961383678,2.6569407470016,-1.3365794271744,-4.5198018880448005
940,1778471724,-0.384479401638592,-1.53784686666448,-0.8001643255691837,3.3406603735008,-1.0903975885872,-4.1315920440224
941,1778471724,-0.56267398,-1.820239975,-1.412725355,4.02438,-0.84421575,-3.7433822
942,1778471725,-0.9584094263476324,-2.2690777365354093,-1.4014174831617416,1.5599670965926256,-1.0427452725263897,-2.8580423883297637
943,1778471725,-1.354144872695265,-2.7179154980708184,-1.390109611323483,-0.9044458068147486,-1.241274795052779,-1.9727025766595272
944,1778471725,-1.74989045,-3.16676475,-1.37880145,-3.3689218,-1.4398094,-1.0873401
945,1778471725,-1.89522838530176,-3.3413291093952,-0.6889037799378547,-3.3689218,-1.4398094,-1.0873401
946,1778471725,-2.0405626,-3.515889,0.00097622897,-3.3689218,-1.4398094,-1.0873401
947,1778471725,-2.43422191109632,-3.7357816853376,0.7176411910560655,-3.23483856628736,-0.1838865260185599,-0.415702377072896
948,1778471725,-2.8278913,-3.95568,1.4343245,-3.1007519,1.0720685,0.25595254
949,1778471725,-3.07634478016384,-3.88252288860096,1.254757061566208,-2.437649207394176,1.33688196456896,0.788175667368832
950,1778471725,-3.3247919,-3.80936765,1.07519422,-1.77456349,1.6016886499999998,1.32038517
951,1778471725,-2.4781573,-3.5307763,0.12398108,1.1911873,3.2479706,4.704884
952,1778471725,-2.18394625,-3.4589013,-0.6116074600000001,1.1911873,3.2479706,4.704884
953,1778471725,-1.8897352,-3.3870263,-1.347196,1.1911873,3.2479706,4.704884
954,1778471725,-1.104237,-3.10068625,-1.563857825,-0.5687154999999998,4.24520805,7.212486
955,1778471725,-0.3187388,-2.8143462,-1.78051965,-2.3286183,5.2424455,9.720088
956,1778471725,2.87023525,-1.26140986,0.0524723,-3.49140035,4.4373251499999995,10.631499
957,1778471725,3.11383800557536,-0.8431208984698241,0.51112272065024,-3.59899033963424,3.2697940032926076,10.4535822226944
958,1778471725,3.357434525,-0.4248426449999999,0.9697614,-3.706577575,2.1022927449999997,10.27567
959,1778471725,3.60103104442464,-0.0065643915301758,1.42840007934976,-3.81416481036576,0.934791486707392,10.0977577773056
960,1778471725,3.8446338,0.41172457,1.8870505,-3.9217548,-0.23273966,9.919841
961,1778471725,3.611746301402821,0.415154969252043,1.7303449960401986,-3.7250335880006378,-0.1338123007520086,9.549462370412645
962,1778471725,3.378864764649294,0.4185852806869892,1.5736435036899503,-3.528317411999841,-0.0348874740119978,9.17909322239684
963,1778471725,3.145983227895768,0.4220155921219354,1.4169420113397018,-3.3316012359990443,0.0640373527280128,8.808724074381036
964,1778471725,2.9130957292985893,0.4254459913739785,1.260236507379901,-3.1348800239996812,0.1629647119760042,8.43834544479368
965,1778471725,2.680208230701411,0.4288763906260215,1.1035310034200994,-2.9381588120003186,0.2618920712239956,8.067966815206322
966,1778471725,2.4473266939478844,0.4323067020609677,0.946829511069851,-2.741442635999522,0.3608168979640064,7.697597667190518
967,1778471725,2.214445157194358,0.4357370134959139,0.7901280187196026,-2.5447264599987256,0.4597417247040171,7.327228519174715
968,1778471725,1.9815576585971788,0.4391674127479569,0.6334225147598014,-2.348005247999363,0.5586690839520085,6.956849889587358
969,1778471725,1.74867016,0.442597812,0.4767170108,-2.151284036,0.6575964431999999,6.586471260000001
970,1778471725,1.487287082164148,0.3955765192535008,0.6192208361517916,-3.467137595239233,0.878625942657462,6.075140670076886
971,1778471725,1.2259040043282958,0.3485552265070016,0.7617246615035832,-4.7829911544784665,1.099655442114924,5.563810080153772
972,1778471725,0.964514235,0.30153273,0.904232135,-6.0988784,1.3206906,5.0524664
973,1778471725,0.834918158691456,0.334175802825984,1.030655385696896,-6.0988784,1.3206906,5.0524664
974,1778471725,0.7053254,0.36681804,1.1570754,-6.0988784,1.3206906,5.0524664
975,1778471725,0.92180427,0.9343732,1.22650965,-4.9028044,0.24007004,5.1214943
976,1778471725,1.107897935,1.1794677,1.342375825,-4.5588872,-0.024434615,4.99809965
977,1778471725,1.2939916,1.4245622,1.458242,-4.21497,-0.28893927,4.874705
978,1778471725,1.4855764,2.2526484,2.1289113,-3.1172454,-0.22296582,4.006665
979,1778471725,1.6927811,3.57970955,2.9915317000000003,-3.1172454,-0.22296582,4.006665
980,1778471725,1.92707605,3.859582275,2.6998223500000003,-1.507920885,0.85093529,3.5421020999999997
981,1778471725,2.161371,4.139455,2.408113,0.10140363,1.9248364,3.0775392
982,1778471725,3.25011025,4.7528928,0.852736085,0.7037167649999999,2.3292292,3.0237829499999997
983,1778471725,4.3388495,5.3663306,-0.70264083,1.3060299,2.733622,2.9700267
984,1778471725,4.731459650230399,5.35713774377752,-0.816019951933901,1.228856619240878,1.8613668535180223,1.3663560464078064
985,1778471725,5.1240698004607985,5.34794488755504,-0.929399073867802,1.1516833384817555,0.9891117070360448,-0.2373146071843872
986,1778471725,5.5166699,5.338752266666667,-1.0427752933333332,1.0745120333333331,0.11687889,-1.840944207333333
987,1778471725,5.0251448916006405,4.702320146435413,-0.5962375932557226,1.1942400674615468,0.190741734543488,-3.0578231542501033
988,1778471725,4.5336073,4.065871733333333,-0.1496884616666665,1.3139711666666667,0.26460647,-4.274733253666667
989,1778471725,4.04206970839936,3.4294233202312534,0.2968606699223894,1.4337022658717866,0.338471205456512,-5.49164335308323
990,1778471725,3.5505447,2.7929912,0.74339837,1.5534303,0.41233405,-6.7085223
991,1778471725,2.6221511,1.6310346,0.3687705,2.5277603,0.11301007,-7.135517
992,1778471725,2.2748578,0.8254016,-0.13447554,2.5277603,0.11301007,-7.135517
993,1778471725,2.13513316154752,0.505804549210112,0.044542741404672,2.46239686335872,0.0287095874676352,-7.23356200496
994,1778471725,1.9954121,0.18621568,0.22355644,2.3970351,-0.055588737,-7.3316045
995,1778471725,1.6239569,-0.38146147,0.9479183,1.8533652,0.6469063,-7.827627
996,1778471725,1.4551913,-0.62722711,1.0670182499999998,1.8533652,0.6469063,-7.827627
997,1778471725,1.30210444051328,-0.8400477790696961,1.07812296713856,2.7256918656384,0.418134336756352,-7.84778585803008
998,1778471725,1.1490215,-1.052863,1.0892274,3.5979962,0.18936823,-7.8679442
999,1778471725,0.88226694,-1.2625082,0.72094506,3.5979962,0.18936823,-7.8679442
1000,1778471725,0.6638357,-1.3474401,0.5537659,3.5979962,0.18936823,-7.8679442
