id,timestamp,acc_x,acc_y,acc_z,gyro_x,gyro_y,gyro_z
0,1778471782,-0.051007964,-0.024649782,0.40562314,0.84849185,-1.1545353,-0.46731192
1,1778471782,0.1845102925950976,0.0192810863079168,0.244665324766336,0.741894490571264,-1.23089442738432,-0.420274682931072
2,1778471782,0.42002252,0.06321083,0.08371163,0.63529986,-1.3072516,-0.37323865
3,1778471782,0.21086545,0.027334413,0.15400012,0.63529986,-1.3072516,-0.37323865
4,1778471782,0.5383903,0.10470056,0.10201593,-0.30909783,-0.8588765,-0.5717699
5,1778471782,0.8605459,0.19939478,0.049299564,-0.30909783,-0.8588765,-0.5717699
6,1778471782,0.810270085,0.1782838249999999,0.074681517,-0.793208515,-1.3829989,-0.7357872150000001
7,1778471782,0.75999427,0.15717287,0.10006347,-1.2773192,-1.9071213,-0.89980453
8,1778471782,1.0560358,0.24064046,0.21891935,-1.2773192,-1.9071213,-0.89980453
9,1778471782,1.9434278,0.538146245,0.528750035,-1.1606439,-3.7158933,-0.6591236
10,1778471782,2.249269573450127,0.5602739061748744,0.7156149287324959,-0.9382908707701364,-4.247545163179363,-1.2512505804517566
11,1778471782,2.5551113469002535,0.5824015673497487,0.9024798224649918,-0.7159378415402732,-4.779197026358726,-1.8433775609035132
12,1778471782,2.86096095,0.604529795,1.0893495,-0.49357912,-5.3108625,-2.4355197
13,1778471782,3.01624446260352,0.740959543778432,1.017534760783104,-0.734568544625152,-5.16975079379328,-2.67253843380096
14,1778471782,3.171524,0.8773858,0.94572186,-0.9755518,-5.0286427,-2.9095511
15,1778471782,3.543467,0.8705522,1.2942356,-2.7983737,-3.9840631,-3.386637
16,1778471782,3.905770075,0.9110657075,2.85138185,-2.96513985,-3.84020435,-4.068668
17,1778471782,4.268073149999999,0.951579215,4.4085281,-3.131906,-3.6963456,-4.750699
18,1778471782,4.247694275,0.8679896075,5.58189455,-3.6813793,-3.33624055,-4.27086435
19,1778471782,4.2273154,0.7844,6.755261,-4.2308526,-2.9761355,-3.7910297
20,1778471782,4.042720821973018,0.7134560123492152,6.50733082199878,-3.4101215763100376,-3.3768482575750496,-4.100305556922169
21,1778471782,3.8581262439460353,0.6425120246984304,6.2594006439975605,-2.5893905526200753,-3.777561015150099,-4.4095814138443385
22,1778471782,3.673536391479763,0.5715698531904828,6.011476812927656,-1.7686805393753855,-4.178263514609859,-4.718849353405913
23,1778471782,3.488946539013491,0.5006276816825352,5.763552981857752,-0.9479705261306958,-4.578966014069618,-5.028117292967487
24,1778471782,3.3043519609865086,0.4296836940317504,5.515622803856533,-0.1272395024407332,-4.979678771644668,-5.337393149889656
25,1778471782,3.119757382959526,0.3587397063809656,5.267692625855313,0.6934915212492293,-5.380391529219717,-5.646669006811825
26,1778471782,2.9351675304932545,0.287797534873018,5.019768794785409,1.514201534493919,-5.781094028679477,-5.9559369463733995
27,1778471782,2.7505776780269824,0.2168553633650705,4.771844963715505,2.334911547738609,-6.181796528139237,-6.265204885934973
28,1778471782,2.5659831,0.1459113757142857,4.523914785714285,3.1556425714285714,-6.582509285714286,-6.574480742857142
29,1778471782,1.3691611,-1.0665302,5.1015286,3.8716638,-6.86246,-7.809912
30,1778471782,1.05505945,-1.2467665,4.83257745,4.46145425,-6.91071835,-7.998669499999999
31,1778471782,0.7409578,-1.4270028,4.5636263,5.0512447,-6.9589767,-8.187427
32,1778471782,0.6965393725000001,-1.444330825,3.833163025,5.5814756999999995,-7.10711165,-8.253095
33,1778471782,0.6521209450000001,-1.46165885,3.10269975,6.1117067,-7.2552466,-8.318763
34,1778471783,0.66700846,-1.3108315,2.552595,6.1117067,-7.2552466,-8.318763
35,1778471783,0.5938738881793358,-1.3439413682510153,2.7142394412328907,5.643588255990374,-6.958167470215381,-8.350323794688876
36,1778471783,0.5207374440896679,-1.3770520841255076,2.8758880206164457,5.175457827995187,-6.66108073510769,-8.381885397344439
37,1778471783,0.447601,-1.4101628,3.0375366,4.7073274,-6.363994,-8.413447
38,1778471783,0.5422952,-1.4465274,3.120272,3.4874296,-2.456289,-7.3633695
39,1778471783,0.699468065,-1.4732516,2.73136665,4.06622455,-1.89704195,-7.13093545
40,1778471783,0.7626794160632915,-1.474431210065877,2.27460960238975,4.3312405281074,-1.761123306842424,-7.048162593680667
41,1778471783,0.8258907671265829,-1.4756108201317542,1.8178525547794997,4.5962565062148,-1.6252046636848485,-6.965389737361334
42,1778471783,0.8891005,-1.4767904,1.3611072,4.8612657,-1.4892895,-6.882619
43,1778471783,0.86884385,-1.479719,1.6612977,4.732984,-1.672549,-6.9156055
44,1778471783,0.90923525,-1.4459172,1.1805049,4.732984,-1.672549,-6.9156055
45,1778471783,0.810695881212224,-1.47075033036,1.1179339241017598,4.52635615519744,-1.6850719102912,-6.9838704987808
46,1778471783,0.712159035,-1.495582825,1.05536455,4.3197336,-1.6975945,-7.05213375
47,1778471783,0.613622188787776,-1.52041531964,0.99279517589824,4.11311104480256,-1.7101170897088,-7.1203970012191995
48,1778471783,0.5150828199999999,-1.54524845,0.9302242,3.9064832,-1.72264,-7.188662
49,1778471783,-0.26321574,-1.7797874,0.6539513699999999,3.5778377,-0.77396625,-7.113526
50,1778471783,-0.7020916700000001,-1.8619737,0.3691975899999999,3.94954935,-0.916297875,-6.567107
51,1778471783,-1.1409676,-1.94416,0.08444381,4.321261,-1.0586295,-6.020688
52,1778471783,-0.596964,-1.9041346,-0.7770783,4.7152686,-1.7256943,-5.2051826
53,1778471783,-0.102259986,-1.9168257,-1.1700104,5.237559,-3.6767979,-3.4159584
54,1778471783,-0.134109455,-2.391761,-1.701079,4.4806967,-4.3670754,-3.1899383
55,1778471783,-0.7370019471697615,-2.736933458981295,-1.3313385903170971,3.2806723740106496,-3.7508247841451343,-3.1134796382445304
56,1778471783,-1.339909873584881,-3.0821147544906475,-0.9615887151585486,2.080617327005325,-3.1345583920725675,-3.037019019122265
57,1778471783,-1.9428178,-3.42729605,-0.59183884,0.8805622799999999,-2.518292,-2.9605584
58,1778471783,-2.2333069,-3.606067975,-0.2085469199999999,0.0881173199999999,-1.4454599,-2.03861005
59,1778471783,-2.523796,-3.7848399,0.174745,-0.70432764,-0.3726278,-1.1166617
60,1778471783,-2.6541226,-4.1065073,0.4556549,-0.07513642,0.6621779,0.61391956
61,1778471783,-2.71696810441216,-4.08808063914176,0.2769416822500928,0.135309353671424,1.22311210486592,1.313521924795648
62,1778471783,-2.7798119999999997,-4.06965445,0.0982330395,0.34574974,1.78403195,2.01310638
63,1778471783,-2.73789568653568,-4.0112035731808,-0.049907811772832,0.564131274680576,2.54745102811072,3.300183015208192
64,1778471783,-2.6959783,-3.9527512,-0.1980524555,0.7825184000000001,3.31088965,4.5872926000000005
65,1778471783,-1.7933327,-3.7294388,-0.53302103,0.7984009,3.7158933,5.762292
66,1778471783,-1.344755475,-3.66415345,-0.736686795,0.7984009,3.7158933,5.762292
67,1778471783,-0.89617825,-3.5988681,-0.94035256,0.7984009,3.7158933,5.762292
68,1778471783,-0.3939084,-3.5576227,-0.9459658,-1.024421,5.779396,9.31936
69,1778471783,0.9765778226654837,-3.3457773345520407,-0.622543775334764,-2.692926142123273,5.756182703831483,11.09252859502334
70,1778471783,2.347028961332742,-3.1339373922760205,-0.299130030167382,-4.361388571061636,5.732970001915741,12.865651797511669
71,1778471783,3.7174801,-2.92209745,0.024283715,-6.029851,5.7097573,14.638775
72,1778471783,3.702446009802887,-2.7962724403183925,0.2435286860397669,-5.951659424328514,5.356055081885646,14.304964256821744
73,1778471783,3.6874119196057737,-2.6704474306367856,0.4627736570795338,-5.873467848657027,5.002352863771293,13.971153513643486
74,1778471783,3.6723782142764434,-2.5446256420341964,0.6820130155198834,-5.795278274664257,4.648659700317823,13.637351315910871
75,1778471783,3.657344508947113,-2.418803853431607,0.9012523739602328,-5.717088700671487,4.2949665368643535,13.30354911817826
76,1778471783,3.64231041875,-2.29297884375,1.1204973449999998,-5.638897125,3.94126431875,12.969738375
77,1778471783,3.627276328552887,-2.167153834068393,1.3397423160397668,-5.560705549328514,3.587562100635646,12.635927631821742
78,1778471783,3.612242623223557,-2.0413320454658037,1.5589816744801162,-5.482515975335743,3.2338689371821765,12.30212543408913
79,1778471783,3.597208917894226,-1.9155102568632143,1.7782210329204655,-5.404326401342973,2.880175773728707,11.968323236356516
80,1778471783,3.582174827697113,-1.7896852471816072,1.9974660039602328,-5.326134825671486,2.5264735556143534,11.634512493178258
81,1778471783,3.5671407375,-1.6638602375,2.216710975,-5.2479432500000005,2.1727713375,11.30070175
82,1778471783,2.8594967,-0.96317192,1.60967955,-3.1086931,1.1417072,8.381071
83,1778471783,2.07028665201792,-1.098194881683968,1.63219348681792,-3.71680176610944,1.83625200971264,7.314208506014721
84,1778471783,1.2810564,-1.2332213,1.654708,-4.324926,2.5308146,6.2473187
85,1778471783,1.0205615459447293,-1.3973119337776376,1.6471828215719322,-4.4525990789259895,2.9107793179815165,6.520991037281439
86,1778471783,0.7600733604723646,-1.5613983668888187,1.639657835785966,-4.580268889462995,3.2907343089907584,6.7946563686407195
87,1778471783,0.499585175,-1.7254848,1.63213285,-4.7079387,3.6706893,7.0683217
88,1778471783,1.4335311875,-1.61370655,1.3118077125,-4.34386285,1.9819523,8.275391350000001
89,1778471783,2.3674772,-1.5019283,0.991482575,-3.979787,0.2932153,9.482461
90,1778471783,3.3371083757080564,-0.915138330671832,1.1746459869855443,-3.979787,0.2932153,9.482461
91,1778471783,4.306739551416113,-0.3283483613436643,1.3578093989710889,-3.979787,0.2932153,9.482461
92,1778471783,5.27639555,0.25845663,1.5409775,-3.979787,0.2932153,9.482461
93,1778471783,5.650012809652948,0.9934882643793256,1.7677105361942878,-3.5303861636572313,-0.6257453167271113,8.57449617093193
94,1778471783,6.023620504826474,1.728501082189663,1.994437768097144,-3.0809968318286156,-1.5446824083635555,7.666554585465965
95,1778471783,6.3972282,2.4635139,2.221165,-2.6316075,-2.4636195,6.758613
96,1778471783,7.0909610999999995,3.078599125,1.143896315,-1.975996375,-1.56763294,4.726569895
97,1778471783,7.784694,3.69368435,0.06662763,-1.32038525,-0.6716463799999999,2.69452679
98,1778471783,7.0749755,3.541636725,0.60605519,-2.289675625,0.3251330100000001,0.99723762
99,1778471783,6.365257,3.3895891,1.14548275,-3.258966,1.3219124,-0.70005155
100,1778471783,6.041149,3.3345542,2.561625,-4.3805146,2.7079656,-0.99082345
101,1778471783,6.95454486631744,3.51619612498688,3.645008867136,-3.1453292798302717,2.93230874655552,-1.47784197125728
102,1778471783,7.86791735,3.6978334,4.728365,-1.91017558,3.1566461500000003,-1.964848025
103,1778471783,7.9321036534048,3.49252282800896,4.653318460608,0.5250075392570882,3.2432351666464,-3.13662531355872
104,1778471783,7.9962916,3.287207,4.57827,2.960253,3.3298264,-4.3084326
105,1778471783,7.9962916,1.7430568,2.1694248,2.960253,3.3298264,-4.3084326
106,1778471783,7.079917725,0.6390639000000001,0.912346974,5.0396385,2.5711318,-6.0142738
107,1778471783,6.16354385,-0.464929,-0.344730852,7.119024,1.8124372,-7.720115
108,1778471783,5.3690157,-1.0731196,-0.75486904,7.4690495,0.8167268,-10.299799
109,1778471783,4.966395595371501,-1.3544410678249297,-0.6191709007814007,6.249537987269919,0.8442162158133582,-10.68566891876232
110,1778471783,4.5637857976857505,-1.6357553339124649,-0.4834762353907003,5.0300576936349595,0.8717049279066791,-11.07152895938116
111,1778471783,4.161176,-1.9170696,-0.34778157,3.8105774,0.89919364,-11.457389
112,1778471783,2.9750579,-2.63288965,0.7736615,3.8105774,0.89919364,-11.457389
113,1778471783,2.74161411195776,-2.74601157294208,0.96219811323776,3.75040642982144,0.0400006724707839,-11.0865887538176
114,1778471783,2.5081763,-2.8591306,1.1507299,3.690237,-0.8191703,-10.715798
115,1778471783,2.5985983925824,-2.83911825616128,1.14902152186752,3.690237,-0.8191703,-10.715798
116,1778471783,2.6890228,-2.8191054,1.1473131,3.690237,-0.8191703,-10.715798
117,1778471783,2.5464914756224,-2.76766956662976,1.11119216265792,3.5268284083968,-1.40545572935744,-10.6951811111072
118,1778471783,2.4039638,-2.71623505,1.07507215,3.363424,-1.99172615,-10.67456475
119,1778471783,2.1252506,-2.6106803,1.1114367,3.209486,-2.0696115,-10.6467705
120,1778471783,2.084493,-2.3397768,1.3210819,3.209486,-2.0696115,-10.6467705
121,1778471783,2.119149,-2.2270224,1.5036367,1.5173893,-1.5674802,-9.5826435
122,1778471783,2.3474647,-1.97661955,1.97125035,1.15728423,-1.05404797,-9.27385075
123,1778471783,2.273987853289829,-1.9718410939982032,1.9042964001598488,1.2703829627556624,-0.8476825252852768,-9.214535169180897
124,1778471783,2.200509125548305,-1.9670625156663673,1.8373407362766416,1.383484590875944,-0.6413117975475462,-9.155218069863484
125,1778471783,2.127030397806781,-1.962283937334531,1.7703850723934342,1.4965862189962251,-0.4349410698098155,-9.095900970546072
126,1778471783,2.0535535510966096,-1.9575054813327344,1.7034311225532828,1.6096849517518874,-0.2285756250950922,-9.036585389726966
127,1778471783,1.980076704386439,-1.952727025330938,1.636477172713131,1.7227836845075497,-0.022210180380369,-8.97726980890786
128,1778471783,1.9065979766449144,-1.9479484469991015,1.5695215088299244,1.8358853126278312,0.1841605473573616,-8.917952709590448
129,1778471783,1.8331192489033905,-1.9431698686672656,1.5025658449467172,1.9489869407481129,0.3905312750950923,-8.858635610273035
130,1778471783,1.759642402193219,-1.938391412665469,1.4356118951065655,2.0620856735037747,0.5968967198098155,-8.799320029453929
131,1778471783,1.686165555483048,-1.9336129566636724,1.3686579452664145,2.175184406259437,0.8032621645245388,-8.740004448634824
132,1778471783,1.612686827741524,-1.928834378331836,1.301702281383207,2.2882860343797184,1.0096328922622697,-8.680687349317411
133,1778471783,1.5392081,-1.9240558,1.2347466175,2.4013876625,1.21600362,-8.62137025
134,1778471784,-0.5256993,-2.7222145,-0.4139211,5.188689,-0.12583824,-4.756808
135,1778471784,-0.5290347097416117,-2.8887400245946684,-1.055862044067652,4.840298279277742,-0.3520581324644161,-4.280137535280063
136,1778471784,-0.5323702048708059,-3.0552698122973343,-1.697819422033826,4.491898639638871,-0.578283816232208,-3.803454867640032
137,1778471784,-0.5357057,-3.2217996,-2.3397768,4.143499,-0.8045095,-3.3267722
138,1778471784,-0.55998937,-3.14089465,-2.2787625,2.7556131500000003,-0.439212095,-2.91993595
139,1778471784,-0.6293411063818821,-3.346916133855002,-1.8944602471757348,1.5593557830537257,0.2500357400197117,-2.664394994621463
140,1778471784,-0.698694618190941,-3.552942891927501,-1.5101481560878671,0.3630677915268627,0.9393012200098556,-2.408847497310731
141,1778471784,-0.7680481299999999,-3.75896965,-1.125836065,-0.8332202,1.6285667,-2.1533
142,1778471784,-1.214062765,-4.0222465,-0.66334758475,-0.8332202,1.6285667,-2.1533
143,1778471784,-1.6600774,-4.28552335,-0.2008591045,-0.8332202,1.6285667,-2.1533
144,1778471784,-2.028848,-4.3471475,0.014399378,0.9682214,2.1410828,-0.7703011
145,1778471784,-2.4068928,-4.0718513,-0.86298645,3.5534031,1.6536123,1.378112
146,1778471784,-2.197247525,-3.755919125,-1.3373117,3.3820554250000003,1.962710075,1.889711625
147,1778471784,-1.98760225,-3.43998695,-1.81163695,3.21070775,2.27180785,2.40131125
148,1778471784,-1.415288,-3.0677996,-1.8052914,2.8680124,2.8900034,3.4245105
149,1778471784,-1.1922196,-2.9474795,-1.4099188,-2.3365595,7.2247033,7.283957
150,1778471784,-1.1070437000000002,-3.11356045,-1.2251674,-2.3365595,7.2247033,7.283957
151,1778471784,-1.0218678,-3.2796414,-1.040416,-2.3365595,7.2247033,7.283957
152,1778471784,0.9096014,-3.3221073,-0.45589894,-5.203961,3.2449162,13.545937
153,1778471784,1.843746492538848,-3.1151838685519726,-0.1961362451067524,-5.330412158072141,2.5173632499219196,13.83569561181701
154,1778471784,2.777867671269424,-2.9082657342759863,0.0636197999466237,-5.45686007903607,1.7898289249609598,14.125446805908506
155,1778471784,3.71198885,-2.7013476,0.323375845,-5.583308,1.0622946,14.415198
156,1778471784,4.249219849999999,-2.168692675,0.7503539975000001,-5.4849588,0.657901835,12.8241995
157,1778471784,4.78645085,-1.6360377499999998,1.17733215,-5.3866096,0.25350907,11.233201
158,1778471784,4.239279069258962,-1.3519982238349817,1.263402265525613,-5.3866096,0.25350907,11.233201
159,1778471784,3.692107288517924,-1.067958697669963,1.3494723810512257,-5.3866096,0.25350907,11.233201
160,1778471784,3.1449215,-0.7839119,1.4355447,-5.3866096,0.25350907,11.233201
161,1778471784,3.4973404,-0.7812273,1.5624546,-4.3182063,0.52656585,8.827003
162,1778471784,3.0972084750000004,-0.811307335,1.4325550500000002,-4.082565125,0.065820735,8.52477725
163,1778471784,2.69707655,-0.84138737,1.3026555000000002,-3.84692395,-0.3949243799999999,8.2225515
164,1778471784,2.5606487,-0.8293065,1.1695224,-3.7849212,-0.61575216,8.172766
165,1778471784,2.5725466022912,-0.770915082599424,0.915150454080768,-4.09539744904512,-0.584903085136896,8.014702651815039
166,1778471784,2.5844442,-0.71252516,0.6607850200000001,-4.40586575,-0.5540548000000001,7.85664335
167,1778471784,2.24166575,-0.83833665,0.468956005,-6.46112185,0.3680462999999999,7.09764315
168,1778471784,2.06295485,-0.984771025,0.5548031449999999,-7.1794992749999995,0.7078401,6.870095875
169,1778471784,1.88424395,-1.1312054,0.640650285,-7.8978767,1.0476339,6.6425486
170,1778471784,1.7262169,-1.308391,0.80587703,-9.640064,1.1203269,6.5704665
171,1778471784,1.7454971042803018,-1.3513443002542922,1.189528505597672,-9.854066847637984,0.7283617062915998,6.793123199943681
172,1778471784,1.7647778021401508,-1.394298700127146,1.573189802798836,-10.068075173818992,0.3363864781457999,7.01578559997184
173,1778471784,1.7840585,-1.4372531,1.9568511,-10.2820835,-0.0555887499999999,7.238448
174,1778471784,1.89144273364281,-0.9549594272920204,2.6086410546545267,-9.662264289191633,-0.2017879124178449,7.519545267939277
175,1778471784,1.9988269672856205,-0.4726657545840408,3.260431009309053,-9.042445078383269,-0.3479870748356899,7.800642535878553
176,1778471784,2.10621395,0.0096402649999999,3.91223765,-8.42261,-0.49418998,8.081747
177,1778471784,2.4403050122763204,0.2935227543549805,3.892089131868683,-8.18019553634185,-0.4695175309526173,8.076554585367061
178,1778471784,2.77438752193092,0.5773979764112549,3.871941129532829,-7.937787278414538,-0.4448457135118456,8.071362303658235
179,1778471784,3.1084700315855196,0.8612731984675294,3.8517931271969745,-7.695379020487225,-0.420173896071074,8.066170021949409
180,1778471784,3.44256109386184,1.1451556878225098,3.831644609065658,-7.452964556829076,-0.3955014470236913,8.06097760731647
181,1778471784,3.776652156138161,1.4290381771774905,3.811496090934342,-7.210550093170926,-0.3708289979763086,8.05578519268353
182,1778471784,4.11073466579276,1.7129133992337646,3.7913480885984874,-6.968141835243613,-0.346157180535537,8.050592910974704
183,1778471784,4.444817175447359,1.9967886212900392,3.771200086262633,-6.7257335773163,-0.3214853630947654,8.04540062926588
184,1778471784,4.77890823772368,2.2806711106450197,3.751051568131317,-6.48331911365815,-0.2968129140473827,8.040208214632939
185,1778471784,5.1129993,2.5645536,3.73090305,-6.240904650000001,-0.272140465,8.0350158
186,1778471784,7.4833139375,3.6681804875,4.2938210625,-0.3043636625000001,-0.3066543749999999,0.1550069250000002
187,1778471784,6.064090500000001,1.1496316,0.936447625,5.7735927,3.98895,-5.9715133
188,1778471784,5.405130376945592,0.5689737984501826,0.6828699894985408,5.619347983795269,3.4277636779380143,-7.065684203472198
189,1778471784,4.746170253891184,-0.0116840030996347,0.4292923539970816,5.465103267590538,2.866577355876028,-8.159855106944397
190,1778471784,4.087227,-0.59232694,0.17572121,5.3108625,2.3054054,-9.253998
191,1778471784,3.45433350114048,-1.116372137135616,0.448451689005184,5.1401279354303995,2.0992410389376,-9.7463486978304
192,1778471784,2.8214238,-1.64043075,0.7211891500000001,4.969389,1.8930714,-10.238712
193,1778471784,2.2094502,-2.0820522,0.81685966,5.3951616,1.2345587,-10.351111
194,1778471784,1.96222025,-2.1987116,0.79855533,5.574450799999999,0.90499687,-10.3278985
195,1778471784,1.7149903,-2.315371,0.780251,5.75374,0.57543504,-10.304686
196,1778471784,1.5756336,-2.3385565,0.699224,6.2845817,-1.6303993,-9.834319
197,1778471784,1.46470955,-2.1889494999999997,0.5610876499999999,6.18439985,-1.87169115,-9.7350535
198,1778471784,1.412237697765537,-2.0601696989350353,0.629056996654151,5.797114538210296,-2.1392478501536005,-9.54986124699412
199,1778471784,1.3597658455310742,-1.9313898978700708,0.697026343308302,5.409829226420593,-2.4068045503072013,-9.36466899398824
200,1778471784,1.30729265,-1.8026068,0.76499743,5.022534,-2.6743681,-9.179472
201,1778471784,1.2748326095168,-1.62438169374784,0.8634758155072,3.803842250945281,-2.092511434830016,-8.5835651224896
202,1778471784,1.2423734,-1.44616115,0.96195168,2.5851817,-1.510669665,-7.9876735
203,1778471784,1.3521566263422875,-1.3051798561115473,1.132788804342424,2.2321076258746633,-1.216644904753473,-7.745367802070177
204,1778471784,1.461942663171144,-1.1641949530557736,1.303630302171212,1.8790245129373315,-0.9226126173767364,-7.503055901035089
205,1778471784,1.5717287,-1.02321005,1.4744718,1.5259414,-0.62858033,-7.260744
206,1778471784,1.7185291,-0.9576806575,1.559220675,1.6319264999999998,0.0224493,-6.976844600000001
207,1778471784,1.8653295,-0.892151265,1.64396955,1.7379116,0.67347893,-6.6929452000000005
208,1778471784,1.830185275,-0.9509080425,1.3665374875,2.2391265,0.679740295,-6.827182850000001
209,1778471784,1.79504105,-1.00966482,1.089105425,2.7403414,0.68600166,-6.9614205
210,1778471784,1.5037205459667882,-1.1432850230930052,0.8174720396345585,2.91911980773806,0.6126984555286848,-7.097031376105711
211,1778471784,1.2124000419335763,-1.2769052261860103,0.5458386542691169,3.097898215476119,0.5393952510573699,-7.232642252211423
212,1778471784,0.92107208,-1.41052885,0.274198315,3.2766812,0.46609017,-7.3682566
213,1778471784,0.58048582055168,-1.50479713161856,0.1560120817355776,3.32829996071168,0.195167972240256,-7.19782311847936
214,1778471784,0.23990828,-1.599063,0.037828874,3.3799174,-0.07574729,-7.027394
215,1778471784,-0.1311149958412799,-1.69985738481536,-0.1879822100811264,3.3765576930048,-0.391866011128576,-6.2456490564633595
216,1778471784,-0.50214777,-1.80065435,-0.413799075,3.3731979,-0.707992825,-5.4638841
217,1778471784,-0.8498074,-2.0683851,-0.77903074,3.1661146,-1.1337659,-4.4269404
218,1778471784,-0.9081371,-2.3644266,-1.121199,2.4966063,-1.5137241,-3.3835826
219,1778471784,-1.06713833975808,-2.6485055887424,-1.15158371107072,2.18369458032128,-1.46119037244032,-3.20368507771776
220,1778471784,-1.22614365,-2.93259185,-1.1819692,1.87077485,-1.4086553,-3.02378295
221,1778471784,-1.519809283872,-3.10807132110848,-0.987331051163584,0.7383688953893118,-0.84665205645056,-2.58548151481344
222,1778471784,-1.8134674,-3.2835463000000003,-0.7926978849999999,-0.39400807,-0.2846632,-2.1471913
223,1778471784,-2.0544098158976,-3.4042311052147203,-0.4922672880608639,-0.769379930178688,0.1566812807183359,-1.4474541567500798
224,1778471784,-2.2953584,-3.524919,-0.191829,-1.1447614,0.59803706,-0.7476991
225,1778471784,-2.11066573596416,-3.52125800313984,0.035208161038464,-1.00212254924608,0.693333264775808,-0.3776627385952
226,1778471784,-1.9259778,-3.5175970999999997,0.26223951,-0.85948735,0.78862703,-0.00763585
227,1778471784,-2.0092012500000003,-3.44706455,-0.0512520199999999,0.091935215,1.8344283,2.0137172999999997
228,1778471784,-1.7714337249021928,-3.3908937494148077,-0.0361400167494453,-0.1339610670624848,2.0435687841086243,2.6518845743362625
229,1778471784,-1.5336661998043857,-3.334722948829616,-0.0210280134988906,-0.3598573491249697,2.252709268217249,3.290051848672525
230,1778471784,-1.2959047614773098,-3.278553586198513,-0.0059163971106673,-0.5857478483166546,2.4618443983980107,3.9282027861356767
231,1778471784,-1.0581433231502342,-3.22238422356741,0.0091952192775559,-0.8116383475083394,2.6709795285787723,4.566353723598828
232,1778471784,-0.8203757980524268,-3.166213422982218,0.0243072225281105,-1.0375346295708243,2.8801200126873967,5.204520997935091
233,1778471784,-0.5826082729546193,-3.110042622397026,0.0394192257786652,-1.2634309116333091,3.0892604967960215,5.842688272271354
234,1778471785,-0.3448468346275437,-3.0538732597659233,0.0545308421668885,-1.489321410824994,3.298395626976783,6.480839209734505
235,1778471785,-0.107085396300468,-2.99770389713482,0.0696424585551118,-1.715211910016679,3.5075307571575447,7.118990147197657
236,1778471785,0.1306821287973393,-2.941533096549628,0.0847544618056664,-1.9411081920791635,3.716671241266169,7.757157421533919
237,1778471785,0.3684496538951468,-2.8853622959644363,0.0998664650562211,-2.1670044741416485,3.925811725374794,8.395324695870181
238,1778471785,0.6062110922222224,-2.829192933333333,0.1149780814444444,-2.3928949733333336,4.1349468555555555,9.033475633333332
239,1778471785,2.6634789127459415,-2.29284333202944,1.2064965691067435,-3.121579959379456,2.2385399670966617,10.89231452322432
240,1778471785,4.7207994,-1.75648,2.298043,-3.8502836,0.34208453,12.751201
241,1778471785,4.275395,-1.7335385,2.3905408,-1.9065105,0.72509706,10.731681
242,1778471785,3.7626305,-1.922927,2.1408703,-2.715296,0.058643065,11.378587
243,1778471785,3.43828260170624,-2.21335138252032,1.7896762953408,-2.17713058860544,1.287382804430016,11.2554990755456
244,1778471785,3.1139264,-2.5037832,1.4384733,-1.6389514,2.516154,11.132408
245,1778471785,3.7699523,-2.6802368,1.2354177,-1.6389514,2.516154,11.132408
246,1778471785,4.3083425,-2.639723,1.445307,-2.679255,2.7574458,12.082914
247,1778471785,4.7389814999999995,-2.0502029,2.3464885,-3.627318,2.293188,12.120789
248,1778471785,4.472898249999999,-1.7859499,2.87298095,-3.5579847499999997,2.18139975,11.4912915
249,1778471785,4.206815,-1.5216969,3.3994734,-3.4886515,2.0696115,10.861794
250,1778471785,2.64655675,-1.59576835,3.5810521,-3.4886515,2.0696115,10.861794
251,1778471785,2.56913056606784,-1.84024954560064,2.96756105278592,-1.551469848742528,3.47198744935808,10.8138418637952
252,1778471785,2.4917024000000003,-2.084737,2.3540543,0.385761395,4.8743993,10.7658885
253,1778471785,3.0301606046768,-1.974391212592,1.922586038526944,0.151262503452608,4.909295371664,10.8595048232736
254,1778471785,3.568605025,-1.86404825,1.4911288225,-0.0832303849999999,4.94419055,10.95311875
255,1778471785,4.1070494453232,-1.753705287408,1.059671606473056,-0.317723273452608,4.979085728336,11.0467326767264
256,1778471785,4.64550765,-1.6433595,0.628203345,-0.552222165,5.0139818,11.140349
257,1778471785,6.27320715928704,-0.0808239498009597,0.793554238964352,0.200984328419712,3.59186939719424,10.5429156029504
258,1778471785,7.900865,1.4816716,0.9589009,0.95417154,2.1697934,9.9454975
259,1778471785,7.94857768926976,2.7322659921868797,-0.644107523729536,1.672081715632128,1.79075635173632,8.91085766855936
260,1778471785,7.9962916,3.9828924,-2.247156985,2.39001027,1.4117096,7.87619135
261,1778471785,7.8507903834776895,3.729434574375144,-3.2716048736868424,1.7924720821454598,0.8525547272123187,5.134886675665731
262,1778471785,7.705292891738845,3.475983237187572,-4.296026536843421,1.19494919107273,0.2934141686061594,2.393652177832866
263,1778471785,7.5597954,3.2225319,-5.3204481999999995,0.5974263000000002,-0.26572639,-0.34758232
264,1778471785,7.72069025,2.615439475,-4.095158574999999,-2.42360785,-0.0088575499999999,-1.81518616
265,1778471785,7.8815851,2.00834705,-2.86986895,-5.444642,0.24801129,-3.28279
266,1778471785,7.85034585,1.658979125,-2.027993575,-5.88965725,0.19730947,-3.81454815
267,1778471785,7.8191066,1.3096112,-1.1861182,-6.3346725,0.14660765,-4.3463063
268,1778471785,7.62386,0.6152683,1.154879,-4.874094,-0.83260936,-6.7060785
269,1778471785,7.58182073690432,0.2921933946941439,1.63378635493568,-2.8562274466387203,-1.132853448075136,-7.6417834768704
270,1778471785,7.53978255,-0.0308732399999999,2.1126814499999997,-0.83841255,-1.43308985,-8.5774645
271,1778471785,6.99120992181952,-0.563460377797376,1.494614451358848,-0.0048975941279999,-1.652845787088,-9.032094930656
272,1778471785,6.4426232500000005,-1.0960611500000002,0.87653163,0.8286387,-1.87260735,-9.486737
273,1778471785,5.907551401168,-1.36635797225504,0.7187160874244112,0.704860545659904,-2.36000770114464,-9.9311471883776
274,1778471785,5.372493250000001,-1.6366478750000002,0.5609045848750001,0.58108556,-2.847395575,-10.375546
275,1778471785,4.8374350988320005,-1.9069377777449603,0.4030930823255888,0.457310574340096,-3.33478344885536,-10.8199448116224
276,1778471785,4.30236325,-2.1772346,0.24527753975,0.33353242,-3.8221838,-11.264355
277,1778471785,3.68855136830848,-2.25069686530496,0.6183238198062656,0.33353242,-3.8221838,-11.264355
278,1778471785,3.0747552,-2.32415725,0.99136055,0.33353242,-3.8221838,-11.264355
279,1778471785,3.0937304571136,-2.23044037459136,1.11887884274496,-0.073298632495872,-3.45811281016832,-10.9152499686016
280,1778471785,3.1127062,-2.1367211,1.2464004,-0.4801401,-3.0940325,-10.566136
281,1778471785,3.2288775,-2.1259825,1.3413386,-0.8753699,-2.388483,-9.888686
282,1778471785,3.211107594188386,-2.128423066119394,1.3558083412723974,-0.815994406123951,-2.3315305887557116,-9.934256150022357
283,1778471785,3.1933376883767735,-2.130863632238788,1.3702780825447944,-0.756618912247902,-2.2745781775114233,-9.979826300044715
284,1778471785,3.1755673276497487,-2.133304260837475,1.38474819424731,-0.6972418983397533,-2.217624308266745,-10.025397616677845
285,1778471785,3.157796966922724,-2.1357448894361615,1.399218305949825,-0.6378648844316046,-2.160670439022066,-10.070968933310976
286,1778471785,3.1400270611111107,-2.1381854555555555,1.4136880472222224,-0.5784893905555556,-2.1037180277777776,-10.116539083333333
287,1778471785,3.122257155299498,-2.1406260216749495,1.4281577884946195,-0.5191138966795066,-2.0467656165334893,-10.162109233355691
288,1778471785,3.1044867945724732,-2.143066650273636,1.4426279001971347,-0.4597368827713579,-1.9898117472888108,-10.207680549988822
289,1778471785,3.0867164338454485,-2.145507278872323,1.4570980118996502,-0.4003598688632092,-1.932857878044132,-10.253251866621952
290,1778471785,3.0689465280338353,-2.147947844991717,1.4715677531720472,-0.3409843749871601,-1.875905466799844,-10.29882201664431
291,1778471785,3.051176622222222,-2.150388411111111,1.4860374944444446,-0.2816088811111111,-1.8189530555555555,-10.344392166666667
292,1778471785,2.9301513999999997,-1.7762486000000002,0.928393775,-0.07269296,0.33292156,-9.533163
293,1778471785,2.830088,-1.8360426,0.9066727,-0.03481932,0.8735373,-9.852646
294,1778471785,2.363373138240021,-1.922682260665432,0.9637816237753905,0.3931220459647117,0.6158222391966686,-9.698980533517654
295,1778471785,1.896658276480042,-2.0093219213308644,1.0208905475507808,0.8210634119294233,0.3581071783933371,-9.54531506703531
296,1778471785,1.4299314666666667,-2.0959638,1.0780009333333334,1.2490157333333334,0.10038552,-9.391645666666667
297,1778471785,0.9462037766981548,-2.1549043044288,0.8840949347016533,2.0649385603451735,-0.1990440926499839,-8.697286945655467
298,1778471785,0.46248847,-2.2138433,0.6901939,2.8808405,-0.49846604,-8.002946
299,1778471785,0.0576026751045119,-2.47736077693312,0.081461894369408,3.49811204882304,-0.569325512987136,-7.06772312100608
300,1778471785,-0.347293485,-2.740885,-0.527285695,4.1153994,-0.6401868,-6.1324763
301,1778471785,-0.6187496270941439,-2.98104039894976,-1.223589935080192,3.205656625441536,-0.4343225699715839,-5.42829236156096
302,1778471785,-0.89019882,-3.22118965,-1.91987635,2.29593714,-0.2284636099999999,-4.72412645
303,1778471785,-1.125018572358262,-3.445352407573301,-1.4046396168194697,1.6894600706744718,-0.0912248889041539,-4.254684511911629
304,1778471785,-1.359844336179131,-3.6695209037866503,-0.8893896934097348,1.0829674753372358,0.046017345547923,-3.7852305559558146
305,1778471785,-1.5946701,-3.8936894,-0.37413977,0.47647488,0.18325958,-3.3157766
306,1778471785,-1.8433644,-4.057696,0.0651632899999999,-0.51159966,0.99876469,-2.4404067
307,1778471785,-2.0920587,-4.2217026,0.50446635,-1.4996742,1.8142698,-1.5650368
308,1778471785,-2.235321589161006,-4.242203441604943,0.165305239195566,-0.3711928370822953,1.9091583430385364,-0.298702327417483
309,1778471785,-2.3785844783220123,-4.262704283209885,-0.1738558716088679,0.7572885258354095,2.004046886077073,0.9676321451650338
310,1778471785,-2.5218437,-4.2832046,-0.5130083,1.885741,2.098933,2.2339342
311,1778471785,-2.7297804,-4.1233473,-0.9034999,1.9339994,1.10139,0.40866885
312,1778471785,-2.2504519,-3.79228355,-1.0848345,1.9098702,1.6001615,1.321301525
313,1778471785,-1.7711234,-3.4612198,-1.2661691,1.885741,2.098933,2.2339342
314,1778471785,-1.465441725,-3.412957475,-1.10289475,-0.10812315,3.908163075,4.66487235
315,1778471785,-1.15976005,-3.36469515,-0.9396204,-2.1019873,5.7173931499999995,7.095810500000001
316,1778471785,-0.4981208500000001,-3.36994235,-0.7706717750000001,-3.5854735,5.60636845,9.19901975
317,1778471785,0.1635183499999999,-3.37518955,-0.60172315,-5.0689597,5.49534375,11.302229
318,1778471785,0.8717725,-3.3836095,-0.45174995,-5.7983327,4.538118,12.635748
319,1778471785,2.2548271716736,-3.06420376344576,0.0160407822019839,-5.92126785140992,3.381459440419072,12.8950568058048
320,1778471785,3.63791725,-2.74478985,0.48384349,-6.04420615,2.2247712699999997,13.15437225
321,1778471785,4.19437489756672,-2.46479154106752,0.940175385973504,-6.22334471794432,1.740348884472832,13.475080730016
322,1778471785,4.7508183,-2.1848004,1.3964956,-6.4024787,1.2559389,13.795781
323,1778471785,4.9323974,-1.3713577,2.4659543,-4.2418485,-1.5534303,11.640038
324,1778471785,4.448431525,-0.993801135,2.046419975,-3.264616725,-0.6386596075,10.52963725
325,1778471785,3.96446565,-0.61624457,1.62688565,-2.28738495,0.276111085,9.4192365
326,1778471785,3.40514755,-0.6117905225,1.08892245,-2.5541803749999996,0.5800165425,8.88732525
327,1778471785,2.84582945,-0.6073364750000001,0.55095925,-2.8209758,0.883922,8.355414
328,1778471785,2.3441699,-0.74510676,0.5869577,-3.4868188,0.89919364,8.195368
329,1778471785,2.2913712989154087,-0.7827735728387107,0.7204185943701094,-4.27179406340635,0.9002117673758182,8.24220179928661
330,1778471785,2.2385740494577044,-0.8204394214193554,0.8538760721850547,-5.056749231703176,0.9012298686879092,8.289034399643306
331,1778471785,2.1857768,-0.85810527,0.98733355,-5.8417044,0.90224797,8.335867
332,1778471785,2.144043,-0.804534765,1.1830675,-6.1676009,1.049161035,8.27844575
333,1778471785,2.162220761616612,-0.7427034204777833,1.353331490071414,-6.5413088935804105,1.0734809545252308,8.00406823627368
334,1778471786,2.1803980578884827,-0.6808736588177258,1.5235911214404736,-6.91500732035864,1.0978002514684908,7.729697746521803
335,1778471786,2.198575354160354,-0.6190438971576683,1.6938507528095332,-7.288705747136869,1.1221195484117508,7.455327256769928
336,1778471786,2.216753115776966,-0.5572125526354516,1.8641147428809477,-7.662413740717279,1.1464394679369816,7.180949743043607
337,1778471786,2.2349308773935777,-0.4953812081132349,2.0343787329523613,-8.036121734297689,1.1707593874622124,6.906572229317287
338,1778471786,2.253108173665449,-0.4335514464531773,2.204638364321421,-8.409820161075919,1.1950786844054724,6.632201739565411
339,1778471786,2.2712854699373195,-0.3717216847931198,2.3748979956904805,-8.783518587854148,1.2193979813487326,6.357831249813535
340,1778471786,2.2894632315539316,-0.3098903402709031,2.545161985761895,-9.15722658143456,1.2437179008739634,6.083453736087215
341,1778471786,2.3076409931705437,-0.2480589957486864,2.715425975833309,-9.53093457501497,1.268037820399194,5.809076222360894
342,1778471786,2.3258182894424144,-0.1862292340886289,2.8856856072023684,-9.9046330017932,1.2923571173424542,5.5347057326090185
343,1778471786,2.3439955857142856,-0.1243994724285714,3.0559452385714283,-10.278331428571429,1.316676414285714,5.260335242857143
344,1778471786,3.8760299928571422,0.9667456137857144,4.412119119285714,-4.694150364285714,-0.6379178428571429,3.0864839714285712
345,1778471786,5.4080644,2.0578907,5.768293,0.8900307,-2.5925121,0.9126327
346,1778471786,6.215162,2.331723,5.4090405,0.8900307,-2.5925121,0.9126327
347,1778471786,7.1871195,2.6271541999999997,5.351931349999999,1.1911873,-1.844813,0.258396
348,1778471786,7.484259,2.6917074,5.3136144,1.9468275,0.7263188,-1.5851953
349,1778471786,7.26265248847296,2.3676562521983997,4.96839095619648,2.229661745232,1.1711871192416,-2.02242767150272
350,1778471786,7.04105165,2.0436134,4.62317635,2.51248875,1.61604405,-2.45964885
351,1778471786,6.3452444,1.3306,3.6369412,4.2277985,3.1343496,-4.4984117
352,1778471786,5.2630944,0.53131264,2.1686926,5.1392093,3.2198708,-5.277265
353,1778471786,4.7237186281046535,0.1812472189599528,1.6918779958015822,5.579650616768925,3.044956714837823,-5.7097650479063375
354,1778471786,4.184356664052326,-0.1688092405200235,1.215075597900791,6.020080658384463,2.8700471074189116,-6.142254023953169
355,1778471786,3.6449947,-0.5188657,0.7382732,6.4605107,2.6951375,-6.574743
356,1778471786,4.349832,-0.01952458,1.1712307,6.3389487,2.6224444,-7.392691
357,1778471786,3.6449947,-0.5188657,0.7382732,5.8093286,2.941927,-7.9210896
358,1778471786,2.8393621,-1.1924638,0.87079626,5.8093286,2.941927,-7.9210896
359,1778471786,2.63106194127616,-1.47696983327616,0.824425973547264,6.18195153036544,2.231499843584,-8.44306711860224
360,1778471786,2.4227564499999996,-1.76148315,0.7780545,6.554584,1.5210545,-8.965058
361,1778471786,2.3204341027907196,-1.85932086480672,0.686653885087104,6.618114813184,1.048696888899968,-9.0846365305856
362,1778471786,2.218114375,-1.957156075,0.5952556099999999,6.681644,0.57635137,-9.204212
363,1778471786,2.11579464720928,-2.0549912851932803,0.503857334912896,6.745173186815999,0.104005851100032,-9.3237874694144
364,1778471786,2.0134723,-2.152829,0.41245672,6.808704,-0.36835176,-9.443366
365,1778471786,1.6562945,-2.0559383,0.18096845,6.423859,-0.8616254799999999,-9.552711
366,1778471786,1.6067106564542142,-1.9457067073216312,0.2355961338377977,5.352614074740372,-1.1248043075119254,-9.37535784676628
367,1778471786,1.5571268129084284,-1.8354751146432624,0.2902238176755954,4.281369149480745,-1.3879831350238507,-9.19800469353256
368,1778471786,1.5075417,-1.7252407,0.3448529,3.2100968,-1.6511687,-9.020647
369,1778471786,1.5895462995272511,-1.6261517755706691,0.4798595374171197,3.2100968,-1.6511687,-9.020647
370,1778471786,1.6715487997636256,-1.5270653877853346,0.6148627187085599,3.2100968,-1.6511687,-9.020647
371,1778471786,1.7535512999999998,-1.427979,0.7498659000000001,3.2100968,-1.6511687,-9.020647
372,1778471786,1.832137775,-1.356165125,0.8804975500000001,2.223244025,-0.6956227749999999,-8.5770061
373,1778471786,1.91072425,-1.2843512499999998,1.0111292,1.23639125,0.25992315,-8.1333652
374,1778471786,1.939414266286505,-1.258766140551284,1.062597727462944,1.316006653939857,0.6523328402833363,-8.018014506560739
375,1778471786,1.96810428257301,-1.2331810311025682,1.1140662549258875,1.3956220578797136,1.0447425305666729,-7.902663813121478
376,1778471786,1.9967950333333333,-1.2075952666666667,1.1655361,1.4752395,1.4371622666666666,-7.787310166666667
377,1778471786,1.0150341,-1.5209647,1.1243718,1.1032226,1.6762142,-7.7366085
378,1778471786,1.359887,-1.42980935,1.1386491,3.454443,0.40439278,-7.4983706
379,1778471786,0.865677390963968,-1.53420358873664,0.905028260385024,3.454443,0.40439278,-7.4983706
380,1778471786,0.37145513,-1.6386005,0.67140144,3.454443,0.40439278,-7.4983706
381,1778471786,0.012202863,-1.8792408,-0.17035197,4.5680504,-0.16126843,-6.60101
382,1778471786,-0.1134634505409881,-1.98582437287288,-0.217085515087066,4.280670538007987,-0.0551317578191563,-6.188953176743205
383,1778471786,-0.2391297640819762,-2.09240794574576,-0.2638190601741321,3.9932906760159743,0.0510049143616872,-5.776896353486409
384,1778471786,-0.3647992947217698,-2.1989942471930313,-0.3105538016552662,3.705903457005325,0.1571443036761179,-5.3648289814399135
385,1778471786,-0.4904688253615634,-2.3055805486403025,-0.3572885431364003,3.418516237994675,0.2632836929905487,-4.952761609393419
386,1778471786,-0.6161351389025516,-2.4121641215131824,-0.4040220882234664,3.131136376002662,0.3694203651713923,-4.540704786136623
387,1778471786,-0.7418014524435397,-2.5187476943860623,-0.4507556333105325,2.8437565140106495,0.4755570373522359,-4.128647962879828
388,1778471786,-0.8674709830833333,-2.6253339958333335,-0.4974903747916666,2.5563692949999997,0.5816964266666667,-3.716580590833333
389,1778471786,-0.993140513723127,-2.7319202972806047,-0.5442251162728007,2.26898207598935,0.6878358159810973,-3.304513218786838
390,1778471786,-1.118806827264115,-2.8385038701534846,-0.5909586613598667,1.9816022139973373,0.793972488161941,-2.892456395530042
391,1778471786,-1.244473140805103,-2.9450874430263645,-0.6376922064469328,1.6942223520053246,0.9001091603427845,-2.4803995722732473
392,1778471786,-1.3701426714448968,-3.0516737444736357,-0.6844269479280669,1.4068351329946749,1.006248549657215,-2.0683322002267523
393,1778471786,-1.4958122020846905,-3.158260045920907,-0.7311616894092011,1.1194479139840254,1.112387938971646,-1.656264828180257
394,1778471786,-1.6214785156256786,-3.264843618793787,-0.7778952344962672,0.8320680519920125,1.2185246111524897,-1.2442080049234616
395,1778471786,-1.7471448291666667,-3.3714271916666667,-0.8246287795833332,0.54468819,1.324661283333333,-0.8321511816666667
396,1778471786,-1.7183155645833332,-3.299847245833333,-1.2064766897916666,0.260432223,3.189174641666667,2.2109504091666667
397,1778471786,-1.6894863,-3.2282672999999997,-1.5883246,-0.023823744,5.053688,5.254052
398,1778471786,-1.119251405733383,-3.1969062009514704,-1.4318852349663358,-0.6872177682985313,5.3016972169609256,6.023328435423724
399,1778471786,-0.5490165114667668,-3.1655451019029415,-1.2754458699326716,-1.3506117925970629,5.549706433921852,6.792604870847448
400,1778471786,0.021232981,-3.1341832,-1.1190025,-2.0140228,5.797722,7.561901
401,1778471786,0.9279056,-3.0424178,-0.6782351,-4.6199737,4.0054436,11.0713215
402,1778471786,2.2996293,-2.6642509999999997,0.0535705749999999,-4.87348285,3.5100318,11.47968475
403,1778471786,3.671353,-2.2860842,0.78537625,-5.126992,3.01462,11.888048
404,1778471786,3.998634,-1.80394915,1.4943625749999998,-4.309959800000001,1.2162327,11.605523
405,1778471786,4.325915,-1.3218141,2.2033489,-3.4929276,-0.5821546,11.322998
406,1778471786,4.34251,-1.6791137,1.8741156,-3.4929276,-0.5821546,11.322998
407,1778471786,4.236346,-1.0289453,2.209206,-3.4929276,-0.5821546,11.322998
408,1778471786,3.6032615,-0.76756,1.5009521,-2.742785,-0.13072516,10.726793
409,1778471786,3.11684907400064,-0.775491976528,1.1074047401582718,-2.50637707401728,0.24190740963584,9.4042530717056
410,1778471786,2.6304491,-0.78342375,0.7138674549999999,-2.2699752,0.61453044,8.081747
411,1778471786,2.52800743627008,-0.76231309521984,0.6344278343401599,-2.59388235393536,0.602771430517248,8.00768059806208
412,1778471786,2.4255631500000003,-0.7412019000000001,0.55498618,-2.9177978,0.59101212,7.9336123
413,1778471786,2.312196565235052,-0.7599132526696648,0.762356992416565,-3.684548619046481,0.7994225368255865,7.644566267010846
414,1778471786,2.198832882617526,-0.7786241263348324,0.9697224962082824,-4.45127980952324,1.0078276184127932,7.355527633505423
415,1778471786,2.0854692,-0.797335,1.177088,-5.218011,1.2162327,7.066489
416,1778471786,1.5878365,-0.895202,1.6505592,-5.470909,1.4404203,6.871623
417,1778471786,1.4986324082022402,-0.9452343904064,1.70596085913216,-5.51733549425152,1.58428084139136,6.793125795248639
418,1778471786,1.4094306,-0.9952655,1.7613611,-5.5637608,1.7281377,6.7146306
419,1778471786,1.87905173877248,-0.702583576376576,1.80504681581568,-4.8777677808230395,0.8149058845168641,7.22591850543104
420,1778471786,2.3486849,-0.40989416,1.84873365,-4.1917572,-0.09834931,7.7372195
421,1778471786,2.8173641153562254,0.0433278848905595,2.1319262830924077,-4.010327170300459,-0.2005691745300246,7.709526327375904
422,1778471786,3.2860313326781125,0.4965383274452798,2.415111666546204,-3.82890178515023,-0.3027864222650123,7.681833863687952
423,1778471786,3.75469855,0.94974877,2.69829705,-3.6474764,-0.40500367,7.6541414
424,1778471786,4.146898599999999,2.0892520849999996,2.393896625,-0.7538077500000002,1.523497865,6.0194662
425,1778471786,4.53909865,3.2287554,2.0894962,2.1398609,3.4519994,4.384791
426,1778471786,5.575182625,4.1271911999999995,0.6542564999999999,2.1398609,3.4519994,4.384791
427,1778471786,6.6112666,5.025627,-0.7809832,2.1398609,3.4519994,4.384791
428,1778471786,6.767463,5.21892,-1.4221216,2.7812696,0.047647487,2.1252003
429,1778471786,6.82963764582528,5.04539320388544,-1.187640593681536,2.16993835006016,-1.0273363911175168,1.2533316637243008
430,1778471786,6.8918107,4.8718708500000005,-0.95316559,1.55862275,-2.10229275,0.381485347
431,1778471786,7.08640222892873,4.600809242843978,-0.0093716509560705,0.2215633361060859,-1.081452555895655,-0.5101590744070893
432,1778471786,7.280998739464365,4.329740696421989,0.9344464495219648,-1.115530306946957,-0.0605862279478276,-1.4018263222035443
433,1778471786,7.47559525,4.05867215,1.87826455,-2.45262395,0.9602801,-2.29349357
434,1778471787,6.60547025,2.997633175,2.169058775,-0.986241925,1.9517145,-4.205043785
435,1778471787,5.73534525,1.9365942,2.459853,0.4801401,2.9431489,-6.116594
436,1778471787,5.124104,1.1990532325,2.0502639,2.6068675,1.01510538,-7.262577125
437,1778471787,4.51286275,0.461512265,1.6406747999999998,4.7335949,-0.91293814,-8.408560249999999
438,1778471787,4.3031407612117825,0.2911210860058517,1.5352892577487598,4.624171943171744,-1.141315785337799,-8.533579850402651
439,1778471787,4.093418772423565,0.1207299070117034,1.4299037154975198,4.514748986343488,-1.369693430675598,-8.658599450805303
440,1778471787,3.883691414683712,-0.0496656340524615,1.3245154753418649,4.405323228251681,-1.5980769225559537,-8.783622251750693
441,1778471787,3.6739640569438583,-0.2200611751166265,1.21912723518621,4.295897470159874,-1.826460414436309,-8.908645052696082
442,1778471787,3.4642420681556407,-0.3904523541107747,1.1137416929349702,4.186474513331618,-2.054838059774108,-9.033664653098734
443,1778471787,3.254520079367423,-0.560843533104923,1.0083561506837302,4.077051556503362,-2.2832157051119073,-9.158684253501386
444,1778471787,3.0447927216275703,-0.731239074169088,0.9029679105280752,3.9676257984115546,-2.5115991969922624,-9.283707054446774
445,1778471787,2.835065363887717,-0.901634615233253,0.7975796703724204,3.858200040319747,-2.739982688872618,-9.408729855392163
446,1778471787,2.625343375099499,-1.0720257942274012,0.6921941281211804,3.748777083491491,-2.9683603342104172,-9.533749455794815
447,1778471787,2.415621386311282,-1.2424169732215495,0.5868085858699404,3.639354126663235,-3.196737979548216,-9.658769056197468
448,1778471787,2.205894028571429,-1.4128125142857144,0.4814203457142857,3.5299283685714284,-3.4251214714285716,-9.783791857142855
449,1778471787,2.5428324,-1.4094306,0.8583493,0.06719518,-2.7171285,-9.125105
450,1778471787,2.710744,-1.5426859,1.3860011,-0.49846604,-2.2565362,-9.164811
451,1778471787,2.4452095,-1.6386005,1.8221315,-0.6780604,-0.31337386,-9.533163
452,1778471787,2.1640556,-1.6163912,1.9334215,-0.6780604,-0.31337386,-9.533163
453,1778471787,2.1866311889638403,-1.55557947161984,1.679659736891008,-0.0985963996224,-0.2787577224191104,-9.3735215399488
454,1778471787,2.2092062,-1.4947693,1.42590447,0.4808527666666666,-0.244142471,-9.213884166666666
455,1778471787,2.23178121103616,-1.43395912838016,1.172149203108992,1.0603019329557333,-0.2095272195808895,-9.054246793384532
456,1778471787,2.2543568,-1.3731474,0.91838744,1.6397659333333332,-0.1749110819999999,-8.894605333333333
457,1778471787,1.9012059,-1.4055257,0.49055508,1.5632042,-0.084910266,-8.949176
458,1778471787,1.6323791606842055,-1.4397747577376332,0.540627064380264,1.5175933225511362,-0.1263469379025404,-8.699639629404285
459,1778471787,1.3635524213684111,-1.474023815475266,0.590699048760528,1.4719824451022725,-0.1677836098050807,-8.450103258808571
460,1778471787,1.0947188,-1.50827375,0.640772315,1.4263704,-0.2092213425,-8.2005605
461,1778471787,0.5619734079283537,-1.8183537586310767,0.3800333667789089,1.4670954616988234,-0.1789829972721803,-7.996426182818913
462,1778471787,0.0292416539641768,-2.1284258293155385,0.1193010933894544,1.5078194808494116,-0.1487454261360901,-7.792297091409456
463,1778471787,-0.5034901,-2.4384979,-0.14143118,1.5485435,-0.118507855,-7.588168
464,1778471787,-0.8768977,-2.8670015,-0.770122665,2.43582525,-0.4935791275,-6.24090475
465,1778471787,-1.2503053,-3.2955050999999997,-1.39881415,3.323107,-0.8686504,-4.8936415
466,1778471787,-1.589727875,-3.57537765,-1.6576369,2.5537222,-0.8350528,-4.3175956
467,1778471787,-1.92915045,-3.8552502,-1.91645965,1.7843374,-0.8014552,-3.7415497
468,1778471787,-2.3697958,-4.1209064,-1.9795485,-1.3170254,-0.026267206,-2.5344799
469,1778471787,-2.63045233636096,-4.33452028422272,-0.7568059640958721,-2.21836858704512,0.2547343937744384,-1.89245233215232
470,1778471787,-2.8911021999999997,-4.5481287,0.4659052699999999,-3.1196887,0.5357288,-1.2504412
471,1778471787,-2.850141949063897,-4.487237522556064,0.6316579844507969,-1.607415818120883,0.6686915374069017,-0.231840767669898
472,1778471787,-2.8091806495319487,-4.426344786278032,0.7974149422253984,-0.0951042215604418,0.8016576787034508,0.786785741165051
473,1778471787,-2.76821935,-4.36545205,0.9631719,1.4172073749999998,0.93462382,1.80541225
474,1778471787,-2.5796460925123945,-4.203765463076536,0.49820614109193,1.3990852046444997,1.7888097908530811,2.77617068275534
475,1778471787,-2.391072835024789,-4.042078876153072,0.03324038218386,1.3809630342889996,2.642995761706162,3.7469291155106794
476,1778471787,-2.20249475,-3.88038815,-0.4317372799999999,1.3628404,3.4972036,4.7177124
477,1778471787,-1.6627622,-3.5566463,-0.8917852,1.3628404,3.4972036,4.7177124
478,1778471787,-0.89861876,-3.0758533,-0.98477095,-0.95417154,6.052453,6.430578
479,1778471787,-0.66896087,-2.8796315,-0.94352525,-1.930945,6.700581,7.357261
480,1778471787,0.34546302,-2.61665975,-0.77744437,-3.25407915,6.1764585,9.267742
481,1778471787,1.7855228,-2.1972475,-0.52472305,-3.87594,6.477004,9.9790945
482,1778471787,2.68011455,-1.88314575,-0.19902867,-4.693583,3.7733145,10.90333375
483,1778471787,3.5747063,-1.569044,0.12666571,-5.511226,1.069625,11.827573
484,1778471787,3.75469865,-1.3210818000000002,0.55937919,-5.26107685,0.0403170800000001,11.1064465
485,1778471787,3.934691,-1.0731196,0.99209267,-5.0109277,-0.98899084,10.38532
486,1778471787,3.4233909,-0.7414459,1.5277983,-3.902818,-1.1991285,9.062186
487,1778471787,2.8134918,-0.65382934,1.3828284,-3.2296445,-0.41233405,8.399397
488,1778471787,2.653022797348705,-0.6910077105847016,1.1519482498479363,-3.3493751216882277,-0.3208052906312506,8.31489327891081
489,1778471787,2.4925537946974092,-0.7281860811694031,0.9210680996958732,-3.469105743376455,-0.2292765312625013,8.230389557821619
490,1778471787,2.3320889,-0.7653635000000001,0.6901938599999999,-3.5888333,-0.137750115,8.145888
491,1778471787,2.2765055834755583,-0.7813176694983023,0.7347930105521371,-3.868832884530871,-0.113931036930959,7.996097037348863
492,1778471787,2.220920844,-0.7972722474285715,0.7793933028571428,-4.148839637142857,-0.0901113490857142,7.84630224
493,1778471787,2.1653361045244415,-0.8132268253588407,0.8239935951621485,-4.428846389754844,-0.0662916612404695,7.696507442651136
494,1778471787,2.109752788,-0.8291809948571429,0.8685927457142857,-4.7088459742857145,-0.0424725831714285,7.54671648
495,1778471787,2.0541694714755585,-0.8451351643554451,0.9131918962664228,-4.988845558816585,-0.0186535051023875,7.396925517348864
496,1778471787,1.998584732,-0.8610897422857143,0.9577921885714284,-5.268852311428572,0.0051661827428571,7.24713072
497,1778471787,1.9429999925244417,-0.8770443202159836,1.0023924808764342,-5.548859064040558,0.0289858705881018,7.097335922651136
498,1778471787,1.887416676,-0.8929984897142857,1.0469916314285714,-5.828858648571429,0.0528049486571428,6.94754496
499,1778471787,1.8318333594755585,-0.908952659212588,1.0915907819807085,-6.1088582331023,0.0766240267261838,6.797753997348864
500,1778471787,1.77624862,-0.9249072371428572,1.1361910742857142,-6.388864985714286,0.1004437145714285,6.647959200000001
501,1778471787,1.5974766,-0.7100845650000001,1.7318302,-5.933334,0.40591995,7.1743068
502,1778471787,2.5440527,0.10049056,1.91395795,-4.9058587000000005,-0.1211040399999999,7.9230749
503,1778471787,3.4906287999999996,0.911065685,2.0960857,-3.8783834,-0.64812803,8.671843
504,1778471787,3.668851525,1.4950336925,2.34813585,-3.48269545,0.3712533525,7.9047489
505,1778471787,3.84707425,2.0790017,2.600186,-3.0870075,1.390634735,7.1376548
506,1778471787,4.332093227785079,2.535425538466724,2.527376154651966,-2.842765317559968,1.7279312783659877,6.804634241811805
507,1778471787,4.817112205570157,2.991849376933448,2.454566309303933,-2.5985231351199363,2.0652278217319755,6.47161368362361
508,1778471787,5.3021436,3.4482849,2.3817546,-2.3542747,2.402533,6.1385846
509,1778471787,5.04032802380352,3.75500777600256,1.98582770720064,-0.5494501985420798,0.005619819904,3.2050195533480315
510,1778471787,4.778519149999999,4.0617228,1.5899109500000002,1.2553281,-2.391232,0.271529605
511,1778471787,4.9276971654969595,4.03542578660608,1.8591637035206403,1.10047574463552,-2.26906048881536,0.249691452031936
512,1778471787,5.076879,4.0091281,2.1284233500000003,0.945619425,-2.14688585,0.22785274
513,1778471787,5.495037469813204,3.839180132925154,2.503220296452678,0.3284313501250139,-1.2082753979199912,0.0283000210105216
514,1778471787,5.913185234906602,3.669236516462577,2.878007648226339,-0.288740924937493,-0.2696889739599957,-0.1712475894947391
515,1778471787,6.331333,3.4992929,3.252795,-0.9059132,0.66889745,-0.3707952
516,1778471787,6.425417,3.1321087,3.34809935,0.22052235,1.403462925,-2.2498166
517,1778471787,6.519501,2.7649245,3.4434037,1.3469579,2.1380284,-4.128838
518,1778471787,5.903561625,2.010604565,2.9706648,3.0680707500000004,1.4407257,-5.99044985
519,1778471787,5.28762225,1.25628463,2.4979259000000003,4.7891836,0.743423,-7.8520617
520,1778471787,4.5816867750000005,0.5876288150000001,1.891870765,4.956407950000001,0.63026021,-8.091062775000001
521,1778471787,3.8757513,-0.0810269999999999,1.28581563,5.123632300000001,0.51709742,-8.33006385
522,1778471787,3.396545,-0.5320448,0.88690406,5.580865,-0.1563815,-9.6461735
523,1778471787,2.99696721466112,-0.9269243704768,0.750904885811712,5.0969131446630405,-0.2388472569248,-9.8735650893504
524,1778471787,2.5973792,-1.32181405,0.61490223,4.6129489,-0.321315125,-10.1009625
525,1778471787,2.2123788500000003,-1.72292215,0.617098725,4.9486194,-0.33536503,-10.040792
526,1778471787,2.1922441000000004,-1.762337375,0.5538268875,4.388456000000001,-0.32375859,-10.0899665
527,1778471787,2.1721093500000004,-1.8017526,0.49055505,3.8282926,-0.31215215,-10.139141
528,1778471787,2.1852884,-1.8233517,0.37072295,2.819143,-0.5235115,-9.853256
529,1778471787,2.1322053455456,-1.89974257779072,0.453886519480064,2.819143,-0.5235115,-9.853256
530,1778471787,2.0791236499999997,-1.9761315,0.53704796,2.819143,-0.5235115,-9.853256
531,1778471787,1.9474564603616,-1.98894438599296,0.608250768592384,1.972800083328,-0.218082794537472,-9.7729285282048
532,1778471787,1.8157859,-2.0017576,0.6794554,1.1264355,0.08735373,-9.692599
533,1778471787,1.5595258,-1.8847321,0.8406552350000001,1.01831235,0.168598805,-9.451613
534,1778471788,1.58881265,-1.743789025,0.8318691425,0.8910996625,0.5261076775,-8.846550624999999
535,1778471788,1.6180995,-1.60284595,0.8230830499999999,0.763886975,0.88361655,-8.24148825
536,1778471788,1.672585275,-1.513582025,0.7964197999999999,0.7350236125,1.029155175,-8.114275625
537,1778471788,1.7270710500000002,-1.4243181,0.76975655,0.70616025,1.1746938,-7.987063
538,1778471788,1.7579445,-1.3008251,0.6796995,0.7128797,1.6963727,-7.710341
539,1778471788,1.60394629620224,-1.2857547929024,0.579576264093824,0.77686701845184,1.79487351417344,-7.674605832416
540,1778471788,1.44994415,-1.2706841,0.479450465,0.840855975,1.89337685,-7.63886975
541,1778471788,1.22736107597312,-1.25744378052608,0.4219132310328319,1.1647714335648,1.9084959185216,-7.32885175682048
542,1778471788,1.0047837,-1.2442038,0.36437747,1.4886786,1.9236146,-7.0188417
543,1778471788,0.68702114,-1.2351737,0.1444819,1.4886786,1.9236146,-7.0188417
544,1778471788,0.5759060342917202,-1.3215076693131815,0.0068004048068909,1.5859769625805331,1.739040703689808,-6.807932420722175
545,1778471788,0.4647909285834403,-1.4078416386263628,-0.1308810903862181,1.6832753251610664,1.5544668073796162,-6.5970231414443505
546,1778471788,0.3536786673854568,-1.4941733978182197,-0.2685590609781651,1.7805711969354,1.3698976361006894,-6.386119261374965
547,1778471788,0.2425664061874733,-1.580505157010076,-0.4062370315701121,1.8778670687097336,1.1853284648217628,-6.17521538130558
548,1778471788,0.1314513004791934,-1.6668391263232574,-0.5439185267632213,1.9751654312902664,1.0007545685115709,-5.964306102027754
549,1778471788,0.0203361947709135,-1.7531730956364389,-0.6816000219563303,2.0724637938707997,0.8161806722013789,-5.753396822749929
550,1778471788,-0.0907760664270699,-1.8395048548282955,-0.8192779925482773,2.1697596656451332,0.6316115009224521,-5.542492942680544
551,1778471788,-0.2018883276250534,-1.925836614020152,-0.9569559631402244,2.2670555374194667,0.4470423296435253,-5.331589062611158
552,1778471788,-0.3130034333333333,-2.0121705833333334,-1.0946374583333334,2.3643539,0.2624684333333333,-5.120679783333333
553,1778471788,-2.2172601333333333,-3.793219166666667,-1.6589384,-1.5536339333333335,-0.1905899519999999,-0.8421795566666667
554,1778471788,-2.241482716666667,-3.6419239333333335,-0.8979272625,-1.886911816666667,0.0995710425,-0.0710639958333334
555,1778471788,-2.2657053,-3.4906287,-0.136916125,-2.2201897,0.389732037,0.700051565
556,1778471788,-2.1571609499999997,-3.22747395,-0.0678479194,-1.30190653,1.6517796185,1.9788979325
557,1778471788,-2.0486166,-2.9643192,0.0012202862,-0.38362336,2.9138272,3.2577443
558,1778471788,-1.958071375,-2.7648634,-0.5623689069,0.0439823,3.2296446,3.680463150000001
559,1778471788,-1.86752615,-2.5654076,-1.1259581,0.47158796,3.545462,4.103182
560,1778471788,-1.8991315,-2.81349195,-1.35073485,-0.8784242,3.8099666,5.480072
561,1778471788,-2.091045125283948,-3.2515008419227387,-1.5112459393541946,-1.164924889549182,3.0329327054579434,6.987306056465307
562,1778471788,-2.282953837641974,-3.689498520961369,-1.6717529196770973,-1.451418244774591,2.255918702728972,8.494501528232654
563,1778471788,-2.47486255,-4.1274961999999995,-1.8322599,-1.7379116,1.4789047,10.001697
564,1778471788,-1.1649554447691102,-4.239722757654367,-1.4714588262035788,-2.3603886117358432,0.6354962363398983,11.41240037118135
565,1778471788,0.1449516604617796,-4.351949315308734,-1.1106577524071577,-2.9828656234716866,-0.2079122273202033,12.8231037423627
566,1778471788,1.4548252325,-4.464173,-0.749865915,-3.6053267,-1.0512991,14.233771
567,1778471788,4.43561835,-3.7725146,1.114121285,-6.0973515,-0.385455965,15.1616755
568,1778471788,4.58990446655801,-3.329831755821415,1.7108056816416783,-5.740908625059733,-0.571567831467599,13.916110704649792
569,1778471788,4.744190583116018,-2.8871489116428304,2.3074900782833567,-5.384465750119466,-0.7576796979351982,12.670545909299587
570,1778471788,4.89847275,-2.4444774,2.9041592,-5.028032,-0.9437868,11.425013
571,1778471788,4.45807731213376,-2.37760655595776,2.73118581408768,-3.4627097863808,-1.27884211123712,10.3147792111744
572,1778471788,4.0176706,-2.310734,2.558208,-1.8973475,-1.613906,9.204517
573,1778471788,3.00910375,-2.4115297,1.4852104,-1.8973475,-1.613906,9.204517
574,1778471788,3.059623675,-2.32696385,1.7900989,-1.5070046,-2.2162191,9.369451
575,1778471788,3.1101436,-2.242398,2.0949874,-1.1166617,-2.8185322,9.534385
576,1778471788,3.1270649943940505,-2.104626524365123,2.0329556373357343,-1.2706010302654709,-1.2352578162315255,9.671627171118203
577,1778471788,3.143986388788101,-1.9668550487302456,1.970923874671468,-1.4245403605309417,0.3480165675369487,9.808869342236406
578,1778471788,3.16090735,-1.8290871,1.9088937,-1.57847575,1.93125042,9.946108
579,1778471788,2.98976436565824,-1.84147279146112,1.6112087104166402,-1.30725504666944,1.899943960727808,9.491018825216
580,1778471788,2.818617,-1.8538588,1.3135161,-1.0360274,1.8686367,9.035918
581,1778471788,3.0754873,-1.7695371,1.45653365,-1.0360274,1.8686367,9.035918
582,1778471788,3.78203305,-1.355982075,1.423768975,-1.0360274,1.8686367,9.035918
583,1778471788,4.488578800000001,-0.94242705,1.3910043,-1.0360274,1.8686367,9.035918
584,1778471788,4.7895624,-0.534302325,1.4285280500000002,-0.3878994,0.64598995,9.3712835
585,1778471788,5.090546,-0.1261776,1.4660518,0.2602286,-0.5766568,9.706649
586,1778471788,6.049447,1.5465908,1.0011228,0.42455134,0.15821409,9.387777
587,1778471788,6.613212033715199,2.7858975366707197,0.5813497231641601,0.448680211146496,0.8380983923695361,9.1379361980032
588,1778471788,7.1769915,4.025236,0.1615659,0.4728097,1.5180001,8.888089
589,1778471788,6.8182273,3.1432133,0.32898918,0.10445796,3.1312952,6.048177
590,1778471788,7.102187975,3.9201084,-0.00860302,0.08246681,3.05768595,5.38935865
591,1778471788,7.38614865,4.6970035,-0.3461952199999999,0.06047566,2.9840767,4.7305403
592,1778471788,7.154538325,4.69523415,-0.67365901,0.13225233,2.6490171,3.70092705
593,1778471788,6.922928,4.6934648,-1.0011228,0.204029,2.3139575,2.6713138
594,1778471788,6.876130075,4.0353645,-0.4768878499999999,-1.1841623,1.244943345,0.1398882000000002
595,1778471788,6.82933215,3.3772642,0.0473470999999999,-2.5723536,0.17592919,-2.3915374
596,1778471788,6.649915099221488,3.087764014270329,0.1877686198979586,-2.2703125485677935,0.1650207678706157,-2.81006292421794
597,1778471788,6.470498048442975,2.798263828540658,0.3281901397959172,-1.9682714971355868,0.1541123457412314,-3.22858844843588
598,1778471788,6.291085590682172,2.5087710539208787,0.4686080649489792,-1.6662381778553252,0.1432042028638793,-3.647103258537541
599,1778471788,6.11167313292137,2.2192782793011,0.6090259901020412,-1.3642048585750637,0.1322960599865271,-4.0656180686392025
600,1778471788,5.932256082142858,1.9297780935714288,0.7494475099999999,-1.062163807142857,0.1213876378571428,-4.4841435928571425
601,1778471788,5.752839031364345,1.6402779078417573,0.8898690298979585,-0.7601227557106504,0.1104792157277586,-4.9026691170750825
602,1778471788,5.573426573603542,1.350785133221979,1.0302869550510203,-0.4580894364303889,0.0995710728504064,-5.321183927176744
603,1778471788,5.394014115842739,1.0612923586021998,1.1707048802040825,-0.1560561171501273,0.0886629299730542,-5.739698737278404
604,1778471788,5.214597065064226,0.7717921728725285,1.311126400102041,0.1459849342820793,0.0777545078436699,-6.158224261496344
605,1778471788,5.035180014285714,0.4822919871428571,1.45154792,0.4480259857142857,0.0668460857142857,-6.576749785714285
606,1778471788,2.7573588,-1.8516623,0.7812273,2.968805,-0.9254609,-10.374325
607,1778471788,2.71483231934592,-1.88454857905024,0.77299045543296,2.968805,-0.9254609,-10.374325
608,1778471788,2.67230475,-1.9174357,0.7647534,2.968805,-0.9254609,-10.374325
609,1778471788,2.70592415532288,-1.93482507258112,0.813626495567616,2.393362634432,-0.715320530237696,-10.174874947072
610,1778471788,2.7395427,-1.952214,0.86249834,1.817935,-0.50518554,-9.97543
611,1778471788,2.77908,-2.0264072,1.0238202,1.817935,-0.50518554,-9.97543
612,1778471788,2.66717965,-2.0558161,1.0977695,1.5118915,-0.51923547,-10.0432355
613,1778471788,2.5552793,-2.085225,1.1717188,1.205848,-0.5332854,-10.111041
614,1778471788,2.631181075,-2.037755925,1.3128449,1.1472049375,-0.452803895,-10.05224525
615,1778471788,2.70708285,-1.99028685,1.453971,1.088561875,-0.37232239,-9.9934495
616,1778471788,2.734051275,-1.991873225,1.5925345,1.0299188124999998,-0.291840885,-9.93465375
617,1778471788,2.7610197,-1.9934596,1.731098,0.97127575,-0.21135938,-9.875858
618,1778471788,2.5801733,-2.0193298,1.6625179,1.1447614,0.34025195,-9.952216
619,1778471788,2.34124425833088,-1.97777950685056,1.25110369116928,1.61283095863296,0.5177060285587199,-9.8918940221312
620,1778471788,2.1023091000000003,-1.93622815,0.8396789499999999,2.0809125,0.6951646499999999,-9.8315705
621,1778471788,1.6601511839348222,-1.8905072863739152,0.659480282982114,2.124590112088372,0.7031060355312448,-9.752869323517114
622,1778471788,1.218004586967411,-1.8447875931869575,0.479286228991057,2.168266606044186,0.7110472177656224,-9.674170161758555
623,1778471788,0.77585799,-1.7990678999999998,0.2990921749999999,2.2119431,0.7189884,-9.595471
624,1778471788,0.385056315302592,-1.80855579644352,0.37795416567056,1.8081559940912,0.82512760856448,-9.1988616734656
625,1778471788,-0.005745359394816,-1.81804369288704,0.45681615634112,1.4043688881824,0.93126681712896,-8.8022523469312
626,1778471788,-0.396537029697408,-1.82753134644352,0.53567612817056,1.0005921190912,1.03740330856448,-8.4056531734656
627,1778471788,-0.7873287,-1.837019,0.6145361,0.59681535,1.1435398,-8.009054
628,1778471788,-1.3406065,-2.0896182,0.36584184,0.55833083,2.3096814,-6.087272
629,1778471788,-1.2983845,-2.111339,-0.3184947,2.761111,2.879619,-3.4568865
630,1778471788,-1.1027727500000002,-2.24544865,-3.98289215,3.3939674,1.3671165,-2.8130345
631,1778471788,-1.1305339196524802,-2.27601643372736,-4.31413468504128,2.84633370980096,0.711055582687232,-2.83319279197056
632,1778471788,-1.1582958,-2.306585,-4.6453857,2.298686,0.05497787,-2.8533516
633,1778471788,-1.70254335,-2.7356378,-2.10157705,-0.05772675,-1.360396865,-2.52042995
634,1778471789,-1.75104975,-2.74741345,-1.1751356899999998,-1.5121968750000003,-1.7864754324999998,-1.7556267
635,1778471789,-1.79955615,-2.7591891,-0.24869433,-2.966667,-2.212554,-0.99082345
636,1778471789,-1.8927461285443048,-2.749141980932348,-0.1319526204834966,-2.7120358271751375,-1.735871399027204,-0.6859990835320341
637,1778471789,-1.9859361070886097,-2.739094861864696,-0.0152109109669932,-2.4574046543502748,-1.259188798054408,-0.3811747170640681
638,1778471789,-2.0791237,-2.729048,0.10152781,-2.20278,-0.7825184,-0.076358154
639,1778471789,-1.9644167,-2.639723,-0.009030119,-0.8564331,0.38423425,1.3060299
640,1778471789,-1.688632,-2.489628,-0.11006982,-0.37934732,0.6640105,2.0244074
641,1778471789,-1.1063116,-2.084981,-0.31654227,0.013439035,1.1765264,2.8979447
642,1778471789,-0.50410029,-1.662884,-0.440035235,0.1172861275,1.6236798,3.45016685
643,1778471789,0.09811102,-1.240787,-0.5635282,0.22113322,2.0708332,4.002389
644,1778471789,-0.37316352,-1.6058967,-0.52423495,0.08124508,2.6994135,4.8502703
645,1778471789,0.22709527,-1.08019735,-0.38390206,-0.2950479,2.8295279,5.1758614
646,1778471789,0.1650437125,-1.0828819749999998,-0.2824962649999999,-0.58215458,2.79776295,5.29070405
647,1778471789,0.102992155,-1.0855666,-0.18109047,-0.86926126,2.765998,5.4055467
648,1778471789,0.03099527,-1.138283,-0.15692882,-0.86926126,2.765998,5.4055467
649,1778471789,0.1998923698552064,-1.1454534947811583,-0.0949887382971023,-1.1188090161703936,2.526621264977011,5.627061463352678
650,1778471789,0.3687851459999999,-1.152623806,-0.03305024224,-1.368350384,2.28725065792,5.848570556
651,1778471789,0.5376779221447936,-1.1597941172188415,0.0288882538171023,-1.6178917518296063,2.0478800508629895,6.070079648647322
652,1778471789,0.7065750219999999,-1.166964612,0.0908283355199999,-1.867439508,1.80850331584,6.291594412
653,1778471789,0.8754721218552063,-1.1741351067811585,0.1527684172228976,-2.1169872641703935,1.5691265808170107,6.513109175352678
654,1778471789,1.044364898,-1.181305418,0.2147069132799999,-2.366528632,1.32975597376,6.734618268
655,1778471789,1.2132576741447936,-1.1884757292188417,0.2766454093371023,-2.616069999829606,1.0903853667029897,6.956127360647321
656,1778471789,1.382154774,-1.195646224,0.3385854910399999,-2.865617756,0.8510086316800001,7.177642124
657,1778471789,1.5510518738552062,-1.2028167187811585,0.4005255727428976,-3.1151655121703934,0.6116318966570108,7.399156887352678
658,1778471789,1.71994465,-1.20998703,0.4624640687999999,-3.36470688,0.3722612896,7.62066598
659,1778471789,1.6840321096864,-1.104519040007552,0.7602222980458803,-4.0526544841579515,0.3345713822369894,7.407721115729152
660,1778471789,1.64811865,-0.99904835,1.05798815,-4.7406197,0.29688051,7.1947708
661,1778471789,1.60650639236992,-0.99288579612032,0.8805562689009919,-4.7145048657344,-0.0730031294499839,7.21126436111488
662,1778471789,1.5648952,-0.9867234,0.70312893,-4.6883907,-0.4428773,7.2277575
663,1778471789,1.9732029,-0.844560145,0.53058045,-4.84141255,-1.14537235,7.2457781
664,1778471789,2.01542485,-0.8358350975,0.528750025,-5.034293275,-1.7076737750000002,7.21416605
665,1778471789,2.0576468,-0.82711005,0.5269196,-5.227174,-2.2699752,7.182554
666,1778471789,1.9629525,-0.59086263,1.205887,-5.227174,-2.2699752,7.182554
667,1778471789,1.979182006346213,-0.3662931077022391,1.486751356520292,-5.483529391478649,-2.1581887578463665,7.194974521353722
668,1778471789,1.9954119281731064,-0.1417178363511196,1.7676229032601458,-5.739891345739324,-2.0463994539231836,7.207395360676861
669,1778471789,2.01164185,0.082857435,2.0484944499999997,-5.996253299999999,-1.93461015,7.2198162
670,1778471789,2.3173234,0.79489446,2.4276376,-5.6370645,-1.3683381,7.4696603
671,1778471789,2.869625,1.8045594,2.6377707,-5.050634,-1.1704178,7.461719
672,1778471789,3.70875485,2.574438,2.499451275,-3.5870008,-1.240056425,6.955769775
673,1778471789,4.5478847,3.3443166,2.36113185,-2.1233676,-1.30969505,6.44982055
674,1778471789,5.90893115,4.1283503,2.166679225,-1.89643115,-1.367727225,6.274349475
675,1778471789,7.2699776,4.912384,1.9722266,-1.6694947,-1.4257594,6.0988784
676,1778471789,7.4515584242048,5.03899035804064,2.69013017654816,-1.90391727557056,-1.159266043928704,4.77358933651712
677,1778471789,7.6331392484096,5.16559671608128,3.40803375309632,-2.13833985114112,-0.892772687857408,3.44830027303424
678,1778471789,7.8147154242048,5.29219983304064,4.125918951548161,-2.37275642557056,-0.626286153928704,2.12304513651712
679,1778471789,7.9962916,5.41880295,4.84380415,-2.607173,-0.35979962,0.79779
680,1778471789,7.662055,3.89478775,4.89395775,-1.520443665,1.35917519,-1.1841623
681,1778471789,6.858523569905792,2.8505302615669827,3.5899783457030217,0.3753072437347148,2.1417069483710653,-2.9865509603727376
682,1778471789,6.055012709952896,1.8062995057834912,2.2860323228515105,2.271009621867358,2.924218674185533,-4.788893480186369
683,1778471789,5.25150185,0.76206875,0.9820863,4.166712,3.7067304,-6.591236
684,1778471789,4.429150875,-0.0022575149999999,0.48780939125,5.2558846500000005,1.855045075,-8.774774
685,1778471789,3.6067999,-0.7665837799999999,-0.0064675175,6.345057300000001,0.0033597499999999,-10.958312
686,1778471789,3.27275085088256,-1.032389232646656,0.047926050628416,6.0083221352652805,-0.11980437347904,-10.9997739067808
687,1778471789,2.9387018017651196,-1.298194685293312,0.102319618756832,5.67158697053056,-0.2429684969580799,-11.0412358135616
688,1778471789,2.60464420088256,-1.564006942646656,0.156714579378416,5.334843185265281,-0.3661357734790399,-11.0826987817808
689,1778471789,2.2705865999999997,-1.8298192,0.21110954,4.9980994,-0.4893030499999999,-11.12416175
690,1778471789,2.0259192,-1.9602679,0.38585448,4.2479568,-0.62796944,-10.9497595
691,1778471789,1.93464296835072,-1.96954193129088,0.384634225619456,3.69696345280512,-0.686611769368576,-10.5530073284928
692,1778471789,1.8433644,-1.9788162,0.38341394,3.145956,-0.7452556,-10.156245
693,1778471789,1.81267380716544,-1.88125302620736,0.367244938039424,2.35762430948352,-0.64904306849536,-9.7991899297536
694,1778471789,1.781984,-1.78369235,0.35107635,1.5693128,-0.552833,-9.442144
695,1778471789,1.76032422724864,-1.69333133163584,0.47462874350912,0.855220475498752,-0.360107506917888,-9.0792946445312
696,1778471789,1.7386639,-1.602968,0.5981843,0.14110987,-0.16737708,-8.716436
697,1778471789,1.7930887,-1.5065655,0.7726852,0.14110987,-0.16737708,-8.716436
698,1778471789,1.8428153,-1.4260875750000002,0.97818145,0.0088575449999999,-0.130725165,-8.6064805
699,1778471789,1.8925419,-1.34560965,1.1836777,-0.12339478,-0.09407325,-8.496525
700,1778471789,1.6609316,-1.2994827999999998,1.33560325,-0.222660385,0.69058315,-8.0621995
701,1778471789,1.6336020630435475,-1.250655039441236,1.2517563134872358,-0.102654371299829,0.7980313588908983,-7.870333012711827
702,1778471789,1.6062732257142858,-1.2018285288571426,1.1679115234285715,0.0173485702857142,0.9054768171428572,-7.678471437142857
703,1778471789,1.578944388385024,-1.1530020182730494,1.0840667333699072,0.1373515118712575,1.012922275394816,-7.486609861573888
704,1778471789,1.5516148514285717,-1.1041742577142857,1.000219796857143,0.2573575255714285,1.1203704842857145,-7.294743374285714
705,1778471789,1.524285314472119,-1.0553464971555218,0.9163728603443784,0.3773635392715995,1.2278186931766126,-7.1028768869975405
706,1778471789,1.4969564771428572,-1.0065199865714285,0.8325280702857143,0.4973664808571428,1.3352641514285717,-6.911015311428572
707,1778471789,1.4696276398135957,-0.9576934759873352,0.74868328022705,0.6173694224426861,1.4427096096805303,-6.719153735859602
708,1778471789,1.4422981028571429,-0.9088657154285712,0.6648363437142857,0.737375436142857,1.5501578185714286,-6.527287248571429
709,1778471789,1.4149685659006903,-0.8600379548698075,0.5809894072015213,0.857381449843028,1.657606027462327,-6.335420761283255
710,1778471789,1.3876397285714286,-0.8112114442857142,0.4971446171428571,0.9773843914285714,1.7650514857142858,-6.1435591857142855
711,1778471789,-0.05027579,-1.9107243,-0.45199403,1.8240436,1.817935,-5.713423
712,1778471789,-0.534363395,-2.27095265,-0.919851765,2.80784205,1.3005321,-5.3563719999999995
713,1778471789,-1.018451,-2.631181,-1.3877095,3.7916405,0.7831292,-4.999321
714,1778471789,-1.380876,-2.9438186,-1.846049,4.1587706,0.15943582,-4.468479
715,1778471789,-1.72639562729216,-3.3454095845696,-2.089554008096,3.0138710384019713,0.3210076111046016,-3.8696861646464
716,1778471789,-2.0719241,-3.74701085,-2.33306525,1.868942167,0.4825835385,-3.2708779999999997
717,1778471789,-2.32652076172741,-3.9888757611083143,-1.6572592063911524,1.0303116988898768,0.982483457182742,-2.094636879075153
718,1778471789,-2.5811109058637047,-4.230734480554157,-0.9814704631955762,0.1917026994449383,1.4823705785913708,-0.9184258695375764
719,1778471789,-2.83570105,-4.4725932,-0.30568172,-0.6469063,1.9822577,0.25778514
720,1778471789,-2.6590037,-4.059892,0.43710655,1.4844025,2.2015584,2.05434
721,1778471789,-2.2495924346028797,-3.83160410295232,0.111194425878208,1.60581352904128,2.64184518559872,2.50837136152704
722,1778471789,-1.84019165,-3.60332205,-0.2147093549999999,1.72722145,3.0821207000000004,2.9623911
723,1778471789,-1.43079086539712,-3.37503999704768,-0.5406131358782079,1.84862937095872,3.5223962144012804,3.41641083847296
724,1778471789,-1.0213796,-3.1467521,-0.86652526,1.9700404,3.962683,3.8704422
725,1778471789,-0.9432813,-3.0536442,-0.95743656,1.4581354,4.759862,4.404949
726,1778471789,-0.31751847,-2.4286137,-1.1355984,-0.7538077,5.6462274,7.430565
727,1778471789,0.1136031465726719,-2.19969098024832,-1.09776998420992,-0.7538077,5.6462274,7.430565
728,1778471789,0.5447358,-1.9707624,-1.0599406,-0.7538077,5.6462274,7.430565
729,1778471789,1.39039415,-1.70583815,-0.8775078249999999,-2.3139575,4.4868054,9.578367
730,1778471789,2.9086742,-1.2681215,-0.45711923,-4.1862597,-0.1966986,11.443338
731,1778471789,3.246931793663174,-1.166025942453152,-0.2317768825586237,-4.1862597,-0.1966986,11.443338
732,1778471789,3.5851980468315867,-1.063927771226576,-0.0064287662793118,-4.1862597,-0.1966986,11.443338
733,1778471789,3.9234643,-0.9618296,0.21891935,-4.1862597,-0.1966986,11.443338
734,1778471790,4.1521463,-0.6850687,0.7038611,-4.7659707,-1.745242,10.3786
735,1778471790,4.1033344,-0.43295756,1.1392592,-4.945565,-1.4837917,9.681603
736,1778471790,3.4307127,-0.0690682,1.7623373,-4.681671,0.035430185,8.049982
737,1778471790,2.93649042403584,-0.0225746998908159,1.55098104467456,-4.681671,0.035430185,8.049982
738,1778471790,2.4422808,0.02391761,1.3396302,-4.681671,0.035430185,8.049982
739,1778471790,2.2516723,0.013911263,1.1275444,-4.681671,0.035430185,8.049982
740,1778471790,2.0398304,-0.0034168016,0.8773858,-3.6731327,0.42088616,6.1385846
741,1778471790,1.8299413,-0.07175283,0.63113207,-3.6071594,-0.073303826,5.6944857
742,1778471790,1.6451898,-0.17425688,0.45638704,-3.7201693,-0.4111123,5.4195967
743,1778471790,1.3219401376486402,-0.432283104722048,0.3547995153369599,-4.44098112349056,-0.46150805492608,5.25069451197568
744,1778471790,0.9986822,-0.6903159350000001,0.25320939,-5.1618114,-0.5119051,5.081788
745,1778471790,0.4595598,-1.1436522,1.087031,-6.65782,0.25473082,5.648671
746,1778471790,0.6074585,-0.9872115,0.4554108,-7.3676457,0.50762904,6.5130453
747,1778471790,0.4595598,-1.1436522,1.087031,-7.3676457,0.50762904,6.5130453
748,1778471790,1.01247145,-0.78073915,1.7983358,-6.354831,-0.53023106,7.8319035
749,1778471790,1.205279973890022,-0.5433487485890074,1.9731244663550564,-6.354831,-0.53023106,7.8319035
750,1778471790,1.398083561945011,-0.3059644242945037,2.147908658177528,-6.354831,-0.53023106,7.8319035
751,1778471790,1.59088715,-0.0685801,2.32269285,-6.354831,-0.53023106,7.8319035
752,1778471790,1.96062589092864,0.22928795641232,2.343595606406024,-5.886494997250896,-0.489251654532824,7.5898195576152
753,1778471790,2.33036463185728,0.52715601282464,2.364498362812048,-5.418158994501792,-0.448272249065648,7.3477356152304
754,1778471790,2.7000939075953068,0.82501644391232,2.3854005841143575,-4.949834981000896,-0.407293892657824,7.1056578701152
755,1778471790,3.069823183333334,1.122876875,2.406302805416667,-4.4815109675,-0.36631553625,6.863580125
756,1778471790,3.4395619242619735,1.42074493141232,2.427205561822691,-4.013174964750896,-0.325336130782824,6.6214961826152
757,1778471790,3.8093006651906136,1.71861298782464,2.448108318228715,-3.544838962001792,-0.284356725315648,6.3794122402304
758,1778471790,4.179029940928641,2.01647341891232,2.469010539531024,-3.076514948500896,-0.243378368907824,6.1373344951152
759,1778471790,4.548759216666667,2.31433385,2.489912760833333,-2.608190935,-0.2024000125,5.89525675
760,1778471790,4.918497957595307,2.61220190641232,2.510815517239357,-2.139854932250896,-0.161420607032824,5.6531728076152
761,1778471790,5.2882366985239475,2.91006996282464,2.531718273645381,-1.6715189295017925,-0.120441201565648,5.4110888652304
762,1778471790,5.657965974261974,3.20793039391232,2.5526204949476905,-1.2031949160008963,-0.079462845157824,5.1690111201152
763,1778471790,6.02769525,3.505790825,2.57352271625,-0.7348709025,-0.0384844887500001,4.926933375
764,1778471790,4.689316,1.4548253,1.6139506,-0.2724459,3.545462,-2.352442
765,1778471790,3.8172994,0.7492558,0.6045298,8.594874,-0.46303585,-9.085399
766,1778471790,3.1578567,0.20500809,0.031239327,8.076249,-1.4214834,-9.7695675
767,1778471790,2.7124522,-0.17425688,-0.21989559,7.251581,-1.5974126,-10.053009
768,1778471790,2.2335508749999997,-0.5265535250000001,-0.25827359,7.251581,-1.5974126,-10.053009
769,1778471790,1.75464955,-0.87885017,-0.2966515899999999,7.251581,-1.5974126,-10.053009
770,1778471790,1.4584862,-1.0377314,-0.076389916,3.998113,-0.5900958,-9.637621
771,1778471790,1.53487507220992,-1.05444908601088,0.1560716364540416,2.95476850498048,-0.1551653271813119,-8.9919445147648
772,1778471790,1.6112659,-1.0711672,0.38853914,1.9113973,0.27977628,-8.3462515
773,1778471790,2.1481918,-1.08764115,0.8642067,1.4532484,0.3549127,-7.9779
774,1778471790,2.294380952503264,-1.1259171400407042,1.0428551088473978,1.5263479762089651,0.1262474313019362,-8.20493639593129
775,1778471790,2.440570105006528,-1.1641931300814083,1.2215035176947957,1.5994475524179304,-0.1024178373961275,-8.431972791862579
776,1778471790,2.586763,-1.2024701,1.4001565,1.672549,-0.33108896,-8.659015
777,1778471790,2.42751353663296,-1.31547002138048,1.36080172126528,1.96210290624256,-0.434021047513856,-8.9091672019072
778,1778471790,2.26826815,-1.42846705,1.32144795,2.2516494,-0.5369505,-9.159313
779,1778471790,2.20188542470976,-1.44628299695296,1.25939721925952,2.32495226171136,-0.52931479773824,-9.1492341290112
780,1778471790,2.135501,-1.4640994,1.1973449,2.398257,-0.5216789,-9.139155
781,1778471790,2.07021481434752,-1.38453578159872,1.06543026151424,2.10656506639104,-0.1294983951537919,-8.8825882159872
782,1778471790,2.0049303,-1.3049742,0.933519,1.8148806,0.26267207,-8.626028
783,1778471790,1.97039625,-1.15072995,0.87628755,1.8148806,0.26267207,-8.626028
784,1778471790,1.93854637982688,-1.1422793543337602,0.867318331445472,1.698814739376,0.3876719649781759,-8.4667429611776
785,1778471790,1.90669650965376,-1.1338287586675202,0.858349112890944,1.582748878752,0.512671859956352,-8.3074579223552
786,1778471790,1.87484745482688,-1.1253783793337602,0.849380123945472,1.466685989376,0.637668554978176,-8.148176961177601
787,1778471790,1.8429984,-1.116928,0.840411135,1.3506231,0.76266525,-7.988896
788,1778471790,1.6577980363104583,-1.1433677756165308,0.8419161728428252,1.4399119952554869,0.6627879293911065,-7.851959164820631
789,1778471790,1.472597672620917,-1.1698075512330617,0.8434212106856503,1.529200890510974,0.5629106087822131,-7.71502232964126
790,1778471790,1.28740205,-1.19624665,0.8449262099999999,1.6184875,0.4630358449999999,-7.578089
791,1778471790,0.87348086,-1.3144923,0.95377576,2.2455406,0.1160644,-6.81298
792,1778471790,-0.1230048549999999,-2.2188464000000003,0.67408611,2.2455406,0.1160644,-6.81298
793,1778471790,-0.8377356759374079,-3.0612818830361603,-0.5343788131530242,3.83075609049856,-0.40226140948544,-5.71035418657024
794,1778471790,-1.5524482,-3.9036958,-1.7428128,5.415931,-0.92057395,-4.6077566
795,1778471790,-2.39591,-4.975839,-3.1864114,0.56321776,-0.93645644,-2.5265386
796,1778471790,-4.751795,-5.7331486,-3.102944,4.283998,-1.3219124,-4.1386123
797,1778471790,-4.91867111098688,-5.42331405916864,-1.10451659545664,2.847529953444353,-0.4260670683265279,-1.7665920635296
798,1778471790,-5.08554295,-5.11348745,0.89385965,1.41109868,0.46975533,0.6053674500000001
799,1778471790,-3.5561167519059196,-4.3258026074950395,-0.71598231875904,1.835033713562112,1.172852215244672,2.17130043080128
800,1778471790,-2.0266514,-3.5380976,-2.3258655,2.2589796,1.8759671,3.7372735
801,1778471790,-1.2445159183919718,-3.0854451414969235,-2.683496836830024,3.0005827231979656,2.2404562872025053,4.871873230254209
802,1778471790,-0.462400459195986,-2.632804270748462,-3.041119018415012,3.742166861598983,2.6049361436012526,6.006443915127105
803,1778471790,0.319715,-2.1801634,-3.3987412,4.483751,2.969416,7.1410146
804,1778471790,1.1048472,-1.5893008,-2.732465,-0.552833,3.6242635,7.6303177
805,1778471790,1.4106508,-1.1678139,-1.7164546,-0.552833,3.6242635,7.6303177
806,1778471790,1.44880632528242,-1.204956596153923,-1.4651270227773332,-0.8967221695298292,3.277833150392188,7.585779985072039
807,1778471790,1.48696185056484,-1.242099292307846,-1.2137994455546663,-1.2406113390596585,2.931402800784376,7.541242270144077
808,1778471790,1.52511835264121,-1.2792429393269615,-0.9624654342636666,-1.5845093122649148,2.584963582446094,7.496703415036019
809,1778471790,1.56327485471758,-1.316386586346077,-0.7111314229726667,-1.9284072854701708,2.2385243641078123,7.452164559927962
810,1778471790,1.6014303799999998,-1.3535292825,-0.4598038457499999,-2.272296455,1.8920940145,7.407626844999999
811,1778471790,1.6395859052824198,-1.390671978653923,-0.2084762685273331,-2.6161856245298294,1.545663664892188,7.363089130072038
812,1778471790,1.67774240735879,-1.4278156256730383,0.0428577427636667,-2.9600835977350854,1.199224446553906,7.318550274963981
813,1778471790,1.71589890943516,-1.464959272692154,0.2941917540546665,-3.303981570940342,0.8527852282156244,7.274011419855922
814,1778471790,1.75405443471758,-1.502101968846077,0.5455193312773333,-3.647870740470171,0.5063548786078123,7.229473704927961
815,1778471790,1.79220996,-1.539244665,0.7968469085000001,-3.99175991,0.1599245289999999,7.18493599
816,1778471790,2.2743695,-1.5436621,2.1330605,-5.572313,-0.3652974,7.910705
817,1778471790,2.15014275991808,-1.43230957470592,2.01951134658944,-4.81269225197888,-0.2892437115252479,7.89650221820672
818,1778471790,2.0259192,-1.3209599,1.9059651,-4.05309095,-0.21319197,7.8822998
819,1778471790,1.98150131855616,-1.2799892994304,1.80166248509056,-3.89518430873088,-0.201891107152896,7.84923702320896
820,1778471790,1.9370823,-1.23901765,1.6973572,-3.737273625,-0.190589955,7.8161734
821,1778471790,1.89266328144384,-1.1980460005696,1.59305191490944,-3.57936294126912,-0.179288802847104,7.78310977679104
822,1778471790,1.8482454,-1.1570754,1.4887493,-3.4214563,-0.16798794,7.750047
823,1778471790,1.82628058115328,-1.15463488123904,1.31717919612544,-3.4214563,-0.16798794,7.750047
824,1778471790,1.8043152,-1.1521943,1.1456047,-3.4214563,-0.16798794,7.750047
825,1778471790,2.0090792,-1.0694588,0.7734174,-3.866166,-0.5320636,8.486751
826,1778471790,2.5255044,-0.81783587,1.1431642,-3.866166,-0.5320636,8.486751
827,1778471790,2.991464685632,-0.19208107976384,2.12639718945664,-4.3551574908288,-0.431882992328192,8.813254320703999
828,1778471790,3.4574369000000003,0.43368973,3.10965535,-4.8441615,-0.33169982,9.139766
829,1778471790,3.82602916792064,1.330977675138688,3.38233179021376,-3.6248587681248,0.6482932837511681,8.792179050944
830,1778471790,4.194612,2.22824265,3.65500125,-2.40558725,1.6282613,8.444601
831,1778471790,4.35934854134528,2.64899193934016,3.61656276701888,-2.06197997322944,1.62902489022592,8.283945556416
832,1778471790,4.5240893,3.069752,3.5781233,-1.7183639,1.6297885,8.123286
833,1778471790,4.881145,4.3371415,2.1891935,0.31520647,1.4575244,6.9339314
834,1778471791,4.9680295,4.9077473,1.3696493,3.3762522,0.27855456,3.2290337
835,1778471791,5.0331926,5.245034,0.7924539,2.7122416,0.8246681,4.7671924
836,1778471791,5.0534496,5.4261246,0.45174995,3.3652565,-0.1160644,2.121535
837,1778471791,5.18939114002944,4.918784206126079,0.7650014670680961,2.52606973354688,-0.1708902562619776,0.5818294445211519
838,1778471791,5.3253292000000005,4.4114568,1.078244965,1.68690445,-0.225714709,-0.957836695
839,1778471791,5.480709681472506,3.761502759357614,1.5821332101972043,1.219702293685531,-0.0370623757077004,-1.6100259991600676
840,1778471791,5.636094140736253,3.111532079678806,2.0860343550986022,0.7524881768427655,0.1515947871461498,-2.2622319995800337
841,1778471791,5.7914786,2.4615614,2.5899355,0.28527406,0.34025195,-2.914438
842,1778471791,5.15650255,1.900900925,2.696588475,1.55373573,1.117272525,-4.732373
843,1778471791,4.5215265,1.34024045,2.80324145,2.8221974,1.8942931,-6.550308
844,1778471791,4.0601973,0.92491598,2.2679628999999997,2.8221974,1.8942931,-6.550308
845,1778471791,3.5988681,0.5095915099999999,1.73268435,2.8221974,1.8942931,-6.550308
846,1778471791,3.237503767015113,0.1514405595938968,1.371116652083849,3.4344827084318226,1.922189061951411,-6.873860138986406
847,1778471791,2.876139434030225,-0.2067103908122061,1.009548954167698,4.046768016863645,1.950085023902822,-7.197412277972813
848,1778471791,2.51476585,-0.56487051,0.647972,4.659069,1.9779817,-7.5209727
849,1778471791,2.24117424807232,-0.815093382811776,0.558767935702592,4.9710724935936,1.319155069627072,-8.066024451573119
850,1778471791,1.96758965,-1.06530985,0.469566155,5.283068,0.660345305,-8.61106225
851,1778471791,1.7649035258874628,-1.2005559251041062,0.443167740538707,5.236337630875175,0.3793520940121855,-8.685586561435471
852,1778471791,1.5622122129437312,-1.3358054625520532,0.4167686502693535,5.189606065437587,0.0983516895060927,-8.760112780717735
853,1778471791,1.3595209,-1.471055,0.39036956,5.1428745,-0.182648715,-8.834639
854,1778471791,1.1867894,-1.48063425,0.4241104699999999,4.8566841,-0.5271767075,-8.788670999999999
855,1778471791,1.0140579,-1.4902135,0.45785138,4.5704937,-0.8717047,-8.742703
856,1778471791,1.014525678799992,-1.462510111859504,0.4947172083348959,4.4471864289788,-0.84718069286756,-8.60933543666704
857,1778471791,1.014993457599984,-1.434806723719008,0.531583036669792,4.3238791579576,-0.82265668573512,-8.475967873334081
858,1778471791,1.015461224424992,-1.407104044776171,0.5684479212515626,4.200575043562133,-0.7981333064092266,-8.34260372416704
859,1778471791,1.01592899125,-1.3794013658333333,0.6053128058333334,4.077270929166667,-0.7736099270833333,-8.209239575
860,1778471791,1.016396770049992,-1.3516979776928373,0.6421786341682293,3.9539636581454665,-0.7490859199508934,-8.075872011667041
861,1778471791,1.016864548849984,-1.3239945895523413,0.6790444625031253,3.8306563871242663,-0.7245619128184533,-7.94250444833408
862,1778471791,1.017332315674992,-1.296291910609504,0.715909347084896,3.7073522727288,-0.70003853349256,-7.809140299167041
863,1778471791,1.0178000825,-1.2685892316666667,0.7527742316666667,3.5840481583333332,-0.6755151541666666,-7.67577615
864,1778471791,1.018267861299992,-1.2408858435261707,0.7896400600015626,3.4607408873121335,-0.6509911470342267,-7.54240858666704
865,1778471791,1.018735640099984,-1.2131824553856747,0.8265058883364587,3.3374336162909333,-0.6264671399017866,-7.40904102333408
866,1778471791,1.019203406924992,-1.1854797764428373,0.8633707729182293,3.2141295018954668,-0.6019437605758933,-7.27567687416704
867,1778471791,1.01967117375,-1.1577770975,0.9002356575,3.0908253875,-0.57742038125,-7.142312725
868,1778471791,0.8379705550000001,-0.698247775,0.7776884,2.3628268,-0.22479841,-6.592458
869,1778471791,0.84216027483697,-0.7235487951318832,0.8734011334764095,1.9796041264167528,0.0570189029539112,-6.141835309471187
870,1778471791,0.846349887418485,-0.7488491675659417,0.9691114167382048,1.5963912632083763,0.3388290014769556,-5.691224154735593
871,1778471791,0.8505395,-0.77414954,1.0648217,1.2131784,0.6206391,-5.240613
872,1778471791,0.63967407,-0.9396204,1.1353543,1.2131784,0.6206391,-5.240613
873,1778471791,0.007321725,-1.62200445,0.7977011199999999,1.5332718,0.84604836,-5.009706
874,1778471791,-0.3295992874999999,-1.931835125,0.344181735,3.5332446,0.05833763,-4.6761735
875,1778471791,-0.6665203,-2.2416658,-0.10933765,5.5332174,-0.7293731,-4.342641
876,1778471791,-1.2507983413310235,-2.680538722778783,-0.7155267949700481,5.329118769491757,-0.9972058521435642,-4.2355350415964095
877,1778471791,-1.835076382662047,-3.1194116455575656,-1.3217159399400962,5.125020138983514,-1.2650386042871282,-4.1284290831928185
878,1778471791,-2.4193394666666665,-3.5582733333333336,-1.9278895666666669,4.920926733333333,-1.5328645,-4.021325866666667
879,1778471791,-2.7566223160576,-3.9237849880576,-1.58251230421888,1.7625902938905598,-1.2911685937472,-2.7589889914521604
880,1778471791,-3.0939138,-4.289306,-1.2371262,-1.395827,-1.0494665,-1.4966198
881,1778471791,-3.01654665971328,-4.4032822088768,-0.0567892168799999,-1.77365198609792,-0.2596076099356161,-0.814580050002944
882,1778471791,-2.9391815,-4.5172555,1.12351755,-2.1514673,0.53023106,-0.13255776
883,1778471791,-2.4004250000000003,-3.9817941,1.33169835,2.6364944,2.9388726,2.9883528
884,1778471791,-1.790892,-3.6589062,0.8978866,2.6364944,2.9388726,2.9883528
885,1778471791,-1.31375399271168,-3.38385012932736,0.2215953185823999,2.6364944,2.9388726,2.9883528
886,1778471791,-0.8366282,-3.1088011,-0.45467865,2.6364944,2.9388726,2.9883528
887,1778471791,-0.53009236,-2.7490609,-1.0384636,2.588236,6.042679,4.180151
888,1778471791,-0.2294138,-2.3998148,-1.4758141,-1.4220943,7.620544,7.8630576
889,1778471791,0.83077085,-1.4196811,-2.0222585,1.0848967,8.031656,5.8136044
890,1778471791,0.9950556665824076,-1.2767254317238306,-1.7838714993860731,0.5439552844196283,7.364960761656746,6.079357944177762
891,1778471791,1.1593404831648155,-1.1337697634476611,-1.5454844987721463,0.0030138688392564,6.698265523313491,6.345111488355523
892,1778471791,1.3236295054923612,-0.9908104354595396,-1.3070913953728882,-0.5379413950186122,6.03155321735367,6.610871835911099
893,1778471791,1.4879185278199072,-0.8478511074714181,-1.06869829197363,-1.0788966588764808,5.364840911393849,6.876632183466675
894,1778471791,1.652203344402315,-0.7048954391952487,-0.8303112913597032,-1.6198380744568526,4.698145673050595,7.142385727644436
895,1778471791,1.8164881609847228,-0.5619397709190793,-0.5919242907457762,-2.1607794900372244,4.031450434707341,7.408139271822198
896,1778471791,1.9807771833122685,-0.4189804429309577,-0.3535311873465181,-2.701734753895093,3.3647381287475193,7.673899619377773
897,1778471791,2.1450662056398144,-0.2760211149428361,-0.1151380839472599,-3.2426900177529614,2.6980258227876983,7.939659966933349
898,1778471791,2.309351022222222,-0.1330654466666666,0.1232489166666666,-3.7836314333333334,2.0313305844444445,8.20541351111111
899,1778471791,2.0967536765226247,-0.051533635938492,0.221358253356999,-4.0907103813410925,2.122687297121776,7.381890629044499
900,1778471791,1.8841508882613125,0.0300002620307539,0.3194701016784995,-4.397797190670547,2.214046348560888,6.558346664522249
901,1778471791,1.6715481,0.11153416,0.41758195,-4.704884,2.3054054,5.7348027
902,1778471791,1.352138185,-0.05137405,0.2749304864999999,-4.9861875,1.9569068,5.48221015
903,1778471791,1.03272827,-0.21428226,0.132279023,-5.267491,1.6084082,5.2296176
904,1778471791,0.869636985,-0.44052333,0.1197100815,-6.2512894999999995,1.15117555,5.31788755
905,1778471791,0.7065457,-0.6667644,0.10714114,-7.235088,0.6939429,5.4061575
906,1778471791,0.7170402,-0.77244115,0.23966423,-7.235088,0.6939429,5.4061575
907,1778471791,0.7785686876781468,-0.8122218055125667,0.4607492023237305,-7.614428748057253,0.6249841802438817,5.577468242925897
908,1778471791,0.8400987505057401,-0.85200347942295,0.6818398344951986,-7.993779207361959,0.5560236951219408,5.748783371462948
909,1778471791,0.9016288133333332,-0.8917851533333333,0.9029304666666668,-8.373129666666665,0.48706321,5.920098499999999
910,1778471791,1.000659433992573,-0.6310389034194425,1.0480134162858856,-8.082250151489804,0.3439002737960965,5.865398951663497
911,1778471791,1.0996900546518125,-0.3702926535055517,1.1930963659051046,-7.791370636312943,0.200737337592193,5.8106994033269945
912,1778471791,1.1987232105273915,-0.1095397284022206,1.3381830296953752,-7.500483674525176,0.0575707363702105,5.755998454664131
913,1778471791,1.2977563664029708,0.1512131967011103,1.4832696934856455,-7.20959671273741,-0.085595864851772,5.701297506001267
914,1778471791,1.3967869870622105,0.4119594466150011,1.6283526431048647,-6.918717197560549,-0.2287588010556754,5.646597957664765
915,1778471791,1.4958176077214498,0.6727056965288919,1.7734355927240837,-6.627837682383688,-0.3719217372595789,5.591898409328262
916,1778471791,1.594850763597029,0.9334586216322228,1.918522256514354,-6.3369507205959215,-0.5150883384815614,5.537197460665399
917,1778471791,1.6938839194726083,1.194211546735554,2.063608920304625,-6.046063758808155,-0.658254939703544,5.482496512002535
918,1778471791,1.7929145401318478,1.4549577966494447,2.2086918699238436,-5.755184243631294,-0.8014178759074475,5.427796963666033
919,1778471791,1.891945160791087,1.7157040465633355,2.353774819543063,-5.464304728454432,-0.9445808121113508,5.373097415329531
920,1778471791,1.9909783166666664,1.976456971666667,2.498861483333333,-5.173417766666666,-1.0877474133333334,5.318396466666667
921,1778471791,7.793724,5.462489,3.9215117,-0.5180137,-2.8955014,3.6505308
922,1778471791,7.8950078,5.2506475,4.052204349999999,0.1627955999999999,-1.11971605,0.4071416999999997
923,1778471791,7.9962916,5.038806,4.182897,0.8436049,0.6560693,-2.8362474
924,1778471791,7.0190864,3.5144246,4.0235276,0.8436049,0.6560693,-2.8362474
925,1778471791,6.273722879292071,2.8772208751956274,3.534347218095011,1.9588603001152007,1.1832549971874011,-4.512490207511072
926,1778471791,5.528378439646036,2.2400334625978138,3.0451793590475056,3.0740871500576006,1.7104271985937007,-6.188690103755536
927,1778471791,4.783034000000001,1.60284605,2.5560115000000003,4.189314,2.2375994,-7.86489
928,1778471791,3.9822822,0.7128912,1.5231613,4.189314,2.2375994,-7.86489
929,1778471791,3.3660374,-0.18157859,0.94157284,5.2381697,1.5198327,-9.376171
930,1778471791,2.6243474,-0.98428285,0.9349833,5.2381697,1.5198327,-9.376171
931,1778471791,2.4341487460985767,-1.1862774859140868,0.9462911070109568,5.276857039727617,1.3420739504548247,-9.596078580195924
932,1778471791,2.243945223049288,-1.3882772929570435,0.9575992035054784,5.315545369863808,1.1643106502274123,-9.815991790097964
933,1778471791,2.0537417,-1.5902771,0.9689073,5.3542337,0.98654735,-10.035905
934,1778471792,1.6305465,-1.9834533,0.77366143,5.7897806,0.24923302,-10.255816
935,1778471792,0.9901402,-2.0603313,0.11568313,6.1269784,-0.36346483,-10.260093
936,1778471792,0.9529211740683772,-1.916987093478428,0.060973165314277,5.164450219864662,-0.8755778899755094,-9.663068905459603
937,1778471792,0.9157021481367548,-1.7736428869568557,0.0062632006285541,4.2019220397293235,-1.3876909499510188,-9.066044810919204
938,1778471792,0.878484075,-1.63030235,-0.0484453635,3.2394185,-1.8997909,-8.469036
939,1778471792,0.936019821033024,-1.50070968380736,0.0480170335155136,3.2394185,-1.8997909,-8.469036
940,1778471792,0.99355704,-1.3711137,0.1444819,3.2394185,-1.8997909,-8.469036
941,1778471792,1.101797805464064,-1.25811370361856,0.313127623637632,2.15175892813568,-1.42422621284992,-7.968730896176639
942,1778471792,1.2100358,-1.1451166,0.48176903,1.0641272,-0.9486737,-7.4684386
943,1778471792,1.248719,-1.05811015,0.8516377500000001,1.0641272,-0.9486737,-7.4684386
944,1778471792,1.1767831,-1.040232975,0.940413625,0.6591235649999999,-0.0601702199999999,-7.0368623
945,1778471792,1.1048472,-1.0223558,1.0291895,0.25411993,0.82833326,-6.605286
946,1778471792,1.05774415,-0.9609754,1.0437109,0.25411993,0.82833326,-6.605286
947,1778471792,1.0106411,-0.899595,1.0582323,0.25411993,0.82833326,-6.605286
948,1778471792,1.14950965,-0.6897058,0.69556315,0.65301496,1.1930199,-6.096435
949,1778471792,1.1874000099904,-0.67548928053088,0.527344544329408,1.193332145971456,1.075121370918144,-5.8294835830656
950,1778471792,1.2252894,-0.6612731249999999,0.359130245,1.7336355,0.95722586,-5.562539
951,1778471792,1.13199969412352,-0.7322318542166399,0.260837440664,1.76906524649344,0.609953410144256,-5.71922384440832
952,1778471792,1.0387076,-0.8031924,0.16254212,1.8044959,0.26267207,-5.8759127
953,1778471792,0.34338855,-1.0972814,0.216966895,1.8897116,-0.03084868,-5.81116105
954,1778471792,-0.030019043,-1.2410312,0.1696198,2.2559254,-0.79351395,-5.3914967
955,1778471792,-0.2538465367771258,-1.461002595464078,-0.0352592844113213,2.45276859229991,-1.0022811221967929,-4.943639310118375
956,1778471792,-0.4776797606114371,-1.6809796222679612,-0.2401436137943393,2.649616823850045,-1.2110536389016036,-4.495770454940812
957,1778471792,-0.7015129844457484,-1.900956649071844,-0.4450279431773572,2.84646505540018,-1.4198261556064145,-4.04790159976325
958,1778471792,-0.9253404782228742,-2.120928044535922,-0.6499070275886786,3.04330824770009,-1.6285933278032072,-3.600044209881625
959,1778471792,-1.149167972,-2.3408994400000003,-0.854786112,3.2401514399999995,-1.8373605,-3.15218682
960,1778471792,-1.484673461,-2.8509669200000003,-1.358532456,0.87359842,-0.9174585195,-2.1212906599999997
961,1778471792,-1.82017895,-3.3610344000000003,-1.8622788,-1.4929546,0.002443461,-1.0903945
962,1778471792,-1.8022797776021264,-3.327715430898422,-1.662156962299828,-1.3721157567109024,0.1664033402606199,-0.866063785427183
963,1778471792,-1.7843806052042532,-3.294396461796843,-1.462035124599656,-1.2512769134218047,0.3303632195212398,-0.641733070854366
964,1778471792,-1.7664809745817012,-3.261076639718737,-1.2619081637148624,-1.1304349766187218,0.4943272962084959,-0.4173966133417464
965,1778471792,-1.748581343959149,-3.2277568176406315,-1.0617812028300686,-1.009593039815639,0.658291372895752,-0.1930601558291267
966,1778471792,-1.730682171561276,-3.194437848539053,-0.8616593651298968,-0.8887541965265414,0.8222512521563718,0.0312705587436902
967,1778471792,-1.7127829991634025,-3.1611188794374745,-0.661537527429725,-0.7679153532374438,0.9862111314169918,0.2556012733165071
968,1778471792,-1.6948833685408506,-3.127799057359369,-0.4614105665449313,-0.6470734164343609,1.1501752081042478,0.4799377308291268
969,1778471792,-1.6769837379182986,-3.094479235281263,-0.2612836056601375,-0.5262314796312781,1.314139284791504,0.7042741883417465
970,1778471792,-1.6590845655204252,-3.061160266179684,-0.0611617679599656,-0.4053926363421805,1.478099164052124,0.9286049029145634
971,1778471792,-1.641185393122552,-3.0278412970781057,0.1389600697402061,-0.2845537930530828,1.6420590433127438,1.1529356174873804
972,1778471792,-1.6232857625,-2.994521475,0.3390870306249999,-0.16371185625,1.80602312,1.377272075
973,1778471792,0.12178457,-1.4643435,-1.1273005,-0.75625116,7.499593,7.0060134
974,1778471792,0.5127643,-1.1702545,-1.104359,-0.75625116,7.499593,7.0060134
975,1778471792,0.9984382,-0.92278045,-1.0457853,-1.3384057,6.8972793,7.964461
976,1778471792,2.12561655,-0.495924325,-0.713257325,-2.3487768,2.6719246,9.442755
977,1778471792,2.2187866175616,-0.438204043689856,-0.52624606878656,-2.49599728439808,1.6279425372006402,9.4485580742784
978,1778471792,2.3119543,-0.38048524,-0.3392396,-2.643214,0.5839872,9.454361
979,1778471792,2.32891613288576,-0.335701308241664,-0.1159300603986943,-2.7687451431808,0.380266237661696,9.4235128948608
980,1778471792,2.3458784,-0.29091623,0.107385196,-2.8942795,0.17654006,9.392664
981,1778471792,2.3829749,-0.22013964,0.53350914,-2.8942795,0.17654006,9.392664
982,1778471792,2.2487434499999996,-0.156806783,0.51386254,-3.2849278500000003,1.0949759300000002,8.989493
983,1778471792,2.114512,-0.093473926,0.49421594,-3.6755762,2.0134118,8.586322
984,1778471792,2.344658,-0.13032657,0.67091334,-4.039652,2.4043655,8.046927
985,1778471792,2.114512,-0.093473926,0.49421594,-4.039652,2.4043655,8.046927
986,1778471792,1.9636846,-0.076389915,0.115195015,-5.191744,1.6303993,7.548462
987,1778471792,1.8650257378496,-0.188044675800768,0.191766989866176,-5.9779174368512,1.098647941504512,7.070160622336
988,1778471792,1.76636435,-0.299702295,0.268340925,-6.764111,0.56688297,6.591847
989,1778471792,1.5380449033979875,-0.4270210028781349,0.517324232594059,-7.162401930744878,0.5764533533324515,6.394330495761475
990,1778471792,1.309731301698994,-0.5543364514390674,0.7663011662970295,-7.560682665372439,0.5860234916662258,6.196819047880737
991,1778471792,1.0814177,-0.6816519,1.0152781,-7.9589634,0.59559363,5.9993076
992,1778471792,1.045581644202905,-0.6562697300749223,1.1619577849839573,-7.9589634,0.59559363,5.9993076
993,1778471792,1.0097455884058095,-0.6308875601498447,1.3086374699679149,-7.9589634,0.59559363,5.9993076
994,1778471792,0.97391045,-0.60550604,1.4553134,-7.9589634,0.59559363,5.9993076
995,1778471792,1.1800168,-0.46078008,1.4765464,-7.194771,0.022602014,6.5796294
996,1778471792,1.8963249,0.1701078952,1.4703229,-7.194771,0.022602014,6.5796294
997,1778471792,1.96563798719616,0.7218064092505908,1.95130490649088,-6.7946490785049605,-0.5748318400554497,6.42904927259904
998,1778471792,2.0349493,1.2734908,2.4322746,-6.3945374,-1.1722504,6.278473
999,1778471792,2.0129843,1.9290285,3.0087378,-5.032308,-0.6010914,5.42204
