id,timestamp,acc_x,acc_y,acc_z,gyro_x,gyro_y,gyro_z
0,0,-0.015902,0.202141,0.907232,0.0,0.0,0.0
1,10,0.048119,0.186437,0.882064,0.0,0.0,0.0
2,20,0.100612,0.171865,0.91896,0.0,0.0,0.0
3,30,0.10682749999999999,0.170642,0.9762995,0.0,0.0,0.0
4,40,0.113043,0.169419,1.033639,0.0,0.0,0.0
5,50,0.090619,0.174266,1.02156,0.0,0.0,0.0
6,60,0.0259405,0.1950535,1.08185,0.0,0.0,0.0
7,70,0.0213,0.200917,1.080015,0.0,0.0,0.0
8,80,0.006621,0.211621,1.038532,0.0,0.0,0.0
9,90,-0.010291,0.213043,0.969006,0.0,0.0,0.0
10,100,-0.016919,0.2033105,0.945665,0.0,0.0,0.0
11,110,-0.013860500000000001,0.195772,0.921254,0.0,0.0,0.0
12,120,-0.010596,0.19185,0.905306,0.0,0.0,0.0
13,130,0.017431,0.1787,0.862278,0.0,0.0,0.0
14,140,0.026193,0.176254,0.855963,0.0,0.0,0.0
15,150,0.026193,0.176254,0.855963,0.0,0.0,0.0
16,160,0.026193,0.176254,0.855963,0.0,0.0,0.0
17,170,0.026193,0.176254,0.855963,0.0,0.0,0.0
18,180,0.026193,0.176254,0.855963,0.0,0.0,0.0
19,190,0.026193,0.176254,0.855963,0.0,0.0,0.0
20,200,0.026193,0.176254,0.855963,0.0,0.0,0.0
21,210,0.026193,0.176254,0.855963,0.0,0.0,0.0
22,220,0.026193,0.176254,0.855963,0.0,0.0,0.0
23,230,0.026193,0.176254,0.855963,0.0,0.0,0.0
24,240,0.026193,0.176254,0.855963,0.0,0.0,0.0
25,250,-0.010856000000000001,0.15708699999999998,0.871101,0.0,0.0,0.0
26,260,-0.047453999999999996,0.1173855,0.9080505,0.0,0.0,0.0
27,270,-0.047202,0.108364,0.913762,0.0,0.0,0.0
28,280,-0.025688,0.12487000000000001,0.886338,0.0,0.0,0.0
29,290,-0.012232,0.147706,0.858609,0.0,0.0,0.0
30,300,-0.009067,0.161774,0.859633,0.0,0.0,0.0
31,310,-0.012026,0.166055,0.8770640000000001,0.0,0.0,0.0
32,320,-0.024266,0.177875,0.902859,0.0,0.0,0.0
33,330,-0.024266,0.177875,0.902859,0.0,0.0,0.0
34,340,-0.067691,0.179618,0.995612,0.0,0.0,0.0
35,350,-0.097248,0.160352,1.051483,0.0,0.0,0.0
36,360,-0.096384,0.1592815,1.058922,0.0,0.0,0.0
37,370,-0.069113,0.166667,1.075642,0.0,0.0,0.0
38,380,-0.06208,0.171055,1.075841,0.0,0.0,0.0
39,390,-0.040061,0.186437,1.072676,0.0,0.0,0.0
40,400,-0.024465,0.195719,1.068089,0.0,0.0,0.0
41,410,-0.009633,0.202087,1.0648775000000001,0.0,0.0,0.0
42,420,-0.005,0.203058,1.064113,0.0,0.0,0.0
43,430,0.001728,0.206223,1.061269,0.0,0.0,0.0
44,440,0.0264525,0.2063685,1.0545339999999999,0.0,0.0,0.0
45,450,0.04159,0.204786,1.050765,0.0,0.0,0.0
46,460,0.056162,0.199694,1.042706,0.0,0.0,0.0
47,470,0.069618,0.194495,1.038028,0.0,0.0,0.0
48,480,0.08552,0.190627,1.033838,0.0,0.0,0.0
49,490,0.122829,0.192049,1.011208,0.0,0.0,0.0
50,500,0.113349,0.196743,1.003364,0.0,0.0,0.0
51,510,0.0934255,0.1970945,1.003364,0.0,0.0,0.0
52,520,0.005703,0.199388,1.015596,0.0,0.0,0.0
53,530,-0.034755,0.209893,1.079006,0.0,0.0,0.0
54,540,-0.034755,0.209893,1.079006,0.0,0.0,0.0
55,550,-0.047194,0.21284399999999998,1.0996484999999998,0.0,0.0,0.0
56,560,-0.030627,0.1896025,1.1221174999999999,0.0,0.0,0.0
57,570,0.009587,0.169832,1.11396,0.0,0.0,0.0
58,580,0.011514,0.166254,1.110291,0.0,0.0,0.0
59,590,0.025489,0.144755,1.096636,0.0,0.0,0.0
60,600,0.033028,0.133746,1.102951,0.0,0.0,0.0
61,610,0.0326685,0.131552,1.1082035000000001,0.0,0.0,0.0
62,620,-0.040367,0.141086,1.131498,0.0,0.0,0.0
63,630,-0.076957,0.15107,1.143012,0.0,0.0,0.0
64,640,-0.116514,0.160658,1.163196,0.0,0.0,0.0
65,650,-0.134052,0.15107,1.142003,0.0,0.0,0.0
66,660,-0.134052,0.15107,1.142003,0.0,0.0,0.0
67,670,-0.092049,0.12396,1.071453,0.0,0.0,0.0
68,680,-0.092049,0.12396,1.071453,0.0,0.0,0.0
69,690,-0.092049,0.12396,1.071453,0.0,0.0,0.0
70,700,-0.092049,0.12396,1.071453,0.0,0.0,0.0
71,710,-0.092049,0.12396,1.071453,0.0,0.0,0.0
72,720,-0.092049,0.12396,1.071453,0.0,0.0,0.0
73,730,-0.092049,0.12396,1.071453,0.0,0.0,0.0
74,740,-0.092049,0.12396,1.071453,0.0,0.0,0.0
75,750,-0.092049,0.12396,1.071453,0.0,0.0,0.0
76,760,-0.092049,0.12396,1.071453,0.0,0.0,0.0
77,770,-0.092049,0.12396,1.071453,0.0,0.0,0.0
78,780,-0.0624315,0.08558099999999999,0.922729,0.0,0.0,0.0
79,790,-0.061361,0.079618,0.921605,0.0,0.0,0.0
80,800,-0.053517,0.073502,0.917018,0.0,0.0,0.0
81,810,-0.0502065,0.0729895,0.9106495,0.0,0.0,0.0
82,820,-0.039144,0.077875,0.872584,0.0,0.0,0.0
83,830,-0.040214,0.0806805,0.866468,0.0,0.0,0.0
84,840,-0.045459,0.089098,0.852294,0.0,0.0,0.0
85,850,-0.050872,0.109373,0.84893,0.0,0.0,0.0
86,860,-0.069618,0.126713,0.891636,0.0,0.0,0.0
87,870,-0.08237,0.132309,0.924771,0.0,0.0,0.0
88,880,-0.0802755,0.129098,0.9580045,0.0,0.0,0.0
89,890,-0.074312,0.12711,0.95974,0.0,0.0,0.0
90,900,-0.058609,0.125184,0.943318,0.0,0.0,0.0
91,910,-0.047202,0.125994,0.911116,0.0,0.0,0.0
92,920,-0.036193,0.13078,0.875229,0.0,0.0,0.0
93,930,-0.011315,0.148425,0.86208,0.0,0.0,0.0
94,940,-0.001277,0.160451,0.9117275,0.0,0.0,0.0
95,950,-0.000306,0.16422,0.930382,0.0,0.0,0.0
96,960,-0.000306,0.16422,0.930382,0.0,0.0,0.0
97,970,-0.016208,0.18552,1.041896,0.0,0.0,0.0
98,980,-0.017431,0.184297,1.051988,0.0,0.0,0.0
99,990,-0.012034,0.181346,1.055352,0.0,0.0,0.0
100,1000,-0.005,0.171361,1.053624,0.0,0.0,0.0
101,1010,-0.0027525,0.16585650000000002,1.0521945,0.0,0.0,0.0
102,1020,-0.003257,0.155963,1.034862,0.0,0.0,0.0
103,1030,-0.013043,0.161774,1.029771,0.0,0.0,0.0
104,1040,-0.013043,0.161774,1.029771,0.0,0.0,0.0
105,1050,-0.029159,0.183991,1.034862,0.0,0.0,0.0
106,1060,-0.021101,0.170138,1.027018,0.0,0.0,0.0
107,1070,-0.032569,0.1817045,1.0434255000000001,0.0,0.0,0.0
108,1080,-0.033226,0.17156,1.055153,0.0,0.0,0.0
109,1090,-0.040566,0.151575,1.091544,0.0,0.0,0.0
110,1100,-0.039343,0.128853,1.103975,0.0,0.0,0.0
111,1110,-0.035474,0.115183,1.107339,0.0,0.0,0.0
112,1120,-0.033226,0.105917,1.110291,0.0,0.0,0.0
113,1130,-0.032829,0.100306,1.113257,0.0,0.0,0.0
114,1140,-0.034755,0.092049,1.115703,0.0,0.0,0.0
115,1150,-0.032829,0.088379,1.108761,0.0,0.0,0.0
116,1160,-0.032829,0.088379,1.108761,0.0,0.0,0.0
117,1170,-0.044755,0.082064,1.070948,0.0,0.0,0.0
118,1180,-0.045673,0.079817,1.062492,0.0,0.0,0.0
119,1190,-0.046177,0.079312,1.017324,0.0,0.0,0.0
120,1200,-0.046177,0.079312,1.017324,0.0,0.0,0.0
121,1210,-0.046177,0.079312,1.017324,0.0,0.0,0.0
122,1220,-0.046177,0.079312,1.017324,0.0,0.0,0.0
123,1230,-0.046177,0.079312,1.017324,0.0,0.0,0.0
124,1240,-0.046177,0.079312,1.017324,0.0,0.0,0.0
125,1250,-0.046177,0.079312,1.017324,0.0,0.0,0.0
126,1260,-0.046177,0.079312,1.017324,0.0,0.0,0.0
127,1270,-0.046177,0.079312,1.017324,0.0,0.0,0.0
128,1280,-0.046177,0.079312,1.017324,0.0,0.0,0.0
129,1290,-0.046177,0.079312,1.017324,0.0,0.0,0.0
130,1300,-0.037615,0.089602,0.88604,0.0,0.0,0.0
131,1310,-0.037615,0.089602,0.88604,0.0,0.0,0.0
132,1320,-0.059380999999999996,0.093838,0.872324,0.0,0.0,0.0
133,1330,-0.071361,0.094908,0.878899,0.0,0.0,0.0
134,1340,-0.067691,0.090321,0.947202,0.0,0.0,0.0
135,1350,-0.059128,0.085627,0.986345,0.0,0.0,0.0
136,1360,-0.059128,0.085627,0.986345,0.0,0.0,0.0
137,1370,-0.01815,0.054939,1.026101,0.0,0.0,0.0
138,1380,-0.014985,0.053012,1.026101,0.0,0.0,0.0
139,1390,-0.006422,0.055856,1.014878,0.0,0.0,0.0
140,1400,-0.016713,0.07156,1.004893,0.0,0.0,0.0
141,1410,-0.033226,0.087875,1.000719,0.0,0.0,0.0
142,1420,-0.066972,0.117431,1.01315,0.0,0.0,0.0
143,1430,-0.075031,0.126193,1.026606,0.0,0.0,0.0
144,1440,-0.076758,0.125688,1.041177,0.0,0.0,0.0
145,1450,-0.073089,0.102554,1.056881,0.0,0.0,0.0
146,1460,-0.063502,0.090107,1.055657,0.0,0.0,0.0
147,1470,-0.059128,0.077875,1.054633,0.0,0.0,0.0
148,1480,-0.062584,0.062492,1.054128,0.0,0.0,0.0
149,1490,-0.079618,0.058609,1.051483,0.0,0.0,0.0
150,1500,-0.107446,0.061774,1.049235,0.0,0.0,0.0
151,1510,-0.107446,0.061774,1.049235,0.0,0.0,0.0
152,1520,-0.11896,0.068089,1.044144,0.0,0.0,0.0
153,1530,-0.143318,0.07396,1.0114144999999999,0.0,0.0,0.0
154,1540,-0.149954,0.065948,0.997752,0.0,0.0,0.0
155,1550,-0.149954,0.065948,0.997752,0.0,0.0,0.0
156,1560,-0.1364985,0.0555505,1.0015290000000001,0.0,0.0,0.0
157,1570,-0.100612,0.014174,1.002645,0.0,0.0,0.0
158,1580,-0.100612,0.014174,1.002645,0.0,0.0,0.0
159,1590,-0.100413,-0.002339,0.998471,0.0,0.0,0.0
160,1600,-0.105703,-0.014067,0.991942,0.0,0.0,0.0
161,1610,-0.11565,-0.0195185,0.962997,0.0,0.0,0.0
162,1620,-0.111621,-0.014985,0.953624,0.0,0.0,0.0
163,1630,-0.1083105,-0.0101455,0.9490825,0.0,0.0,0.0
164,1640,-0.105,-0.005306,0.944541,0.0,0.0,0.0
165,1650,-0.1021945,0.0242585,0.9269645,0.0,0.0,0.0
166,1660,-0.100612,0.029251,0.92844,0.0,0.0,0.0
167,1670,-0.0968425,0.034297,0.9301755,0.0,0.0,0.0
168,1680,-0.08608550000000001,0.042508000000000004,0.93211,0.0,0.0,0.0
169,1690,-0.053517,0.048318,0.892202,0.0,0.0,0.0
170,1700,0.00867,0.052492,0.836193,0.0,0.0,0.0
171,1710,0.017179,0.052951,0.8172785,0.0,0.0,0.0
172,1720,0.025688,0.05341,0.798364,0.0,0.0,0.0
173,1730,0.025688,0.05341,0.798364,0.0,0.0,0.0
174,1740,0.025688,0.05341,0.798364,0.0,0.0,0.0
175,1750,0.025688,0.05341,0.798364,0.0,0.0,0.0
176,1760,0.025688,0.05341,0.798364,0.0,0.0,0.0
177,1770,0.025688,0.05341,0.798364,0.0,0.0,0.0
178,1780,0.025688,0.05341,0.798364,0.0,0.0,0.0
179,1790,0.025688,0.05341,0.798364,0.0,0.0,0.0
180,1800,0.025688,0.05341,0.798364,0.0,0.0,0.0
181,1810,0.025688,0.05341,0.798364,0.0,0.0,0.0
182,1820,0.0630505,0.061261499999999997,0.830321,0.0,0.0,0.0
183,1830,0.09613150000000001,0.073142,0.86646,0.0,0.0,0.0
184,1840,0.09185,0.077171,0.870642,0.0,0.0,0.0
185,1850,0.028333,0.183792,0.843731,0.0,0.0,0.0
186,1860,0.030076,0.196437,0.838425,0.0,0.0,0.0
187,1870,0.067691,0.210398,0.841284,0.0,0.0,0.0
188,1880,0.101835,0.218654,0.879924,0.0,0.0,0.0
189,1890,0.125994,0.220642,0.9168735,0.0,0.0,0.0
190,1900,0.164832,0.233135,0.991132,0.0,0.0,0.0
191,1910,0.16615449999999998,0.24078,1.023754,0.0,0.0,0.0
192,1920,0.1458715,0.280535,1.116055,0.0,0.0,0.0
193,1930,0.083073,0.37656,1.373395,0.0,0.0,0.0
194,1940,0.089602,0.39052,1.52497,0.0,0.0,0.0
195,1950,0.153624,0.407339,1.641391,0.0,0.0,0.0
196,1960,0.153624,0.407339,1.641391,0.0,0.0,0.0
197,1970,0.1837465,0.493173,1.7195719999999999,0.0,0.0,0.0
198,1980,0.162584,0.599694,1.760245,0.0,0.0,0.0
199,1990,0.1538225,0.6326225,1.76315,0.0,0.0,0.0
200,2000,0.132309,0.730994,1.758303,0.0,0.0,0.0
201,2010,0.130168,0.769526,1.745872,0.0,0.0,0.0
202,2020,0.16946450000000002,0.7740595,1.8056580000000002,0.0,0.0,0.0
203,2030,0.228998,0.761009,1.951835,0.0,0.0,0.0
204,2040,0.249235,0.743425,2.038226,0.0,0.0,0.0
205,2050,0.249235,0.743425,2.038226,0.0,0.0,0.0
206,2060,0.249235,0.743425,2.038226,0.0,0.0,0.0
207,2070,0.067171,0.681957,2.683287,0.0,0.0,0.0
208,2080,-0.15555,0.631606,2.502447,0.0,0.0,0.0
209,2090,-0.105703,0.566254,2.15393,0.0,0.0,0.0
210,2100,-0.093272,0.528639,1.966468,0.0,0.0,0.0
211,2110,-0.08817249999999999,0.5229355,1.915191,0.0,0.0,0.0
212,2120,-0.03445,0.419572,1.794603,0.0,0.0,0.0
213,2130,-0.015849000000000002,0.400306,1.7637615,0.0,0.0,0.0
214,2140,0.033028,0.346376,1.617232,0.0,0.0,0.0
215,2150,0.02763,0.28185,1.492049,0.0,0.0,0.0
216,2160,0.02763,0.28185,1.492049,0.0,0.0,0.0
217,2170,,,,,,
218,2180,-0.014067,0.23042800000000002,1.2873545000000002,0.0,0.0,0.0
219,2190,-0.049128,0.175031,1.035887,0.0,0.0,0.0
220,2200,-0.084297,0.162584,0.914985,0.0,0.0,0.0
221,2210,-0.084297,0.162584,0.914985,0.0,0.0,0.0
222,2220,-0.165031,0.124266,0.678486,0.0,0.0,0.0
223,2230,-0.171667,0.117125,0.638532,0.0,0.0,0.0
224,2240,-0.171667,0.117125,0.638532,0.0,0.0,0.0
225,2250,-0.171667,0.117125,0.638532,0.0,0.0,0.0
226,2260,-0.171667,0.117125,0.638532,0.0,0.0,0.0
227,2270,-0.171667,0.117125,0.638532,0.0,0.0,0.0
228,2280,-0.171667,0.117125,0.638532,0.0,0.0,0.0
229,2290,-0.171667,0.117125,0.638532,0.0,0.0,0.0
230,2300,-0.171667,0.117125,0.638532,0.0,0.0,0.0
231,2310,-0.171667,0.117125,0.638532,0.0,0.0,0.0
232,2320,-0.171667,0.117125,0.638532,0.0,0.0,0.0
233,2330,-0.171667,0.117125,0.638532,0.0,0.0,0.0
234,2340,-0.171667,0.117125,0.638532,0.0,0.0,0.0
235,2350,-0.15652899999999997,0.051682000000000006,0.571766,0.0,0.0,0.0
236,2360,-0.153104,-0.013349,0.539144,0.0,0.0,0.0
237,2370,-0.13552,-0.0130965,0.5713535,0.0,0.0,0.0
238,2380,-0.0992815,0.044747499999999996,0.586491,0.0,0.0,0.0
239,2390,-0.095,0.062691,0.569419,0.0,0.0,0.0
240,2400,-0.131911,0.096942,0.503563,0.0,0.0,0.0
241,2410,-0.164526,0.111009,0.456468,0.0,0.0,0.0
242,2420,-0.125275,0.120596,0.409786,0.0,0.0,0.0
243,2430,0.01448,0.105199,0.402951,0.0,0.0,0.0
244,2440,0.01448,0.105199,0.402951,0.0,0.0,0.0
245,2450,0.1294035,0.091896,0.510497,0.0,0.0,0.0
246,2460,0.118807,0.111567,0.6117735,0.0,0.0,0.0
247,2470,0.006422,0.166667,0.640673,0.0,0.0,0.0
248,2480,-0.014525999999999999,0.201323,0.621659,0.0,0.0,0.0
249,2490,-0.076758,0.398364,0.464725,0.0,0.0,0.0
250,2500,-0.078394,0.466468,0.432003,0.0,0.0,0.0
251,2510,-0.007446,0.470535,0.429358,0.0,0.0,0.0
252,2520,0.0415905,0.467989,0.46386099999999997,0.0,0.0,0.0
253,2530,0.164832,0.467171,0.53578,0.0,0.0,0.0
254,2540,0.109075,0.5180425,0.5390445,0.0,0.0,0.0
255,2550,-0.017324000000000003,0.606376,0.5419495000000001,0.0,0.0,0.0
256,2560,-0.087966,0.643838,0.54159,0.0,0.0,0.0
257,2570,-0.087966,0.643838,0.54159,0.0,0.0,0.0
258,2580,0.178486,0.684602,0.55474,0.0,0.0,0.0
259,2590,0.178486,0.684602,0.55474,0.0,0.0,0.0
260,2600,0.541896,0.479618,0.688792,0.0,0.0,0.0
261,2610,0.453012,0.360963,0.962584,0.0,0.0,0.0
262,2620,0.2989295,0.2704435,1.1188075,0.0,0.0,0.0
263,2630,-0.040367,0.14159,1.285015,0.0,0.0,0.0
264,2640,-0.228547,0.126407,1.220382,0.0,0.0,0.0
265,2650,-0.279159,0.1909785,1.04026,0.0,0.0,0.0
266,2660,-0.314274,0.2778745,0.7975,0.0,0.0,0.0
267,2670,-0.255352,0.370031,0.362187,0.0,0.0,0.0
268,2680,-0.289495,0.363914,0.282676,0.0,0.0,0.0
269,2690,-0.234358,0.260658,0.279709,0.0,0.0,0.0
270,2700,-0.106223,0.198471,0.344648,0.0,0.0,0.0
271,2710,0.029862,0.131804,0.431086,0.0,0.0,0.0
272,2720,0.088425,0.10030549999999999,0.5002525,0.0,0.0,0.0
273,2730,0.21019100000000002,0.031039499999999998,0.6566745,0.0,0.0,0.0
274,2740,0.273394,-0.006728,0.74393,0.0,0.0,0.0
275,2750,0.2274235,-0.0120795,0.7978594999999999,0.0,0.0,0.0
276,2760,0.128341,0.002393000000000001,0.8556115,0.0,0.0,0.0
277,2770,-0.105703,0.12711,0.743731,0.0,0.0,0.0
278,2780,-0.105703,0.12711,0.743731,0.0,0.0,0.0
279,2790,-0.105703,0.12711,0.743731,0.0,0.0,0.0
280,2800,-0.105703,0.12711,0.743731,0.0,0.0,0.0
281,2810,-0.105703,0.12711,0.743731,0.0,0.0,0.0
282,2820,-0.105703,0.12711,0.743731,0.0,0.0,0.0
283,2830,-0.105703,0.12711,0.743731,0.0,0.0,0.0
284,2840,-0.105703,0.12711,0.743731,0.0,0.0,0.0
285,2850,-0.105703,0.12711,0.743731,0.0,0.0,0.0
286,2860,-0.105703,0.12711,0.743731,0.0,0.0,0.0
287,2870,-0.105703,0.12711,0.743731,0.0,0.0,0.0
288,2880,0.137515,0.1367965,0.8320565,0.0,0.0,0.0
289,2890,0.080535,0.22639900000000002,0.844847,0.0,0.0,0.0
290,2900,-0.036193,0.358823,0.711514,0.0,0.0,0.0
291,2910,-0.0723245,0.3868505,0.6724235000000001,0.0,0.0,0.0
292,2920,-0.179205,0.475948,0.513761,0.0,0.0,0.0
293,2930,-0.148012,0.545061,0.295612,0.0,0.0,0.0
294,2940,-0.148012,0.545061,0.295612,0.0,0.0,0.0
295,2950,-0.031246,0.55698,0.263861,0.0,0.0,0.0
296,2960,0.048517000000000005,0.5383255,0.327164,0.0,0.0,0.0
297,2970,0.087661,0.519159,0.389297,0.0,0.0,0.0
298,2980,0.39776,0.3852215,0.8860855000000001,0.0,0.0,0.0
299,2990,0.439862,0.366055,1.006529,0.0,0.0,0.0
300,3000,0.39888349999999995,0.424312,1.2507185,0.0,0.0,0.0
301,3010,0.3007645,0.553211,1.6,0.0,0.0,0.0
302,3020,0.112125,0.884511,1.615703,0.0,0.0,0.0
303,3030,0.080275,0.904641,1.490879,0.0,0.0,0.0
304,3040,0.048425,0.924771,1.366055,0.0,0.0,0.0
305,3050,-0.01763,0.929465,1.175734,0.0,0.0,0.0
306,3060,0.018853,0.807645,1.264327,0.0,0.0,0.0
307,3070,0.018853,0.807645,1.264327,0.0,0.0,0.0
308,3080,0.018853,0.807645,1.264327,0.0,0.0,0.0
309,3090,0.428135,0.610199,2.120183,0.0,0.0,0.0
310,3100,0.3897095,0.683639,3.367171,0.0,0.0,0.0
311,3110,0.2736545,0.8797710000000001,3.221812,0.0,0.0,0.0
312,3120,0.114786,1.136391,2.707447,0.0,0.0,0.0
313,3130,0.214373,1.1687075,2.4046945,0.0,0.0,0.0
314,3140,0.31396,1.201024,2.101942,0.0,0.0,0.0
315,3150,0.5936315,1.0415365,2.0400074999999998,0.0,0.0,0.0
316,3160,0.7182495,0.9555045,2.042714,0.0,0.0,0.0
317,3170,0.788379,0.874511,1.94893,0.0,0.0,0.0
318,3180,0.755558,0.8558105,1.9313455,0.0,0.0,0.0
319,3190,0.722737,0.83711,1.913761,0.0,0.0,0.0
320,3200,0.5898545,0.8206884999999999,1.8644265,0.0,0.0,0.0
321,3210,0.531391,0.816407,1.848318,0.0,0.0,0.0
322,3220,0.26416649999999997,0.8300685,1.873448,0.0,0.0,0.0
323,3230,0.061055,0.846376,1.907141,0.0,0.0,0.0
324,3240,0.061055,0.846376,1.907141,0.0,0.0,0.0
325,3250,-0.115291,0.768089,1.646483,0.0,0.0,0.0
326,3260,-0.115291,0.768089,1.646483,0.0,0.0,0.0
327,3270,-0.0797705,0.6934785,1.6056115,0.0,0.0,0.0
328,3280,0.025887,0.556468,1.508869,0.0,0.0,0.0
329,3290,0.025887,0.556468,1.508869,0.0,0.0,0.0
330,3300,0.025887,0.556468,1.508869,0.0,0.0,0.0
331,3310,0.025887,0.556468,1.508869,0.0,0.0,0.0
332,3320,0.025887,0.556468,1.508869,0.0,0.0,0.0
333,3330,0.025887,0.556468,1.508869,0.0,0.0,0.0
334,3340,0.025887,0.556468,1.508869,0.0,0.0,0.0
335,3350,0.025887,0.556468,1.508869,0.0,0.0,0.0
336,3360,0.025887,0.556468,1.508869,0.0,0.0,0.0
337,3370,0.025887,0.556468,1.508869,0.0,0.0,0.0
338,3380,0.025887,0.556468,1.508869,0.0,0.0,0.0
339,3390,0.025887,0.556468,1.508869,0.0,0.0,0.0
340,3400,-0.196743,0.082982,0.313868,0.0,0.0,0.0
341,3410,-0.14052,0.052859500000000004,0.309839,0.0,0.0,0.0
342,3420,0.047905,-0.053823,0.397355,0.0,0.0,0.0
343,3430,0.047905,-0.053823,0.397355,0.0,0.0,0.0
344,3440,0.118242,-0.090214,0.466162,0.0,0.0,0.0
345,3450,0.0929205,-0.11656749999999999,0.580176,0.0,0.0,0.0
346,3460,-0.084297,-0.116101,0.622431,0.0,0.0,0.0
347,3470,-0.107592,-0.08348649999999999,0.6210549999999999,0.0,0.0,0.0
348,3480,-0.141032,-0.013257,0.5995415,0.0,0.0,0.0
349,3490,-0.151177,0.024358,0.579404,0.0,0.0,0.0
350,3500,-0.0747705,0.021360999999999998,0.5464835,0.0,0.0,0.0
351,3510,-0.005252,-0.014984500000000001,0.5427065,0.0,0.0,0.0
352,3520,0.0298625,-0.063356,0.5968880000000001,0.0,0.0,0.0
353,3530,0.028853,-0.115596,0.687049,0.0,0.0,0.0
354,3540,0.028853,-0.115596,0.687049,0.0,0.0,0.0
355,3550,0.028853,-0.115596,0.687049,0.0,0.0,0.0
356,3560,-0.149434,0.002951,0.670948,0.0,0.0,0.0
357,3570,-0.395,0.277263,0.825688,0.0,0.0,0.0
358,3580,-0.405917,0.337508,0.890826,0.0,0.0,0.0
359,3590,-0.234144,0.157385,0.670229,0.0,0.0,0.0
360,3600,-0.18409799999999998,0.2634555,0.759174,0.0,0.0,0.0
361,3610,-0.134052,0.369526,0.848119,0.0,0.0,0.0
362,3620,0.2154435,0.3686545,0.539809,0.0,0.0,0.0
363,3630,0.395413,0.375122,0.30948,0.0,0.0,0.0
364,3640,0.395413,0.375122,0.30948,0.0,0.0,0.0
365,3650,0.2192125,0.457133,0.14260699999999998,0.0,0.0,0.0
366,3660,0.0031575000000000006,0.553922,0.014832,0.0,0.0,0.0
367,3670,-0.09516050000000001,0.571758,0.20148349999999998,0.0,0.0,0.0
368,3680,-0.1343045,0.543318,0.4936315,0.0,0.0,0.0
369,3690,-0.114985,0.51182,0.638226,0.0,0.0,0.0
370,3700,-0.027416,0.3524465,0.9629970000000001,0.0,0.0,0.0
371,3710,-0.0026989999999999996,0.233226,1.039962,0.0,0.0,0.0
372,3720,0.00224,0.0897015,1.069878,0.0,0.0,0.0
373,3730,-0.069113,-0.004786,0.946483,0.0,0.0,0.0
374,3740,-0.069113,-0.004786,0.946483,0.0,0.0,0.0
375,3750,-0.1414905,0.01422,0.8150839999999999,0.0,0.0,0.0
376,3760,-0.213868,0.033226,0.683685,0.0,0.0,0.0
377,3770,-0.1803285,0.1370565,0.2512765,0.0,0.0,0.0
378,3780,-0.1270185,0.17161300000000002,0.0448545,0.0,0.0,0.0
379,3790,-0.108976,0.171865,-0.006728,0.0,0.0,0.0
380,3800,-0.102554,0.16208,-0.006728,0.0,0.0,0.0
381,3810,-0.014373000000000004,0.0327215,0.259373,0.0,0.0,0.0
382,3820,0.063303,-0.0263,0.427416,0.0,0.0,0.0
383,3830,0.063303,-0.0263,0.427416,0.0,0.0,0.0
384,3840,0.063303,-0.0263,0.427416,0.0,0.0,0.0
385,3850,0.063303,-0.0263,0.427416,0.0,0.0,0.0
386,3860,0.063303,-0.0263,0.427416,0.0,0.0,0.0
387,3870,0.063303,-0.0263,0.427416,0.0,0.0,0.0
388,3880,0.063303,-0.0263,0.427416,0.0,0.0,0.0
389,3890,0.063303,-0.0263,0.427416,0.0,0.0,0.0
390,3900,0.063303,-0.0263,0.427416,0.0,0.0,0.0
391,3910,0.063303,-0.0263,0.427416,0.0,0.0,0.0
392,3920,-0.039396,-0.022836500000000003,0.3921485,0.0,0.0,0.0
393,3930,-0.053012,-0.018654,0.348517,0.0,0.0,0.0
394,3940,-0.053012,-0.018654,0.348517,0.0,0.0,0.0
395,3950,0.019159,0.0012770000000000004,0.4520335,0.0,0.0,0.0
396,3960,0.09133,0.021208,0.55555,0.0,0.0,0.0
397,3970,0.0805355,0.0875155,0.8399615,0.0,0.0,0.0
398,3980,0.0313455,0.1262995,0.869977,0.0,0.0,0.0
399,3990,0.029862,0.144235,0.869618,0.0,0.0,0.0
400,4000,0.068914,0.265749,0.724159,0.0,0.0,0.0
401,4010,0.0316055,0.302752,0.68828,0.0,0.0,0.0
402,4020,-0.080627,0.444235,0.581346,0.0,0.0,0.0
403,4030,-0.080627,0.444235,0.581346,0.0,0.0,0.0
404,4040,-0.110398,0.51182,0.520382,0.0,0.0,0.0
405,4050,-0.0424545,0.5868505,0.5653900000000001,0.0,0.0,0.0
406,4060,0.025489,0.661881,0.610398,0.0,0.0,0.0
407,4070,0.030076,0.665856,0.663196,0.0,0.0,0.0
408,4080,0.030076,0.665856,0.663196,0.0,0.0,0.0
409,4090,0.302248,0.708976,1.098058,0.0,0.0,0.0
410,4100,0.45637649999999996,0.701789,1.164572,0.0,0.0,0.0
411,4110,0.680734,0.698058,1.382875,0.0,0.0,0.0
412,4120,0.680734,0.698058,1.382875,0.0,0.0,0.0
413,4130,0.6905735,0.8005655,2.0287005000000002,0.0,0.0,0.0
414,4140,0.666162,0.89185,2.447508,0.0,0.0,0.0
415,4150,0.6287995,0.990321,2.5816055,0.0,0.0,0.0
416,4160,0.591437,1.088792,2.715703,0.0,0.0,0.0
417,4170,0.648211,1.1810395,2.7648315,0.0,0.0,0.0
418,4180,0.731445,1.2519339999999999,2.8235475,0.0,0.0,0.0
419,4190,0.764526,1.301116,2.858823,0.0,0.0,0.0
420,4200,0.7224235,1.394847,2.850153,0.0,0.0,0.0
421,4210,0.6359785,1.529358,2.764931,0.0,0.0,0.0
422,4220,0.599694,1.545673,2.45555,0.0,0.0,0.0
423,4230,0.6320565,1.4951605,2.436544,0.0,0.0,0.0
424,4240,0.664419,1.444648,2.417538,0.0,0.0,0.0
425,4250,0.7647325,1.2066284999999999,2.4440904999999997,0.0,0.0,0.0
426,4260,0.785734,1.098272,2.477783,0.0,0.0,0.0
427,4270,0.785734,1.098272,2.477783,0.0,0.0,0.0
428,4280,0.4713535,0.9998475,2.311827,0.0,0.0,0.0
429,4290,0.376147,0.97971,2.253012,0.0,0.0,0.0
430,4300,0.0507645,0.905092,2.1945485,0.0,0.0,0.0
431,4310,-0.001529,0.874205,2.188073,0.0,0.0,0.0
432,4320,-0.007645,0.7702825,2.181598,0.0,0.0,0.0
433,4330,0.00841,0.6000000000000001,2.1773165,0.0,0.0,0.0
434,4340,0.0213,0.49419,2.173899,0.0,0.0,0.0
435,4350,0.0213,0.49419,2.173899,0.0,0.0,0.0
436,4360,0.0213,0.49419,2.173899,0.0,0.0,0.0
437,4370,0.0213,0.49419,2.173899,0.0,0.0,0.0
438,4380,0.0213,0.49419,2.173899,0.0,0.0,0.0
439,4390,0.0213,0.49419,2.173899,0.0,0.0,0.0
440,4400,0.0213,0.49419,2.173899,0.0,0.0,0.0
441,4410,0.0213,0.49419,2.173899,0.0,0.0,0.0
442,4420,0.0213,0.49419,2.173899,0.0,0.0,0.0
443,4430,0.0213,0.49419,2.173899,0.0,0.0,0.0
444,4440,0.0213,0.49419,2.173899,0.0,0.0,0.0
445,4450,0.0484175,0.158922,1.564832,0.0,0.0,0.0
446,4460,0.07268350000000001,-0.1814985,0.9331805,0.0,0.0,0.0
447,4470,-0.076957,-0.214679,0.7737,0.0,0.0,0.0
448,4480,-0.1296635,-0.21213300000000002,0.7367505000000001,0.0,0.0,0.0
449,4490,-0.18237,-0.209587,0.699801,0.0,0.0,0.0
450,4500,-0.18237,-0.209587,0.699801,0.0,0.0,0.0
451,4510,-0.5631035,-0.10764499999999999,0.3109555,0.0,0.0,0.0
452,4520,-0.598983,-0.078593,0.15978599999999998,0.0,0.0,0.0
453,4530,-0.47379950000000004,-0.0863915,0.0614145,0.0,0.0,0.0
454,4540,-0.344235,-0.104083,0.04026,0.0,0.0,0.0
455,4550,0.163104,-0.202951,0.331498,0.0,0.0,0.0
456,4560,0.3399085,-0.2363915,0.5573925,0.0,0.0,0.0
457,4570,0.56789,-0.30336399999999997,0.9209019999999999,0.0,0.0,0.0
458,4580,0.619067,-0.336896,1.058517,0.0,0.0,0.0
459,4590,0.619067,-0.336896,1.058517,0.0,0.0,0.0
460,4600,0.343937,-0.362691,1.1888375,0.0,0.0,0.0
461,4610,0.100153,-0.2834865,1.117232,0.0,0.0,0.0
462,4620,0.016713,-0.237615,1.028547,0.0,0.0,0.0
463,4630,-0.235115,0.0059095000000000016,0.7239065,0.0,0.0,0.0
464,4640,-0.279817,0.044648,0.638226,0.0,0.0,0.0
465,4650,-0.24204900000000001,0.16156700000000002,0.330122,0.0,0.0,0.0
466,4660,-0.174312,0.196024,0.217538,0.0,0.0,0.0
467,4670,-0.034503,0.17370000000000002,0.2117735,0.0,0.0,0.0
468,4680,0.14776,0.1489295,0.2116205,0.0,0.0,0.0
469,4690,0.190214,0.146483,0.217232,0.0,0.0,0.0
470,4700,0.190214,0.146483,0.217232,0.0,0.0,0.0
471,4710,0.352393,0.320084,0.19969399999999998,0.0,0.0,0.0
472,4720,0.523547,0.708762,0.176453,0.0,0.0,0.0
473,4730,0.523547,0.708762,0.176453,0.0,0.0,0.0
474,4740,0.494083,0.882263,0.279924,0.0,0.0,0.0
475,4750,0.357187,0.893073,0.288073,0.0,0.0,0.0
476,4760,0.227523,0.860352,0.219465,0.0,0.0,0.0
477,4770,0.087561,0.7632035,0.0632035,0.0,0.0,0.0
478,4780,0.09867,0.655352,-0.003563,0.0,0.0,0.0
479,4790,0.09867,0.655352,-0.003563,0.0,0.0,0.0
480,4800,0.10999249999999999,0.573089,0.138173,0.0,0.0,0.0
481,4810,0.105604,0.49811150000000004,0.299595,0.0,0.0,0.0
482,4820,0.099893,0.461972,0.397355,0.0,0.0,0.0
483,4830,-0.090367,0.22477049999999998,0.7093805,0.0,0.0,0.0
484,4840,-0.127018,0.185214,0.741697,0.0,0.0,0.0
485,4850,-0.2037765,0.10347100000000001,0.6711005,0.0,0.0,0.0
486,4860,-0.223654,0.085428,0.599495,0.0,0.0,0.0
487,4870,-0.223295,0.08909800000000001,0.5515289999999999,0.0,0.0,0.0
488,4880,-0.222936,0.092768,0.503563,0.0,0.0,0.0
489,4890,-0.222936,0.092768,0.503563,0.0,0.0,0.0
490,4900,-0.222936,0.092768,0.503563,0.0,0.0,0.0
491,4910,-0.222936,0.092768,0.503563,0.0,0.0,0.0
492,4920,-0.222936,0.092768,0.503563,0.0,0.0,0.0
493,4930,-0.222936,0.092768,0.503563,0.0,0.0,0.0
494,4940,-0.222936,0.092768,0.503563,0.0,0.0,0.0
495,4950,-0.222936,0.092768,0.503563,0.0,0.0,0.0
496,4960,-0.222936,0.092768,0.503563,0.0,0.0,0.0
497,4970,-0.222936,0.092768,0.503563,0.0,0.0,0.0
498,4980,0.182156,-0.14974,0.59185,0.0,0.0,0.0
499,4990,-0.046941500000000004,-0.0976605,0.646529,0.0,0.0,0.0
500,5000,-0.12146000000000001,-0.0810395,0.6883790000000001,0.0,0.0,0.0
501,5010,-0.164526,-0.07237,0.726101,0.0,0.0,0.0
502,5020,-0.245566,-0.032829,0.823746,0.0,0.0,0.0
503,5030,-0.23986200000000002,0.009327,0.787668,0.0,0.0,0.0
504,5040,-0.231911,0.015183,0.751789,0.0,0.0,0.0
505,5050,-0.2254355,0.016865,0.7118805,0.0,0.0,0.0
506,5060,-0.15845599999999999,0.061521,0.595818,0.0,0.0,0.0
507,5070,-0.137508,0.097859,0.591437,0.0,0.0,0.0
508,5080,-0.17289,0.167171,0.596024,0.0,0.0,0.0
509,5090,-0.17289,0.167171,0.596024,0.0,0.0,0.0
510,5100,-0.1655505,0.204786,0.586139,0.0,0.0,0.0
511,5110,-0.158211,0.242401,0.576254,0.0,0.0,0.0
512,5120,-0.161162,0.235979,0.584816,0.0,0.0,0.0
513,5130,-0.13883800000000002,0.22441149999999999,0.616055,0.0,0.0,0.0
514,5140,0.0934255,0.27578749999999996,0.7000995000000001,0.0,0.0,0.0
515,5150,0.129664,0.293884,0.705092,0.0,0.0,0.0
516,5160,0.193165,0.368502,0.706621,0.0,0.0,0.0
517,5170,0.26162050000000003,0.586139,0.556269,0.0,0.0,0.0
518,5180,0.257599,0.66922,0.485214,0.0,0.0,0.0
519,5190,0.263914,0.734358,0.487462,0.0,0.0,0.0
520,5200,0.364014,0.7200305,0.8491365,0.0,0.0,0.0
521,5210,0.429664,0.702951,1.000719,0.0,0.0,0.0
522,5220,0.6071865000000001,0.6456729999999999,1.5783945,0.0,0.0,0.0
523,5230,0.656881,0.631606,1.754847,0.0,0.0,0.0
524,5240,0.716621,0.622125,1.90133,0.0,0.0,0.0
525,5250,0.554847,0.7068345,2.2059175,0.0,0.0,0.0
526,5260,0.36559600000000003,0.877217,2.636445,0.0,0.0,0.0
527,5270,0.380122,1.100505,3.009067,0.0,0.0,0.0
528,5280,0.380122,1.100505,3.009067,0.0,0.0,0.0
529,5290,0.505,1.144648,3.285932,0.0,0.0,0.0
530,5300,0.874717,1.1422555,3.251476,0.0,0.0,0.0
531,5310,0.9400075,1.137821,3.1557115,0.0,0.0,0.0
532,5320,0.957079,1.134862,3.133135,0.0,0.0,0.0
533,5330,0.957079,1.134862,3.133135,0.0,0.0,0.0
534,5340,0.957079,1.134862,3.133135,0.0,0.0,0.0
535,5350,0.881346,1.164419,2.868501,0.0,0.0,0.0
536,5360,0.677523,1.1726295,2.590673,0.0,0.0,0.0
537,5370,0.490772,1.1683485,2.3853210000000002,0.0,0.0,0.0
538,5380,0.420076,1.163196,2.325275,0.0,0.0,0.0
539,5390,0.285428,1.124878,2.249847,0.0,0.0,0.0
540,5400,0.285428,1.124878,2.249847,0.0,0.0,0.0
541,5410,0.285428,1.124878,2.249847,0.0,0.0,0.0
542,5420,0.285428,1.124878,2.249847,0.0,0.0,0.0
543,5430,0.285428,1.124878,2.249847,0.0,0.0,0.0
544,5440,0.285428,1.124878,2.249847,0.0,0.0,0.0
545,5450,0.285428,1.124878,2.249847,0.0,0.0,0.0
546,5460,0.285428,1.124878,2.249847,0.0,0.0,0.0
547,5470,0.285428,1.124878,2.249847,0.0,0.0,0.0
548,5480,0.285428,1.124878,2.249847,0.0,0.0,0.0
549,5490,0.285428,1.124878,2.249847,0.0,0.0,0.0
550,5500,0.285428,1.124878,2.249847,0.0,0.0,0.0
551,5510,0.108104,0.159633,1.5038684999999998,0.0,0.0,0.0
552,5520,0.1066205,0.075176,1.491896,0.0,0.0,0.0
553,5530,0.030986,0.013150000000000002,1.3833865,0.0,0.0,0.0
554,5540,-0.040367,-0.011315,1.289908,0.0,0.0,0.0
555,5550,-0.169977,-0.023960500000000003,1.1339985000000001,0.0,0.0,0.0
556,5560,-0.370535,0.022018,0.874725,0.0,0.0,0.0
557,5570,-0.406422,0.0252825,0.8191135,0.0,0.0,0.0
558,5580,-0.442309,0.028547,0.763502,0.0,0.0,0.0
559,5590,-0.442309,0.028547,0.763502,0.0,0.0,0.0
560,5600,-0.47161299999999995,0.0269645,0.7082035,0.0,0.0,0.0
561,5610,-0.387355,-0.074618,0.485214,0.0,0.0,0.0
562,5620,-0.256575,-0.181758,0.47737,0.0,0.0,0.0
563,5630,-0.082768,-0.246682,0.570138,0.0,0.0,0.0
564,5640,-0.00081,-0.285428,0.690933,0.0,0.0,0.0
565,5650,0.067477,-0.322018,0.787661,0.0,0.0,0.0
566,5660,0.13532149999999998,-0.3722175,0.838532,0.0,0.0,0.0
567,5670,0.0964835,-0.38552,0.8213075,0.0,0.0,0.0
568,5680,0.059832,-0.391636,0.802248,0.0,0.0,0.0
569,5690,-0.040367,-0.387263,0.764725,0.0,0.0,0.0
570,5700,-0.157492,-0.347905,0.69419,0.0,0.0,0.0
571,5710,-0.327324,-0.270336,0.459633,0.0,0.0,0.0
572,5720,-0.33629200000000004,-0.219572,0.3269115,0.0,0.0,0.0
573,5730,-0.314174,-0.201529,0.291636,0.0,0.0,0.0
574,5740,-0.161162,-0.151988,0.262691,0.0,0.0,0.0
575,5750,-0.13526749999999998,-0.11473250000000002,0.372882,0.0,0.0,0.0
576,5760,-0.109373,-0.077477,0.483073,0.0,0.0,0.0
577,5770,-0.091491,0.0824695,0.6690065000000001,0.0,0.0,0.0
578,5780,-0.055,0.151934,0.685214,0.0,0.0,0.0
579,5790,-0.024266,0.183073,0.684602,0.0,0.0,0.0
580,5800,0.1118275,0.32013,0.530627,0.0,0.0,0.0
581,5810,0.2696255,0.4249695,0.29373099999999996,0.0,0.0,0.0
582,5820,0.359327,0.475734,0.126407,0.0,0.0,0.0
583,5830,0.384809,0.47752300000000003,0.018096499999999995,0.0,0.0,0.0
584,5840,0.418654,0.442706,-0.189297,0.0,0.0,0.0
585,5850,0.418654,0.442706,-0.189297,0.0,0.0,0.0
586,5860,0.2555045,0.327416,0.06794349999999999,0.0,0.0,0.0
587,5870,0.255657,0.324358,0.157187,0.0,0.0,0.0
588,5880,0.289801,0.324572,0.308761,0.0,0.0,0.0
589,5890,0.292661,0.319771,0.489602,0.0,0.0,0.0
590,5900,0.187263,0.222829,0.6818044999999999,0.0,0.0,0.0
591,5910,0.114786,0.163502,0.77737,0.0,0.0,0.0
592,5920,-0.00448,0.096636,0.81815,0.0,0.0,0.0
593,5930,-0.00448,0.096636,0.81815,0.0,0.0,0.0
594,5940,-0.00448,0.096636,0.81815,0.0,0.0,0.0
595,5950,-0.00448,0.096636,0.81815,0.0,0.0,0.0
596,5960,-0.00448,0.096636,0.81815,0.0,0.0,0.0
597,5970,-0.00448,0.096636,0.81815,0.0,0.0,0.0
598,5980,-0.00448,0.096636,0.81815,0.0,0.0,0.0
599,5990,-0.00448,0.096636,0.81815,0.0,0.0,0.0
600,6000,-0.00448,0.096636,0.81815,0.0,0.0,0.0
601,6010,-0.00448,0.096636,0.81815,0.0,0.0,0.0
602,6020,-0.00448,0.096636,0.81815,0.0,0.0,0.0
603,6030,0.0394495,-0.1693655,0.701835,0.0,0.0,0.0
604,6040,-0.043226,-0.180734,0.821101,0.0,0.0,0.0
605,6050,-0.119679,-0.103165,0.826193,0.0,0.0,0.0
606,6060,-0.035168,0.051269,0.695107,0.0,0.0,0.0
607,6070,0.038838,0.060046,0.620183,0.0,0.0,0.0
608,6080,0.072064,0.054434,0.609174,0.0,0.0,0.0
609,6090,0.061774,-0.007232,0.643425,0.0,0.0,0.0
610,6100,0.061774,-0.007232,0.643425,0.0,0.0,0.0
611,6110,0.023746,-0.01182,0.725382,0.0,0.0,0.0
612,6120,-0.179205,0.053012,0.814679,0.0,0.0,0.0
613,6130,-0.179205,0.053012,0.814679,0.0,0.0,0.0
614,6140,-0.059832,0.068089,0.680015,0.0,0.0,0.0
615,6150,0.0164605,0.0482185,0.727217,0.0,0.0,0.0
616,6160,0.024771,0.043731,0.769312,0.0,0.0,0.0
617,6170,-0.001529,0.118654,0.924572,0.0,0.0,0.0
618,6180,-0.120902,0.256269,1.049037,0.0,0.0,0.0
619,6190,-0.2127445,0.3675385,1.0392510000000001,0.0,0.0,0.0
620,6200,-0.21896,0.401942,1.023349,0.0,0.0,0.0
621,6210,-0.24659,0.441483,0.932829,0.0,0.0,0.0
622,6220,-0.210902,0.458823,0.712951,0.0,0.0,0.0
623,6230,-0.210902,0.458823,0.712951,0.0,0.0,0.0
624,6240,0.0813455,0.5067735,0.618601,0.0,0.0,0.0
625,6250,-0.0573395,0.6644725,0.8816975,0.0,0.0,0.0
626,6260,-0.198471,0.790826,1.087049,0.0,0.0,0.0
627,6270,-0.330275,0.917431,1.306009,0.0,0.0,0.0
628,6280,-0.36177349999999997,0.95224,1.358509,0.0,0.0,0.0
629,6290,-0.338333,0.963608,1.429557,0.0,0.0,0.0
630,6300,-0.174312,0.830275,1.43659,0.0,0.0,0.0
631,6310,0.292661,0.605505,1.729969,0.0,0.0,0.0
632,6320,0.517538,0.5687,2.054327,0.0,0.0,0.0
633,6330,0.660245,0.553517,2.452599,0.0,0.0,0.0
634,6340,0.658104,0.619465,2.696025,0.0,0.0,0.0
635,6350,0.4402675,0.7580505,2.6870564999999997,0.0,0.0,0.0
636,6360,0.374725,0.804174,2.667385,0.0,0.0,0.0
637,6370,0.342003,0.877676,2.535367,0.0,0.0,0.0
638,6380,0.390214,0.8770104999999999,2.3295105,0.0,0.0,0.0
639,6390,0.4581495,0.8270105,2.309633,0.0,0.0,0.0
640,6400,0.492553,0.795917,2.30867,0.0,0.0,0.0
641,6410,0.5279815,0.7500454999999999,2.477676,0.0,0.0,0.0
642,6420,0.56341,0.704174,2.646682,0.0,0.0,0.0
643,6430,0.544702,0.6885319999999999,2.6305810000000003,0.0,0.0,0.0
644,6440,0.508456,0.663914,2.492156,0.0,0.0,0.0
645,6450,0.508456,0.663914,2.492156,0.0,0.0,0.0
646,6460,0.508456,0.663914,2.492156,0.0,0.0,0.0
647,6470,0.508456,0.663914,2.492156,0.0,0.0,0.0
648,6480,0.508456,0.663914,2.492156,0.0,0.0,0.0
649,6490,0.508456,0.663914,2.492156,0.0,0.0,0.0
650,6500,0.508456,0.663914,2.492156,0.0,0.0,0.0
651,6510,0.508456,0.663914,2.492156,0.0,0.0,0.0
652,6520,0.508456,0.663914,2.492156,0.0,0.0,0.0
653,6530,0.508456,0.663914,2.492156,0.0,0.0,0.0
654,6540,0.508456,0.663914,2.492156,0.0,0.0,0.0
655,6550,0.08226299999999999,0.640925,1.8221175,0.0,0.0,0.0
656,6560,-0.224878,0.570841,1.505703,0.0,0.0,0.0
657,6570,-0.1816515,0.527416,1.513249,0.0,0.0,0.0
658,6580,-0.00815,0.316101,1.53078,0.0,0.0,0.0
659,6590,-0.00815,0.316101,1.53078,0.0,0.0,0.0
660,6600,-0.00815,0.316101,1.53078,0.0,0.0,0.0
661,6610,0.0086695,0.283991,1.509679,0.0,0.0,0.0
662,6620,-0.043226,0.198884,1.19185,0.0,0.0,0.0
663,6630,-0.111116,0.200917,1.059022,0.0,0.0,0.0
664,6640,-0.167997,0.216009,1.048318,0.0,0.0,0.0
665,6650,-0.1550455,0.24164400000000003,0.9582035,0.0,0.0,0.0
666,6660,-0.134755,0.253624,0.877676,0.0,0.0,0.0
667,6670,-0.097446,0.259434,0.661667,0.0,0.0,0.0
668,6680,-0.083792,0.2291515,0.5660015,0.0,0.0,0.0
669,6690,-0.081147,0.213043,0.559633,0.0,0.0,0.0
670,6700,-0.077477,0.194495,0.550658,0.0,0.0,0.0
671,6710,-0.167737,0.10066549999999999,0.5644725,0.0,0.0,0.0
672,6720,-0.220489,0.079817,0.569725,0.0,0.0,0.0
673,6730,-0.2418425,0.074465,0.5886315,0.0,0.0,0.0
674,6740,-0.149954,0.089297,0.877676,0.0,0.0,0.0
675,6750,-0.149954,0.089297,0.877676,0.0,0.0,0.0
676,6760,-0.009067,0.063716,0.991636,0.0,0.0,0.0
677,6770,-0.009067,0.063716,0.991636,0.0,0.0,0.0
678,6780,0.035673,0.034144,0.755459,0.0,0.0,0.0
679,6790,-0.042508,0.018547,0.691743,0.0,0.0,0.0
680,6800,-0.117936,0.005092,0.652187,0.0,0.0,0.0
681,6810,-0.281957,0.106223,0.588486,0.0,0.0,0.0
682,6820,-0.371254,0.172278,0.590214,0.0,0.0,0.0
683,6830,-0.387974,0.190627,0.6208485,0.0,0.0,0.0
684,6840,-0.372477,0.244847,0.789098,0.0,0.0,0.0
685,6850,-0.355963,0.154541,0.871865,0.0,0.0,0.0
686,6860,-0.317125,0.055657,0.953823,0.0,0.0,0.0
687,6870,-0.246789,-0.040168,0.988272,0.0,0.0,0.0
688,6880,-0.123853,-0.060963,0.93792,0.0,0.0,0.0
689,6890,-0.0891895,-0.062844,0.7191665,0.0,0.0,0.0
690,6900,-0.087966,-0.059939,0.643425,0.0,0.0,0.0
691,6910,-0.140879,0.131445,0.2633485,0.0,0.0,0.0
692,6920,-0.138945,0.179404,0.201116,0.0,0.0,0.0
693,6930,-0.138945,0.179404,0.201116,0.0,0.0,0.0
694,6940,0.054939,0.393884,0.118654,0.0,0.0,0.0
695,6950,0.134052,0.432722,0.118654,0.0,0.0,0.0
696,6960,0.278089,0.470031,0.26289,0.0,0.0,0.0
697,6970,0.310505,0.468394,0.339557,0.0,0.0,0.0
698,6980,0.310505,0.468394,0.339557,0.0,0.0,0.0
699,6990,0.310505,0.468394,0.339557,0.0,0.0,0.0
700,7000,0.310505,0.468394,0.339557,0.0,0.0,0.0
701,7010,0.310505,0.468394,0.339557,0.0,0.0,0.0
702,7020,0.310505,0.468394,0.339557,0.0,0.0,0.0
703,7030,0.310505,0.468394,0.339557,0.0,0.0,0.0
704,7040,0.310505,0.468394,0.339557,0.0,0.0,0.0
705,7050,0.310505,0.468394,0.339557,0.0,0.0,0.0
706,7060,0.310505,0.468394,0.339557,0.0,0.0,0.0
707,7070,0.10397549999999998,0.4662075,0.291338,0.0,0.0,0.0
708,7080,-0.116514,0.393884,0.317538,0.0,0.0,0.0
709,7090,-0.114786,0.356881,0.350046,0.0,0.0,0.0
710,7100,-0.114786,0.356881,0.350046,0.0,0.0,0.0
711,7110,-0.114786,0.356881,0.350046,0.0,0.0,0.0
712,7120,-0.15974,0.300719,0.344144,0.0,0.0,0.0
713,7130,-0.15168199999999998,0.30081800000000003,0.327783,0.0,0.0,0.0
714,7140,-0.138226,0.261667,0.306116,0.0,0.0,0.0
715,7150,-0.1888915,0.16998449999999998,0.449335,0.0,0.0,0.0
716,7160,-0.198777,0.148119,0.516713,0.0,0.0,0.0
717,7170,-0.207538,0.131804,0.592859,0.0,0.0,0.0
718,7180,-0.216315,0.094908,0.66289,0.0,0.0,0.0
719,7190,-0.17656,0.061972,0.671667,0.0,0.0,0.0
720,7200,0.022523,-0.004281,0.634862,0.0,0.0,0.0
721,7210,0.169312,-0.099434,0.5668655,0.0,0.0,0.0
722,7220,0.186743,-0.117018,0.566254,0.0,0.0,0.0
723,7230,0.1990825,-0.1391435,0.5745645,0.0,0.0,0.0
724,7240,0.211422,-0.161269,0.582875,0.0,0.0,0.0
725,7250,0.148425,-0.15026,0.585321,0.0,0.0,0.0
726,7260,0.079098,-0.048425,0.572064,0.0,0.0,0.0
727,7270,0.07818,-0.010199,0.566972,0.0,0.0,0.0
728,7280,0.0856265,0.003669500000000001,0.569778,0.0,0.0,0.0
729,7290,0.0387385,0.017691,0.6281345,0.0,0.0,0.0
730,7300,0.018349,0.017844,0.64659,0.0,0.0,0.0
731,7310,-0.198471,0.115344,0.6781349999999999,0.0,0.0,0.0
732,7320,-0.218242,0.146483,0.681453,0.0,0.0,0.0
733,7330,-0.22645300000000002,0.1496405,0.681346,0.0,0.0,0.0
734,7340,-0.229969,0.163502,0.66922,0.0,0.0,0.0
735,7350,-0.2237535,0.1682955,0.6616740000000001,0.0,0.0,0.0
736,7360,-0.1608105,0.1859865,0.6685015000000001,0.0,0.0,0.0
737,7370,-0.088884,0.202339,0.739343,0.0,0.0,0.0
738,7380,-0.061361,0.208456,0.80448,0.0,0.0,0.0
739,7390,-0.061774,0.219159,0.840367,0.0,0.0,0.0
740,7400,-0.07146,0.2959175,0.8039755,0.0,0.0,0.0
741,7410,-0.068914,0.332615,0.771055,0.0,0.0,0.0
742,7420,-0.053012,0.426911,0.755657,0.0,0.0,0.0
743,7430,-0.016927,0.497141,0.768089,0.0,0.0,0.0
744,7440,-0.022324,0.535275,0.786437,0.0,0.0,0.0
745,7450,-0.064526,0.598165,0.850566,0.0,0.0,0.0
746,7460,-0.2171255,0.7370030000000001,1.3041745,0.0,0.0,0.0
747,7470,-0.21896,0.743226,1.406315,0.0,0.0,0.0
748,7480,-0.19566499999999998,0.7391970000000001,1.4993349999999999,0.0,0.0,0.0
749,7490,0.048425,0.629465,1.786346,0.0,0.0,0.0
750,7500,0.048425,0.629465,1.786346,0.0,0.0,0.0
751,7510,0.048425,0.629465,1.786346,0.0,0.0,0.0
752,7520,0.048425,0.629465,1.786346,0.0,0.0,0.0
753,7530,0.048425,0.629465,1.786346,0.0,0.0,0.0
754,7540,0.048425,0.629465,1.786346,0.0,0.0,0.0
755,7550,0.048425,0.629465,1.786346,0.0,0.0,0.0
756,7560,0.048425,0.629465,1.786346,0.0,0.0,0.0
757,7570,0.048425,0.629465,1.786346,0.0,0.0,0.0
758,7580,0.048425,0.629465,1.786346,0.0,0.0,0.0
759,7590,0.048425,0.629465,1.786346,0.0,0.0,0.0
760,7600,0.293578,0.8369035,2.016361,0.0,0.0,0.0
761,7610,0.538731,1.044342,2.246376,0.0,0.0,0.0
762,7620,0.538731,1.044342,2.246376,0.0,0.0,0.0
763,7630,0.5481195,0.974977,2.3231345,0.0,0.0,0.0
764,7640,0.545764,0.916009,2.451881,0.0,0.0,0.0
765,7650,0.527622,0.8969419999999999,2.4856730000000002,0.0,0.0,0.0
766,7660,0.343226,0.863502,2.539037,0.0,0.0,0.0
767,7670,0.260046,0.874725,2.529771,0.0,0.0,0.0
768,7680,0.260046,0.874725,2.529771,0.0,0.0,0.0
769,7690,0.073287,0.868609,2.458517,0.0,0.0,0.0
770,7700,0.04607,0.784763,2.3680965,0.0,0.0,0.0
771,7710,0.018853,0.700917,2.277676,0.0,0.0,0.0
772,7720,0.018853,0.700917,2.277676,0.0,0.0,0.0
773,7730,0.012637500000000001,0.6685015000000001,2.231904,0.0,0.0,0.0
774,7740,0.0024465,0.544289,2.0151380000000003,0.0,0.0,0.0
775,7750,-0.015703,0.436193,1.763196,0.0,0.0,0.0
776,7760,-0.050153,0.401942,1.641391,0.0,0.0,0.0
777,7770,-0.093777,0.373899,1.444449,0.0,0.0,0.0
778,7780,-0.1124315,0.36315,1.365344,0.0,0.0,0.0
779,7790,-0.141391,0.338532,1.157385,0.0,0.0,0.0
780,7800,-0.14847100000000002,0.32620000000000005,1.0270645,0.0,0.0,0.0
781,7810,-0.140772,0.31448,0.9206425,0.0,0.0,0.0
782,7820,-0.13211,0.306529,0.857187,0.0,0.0,0.0
783,7830,-0.13211,0.306529,0.857187,0.0,0.0,0.0
784,7840,-0.09133,0.266055,0.7313,0.0,0.0,0.0
785,7850,-0.09919,0.233532,0.730076,0.0,0.0,0.0
786,7860,-0.1478595,0.22389900000000001,0.731498,0.0,0.0,0.0
787,7870,-0.264419,0.210199,0.733945,0.0,0.0,0.0
788,7880,-0.30810400000000004,0.208364,0.7303744999999999,0.0,0.0,0.0
789,7890,-0.384511,0.213349,0.657997,0.0,0.0,0.0
790,7900,-0.289297,0.262187,0.601942,0.0,0.0,0.0
791,7910,-0.201422,0.258517,0.543838,0.0,0.0,0.0
792,7920,-0.079098,0.218242,0.50133,0.0,0.0,0.0
793,7930,0.009067,0.138425,0.50133,0.0,0.0,0.0
794,7940,0.034969,-0.005703,0.615092,0.0,0.0,0.0
795,7950,0.034969,-0.005703,0.615092,0.0,0.0,0.0
796,7960,-0.043226,-0.111422,0.690015,0.0,0.0,0.0
797,7970,-0.111621,-0.150459,0.688578,0.0,0.0,0.0
798,7980,-0.186743,-0.158517,0.637813,0.0,0.0,0.0
799,7990,-0.18919,-0.125795,0.568196,0.0,0.0,0.0
800,8000,-0.173593,-0.091132,0.513761,0.0,0.0,0.0
801,8010,-0.145979,-0.051376,0.475031,0.0,0.0,0.0
802,8020,-0.145979,-0.051376,0.475031,0.0,0.0,0.0
803,8030,-0.145979,-0.051376,0.475031,0.0,0.0,0.0
804,8040,-0.145979,-0.051376,0.475031,0.0,0.0,0.0
805,8050,-0.145979,-0.051376,0.475031,0.0,0.0,0.0
806,8060,-0.145979,-0.051376,0.475031,0.0,0.0,0.0
807,8070,-0.145979,-0.051376,0.475031,0.0,0.0,0.0
808,8080,-0.145979,-0.051376,0.475031,0.0,0.0,0.0
809,8090,-0.145979,-0.051376,0.475031,0.0,0.0,0.0
810,8100,-0.145979,-0.051376,0.475031,0.0,0.0,0.0
811,8110,-0.145979,-0.051376,0.475031,0.0,0.0,0.0
812,8120,-0.134916,-0.0770105,0.479052,0.0,0.0,0.0
813,8130,0.11661300000000001,0.1399545,0.39077249999999997,0.0,0.0,0.0
814,8140,0.256376,0.344144,0.30367,0.0,0.0,0.0
815,8150,0.256376,0.344144,0.30367,0.0,0.0,0.0
816,8160,0.2764985,0.44163600000000003,0.24627700000000002,0.0,0.0,0.0
817,8170,0.197554,0.540566,0.185015,0.0,0.0,0.0
818,8180,0.153104,0.553104,0.180841,0.0,0.0,0.0
819,8190,0.114786,0.565245,0.188486,0.0,0.0,0.0
820,8200,0.071055,0.57818,0.227018,0.0,0.0,0.0
821,8210,-0.024771,0.589908,0.264327,0.0,0.0,0.0
822,8220,-0.076453,0.638731,0.333639,0.0,0.0,0.0
823,8230,-0.076453,0.638731,0.333639,0.0,0.0,0.0
824,8240,-0.124572,0.668501,0.443532,0.0,0.0,0.0
825,8250,-0.137202,0.63578,0.519159,0.0,0.0,0.0
826,8260,-0.150864,0.61198,0.5717585000000001,0.0,0.0,0.0
827,8270,-0.165336,0.586544,0.637309,0.0,0.0,0.0
828,8280,-0.165336,0.586544,0.637309,0.0,0.0,0.0
829,8290,,,,,,
830,8300,,,,,,
831,8310,,,,,,
832,8320,,,,,,
833,8330,,,,,,
834,8340,,,,,,
835,8350,,,,,,
836,8360,,,,,,
837,8370,,,,,,
838,8380,,,,,,
839,8390,,,,,,
840,8400,,,,,,
841,8410,,,,,,
842,8420,-0.09185,0.60867,0.638532,0.0,0.0,0.0
843,8430,-0.3839985,0.1422015,0.6235930000000001,0.0,0.0,0.0
844,8440,-0.284205,0.097355,0.55474,0.0,0.0,0.0
845,8450,-0.175841,0.058104,0.482569,0.0,0.0,0.0
846,8460,-0.0644725,0.017278500000000002,0.5103975000000001,0.0,0.0,0.0
847,8470,0.046896,-0.023547,0.538226,0.0,0.0,0.0
848,8480,0.050153,-0.027416,0.631193,0.0,0.0,0.0
849,8490,0.038639,-0.024572,0.74659,0.0,0.0,0.0
850,8500,-0.038639,0.0107495,0.81789,0.0,0.0,0.0
851,8510,-0.059434,0.028028,0.815902,0.0,0.0,0.0
852,8520,-0.094801,0.061269,0.771055,0.0,0.0,0.0
853,8530,-0.113356,0.069419,0.737263,0.0,0.0,0.0
854,8540,-0.160443,0.131804,0.604388,0.0,0.0,0.0
855,8550,-0.160443,0.131804,0.604388,0.0,0.0,0.0
856,8560,-0.160443,0.131804,0.604388,0.0,0.0,0.0
857,8570,-0.160443,0.131804,0.604388,0.0,0.0,0.0
858,8580,-0.160443,0.131804,0.604388,0.0,0.0,0.0
859,8590,-0.160443,0.131804,0.604388,0.0,0.0,0.0
860,8600,-0.160443,0.131804,0.604388,0.0,0.0,0.0
861,8610,-0.160443,0.131804,0.604388,0.0,0.0,0.0
862,8620,-0.160443,0.131804,0.604388,0.0,0.0,0.0
863,8630,-0.160443,0.131804,0.604388,0.0,0.0,0.0
864,8640,-0.160443,0.131804,0.604388,0.0,0.0,0.0
865,8650,-0.052599,0.2852215,0.780581,0.0,0.0,0.0
866,8660,0.014526,0.4752295,1.055352,0.0,0.0,0.0
867,8670,-0.090107,0.545979,1.227936,0.0,0.0,0.0
868,8680,-0.0958715,0.5626915,1.2628439999999999,0.0,0.0,0.0
869,8690,-0.130382,0.612844,1.361667,0.0,0.0,0.0
870,8700,-0.1376145,0.619572,1.4715064999999998,0.0,0.0,0.0
871,8710,-0.147202,0.588486,1.732217,0.0,0.0,0.0
872,8720,-0.033028,0.546988,1.962798,0.0,0.0,0.0
873,8730,0.036139,0.508662,2.1487765,0.0,0.0,0.0
874,8740,0.333746,0.305306,3.273395,0.0,0.0,0.0
875,8750,0.333746,0.305306,3.273395,0.0,0.0,0.0
876,8760,0.40867,0.328746,3.467477,0.0,0.0,0.0
877,8770,0.329358,0.46055,3.150459,0.0,0.0,0.0
878,8780,0.329358,0.46055,3.150459,0.0,0.0,0.0
879,8790,0.14445,0.6791054999999999,2.5049925,0.0,0.0,0.0
880,8800,0.037615,0.872064,1.874924,0.0,0.0,0.0
881,8810,0.037615,0.872064,1.874924,0.0,0.0,0.0
882,8820,0.270031,0.852294,1.547905,0.0,0.0,0.0
883,8830,0.270031,0.852294,1.547905,0.0,0.0,0.0
884,8840,0.448624,0.775122,1.621606,0.0,0.0,0.0
885,8850,0.463104,0.739037,1.699893,0.0,0.0,0.0
886,8860,0.4314985,0.7292510000000001,1.7527525000000002,0.0,0.0,0.0
887,8870,0.3653365,0.716055,1.8363915,0.0,0.0,0.0
888,8880,0.3025995,0.7100915,1.8734935,0.0,0.0,0.0
889,8890,0.128639,0.656774,1.930581,0.0,0.0,0.0
890,8900,0.122829,0.653624,1.961575,0.0,0.0,0.0
891,8910,0.077829,0.6317585,1.995772,0.0,0.0,0.0
892,8920,-0.002951,0.571865,2.066972,0.0,0.0,0.0
893,8930,-0.034809,0.5528055000000001,2.0730885,0.0,0.0,0.0
894,8940,-0.093991,0.462997,2.018455,0.0,0.0,0.0
895,8950,-0.097661,0.425688,1.932829,0.0,0.0,0.0
896,8960,-0.0900155,0.335734,1.722278,0.0,0.0,0.0
897,8970,-0.084511,0.310505,1.615703,0.0,0.0,0.0
898,8980,-0.079511,0.3025535,1.570795,0.0,0.0,0.0
899,8990,-0.059732499999999994,0.28058099999999997,1.394954,0.0,0.0,0.0
900,9000,-0.056468,0.27604,1.358211,0.0,0.0,0.0
901,9010,-0.056468,0.27604,1.358211,0.0,0.0,0.0
902,9020,-0.056468,0.27604,1.358211,0.0,0.0,0.0
903,9030,-0.052798,0.268089,1.3553060000000001,0.0,0.0,0.0
904,9040,-0.0391435,0.1483715,1.2716135,0.0,0.0,0.0
905,9050,-0.139954,0.138639,1.074419,0.0,0.0,0.0
906,9060,-0.143318,0.14445,0.975841,0.0,0.0,0.0
907,9070,-0.140872,0.146483,0.931391,0.0,0.0,0.0
908,9080,-0.140872,0.146483,0.931391,0.0,0.0,0.0
909,9090,-0.140872,0.146483,0.931391,0.0,0.0,0.0
910,9100,-0.140872,0.146483,0.931391,0.0,0.0,0.0
911,9110,-0.140872,0.146483,0.931391,0.0,0.0,0.0
912,9120,-0.140872,0.146483,0.931391,0.0,0.0,0.0
913,9130,-0.140872,0.146483,0.931391,0.0,0.0,0.0
914,9140,-0.140872,0.146483,0.931391,0.0,0.0,0.0
915,9150,-0.140872,0.146483,0.931391,0.0,0.0,0.0
916,9160,-0.140872,0.146483,0.931391,0.0,0.0,0.0
917,9170,-0.0931655,0.214067,0.835367,0.0,0.0,0.0
918,9180,-0.045459,0.281651,0.739343,0.0,0.0,0.0
919,9190,0.113349,0.133226,0.879098,0.0,0.0,0.0
920,9200,0.119572,0.09480100000000001,0.877416,0.0,0.0,0.0
921,9210,0.165336,0.021208,0.805917,0.0,0.0,0.0
922,9220,0.123043,0.032523,0.607538,0.0,0.0,0.0
923,9230,0.084763,0.0682495,0.5870029999999999,0.0,0.0,0.0
924,9240,-0.014526000000000004,0.1424085,0.5489295,0.0,0.0,0.0
925,9250,-0.174312,0.247706,0.523043,0.0,0.0,0.0
926,9260,-0.312232,0.287263,0.504786,0.0,0.0,0.0
927,9270,-0.3153895,0.287263,0.4878135,0.0,0.0,0.0
928,9280,-0.28888349999999996,0.2551455,0.3938375,0.0,0.0,0.0
929,9290,-0.270229,0.235979,0.386651,0.0,0.0,0.0
930,9300,-0.241697,0.18818,0.350046,0.0,0.0,0.0
931,9310,-0.196177,0.17196499999999998,0.36819599999999997,0.0,0.0,0.0
932,9320,-0.189495,0.169618,0.385627,0.0,0.0,0.0
933,9330,-0.189495,0.169618,0.385627,0.0,0.0,0.0
934,9340,-0.011009,0.19867,0.691743,0.0,0.0,0.0
935,9350,0.001529,0.20133,0.766865,0.0,0.0,0.0
936,9360,0.003257,0.198884,0.80081,0.0,0.0,0.0
937,9370,0.023134500000000002,0.2061165,0.764931,0.0,0.0,0.0
938,9380,0.047041,0.247248,0.6642735,0.0,0.0,0.0
939,9390,0.053517,0.344144,0.477875,0.0,0.0,0.0
940,9400,0.0524465,0.37782899999999997,0.4196715,0.0,0.0,0.0
941,9410,0.043012,0.446896,0.310703,0.0,0.0,0.0
942,9420,0.0197705,0.4655505,0.309732,0.0,0.0,0.0
943,9430,-0.009373,0.482064,0.344144,0.0,0.0,0.0
944,9440,-0.006621,0.443731,0.377064,0.0,0.0,0.0
945,9450,-0.0060095,0.4372555,0.383945,0.0,0.0,0.0
946,9460,-0.1102445,0.4187075,0.5097855,0.0,0.0,0.0
947,9470,-0.142813,0.436391,0.526498,0.0,0.0,0.0
948,9480,-0.172989,0.4560625,0.5303745,0.0,0.0,0.0
949,9490,-0.238333,0.538119,0.537416,0.0,0.0,0.0
950,9500,-0.339862,0.610703,0.490627,0.0,0.0,0.0
951,9510,-0.372477,0.617936,0.452294,0.0,0.0,0.0
952,9520,-0.37528300000000003,0.617477,0.43470949999999997,0.0,0.0,0.0
953,9530,-0.3615215,0.6144725,0.3835855,0.0,0.0,0.0
954,9540,-0.183073,0.613563,0.174312,0.0,0.0,0.0
955,9550,-0.183073,0.613563,0.174312,0.0,0.0,0.0
956,9560,-0.0626375,0.5840445000000001,0.13354,0.0,0.0,0.0
957,9570,0.010092,0.464939,0.201835,0.0,0.0,0.0
958,9580,0.012997,0.443731,0.239809,0.0,0.0,0.0
959,9590,-0.020596,0.324358,0.483792,0.0,0.0,0.0
960,9600,-0.020596,0.324358,0.483792,0.0,0.0,0.0
961,9610,-0.020596,0.324358,0.483792,0.0,0.0,0.0
962,9620,-0.020596,0.324358,0.483792,0.0,0.0,0.0
963,9630,-0.020596,0.324358,0.483792,0.0,0.0,0.0
964,9640,-0.020596,0.324358,0.483792,0.0,0.0,0.0
965,9650,-0.020596,0.324358,0.483792,0.0,0.0,0.0
966,9660,-0.020596,0.324358,0.483792,0.0,0.0,0.0
967,9670,-0.020596,0.324358,0.483792,0.0,0.0,0.0
968,9680,-0.020596,0.324358,0.483792,0.0,0.0,0.0
969,9690,-0.020596,0.324358,0.483792,0.0,0.0,0.0
970,9700,-0.376453,0.279006,0.838119,0.0,0.0,0.0
971,9710,0.041789,0.022936,0.662691,0.0,0.0,0.0
972,9720,0.053012,-0.053624,0.687355,0.0,0.0,0.0
973,9730,0.053012,-0.053624,0.687355,0.0,0.0,0.0
974,9740,0.0267585,-0.060802999999999996,0.6595335,0.0,0.0,0.0
975,9750,-0.0047935,-0.0504055,0.6485245,0.0,0.0,0.0
976,9760,-0.0282875,-0.033433000000000004,0.687309,0.0,0.0,0.0
977,9770,-0.055765,-0.004083,0.816927,0.0,0.0,0.0
978,9780,-0.0581575,-0.001942,0.832676,0.0,0.0,0.0
979,9790,-0.08185,0.000505,0.950872,0.0,0.0,0.0
980,9800,-0.089602,-0.004281,0.983899,0.0,0.0,0.0
981,9810,-0.089602,-0.004281,0.983899,0.0,0.0,0.0
982,9820,-0.09633,0.006781499999999999,0.9472475,0.0,0.0,0.0
983,9830,-0.103058,0.017844,0.910596,0.0,0.0,0.0
984,9840,-0.079098,0.063196,0.787156,0.0,0.0,0.0
985,9850,-0.0780275,0.06844800000000001,0.7816514999999999,0.0,0.0,0.0
986,9860,-0.0726755,0.07798150000000001,0.793731,0.0,0.0,0.0
987,9870,-0.068394,0.082263,0.811315,0.0,0.0,0.0
988,9880,-0.056468,0.090321,0.883593,0.0,0.0,0.0
989,9890,-0.050566,0.105199,1.093685,0.0,0.0,0.0
990,9900,-0.066468,0.148425,1.071758,0.0,0.0,0.0
991,9910,-0.066468,0.148425,1.071758,0.0,0.0,0.0
992,9920,-0.0647325,0.165749,1.0281805,0.0,0.0,0.0
993,9930,-0.06131500000000001,0.236139,0.881093,0.0,0.0,0.0
994,9940,-0.108976,0.300199,0.825183,0.0,0.0,0.0
995,9950,-0.108976,0.300199,0.825183,0.0,0.0,0.0
996,9960,-0.1682495,0.30545100000000003,0.996437,0.0,0.0,0.0
997,9970,-0.327829,0.307232,1.559327,0.0,0.0,0.0
998,9980,-0.342607,0.30677350000000003,1.5824159999999998,0.0,0.0,0.0
999,9990,-0.36177349999999997,0.284962,1.7164145,0.0,0.0,0.0
