id,timestamp,acc_x,acc_y,acc_z,gyro_x,gyro_y,gyro_z
0,0,-0.04561900000000001,-0.1060625,0.8337384999999999,0.0,0.0,0.0
1,10,-0.242401,-0.11682,0.786131,0.0,0.0,0.0
2,20,-0.242401,-0.11682,0.786131,0.0,0.0,0.0
3,30,,,,,,
4,40,-0.29892949999999996,-0.0374615,0.904534,0.0,0.0,0.0
5,50,-0.139144,-0.062385,1.066361,0.0,0.0,0.0
6,60,-0.12196499999999999,-0.0685015,1.0666129999999998,0.0,0.0,0.0
7,70,-0.104786,-0.074618,1.066865,0.0,0.0,0.0
8,80,-0.003922,-0.094442,0.934404,0.0,0.0,0.0
9,90,0.023242,-0.091132,0.905505,0.0,0.0,0.0
10,100,-0.010244999999999999,-0.0806805,0.7630965000000001,0.0,0.0,0.0
11,110,-0.08537499999999999,-0.0496945,0.657286,0.0,0.0,0.0
12,120,-0.128242,-0.024771,0.606009,0.0,0.0,0.0
13,130,-0.26243099999999997,0.0294035,0.34577199999999997,0.0,0.0,0.0
14,140,-0.303165,0.027829,0.204786,0.0,0.0,0.0
15,150,-0.270237,0.0245185,0.1844035,0.0,0.0,0.0
16,160,-0.237309,0.021208,0.164021,0.0,0.0,0.0
17,170,0.1568805,0.016613,0.0769115,0.0,0.0,0.0
18,180,0.190214,0.019266,0.074924,0.0,0.0,0.0
19,190,0.190214,0.019266,0.074924,0.0,0.0,0.0
20,200,0.142813,-0.088486,-0.005703,0.0,0.0,0.0
21,210,-0.11906,-0.214067,-0.045871999999999996,0.0,0.0,0.0
22,220,-0.195612,-0.218853,-0.045765,0.0,0.0,0.0
23,230,-0.5195715000000001,-0.222882,0.024717,0.0,0.0,0.0
24,240,-0.636391,-0.218853,0.06055,0.0,0.0,0.0
25,250,-1.021812,-0.1477065,0.11875350000000001,0.0,0.0,0.0
26,260,-1.135673,-0.121713,0.136697,0.0,0.0,0.0
27,270,-1.2313,-0.103517,0.229817,0.0,0.0,0.0
28,280,-1.257294,-0.097554,0.284817,0.0,0.0,0.0
29,290,-1.2278825,-0.15621600000000002,0.403922,0.0,0.0,0.0
30,300,-1.127217,-0.213257,0.429557,0.0,0.0,0.0
31,310,-1.1285395,-0.221055,0.4320035,0.0,0.0,0.0
32,320,-1.129862,-0.228853,0.43445,0.0,0.0,0.0
33,330,-1.4677825,-0.2502065,0.3232875,0.0,0.0,0.0
34,340,-2.158609,-0.192462,0.172584,0.0,0.0,0.0
35,350,-2.21789,-0.2188075,0.1729355,0.0,0.0,0.0
36,360,-2.277171,-0.245153,0.173287,0.0,0.0,0.0
37,370,-2.502752,-0.483899,0.401529,0.0,0.0,0.0
38,380,-2.6584635,-0.58211,0.6975534999999999,0.0,0.0,0.0
39,390,-2.670444,-0.598058,0.877676,0.0,0.0,0.0
40,400,-2.837309,-0.602248,0.885214,0.0,0.0,0.0
41,410,-3.076758,-0.761361,0.990413,0.0,0.0,0.0
42,420,-3.076758,-0.761361,0.990413,0.0,0.0,0.0
43,430,-3.076758,-0.761361,0.990413,0.0,0.0,0.0
44,440,-3.076758,-0.761361,0.990413,0.0,0.0,0.0
45,450,-3.076758,-0.761361,0.990413,0.0,0.0,0.0
46,460,-3.076758,-0.761361,0.990413,0.0,0.0,0.0
47,470,-3.076758,-0.761361,0.990413,0.0,0.0,0.0
48,480,-3.076758,-0.761361,0.990413,0.0,0.0,0.0
49,490,-3.076758,-0.761361,0.990413,0.0,0.0,0.0
50,500,-3.076758,-0.761361,0.990413,0.0,0.0,0.0
51,510,-3.1909785,-1.0472934999999999,1.2906195,0.0,0.0,0.0
52,520,-3.305199,-1.333226,1.590826,0.0,0.0,0.0
53,530,-3.305199,-1.333226,1.590826,0.0,0.0,0.0
54,540,-2.9629510000000003,-1.2724235,1.475535,0.0,0.0,0.0
55,550,-2.05026,-1.019878,1.472278,0.0,0.0,0.0
56,560,-1.9462845,-0.8444955000000001,1.575841,0.0,0.0,0.0
57,570,-1.842309,-0.669113,1.679404,0.0,0.0,0.0
58,580,-1.703165,-0.578287,1.615703,0.0,0.0,0.0
59,590,-1.6416435,-0.548677,1.5619265,0.0,0.0,0.0
60,600,-1.580122,-0.519067,1.50815,0.0,0.0,0.0
61,610,-1.327523,-0.46708,1.270841,0.0,0.0,0.0
62,620,-1.228746,-0.457798,1.168394,0.0,0.0,0.0
63,630,-1.15474,-0.463807,1.065856,0.0,0.0,0.0
64,640,-1.144037,-0.524159,0.988272,0.0,0.0,0.0
65,650,-1.146896,-0.694694,0.760551,0.0,0.0,0.0
66,660,-1.147905,-0.8865445000000001,0.6493884999999999,0.0,0.0,0.0
67,670,-1.151575,-0.95026,0.611208,0.0,0.0,0.0
68,680,-1.151575,-0.95026,0.611208,0.0,0.0,0.0
69,690,-1.187462,-1.048624,0.775229,0.0,0.0,0.0
70,700,-1.187462,-1.048624,0.775229,0.0,0.0,0.0
71,710,-1.2744114999999998,-1.0461239999999998,0.8843045,0.0,0.0,0.0
72,720,-1.292355,-1.042095,0.882569,0.0,0.0,0.0
73,730,-1.2957725,-1.036338,0.8204359999999999,0.0,0.0,0.0
74,740,-1.334358,-1.0213,0.649954,0.0,0.0,0.0
75,750,-1.4788455,-1.047913,0.416009,0.0,0.0,0.0
76,760,-1.562538,-1.076246,0.30045849999999996,0.0,0.0,0.0
77,770,-1.582064,-1.08185,0.283379,0.0,0.0,0.0
78,780,-1.663914,-1.073807,0.236804,0.0,0.0,0.0
79,790,-1.663914,-1.073807,0.236804,0.0,0.0,0.0
80,800,-1.679006,-1.035673,0.200413,0.0,0.0,0.0
81,810,-1.718043,-0.9604509999999999,-0.012997000000000002,0.0,0.0,0.0
82,820,-1.723135,-0.926407,-0.109985,0.0,0.0,0.0
83,830,-1.6818045,-0.8987765,-0.3383795,0.0,0.0,0.0
84,840,-1.651881,-0.890214,-0.400612,0.0,0.0,0.0
85,850,-1.3861314999999998,-0.8343499999999999,-0.525841,0.0,0.0,0.0
86,860,-1.241177,-0.793578,-0.564633,0.0,0.0,0.0
87,870,-0.9709479999999999,-0.576858,-0.534251,0.0,0.0,0.0
88,880,-0.667783,-0.376254,-0.352294,0.0,0.0,0.0
89,890,-0.667783,-0.376254,-0.352294,0.0,0.0,0.0
90,900,-0.45841,-0.698364,0.02344,0.0,0.0,0.0
91,910,-0.359939,-0.7694190000000001,0.024564,0.0,0.0,0.0
92,920,-0.261468,-0.840474,0.025688,0.0,0.0,0.0
93,930,-0.261468,-0.840474,0.025688,0.0,0.0,0.0
94,940,-0.261468,-0.840474,0.025688,0.0,0.0,0.0
95,950,-0.261468,-0.840474,0.025688,0.0,0.0,0.0
96,960,-0.261468,-0.840474,0.025688,0.0,0.0,0.0
97,970,-0.261468,-0.840474,0.025688,0.0,0.0,0.0
98,980,-0.261468,-0.840474,0.025688,0.0,0.0,0.0
99,990,-0.261468,-0.840474,0.025688,0.0,0.0,0.0
100,1000,-0.261468,-0.840474,0.025688,0.0,0.0,0.0
101,1010,-0.261468,-0.840474,0.025688,0.0,0.0,0.0
102,1020,-0.261468,-0.840474,0.025688,0.0,0.0,0.0
103,1030,2.0711999999999997,-1.0821100000000001,0.16641450000000002,0.0,0.0,0.0
104,1040,4.229771,-1.37737,0.450046,0.0,0.0,0.0
105,1050,4.266621000000001,-1.440214,0.517072,0.0,0.0,0.0
106,1060,4.185123,-1.551376,0.716621,0.0,0.0,0.0
107,1070,4.185123,-1.551376,0.716621,0.0,0.0,0.0
108,1080,3.8013765,-1.514679,0.8894040000000001,0.0,0.0,0.0
109,1090,3.63445,-1.474511,0.937722,0.0,0.0,0.0
110,1100,3.0362845,-1.378746,0.9924085,0.0,0.0,0.0
111,1110,2.473899,-1.353211,0.917018,0.0,0.0,0.0
112,1120,2.473899,-1.353211,0.917018,0.0,0.0,0.0
113,1130,2.167477,-1.3778825,1.0477065,0.0,0.0,0.0
114,1140,2.044847,-1.390826,1.184511,0.0,0.0,0.0
115,1150,1.811674,-1.432569,1.365703,0.0,0.0,0.0
116,1160,1.123746,-1.635367,1.536193,0.0,0.0,0.0
117,1170,1.123746,-1.635367,1.536193,0.0,0.0,0.0
118,1180,0.8484175,-1.7510705,1.344442,0.0,0.0,0.0
119,1190,0.537309,-1.927018,1.04607,0.0,0.0,0.0
120,1200,0.537309,-1.927018,1.04607,0.0,0.0,0.0
121,1210,0.537309,-1.927018,1.04607,0.0,0.0,0.0
122,1220,-0.210199,-2.286743,0.312431,0.0,0.0,0.0
123,1230,-0.790107,-2.277982,-0.025795,0.0,0.0,0.0
124,1240,-0.965084,-2.2644270000000004,-0.168555,0.0,0.0,0.0
125,1250,-1.140061,-2.250872,-0.311315,0.0,0.0,0.0
126,1260,-1.5164065,-2.213555,-0.6078445,0.0,0.0,0.0
127,1270,-1.596223,-2.196942,-0.687661,0.0,0.0,0.0
128,1280,-1.809587,-2.09052,-0.869006,0.0,0.0,0.0
129,1290,-1.809587,-2.09052,-0.869006,0.0,0.0,0.0
130,1300,-1.788486,-2.0055045000000002,-0.7946485,0.0,0.0,0.0
131,1310,-1.80133,-1.985826,-0.756682,0.0,0.0,0.0
132,1320,-1.960856,-1.894801,-0.720596,0.0,0.0,0.0
133,1330,-2.096636,-1.856988,-0.552546,0.0,0.0,0.0
134,1340,-2.136896,-1.858211,-0.427722,0.0,0.0,0.0
135,1350,-2.059786,-1.9383789999999999,-0.2047855,0.0,0.0,0.0
136,1360,-1.96555,-2.071759,0.176254,0.0,0.0,0.0
137,1370,-1.96555,-2.071759,0.176254,0.0,0.0,0.0
138,1380,-2.038532,-2.004694,0.307538,0.0,0.0,0.0
139,1390,-2.038532,-2.004694,0.307538,0.0,0.0,0.0
140,1400,-2.264373,-1.768861,0.2251755,0.0,0.0,0.0
141,1410,-2.559832,-1.353716,-0.20367,0.0,0.0,0.0
142,1420,-2.559832,-1.353716,-0.20367,0.0,0.0,0.0
143,1430,-2.558823,-1.15607,-0.760856,0.0,0.0,0.0
144,1440,-2.558823,-1.15607,-0.760856,0.0,0.0,0.0
145,1450,-2.491024,-1.083073,-0.928547,0.0,0.0,0.0
146,1460,-2.491024,-1.083073,-0.928547,0.0,0.0,0.0
147,1470,-2.491024,-1.083073,-0.928547,0.0,0.0,0.0
148,1480,-2.491024,-1.083073,-0.928547,0.0,0.0,0.0
149,1490,-2.491024,-1.083073,-0.928547,0.0,0.0,0.0
150,1500,-2.491024,-1.083073,-0.928547,0.0,0.0,0.0
151,1510,-2.491024,-1.083073,-0.928547,0.0,0.0,0.0
152,1520,-2.491024,-1.083073,-0.928547,0.0,0.0,0.0
153,1530,-2.491024,-1.083073,-0.928547,0.0,0.0,0.0
154,1540,-2.491024,-1.083073,-0.928547,0.0,0.0,0.0
155,1550,-2.360657,-0.939342,-0.961468,0.0,0.0,0.0
156,1560,-2.778792,-0.34388399999999997,-0.022477499999999997,0.0,0.0,0.0
157,1570,-2.834449,-0.337416,0.059128,0.0,0.0,0.0
158,1580,-3.0486775,-0.28557350000000004,0.064633,0.0,0.0,0.0
159,1590,-3.2605505,-0.335214,-0.063861,0.0,0.0,0.0
160,1600,-3.330887,-0.404786,-0.142202,0.0,0.0,0.0
161,1610,-3.435581,-0.50734,-0.399893,0.0,0.0,0.0
162,1620,-3.453104,-0.48318,-0.715489,0.0,0.0,0.0
163,1630,-3.453104,-0.48318,-0.715489,0.0,0.0,0.0
164,1640,-3.6402140000000003,-0.1369035,-0.5767045,0.0,0.0,0.0
165,1650,-4.167783,0.639251,-0.076254,0.0,0.0,0.0
166,1660,-4.167783,0.639251,-0.076254,0.0,0.0,0.0
167,1670,-4.280535,0.859633,-0.022829,0.0,0.0,0.0
168,1680,-4.3490825,1.1063685,-0.0414835,0.0,0.0,0.0
169,1690,-4.355459,1.16789,-0.060138,0.0,0.0,0.0
170,1700,-4.355459,1.16789,-0.060138,0.0,0.0,0.0
171,1710,-4.355459,1.16789,-0.060138,0.0,0.0,0.0
172,1720,-4.081346,0.731499,-0.65841,0.0,0.0,0.0
173,1730,-3.8957189999999997,0.359939,-0.9513765000000001,0.0,0.0,0.0
174,1740,-3.61815,-0.165336,-1.270443,0.0,0.0,0.0
175,1750,-3.497248,-0.265642,-1.223349,0.0,0.0,0.0
176,1760,-3.4319575,-0.3377675,-1.122783,0.0,0.0,0.0
177,1770,-3.366667,-0.409893,-1.022217,0.0,0.0,0.0
178,1780,-3.2748239999999997,-0.421147,-0.8686545,0.0,0.0,0.0
179,1790,-3.244449,-0.420688,-0.799694,0.0,0.0,0.0
180,1800,-3.1225305,-0.3703825,-0.49398299999999995,0.0,0.0,0.0
181,1810,-3.010497,-0.36136100000000004,-0.275023,0.0,0.0,0.0
182,1820,-2.961055,-0.362584,-0.192661,0.0,0.0,0.0
183,1830,-2.961055,-0.362584,-0.192661,0.0,0.0,0.0
184,1840,-2.578899,-0.471453,0.172584,0.0,0.0,0.0
185,1850,-2.3160015,-0.6041745000000001,0.37140700000000004,0.0,0.0,0.0
186,1860,-2.139557,-0.577569,0.537921,0.0,0.0,0.0
187,1870,-2.139557,-0.577569,0.537921,0.0,0.0,0.0
188,1880,-2.030688,-0.5303825,0.671208,0.0,0.0,0.0
189,1890,-1.993379,-0.521208,0.705612,0.0,0.0,0.0
190,1900,-1.990719,-0.563716,0.643425,0.0,0.0,0.0
191,1910,-2.009121,-0.605046,0.582974,0.0,0.0,0.0
192,1920,-2.052707,-0.905612,0.192355,0.0,0.0,0.0
193,1930,-1.9943429999999998,-1.034511,0.105199,0.0,0.0,0.0
194,1940,-1.935979,-1.16341,0.018043,0.0,0.0,0.0
195,1950,-1.7606575,-1.3229815,-0.014786,0.0,0.0,0.0
196,1960,-1.703165,-1.357385,-0.014786,0.0,0.0,0.0
197,1970,-1.611621,-1.457691,0.097141,0.0,0.0,0.0
198,1980,-1.611621,-1.457691,0.097141,0.0,0.0,0.0
199,1990,-1.611621,-1.457691,0.097141,0.0,0.0,0.0
200,2000,-1.611621,-1.457691,0.097141,0.0,0.0,0.0
201,2010,-1.611621,-1.457691,0.097141,0.0,0.0,0.0
202,2020,-1.611621,-1.457691,0.097141,0.0,0.0,0.0
203,2030,-1.611621,-1.457691,0.097141,0.0,0.0,0.0
204,2040,-1.611621,-1.457691,0.097141,0.0,0.0,0.0
205,2050,-1.611621,-1.457691,0.097141,0.0,0.0,0.0
206,2060,-1.611621,-1.457691,0.097141,0.0,0.0,0.0
207,2070,-1.611621,-1.457691,0.097141,0.0,0.0,0.0
208,2080,-1.611621,-1.457691,0.097141,0.0,0.0,0.0
209,2090,-1.613349,-1.393073,-0.571972,0.0,0.0,0.0
210,2100,-1.613349,-1.393073,-0.571972,0.0,0.0,0.0
211,2110,-1.5867505,-1.2288454999999998,-0.6749769999999999,0.0,0.0,0.0
212,2120,-1.571865,-1.146483,-0.706728,0.0,0.0,0.0
213,2130,-1.505,-0.9383334999999999,-0.8137080000000001,0.0,0.0,0.0
214,2140,-1.343685,-0.7992355,-0.8826685000000001,0.0,0.0,0.0
215,2150,-1.155459,-0.591544,-0.908976,0.0,0.0,0.0
216,2160,-1.1009175,-0.5568805,-0.9061699999999999,0.0,0.0,0.0
217,2170,-0.998058,-0.638333,-0.891437,0.0,0.0,0.0
218,2180,-0.9248164999999999,-0.7134095,-0.88461,0.0,0.0,0.0
219,2190,-0.7798624999999999,-0.85107,-0.873043,0.0,0.0,0.0
220,2200,-0.70815,-0.913654,-0.868303,0.0,0.0,0.0
221,2210,-0.70815,-0.913654,-0.868303,0.0,0.0,0.0
222,2220,0.065031,-1.270948,-0.540474,0.0,0.0,0.0
223,2230,0.8975075,-1.269419,-0.2608025,0.0,0.0,0.0
224,2240,2.105612,-1.218547,0.062798,0.0,0.0,0.0
225,2250,2.282829,-1.2360855000000002,0.066055,0.0,0.0,0.0
226,2260,2.805612,-1.381544,0.068394,0.0,0.0,0.0
227,2270,3.001835,-1.4500000000000002,0.012537999999999997,0.0,0.0,0.0
228,2280,3.198058,-1.518456,-0.043318,0.0,0.0,0.0
229,2290,3.8903675,-1.8624385,-0.0500995,0.0,0.0,0.0
230,2300,4.040872,-1.793073,0.233333,0.0,0.0,0.0
231,2310,4.0477065,-1.752041,0.34571850000000004,0.0,0.0,0.0
232,2320,4.054541,-1.711009,0.458104,0.0,0.0,0.0
233,2330,3.9787999999999997,-1.692156,0.631804,0.0,0.0,0.0
234,2340,3.721606,-1.699801,0.564327,0.0,0.0,0.0
235,2350,3.586132,-1.683945,0.53211,0.0,0.0,0.0
236,2360,3.450658,-1.668089,0.499893,0.0,0.0,0.0
237,2370,2.8165675,-1.415956,0.6226305,0.0,0.0,0.0
238,2380,2.5302755,-1.3032110000000001,0.7638685000000001,0.0,0.0,0.0
239,2390,2.394083,-1.24607,0.831605,0.0,0.0,0.0
240,2400,2.174419,-1.152401,0.954541,0.0,0.0,0.0
241,2410,1.7981194999999999,-1.0008184999999998,1.166667,0.0,0.0,0.0
242,2420,1.668861,-0.9812925,1.2181425,0.0,0.0,0.0
243,2430,1.357294,-0.965642,1.216713,0.0,0.0,0.0
244,2440,1.2712539999999999,-0.9601375,1.177875,0.0,0.0,0.0
245,2450,1.096636,-0.9490289999999999,1.084144,0.0,0.0,0.0
246,2460,0.801636,-0.933639,0.888685,0.0,0.0,0.0
247,2470,0.71922,-0.930734,0.8147325,0.0,0.0,0.0
248,2480,0.319771,-0.916621,0.474205,0.0,0.0,0.0
249,2490,0.229358,-0.9345565,0.4334865,0.0,0.0,0.0
250,2500,0.138945,-0.952492,0.392768,0.0,0.0,0.0
251,2510,0.138945,-0.952492,0.392768,0.0,0.0,0.0
252,2520,0.138945,-0.952492,0.392768,0.0,0.0,0.0
253,2530,0.138945,-0.952492,0.392768,0.0,0.0,0.0
254,2540,0.138945,-0.952492,0.392768,0.0,0.0,0.0
255,2550,0.138945,-0.952492,0.392768,0.0,0.0,0.0
256,2560,0.138945,-0.952492,0.392768,0.0,0.0,0.0
257,2570,0.138945,-0.952492,0.392768,0.0,0.0,0.0
258,2580,0.138945,-0.952492,0.392768,0.0,0.0,0.0
259,2590,0.138945,-0.952492,0.392768,0.0,0.0,0.0
260,2600,0.138945,-0.952492,0.392768,0.0,0.0,0.0
261,2610,-1.012737,-1.122018,-0.04969399999999999,0.0,0.0,0.0
262,2620,-2.164419,-1.291544,-0.492156,0.0,0.0,0.0
263,2630,-2.224717,-1.22182,-0.697194,0.0,0.0,0.0
264,2640,-2.130076,-1.217018,-0.959327,0.0,0.0,0.0
265,2650,-2.08685,-1.2000454999999999,-0.959327,0.0,0.0,0.0
266,2660,-1.972584,-1.171667,-0.807034,0.0,0.0,0.0
267,2670,-1.972584,-1.171667,-0.807034,0.0,0.0,0.0
268,2680,-1.877477,-1.170948,-0.591743,0.0,0.0,0.0
269,2690,,,,,,
270,2700,,,,,,
271,2710,,,,,,
272,2720,,,,,,
273,2730,,,,,,
274,2740,,,,,,
275,2750,,,,,,
276,2760,,,,,,
277,2770,,,,,,
278,2780,,,,,,
279,2790,,,,,,
280,2800,-1.579404,-1.080321,-0.044343,0.0,0.0,0.0
281,2810,-1.804174,0.160138,-0.349847,0.0,0.0,0.0
282,2820,-2.11396,-0.488272,-0.65107,0.0,0.0,0.0
283,2830,-2.178593,-0.904694,-1.231697,0.0,0.0,0.0
284,2840,-2.188073,-0.853624,-1.231697,0.0,0.0,0.0
285,2850,-2.5063684999999998,-0.45937300000000003,-0.6375155,0.0,0.0,0.0
286,2860,-2.6861395,-0.46386099999999997,-0.4316515,0.0,0.0,0.0
287,2870,-2.911315,-0.514174,-0.353517,0.0,0.0,0.0
288,2880,-3.0485705000000003,-0.47732399999999997,-0.4407725,0.0,0.0,0.0
289,2890,-3.303777,-0.335275,-0.635673,0.0,0.0,0.0
290,2900,-3.3381805,-0.2993885,-0.682156,0.0,0.0,0.0
291,2910,-3.280321,-0.22763,-0.742615,0.0,0.0,0.0
292,2920,-3.079709,-0.267171,-0.757492,0.0,0.0,0.0
293,2930,-2.8373545,-0.286697,-0.7771175,0.0,0.0,0.0
294,2940,-2.474618,-0.196131,-0.797752,0.0,0.0,0.0
295,2950,-2.516621,-0.074618,-0.760138,0.0,0.0,0.0
296,2960,-2.516621,-0.074618,-0.760138,0.0,0.0,0.0
297,2970,-2.983074,0.18237,-0.740872,0.0,0.0,0.0
298,2980,-3.2660549999999997,0.5550455000000001,-0.9065749999999999,0.0,0.0,0.0
299,2990,-3.339648,0.699281,-0.981957,0.0,0.0,0.0
300,3000,-3.456774,0.97971,-1.06422,0.0,0.0,0.0
301,3010,-3.5794115,1.3474005,-1.253158,0.0,0.0,0.0
302,3020,-3.595413,1.403165,-1.297554,0.0,0.0,0.0
303,3030,-3.632722,1.406529,-1.299495,0.0,0.0,0.0
304,3040,-3.632722,1.406529,-1.299495,0.0,0.0,0.0
305,3050,-3.632722,1.406529,-1.299495,0.0,0.0,0.0
306,3060,-3.632722,1.406529,-1.299495,0.0,0.0,0.0
307,3070,-3.632722,1.406529,-1.299495,0.0,0.0,0.0
308,3080,-3.632722,1.406529,-1.299495,0.0,0.0,0.0
309,3090,-3.632722,1.406529,-1.299495,0.0,0.0,0.0
310,3100,-3.632722,1.406529,-1.299495,0.0,0.0,0.0
311,3110,-3.632722,1.406529,-1.299495,0.0,0.0,0.0
312,3120,-3.632722,1.406529,-1.299495,0.0,0.0,0.0
313,3130,-3.4253825,0.3764065,-1.164526,0.0,0.0,0.0
314,3140,-3.056269,-0.656468,-0.897752,0.0,0.0,0.0
315,3150,-3.056269,-0.656468,-0.897752,0.0,0.0,0.0
316,3160,-2.6264525,-0.6374085,-0.641491,0.0,0.0,0.0
317,3170,-2.403868,-0.623242,-0.529465,0.0,0.0,0.0
318,3180,-2.1314985,-0.588379,-0.4452065,0.0,0.0,0.0
319,3190,-2.053104,-0.571055,-0.427523,0.0,0.0,0.0
320,3200,-1.880321,-0.497752,-0.334052,0.0,0.0,0.0
321,3210,-1.880321,-0.497752,-0.334052,0.0,0.0,0.0
322,3220,-1.880321,-0.497752,-0.334052,0.0,0.0,0.0
323,3230,-1.831399,-0.34138349999999995,-0.013249499999999999,0.0,0.0,0.0
324,3240,-1.8764525,-0.390061,0.019670999999999998,0.0,0.0,0.0
325,3250,-1.893777,-0.42263,0.036896,0.0,0.0,0.0
326,3260,-1.935275,-0.557079,0.07156,0.0,0.0,0.0
327,3270,-1.9874615,-0.7675845,0.1303215,0.0,0.0,0.0
328,3280,-1.968196,-1.121606,0.256269,0.0,0.0,0.0
329,3290,-1.9482185,-1.176147,0.274465,0.0,0.0,0.0
330,3300,-1.928241,-1.230688,0.292661,0.0,0.0,0.0
331,3310,-1.928241,-1.230688,0.292661,0.0,0.0,0.0
332,3320,-1.847248,-1.4139145000000002,0.322584,0.0,0.0,0.0
333,3330,-1.8165140000000002,-1.4798165,0.2532645,0.0,0.0,0.0
334,3340,-1.792248,-1.516315,0.185015,0.0,0.0,0.0
335,3350,-1.7213530000000001,-1.526399,0.0225305,0.0,0.0,0.0
336,3360,-1.685321,-1.528746,-0.036697,0.0,0.0,0.0
337,3370,-1.540566,-1.509679,-0.211208,0.0,0.0,0.0
338,3380,-1.464939,-1.4787,-0.30815,0.0,0.0,0.0
339,3390,-1.464939,-1.4787,-0.30815,0.0,0.0,0.0
340,3400,-1.2837385000000001,-1.3970415,-0.41539,0.0,0.0,0.0
341,3410,-1.1930655,-1.3510170000000001,-0.461873,0.0,0.0,0.0
342,3420,-1.113257,-1.377171,-0.50581,0.0,0.0,0.0
343,3430,-1.001835,-1.4507645,-0.519625,0.0,0.0,0.0
344,3440,-0.890413,-1.524358,-0.53344,0.0,0.0,0.0
345,3450,-0.69419,-1.554327,-0.569526,0.0,0.0,0.0
346,3460,-0.4144725,-1.454893,-0.629052,0.0,0.0,0.0
347,3470,-0.343425,-1.392554,-0.648119,0.0,0.0,0.0
348,3480,-0.5125915,-1.0919955,-0.6977599999999999,0.0,0.0,0.0
349,3490,-0.883073,-0.544648,-0.712538,0.0,0.0,0.0
350,3500,-0.883073,-0.544648,-0.712538,0.0,0.0,0.0
351,3510,-1.001024,-0.331086,-0.557997,0.0,0.0,0.0
352,3520,-0.93578,-0.297859,-0.250566,0.0,0.0,0.0
353,3530,-0.7608029999999999,-0.3528055,0.01299699999999998,0.0,0.0,0.0
354,3540,-0.24974,-0.473593,0.513043,0.0,0.0,0.0
355,3550,-0.24974,-0.473593,0.513043,0.0,0.0,0.0
356,3560,-0.24974,-0.473593,0.513043,0.0,0.0,0.0
357,3570,-0.24974,-0.473593,0.513043,0.0,0.0,0.0
358,3580,-0.24974,-0.473593,0.513043,0.0,0.0,0.0
359,3590,-0.24974,-0.473593,0.513043,0.0,0.0,0.0
360,3600,-0.24974,-0.473593,0.513043,0.0,0.0,0.0
361,3610,-0.24974,-0.473593,0.513043,0.0,0.0,0.0
362,3620,-0.24974,-0.473593,0.513043,0.0,0.0,0.0
363,3630,-0.24974,-0.473593,0.513043,0.0,0.0,0.0
364,3640,-0.24974,-0.473593,0.513043,0.0,0.0,0.0
365,3650,1.4954129999999999,-0.325581,-0.727217,0.0,0.0,0.0
366,3660,3.6762005,-0.22732449999999998,-1.47146,0.0,0.0,0.0
367,3670,3.807951,-0.278089,-1.291743,0.0,0.0,0.0
368,3680,4.0283945,-0.5225765,-0.6964375,0.0,0.0,0.0
369,3690,4.097967,-0.693991,-0.104083,0.0,0.0,0.0
370,3700,4.097967,-0.693991,-0.104083,0.0,0.0,0.0
371,3710,4.097967,-0.693991,-0.104083,0.0,0.0,0.0
372,3720,3.8123854999999995,-0.8094345000000001,0.359732,0.0,0.0,0.0
373,3730,3.805811,-0.916621,0.50867,0.0,0.0,0.0
374,3740,3.083899,-0.817018,1.164725,0.0,0.0,0.0
375,3750,2.916208,-0.790627,1.200612,0.0,0.0,0.0
376,3760,1.93578,-0.612232,0.845459,0.0,0.0,0.0
377,3770,1.93578,-0.612232,0.845459,0.0,0.0,0.0
378,3780,1.4514225,-0.550153,0.43990850000000004,0.0,0.0,0.0
379,3790,1.218242,-0.530275,0.28919,0.0,0.0,0.0
380,3800,0.960443,-0.536086,0.24974,0.0,0.0,0.0
381,3810,0.6266054999999999,-0.5603975,0.344801,0.0,0.0,0.0
382,3820,0.432523,-0.585627,0.517431,0.0,0.0,0.0
383,3830,0.432523,-0.585627,0.517431,0.0,0.0,0.0
384,3840,0.051123499999999995,-0.716254,0.729159,0.0,0.0,0.0
385,3850,-0.018349,-0.751881,0.74659,0.0,0.0,0.0
386,3860,-0.240979,-0.902645,0.718547,0.0,0.0,0.0
387,3870,-0.330275,-0.980321,0.616315,0.0,0.0,0.0
388,3880,-0.330275,-0.980321,0.616315,0.0,0.0,0.0
389,3890,-0.5965825,-1.258922,0.2285935,0.0,0.0,0.0
390,3900,-0.7718119999999999,-1.3483715,0.013761500000000003,0.0,0.0,0.0
391,3910,-0.874312,-1.388379,-0.084297,0.0,0.0,0.0
392,3920,-1.0816515,-1.489396,-0.3841515,0.0,0.0,0.0
393,3930,-1.116927,-1.504281,-0.43211,0.0,0.0,0.0
394,3940,-1.216208,-1.47156,-0.558823,0.0,0.0,0.0
395,3950,-1.2345565,-1.450711,-0.5611165,0.0,0.0,0.0
396,3960,-1.35607,-1.356881,-0.579312,0.0,0.0,0.0
397,3970,-1.7617275000000001,-1.249495,-0.678234,0.0,0.0,0.0
398,3980,-2.329159,-1.182875,-0.868303,0.0,0.0,0.0
399,3990,-2.4117735,-1.162745,-0.8723245,0.0,0.0,0.0
400,4000,-2.494388,-1.142615,-0.876346,0.0,0.0,0.0
401,4010,-2.356988,-1.132309,-0.539037,0.0,0.0,0.0
402,4020,-1.89867,-1.220688,-0.064526,0.0,0.0,0.0
403,4030,-1.721101,-1.24133,0.0533105,0.0,0.0,0.0
404,4040,-1.34292,-1.225581,0.321208,0.0,0.0,0.0
405,4050,-1.34292,-1.225581,0.321208,0.0,0.0,0.0
406,4060,-1.3213075,-1.176659,0.3481655,0.0,0.0,0.0
407,4070,-1.340979,-1.15974,0.345872,0.0,0.0,0.0
408,4080,-1.340979,-1.15974,0.345872,0.0,0.0,0.0
409,4090,-1.340979,-1.15974,0.345872,0.0,0.0,0.0
410,4100,-1.340979,-1.15974,0.345872,0.0,0.0,0.0
411,4110,-1.340979,-1.15974,0.345872,0.0,0.0,0.0
412,4120,-1.340979,-1.15974,0.345872,0.0,0.0,0.0
413,4130,-1.340979,-1.15974,0.345872,0.0,0.0,0.0
414,4140,-1.340979,-1.15974,0.345872,0.0,0.0,0.0
415,4150,-1.340979,-1.15974,0.345872,0.0,0.0,0.0
416,4160,-1.340979,-1.15974,0.345872,0.0,0.0,0.0
417,4170,-1.340979,-1.15974,0.345872,0.0,0.0,0.0
418,4180,-1.727829,-1.075535,-0.7870565,0.0,0.0,0.0
419,4190,-2.114679,-0.99133,-1.919985,0.0,0.0,0.0
420,4200,-2.087355,-0.673502,-1.537722,0.0,0.0,0.0
421,4210,-2.606728,-0.303777,-0.899281,0.0,0.0,0.0
422,4220,-2.606728,-0.303777,-0.899281,0.0,0.0,0.0
423,4230,-2.8952065,-0.3693195,-1.2185015,0.0,0.0,0.0
424,4240,-3.347202,-0.455352,-2.250153,0.0,0.0,0.0
425,4250,-3.347202,-0.455352,-2.250153,0.0,0.0,0.0
426,4260,-3.1419420000000002,-0.33277500000000004,-2.3347094999999998,0.0,0.0,0.0
427,4270,-2.9416895,-0.290321,-2.2692125,0.0,0.0,0.0
428,4280,-2.497554,-0.133135,-1.810092,0.0,0.0,0.0
429,4290,-2.476812,-0.0222785,-1.678693,0.0,0.0,0.0
430,4300,-2.45607,0.088578,-1.547294,0.0,0.0,0.0
431,4310,-2.496743,0.309327,-1.3320035,0.0,0.0,0.0
432,4320,-2.537416,0.530076,-1.116713,0.0,0.0,0.0
433,4330,-2.6828215,0.771361,-1.1822629999999998,0.0,0.0,0.0
434,4340,-2.754129,1.027324,-1.36422,0.0,0.0,0.0
435,4350,-2.754129,1.027324,-1.36422,0.0,0.0,0.0
436,4360,-2.703364,1.262798,-1.413456,0.0,0.0,0.0
437,4370,-2.7022399999999998,1.260856,-1.399794,0.0,0.0,0.0
438,4380,-2.683593,0.993578,-1.372477,0.0,0.0,0.0
439,4390,-2.7024005,0.923295,-1.3736009999999998,0.0,0.0,0.0
440,4400,-2.7651375,0.7860395,-1.3328745,0.0,0.0,0.0
441,4410,-2.901024,0.648731,-1.160657,0.0,0.0,0.0
442,4420,-2.9372625,0.608563,-1.125489,0.0,0.0,0.0
443,4430,-3.010145,0.5520875000000001,-1.0874160000000002,0.0,0.0,0.0
444,4440,-3.289801,0.393884,-1.161361,0.0,0.0,0.0
445,4450,-3.289801,0.393884,-1.161361,0.0,0.0,0.0
446,4460,-3.497806,0.156323,-1.2830275,0.0,0.0,0.0
447,4470,-3.625382,-0.143425,-1.418349,0.0,0.0,0.0
448,4480,-3.602087,-0.3722245,-1.4974545,0.0,0.0,0.0
449,4490,-3.578792,-0.601024,-1.57656,0.0,0.0,0.0
450,4500,-3.341132,-0.8935245,-1.557905,0.0,0.0,0.0
451,4510,-3.102339,-1.079404,-1.457187,0.0,0.0,0.0
452,4520,-2.847599,-1.123853,-1.272676,0.0,0.0,0.0
453,4530,-2.7857260000000004,-1.0864905,-1.1946945,0.0,0.0,0.0
454,4540,-2.639648,-0.979618,-1.006116,0.0,0.0,0.0
455,4550,-2.59607,-0.936751,-0.9534175,0.0,0.0,0.0
456,4560,-2.373899,-0.737202,-0.701529,0.0,0.0,0.0
457,4570,-2.333379,-0.7002524999999999,-0.662026,0.0,0.0,0.0
458,4580,-2.199801,-0.625382,-0.549541,0.0,0.0,0.0
459,4590,-2.144396,-0.6174845,-0.530833,0.0,0.0,0.0
460,4600,-2.088991,-0.609587,-0.512125,0.0,0.0,0.0
461,4610,-2.088991,-0.609587,-0.512125,0.0,0.0,0.0
462,4620,-2.088991,-0.609587,-0.512125,0.0,0.0,0.0
463,4630,-2.088991,-0.609587,-0.512125,0.0,0.0,0.0
464,4640,-2.088991,-0.609587,-0.512125,0.0,0.0,0.0
465,4650,-2.088991,-0.609587,-0.512125,0.0,0.0,0.0
466,4660,-2.088991,-0.609587,-0.512125,0.0,0.0,0.0
467,4670,-2.088991,-0.609587,-0.512125,0.0,0.0,0.0
468,4680,-2.088991,-0.609587,-0.512125,0.0,0.0,0.0
469,4690,-2.088991,-0.609587,-0.512125,0.0,0.0,0.0
470,4700,-2.040474,-0.648119,-0.504388,0.0,0.0,0.0
471,4710,-1.424564,-1.4813455,-0.258609,0.0,0.0,0.0
472,4720,-1.406116,-1.480841,-0.258609,0.0,0.0,0.0
473,4730,-1.406116,-1.480841,-0.258609,0.0,0.0,0.0
474,4740,-1.330474,-1.461162,-0.477263,0.0,0.0,0.0
475,4750,-1.330474,-1.461162,-0.477263,0.0,0.0,0.0
476,4760,-1.310092,-1.4345565,-0.483838,0.0,0.0,0.0
477,4770,-1.2896025,-1.4068269999999998,-0.4901605,0.0,0.0,0.0
478,4780,-1.293165,-1.362798,-0.488991,0.0,0.0,0.0
479,4790,-1.2888834999999998,-1.3598395,-0.4916895,0.0,0.0,0.0
480,4800,-1.284602,-1.356881,-0.494388,0.0,0.0,0.0
481,4810,-1.224312,-1.3917964999999999,-0.6083565,0.0,0.0,0.0
482,4820,-1.217737,-1.405917,-0.630581,0.0,0.0,0.0
483,4830,-1.1824620000000001,-1.3735935000000001,-0.6847555,0.0,0.0,0.0
484,4840,-1.046376,-1.26656,-0.705917,0.0,0.0,0.0
485,4850,-1.0141665,-1.2442354999999998,-0.705917,0.0,0.0,0.0
486,4860,-0.920489,-1.101116,-0.699388,0.0,0.0,0.0
487,4870,-0.920489,-1.101116,-0.699388,0.0,0.0,0.0
488,4880,-0.725688,-0.857294,-0.599801,0.0,0.0,0.0
489,4890,-0.43353200000000003,-0.728639,-0.5167735,0.0,0.0,0.0
490,4900,-0.347905,-0.727416,-0.500413,0.0,0.0,0.0
491,4910,-0.0663605,-1.098219,-0.44174349999999996,0.0,0.0,0.0
492,4920,0.074511,-1.287875,-0.42182,0.0,0.0,0.0
493,4930,1.3368505000000002,-1.661262,-0.1930735,0.0,0.0,0.0
494,4940,2.331193,-1.453318,0.234862,0.0,0.0,0.0
495,4950,2.50143,-1.3211545,0.411315,0.0,0.0,0.0
496,4960,3.110902,-0.976147,1.227722,0.0,0.0,0.0
497,4970,3.153364,-0.9907725000000001,1.2687005,0.0,0.0,0.0
498,4980,3.195826,-1.005398,1.309679,0.0,0.0,0.0
499,4990,3.629312,-1.042408,1.235879,0.0,0.0,0.0
500,5000,3.743532,-1.036697,1.159633,0.0,0.0,0.0
501,5010,3.9280355,-0.9786925,0.5624315,0.0,0.0,0.0
502,5020,3.9093809999999998,-0.871919,0.3069265,0.0,0.0,0.0
503,5030,3.783792,-0.716713,-0.035275,0.0,0.0,0.0
504,5040,3.783792,-0.716713,-0.035275,0.0,0.0,0.0
505,5050,3.499694,-0.593165,-0.447508,0.0,0.0,0.0
506,5060,3.354021,-0.553211,-0.577783,0.0,0.0,0.0
507,5070,3.0900615,-0.5253825000000001,-0.5121789999999999,0.0,0.0,0.0
508,5080,2.893479,-0.539656,-0.254587,0.0,0.0,0.0
509,5090,2.702339,-0.550459,0.275122,0.0,0.0,0.0
510,5100,2.702339,-0.550459,0.275122,0.0,0.0,0.0
511,5110,2.38318,-0.843425,0.912125,0.0,0.0,0.0
512,5120,2.2993344999999996,-0.8754815,1.1017275,0.0,0.0,0.0
513,5130,2.215489,-0.907538,1.29133,0.0,0.0,0.0
514,5140,2.215489,-0.907538,1.29133,0.0,0.0,0.0
515,5150,2.215489,-0.907538,1.29133,0.0,0.0,0.0
516,5160,2.215489,-0.907538,1.29133,0.0,0.0,0.0
517,5170,2.215489,-0.907538,1.29133,0.0,0.0,0.0
518,5180,2.215489,-0.907538,1.29133,0.0,0.0,0.0
519,5190,2.215489,-0.907538,1.29133,0.0,0.0,0.0
520,5200,2.215489,-0.907538,1.29133,0.0,0.0,0.0
521,5210,2.215489,-0.907538,1.29133,0.0,0.0,0.0
522,5220,2.215489,-0.907538,1.29133,0.0,0.0,0.0
523,5230,-0.301728,-0.920489,-0.011116,0.0,0.0,0.0
524,5240,-0.156468,-0.775336,0.237003,0.0,0.0,0.0
525,5250,-0.568601,-1.1335855000000001,-0.182569,0.0,0.0,0.0
526,5260,-0.96656,-1.253211,-0.483379,0.0,0.0,0.0
527,5270,-1.12182,-1.24393,-0.582462,0.0,0.0,0.0
528,5280,-1.1886855,-1.219771,-0.6379665,0.0,0.0,0.0
529,5290,-1.293884,-1.156988,-0.692768,0.0,0.0,0.0
530,5300,-1.298777,-1.123196,-0.6741135,0.0,0.0,0.0
531,5310,-1.359021,-1.045673,-0.592248,0.0,0.0,0.0
532,5320,-1.359021,-1.045673,-0.592248,0.0,0.0,0.0
533,5330,-1.4678900000000001,-1.0013230000000002,-0.389044,0.0,0.0,0.0
534,5340,-1.498165,-1.000612,-0.349648,0.0,0.0,0.0
535,5350,-1.575031,-1.013043,-0.273196,0.0,0.0,0.0
536,5360,-1.5952600000000001,-1.029358,-0.24062699999999998,0.0,0.0,0.0
537,5370,-1.4344495,-1.0668195,-0.0349615,0.0,0.0,0.0
538,5380,-1.354633,-1.074006,0.018043,0.0,0.0,0.0
539,5390,-1.0672325,-1.117225,0.165497,0.0,0.0,0.0
540,5400,-0.934358,-1.127217,0.204587,0.0,0.0,0.0
541,5410,-0.8799159999999999,-1.1220184999999998,0.2376145,0.0,0.0,0.0
542,5420,-0.865031,-1.119465,0.238425,0.0,0.0,0.0
543,5430,-0.973907,-1.0233945,0.09204899999999999,0.0,0.0,0.0
544,5440,-1.170138,-0.898976,-0.162691,0.0,0.0,0.0
545,5450,-1.170138,-0.898976,-0.162691,0.0,0.0,0.0
546,5460,-1.294602,-0.85607,-0.311315,0.0,0.0,0.0
547,5470,-1.43344,-0.790627,-0.675948,0.0,0.0,0.0
548,5480,-1.4372630000000002,-0.771361,-0.7737005,0.0,0.0,0.0
549,5490,-1.44078,-0.745765,-1.012034,0.0,0.0,0.0
550,5500,-1.479358,-0.725734,-1.0863455000000002,0.0,0.0,0.0
551,5510,-1.517936,-0.705703,-1.160657,0.0,0.0,0.0
552,5520,-1.8580580000000002,-0.5911314999999999,-1.355558,0.0,0.0,0.0
553,5530,-2.346789,-0.529771,-1.444755,0.0,0.0,0.0
554,5540,-2.605199,-0.539251,-1.447202,0.0,0.0,0.0
555,5550,-2.6612159999999996,-0.5452600000000001,-1.4499005,0.0,0.0,0.0
556,5560,-2.723135,-0.648624,-1.495,0.0,0.0,0.0
557,5570,-2.7399545,-0.6916895000000001,-1.501376,0.0,0.0,0.0
558,5580,-2.771667,-0.774312,-1.511422,0.0,0.0,0.0
559,5590,-2.788486,-0.766972,-1.418349,0.0,0.0,0.0
560,5600,-2.788486,-0.766972,-1.418349,0.0,0.0,0.0
561,5610,-3.193884,-0.535168,-0.989297,0.0,0.0,0.0
562,5620,-3.2232950000000002,-0.504029,-0.9600385,0.0,0.0,0.0
563,5630,-3.25708,-0.404786,-0.931697,0.0,0.0,0.0
564,5640,-3.216621,-0.163914,-1.17237,0.0,0.0,0.0
565,5650,-3.216621,-0.163914,-1.17237,0.0,0.0,0.0
566,5660,-3.216621,-0.163914,-1.17237,0.0,0.0,0.0
567,5670,-3.216621,-0.163914,-1.17237,0.0,0.0,0.0
568,5680,-3.216621,-0.163914,-1.17237,0.0,0.0,0.0
569,5690,-3.216621,-0.163914,-1.17237,0.0,0.0,0.0
570,5700,-3.216621,-0.163914,-1.17237,0.0,0.0,0.0
571,5710,-3.216621,-0.163914,-1.17237,0.0,0.0,0.0
572,5720,-3.216621,-0.163914,-1.17237,0.0,0.0,0.0
573,5730,-3.216621,-0.163914,-1.17237,0.0,0.0,0.0
574,5740,-3.216621,-0.163914,-1.17237,0.0,0.0,0.0
575,5750,-3.729511,0.7084634999999999,-1.2192124999999998,0.0,0.0,0.0
576,5760,-4.344954,1.623746,-1.087462,0.0,0.0,0.0
577,5770,-4.479618,1.362584,-0.890933,0.0,0.0,0.0
578,5780,-4.516621000000001,1.1099845,-0.9120794999999999,0.0,0.0,0.0
579,5790,-4.554335,0.692301,-1.0088685,0.0,0.0,0.0
580,5800,-4.555046,0.527217,-1.084511,0.0,0.0,0.0
581,5810,-4.2552445,0.018349000000000004,-1.2756349999999999,0.0,0.0,0.0
582,5820,-3.778181,-0.316927,-1.266055,0.0,0.0,0.0
583,5830,-3.6676305,-0.381705,-1.2210475,0.0,0.0,0.0
584,5840,-3.191743,-0.524664,-1.033945,0.0,0.0,0.0
585,5850,-3.1276755,-0.503517,-1.01539,0.0,0.0,0.0
586,5860,-2.992049,-0.412844,-0.902141,0.0,0.0,0.0
587,5870,-2.9384785,-0.37879949999999996,-0.845925,0.0,0.0,0.0
588,5880,-2.843425,-0.309174,-0.742095,0.0,0.0,0.0
589,5890,-2.8445489999999998,-0.329916,-0.734297,0.0,0.0,0.0
590,5900,-2.845673,-0.350658,-0.726499,0.0,0.0,0.0
591,5910,-2.8550459999999998,-0.4926605,-0.6653439999999999,0.0,0.0,0.0
592,5920,-2.853716,-0.557798,-0.642309,0.0,0.0,0.0
593,5930,-2.7454585,-0.9147784999999999,-0.3808335,0.0,0.0,0.0
594,5940,-2.675535,-1.139954,-0.252492,0.0,0.0,0.0
595,5950,-2.65724,-1.224159,-0.2211465,0.0,0.0,0.0
596,5960,-2.638945,-1.308364,-0.189801,0.0,0.0,0.0
597,5970,-2.510497,-1.7747169999999999,-0.215749,0.0,0.0,0.0
598,5980,-2.418601,-1.9753824999999998,-0.2889445,0.0,0.0,0.0
599,5990,-2.227416,-2.14893,-0.39185,0.0,0.0,0.0
600,6000,-2.227416,-2.14893,-0.39185,0.0,0.0,0.0
601,6010,-1.67971,-2.212844,-0.546789,0.0,0.0,0.0
602,6020,-1.6072325,-2.183081,-0.5522935,0.0,0.0,0.0
603,6030,-1.534755,-2.153318,-0.557798,0.0,0.0,0.0
604,6040,-1.418349,-2.091024,-0.565138,0.0,0.0,0.0
605,6050,-1.224771,-1.927722,-0.588578,0.0,0.0,0.0
606,6060,-1.105,-1.72497,-0.611728,0.0,0.0,0.0
607,6070,-1.0880275,-1.6872555,-0.6190675000000001,0.0,0.0,0.0
608,6080,-1.059434,-1.6111084999999998,-0.685933,0.0,0.0,0.0
609,6090,-1.047813,-1.572676,-0.745459,0.0,0.0,0.0
610,6100,-1.0389375,-1.535933,-0.7906195,0.0,0.0,0.0
611,6110,-0.954847,-1.520382,-0.793073,0.0,0.0,0.0
612,6120,-0.954847,-1.520382,-0.793073,0.0,0.0,0.0
613,6130,-0.964021,-1.4434255,-0.707997,0.0,0.0,0.0
614,6140,-0.971972,-1.435979,-0.676651,0.0,0.0,0.0
615,6150,-0.893731,-1.35591,-0.676651,0.0,0.0,0.0
616,6160,-0.856774,-1.311208,-0.676651,0.0,0.0,0.0
617,6170,-0.741284,-1.114985,-0.770443,0.0,0.0,0.0
618,6180,-0.741284,-1.114985,-0.770443,0.0,0.0,0.0
619,6190,-0.741284,-1.114985,-0.770443,0.0,0.0,0.0
620,6200,-0.741284,-1.114985,-0.770443,0.0,0.0,0.0
621,6210,-0.741284,-1.114985,-0.770443,0.0,0.0,0.0
622,6220,-0.741284,-1.114985,-0.770443,0.0,0.0,0.0
623,6230,-0.741284,-1.114985,-0.770443,0.0,0.0,0.0
624,6240,-0.741284,-1.114985,-0.770443,0.0,0.0,0.0
625,6250,-0.741284,-1.114985,-0.770443,0.0,0.0,0.0
626,6260,-0.741284,-1.114985,-0.770443,0.0,0.0,0.0
627,6270,-0.407393,-0.854335,-0.763815,0.0,0.0,0.0
628,6280,2.437309,-1.012538,1.167691,0.0,0.0,0.0
629,6290,2.5643735000000003,-1.07987,1.1718195,0.0,0.0,0.0
630,6300,2.691438,-1.147202,1.175948,0.0,0.0,0.0
631,6310,2.691438,-1.147202,1.175948,0.0,0.0,0.0
632,6320,3.012844,-1.22263,1.043119,0.0,0.0,0.0
633,6330,3.012844,-1.22263,1.043119,0.0,0.0,0.0
634,6340,3.012844,-1.22263,1.043119,0.0,0.0,0.0
635,6350,3.552347,-1.1324619999999999,1.031705,0.0,0.0,0.0
636,6360,3.477569,-1.039648,1.074923,0.0,0.0,0.0
637,6370,3.445107,-1.0346025,1.0757415,0.0,0.0,0.0
638,6380,3.285932,-1.02396,1.073899,0.0,0.0,0.0
639,6390,3.066972,-0.986132,1.072676,0.0,0.0,0.0
640,6400,2.921659,-0.9675845000000001,1.0946485,0.0,0.0,0.0
641,6410,2.776346,-0.949037,1.116621,0.0,0.0,0.0
642,6420,2.1652905000000002,-0.8151835000000001,1.270642,0.0,0.0,0.0
643,6430,2.036086,-0.79867,1.309174,0.0,0.0,0.0
644,6440,1.748318,-0.809679,1.345061,0.0,0.0,0.0
645,6450,1.227722,-0.783073,1.284817,0.0,0.0,0.0
646,6460,0.991942,-0.7660015,1.2137615,0.0,0.0,0.0
647,6470,0.756162,-0.74893,1.142706,0.0,0.0,0.0
648,6480,0.756162,-0.74893,1.142706,0.0,0.0,0.0
649,6490,0.362278,-0.965642,0.715183,0.0,0.0,0.0
650,6500,0.1657035,-1.1091739999999999,0.393318,0.0,0.0,0.0
651,6510,0.084817,-1.160443,0.284602,0.0,0.0,0.0
652,6520,-0.147607,-1.2614675000000002,-0.029052,0.0,0.0,0.0
653,6530,-0.19633,-1.2737,-0.156774,0.0,0.0,0.0
654,6540,-0.367638,-1.3335935,-0.30178150000000004,0.0,0.0,0.0
655,6550,-0.424771,-1.355153,-0.361055,0.0,0.0,0.0
656,6560,-0.6026455,-1.5138150000000001,-0.6323624999999999,0.0,0.0,0.0
657,6570,-0.682462,-1.605612,-0.782875,0.0,0.0,0.0
658,6580,-0.8387845,-1.6420485,-0.9525,0.0,0.0,0.0
659,6590,-0.9489755,-1.6069265000000001,-1.005558,0.0,0.0,0.0
660,6600,-1.087714,-1.5254284999999999,-1.0144265,0.0,0.0,0.0
661,6610,-1.16422,-1.479404,-1.011009,0.0,0.0,0.0
662,6620,-1.465948,-1.327324,-0.934358,0.0,0.0,0.0
663,6630,-1.5950075,-1.3261470000000002,-0.9115675000000001,0.0,0.0,0.0
664,6640,-1.634052,-1.33078,-0.905092,0.0,0.0,0.0
665,6650,-1.699801,-1.424771,-0.828945,0.0,0.0,0.0
666,6660,-1.665856,-1.469923,-0.554434,0.0,0.0,0.0
667,6670,-1.665856,-1.469923,-0.554434,0.0,0.0,0.0
668,6680,-1.603104,-1.4792049999999999,-0.230734,0.0,0.0,0.0
669,6690,-1.570138,-1.463104,-0.009174,0.0,0.0,0.0
670,6700,-1.570138,-1.463104,-0.009174,0.0,0.0,0.0
671,6710,-1.570138,-1.463104,-0.009174,0.0,0.0,0.0
672,6720,-1.570138,-1.463104,-0.009174,0.0,0.0,0.0
673,6730,-1.570138,-1.463104,-0.009174,0.0,0.0,0.0
674,6740,-1.570138,-1.463104,-0.009174,0.0,0.0,0.0
675,6750,-1.570138,-1.463104,-0.009174,0.0,0.0,0.0
676,6760,-1.570138,-1.463104,-0.009174,0.0,0.0,0.0
677,6770,-1.570138,-1.463104,-0.009174,0.0,0.0,0.0
678,6780,-1.570138,-1.463104,-0.009174,0.0,0.0,0.0
679,6790,-1.570138,-1.463104,-0.009174,0.0,0.0,0.0
680,6800,-1.873807,-0.885826,-0.276147,0.0,0.0,0.0
681,6810,-1.9462765,-0.387974,-0.697248,0.0,0.0,0.0
682,6820,-1.883073,-0.409174,-0.853823,0.0,0.0,0.0
683,6830,-1.9388375,-0.507645,-1.171659,0.0,0.0,0.0
684,6840,-2.234052,-0.409893,-1.199495,0.0,0.0,0.0
685,6850,-2.234052,-0.409893,-1.199495,0.0,0.0,0.0
686,6860,-2.505153,-0.3940825,-1.0787,0.0,0.0,0.0
687,6870,-2.601789,-0.38159750000000003,-1.23461,0.0,0.0,0.0
688,6880,-2.744343,-0.434052,-1.537722,0.0,0.0,0.0
689,6890,-2.7749775000000003,-0.5098395,-1.6029054999999999,0.0,0.0,0.0
690,6900,-2.805612,-0.585627,-1.668089,0.0,0.0,0.0
691,6910,-2.7056575,-0.6481650000000001,-1.629251,0.0,0.0,0.0
692,6920,-2.4,-0.51315,-1.129159,0.0,0.0,0.0
693,6930,-2.393578,-0.445061,-1.005199,0.0,0.0,0.0
694,6940,-2.432416,-0.353517,-1.001024,0.0,0.0,0.0
695,6950,-2.5082035,-0.28287450000000003,-1.0387385,0.0,0.0,0.0
696,6960,-3.01896,0.202859,-1.34659,0.0,0.0,0.0
697,6970,-3.1126375,0.33940349999999997,-1.3971485000000001,0.0,0.0,0.0
698,6980,-3.206315,0.475948,-1.447707,0.0,0.0,0.0
699,6990,-3.4165134999999998,0.9141205,-1.478341,0.0,0.0,0.0
700,7000,-3.495611,1.046284,-1.477477,0.0,0.0,0.0
701,7010,-3.9763,1.4570794999999999,-1.2741135,0.0,0.0,0.0
702,7020,-4.25708,1.650352,-1.145979,0.0,0.0,0.0
703,7030,-4.602645,1.716514,-1.072982,0.0,0.0,0.0
704,7040,-4.9833870000000005,1.670283,-1.136491,0.0,0.0,0.0
705,7050,-5.017126,1.445367,-1.158716,0.0,0.0,0.0
706,7060,-4.995872,1.3216130000000001,-1.1362385000000002,0.0,0.0,0.0
707,7070,-4.813563,0.849343,-0.976866,0.0,0.0,0.0
708,7080,-4.6806350000000005,0.6175845,-0.914526,0.0,0.0,0.0
709,7090,-4.477829,0.23282150000000001,-0.850963,0.0,0.0,0.0
710,7100,-4.270229,-0.272278,-1.092553,0.0,0.0,0.0
711,7110,-4.2050915,-0.47289000000000003,-1.2532565,0.0,0.0,0.0
712,7120,-3.876345,-1.0213,-2.026101,0.0,0.0,0.0
713,7130,-3.7628435,-1.0585095,-2.043425,0.0,0.0,0.0
714,7140,-3.477982,-1.110596,-2.064419,0.0,0.0,0.0
715,7150,-3.477982,-1.110596,-2.064419,0.0,0.0,0.0
716,7160,-3.341789,-1.10867,-1.942615,0.0,0.0,0.0
717,7170,-3.156575,-1.0625385,-1.547653,0.0,0.0,0.0
718,7180,-3.045061,-1.137722,-1.35026,0.0,0.0,0.0
719,7190,-2.9880735,-1.180581,-1.31341,0.0,0.0,0.0
720,7200,-2.816101,-1.301025,-1.154021,0.0,0.0,0.0
721,7210,-2.6553975000000003,-1.3553060000000001,-0.9998929999999999,0.0,0.0,0.0
722,7220,-2.494694,-1.409587,-0.845765,0.0,0.0,0.0
723,7230,-2.494694,-1.409587,-0.845765,0.0,0.0,0.0
724,7240,-2.494694,-1.409587,-0.845765,0.0,0.0,0.0
725,7250,-2.494694,-1.409587,-0.845765,0.0,0.0,0.0
726,7260,-2.494694,-1.409587,-0.845765,0.0,0.0,0.0
727,7270,-2.494694,-1.409587,-0.845765,0.0,0.0,0.0
728,7280,-2.494694,-1.409587,-0.845765,0.0,0.0,0.0
729,7290,-2.494694,-1.409587,-0.845765,0.0,0.0,0.0
730,7300,-2.494694,-1.409587,-0.845765,0.0,0.0,0.0
731,7310,-2.494694,-1.409587,-0.845765,0.0,0.0,0.0
732,7320,-2.494694,-1.409587,-0.845765,0.0,0.0,0.0
733,7330,-1.368502,-1.894083,-0.700107,0.0,0.0,0.0
734,7340,-1.19552,-1.825275,-0.482676,0.0,0.0,0.0
735,7350,-1.1872094999999998,-1.79026,-0.44531350000000003,0.0,0.0,0.0
736,7360,-1.20867,-1.62711,-0.385214,0.0,0.0,0.0
737,7370,-1.2243119999999998,-1.595,-0.4049925,0.0,0.0,0.0
738,7380,-1.239954,-1.56289,-0.424771,0.0,0.0,0.0
739,7390,-1.256376,-1.4949005,-0.557699,0.0,0.0,0.0
740,7400,-1.261881,-1.491131,-0.604893,0.0,0.0,0.0
741,7410,-1.267997,-1.491743,-0.6352675,0.0,0.0,0.0
742,7420,-1.274113,-1.492355,-0.665642,0.0,0.0,0.0
743,7430,-1.274618,-1.536086,-0.76208,0.0,0.0,0.0
744,7440,-1.2251225,-1.4469955,-0.683387,0.0,0.0,0.0
745,7450,-1.188884,-1.359633,-0.614679,0.0,0.0,0.0
746,7460,-1.178899,-1.2608565,-0.5443884999999999,0.0,0.0,0.0
747,7470,-1.172584,-1.239037,-0.541483,0.0,0.0,0.0
748,7480,-1.128028,-1.2468425,-0.5676835,0.0,0.0,0.0
749,7490,-1.002447,-1.2024465,-0.592607,0.0,0.0,0.0
750,7500,-0.913869,-1.139954,-0.592966,0.0,0.0,0.0
751,7510,-0.6968885,-0.874878,-0.2808865,0.0,0.0,0.0
752,7520,-0.571972,-0.900505,0.057599,0.0,0.0,0.0
753,7530,-0.53461,-1.0597325,0.05724,0.0,0.0,0.0
754,7540,-0.497248,-1.21896,0.056881,0.0,0.0,0.0
755,7550,-0.132263,-1.7619265,-0.120948,0.0,0.0,0.0
756,7560,1.256988,-2.126193,-0.351575,0.0,0.0,0.0
757,7570,1.674725,-2.1231345,-0.2908255,0.0,0.0,0.0
758,7580,2.776346,-2.472477,0.043731,0.0,0.0,0.0
759,7590,3.0271105,-2.7679435000000003,0.20443450000000002,0.0,0.0,0.0
760,7600,3.82844,-3.471973,0.849847,0.0,0.0,0.0
761,7610,4.258769,-3.2497480000000003,1.755604,0.0,0.0,0.0
762,7620,4.689098,-3.027523,2.661361,0.0,0.0,0.0
763,7630,4.531399,-2.724411,3.9211004999999997,0.0,0.0,0.0
764,7640,4.409893,-2.643119,4.223134,0.0,0.0,0.0
765,7650,3.430581,-2.1269115000000003,3.6688074999999998,0.0,0.0,0.0
766,7660,2.836391,-1.801835,2.591024,0.0,0.0,0.0
767,7670,2.402141,-1.24393,1.469312,0.0,0.0,0.0
768,7680,2.402141,-1.24393,1.469312,0.0,0.0,0.0
769,7690,2.2275229999999997,-0.8964835,1.062951,0.0,0.0,0.0
770,7700,2.13445,-0.617125,0.763502,0.0,0.0,0.0
771,7710,2.0929665,-0.576246,0.6971944999999999,0.0,0.0,0.0
772,7720,1.944549,-0.5832265000000001,0.5938304999999999,0.0,0.0,0.0
773,7730,1.837615,-0.631086,0.556774,0.0,0.0,0.0
774,7740,1.837615,-0.631086,0.556774,0.0,0.0,0.0
775,7750,1.837615,-0.631086,0.556774,0.0,0.0,0.0
776,7760,1.837615,-0.631086,0.556774,0.0,0.0,0.0
777,7770,1.837615,-0.631086,0.556774,0.0,0.0,0.0
778,7780,1.837615,-0.631086,0.556774,0.0,0.0,0.0
779,7790,1.837615,-0.631086,0.556774,0.0,0.0,0.0
780,7800,1.837615,-0.631086,0.556774,0.0,0.0,0.0
781,7810,1.837615,-0.631086,0.556774,0.0,0.0,0.0
782,7820,1.837615,-0.631086,0.556774,0.0,0.0,0.0
783,7830,1.837615,-0.631086,0.556774,0.0,0.0,0.0
784,7840,1.837615,-0.631086,0.556774,0.0,0.0,0.0
785,7850,0.18328,-1.071101,-0.11926599999999998,0.0,0.0,0.0
786,7860,-1.619679,-1.402752,-0.771865,0.0,0.0,0.0
787,7870,-1.795413,-1.259021,-0.498777,0.0,0.0,0.0
788,7880,-1.829457,-1.2430195,-0.42701100000000003,0.0,0.0,0.0
789,7890,-1.863501,-1.227018,-0.355245,0.0,0.0,0.0
790,7900,-1.8442435000000001,-1.273196,-0.18955650000000002,0.0,0.0,0.0
791,7910,-1.754794,-1.36815,-0.11850150000000001,0.0,0.0,0.0
792,7920,-1.5878215,-1.4933255,-0.012584499999999998,0.0,0.0,0.0
793,7930,-1.338532,-1.634144,0.101835,0.0,0.0,0.0
794,7940,-1.3198775,-1.655046,0.12039,0.0,0.0,0.0
795,7950,-1.2996405,-1.6781345,0.1437845,0.0,0.0,0.0
796,7960,-1.372982,-1.654128,0.082569,0.0,0.0,0.0
797,7970,-1.3927065,-1.6475535,0.0489835,0.0,0.0,0.0
798,7980,-1.412431,-1.640979,0.015398,0.0,0.0,0.0
799,7990,-1.5217125,-1.5703365,-0.1388915,0.0,0.0,0.0
800,8000,-1.61896,-1.47156,-0.346483,0.0,0.0,0.0
801,8010,-1.653616,-1.4520415,-0.460344,0.0,0.0,0.0
802,8020,-1.706116,-1.450971,-0.6481115,0.0,0.0,0.0
803,8030,-1.72396,-1.469419,-0.722018,0.0,0.0,0.0
804,8040,-1.72396,-1.469419,-0.722018,0.0,0.0,0.0
805,8050,-1.9495415,-1.3683489999999998,-1.124511,0.0,0.0,0.0
806,8060,-2.094603,-1.150153,-1.163303,0.0,0.0,0.0
807,8070,-2.097554,-0.9645794999999999,-1.142913,0.0,0.0,0.0
808,8080,-2.100505,-0.779006,-1.122523,0.0,0.0,0.0
809,8090,-2.0183945,-0.19296649999999999,-1.0900075,0.0,0.0,0.0
810,8100,-2.206927,-0.149954,-1.35026,0.0,0.0,0.0
811,8110,-2.507844,-0.508058,-1.660046,0.0,0.0,0.0
812,8120,-2.6400075000000003,-0.713815,-1.802806,0.0,0.0,0.0
813,8130,-2.772171,-0.919572,-1.945566,0.0,0.0,0.0
814,8140,-2.6052524999999997,-0.71565,-1.5966895,0.0,0.0,0.0
815,8150,-2.471155,-0.455711,-1.201682,0.0,0.0,0.0
816,8160,-2.74659,-0.395306,-0.65107,0.0,0.0,0.0
817,8170,-2.985933,-0.443838,-0.767477,0.0,0.0,0.0
818,8180,-3.0880735,-0.445772,-0.92854,0.0,0.0,0.0
819,8190,-3.382064,-0.450963,-1.394908,0.0,0.0,0.0
820,8200,-3.382064,-0.450963,-1.394908,0.0,0.0,0.0
821,8210,-3.215184,-0.427523,-1.80133,0.0,0.0,0.0
822,8220,-3.148517,-0.38649100000000003,-1.790726,0.0,0.0,0.0
823,8230,-3.08185,-0.345459,-1.780122,0.0,0.0,0.0
824,8240,-3.0652905,-0.30336399999999997,-1.7021405,0.0,0.0,0.0
825,8250,-3.048731,-0.261269,-1.624159,0.0,0.0,0.0
826,8260,-3.048731,-0.261269,-1.624159,0.0,0.0,0.0
827,8270,-3.437615,0.091231,-1.6242584999999998,0.0,0.0,0.0
828,8280,-3.826499,0.443731,-1.624358,0.0,0.0,0.0
829,8290,-3.826499,0.443731,-1.624358,0.0,0.0,0.0
830,8300,-3.826499,0.443731,-1.624358,0.0,0.0,0.0
831,8310,-3.826499,0.443731,-1.624358,0.0,0.0,0.0
832,8320,-3.826499,0.443731,-1.624358,0.0,0.0,0.0
833,8330,-3.826499,0.443731,-1.624358,0.0,0.0,0.0
834,8340,-3.826499,0.443731,-1.624358,0.0,0.0,0.0
835,8350,-3.826499,0.443731,-1.624358,0.0,0.0,0.0
836,8360,-3.826499,0.443731,-1.624358,0.0,0.0,0.0
837,8370,-3.641996,0.08746199999999998,-1.0278745,0.0,0.0,0.0
838,8380,-3.457493,-0.268807,-0.431391,0.0,0.0,0.0
839,8390,-3.166468,-0.40076449999999997,-0.37818799999999997,0.0,0.0,0.0
840,8400,-2.935474,-0.518242,-0.320596,0.0,0.0,0.0
841,8410,-2.8365980000000004,-0.554381,-0.2979125,0.0,0.0,0.0
842,8420,-2.637416,-0.668609,-0.236896,0.0,0.0,0.0
843,8430,-2.637416,-0.668609,-0.236896,0.0,0.0,0.0
844,8440,-2.202554,-0.836804,0.057599,0.0,0.0,0.0
845,8450,-2.202554,-0.836804,0.057599,0.0,0.0,0.0
846,8460,-2.083899,-0.870948,0.144235,0.0,0.0,0.0
847,8470,-1.919373,-1.03445,0.254128,0.0,0.0,0.0
848,8480,-2.026101,-1.142095,0.173287,0.0,0.0,0.0
849,8490,-2.0850155,-1.200306,0.11620749999999999,0.0,0.0,0.0
850,8500,-2.212737,-1.374924,-0.055765,0.0,0.0,0.0
851,8510,-2.2411775,-1.4569345,-0.1088685,0.0,0.0,0.0
852,8520,-2.271361,-1.747905,-0.270336,0.0,0.0,0.0
853,8530,-2.241338,-1.810038,-0.27278250000000004,0.0,0.0,0.0
854,8540,-2.172477,-1.960245,-0.265642,0.0,0.0,0.0
855,8550,-2.1381725,-1.999289,-0.2472475,0.0,0.0,0.0
856,8560,-2.103868,-2.038333,-0.228853,0.0,0.0,0.0
857,8570,-1.908662,-2.0357795000000003,-0.18211,0.0,0.0,0.0
858,8580,-1.876957,-2.031498,-0.183685,0.0,0.0,0.0
859,8590,-1.895153,-1.9961235,-0.26324899999999996,0.0,0.0,0.0
860,8600,-1.9336855,-1.923035,-0.47385299999999997,0.0,0.0,0.0
861,8610,-1.94526,-1.87237,-0.757187,0.0,0.0,0.0
862,8620,-1.9409785,-1.873341,-0.8373625,0.0,0.0,0.0
863,8630,-1.936697,-1.874312,-0.917538,0.0,0.0,0.0
864,8640,-1.7756345,-2.0264065,-1.261009,0.0,0.0,0.0
865,8650,-1.687768,-2.10133,-1.435275,0.0,0.0,0.0
866,8660,-1.485734,-2.212339,-1.574312,0.0,0.0,0.0
867,8670,-1.287966,-2.183073,-1.548731,0.0,0.0,0.0
868,8680,-1.1598315000000001,-2.0876605,-1.4275229999999999,0.0,0.0,0.0
869,8690,-0.893379,-1.87289,-1.179006,0.0,0.0,0.0
870,8700,-0.893379,-1.87289,-1.179006,0.0,0.0,0.0
871,8710,-0.585826,-1.731445,-1.0189599999999999,0.0,0.0,0.0
872,8720,-0.2460705,-1.6033105,-0.920642,0.0,0.0,0.0
873,8730,-0.054939,-1.513349,-0.861468,0.0,0.0,0.0
874,8740,0.195306,-1.377171,-0.70448,0.0,0.0,0.0
875,8750,0.195306,-1.377171,-0.70448,0.0,0.0,0.0
876,8760,0.195306,-1.377171,-0.70448,0.0,0.0,0.0
877,8770,0.4797705,-1.2728365,-0.1565215,0.0,0.0,0.0
878,8780,0.675642,-1.208058,0.258211,0.0,0.0,0.0
879,8790,0.718853,-1.109893,0.430275,0.0,0.0,0.0
880,8800,0.718853,-1.109893,0.430275,0.0,0.0,0.0
881,8810,0.718853,-1.109893,0.430275,0.0,0.0,0.0
882,8820,0.718853,-1.109893,0.430275,0.0,0.0,0.0
883,8830,0.718853,-1.109893,0.430275,0.0,0.0,0.0
884,8840,0.718853,-1.109893,0.430275,0.0,0.0,0.0
885,8850,0.718853,-1.109893,0.430275,0.0,0.0,0.0
886,8860,0.718853,-1.109893,0.430275,0.0,0.0,0.0
887,8870,0.718853,-1.109893,0.430275,0.0,0.0,0.0
888,8880,0.718853,-1.109893,0.430275,0.0,0.0,0.0
889,8890,0.718853,-1.109893,0.430275,0.0,0.0,0.0
890,8900,2.031697,-1.202141,0.55555,0.0,0.0,0.0
891,8910,4.352401,-1.7088225000000001,1.8467354999999999,0.0,0.0,0.0
892,8920,3.861827,-1.6363455,1.679457,0.0,0.0,0.0
893,8930,3.521712,-1.598272,1.488379,0.0,0.0,0.0
894,8940,3.1834325,-1.5243120000000001,1.2313455,0.0,0.0,0.0
895,8950,2.572783,-1.358716,0.9534635,0.0,0.0,0.0
896,8960,1.903563,-1.150872,1.075336,0.0,0.0,0.0
897,8970,1.757844,-1.1322174999999999,1.0978135,0.0,0.0,0.0
898,8980,1.612125,-1.113563,1.120291,0.0,0.0,0.0
899,8990,1.1332339999999999,-1.044289,1.1098395,0.0,0.0,0.0
900,9000,0.937003,-1.01182,1.087875,0.0,0.0,0.0
901,9010,0.376552,-0.9529585,0.6961235,0.0,0.0,0.0
902,9020,0.021101,-0.920795,0.167477,0.0,0.0,0.0
903,9030,0.021101,-0.920795,0.167477,0.0,0.0,0.0
904,9040,-0.23945,-0.843624,-0.427018,0.0,0.0,0.0
905,9050,-0.23705700000000002,-0.8618195,-0.4438375,0.0,0.0,0.0
906,9060,-0.170229,-0.884602,-0.475841,0.0,0.0,0.0
907,9070,-0.1444415,-0.9742044999999999,-0.5264525,0.0,0.0,0.0
908,9080,-0.118654,-1.063807,-0.577064,0.0,0.0,0.0
909,9090,-0.1560095,-1.285627,-0.724977,0.0,0.0,0.0
910,9100,-0.18919,-1.357385,-0.768196,0.0,0.0,0.0
911,9110,-0.5411775,-1.4564754999999998,-0.8184480000000001,0.0,0.0,0.0
912,9120,-1.163502,-1.460856,-0.637813,0.0,0.0,0.0
913,9130,-1.163502,-1.460856,-0.637813,0.0,0.0,0.0
914,9140,-1.580122,-1.543318,-0.469006,0.0,0.0,0.0
915,9150,-1.7013224999999998,-1.5890900000000001,-0.4355735,0.0,0.0,0.0
916,9160,-2.502752,-1.662997,-0.222737,0.0,0.0,0.0
917,9170,-2.607798,-1.627118,-0.129717,0.0,0.0,0.0
918,9180,-2.712844,-1.591239,-0.036697,0.0,0.0,0.0
919,9190,-2.6945490000000003,-1.556323,0.2176835,0.0,0.0,0.0
920,9200,-2.676254,-1.521407,0.472064,0.0,0.0,0.0
921,9210,-2.110604,-1.5189599999999999,0.7746710000000001,0.0,0.0,0.0
922,9220,-2.000413,-1.535275,0.775642,0.0,0.0,0.0
923,9230,-1.8111625,-1.5939835,0.6459174999999999,0.0,0.0,0.0
924,9240,-1.595826,-1.567477,0.070841,0.0,0.0,0.0
925,9250,-1.556269,-1.448211,-0.227829,0.0,0.0,0.0
926,9260,-1.556269,-1.448211,-0.227829,0.0,0.0,0.0
927,9270,-1.4808335,-1.3149315,-0.624312,0.0,0.0,0.0
928,9280,-1.395,-1.0634025,-1.2656955,0.0,0.0,0.0
929,9290,-1.460038,-0.9111085,-1.594801,0.0,0.0,0.0
930,9300,-1.692859,-0.800199,-1.777171,0.0,0.0,0.0
931,9310,-1.7093729999999998,-0.7167125,-1.777171,0.0,0.0,0.0
932,9320,-1.725887,-0.633226,-1.777171,0.0,0.0,0.0
933,9330,-1.725887,-0.633226,-1.777171,0.0,0.0,0.0
934,9340,-1.725887,-0.633226,-1.777171,0.0,0.0,0.0
935,9350,-1.725887,-0.633226,-1.777171,0.0,0.0,0.0
936,9360,-1.725887,-0.633226,-1.777171,0.0,0.0,0.0
937,9370,-1.725887,-0.633226,-1.777171,0.0,0.0,0.0
938,9380,-1.725887,-0.633226,-1.777171,0.0,0.0,0.0
939,9390,-1.725887,-0.633226,-1.777171,0.0,0.0,0.0
940,9400,-1.725887,-0.633226,-1.777171,0.0,0.0,0.0
941,9410,-1.725887,-0.633226,-1.777171,0.0,0.0,0.0
942,9420,-2.180933,-0.18333299999999997,-1.741284,0.0,0.0,0.0
943,9430,-2.635979,0.26656,-1.705397,0.0,0.0,0.0
944,9440,-2.5111625,0.221659,-1.888226,0.0,0.0,0.0
945,9450,-2.3684025,0.232263,-2.0752829999999998,0.0,0.0,0.0
946,9460,-2.350459,0.287768,-2.079511,0.0,0.0,0.0
947,9470,-2.416315,0.403471,-2.083991,0.0,0.0,0.0
948,9480,-2.6267050000000003,0.641391,-2.3585089999999997,0.0,0.0,0.0
949,9490,-2.809526,0.783792,-2.5958715000000003,0.0,0.0,0.0
950,9500,-3.095826,0.891131,-2.667783,0.0,0.0,0.0
951,9510,-3.095826,0.891131,-2.667783,0.0,0.0,0.0
952,9520,-3.250046,1.17156,-2.228945,0.0,0.0,0.0
953,9530,-3.3043275000000003,1.2350154999999998,-2.1220185000000003,0.0,0.0,0.0
954,9540,-3.4333335,1.3029585,-2.015092,0.0,0.0,0.0
955,9550,-3.623746,1.298165,-2.171866,0.0,0.0,0.0
956,9560,-3.623746,1.298165,-2.171866,0.0,0.0,0.0
957,9570,-3.6088690000000003,0.9950535,-2.7011695,0.0,0.0,0.0
958,9580,-3.4612085,0.8474999999999999,-2.7803744999999997,0.0,0.0,0.0
959,9590,-3.374817,0.785627,-2.781957,0.0,0.0,0.0
960,9600,-3.220994,0.740061,-2.710703,0.0,0.0,0.0
961,9610,-2.9511775,0.6566745,-1.9587689999999998,0.0,0.0,0.0
962,9620,-2.706315,0.601116,-1.56922,0.0,0.0,0.0
963,9630,-2.6418425,0.596483,-1.4857339999999999,0.0,0.0,0.0
964,9640,-2.470749,0.5213,-1.204587,0.0,0.0,0.0
965,9650,-2.4398625000000003,0.49204899999999996,-1.1708945000000002,0.0,0.0,0.0
966,9660,-2.408976,0.462798,-1.137202,0.0,0.0,0.0
967,9670,-2.336804,0.407844,-1.076453,0.0,0.0,0.0
968,9680,-2.194495,0.374924,-1.014174,0.0,0.0,0.0
969,9690,-1.8683025,0.262133,-0.832263,0.0,0.0,0.0
970,9700,-1.703165,0.18818,-0.735275,0.0,0.0,0.0
971,9710,-1.5182950000000002,0.10657449999999999,-0.7166665,0.0,0.0,0.0
972,9720,-1.446177,0.070336,-0.703471,0.0,0.0,0.0
973,9730,-1.475329,-0.11702599999999999,-0.6576455,0.0,0.0,0.0
974,9740,-1.6263,-0.29133,-0.644235,0.0,0.0,0.0
975,9750,-1.6263,-0.29133,-0.644235,0.0,0.0,0.0
976,9760,-1.6263,-0.29133,-0.644235,0.0,0.0,0.0
977,9770,-1.6263,-0.29133,-0.644235,0.0,0.0,0.0
978,9780,-1.7695720000000001,-0.5414829999999999,-0.4891435,0.0,0.0,0.0
979,9790,-1.900107,-0.890933,-0.259526,0.0,0.0,0.0
980,9800,-1.9103515,-0.924419,-0.252699,0.0,0.0,0.0
981,9810,-1.956988,-0.995214,-0.251789,0.0,0.0,0.0
982,9820,-1.9918959999999999,-1.0150915,-0.28409799999999996,0.0,0.0,0.0
983,9830,-2.026804,-1.034969,-0.316407,0.0,0.0,0.0
984,9840,-2.063915,-1.0687,-0.407951,0.0,0.0,0.0
985,9850,-2.063915,-1.0687,-0.407951,0.0,0.0,0.0
986,9860,-2.063915,-1.0687,-0.407951,0.0,0.0,0.0
987,9870,-2.063915,-1.0687,-0.407951,0.0,0.0,0.0
988,9880,-2.063915,-1.0687,-0.407951,0.0,0.0,0.0
989,9890,-2.063915,-1.0687,-0.407951,0.0,0.0,0.0
990,9900,-2.063915,-1.0687,-0.407951,0.0,0.0,0.0
991,9910,-2.063915,-1.0687,-0.407951,0.0,0.0,0.0
992,9920,-2.063915,-1.0687,-0.407951,0.0,0.0,0.0
993,9930,-2.063915,-1.0687,-0.407951,0.0,0.0,0.0
994,9940,-2.063915,-1.0687,-0.407951,0.0,0.0,0.0
995,9950,-1.629465,-1.182875,-1.463104,0.0,0.0,0.0
996,9960,-1.629465,-1.182875,-1.463104,0.0,0.0,0.0
997,9970,-1.2067275,-1.0655964999999998,-1.3298165000000002,0.0,0.0,0.0
998,9980,-0.894801,-0.9934784999999999,-1.2020415,0.0,0.0,0.0
999,9990,-0.6535165000000001,-0.9695720000000001,-1.0229895,0.0,0.0,0.0
