id,timestamp,acc_x,acc_y,acc_z,gyro_x,gyro_y,gyro_z
0,0,0.094541,0.13766050000000002,0.8963305,0.0,0.0,0.0
1,10,0.106009,0.131086,0.877676,0.0,0.0,0.0
2,20,0.106009,0.131086,0.877676,0.0,0.0,0.0
3,30,0.004694,0.043731,0.879618,0.0,0.0,0.0
4,40,-0.000107,-0.054847,0.886239,0.0,0.0,0.0
5,50,0.020841,-0.073142,0.8840445,0.0,0.0,0.0
6,60,0.11182,-0.104587,0.846177,0.0,0.0,0.0
7,70,0.1203825,-0.09214800000000001,0.7864905,0.0,0.0,0.0
8,80,0.128945,-0.079709,0.726804,0.0,0.0,0.0
9,90,0.09439600000000001,-0.024312,0.569113,0.0,0.0,0.0
10,100,0.014120500000000001,0.010046,0.475023,0.0,0.0,0.0
11,110,-0.23878449999999998,0.0346635,0.388578,0.0,0.0,0.0
12,120,-0.397661,0.068089,0.306529,0.0,0.0,0.0
13,130,-0.397661,0.068089,0.306529,0.0,0.0,0.0
14,140,-0.287049,0.138639,0.212844,0.0,0.0,0.0
15,150,-0.287049,0.138639,0.212844,0.0,0.0,0.0
16,160,-0.263402,0.04959450000000001,0.158769,0.0,0.0,0.0
17,170,-0.239755,-0.03945,0.104694,0.0,0.0,0.0
18,180,-0.076254,-0.187355,0.03711,0.0,0.0,0.0
19,190,-0.164931,-0.1440365,-0.069266,0.0,0.0,0.0
20,200,-0.434251,-0.079006,-0.227829,0.0,0.0,0.0
21,210,-0.434251,-0.079006,-0.227829,0.0,0.0,0.0
22,220,-0.578234,-0.137057,-0.2624845,0.0,0.0,0.0
23,230,-0.61682,-0.199083,-0.260749,0.0,0.0,0.0
24,240,-0.48818,-0.322523,0.289709,0.0,0.0,0.0
25,250,-0.425489,-0.357691,0.320291,0.0,0.0,0.0
26,260,-0.425489,-0.357691,0.320291,0.0,0.0,0.0
27,270,-0.39143700000000003,-0.29740049999999996,0.3417435,0.0,0.0,0.0
28,280,-0.357385,-0.23711,0.363196,0.0,0.0,0.0
29,290,-0.829312,-0.13766050000000002,0.3273165,0.0,0.0,0.0
30,300,-1.0896025,-0.1285935,0.3696715,0.0,0.0,0.0
31,310,-1.209679,-0.124572,0.409786,0.0,0.0,0.0
32,320,-1.420489,-0.129465,0.64659,0.0,0.0,0.0
33,330,-1.420489,-0.129465,0.64659,0.0,0.0,0.0
34,340,-1.420489,-0.129465,0.64659,0.0,0.0,0.0
35,350,-1.420489,-0.129465,0.64659,0.0,0.0,0.0
36,360,-1.420489,-0.129465,0.64659,0.0,0.0,0.0
37,370,-1.420489,-0.129465,0.64659,0.0,0.0,0.0
38,380,-1.420489,-0.129465,0.64659,0.0,0.0,0.0
39,390,-1.420489,-0.129465,0.64659,0.0,0.0,0.0
40,400,-1.420489,-0.129465,0.64659,0.0,0.0,0.0
41,410,-1.420489,-0.129465,0.64659,0.0,0.0,0.0
42,420,-1.420489,-0.129465,0.64659,0.0,0.0,0.0
43,430,-2.858608,-0.94445,2.489297,0.0,0.0,0.0
44,440,-2.9380195000000002,-1.0880735000000001,2.7118729999999998,0.0,0.0,0.0
45,450,-3.017431,-1.231697,2.934449,0.0,0.0,0.0
46,460,-3.017431,-1.231697,2.934449,0.0,0.0,0.0
47,470,-2.7139680000000004,-1.177263,3.0387839999999997,0.0,0.0,0.0
48,480,-2.410505,-1.122829,3.143119,0.0,0.0,0.0
49,490,-2.5394495,-1.1219649999999999,3.073188,0.0,0.0,0.0
50,500,-2.636697,-1.161667,2.951988,0.0,0.0,0.0
51,510,-2.4851145,-1.170436,2.8732949999999997,0.0,0.0,0.0
52,520,-2.333532,-1.179205,2.794602,0.0,0.0,0.0
53,530,-1.9184554999999999,-1.081858,2.5324695,0.0,0.0,0.0
54,540,-1.8086164999999998,-0.9877674999999999,2.4003055,0.0,0.0,0.0
55,550,-1.725887,-0.787049,2.128242,0.0,0.0,0.0
56,560,-1.725887,-0.787049,2.128242,0.0,0.0,0.0
57,570,-1.5,-0.6665595,1.9995414999999999,0.0,0.0,0.0
58,580,-1.418349,-0.633226,1.966468,0.0,0.0,0.0
59,590,-1.0438305,-0.5719645,1.9160555,0.0,0.0,0.0
60,600,-0.740367,-0.534862,1.785627,0.0,0.0,0.0
61,610,-0.740367,-0.534862,1.785627,0.0,0.0,0.0
62,620,-0.698624,-0.527576,1.7088685,0.0,0.0,0.0
63,630,-0.656881,-0.52029,1.63211,0.0,0.0,0.0
64,640,-0.5680425,-0.468502,1.6198774999999999,0.0,0.0,0.0
65,650,-0.54659,-0.415291,1.617232,0.0,0.0,0.0
66,660,-0.612951,-0.400413,1.539557,0.0,0.0,0.0
67,670,-0.6718655,-0.43837950000000003,1.4176915,0.0,0.0,0.0
68,680,-0.73078,-0.476346,1.295826,0.0,0.0,0.0
69,690,-0.8309865000000001,-0.5688074999999999,1.0271635,0.0,0.0,0.0
70,700,-0.8763989999999999,-0.652546,0.884656,0.0,0.0,0.0
71,710,-0.881651,-0.68185,0.86208,0.0,0.0,0.0
72,720,-0.88185,-0.716009,0.857187,0.0,0.0,0.0
73,730,-0.768196,-0.756468,0.980229,0.0,0.0,0.0
74,740,-0.521101,-0.805092,1.046789,0.0,0.0,0.0
75,750,-0.5196715000000001,-0.8049390000000001,1.0443425,0.0,0.0,0.0
76,760,-0.6395489999999999,-0.7656425,0.885474,0.0,0.0,0.0
77,770,-0.8153900000000001,-0.7253825,0.6831805,0.0,0.0,0.0
78,780,-0.918601,-0.726353,0.5978595,0.0,0.0,0.0
79,790,-1.042706,-0.738425,0.483792,0.0,0.0,0.0
80,800,-1.042706,-0.738425,0.483792,0.0,0.0,0.0
81,810,-1.067584,-0.744343,0.480627,0.0,0.0,0.0
82,820,-1.17156,-0.68104,0.525275,0.0,0.0,0.0
83,830,-1.217072,-0.686445,0.4851145,0.0,0.0,0.0
84,840,-1.262584,-0.69185,0.444954,0.0,0.0,0.0
85,850,-1.262584,-0.69185,0.444954,0.0,0.0,0.0
86,860,-1.262584,-0.69185,0.444954,0.0,0.0,0.0
87,870,-1.262584,-0.69185,0.444954,0.0,0.0,0.0
88,880,-1.262584,-0.69185,0.444954,0.0,0.0,0.0
89,890,-1.262584,-0.69185,0.444954,0.0,0.0,0.0
90,900,-1.262584,-0.69185,0.444954,0.0,0.0,0.0
91,910,-1.262584,-0.69185,0.444954,0.0,0.0,0.0
92,920,-1.262584,-0.69185,0.444954,0.0,0.0,0.0
93,930,-1.262584,-0.69185,0.444954,0.0,0.0,0.0
94,940,-1.262584,-0.69185,0.444954,0.0,0.0,0.0
95,950,0.513868,-0.454541,-0.609985,0.0,0.0,0.0
96,960,0.513868,-0.454541,-0.609985,0.0,0.0,0.0
97,970,0.8667665,-0.12039000000000001,-0.303624,0.0,0.0,0.0
98,980,1.144235,0.109786,0.172584,0.0,0.0,0.0
99,990,1.2059095,0.016406499999999997,0.2897555,0.0,0.0,0.0
100,1000,1.490619,-0.020390000000000002,0.363104,0.0,0.0,0.0
101,1010,2.101269,0.0320105,0.4832875,0.0,0.0,0.0
102,1020,2.475428,0.101024,0.553318,0.0,0.0,0.0
103,1030,2.820994,0.167691,0.626498,0.0,0.0,0.0
104,1040,3.074113,0.244847,0.647508,0.0,0.0,0.0
105,1050,3.071866,0.244541,0.604587,0.0,0.0,0.0
106,1060,3.071866,0.244541,0.604587,0.0,0.0,0.0
107,1070,3.0345565,0.153364,0.216514,0.0,0.0,0.0
108,1080,3.0019415,0.08562700000000001,-0.0049464999999999995,0.0,0.0,0.0
109,1090,2.881759,-0.029862,-0.22344,0.0,0.0,0.0
110,1100,2.822837,-0.0997935,-0.268853,0.0,0.0,0.0
111,1110,2.763915,-0.169725,-0.314266,0.0,0.0,0.0
112,1120,2.6576985,-0.5439295,-0.1985245,0.0,0.0,0.0
113,1130,2.638639,-0.627416,-0.112844,0.0,0.0,0.0
114,1140,2.4717659999999997,-0.861315,0.22421249999999998,0.0,0.0,0.0
115,1150,2.1858335,-1.0088685,0.4152905,0.0,0.0,0.0
116,1160,1.995826,-1.076254,0.488884,0.0,0.0,0.0
117,1170,1.2460245,-1.2523395,0.5261925000000001,0.0,0.0,0.0
118,1180,0.8967890000000001,-1.3347090000000001,0.496177,0.0,0.0,0.0
119,1190,0.729862,-1.373501,0.467385,0.0,0.0,0.0
120,1200,-0.191896,-1.418142,0.0730885,0.0,0.0,0.0
121,1210,-0.367584,-1.422018,-0.0213,0.0,0.0,0.0
122,1220,-0.791231,-1.3415365000000001,-0.24866950000000002,0.0,0.0,0.0
123,1230,-0.93659,-1.302951,-0.320076,0.0,0.0,0.0
124,1240,-1.092049,-1.2419495,-0.3635625,0.0,0.0,0.0
125,1250,-1.1510704999999999,-1.2105044999999999,-0.408104,0.0,0.0,0.0
126,1260,-1.13445,-1.211728,-0.414572,0.0,0.0,0.0
127,1270,-1.13445,-1.211728,-0.414572,0.0,0.0,0.0
128,1280,-1.027569,-1.277829,-0.38486200000000004,0.0,0.0,0.0
129,1290,-1.004174,-1.302752,-0.297355,0.0,0.0,0.0
130,1300,-1.0014755,-1.30724,-0.24317299999999997,0.0,0.0,0.0
131,1310,-0.998777,-1.311728,-0.188991,0.0,0.0,0.0
132,1320,-0.942401,-1.341789,-0.051575,0.0,0.0,0.0
133,1330,-1.0298705,-1.3633485,-0.009786,0.0,0.0,0.0
134,1340,-1.2374619999999998,-1.3523930000000002,-0.0063685,0.0,0.0,0.0
135,1350,-1.63578,-1.232217,0.026101,0.0,0.0,0.0
136,1360,-1.63578,-1.232217,0.026101,0.0,0.0,0.0
137,1370,-1.63578,-1.232217,0.026101,0.0,0.0,0.0
138,1380,-1.63578,-1.232217,0.026101,0.0,0.0,0.0
139,1390,-1.63578,-1.232217,0.026101,0.0,0.0,0.0
140,1400,-1.63578,-1.232217,0.026101,0.0,0.0,0.0
141,1410,-1.63578,-1.232217,0.026101,0.0,0.0,0.0
142,1420,-1.63578,-1.232217,0.026101,0.0,0.0,0.0
143,1430,-1.63578,-1.232217,0.026101,0.0,0.0,0.0
144,1440,-1.63578,-1.232217,0.026101,0.0,0.0,0.0
145,1450,-1.63578,-1.232217,0.026101,0.0,0.0,0.0
146,1460,-1.63578,-1.232217,0.026101,0.0,0.0,0.0
147,1470,-1.63578,-1.232217,0.026101,0.0,0.0,0.0
148,1480,-2.149641,-0.773242,0.149893,0.0,0.0,0.0
149,1490,-2.24776,-0.5798165000000001,0.5681959999999999,0.0,0.0,0.0
150,1500,-2.513654,-0.311116,0.403257,0.0,0.0,0.0
151,1510,-2.513654,-0.311116,0.403257,0.0,0.0,0.0
152,1520,-3.0459705,-0.1493425,0.017782999999999993,0.0,0.0,0.0
153,1530,-3.734052,0.081239,-0.397661,0.0,0.0,0.0
154,1540,-3.674924,0.119572,-0.357385,0.0,0.0,0.0
155,1550,-3.427523,0.170336,-0.091636,0.0,0.0,0.0
156,1560,-3.3950535,0.1666665,-0.020283,0.0,0.0,0.0
157,1570,-3.458211,0.125184,0.075948,0.0,0.0,0.0
158,1580,-3.458211,0.125184,0.075948,0.0,0.0,0.0
159,1590,-3.7636085,0.051268999999999995,-0.20881499999999997,0.0,0.0,0.0
160,1600,-4.00815,0.021713,-0.665642,0.0,0.0,0.0
161,1610,-4.00815,0.021713,-0.665642,0.0,0.0,0.0
162,1620,-4.027927999999999,0.052959,-0.6806805,0.0,0.0,0.0
163,1630,-4.046682,0.055657,-0.597554,0.0,0.0,0.0
164,1640,-4.00815,0.022737,-0.43792,0.0,0.0,0.0
165,1650,-4.348219,-0.009686499999999999,0.008975499999999997,0.0,0.0,0.0
166,1660,-4.423242,0.019771,0.127936,0.0,0.0,0.0
167,1670,-4.726804,0.38185800000000003,0.36870800000000004,0.0,0.0,0.0
168,1680,-4.8970415,0.615092,0.433739,0.0,0.0,0.0
169,1690,-5.122523,0.771453,0.297049,0.0,0.0,0.0
170,1700,-5.122523,0.771453,0.297049,0.0,0.0,0.0
171,1710,-5.066162,0.609174,0.007844,0.0,0.0,0.0
172,1720,-4.25555,0.025581,-0.607844,0.0,0.0,0.0
173,1730,-4.25555,0.025581,-0.607844,0.0,0.0,0.0
174,1740,-3.6899615,-0.30483950000000004,-0.8263995,0.0,0.0,0.0
175,1750,-3.2847095,-0.4897555,-0.8337384999999999,0.0,0.0,0.0
176,1760,-3.098777,-0.563716,-0.798975,0.0,0.0,0.0
177,1770,-2.751682,-0.568807,-0.503165,0.0,0.0,0.0
178,1780,-2.715902,-0.534763,-0.392202,0.0,0.0,0.0
179,1790,-2.7134555000000002,-0.413563,-0.063502,0.0,0.0,0.0
180,1800,-2.746789,-0.326407,0.154235,0.0,0.0,0.0
181,1810,-2.80948,-0.262798,0.28604,0.0,0.0,0.0
182,1820,-2.666361,-0.24103199999999997,0.42859349999999996,0.0,0.0,0.0
183,1830,-2.523242,-0.219266,0.571147,0.0,0.0,0.0
184,1840,-2.2830815,-0.2335855,0.6781345000000001,0.0,0.0,0.0
185,1850,-1.942615,-0.248012,0.8015289999999999,0.0,0.0,0.0
186,1860,-1.842309,-0.249847,0.860138,0.0,0.0,0.0
187,1870,-1.7788534999999999,-0.331705,0.8930659999999999,0.0,0.0,0.0
188,1880,-1.715398,-0.42895300000000003,0.9065749999999999,0.0,0.0,0.0
189,1890,-1.715398,-0.444343,0.887156,0.0,0.0,0.0
190,1900,-1.715398,-0.444343,0.887156,0.0,0.0,0.0
191,1910,-1.715398,-0.444343,0.887156,0.0,0.0,0.0
192,1920,-1.715398,-0.444343,0.887156,0.0,0.0,0.0
193,1930,-1.715398,-0.444343,0.887156,0.0,0.0,0.0
194,1940,-1.715398,-0.444343,0.887156,0.0,0.0,0.0
195,1950,-1.715398,-0.444343,0.887156,0.0,0.0,0.0
196,1960,-1.715398,-0.444343,0.887156,0.0,0.0,0.0
197,1970,-1.715398,-0.444343,0.887156,0.0,0.0,0.0
198,1980,-1.715398,-0.444343,0.887156,0.0,0.0,0.0
199,1990,-1.715398,-0.444343,0.887156,0.0,0.0,0.0
200,2000,-1.4110624999999999,-1.1961775000000001,0.24872350000000001,0.0,0.0,0.0
201,2010,-1.517232,-1.109893,0.168196,0.0,0.0,0.0
202,2020,-1.5568275,-1.1030579999999999,0.009579500000000001,0.0,0.0,0.0
203,2030,-1.565031,-1.102553,-0.042813,0.0,0.0,0.0
204,2040,-1.562385,-1.105,-0.046682,0.0,0.0,0.0
205,2050,-1.447508,-1.1330815,-0.08685,0.0,0.0,0.0
206,2060,-1.429771,-1.13945,-0.08818,0.0,0.0,0.0
207,2070,-1.3286465,-1.14607,-0.0796635,0.0,0.0,0.0
208,2080,-1.309281,-1.14607,-0.073287,0.0,0.0,0.0
209,2090,-1.210398,-1.1083105,-0.1026455,0.0,0.0,0.0
210,2100,-1.0995875000000002,-1.000818,-0.1700305,0.0,0.0,0.0
211,2110,-1.058303,-0.92763,-0.205917,0.0,0.0,0.0
212,2120,-1.0373545,-0.7151375,-0.2640675,0.0,0.0,0.0
213,2130,-1.0419955,-0.62737,-0.2973475,0.0,0.0,0.0
214,2140,-1.045872,-0.585122,-0.313456,0.0,0.0,0.0
215,2150,-0.833433,-0.352905,-0.3550995,0.0,0.0,0.0
216,2160,-0.5375075,-0.138991,-0.4166205,0.0,0.0,0.0
217,2170,-0.411315,-0.283991,-0.476758,0.0,0.0,0.0
218,2180,-0.3818045,-0.377722,-0.482622,0.0,0.0,0.0
219,2190,-0.1714605,-0.475482,-0.45958699999999997,0.0,0.0,0.0
220,2200,0.009373,-0.479511,-0.430688,0.0,0.0,0.0
221,2210,0.318349,-0.334557,-0.303257,0.0,0.0,0.0
222,2220,0.649289,-0.188685,-0.05326449999999999,0.0,0.0,0.0
223,2230,0.729052,-0.14292,0.049541,0.0,0.0,0.0
224,2240,0.72396,-0.128746,0.205505,0.0,0.0,0.0
225,2250,0.800252,-0.2178365,0.3219725,0.0,0.0,0.0
226,2260,0.878486,-0.270841,0.356376,0.0,0.0,0.0
227,2270,1.881544,-0.351376,0.610398,0.0,0.0,0.0
228,2280,1.9496405,-0.348165,0.6263000000000001,0.0,0.0,0.0
229,2290,2.017737,-0.344954,0.642202,0.0,0.0,0.0
230,2300,2.319465,-0.439251,0.761055,0.0,0.0,0.0
231,2310,2.444648,-0.551988,0.763914,0.0,0.0,0.0
232,2320,2.599083,-0.585122,0.680734,0.0,0.0,0.0
233,2330,2.8811394999999997,-0.5432265000000001,0.46263750000000003,0.0,0.0,0.0
234,2340,2.934449,-0.554633,0.281651,0.0,0.0,0.0
235,2350,2.928486,-0.556575,0.188685,0.0,0.0,0.0
236,2360,2.922523,-0.558517,0.095719,0.0,0.0,0.0
237,2370,2.915543,-0.5508715,0.054075,0.0,0.0,0.0
238,2380,2.885627,-0.5470945,0.093983,0.0,0.0,0.0
239,2390,2.8191664999999997,-0.555856,0.3303745,0.0,0.0,0.0
240,2400,2.716315,-0.564419,0.629465,0.0,0.0,0.0
241,2410,2.716315,-0.564419,0.629465,0.0,0.0,0.0
242,2420,2.716315,-0.564419,0.629465,0.0,0.0,0.0
243,2430,2.716315,-0.564419,0.629465,0.0,0.0,0.0
244,2440,2.716315,-0.564419,0.629465,0.0,0.0,0.0
245,2450,2.716315,-0.564419,0.629465,0.0,0.0,0.0
246,2460,2.716315,-0.564419,0.629465,0.0,0.0,0.0
247,2470,2.716315,-0.564419,0.629465,0.0,0.0,0.0
248,2480,2.716315,-0.564419,0.629465,0.0,0.0,0.0
249,2490,2.716315,-0.564419,0.629465,0.0,0.0,0.0
250,2500,2.716315,-0.564419,0.629465,0.0,0.0,0.0
251,2510,2.716315,-0.564419,0.629465,0.0,0.0,0.0
252,2520,1.4796179999999999,-0.714985,0.5331805000000001,0.0,0.0,0.0
253,2530,0.003471,-0.906315,0.472783,0.0,0.0,0.0
254,2540,0.003471,-0.906315,0.472783,0.0,0.0,0.0
255,2550,-0.484052,-1.039503,0.4577525,0.0,0.0,0.0
256,2560,-0.744755,-1.127018,0.439557,0.0,0.0,0.0
257,2570,-1.183991,-1.25922,0.337309,0.0,0.0,0.0
258,2580,-1.257951,-1.303922,0.313662,0.0,0.0,0.0
259,2590,-1.38344,-1.3986239999999999,0.17931200000000003,0.0,0.0,0.0
260,2600,-1.494694,-1.438119,-0.118043,0.0,0.0,0.0
261,2610,-1.494694,-1.438119,-0.118043,0.0,0.0,0.0
262,2620,-1.5507110000000002,-1.356017,-0.247859,0.0,0.0,0.0
263,2630,-1.567171,-1.33711,-0.286651,0.0,0.0,0.0
264,2640,-1.587966,-1.263196,-0.294908,0.0,0.0,0.0
265,2650,-1.5518345,-1.2551455,-0.312844,0.0,0.0,0.0
266,2660,-1.459327,-1.258303,-0.39867,0.0,0.0,0.0
267,2670,-1.4489830000000001,-1.264014,-0.47578750000000003,0.0,0.0,0.0
268,2680,-1.4570335,-1.2644725,-0.5884324999999999,0.0,0.0,0.0
269,2690,-1.50867,-1.227018,-0.63711,0.0,0.0,0.0
270,2700,-1.50867,-1.227018,-0.63711,0.0,0.0,0.0
271,2710,-1.524266,-1.184816,-0.565336,0.0,0.0,0.0
272,2720,-1.518402,-1.0608564999999999,-0.3347095,0.0,0.0,0.0
273,2730,-1.515703,-1.026407,-0.280535,0.0,0.0,0.0
274,2740,-1.5436315,-0.9739525,-0.1672785,0.0,0.0,0.0
275,2750,-1.5801224999999999,-0.9867965000000001,-0.12044350000000001,0.0,0.0,0.0
276,2760,-1.6381195000000002,-1.0331804999999998,-0.10871549999999999,0.0,0.0,0.0
277,2770,-1.747095,-1.06422,-0.173899,0.0,0.0,0.0
278,2780,-1.7090215,-1.0522935,-0.196942,0.0,0.0,0.0
279,2790,-1.586743,-0.916621,-0.225887,0.0,0.0,0.0
280,2800,-1.586743,-0.916621,-0.225887,0.0,0.0,0.0
281,2810,-1.558716,-0.835367,-0.225887,0.0,0.0,0.0
282,2820,-1.665138,-0.801116,-0.274725,0.0,0.0,0.0
283,2830,-1.981453,-0.727722,-0.635673,0.0,0.0,0.0
284,2840,-2.032668,-0.6700765,-0.9153899999999999,0.0,0.0,0.0
285,2850,-1.922829,-0.408456,-1.242615,0.0,0.0,0.0
286,2860,-1.922829,-0.408456,-1.242615,0.0,0.0,0.0
287,2870,-1.918708,-0.3441365,-1.367997,0.0,0.0,0.0
288,2880,-2.031911,-0.404587,-1.48237,0.0,0.0,0.0
289,2890,-2.147607,-0.38455649999999997,-1.4883335,0.0,0.0,0.0
290,2900,-2.4481655,-0.3595335,-1.512745,0.0,0.0,0.0
291,2910,-2.633028,-0.354541,-1.531193,0.0,0.0,0.0
292,2920,-2.633028,-0.354541,-1.531193,0.0,0.0,0.0
293,2930,-3.480229,0.03292,-1.635887,0.0,0.0,0.0
294,2940,-3.510704,0.06789,-1.494495,0.0,0.0,0.0
295,2950,-3.510704,0.06789,-1.494495,0.0,0.0,0.0
296,2960,-3.510704,0.06789,-1.494495,0.0,0.0,0.0
297,2970,-3.510704,0.06789,-1.494495,0.0,0.0,0.0
298,2980,-3.510704,0.06789,-1.494495,0.0,0.0,0.0
299,2990,-3.510704,0.06789,-1.494495,0.0,0.0,0.0
300,3000,-3.510704,0.06789,-1.494495,0.0,0.0,0.0
301,3010,-3.510704,0.06789,-1.494495,0.0,0.0,0.0
302,3020,-3.510704,0.06789,-1.494495,0.0,0.0,0.0
303,3030,-3.510704,0.06789,-1.494495,0.0,0.0,0.0
304,3040,-3.1337390000000003,-0.2270105,-1.4835395,0.0,0.0,0.0
305,3050,-3.863104,0.506927,-2.179924,0.0,0.0,0.0
306,3060,-3.86555,0.523547,-2.343838,0.0,0.0,0.0
307,3070,-3.8167735,0.422118,-2.4901145,0.0,0.0,0.0
308,3080,-3.8019875,0.334962,-2.5459709999999998,0.0,0.0,0.0
309,3090,-3.706728,0.185214,-2.393685,0.0,0.0,0.0
310,3100,-3.688532,0.14276,-2.319373,0.0,0.0,0.0
311,3110,-3.6637614999999997,0.0552985,-2.153165,0.0,0.0,0.0
312,3120,-3.657187,0.010291,-2.061269,0.0,0.0,0.0
313,3130,-3.629205,-0.18027500000000002,-1.672783,0.0,0.0,0.0
314,3140,-3.618601,-0.235168,-1.4992815,0.0,0.0,0.0
315,3150,-3.448731,-0.393073,-0.990826,0.0,0.0,0.0
316,3160,-3.448731,-0.393073,-0.990826,0.0,0.0,0.0
317,3170,-3.198318,-0.396995,-0.742607,0.0,0.0,0.0
318,3180,-2.8212535,-0.38272150000000005,-0.37354699999999996,0.0,0.0,0.0
319,3190,-2.694602,-0.364526,-0.252706,0.0,0.0,0.0
320,3200,-2.499801,-0.295917,-0.061667,0.0,0.0,0.0
321,3210,-2.489495,-0.263716,-0.016713,0.0,0.0,0.0
322,3220,-2.474618,-0.251988,-0.006223,0.0,0.0,0.0
323,3230,-2.429465,-0.309587,-0.050657,0.0,0.0,0.0
324,3240,-2.363807,-0.372783,-0.125275,0.0,0.0,0.0
325,3250,-2.3266514999999997,-0.5881725,-0.165749,0.0,0.0,0.0
326,3260,-2.307232,-0.670535,-0.170749,0.0,0.0,0.0
327,3270,-2.2329280000000002,-1.044748,-0.1472475,0.0,0.0,0.0
328,3280,-2.129312,-1.2856269999999999,-0.116613,0.0,0.0,0.0
329,3290,-1.9305355,-1.525795,-0.0757415,0.0,0.0,0.0
330,3300,-1.797661,-1.63711,-0.044755,0.0,0.0,0.0
331,3310,-1.640168,-1.674205,-0.01182,0.0,0.0,0.0
332,3320,-1.5318045,-1.627829,0.032064,0.0,0.0,0.0
333,3330,-1.423441,-1.581453,0.075948,0.0,0.0,0.0
334,3340,-1.4395495,-1.5051985,0.043829999999999994,0.0,0.0,0.0
335,3350,-1.4791059999999998,-1.4076909999999998,-0.06753100000000001,0.0,0.0,0.0
336,3360,-1.502554,-1.346682,-0.147294,0.0,0.0,0.0
337,3370,-1.5511240000000002,-1.310245,-0.31681950000000003,0.0,0.0,0.0
338,3380,-1.5676835,-1.328945,-0.4365445,0.0,0.0,0.0
339,3390,-1.575734,-1.347905,-0.495107,0.0,0.0,0.0
340,3400,-1.540871,-1.424771,-0.591024,0.0,0.0,0.0
341,3410,-1.476147,-1.462079,-0.59419,0.0,0.0,0.0
342,3420,-1.3722249999999998,-1.4620795000000002,-0.5573395000000001,0.0,0.0,0.0
343,3430,-1.335581,-1.461575,-0.528028,0.0,0.0,0.0
344,3440,-1.1408260000000001,-1.431193,-0.480841,0.0,0.0,0.0
345,3450,-1.1125384999999999,-1.4259404999999998,-0.5088685,0.0,0.0,0.0
346,3460,-1.103257,-1.423746,-0.537508,0.0,0.0,0.0
347,3470,-1.103257,-1.423746,-0.537508,0.0,0.0,0.0
348,3480,-1.103257,-1.423746,-0.537508,0.0,0.0,0.0
349,3490,-1.103257,-1.423746,-0.537508,0.0,0.0,0.0
350,3500,-1.103257,-1.423746,-0.537508,0.0,0.0,0.0
351,3510,-1.103257,-1.423746,-0.537508,0.0,0.0,0.0
352,3520,-1.103257,-1.423746,-0.537508,0.0,0.0,0.0
353,3530,-1.103257,-1.423746,-0.537508,0.0,0.0,0.0
354,3540,-1.103257,-1.423746,-0.537508,0.0,0.0,0.0
355,3550,-1.103257,-1.423746,-0.537508,0.0,0.0,0.0
356,3560,-1.103257,-1.423746,-0.537508,0.0,0.0,0.0
357,3570,-0.5928135,-0.9064679999999999,-0.16441899999999998,0.0,0.0,0.0
358,3580,-0.038685,-0.38480899999999996,0.2144265,0.0,0.0,0.0
359,3590,0.1997475,-0.36661299999999997,0.24444149999999998,0.0,0.0,0.0
360,3600,0.720291,-0.326193,0.300719,0.0,0.0,0.0
361,3610,0.8883335,-0.3443885,0.31977849999999997,0.0,0.0,0.0
362,3620,1.2240595,-0.42324150000000005,0.359075,0.0,0.0,0.0
363,3630,1.391743,-0.483899,0.379312,0.0,0.0,0.0
364,3640,2.085474,-0.8726754999999999,0.7008719999999999,0.0,0.0,0.0
365,3650,2.580122,-0.985214,1.029251,0.0,0.0,0.0
366,3660,2.580122,-0.985214,1.029251,0.0,0.0,0.0
367,3670,3.1114224999999998,-0.9323165,1.4324615,0.0,0.0,0.0
368,3680,3.317638,-0.8269115,1.5878135,0.0,0.0,0.0
369,3690,3.194388,-0.703058,1.448119,0.0,0.0,0.0
370,3700,3.0494339999999998,-0.6646255,1.2053515,0.0,0.0,0.0
371,3710,2.882156,-0.624358,0.9274695,0.0,0.0,0.0
372,3720,2.578593,-0.574924,0.477171,0.0,0.0,0.0
373,3730,2.532821,-0.5724775,0.457752,0.0,0.0,0.0
374,3740,2.487049,-0.570031,0.438333,0.0,0.0,0.0
375,3750,2.394083,-0.608869,0.547508,0.0,0.0,0.0
376,3760,2.3701835,-0.6222705,1.081957,0.0,0.0,0.0
377,3770,2.3668734999999996,-0.6362844999999999,1.364633,0.0,0.0,0.0
378,3780,2.147401,-0.666972,1.851483,0.0,0.0,0.0
379,3790,2.062439,-0.6727825000000001,1.851483,0.0,0.0,0.0
380,3800,1.8756879999999998,-0.6833865,1.820749,0.0,0.0,0.0
381,3810,1.773899,-0.68818,1.790015,0.0,0.0,0.0
382,3820,1.48909,-0.7058635,1.5267585,0.0,0.0,0.0
383,3830,1.05708,-0.757187,1.092966,0.0,0.0,0.0
384,3840,1.05708,-0.757187,1.092966,0.0,0.0,0.0
385,3850,0.820948,-0.8122860000000001,0.8787995,0.0,0.0,0.0
386,3860,0.666101,-0.833899,0.779717,0.0,0.0,0.0
387,3870,0.261269,-0.885122,0.64607,0.0,0.0,0.0
388,3880,0.261269,-0.885122,0.64607,0.0,0.0,0.0
389,3890,0.075948,-0.960749,0.527018,0.0,0.0,0.0
390,3900,0.075948,-0.960749,0.527018,0.0,0.0,0.0
391,3910,-0.3701835,-1.1306345000000002,0.22746899999999998,0.0,0.0,0.0
392,3920,-0.959939,-1.45474,-0.150963,0.0,0.0,0.0
393,3930,-0.959939,-1.45474,-0.150963,0.0,0.0,0.0
394,3940,-1.110092,-1.584404,-0.195826,0.0,0.0,0.0
395,3950,-1.350963,-1.822523,-0.124572,0.0,0.0,0.0
396,3960,-1.3707414999999998,-1.8247705,-0.0901685,0.0,0.0,0.0
397,3970,-1.4552985,-1.795772,-0.0210555,0.0,0.0,0.0
398,3980,-1.520077,-1.764526,0.013654,0.0,0.0,0.0
399,3990,-1.520077,-1.764526,0.013654,0.0,0.0,0.0
400,4000,-1.520077,-1.764526,0.013654,0.0,0.0,0.0
401,4010,-1.520077,-1.764526,0.013654,0.0,0.0,0.0
402,4020,-1.520077,-1.764526,0.013654,0.0,0.0,0.0
403,4030,-1.520077,-1.764526,0.013654,0.0,0.0,0.0
404,4040,-1.520077,-1.764526,0.013654,0.0,0.0,0.0
405,4050,-1.520077,-1.764526,0.013654,0.0,0.0,0.0
406,4060,-1.520077,-1.764526,0.013654,0.0,0.0,0.0
407,4070,-1.520077,-1.764526,0.013654,0.0,0.0,0.0
408,4080,-1.520077,-1.764526,0.013654,0.0,0.0,0.0
409,4090,-1.615291,-1.4899084999999999,-0.34103249999999996,0.0,0.0,0.0
410,4100,-1.275535,-0.948823,-0.647401,0.0,0.0,0.0
411,4110,-1.275535,-0.948823,-0.647401,0.0,0.0,0.0
412,4120,-1.776399,-0.820688,-0.7865979999999999,0.0,0.0,0.0
413,4130,-2.051682,-0.77818,-0.83578,0.0,0.0,0.0
414,4140,-2.264526,-0.790214,-0.64078,0.0,0.0,0.0
415,4150,-2.057439,-0.7230885,-0.351942,0.0,0.0,0.0
416,4160,-1.6431195,-0.47987,0.0880735,0.0,0.0,0.0
417,4170,-1.054434,0.128135,0.55555,0.0,0.0,0.0
418,4180,-1.021506,0.268349,0.6759934999999999,0.0,0.0,0.0
419,4190,-0.988578,0.408563,0.796437,0.0,0.0,0.0
420,4200,-2.80948,-0.579816,0.251682,0.0,0.0,0.0
421,4210,-2.9676375000000004,-0.6811925,0.05693450000000001,0.0,0.0,0.0
422,4220,-3.1453135000000003,-0.8023469999999999,-0.2673775,0.0,0.0,0.0
423,4230,-3.164832,-0.822125,-0.396942,0.0,0.0,0.0
424,4240,-2.737003,-0.617125,-0.409679,0.0,0.0,0.0
425,4250,-2.6235014999999997,-0.514014,-0.22599399999999997,0.0,0.0,0.0
426,4260,-2.7161619999999997,-0.5116745,-0.1491285,0.0,0.0,0.0
427,4270,-3.04526,-0.395306,-0.133333,0.0,0.0,0.0
428,4280,-3.04526,-0.395306,-0.133333,0.0,0.0,0.0
429,4290,-3.27156,-0.235367,-0.363303,0.0,0.0,0.0
430,4300,-3.1814985,-0.23368499999999998,-0.41091,0.0,0.0,0.0
431,4310,-3.091437,-0.232003,-0.458517,0.0,0.0,0.0
432,4320,-2.6989295,-0.5885855,-0.46809599999999996,0.0,0.0,0.0
433,4330,-2.5163605000000002,-0.8774770000000001,-0.3734935,0.0,0.0,0.0
434,4340,-2.480229,-0.9313,-0.309067,0.0,0.0,0.0
435,4350,-2.6064220000000002,-0.810451,-0.129763,0.0,0.0,0.0
436,4360,-2.732615,-0.689602,0.049541,0.0,0.0,0.0
437,4370,-3.263509,-0.618349,0.012285999999999998,0.0,0.0,0.0
438,4380,-3.341491,-0.524159,-0.10774449999999999,0.0,0.0,0.0
439,4390,-3.079358,-0.28109300000000004,-0.208914,0.0,0.0,0.0
440,4400,-2.582569,0.116407,-0.240566,0.0,0.0,0.0
441,4410,-2.582569,0.116407,-0.240566,0.0,0.0,0.0
442,4420,-2.3327215,0.330734,-0.244549,0.0,0.0,0.0
443,4430,-2.264526,0.365642,-0.261468,0.0,0.0,0.0
444,4440,-2.219572,0.396636,-0.371361,0.0,0.0,0.0
445,4450,-2.3405199999999997,0.5064219999999999,-0.884197,0.0,0.0,0.0
446,4460,-2.401636,0.541086,-0.970229,0.0,0.0,0.0
447,4470,-2.568608,0.666254,-1.09185,0.0,0.0,0.0
448,4480,-2.848119,0.634862,-1.269725,0.0,0.0,0.0
449,4490,-2.8262535,0.55724,-1.314014,0.0,0.0,0.0
450,4500,-2.630887,0.312645,-1.477676,0.0,0.0,0.0
451,4510,-2.630887,0.312645,-1.477676,0.0,0.0,0.0
452,4520,-2.630887,0.312645,-1.477676,0.0,0.0,0.0
453,4530,-2.630887,0.312645,-1.477676,0.0,0.0,0.0
454,4540,-2.630887,0.312645,-1.477676,0.0,0.0,0.0
455,4550,-2.630887,0.312645,-1.477676,0.0,0.0,0.0
456,4560,-2.630887,0.312645,-1.477676,0.0,0.0,0.0
457,4570,-2.630887,0.312645,-1.477676,0.0,0.0,0.0
458,4580,-2.630887,0.312645,-1.477676,0.0,0.0,0.0
459,4590,-2.630887,0.312645,-1.477676,0.0,0.0,0.0
460,4600,-2.630887,0.312645,-1.477676,0.0,0.0,0.0
461,4610,-2.630887,0.312645,-1.477676,0.0,0.0,0.0
462,4620,-2.630887,0.312645,-1.477676,0.0,0.0,0.0
463,4630,-2.6832265,-1.0946479999999998,-0.36524449999999997,0.0,0.0,0.0
464,4640,-2.450046,-1.120382,-0.295214,0.0,0.0,0.0
465,4650,-2.2200759999999997,-1.1027065,-0.26325699999999996,0.0,0.0,0.0
466,4660,-2.171758,-1.084511,-0.24445,0.0,0.0,0.0
467,4670,-2.122217,-0.821407,-0.094083,0.0,0.0,0.0
468,4680,-2.105604,-0.7763990000000001,-0.0460705,0.0,0.0,0.0
469,4690,-2.088991,-0.731391,0.001942,0.0,0.0,0.0
470,4700,-1.9341515,-0.6165594999999999,0.1525535,0.0,0.0,0.0
471,4710,-1.779312,-0.501728,0.303165,0.0,0.0,0.0
472,4720,-1.5699235,-0.384297,0.41064999999999996,0.0,0.0,0.0
473,4730,-1.470535,-0.276651,0.451988,0.0,0.0,0.0
474,4740,-1.502645,-0.246529,0.4713075,0.0,0.0,0.0
475,4750,-1.558662,-0.1700305,0.541032,0.0,0.0,0.0
476,4760,-1.6149315,-0.125229,0.5986235,0.0,0.0,0.0
477,4770,-1.6826685000000001,-0.159885,0.6101909999999999,0.0,0.0,0.0
478,4780,-1.718043,-0.192966,0.614572,0.0,0.0,0.0
479,4790,-1.732003,-0.366774,0.507951,0.0,0.0,0.0
480,4800,-1.5794035000000002,-0.637309,0.3537765,0.0,0.0,0.0
481,4810,-1.527416,-0.69919,0.317538,0.0,0.0,0.0
482,4820,-1.439037,-0.796529,0.28237,0.0,0.0,0.0
483,4830,-1.31682,-0.857492,0.250963,0.0,0.0,0.0
484,4840,-1.312645,-0.861667,0.263104,0.0,0.0,0.0
485,4850,-1.357599,-0.842401,0.298058,0.0,0.0,0.0
486,4860,-1.3793115,-0.8207955,0.2947475,0.0,0.0,0.0
487,4870,-1.435428,-0.811422,0.1979585,0.0,0.0,0.0
488,4880,-1.471919,-0.8620795,0.044847,0.0,0.0,0.0
489,4890,-1.474006,-0.900505,-0.014786,0.0,0.0,0.0
490,4900,-1.482615,-1.018754,-0.22013749999999999,0.0,0.0,0.0
491,4910,-1.487355,-1.051376,-0.284205,0.0,0.0,0.0
492,4920,-1.508769,-1.0867505,-0.3904665,0.0,0.0,0.0
493,4930,-1.5217125,-1.114067,-0.404794,0.0,0.0,0.0
494,4940,-1.523746,-1.120382,-0.384817,0.0,0.0,0.0
495,4950,-1.40367,-1.125994,-0.126804,0.0,0.0,0.0
496,4960,-1.353517,-1.121613,-0.0887305,0.0,0.0,0.0
497,4970,-1.249182,-1.1163604999999999,-0.049694,0.0,0.0,0.0
498,4980,-1.195,-1.115489,-0.048731,0.0,0.0,0.0
499,4990,-1.195,-1.115489,-0.048731,0.0,0.0,0.0
500,5000,-1.0911775000000001,-0.9959175,-0.0917965,0.0,0.0,0.0
501,5010,-1.0035705,-0.828746,-0.1315445,0.0,0.0,0.0
502,5020,-1.025382,-0.362278,-0.120688,0.0,0.0,0.0
503,5030,-0.9396025,-0.2678365,-0.1356725,0.0,0.0,0.0
504,5040,-0.853823,-0.173395,-0.150657,0.0,0.0,0.0
505,5050,-0.853823,-0.173395,-0.150657,0.0,0.0,0.0
506,5060,-0.853823,-0.173395,-0.150657,0.0,0.0,0.0
507,5070,-0.853823,-0.173395,-0.150657,0.0,0.0,0.0
508,5080,-0.853823,-0.173395,-0.150657,0.0,0.0,0.0
509,5090,-0.853823,-0.173395,-0.150657,0.0,0.0,0.0
510,5100,,,,,,
511,5110,-0.853823,-0.173395,-0.150657,0.0,0.0,0.0
512,5120,-0.853823,-0.173395,-0.150657,0.0,0.0,0.0
513,5130,-0.853823,-0.173395,-0.150657,0.0,0.0,0.0
514,5140,0.23236199999999996,-0.0893505,0.2566285,0.0,0.0,0.0
515,5150,1.9720185,0.016621,0.774465,0.0,0.0,0.0
516,5160,2.269618,0.0313,0.814266,0.0,0.0,0.0
517,5170,2.656269,-0.107538,0.536498,0.0,0.0,0.0
518,5180,2.7763530000000003,-0.12813449999999998,0.381651,0.0,0.0,0.0
519,5190,2.896437,-0.148731,0.226804,0.0,0.0,0.0
520,5200,3.11315,-0.071667,-0.237615,0.0,0.0,0.0
521,5210,3.070696,-0.048731,-0.26091,0.0,0.0,0.0
522,5220,3.028242,-0.025795,-0.284205,0.0,0.0,0.0
523,5230,2.8985700000000003,-0.025481999999999998,-0.225382,0.0,0.0,0.0
524,5240,2.84607,-0.06656,-0.169006,0.0,0.0,0.0
525,5250,2.82396,-0.180734,-0.09919,0.0,0.0,0.0
526,5260,2.8925075,-0.35357,0.0982645,0.0,0.0,0.0
527,5270,2.8743119999999998,-0.442607,0.3117205,0.0,0.0,0.0
528,5280,2.681147,-0.427523,0.732722,0.0,0.0,0.0
529,5290,2.681147,-0.427523,0.732722,0.0,0.0,0.0
530,5300,2.456728,-0.4166665,0.852806,0.0,0.0,0.0
531,5310,2.1371025,-0.39785899999999996,0.9798165000000001,0.0,0.0,0.0
532,5320,2.041896,-0.389908,0.986743,0.0,0.0,0.0
533,5330,1.6798700000000002,-0.5198775,0.7799155,0.0,0.0,0.0
534,5340,1.594602,-0.539755,0.710703,0.0,0.0,0.0
535,5350,1.4276295,-0.6582565,0.562844,0.0,0.0,0.0
536,5360,1.2416435,-0.778341,0.39959500000000003,0.0,0.0,0.0
537,5370,0.770841,-0.819266,0.225994,0.0,0.0,0.0
538,5380,0.770841,-0.819266,0.225994,0.0,0.0,0.0
539,5390,0.453012,-0.827018,0.221606,0.0,0.0,0.0
540,5400,-0.202859,-0.898272,0.175031,0.0,0.0,0.0
541,5410,-0.262538,-0.9319569999999999,0.1214605,0.0,0.0,0.0
542,5420,-0.37859299999999996,-1.00448,0.014121000000000002,0.0,0.0,0.0
543,5430,-0.434969,-1.043318,-0.039648,0.0,0.0,0.0
544,5440,-0.669312,-1.20948,-0.246177,0.0,0.0,0.0
545,5450,-0.949037,-1.22263,-0.367171,0.0,0.0,0.0
546,5460,-0.9885325,-1.2185015,-0.367324,0.0,0.0,0.0
547,5470,-1.034144,-1.212179,-0.326957,0.0,0.0,0.0
548,5480,-1.04026,-1.209985,-0.286437,0.0,0.0,0.0
549,5490,-1.11081,-1.276865,-0.238333,0.0,0.0,0.0
550,5500,-1.11081,-1.276865,-0.238333,0.0,0.0,0.0
551,5510,-1.2909325,-1.3974004999999998,-0.327882,0.0,0.0,0.0
552,5520,-1.555405,-1.5642205,-0.4511235,0.0,0.0,0.0
553,5530,-1.683899,-1.616101,-0.494083,0.0,0.0,0.0
554,5540,-1.683899,-1.616101,-0.494083,0.0,0.0,0.0
555,5550,-1.619113,-1.506162,-0.4534635,0.0,0.0,0.0
556,5560,-1.554327,-1.396223,-0.412844,0.0,0.0,0.0
557,5570,-1.554327,-1.396223,-0.412844,0.0,0.0,0.0
558,5580,-1.554327,-1.396223,-0.412844,0.0,0.0,0.0
559,5590,-1.554327,-1.396223,-0.412844,0.0,0.0,0.0
560,5600,-1.554327,-1.396223,-0.412844,0.0,0.0,0.0
561,5610,-1.554327,-1.396223,-0.412844,0.0,0.0,0.0
562,5620,-1.554327,-1.396223,-0.412844,0.0,0.0,0.0
563,5630,-1.554327,-1.396223,-0.412844,0.0,0.0,0.0
564,5640,-1.554327,-1.396223,-0.412844,0.0,0.0,0.0
565,5650,-1.554327,-1.396223,-0.412844,0.0,0.0,0.0
566,5660,-1.554327,-1.396223,-0.412844,0.0,0.0,0.0
567,5670,-2.050963,-0.189495,-0.171972,0.0,0.0,0.0
568,5680,-2.072171,-0.1126375,-0.23063450000000002,0.0,0.0,0.0
569,5690,-2.093379,-0.03578,-0.289297,0.0,0.0,0.0
570,5700,-2.1538225,0.017277999999999998,-0.344595,0.0,0.0,0.0
571,5710,-2.5715595,-0.043532,-0.726812,0.0,0.0,0.0
572,5720,-2.719824,-0.20392949999999999,-0.9119265,0.0,0.0,0.0
573,5730,-2.749434,-0.284205,-0.978792,0.0,0.0,0.0
574,5740,-2.592767,-0.158823,-0.887569,0.0,0.0,0.0
575,5750,-2.4745645,0.048318,-0.5833335000000001,0.0,0.0,0.0
576,5760,-2.526193,0.04393,-0.495107,0.0,0.0,0.0
577,5770,-2.526193,0.04393,-0.495107,0.0,0.0,0.0
578,5780,-3.0687,-0.091636,-0.784297,0.0,0.0,0.0
579,5790,-3.275948,-0.166055,-1.096942,0.0,0.0,0.0
580,5800,-3.0987235,-0.2361315,-1.2327675,0.0,0.0,0.0
581,5810,-3.015237,-0.2284405,-1.2908715,0.0,0.0,0.0
582,5820,-2.98471,-0.173395,-1.379618,0.0,0.0,0.0
583,5830,-2.9654435,-0.1334865,-1.4147325,0.0,0.0,0.0
584,5840,-2.9108025,-0.054793499999999995,-1.4550995000000002,0.0,0.0,0.0
585,5850,-2.830994,0.019985,-1.469419,0.0,0.0,0.0
586,5860,-2.807699,0.024877999999999997,-1.4728365,0.0,0.0,0.0
587,5870,-2.680122,0.076346,-1.521101,0.0,0.0,0.0
588,5880,-2.680122,0.076346,-1.521101,0.0,0.0,0.0
589,5890,-2.57156,0.112538,-1.61896,0.0,0.0,0.0
590,5900,-2.471254,0.210199,-1.680734,0.0,0.0,0.0
591,5910,-2.382263,0.5919955,-1.696529,0.0,0.0,0.0
592,5920,-3.920994,1.052187,0.228242,0.0,0.0,0.0
593,5930,-4.007745,0.12125399999999997,0.228242,0.0,0.0,0.0
594,5940,-4.094496,-0.809679,0.228242,0.0,0.0,0.0
595,5950,-2.2354745,-0.01605500000000004,-1.8570335,0.0,0.0,0.0
596,5960,-0.3412845,0.7299694999999999,-3.9443425,0.0,0.0,0.0
597,5970,-0.45147550000000003,0.32146,-4.0651375000000005,0.0,0.0,0.0
598,5980,-0.596835,-0.03945,-4.183899,0.0,0.0,0.0
599,5990,-1.192049,-0.0787,-4.399893,0.0,0.0,0.0
600,6000,-1.725841,-0.0934785,-3.937156,0.0,0.0,0.0
601,6010,-2.259633,-0.108257,-3.474419,0.0,0.0,0.0
602,6020,-2.381651,-0.215902,-2.781758,0.0,0.0,0.0
603,6030,-2.1900614999999997,-0.3323165,-1.2880735,0.0,0.0,0.0
604,6040,-2.06708,-0.366774,-0.862691,0.0,0.0,0.0
605,6050,-2.03578,-0.377676,-0.475336,0.0,0.0,0.0
606,6060,-2.1609100000000003,-0.41248450000000003,-0.259274,0.0,0.0,0.0
607,6070,-2.388127,-0.405405,-0.353364,0.0,0.0,0.0
608,6080,-2.525382,-0.396743,-0.449648,0.0,0.0,0.0
609,6090,-2.525382,-0.396743,-0.449648,0.0,0.0,0.0
610,6100,-2.525382,-0.396743,-0.449648,0.0,0.0,0.0
611,6110,-2.525382,-0.396743,-0.449648,0.0,0.0,0.0
612,6120,-2.525382,-0.396743,-0.449648,0.0,0.0,0.0
613,6130,-2.525382,-0.396743,-0.449648,0.0,0.0,0.0
614,6140,-2.525382,-0.396743,-0.449648,0.0,0.0,0.0
615,6150,-2.525382,-0.396743,-0.449648,0.0,0.0,0.0
616,6160,-2.525382,-0.396743,-0.449648,0.0,0.0,0.0
617,6170,-2.525382,-0.396743,-0.449648,0.0,0.0,0.0
618,6180,-2.525382,-0.396743,-0.449648,0.0,0.0,0.0
619,6190,-2.176399,-0.156529,-0.481911,0.0,0.0,0.0
620,6200,-1.8061625000000001,0.1559635,-0.283486,0.0,0.0,0.0
621,6210,-1.765642,0.174312,-0.068196,0.0,0.0,0.0
622,6220,-1.7234405,0.17196499999999998,0.0206955,0.0,0.0,0.0
623,6230,-1.584511,0.018349,0.291942,0.0,0.0,0.0
624,6240,-1.584511,0.018349,0.291942,0.0,0.0,0.0
625,6250,-1.4699309999999999,-0.170138,0.29964100000000005,0.0,0.0,0.0
626,6260,-1.428547,-0.229771,0.300505,0.0,0.0,0.0
627,6270,-1.352706,-0.349847,0.266055,0.0,0.0,0.0
628,6280,-1.262026,-0.441743,0.07737,0.0,0.0,0.0
629,6290,-1.24607,-0.460657,0.026101,0.0,0.0,0.0
630,6300,-1.2481115,-0.4754815,-0.062232,0.0,0.0,0.0
631,6310,-1.253104,-0.478287,-0.079709,0.0,0.0,0.0
632,6320,-1.2621255,-0.4862385,-0.112997,0.0,0.0,0.0
633,6330,-1.256774,-0.488073,-0.112645,0.0,0.0,0.0
634,6340,-1.217936,-0.493884,-0.105092,0.0,0.0,0.0
635,6350,-1.176957,-0.528746,-0.100719,0.0,0.0,0.0
636,6360,-1.107844,-0.534358,-0.13659,0.0,0.0,0.0
637,6370,-1.1811924999999999,-0.525841,-0.20840999999999998,0.0,0.0,0.0
638,6380,-1.2789525,-0.5043275,-0.274664,0.0,0.0,0.0
639,6390,-1.335581,-0.490413,-0.305398,0.0,0.0,0.0
640,6400,-1.4201835,-0.5351225000000001,-0.414526,0.0,0.0,0.0
641,6410,-1.416514,-0.589809,-0.4661545,0.0,0.0,0.0
642,6420,-1.28971,-0.676453,-0.476758,0.0,0.0,0.0
643,6430,-1.2361395,-0.695872,-0.455405,0.0,0.0,0.0
644,6440,-1.182569,-0.715291,-0.434052,0.0,0.0,0.0
645,6450,-1.0490825,-0.7309859999999999,-0.41406750000000003,0.0,0.0,0.0
646,6460,-0.933387,-0.6369035000000001,-0.410497,0.0,0.0,0.0
647,6470,-0.7850155,-0.4531115,-0.4334325,0.0,0.0,0.0
648,6480,-0.598058,-0.020382,-0.634969,0.0,0.0,0.0
649,6490,-0.598058,-0.020382,-0.634969,0.0,0.0,0.0
650,6500,-0.598058,-0.020382,-0.634969,0.0,0.0,0.0
651,6510,-0.598058,-0.020382,-0.634969,0.0,0.0,0.0
652,6520,-0.8416359999999999,-0.207844,-0.9442965000000001,0.0,0.0,0.0
653,6530,-1.058104,-0.617125,-1.152599,0.0,0.0,0.0
654,6540,-1.058104,-0.617125,-1.152599,0.0,0.0,0.0
655,6550,-0.759327,-0.686238,-0.924159,0.0,0.0,0.0
656,6560,0.08628400000000001,-0.6258945,-0.3255885,0.0,0.0,0.0
657,6570,0.611208,-0.412844,0.311009,0.0,0.0,0.0
658,6580,0.6397554999999999,-0.39612400000000003,0.4691665,0.0,0.0,0.0
659,6590,0.719572,-0.3917435,0.7697244999999999,0.0,0.0,0.0
660,6600,1.350764,-0.746682,1.204281,0.0,0.0,0.0
661,6610,1.350764,-0.746682,1.204281,0.0,0.0,0.0
662,6620,1.350764,-0.746682,1.204281,0.0,0.0,0.0
663,6630,1.350764,-0.746682,1.204281,0.0,0.0,0.0
664,6640,1.350764,-0.746682,1.204281,0.0,0.0,0.0
665,6650,1.350764,-0.746682,1.204281,0.0,0.0,0.0
666,6660,1.350764,-0.746682,1.204281,0.0,0.0,0.0
667,6670,1.350764,-0.746682,1.204281,0.0,0.0,0.0
668,6680,1.350764,-0.746682,1.204281,0.0,0.0,0.0
669,6690,1.350764,-0.746682,1.204281,0.0,0.0,0.0
670,6700,1.350764,-0.746682,1.204281,0.0,0.0,0.0
671,6710,1.350764,-0.746682,1.204281,0.0,0.0,0.0
672,6720,2.038226,-1.115795,1.327217,0.0,0.0,0.0
673,6730,1.966873,-1.0817510000000001,1.3784939999999999,0.0,0.0,0.0
674,6740,1.89552,-1.047707,1.429771,0.0,0.0,0.0
675,6750,1.755658,-0.834557,1.749236,0.0,0.0,0.0
676,6760,1.7500535,-0.793578,1.767179,0.0,0.0,0.0
677,6770,1.744449,-0.752599,1.785122,0.0,0.0,0.0
678,6780,1.677064,-0.6664675,1.645512,0.0,0.0,0.0
679,6790,1.649954,-0.644755,1.499281,0.0,0.0,0.0
680,6800,1.6101985,-0.6649845,1.2295105,0.0,0.0,0.0
681,6810,1.470031,-0.697661,0.685122,0.0,0.0,0.0
682,6820,1.2961775000000002,-0.7069345,0.484862,0.0,0.0,0.0
683,6830,0.799388,-0.717936,0.082569,0.0,0.0,0.0
684,6840,0.799388,-0.717936,0.082569,0.0,0.0,0.0
685,6850,0.44388399999999995,-0.7124385,0.0019340000000000008,0.0,0.0,0.0
686,6860,0.076758,-0.712034,-0.024771,0.0,0.0,0.0
687,6870,0.076758,-0.712034,-0.024771,0.0,0.0,0.0
688,6880,-0.232569,-0.8759939999999999,-0.06697249999999999,0.0,0.0,0.0
689,6890,-0.289549,-0.9704435,-0.1239525,0.0,0.0,0.0
690,6900,-0.339862,-1.123853,-0.250566,0.0,0.0,0.0
691,6910,-0.339862,-1.123853,-0.250566,0.0,0.0,0.0
692,6920,-0.657599,-1.526498,-0.735979,0.0,0.0,0.0
693,6930,-0.831086,-1.620489,-0.880933,0.0,0.0,0.0
694,6940,-0.831086,-1.620489,-0.880933,0.0,0.0,0.0
695,6950,-1.1653440000000002,-1.7155505,-0.9803744999999999,0.0,0.0,0.0
696,6960,-1.296529,-1.656881,-0.962187,0.0,0.0,0.0
697,6970,-1.2428595,-1.6146255,-0.9230430000000001,0.0,0.0,0.0
698,6980,-1.18919,-1.57237,-0.883899,0.0,0.0,0.0
699,6990,-1.234557,-1.506009,-0.850153,0.0,0.0,0.0
700,7000,-1.444648,-1.500199,-0.956376,0.0,0.0,0.0
701,7010,-1.444648,-1.500199,-0.956376,0.0,0.0,0.0
702,7020,-1.444648,-1.500199,-0.956376,0.0,0.0,0.0
703,7030,-2.1748244999999997,-1.1974005,-0.8088150000000001,0.0,0.0,0.0
704,7040,-2.566667,-0.929052,-0.535367,0.0,0.0,0.0
705,7050,-2.512745,-0.8986775,-0.39587150000000004,0.0,0.0,0.0
706,7060,-2.1366435,-0.8397095,0.0415905,0.0,0.0,0.0
707,7070,-1.9599384999999998,-0.8111619999999999,0.1203365,0.0,0.0,0.0
708,7080,-1.960856,-0.788991,-0.041896,0.0,0.0,0.0
709,7090,-2.056422,-0.7855734999999999,-0.114373,0.0,0.0,0.0
710,7100,-2.151988,-0.782156,-0.18685,0.0,0.0,0.0
711,7110,-2.3548475,-0.7400074999999999,-0.355864,0.0,0.0,0.0
712,7120,-2.1787465,-0.6862385,-0.429312,0.0,0.0,0.0
713,7130,-1.995306,-0.639144,-0.461881,0.0,0.0,0.0
714,7140,-1.995306,-0.639144,-0.461881,0.0,0.0,0.0
715,7150,-1.995306,-0.639144,-0.461881,0.0,0.0,0.0
716,7160,-1.995306,-0.639144,-0.461881,0.0,0.0,0.0
717,7170,-1.995306,-0.639144,-0.461881,0.0,0.0,0.0
718,7180,-1.995306,-0.639144,-0.461881,0.0,0.0,0.0
719,7190,-1.995306,-0.639144,-0.461881,0.0,0.0,0.0
720,7200,-1.995306,-0.639144,-0.461881,0.0,0.0,0.0
721,7210,-1.995306,-0.639144,-0.461881,0.0,0.0,0.0
722,7220,-1.995306,-0.639144,-0.461881,0.0,0.0,0.0
723,7230,-1.995306,-0.639144,-0.461881,0.0,0.0,0.0
724,7240,-1.8367965000000002,-0.26355500000000004,-0.552806,0.0,0.0,0.0
725,7250,-2.001116,0.026606,-0.643731,0.0,0.0,0.0
726,7260,-2.001116,0.026606,-0.643731,0.0,0.0,0.0
727,7270,-2.38919,0.019985,-0.895612,0.0,0.0,0.0
728,7280,-3.0699315,-0.1327755,-1.4522935000000001,0.0,0.0,0.0
729,7290,-3.202095,-0.316208,-1.564419,0.0,0.0,0.0
730,7300,-2.897355,-0.5263,-1.464526,0.0,0.0,0.0
731,7310,-2.592768,-0.5647785000000001,-1.3140675,0.0,0.0,0.0
732,7320,-2.0762004999999997,-0.588578,-1.008716,0.0,0.0,0.0
733,7330,-1.795413,-0.532217,-0.70234,0.0,0.0,0.0
734,7340,-1.795413,-0.532217,-0.70234,0.0,0.0,0.0
735,7350,-2.018349,-0.476758,-0.8959715,0.0,0.0,0.0
736,7360,-2.222523,-0.367477,-1.299801,0.0,0.0,0.0
737,7370,-2.244847,-0.3301225,-1.3744649999999998,0.0,0.0,0.0
738,7380,-2.193119,-0.184052,-1.4659485,0.0,0.0,0.0
739,7390,-2.119067,-0.075336,-1.482768,0.0,0.0,0.0
740,7400,-2.019113,0.012485000000000003,-1.4818045,0.0,0.0,0.0
741,7410,-1.919159,0.100306,-1.480841,0.0,0.0,0.0
742,7420,-1.919159,0.100306,-1.480841,0.0,0.0,0.0
743,7430,-1.3645260000000001,0.47094800000000003,-1.683792,0.0,0.0,0.0
744,7440,-1.4703365000000002,0.474977,-1.8206959999999999,0.0,0.0,0.0
745,7450,-1.651881,0.469832,-2.002645,0.0,0.0,0.0
746,7460,-1.651881,0.469832,-2.002645,0.0,0.0,0.0
747,7470,-1.9224769999999998,0.342301,-2.0762539999999996,0.0,0.0,0.0
748,7480,-2.0359325,0.18649100000000002,-2.104694,0.0,0.0,0.0
749,7490,-2.06922,0.116713,-2.12396,0.0,0.0,0.0
750,7500,-2.031911,0.073196,-2.124465,0.0,0.0,0.0
751,7510,-2.031911,0.073196,-2.124465,0.0,0.0,0.0
752,7520,-2.031911,0.073196,-2.124465,0.0,0.0,0.0
753,7530,-2.1695715,-0.128081,-1.9406729999999999,0.0,0.0,0.0
754,7540,-2.406422,-0.3747705,-1.717737,0.0,0.0,0.0
755,7550,-2.663104,-0.519067,-1.583899,0.0,0.0,0.0
756,7560,-2.7089755,-0.5549465,-1.5251835,0.0,0.0,0.0
757,7570,-2.79659,-0.6347095,-1.4321635000000001,0.0,0.0,0.0
758,7580,-2.838333,-0.678593,-1.397859,0.0,0.0,0.0
759,7590,-2.880321,-0.773807,-1.332722,0.0,0.0,0.0
760,7600,-2.7985705,-0.85607,-1.203112,0.0,0.0,0.0
761,7610,-2.671254,-0.943685,-1.0564225,0.0,0.0,0.0
762,7620,-2.625688,-0.949037,-1.039343,0.0,0.0,0.0
763,7630,-2.4815975,-0.9094264999999999,-0.9699309999999999,0.0,0.0,0.0
764,7640,-2.3762995,-0.7954129999999999,-0.8831344999999999,0.0,0.0,0.0
765,7650,-2.340673,-0.734251,-0.834052,0.0,0.0,0.0
766,7660,-2.264021,-0.591544,-0.687661,0.0,0.0,0.0
767,7670,-2.264021,-0.591544,-0.687661,0.0,0.0,0.0
768,7680,-2.264021,-0.591544,-0.687661,0.0,0.0,0.0
769,7690,-2.264021,-0.591544,-0.687661,0.0,0.0,0.0
770,7700,-2.264021,-0.591544,-0.687661,0.0,0.0,0.0
771,7710,-2.264021,-0.591544,-0.687661,0.0,0.0,0.0
772,7720,-2.264021,-0.591544,-0.687661,0.0,0.0,0.0
773,7730,-2.264021,-0.591544,-0.687661,0.0,0.0,0.0
774,7740,-2.264021,-0.591544,-0.687661,0.0,0.0,0.0
775,7750,-2.264021,-0.591544,-0.687661,0.0,0.0,0.0
776,7760,-2.1750765000000003,-0.5208485,-0.304786,0.0,0.0,0.0
777,7770,-2.086132,-0.450153,0.078089,0.0,0.0,0.0
778,7780,-2.043777,-0.59526,0.0060170000000000015,0.0,0.0,0.0
779,7790,-2.001422,-0.740367,-0.066055,0.0,0.0,0.0
780,7800,-1.922783,-0.8378745000000001,-0.073494,0.0,0.0,0.0
781,7810,-1.771972,-0.961269,-0.075535,0.0,0.0,0.0
782,7820,-1.679969,-0.9856805,-0.09347849999999999,0.0,0.0,0.0
783,7830,-1.524052,-1.00867,-0.149037,0.0,0.0,0.0
784,7840,-1.518043,-1.0048469999999998,-0.187309,0.0,0.0,0.0
785,7850,-1.511315,-0.992966,-0.320076,0.0,0.0,0.0
786,7860,-1.505199,-0.981399,-0.42114650000000003,0.0,0.0,0.0
787,7870,-1.484511,-0.974725,-0.732309,0.0,0.0,0.0
788,7880,-1.4817049999999998,-1.008257,-0.8018810000000001,0.0,0.0,0.0
789,7890,-1.478899,-1.041789,-0.871453,0.0,0.0,0.0
790,7900,-1.5725764999999998,-1.2281345,-1.103517,0.0,0.0,0.0
791,7910,-1.711208,-1.482569,-1.248318,0.0,0.0,0.0
792,7920,-1.711208,-1.482569,-1.248318,0.0,0.0,0.0
793,7930,-1.594083,-1.612431,-1.096942,0.0,0.0,0.0
794,7940,-1.557439,-1.595818,-1.0142200000000001,0.0,0.0,0.0
795,7950,-1.291636,-1.362492,-0.569725,0.0,0.0,0.0
796,7960,-1.223188,-1.2863455,-0.4921485,0.0,0.0,0.0
797,7970,-1.15474,-1.210199,-0.414572,0.0,0.0,0.0
798,7980,-0.8809404999999999,-0.8690140000000001,-0.1762465,0.0,0.0,0.0
799,7990,-0.7176374999999999,-0.6647325,-0.051781499999999994,0.0,0.0,0.0
800,8000,-0.567477,-0.467278,0.108869,0.0,0.0,0.0
801,8010,-0.567477,-0.467278,0.108869,0.0,0.0,0.0
802,8020,-0.567477,-0.467278,0.108869,0.0,0.0,0.0
803,8030,-0.5610625,-0.9095260000000001,-0.039189499999999995,0.0,0.0,0.0
804,8040,-0.3826755,-1.171506,-0.168142,0.0,0.0,0.0
805,8050,-0.014679,-1.037416,0.045153,0.0,0.0,0.0
806,8060,0.171254,-0.9330809999999999,0.154633,0.0,0.0,0.0
807,8070,0.76789,-0.625887,0.663914,0.0,0.0,0.0
808,8080,0.8824695,-0.563303,0.77737,0.0,0.0,0.0
809,8090,0.997049,-0.500719,0.890826,0.0,0.0,0.0
810,8100,1.1651375000000002,-0.4585095,0.940619,0.0,0.0,0.0
811,8110,1.73292,-0.564633,0.688073,0.0,0.0,0.0
812,8120,1.73292,-0.564633,0.688073,0.0,0.0,0.0
813,8130,2.156162,-0.74526,0.424465,0.0,0.0,0.0
814,8140,2.6320565,-0.8593805,0.0631495,0.0,0.0,0.0
815,8150,2.778486,-0.867278,-0.055765,0.0,0.0,0.0
816,8160,3.200306,-0.833135,-0.383792,0.0,0.0,0.0
817,8170,3.350352,-0.83211,-0.470229,0.0,0.0,0.0
818,8180,3.449954,-0.992049,-0.509679,0.0,0.0,0.0
819,8190,3.449954,-0.992049,-0.509679,0.0,0.0,0.0
820,8200,3.449954,-0.992049,-0.509679,0.0,0.0,0.0
821,8210,3.449954,-0.992049,-0.509679,0.0,0.0,0.0
822,8220,3.449954,-0.992049,-0.509679,0.0,0.0,0.0
823,8230,3.449954,-0.992049,-0.509679,0.0,0.0,0.0
824,8240,3.449954,-0.992049,-0.509679,0.0,0.0,0.0
825,8250,3.449954,-0.992049,-0.509679,0.0,0.0,0.0
826,8260,3.449954,-0.992049,-0.509679,0.0,0.0,0.0
827,8270,3.449954,-0.992049,-0.509679,0.0,0.0,0.0
828,8280,3.449954,-0.992049,-0.509679,0.0,0.0,0.0
829,8290,1.8244645,-0.6128975,0.6595260000000001,0.0,0.0,0.0
830,8300,1.449541,-0.609587,0.219465,0.0,0.0,0.0
831,8310,1.223295,-0.6110625000000001,0.04123099999999999,0.0,0.0,0.0
832,8320,0.786957,-0.574419,-0.151682,0.0,0.0,0.0
833,8330,0.786957,-0.574419,-0.151682,0.0,0.0,0.0
834,8340,0.43109299999999995,-0.5364450000000001,-0.1156955,0.0,0.0,0.0
835,8350,0.309587,-0.535581,-0.076758,0.0,0.0,0.0
836,8360,-0.1232415,-0.6139680000000001,0.2037155,0.0,0.0,0.0
837,8370,-0.170948,-0.645673,0.250963,0.0,0.0,0.0
838,8380,-0.261009,-0.7679435,0.23486200000000002,0.0,0.0,0.0
839,8390,-0.35107,-0.890214,0.218761,0.0,0.0,0.0
840,8400,-0.389602,-1.016927,0.123547,0.0,0.0,0.0
841,8410,-0.5627445,-1.1741055,-0.0042355,0.0,0.0,0.0
842,8420,-0.65974,-1.211927,-0.042615,0.0,0.0,0.0
843,8430,-1.2422555,-1.3045335,-0.1537235,0.0,0.0,0.0
844,8440,-1.522324,-1.32344,-0.190933,0.0,0.0,0.0
845,8450,-1.734251,-1.2808869999999999,-0.2439375,0.0,0.0,0.0
846,8460,-1.7663609999999998,-1.2514755000000002,-0.2999545,0.0,0.0,0.0
847,8470,-1.764419,-1.230474,-0.336193,0.0,0.0,0.0
848,8480,-1.7020870000000001,-1.192859,-0.544495,0.0,0.0,0.0
849,8490,-1.705397,-1.191636,-0.652492,0.0,0.0,0.0
850,8500,-2.006315,-1.14526,-0.813563,0.0,0.0,0.0
851,8510,-2.006315,-1.14526,-0.813563,0.0,0.0,0.0
852,8520,-2.006315,-1.14526,-0.813563,0.0,0.0,0.0
853,8530,-2.006315,-1.14526,-0.813563,0.0,0.0,0.0
854,8540,-1.714878,-0.9866440000000001,-0.317538,0.0,0.0,0.0
855,8550,-1.35607,-0.958303,-0.171972,0.0,0.0,0.0
856,8560,-1.337668,-0.9551455,-0.16733150000000002,0.0,0.0,0.0
857,8570,-1.319266,-0.951988,-0.162691,0.0,0.0,0.0
858,8580,-1.687768,-0.871973,-0.282768,0.0,0.0,0.0
859,8590,-1.687768,-0.871973,-0.282768,0.0,0.0,0.0
860,8600,-2.193777,-0.611315,-0.557294,0.0,0.0,0.0
861,8610,-2.1944955,-0.5325690000000001,-0.5766055,0.0,0.0,0.0
862,8620,-2.195214,-0.453823,-0.595917,0.0,0.0,0.0
863,8630,-1.9210015,-0.09143749999999999,-0.7072855,0.0,0.0,0.0
864,8640,-1.755153,0.110596,-0.752599,0.0,0.0,0.0
865,8650,-1.728028,0.184511,-0.753823,0.0,0.0,0.0
866,8660,-1.9681955,0.576965,-0.674106,0.0,0.0,0.0
867,8670,-2.107339,0.596743,-0.687661,0.0,0.0,0.0
868,8680,-3.209281,0.382982,-1.469618,0.0,0.0,0.0
869,8690,-3.209281,0.382982,-1.469618,0.0,0.0,0.0
870,8700,-3.209281,0.382982,-1.469618,0.0,0.0,0.0
871,8710,-3.209281,0.382982,-1.469618,0.0,0.0,0.0
872,8720,-3.209281,0.382982,-1.469618,0.0,0.0,0.0
873,8730,-3.209281,0.382982,-1.469618,0.0,0.0,0.0
874,8740,-3.209281,0.382982,-1.469618,0.0,0.0,0.0
875,8750,-3.209281,0.382982,-1.469618,0.0,0.0,0.0
876,8760,-3.209281,0.382982,-1.469618,0.0,0.0,0.0
877,8770,-3.209281,0.382982,-1.469618,0.0,0.0,0.0
878,8780,-3.209281,0.382982,-1.469618,0.0,0.0,0.0
879,8790,-3.209281,0.382982,-1.469618,0.0,0.0,0.0
880,8800,-3.209281,0.382982,-1.469618,0.0,0.0,0.0
881,8810,-3.209281,0.382982,-1.469618,0.0,0.0,0.0
882,8820,-2.122431,0.092248,-1.059633,0.0,0.0,0.0
883,8830,-2.122431,0.092248,-1.059633,0.0,0.0,0.0
884,8840,,,,,,
885,8850,,,,,,
886,8860,,,,,,
887,8870,,,,,,
888,8880,,,,,,
889,8890,,,,,,
890,8900,,,,,,
891,8910,,,,,,
892,8920,-1.252599,0.45393,-1.008364,0.0,0.0,0.0
893,8930,-1.513043,0.461055,-1.40081,0.0,0.0,0.0
894,8940,-1.5563685,0.493012,-1.449128,0.0,0.0,0.0
895,8950,-1.638226,0.67656,-1.429358,0.0,0.0,0.0
896,8960,-1.600864,0.695107,-1.378081,0.0,0.0,0.0
897,8970,-1.563502,0.713654,-1.326804,0.0,0.0,0.0
898,8980,-1.5670715,0.7825230000000001,-1.2852675,0.0,0.0,0.0
899,8990,-1.6425075,0.8361925,-1.3042815,0.0,0.0,0.0
900,9000,-2.012125,0.907446,-1.488884,0.0,0.0,0.0
901,9010,-2.0820565,0.9157489999999999,-1.504893,0.0,0.0,0.0
902,9020,-2.151988,0.924052,-1.520902,0.0,0.0,0.0
903,9030,-2.043624,0.828333,-1.521101,0.0,0.0,0.0
904,9040,-2.0555505,0.8128975,-1.4961315000000002,0.0,0.0,0.0
905,9050,-1.924969,0.730994,-1.457905,0.0,0.0,0.0
906,9060,-1.793318,0.6830275,-1.2847629999999999,0.0,0.0,0.0
907,9070,-1.765642,0.684602,-1.219266,0.0,0.0,0.0
908,9080,-2.0078975,0.660703,-1.01315,0.0,0.0,0.0
909,9090,-2.450765,0.604281,-0.703777,0.0,0.0,0.0
910,9100,-2.5763,0.5969949999999999,-0.666774,0.0,0.0,0.0
911,9110,-3.335979,0.541789,-0.604174,0.0,0.0,0.0
912,9120,-3.335979,0.541789,-0.604174,0.0,0.0,0.0
913,9130,-3.581238,0.482569,-0.668807,0.0,0.0,0.0
914,9140,-3.76208,0.407844,-0.707951,0.0,0.0,0.0
915,9150,-3.831392,0.273089,-0.714985,0.0,0.0,0.0
916,9160,-3.6123395,-0.0742125,-0.5009170000000001,0.0,0.0,0.0
917,9170,-3.534358,-0.141896,-0.43792,0.0,0.0,0.0
918,9180,-3.3374615,-0.304893,-0.3351225,0.0,0.0,0.0
919,9190,-3.165337,-0.417936,-0.301024,0.0,0.0,0.0
920,9200,-3.165337,-0.417936,-0.301024,0.0,0.0,0.0
921,9210,-2.9328745,-0.5000995,-0.428792,0.0,0.0,0.0
922,9220,-2.880535,-0.50734,-0.444541,0.0,0.0,0.0
923,9230,-2.806934,-0.523647,-0.444541,0.0,0.0,0.0
924,9240,-2.733333,-0.539954,-0.444541,0.0,0.0,0.0
925,9250,-2.733333,-0.539954,-0.444541,0.0,0.0,0.0
926,9260,-2.733333,-0.539954,-0.444541,0.0,0.0,0.0
927,9270,-2.733333,-0.539954,-0.444541,0.0,0.0,0.0
928,9280,-2.733333,-0.539954,-0.444541,0.0,0.0,0.0
929,9290,-2.733333,-0.539954,-0.444541,0.0,0.0,0.0
930,9300,-2.733333,-0.539954,-0.444541,0.0,0.0,0.0
931,9310,-2.733333,-0.539954,-0.444541,0.0,0.0,0.0
932,9320,-2.733333,-0.539954,-0.444541,0.0,0.0,0.0
933,9330,-2.733333,-0.539954,-0.444541,0.0,0.0,0.0
934,9340,-0.823547,-0.541177,0.386346,0.0,0.0,0.0
935,9350,-0.823547,-0.541177,0.386346,0.0,0.0,0.0
936,9360,-0.837561,-0.515703,0.2004125,0.0,0.0,0.0
937,9370,-0.840367,-0.513868,0.159434,0.0,0.0,0.0
938,9380,-0.8207415,-0.513868,0.0905735,0.0,0.0,0.0
939,9390,-0.801116,-0.513868,0.021713,0.0,0.0,0.0
940,9400,-0.7562694999999999,-0.5191589999999999,-0.048318,0.0,0.0,0.0
941,9410,-0.784709,-0.50948,-0.095306,0.0,0.0,0.0
942,9420,-0.784709,-0.50948,-0.095306,0.0,0.0,0.0
943,9430,-0.75474,-0.48996150000000005,-0.1416435,0.0,0.0,0.0
944,9440,-0.719572,-0.480428,-0.149954,0.0,0.0,0.0
945,9450,-0.7201835000000001,-0.4702295,-0.1588685,0.0,0.0,0.0
946,9460,-0.724465,-0.46289,-0.16555,0.0,0.0,0.0
947,9470,-0.716407,-0.464832,-0.174113,0.0,0.0,0.0
948,9480,-0.636491,-0.46396800000000005,-0.18389899999999998,0.0,0.0,0.0
949,9490,-0.556575,-0.463104,-0.193685,0.0,0.0,0.0
950,9500,-0.3938835,-0.2733485,-0.20392949999999999,0.0,0.0,0.0
951,9510,-0.279006,0.005092,-0.278394,0.0,0.0,0.0
952,9520,-0.279006,0.005092,-0.278394,0.0,0.0,0.0
953,9530,-0.127722,0.492049,-0.629771,0.0,0.0,0.0
954,9540,-0.12798199999999998,0.508509,-0.6499010000000001,0.0,0.0,0.0
955,9550,-0.272477,0.445872,-0.949037,0.0,0.0,0.0
956,9560,-0.37788200000000005,0.3111625,-1.0298165,0.0,0.0,0.0
957,9570,-0.483287,0.176453,-1.110596,0.0,0.0,0.0
958,9580,-0.4214525,-0.050657499999999994,-1.0182495,0.0,0.0,0.0
959,9590,-0.357385,-0.067783,-0.914679,0.0,0.0,0.0
960,9600,0.077271,-0.0306265,-0.3882265,0.0,0.0,0.0
961,9610,0.328853,-0.209281,0.155765,0.0,0.0,0.0
962,9620,0.328853,-0.209281,0.155765,0.0,0.0,0.0
963,9630,0.587408,-0.3807875,0.5306345,0.0,0.0,0.0
964,9640,0.715183,-0.4263,0.652905,0.0,0.0,0.0
965,9650,0.989801,-0.48604,0.961881,0.0,0.0,0.0
966,9660,1.6608025,-0.5467355,1.3762995,0.0,0.0,0.0
967,9670,1.760749,-0.563196,1.393165,0.0,0.0,0.0
968,9680,1.9184480000000002,-0.618601,1.3249235000000001,0.0,0.0,0.0
969,9690,1.934251,-0.65107,0.96555,0.0,0.0,0.0
970,9700,1.950872,-0.690627,0.612645,0.0,0.0,0.0
971,9710,1.9691670000000001,-0.7296635,0.5328285,0.0,0.0,0.0
972,9720,1.987462,-0.7687,0.453012,0.0,0.0,0.0
973,9730,2.059939,-0.833838,0.352905,0.0,0.0,0.0
974,9740,2.2316969999999996,-0.8427675,0.23348600000000003,0.0,0.0,0.0
975,9750,2.268394,-0.845367,0.231391,0.0,0.0,0.0
976,9760,2.268394,-0.845367,0.231391,0.0,0.0,0.0
977,9770,2.268394,-0.845367,0.231391,0.0,0.0,0.0
978,9780,2.268394,-0.845367,0.231391,0.0,0.0,0.0
979,9790,2.268394,-0.845367,0.231391,0.0,0.0,0.0
980,9800,2.268394,-0.845367,0.231391,0.0,0.0,0.0
981,9810,2.268394,-0.845367,0.231391,0.0,0.0,0.0
982,9820,2.268394,-0.845367,0.231391,0.0,0.0,0.0
983,9830,2.268394,-0.845367,0.231391,0.0,0.0,0.0
984,9840,2.268394,-0.845367,0.231391,0.0,0.0,0.0
985,9850,2.268394,-0.845367,0.231391,0.0,0.0,0.0
986,9860,2.1907265000000002,-0.978341,0.5273165,0.0,0.0,0.0
987,9870,2.082982,-1.051789,0.79052,0.0,0.0,0.0
988,9880,1.756017,-1.0203365,0.6287465,0.0,0.0,0.0
989,9890,1.429052,-0.988884,0.466973,0.0,0.0,0.0
990,9900,1.167691,-0.932523,0.396636,0.0,0.0,0.0
991,9910,0.3,-0.741896,0.339037,0.0,0.0,0.0
992,9920,0.3,-0.741896,0.339037,0.0,0.0,0.0
993,9930,0.042309,-0.730168,0.338333,0.0,0.0,0.0
994,9940,-0.279052,-0.7470945,0.343685,0.0,0.0,0.0
995,9950,-0.496483,-0.8015289999999999,0.3206425,0.0,0.0,0.0
996,9960,-0.663196,-0.922737,0.26555,0.0,0.0,0.0
997,9970,-0.663196,-0.922737,0.26555,0.0,0.0,0.0
998,9980,-0.765245,-1.013761,0.256988,0.0,0.0,0.0
999,9990,-1.13461,-1.0818045,0.1950535,0.0,0.0,0.0
