id,timestamp,acc_x,acc_y,acc_z,gyro_x,gyro_y,gyro_z
0,0,-0.285826,0.033945,0.633838,0.0,0.0,0.0
1,10,-0.248517,0.004388,0.580428,0.0,0.0,0.0
2,20,-0.248517,0.004388,0.580428,0.0,0.0,0.0
3,30,-0.260344,-0.024312,0.58578,0.0,0.0,0.0
4,40,-0.194083,-0.047202,0.641896,0.0,0.0,0.0
5,50,-0.194083,-0.047202,0.641896,0.0,0.0,0.0
6,60,-0.1340445,-0.0467355,0.6062695,0.0,0.0,0.0
7,70,-0.063807,-0.06208,0.461774,0.0,0.0,0.0
8,80,-0.123043,-0.028242,0.32344,0.0,0.0,0.0
9,90,-0.286346,-0.003257,0.251177,0.0,0.0,0.0
10,100,-0.286346,-0.003257,0.251177,0.0,0.0,0.0
11,110,,,,,,
12,120,-0.34052,-0.0788455,0.34292049999999996,0.0,0.0,0.0
13,130,-0.331804,-0.192661,0.628027,0.0,0.0,0.0
14,140,-0.3148315,-0.2135555,0.8194645,0.0,0.0,0.0
15,150,-0.297859,-0.23445,1.010902,0.0,0.0,0.0
16,160,-0.374924,-0.217844,1.240168,0.0,0.0,0.0
17,170,-0.463502,-0.157997,1.274817,0.0,0.0,0.0
18,180,-0.505505,-0.160092,1.2792050000000001,0.0,0.0,0.0
19,190,-0.5304285,-0.1674315,1.2640669999999998,0.0,0.0,0.0
20,200,-0.44526,-0.167278,1.234251,0.0,0.0,0.0
21,210,-0.436697,-0.130688,1.217232,0.0,0.0,0.0
22,220,-0.543119,-0.11947250000000001,1.207951,0.0,0.0,0.0
23,230,-0.756422,-0.100306,1.1786395,0.0,0.0,0.0
24,240,-0.971254,-0.051177,1.097554,0.0,0.0,0.0
25,250,-0.971254,-0.051177,1.097554,0.0,0.0,0.0
26,260,-1.035887,-0.026713,0.94526,0.0,0.0,0.0
27,270,-0.911621,-0.029862,0.79133,0.0,0.0,0.0
28,280,-0.8841975,-0.033073,0.7539754999999999,0.0,0.0,0.0
29,290,-0.815291,-0.045566,0.610398,0.0,0.0,0.0
30,300,-0.815291,-0.045566,0.610398,0.0,0.0,0.0
31,310,-0.770535,-0.080428,0.522523,0.0,0.0,0.0
32,320,-0.7485705,-0.089197,0.52487,0.0,0.0,0.0
33,330,-0.726606,-0.097966,0.527217,0.0,0.0,0.0
34,340,-0.7422555,-0.091896,0.5228365,0.0,0.0,0.0
35,350,-0.8170795,-0.0643195,0.48756900000000003,0.0,0.0,0.0
36,360,-0.886544,-0.033838,0.391544,0.0,0.0,0.0
37,370,-0.855558,-0.0323625,0.38955649999999997,0.0,0.0,0.0
38,380,-0.784511,-0.032829,0.397661,0.0,0.0,0.0
39,390,-0.784511,-0.032829,0.397661,0.0,0.0,0.0
40,400,-0.780841,-0.042095,0.433226,0.0,0.0,0.0
41,410,-0.780841,-0.042095,0.433226,0.0,0.0,0.0
42,420,-0.780841,-0.042095,0.433226,0.0,0.0,0.0
43,430,-0.780841,-0.042095,0.433226,0.0,0.0,0.0
44,440,-0.780841,-0.042095,0.433226,0.0,0.0,0.0
45,450,-0.780841,-0.042095,0.433226,0.0,0.0,0.0
46,460,-0.780841,-0.042095,0.433226,0.0,0.0,0.0
47,470,-0.780841,-0.042095,0.433226,0.0,0.0,0.0
48,480,-0.780841,-0.042095,0.433226,0.0,0.0,0.0
49,490,-0.780841,-0.042095,0.433226,0.0,0.0,0.0
50,500,-0.780841,-0.042095,0.433226,0.0,0.0,0.0
51,510,,,,,,
52,520,-1.371361,-0.011873,0.7379205,0.0,0.0,0.0
53,530,-2.135887,0.020291,1.169832,0.0,0.0,0.0
54,540,-2.1897095,-0.022729,1.332011,0.0,0.0,0.0
55,550,-2.2669725,-0.158769,1.6523474999999999,0.0,0.0,0.0
56,560,-2.207645,-0.330382,2.076254,0.0,0.0,0.0
57,570,-2.114679,-0.356682,2.37289,0.0,0.0,0.0
58,580,-2.201024,-0.347905,2.812844,0.0,0.0,0.0
59,590,-2.3170795,-0.367584,2.862286,0.0,0.0,0.0
60,600,-2.433135,-0.387263,2.911728,0.0,0.0,0.0
61,610,-2.638945,-0.5992355,3.031705,0.0,0.0,0.0
62,620,-2.5682495000000003,-0.770543,3.04552,0.0,0.0,0.0
63,630,-2.239144,-1.037416,2.850963,0.0,0.0,0.0
64,640,-2.201529,-1.006621,2.751376,0.0,0.0,0.0
65,650,-2.201529,-1.006621,2.751376,0.0,0.0,0.0
66,660,-2.195214,-0.940061,2.251269,0.0,0.0,0.0
67,670,-2.072584,-0.9096865000000001,2.158662,0.0,0.0,0.0
68,680,-1.658517,-0.83578,1.92029,0.0,0.0,0.0
69,690,-1.408869,-0.767278,1.796636,0.0,0.0,0.0
70,700,-1.408869,-0.767278,1.796636,0.0,0.0,0.0
71,710,-1.408869,-0.767278,1.796636,0.0,0.0,0.0
72,720,-0.8798165,-0.543578,1.5857260000000002,0.0,0.0,0.0
73,730,-0.528028,-0.43211,1.468089,0.0,0.0,0.0
74,740,-0.20581,-0.412339,1.45708,0.0,0.0,0.0
75,750,-0.20581,-0.412339,1.45708,0.0,0.0,0.0
76,760,0.114067,-0.295719,1.464419,0.0,0.0,0.0
77,770,-0.00081,-0.160749,1.511728,0.0,0.0,0.0
78,780,-0.0584095,-0.1562155,1.498578,0.0,0.0,0.0
79,790,-0.195612,-0.154847,1.357997,0.0,0.0,0.0
80,800,-0.195612,-0.154847,1.357997,0.0,0.0,0.0
81,810,-0.195612,-0.154847,1.357997,0.0,0.0,0.0
82,820,-0.176552,-0.27105500000000005,0.937003,0.0,0.0,0.0
83,830,-0.122324,-0.387661,0.424664,0.0,0.0,0.0
84,840,-0.120183,-0.378395,0.36656,0.0,0.0,0.0
85,850,-0.1531115,-0.3740065,0.36487800000000004,0.0,0.0,0.0
86,860,-0.298777,-0.373287,0.373196,0.0,0.0,0.0
87,870,-0.298777,-0.373287,0.373196,0.0,0.0,0.0
88,880,-0.525795,-0.418762,0.396437,0.0,0.0,0.0
89,890,-0.581804,-0.4577985,0.4455655,0.0,0.0,0.0
90,900,-0.637813,-0.496835,0.494694,0.0,0.0,0.0
91,910,-0.684205,-0.591544,0.619985,0.0,0.0,0.0
92,920,-0.689098,-0.602951,0.65708,0.0,0.0,0.0
93,930,-0.689098,-0.602951,0.65708,0.0,0.0,0.0
94,940,-0.689098,-0.602951,0.65708,0.0,0.0,0.0
95,950,-0.689098,-0.602951,0.65708,0.0,0.0,0.0
96,960,-0.689098,-0.602951,0.65708,0.0,0.0,0.0
97,970,-0.689098,-0.602951,0.65708,0.0,0.0,0.0
98,980,-0.689098,-0.602951,0.65708,0.0,0.0,0.0
99,990,-0.689098,-0.602951,0.65708,0.0,0.0,0.0
100,1000,-0.689098,-0.602951,0.65708,0.0,0.0,0.0
101,1010,-0.689098,-0.602951,0.65708,0.0,0.0,0.0
102,1020,-0.689098,-0.602951,0.65708,0.0,0.0,0.0
103,1030,-0.760451,-0.508509,0.46227850000000004,0.0,0.0,0.0
104,1040,-0.760138,-0.297859,0.27237,0.0,0.0,0.0
105,1050,-0.668601,-0.21110849999999998,0.294694,0.0,0.0,0.0
106,1060,-0.114266,-0.204893,0.381239,0.0,0.0,0.0
107,1070,0.106009,-0.324266,0.308761,0.0,0.0,0.0
108,1080,0.2000995,-0.3397555,0.254587,0.0,0.0,0.0
109,1090,0.32150650000000003,-0.303517,0.1796635,0.0,0.0,0.0
110,1100,0.32940400000000003,-0.152194,0.15596300000000002,0.0,0.0,0.0
111,1110,-0.062278,0.236498,0.337309,0.0,0.0,0.0
112,1120,-0.0965825,0.236139,0.37039,0.0,0.0,0.0
113,1130,0.053318,0.233135,0.41081,0.0,0.0,0.0
114,1140,0.704174,0.325795,0.136697,0.0,0.0,0.0
115,1150,0.869725,0.44445,-0.126101,0.0,0.0,0.0
116,1160,0.8748245,0.509228,-0.2556575,0.0,0.0,0.0
117,1170,0.866055,0.713869,-0.62396,0.0,0.0,0.0
118,1180,1.078394,0.855963,-1.203869,0.0,0.0,0.0
119,1190,1.313349,0.904281,-1.504786,0.0,0.0,0.0
120,1200,1.313349,0.904281,-1.504786,0.0,0.0,0.0
121,1210,1.691437,1.230077,-2.252401,0.0,0.0,0.0
122,1220,1.6111620000000002,1.2992895,-2.3589219999999997,0.0,0.0,0.0
123,1230,1.359526,1.478287,-2.519572,0.0,0.0,0.0
124,1240,1.223349,1.556682,-2.519572,0.0,0.0,0.0
125,1250,1.223349,1.556682,-2.519572,0.0,0.0,0.0
126,1260,1.171361,1.45341,-1.939755,0.0,0.0,0.0
127,1270,1.2054055,1.4359785,-1.8405195,0.0,0.0,0.0
128,1280,1.249954,1.426804,-1.526712,0.0,0.0,0.0
129,1290,1.265551,1.471758,-1.338532,0.0,0.0,0.0
130,1300,1.303165,1.40581,-1.264832,0.0,0.0,0.0
131,1310,1.4313,1.145871,-1.302447,0.0,0.0,0.0
132,1320,1.450107,1.0832795000000002,-1.323907,0.0,0.0,0.0
133,1330,1.4985245,0.9624845,-1.3451605,0.0,0.0,0.0
134,1340,1.684603,0.619465,-1.075031,0.0,0.0,0.0
135,1350,1.726453,0.546988,-1.0003060000000001,0.0,0.0,0.0
136,1360,1.817125,0.341177,-0.785015,0.0,0.0,0.0
137,1370,1.817125,0.341177,-0.785015,0.0,0.0,0.0
138,1380,1.512538,-0.038731,-0.540673,0.0,0.0,0.0
139,1390,1.4221175,-0.10061149999999999,-0.5130965,0.0,0.0,0.0
140,1400,1.143532,-0.255657,-0.479006,0.0,0.0,0.0
141,1410,0.833838,-0.342615,-0.475535,0.0,0.0,0.0
142,1420,0.007844,-0.541697,-0.62711,0.0,0.0,0.0
143,1430,-0.299495,-0.664725,-0.632722,0.0,0.0,0.0
144,1440,-0.424266,-0.817018,-0.562492,0.0,0.0,0.0
145,1450,-0.424266,-0.817018,-0.562492,0.0,0.0,0.0
146,1460,-0.424266,-0.817018,-0.562492,0.0,0.0,0.0
147,1470,-0.424266,-0.817018,-0.562492,0.0,0.0,0.0
148,1480,-0.424266,-0.817018,-0.562492,0.0,0.0,0.0
149,1490,-0.424266,-0.817018,-0.562492,0.0,0.0,0.0
150,1500,-0.424266,-0.817018,-0.562492,0.0,0.0,0.0
151,1510,-0.424266,-0.817018,-0.562492,0.0,0.0,0.0
152,1520,-0.424266,-0.817018,-0.562492,0.0,0.0,0.0
153,1530,-0.424266,-0.817018,-0.562492,0.0,0.0,0.0
154,1540,-0.424266,-0.817018,-0.562492,0.0,0.0,0.0
155,1550,-0.771208,-0.9894495,-0.3239065,0.0,0.0,0.0
156,1560,-0.292966,-1.333226,0.551881,0.0,0.0,0.0
157,1570,-0.17289,-1.370336,0.587049,0.0,0.0,0.0
158,1580,-0.17289,-1.370336,0.587049,0.0,0.0,0.0
159,1590,-0.3624845,-1.378387,0.3347555,0.0,0.0,0.0
160,1600,-0.6853670000000001,-1.275734,0.2392435,0.0,0.0,0.0
161,1610,-1.129159,-1.110596,0.200199,0.0,0.0,0.0
162,1620,-1.261162,-0.987156,0.213868,0.0,0.0,0.0
163,1630,-1.11448,-0.94659,0.249954,0.0,0.0,0.0
164,1640,-0.983379,-0.93344,0.225994,0.0,0.0,0.0
165,1650,-0.970948,-0.928028,0.181346,0.0,0.0,0.0
166,1660,-0.9704895,-0.9096335,0.1132495,0.0,0.0,0.0
167,1670,-1.039037,-0.831697,0.000719,0.0,0.0,0.0
168,1680,-1.104228,-0.7453055,0.0467435,0.0,0.0,0.0
169,1690,-1.331193,-0.515398,0.270749,0.0,0.0,0.0
170,1700,-1.4769115,-0.4249775,0.362997,0.0,0.0,0.0
171,1710,-1.62263,-0.334557,0.455245,0.0,0.0,0.0
172,1720,-1.859128,-0.344755,0.729557,0.0,0.0,0.0
173,1730,-1.7675839999999998,-0.4381265,0.717225,0.0,0.0,0.0
174,1740,-1.644343,-0.629557,0.704893,0.0,0.0,0.0
175,1750,-2.0281345,-0.5519345,1.095512,0.0,0.0,0.0
176,1760,-2.411926,-0.474312,1.486131,0.0,0.0,0.0
177,1770,-2.537515,-0.43954899999999997,1.60331,0.0,0.0,0.0
178,1780,-2.663104,-0.404786,1.720489,0.0,0.0,0.0
179,1790,-3.1514759999999997,-0.2436775,1.682003,0.0,0.0,0.0
180,1800,-3.346177,-0.29419,1.450963,0.0,0.0,0.0
181,1810,-3.175642,-0.401835,1.267997,0.0,0.0,0.0
182,1820,-2.934755,-0.487569,1.172278,0.0,0.0,0.0
183,1830,-2.8949540000000002,-0.5201375,1.167278,0.0,0.0,0.0
184,1840,-2.983792,-0.626193,1.359434,0.0,0.0,0.0
185,1850,-3.033945,-0.6268045,1.4366970000000001,0.0,0.0,0.0
186,1860,-3.194694,-0.589297,1.648731,0.0,0.0,0.0
187,1870,-3.305703,-0.520489,1.717538,0.0,0.0,0.0
188,1880,-3.305703,-0.520489,1.717538,0.0,0.0,0.0
189,1890,-3.399694,-0.388685,1.611315,0.0,0.0,0.0
190,1900,-3.431912,-0.292049,1.472278,0.0,0.0,0.0
191,1910,-3.029159,-0.128028,0.870336,0.0,0.0,0.0
192,1920,-2.560551,-0.145566,0.606009,0.0,0.0,0.0
193,1930,-2.560551,-0.145566,0.606009,0.0,0.0,0.0
194,1940,-2.061162,-0.103869,0.535061,0.0,0.0,0.0
195,1950,-1.962385,-0.067783,0.527217,0.0,0.0,0.0
196,1960,-1.496636,2.293272,1.117125,0.0,0.0,0.0
197,1970,-3.756988,0.362492,3.250765,0.0,0.0,0.0
198,1980,-3.756988,0.362492,3.250765,0.0,0.0,0.0
199,1990,-3.756988,0.362492,3.250765,0.0,0.0,0.0
200,2000,-3.756988,0.362492,3.250765,0.0,0.0,0.0
201,2010,-3.756988,0.362492,3.250765,0.0,0.0,0.0
202,2020,-3.756988,0.362492,3.250765,0.0,0.0,0.0
203,2030,-3.756988,0.362492,3.250765,0.0,0.0,0.0
204,2040,-3.756988,0.362492,3.250765,0.0,0.0,0.0
205,2050,-3.756988,0.362492,3.250765,0.0,0.0,0.0
206,2060,-3.756988,0.362492,3.250765,0.0,0.0,0.0
207,2070,-3.756988,0.362492,3.250765,0.0,0.0,0.0
208,2080,-1.618242,-0.494908,-2.047293,0.0,0.0,0.0
209,2090,-1.389801,-0.513868,-0.935168,0.0,0.0,0.0
210,2100,-1.388838,-0.47130700000000003,-0.710344,0.0,0.0,0.0
211,2110,-1.560352,-0.385015,-0.00081,0.0,0.0,0.0
212,2120,-1.684098,-0.3678365,0.074159,0.0,0.0,0.0
213,2130,-1.9465824999999999,-0.285826,0.149128,0.0,0.0,0.0
214,2140,-2.638945,-0.107538,-0.166361,0.0,0.0,0.0
215,2150,-2.80948,-0.130168,-0.319373,0.0,0.0,0.0
216,2160,-2.795971,-0.17741600000000002,-0.3392505,0.0,0.0,0.0
217,2170,-2.715092,-0.29133,-0.361575,0.0,0.0,0.0
218,2180,-2.700918,-0.353318,-0.262691,0.0,0.0,0.0
219,2190,-2.839557,-0.342309,-0.224664,0.0,0.0,0.0
220,2200,-2.949748,-0.33828,-0.2069805,0.0,0.0,0.0
221,2210,-3.059939,-0.334251,-0.189297,0.0,0.0,0.0
222,2220,-3.261269,-0.313761,-0.109679,0.0,0.0,0.0
223,2230,-3.261269,-0.313761,-0.109679,0.0,0.0,0.0
224,2240,-3.336697,-0.427523,-0.182309,0.0,0.0,0.0
225,2250,-3.30815,-0.568089,-0.188991,0.0,0.0,0.0
226,2260,-3.061361,-0.558104,0.004174,0.0,0.0,0.0
227,2270,-2.801422,-0.557599,0.074205,0.0,0.0,0.0
228,2280,-2.801422,-0.557599,0.074205,0.0,0.0,0.0
229,2290,-2.239862,-0.629862,0.28685,0.0,0.0,0.0
230,2300,-2.111009,-0.645818,0.35346299999999997,0.0,0.0,0.0
231,2310,-1.982156,-0.661774,0.420076,0.0,0.0,0.0
232,2320,-1.61896,-0.6497935,0.880994,0.0,0.0,0.0
233,2330,-1.5823625,-0.6137075000000001,1.0527065,0.0,0.0,0.0
234,2340,-1.405917,-0.596835,1.380734,0.0,0.0,0.0
235,2350,-1.337821,-0.6000460000000001,1.4207415,0.0,0.0,0.0
236,2360,-1.223043,-0.667691,1.53078,0.0,0.0,0.0
237,2370,-1.187462,-0.753517,1.567171,0.0,0.0,0.0
238,2380,-1.187462,-0.753517,1.567171,0.0,0.0,0.0
239,2390,-0.902339,-0.85974,1.58818,0.0,0.0,0.0
240,2400,-0.836284,-0.776758,1.618655,0.0,0.0,0.0
241,2410,-0.8324615,-0.7891969999999999,1.6040295,0.0,0.0,0.0
242,2420,-0.958517,-1.038119,1.361667,0.0,0.0,0.0
243,2430,-0.99633,-1.202859,1.166866,0.0,0.0,0.0
244,2440,-0.9982645000000001,-1.2339985,1.082309,0.0,0.0,0.0
245,2450,-0.9830275,-1.2475535,0.9442889999999999,0.0,0.0,0.0
246,2460,-0.9092275000000001,-1.1779815,0.8005585,0.0,0.0,0.0
247,2470,-0.816713,-1.113761,0.620902,0.0,0.0,0.0
248,2480,-0.816713,-1.113761,0.620902,0.0,0.0,0.0
249,2490,-0.769618,-1.092049,0.486239,0.0,0.0,0.0
250,2500,-0.769618,-1.092049,0.486239,0.0,0.0,0.0
251,2510,-0.769618,-1.092049,0.486239,0.0,0.0,0.0
252,2520,-0.769618,-1.092049,0.486239,0.0,0.0,0.0
253,2530,-0.769618,-1.092049,0.486239,0.0,0.0,0.0
254,2540,-0.769618,-1.092049,0.486239,0.0,0.0,0.0
255,2550,-0.769618,-1.092049,0.486239,0.0,0.0,0.0
256,2560,-0.769618,-1.092049,0.486239,0.0,0.0,0.0
257,2570,-0.769618,-1.092049,0.486239,0.0,0.0,0.0
258,2580,-0.769618,-1.092049,0.486239,0.0,0.0,0.0
259,2590,-0.769618,-1.092049,0.486239,0.0,0.0,0.0
260,2600,-0.769618,-1.092049,0.486239,0.0,0.0,0.0
261,2610,-0.5722780000000001,-0.5679965,-0.0567815,0.0,0.0,0.0
262,2620,-0.1282415,-0.4570335,0.057645499999999995,0.0,0.0,0.0
263,2630,0.202645,-0.393777,0.157187,0.0,0.0,0.0
264,2640,0.5815445,-0.431399,0.13705699999999998,0.0,0.0,0.0
265,2650,0.683685,-0.52513,0.0924085,0.0,0.0,0.0
266,2660,0.625887,-0.255459,0.025382,0.0,0.0,0.0
267,2670,0.79133,-0.044541,0.10448,0.0,0.0,0.0
268,2680,0.79133,-0.044541,0.10448,0.0,0.0,0.0
269,2690,1.490627,0.165443,0.172584,0.0,0.0,0.0
270,2700,2.060963,0.170336,0.174006,0.0,0.0,0.0
271,2710,3.09919,0.058104,-0.098272,0.0,0.0,0.0
272,2720,3.09919,0.058104,-0.098272,0.0,0.0,0.0
273,2730,3.09919,0.058104,-0.098272,0.0,0.0,0.0
274,2740,3.3983185000000002,0.1655965,-0.5064755,0.0,0.0,0.0
275,2750,3.841697,0.310505,-1.209679,0.0,0.0,0.0
276,2760,4.123548,0.152294,-1.61315,0.0,0.0,0.0
277,2770,4.170031,0.1036165,-1.6563685000000001,0.0,0.0,0.0
278,2780,4.163815,-0.0010244999999999976,-1.675382,0.0,0.0,0.0
279,2790,3.821911,-0.174113,-1.255153,0.0,0.0,0.0
280,2800,3.496024,-0.242706,-0.838532,0.0,0.0,0.0
281,2810,3.14026,-0.309587,-0.452599,0.0,0.0,0.0
282,2820,2.8696715,-0.3722245,-0.12023699999999998,0.0,0.0,0.0
283,2830,2.412745,-0.561521,0.3892965,0.0,0.0,0.0
284,2840,2.226407,-0.68818,0.566468,0.0,0.0,0.0
285,2850,2.005306,-0.827324,0.577982,0.0,0.0,0.0
286,2860,1.6685015,-0.8950075,0.5279285,0.0,0.0,0.0
287,2870,1.331697,-0.962691,0.477875,0.0,0.0,0.0
288,2880,1.006621,-0.996942,0.373196,0.0,0.0,0.0
289,2890,0.42854000000000003,-1.1369495,0.26555,0.0,0.0,0.0
290,2900,0.0694725,-1.2262995,0.203318,0.0,0.0,0.0
291,2910,-0.656162,-1.362798,-0.003058,0.0,0.0,0.0
292,2920,-0.763402,-1.3979125,-0.0671255,0.0,0.0,0.0
293,2930,-0.870642,-1.433027,-0.131193,0.0,0.0,0.0
294,2940,-0.9459249999999999,-1.5029585,-0.3029055,0.0,0.0,0.0
295,2950,-1.055856,-1.523853,-0.474618,0.0,0.0,0.0
296,2960,-1.083333,-1.465497,-0.45300450000000003,0.0,0.0,0.0
297,2970,-1.147401,-1.335367,-0.244648,0.0,0.0,0.0
298,2980,-1.147401,-1.335367,-0.244648,0.0,0.0,0.0
299,2990,-1.193425,-1.3128440000000001,-0.0122325,0.0,0.0,0.0
300,3000,-1.23578,-1.306835,0.004388,0.0,0.0,0.0
301,3010,-1.284297,-1.301223,-0.111422,0.0,0.0,0.0
302,3020,-1.326101,-1.295612,-0.228547,0.0,0.0,0.0
303,3030,-1.326101,-1.295612,-0.228547,0.0,0.0,0.0
304,3040,-1.326101,-1.295612,-0.228547,0.0,0.0,0.0
305,3050,-1.326101,-1.295612,-0.228547,0.0,0.0,0.0
306,3060,-1.326101,-1.295612,-0.228547,0.0,0.0,0.0
307,3070,-1.326101,-1.295612,-0.228547,0.0,0.0,0.0
308,3080,-1.326101,-1.295612,-0.228547,0.0,0.0,0.0
309,3090,-1.326101,-1.295612,-0.228547,0.0,0.0,0.0
310,3100,-1.326101,-1.295612,-0.228547,0.0,0.0,0.0
311,3110,-1.326101,-1.295612,-0.228547,0.0,0.0,0.0
312,3120,-1.3345105,-1.290979,-0.243578,0.0,0.0,0.0
313,3130,-1.424664,-0.804786,-0.017737,0.0,0.0,0.0
314,3140,-1.3206955,-0.763356,-0.032928,0.0,0.0,0.0
315,3150,-1.3463764999999999,-0.580887,-0.057691,0.0,0.0,0.0
316,3160,-1.4213,-0.467783,-0.087966,0.0,0.0,0.0
317,3170,-1.485367,-0.3158485,-0.154992,0.0,0.0,0.0
318,3180,-1.549434,-0.163914,-0.222018,0.0,0.0,0.0
319,3190,-2.411208,0.112034,-0.271758,0.0,0.0,0.0
320,3200,-2.411208,0.112034,-0.271758,0.0,0.0,0.0
321,3210,-2.532263,0.0624925,-0.2373545,0.0,0.0,0.0
322,3220,-2.653318,0.012951,-0.202951,0.0,0.0,0.0
323,3230,-2.653318,0.012951,-0.202951,0.0,0.0,0.0
324,3240,-2.6496485,0.10240049999999999,-0.196376,0.0,0.0,0.0
325,3250,-2.516101,0.027829,-0.246896,0.0,0.0,0.0
326,3260,-2.524663,-0.581238,-0.295413,0.0,0.0,0.0
327,3270,-2.739954,-0.784098,-0.151682,0.0,0.0,0.0
328,3280,-2.809174,-0.7617735,0.015955499999999997,0.0,0.0,0.0
329,3290,-3.033532,-0.528547,0.597248,0.0,0.0,0.0
330,3300,-3.180734,-0.382875,0.79052,0.0,0.0,0.0
331,3310,-3.615703,-0.279312,0.735673,0.0,0.0,0.0
332,3320,-3.684511,-0.428945,0.499893,0.0,0.0,0.0
333,3330,-3.684511,-0.428945,0.499893,0.0,0.0,0.0
334,3340,-3.4893425000000002,-0.6233485000000001,-0.174419,0.0,0.0,0.0
335,3350,-3.33445,-0.653012,-0.492156,0.0,0.0,0.0
336,3360,-3.199083,-0.226101,-0.712339,0.0,0.0,0.0
337,3370,-3.3524465,-0.067997,-0.754182,0.0,0.0,0.0
338,3380,-3.856934,0.315948,-1.0497480000000001,0.0,0.0,0.0
339,3390,-4.208058,0.541789,-1.303471,0.0,0.0,0.0
340,3400,-4.2564755000000005,0.562332,-1.4150915,0.0,0.0,0.0
341,3410,-4.416926,0.651376,-1.782982,0.0,0.0,0.0
342,3420,-4.541178,0.726606,-1.757385,0.0,0.0,0.0
343,3430,-4.541178,0.726606,-1.757385,0.0,0.0,0.0
344,3440,-4.660046,0.872064,-1.280734,0.0,0.0,0.0
345,3450,-4.623853,0.955245,-0.998058,0.0,0.0,0.0
346,3460,-4.290015,0.774725,-0.754235,0.0,0.0,0.0
347,3470,-4.054235,0.49133,-0.815795,0.0,0.0,0.0
348,3480,-3.823654,0.210902,-1.008364,0.0,0.0,0.0
349,3490,-3.562187,-0.0263,-1.208976,0.0,0.0,0.0
350,3500,-3.196835,-0.245872,-1.277064,0.0,0.0,0.0
351,3510,-2.9460705000000003,-0.2756885,-1.2206955,0.0,0.0,0.0
352,3520,-2.445566,-0.201223,-0.916101,0.0,0.0,0.0
353,3530,-2.445566,-0.201223,-0.916101,0.0,0.0,0.0
354,3540,-1.890627,0.102034,-0.167783,0.0,0.0,0.0
355,3550,-1.890627,0.102034,-0.167783,0.0,0.0,0.0
356,3560,-1.890627,0.102034,-0.167783,0.0,0.0,0.0
357,3570,-1.890627,0.102034,-0.167783,0.0,0.0,0.0
358,3580,-1.890627,0.102034,-0.167783,0.0,0.0,0.0
359,3590,-1.890627,0.102034,-0.167783,0.0,0.0,0.0
360,3600,-1.890627,0.102034,-0.167783,0.0,0.0,0.0
361,3610,-1.890627,0.102034,-0.167783,0.0,0.0,0.0
362,3620,-1.890627,0.102034,-0.167783,0.0,0.0,0.0
363,3630,-1.890627,0.102034,-0.167783,0.0,0.0,0.0
364,3640,-1.890627,0.102034,-0.167783,0.0,0.0,0.0
365,3650,-1.890627,0.102034,-0.167783,0.0,0.0,0.0
366,3660,-1.8409255,-0.839602,0.0952065,0.0,0.0,0.0
367,3670,-2.006017,-0.8989294999999999,0.15269850000000001,0.0,0.0,0.0
368,3680,-2.0511775,-0.9558104999999999,0.20336349999999997,0.0,0.0,0.0
369,3690,-2.061972,-1.129664,0.274618,0.0,0.0,0.0
370,3700,-2.043119,-1.31396,0.381544,0.0,0.0,0.0
371,3710,-2.048012,-1.326407,0.441789,0.0,0.0,0.0
372,3720,-2.08685,-1.33711,0.476651,0.0,0.0,0.0
373,3730,-2.08685,-1.33711,0.476651,0.0,0.0,0.0
374,3740,-2.1092735,-1.3761465,0.4572855,0.0,0.0,0.0
375,3750,-2.131697,-1.415183,0.43792,0.0,0.0,0.0
376,3760,-2.206223,-1.562691,0.288486,0.0,0.0,0.0
377,3770,-2.182064,-1.664939,0.142615,0.0,0.0,0.0
378,3780,-2.0571865000000003,-1.7011775,0.140627,0.0,0.0,0.0
379,3790,-1.804893,-1.749648,0.147202,0.0,0.0,0.0
380,3800,-1.67604,-1.785214,0.149847,0.0,0.0,0.0
381,3810,-1.605757,-1.8013225,0.128899,0.0,0.0,0.0
382,3820,-1.455963,-1.812125,0.015596,0.0,0.0,0.0
383,3830,-1.449847,-1.697141,-0.017737,0.0,0.0,0.0
384,3840,-1.444235,-1.525795,-0.016514,0.0,0.0,0.0
385,3850,-1.35026,-1.238028,0.017324,0.0,0.0,0.0
386,3860,-1.09766,-1.052798,0.078394,0.0,0.0,0.0
387,3870,-0.310505,-0.913654,0.09419,0.0,0.0,0.0
388,3880,0.015902,-0.904694,0.089801,0.0,0.0,0.0
389,3890,0.23711,-0.899801,0.076453,0.0,0.0,0.0
390,3900,0.30993899999999996,-0.8694189999999999,0.0712005,0.0,0.0,0.0
391,3910,0.447202,-0.519067,0.072278,0.0,0.0,0.0
392,3920,0.43792,-0.232003,0.074924,0.0,0.0,0.0
393,3930,0.43792,-0.232003,0.074924,0.0,0.0,0.0
394,3940,0.488884,-0.172676,-0.023349,0.0,0.0,0.0
395,3950,0.915092,-0.521208,-0.061162,0.0,0.0,0.0
396,3960,1.315596,-0.734251,-0.086544,0.0,0.0,0.0
397,3970,1.717538,-0.770642,-0.053517,0.0,0.0,0.0
398,3980,1.8793574999999998,-0.718807,0.015236999999999997,0.0,0.0,0.0
399,3990,2.329664,-0.414266,0.407645,0.0,0.0,0.0
400,4000,2.336498,-0.343012,0.452492,0.0,0.0,0.0
401,4010,2.3346635,-0.3249695,0.45264499999999996,0.0,0.0,0.0
402,4020,2.233746,-0.305917,0.103058,0.0,0.0,0.0
403,4030,2.233746,-0.305917,0.103058,0.0,0.0,0.0
404,4040,2.092462,-0.30867,-0.21396,0.0,0.0,0.0
405,4050,2.003563,-0.295214,-0.228333,0.0,0.0,0.0
406,4060,2.0382265000000004,-0.29301999999999995,-0.1724235,0.0,0.0,0.0
407,4070,2.1350154999999997,-0.306063,-0.037156,0.0,0.0,0.0
408,4080,2.197141,-0.3213,0.042202,0.0,0.0,0.0
409,4090,2.197141,-0.3213,0.042202,0.0,0.0,0.0
410,4100,2.197141,-0.3213,0.042202,0.0,0.0,0.0
411,4110,2.197141,-0.3213,0.042202,0.0,0.0,0.0
412,4120,2.197141,-0.3213,0.042202,0.0,0.0,0.0
413,4130,2.197141,-0.3213,0.042202,0.0,0.0,0.0
414,4140,2.197141,-0.3213,0.042202,0.0,0.0,0.0
415,4150,2.197141,-0.3213,0.042202,0.0,0.0,0.0
416,4160,2.197141,-0.3213,0.042202,0.0,0.0,0.0
417,4170,2.197141,-0.3213,0.042202,0.0,0.0,0.0
418,4180,1.911567,-0.426659,0.092913,0.0,0.0,0.0
419,4190,1.794388,-0.45607,0.072783,0.0,0.0,0.0
420,4200,1.582875,-0.505398,0.065443,0.0,0.0,0.0
421,4210,1.582875,-0.505398,0.065443,0.0,0.0,0.0
422,4220,1.144954,-0.735061,0.360749,0.0,0.0,0.0
423,4230,1.144954,-0.735061,0.360749,0.0,0.0,0.0
424,4240,1.144954,-0.735061,0.360749,0.0,0.0,0.0
425,4250,0.527018,-0.951789,0.743226,0.0,0.0,0.0
426,4260,0.075948,-1.059434,0.811315,0.0,0.0,0.0
427,4270,-0.118654,-1.150872,0.693165,0.0,0.0,0.0
428,4280,-0.239503,-1.1969954999999999,0.617737,0.0,0.0,0.0
429,4290,-0.360352,-1.243119,0.542309,0.0,0.0,0.0
430,4300,-1.6105505,-1.3160015,-0.16448000000000002,0.0,0.0,0.0
431,4310,-1.725887,-1.300505,-0.235887,0.0,0.0,0.0
432,4320,-1.761269,-1.261269,-0.309373,0.0,0.0,0.0
433,4330,-1.761269,-1.261269,-0.309373,0.0,0.0,0.0
434,4340,-1.65922,-1.196529,-0.317125,0.0,0.0,0.0
435,4350,-1.4014755,-1.145665,-0.2669725,0.0,0.0,0.0
436,4360,-1.011926,-1.087462,-0.205917,0.0,0.0,0.0
437,4370,-1.076453,-1.165031,-0.389602,0.0,0.0,0.0
438,4380,-1.21182,-1.182676,-0.576346,0.0,0.0,0.0
439,4390,-1.322431,-1.157492,-0.751376,0.0,0.0,0.0
440,4400,-1.374205,-1.074725,-0.779205,0.0,0.0,0.0
441,4410,-1.384908,-1.003777,-0.659832,0.0,0.0,0.0
442,4420,-1.290933,-0.990321,-0.416713,0.0,0.0,0.0
443,4430,-1.217018,-0.992966,-0.206621,0.0,0.0,0.0
444,4440,-1.14526,-1.004694,-0.003777,0.0,0.0,0.0
445,4450,-1.061972,-1.01396,0.164526,0.0,0.0,0.0
446,4460,-0.981453,-0.96422,0.290413,0.0,0.0,0.0
447,4470,-1.028333,-0.905612,0.245765,0.0,0.0,0.0
448,4480,-1.1213,-0.899801,0.078899,0.0,0.0,0.0
449,4490,-1.212339,-0.85974,-0.128242,0.0,0.0,0.0
450,4500,-1.327523,-0.737202,-0.381544,0.0,0.0,0.0
451,4510,-1.363914,-0.65841,-0.494388,0.0,0.0,0.0
452,4520,-1.324878,-0.643012,-0.500413,0.0,0.0,0.0
453,4530,-1.324878,-0.643012,-0.500413,0.0,0.0,0.0
454,4540,-1.324878,-0.643012,-0.500413,0.0,0.0,0.0
455,4550,-1.2625915,-0.553058,-0.27151400000000003,0.0,0.0,0.0
456,4560,-1.684098,-0.423853,-0.300306,0.0,0.0,0.0
457,4570,-2.166667,-0.407446,-0.461361,0.0,0.0,0.0
458,4580,-2.559121,-0.3450075,-0.5327675000000001,0.0,0.0,0.0
459,4590,-3.04159,-0.080428,-0.505306,0.0,0.0,0.0
460,4600,-3.04159,-0.080428,-0.505306,0.0,0.0,0.0
461,4610,-3.04159,-0.080428,-0.505306,0.0,0.0,0.0
462,4620,-3.04159,-0.080428,-0.505306,0.0,0.0,0.0
463,4630,-3.04159,-0.080428,-0.505306,0.0,0.0,0.0
464,4640,-3.04159,-0.080428,-0.505306,0.0,0.0,0.0
465,4650,-3.04159,-0.080428,-0.505306,0.0,0.0,0.0
466,4660,-3.04159,-0.080428,-0.505306,0.0,0.0,0.0
467,4670,-3.04159,-0.080428,-0.505306,0.0,0.0,0.0
468,4680,-3.04159,-0.080428,-0.505306,0.0,0.0,0.0
469,4690,-3.04159,-0.080428,-0.505306,0.0,0.0,0.0
470,4700,-3.693074,-0.727018,-0.715489,0.0,0.0,0.0
471,4710,-3.7372095,-0.116208,-0.2163605,0.0,0.0,0.0
472,4720,-3.650765,-0.211514,-0.526606,0.0,0.0,0.0
473,4730,-3.650765,-0.211514,-0.526606,0.0,0.0,0.0
474,4740,-3.650765,-0.211514,-0.526606,0.0,0.0,0.0
475,4750,-3.650765,-0.211514,-0.526606,0.0,0.0,0.0
476,4760,-2.684297,-0.341086,-0.860443,0.0,0.0,0.0
477,4770,-2.507141,-0.195413,-0.847294,0.0,0.0,0.0
478,4780,-2.507141,-0.195413,-0.847294,0.0,0.0,0.0
479,4790,-2.287661,0.677263,-1.012034,0.0,0.0,0.0
480,4800,-2.254228,0.787462,-1.0977065000000001,0.0,0.0,0.0
481,4810,-2.1838455,0.9456195000000001,-1.269419,0.0,0.0,0.0
482,4820,-2.15341,1.192967,-1.765443,0.0,0.0,0.0
483,4830,-2.2090674999999997,1.2353215,-1.8558634999999999,0.0,0.0,0.0
484,4840,-2.363609,1.310199,-2.089098,0.0,0.0,0.0
485,4850,-2.401223,1.273287,-2.209174,0.0,0.0,0.0
486,4860,-2.306728,1.115184,-2.28237,0.0,0.0,0.0
487,4870,-2.259633,0.896942,-2.291942,0.0,0.0,0.0
488,4880,-2.248876,0.704029,-2.257997,0.0,0.0,0.0
489,4890,-2.238119,0.511116,-2.224052,0.0,0.0,0.0
490,4900,-2.242508,0.398578,-2.11763,0.0,0.0,0.0
491,4910,-2.5313,0.251682,-1.821101,0.0,0.0,0.0
492,4920,-2.619167,0.222118,-1.7325154999999999,0.0,0.0,0.0
493,4930,-2.7714605,0.159985,-1.5575385,0.0,0.0,0.0
494,4940,-2.878089,-0.079709,-1.150352,0.0,0.0,0.0
495,4950,-2.880015,-0.196835,-1.059633,0.0,0.0,0.0
496,4960,-2.917125,-0.352095,-1.052095,0.0,0.0,0.0
497,4970,-3.090719,-0.641284,-1.084511,0.0,0.0,0.0
498,4980,-3.126552,-0.6929125,-1.10393,0.0,0.0,0.0
499,4990,-3.273502,-1.120183,-1.209174,0.0,0.0,0.0
500,5000,-3.273502,-1.120183,-1.209174,0.0,0.0,0.0
501,5010,-3.2536240000000003,-1.237668,-1.1567275000000001,0.0,0.0,0.0
502,5020,-2.915703,-1.398165,-0.724266,0.0,0.0,0.0
503,5030,-2.915703,-1.398165,-0.724266,0.0,0.0,0.0
504,5040,-2.512232,-1.205092,-0.267385,0.0,0.0,0.0
505,5050,-2.283792,-1.074006,-0.114373,0.0,0.0,0.0
506,5060,-2.142508,-0.94659,-0.035474,0.0,0.0,0.0
507,5070,-2.058823,-0.624465,0.015596,0.0,0.0,0.0
508,5080,-2.054893,-0.5622325,0.0327215,0.0,0.0,0.0
509,5090,-2.0311925,-0.45606250000000004,0.087408,0.0,0.0,0.0
510,5100,-1.897966,-0.295719,0.242921,0.0,0.0,0.0
511,5110,-1.773502,-0.180229,0.355352,0.0,0.0,0.0
512,5120,-1.773502,-0.180229,0.355352,0.0,0.0,0.0
513,5130,-1.773502,-0.180229,0.355352,0.0,0.0,0.0
514,5140,-1.773502,-0.180229,0.355352,0.0,0.0,0.0
515,5150,-1.773502,-0.180229,0.355352,0.0,0.0,0.0
516,5160,-1.773502,-0.180229,0.355352,0.0,0.0,0.0
517,5170,-1.773502,-0.180229,0.355352,0.0,0.0,0.0
518,5180,-1.773502,-0.180229,0.355352,0.0,0.0,0.0
519,5190,-1.773502,-0.180229,0.355352,0.0,0.0,0.0
520,5200,-1.773502,-0.180229,0.355352,0.0,0.0,0.0
521,5210,-1.773502,-0.180229,0.355352,0.0,0.0,0.0
522,5220,-1.773502,-0.180229,0.355352,0.0,0.0,0.0
523,5230,-1.245566,-1.075948,-0.15922,0.0,0.0,0.0
524,5240,-1.245566,-1.075948,-0.15922,0.0,0.0,0.0
525,5250,-1.245566,-1.075948,-0.15922,0.0,0.0,0.0
526,5260,-1.544236,-1.094495,-0.198058,0.0,0.0,0.0
527,5270,-1.584817,-1.092553,-0.187355,0.0,0.0,0.0
528,5280,-1.584817,-1.092553,-0.187355,0.0,0.0,0.0
529,5290,-1.5830735,-1.0758945,-0.16217900000000002,0.0,0.0,0.0
530,5300,-1.439342,-1.107752,-0.12263,0.0,0.0,0.0
531,5310,-1.351988,-1.146483,-0.118242,0.0,0.0,0.0
532,5320,-1.3161085,-1.165191,-0.1510705,0.0,0.0,0.0
533,5330,-1.2200305,-1.187309,-0.21977800000000003,0.0,0.0,0.0
534,5340,-1.050765,-1.027936,-0.327416,0.0,0.0,0.0
535,5350,-1.0539225,-0.982164,-0.332416,0.0,0.0,0.0
536,5360,-1.064419,-0.844144,-0.351575,0.0,0.0,0.0
537,5370,-0.8787,-0.664725,-0.397446,0.0,0.0,0.0
538,5380,-0.6970945,-0.555245,-0.40611600000000003,0.0,0.0,0.0
539,5390,-0.1399085,-0.15331050000000002,-0.3515825,0.0,0.0,0.0
540,5400,-0.03078,-0.067278,-0.290826,0.0,0.0,0.0
541,5410,0.117018,-0.100917,-0.007446,0.0,0.0,0.0
542,5420,0.080122,-0.437003,0.118654,0.0,0.0,0.0
543,5430,0.207752,-0.611315,0.132829,0.0,0.0,0.0
544,5440,0.35932699999999995,-0.612997,0.139404,0.0,0.0,0.0
545,5450,0.9136084999999999,-0.508662,0.17125400000000002,0.0,0.0,0.0
546,5460,1.316315,-0.402645,0.196529,0.0,0.0,0.0
547,5470,1.519878,-0.541697,0.061972,0.0,0.0,0.0
548,5480,1.6410325000000001,-0.585986,0.005909499999999998,0.0,0.0,0.0
549,5490,1.856682,-0.6636085,-0.0788455,0.0,0.0,0.0
550,5500,2.285734,-0.715291,0.020994,0.0,0.0,0.0
551,5510,2.285734,-0.715291,0.020994,0.0,0.0,0.0
552,5520,2.837813,-0.667385,0.630168,0.0,0.0,0.0
553,5530,2.837813,-0.667385,0.630168,0.0,0.0,0.0
554,5540,2.837813,-0.667385,0.630168,0.0,0.0,0.0
555,5550,2.9618195,-0.645459,0.8114145,0.0,0.0,0.0
556,5560,2.8849085,-0.6132495,0.692454,0.0,0.0,0.0
557,5570,2.779205,-0.557798,0.449342,0.0,0.0,0.0
558,5580,2.779205,-0.557798,0.449342,0.0,0.0,0.0
559,5590,2.695,-0.404281,0.319465,0.0,0.0,0.0
560,5600,2.693074,-0.339648,0.393471,0.0,0.0,0.0
561,5610,2.656269,-0.300306,0.610398,0.0,0.0,0.0
562,5620,2.614067,-0.343532,0.862278,0.0,0.0,0.0
563,5630,2.610497,-0.38578,0.9344034999999999,0.0,0.0,0.0
564,5640,2.597141,-0.465856,1.137615,0.0,0.0,0.0
565,5650,2.597141,-0.465856,1.137615,0.0,0.0,0.0
566,5660,2.597141,-0.465856,1.137615,0.0,0.0,0.0
567,5670,2.597141,-0.465856,1.137615,0.0,0.0,0.0
568,5680,2.597141,-0.465856,1.137615,0.0,0.0,0.0
569,5690,2.597141,-0.465856,1.137615,0.0,0.0,0.0
570,5700,2.597141,-0.465856,1.137615,0.0,0.0,0.0
571,5710,2.597141,-0.465856,1.137615,0.0,0.0,0.0
572,5720,2.597141,-0.465856,1.137615,0.0,0.0,0.0
573,5730,2.597141,-0.465856,1.137615,0.0,0.0,0.0
574,5740,2.597141,-0.465856,1.137615,0.0,0.0,0.0
575,5750,0.096743,-0.813349,0.849847,0.0,0.0,0.0
576,5760,-0.07578750000000001,-0.979916,0.7867505,0.0,0.0,0.0
577,5770,-0.389243,-1.2325149999999998,0.625688,0.0,0.0,0.0
578,5780,-0.698578,-1.405,0.32263,0.0,0.0,0.0
579,5790,-1.025887,-1.570443,-0.18685,0.0,0.0,0.0
580,5800,-1.123242,-1.607538,-0.411621,0.0,0.0,0.0
581,5810,-1.123242,-1.607538,-0.411621,0.0,0.0,0.0
582,5820,-1.044144,-1.65026,-0.742615,0.0,0.0,0.0
583,5830,-0.982676,-1.511116,-0.70448,0.0,0.0,0.0
584,5840,-0.947813,-1.416208,-0.626101,0.0,0.0,0.0
585,5850,-0.984908,-1.345673,-0.543425,0.0,0.0,0.0
586,5860,-1.0647245,-1.3483714999999998,-0.5457185,0.0,0.0,0.0
587,5870,-1.364939,-1.35393,-0.696437,0.0,0.0,0.0
588,5880,-1.436292,-1.3132035000000002,-0.7638149999999999,0.0,0.0,0.0
589,5890,-1.580122,-1.184603,-0.895612,0.0,0.0,0.0
590,5900,-1.592355,-1.076957,-0.849434,0.0,0.0,0.0
591,5910,-1.45474,-1.012538,-0.657599,0.0,0.0,0.0
592,5920,-1.375428,-1.013456,-0.535367,0.0,0.0,0.0
593,5930,-1.286544,-1.020596,-0.416713,0.0,0.0,0.0
594,5940,-1.2656955,-1.0138685,-0.3058105,0.0,0.0,0.0
595,5950,-1.248876,-0.988586,-0.17635299999999998,0.0,0.0,0.0
596,5960,-1.252905,-0.970031,-0.157798,0.0,0.0,0.0
597,5970,-1.357286,-0.9063224999999999,-0.165856,0.0,0.0,0.0
598,5980,-1.4469954999999999,-0.8051984999999999,-0.246483,0.0,0.0,0.0
599,5990,-1.759526,-0.422324,-0.53344,0.0,0.0,0.0
600,6000,-1.944037,-0.334557,-0.602248,0.0,0.0,0.0
601,6010,-2.012133,-0.3324695,-0.6201835,0.0,0.0,0.0
602,6020,-1.952095,-0.284205,-0.644235,0.0,0.0,0.0
603,6030,-1.8239605,-0.1446025,-0.606521,0.0,0.0,0.0
604,6040,-1.695826,-0.005,-0.568807,0.0,0.0,0.0
605,6050,-1.697355,0.130581,-0.558823,0.0,0.0,0.0
606,6060,-1.8338995,0.094243,-0.603823,0.0,0.0,0.0
607,6070,-2.2322175,-0.0011164999999999994,-0.7732875,0.0,0.0,0.0
608,6080,-2.6357795,0.077271,-1.055963,0.0,0.0,0.0
609,6090,-2.637003,0.128135,-1.094801,0.0,0.0,0.0
610,6100,-2.429465,0.006621,-1.228746,0.0,0.0,0.0
611,6110,-2.3258945,-0.185168,-1.326506,0.0,0.0,0.0
612,6120,-2.088272,-0.500719,-1.516514,0.0,0.0,0.0
613,6130,-2.0693655,-0.50143,-1.5208944999999998,0.0,0.0,0.0
614,6140,-2.137309,-0.477569,-1.39052,0.0,0.0,0.0
615,6150,-2.356269,-0.433333,-1.340979,0.0,0.0,0.0
616,6160,-2.4503595000000002,-0.3945485,-1.3417435,0.0,0.0,0.0
617,6170,-2.54445,-0.355764,-1.342508,0.0,0.0,0.0
618,6180,-2.54445,-0.355764,-1.342508,0.0,0.0,0.0
619,6190,-2.54445,-0.355764,-1.342508,0.0,0.0,0.0
620,6200,-2.54445,-0.355764,-1.342508,0.0,0.0,0.0
621,6210,-2.54445,-0.355764,-1.342508,0.0,0.0,0.0
622,6220,-2.54445,-0.355764,-1.342508,0.0,0.0,0.0
623,6230,-2.54445,-0.355764,-1.342508,0.0,0.0,0.0
624,6240,-2.54445,-0.355764,-1.342508,0.0,0.0,0.0
625,6250,-2.54445,-0.355764,-1.342508,0.0,0.0,0.0
626,6260,-2.54445,-0.355764,-1.342508,0.0,0.0,0.0
627,6270,-2.54445,-0.355764,-1.342508,0.0,0.0,0.0
628,6280,-1.568394,-0.400413,-1.255153,0.0,0.0,0.0
629,6290,-1.38685,-0.330076,-1.383991,0.0,0.0,0.0
630,6300,-1.3051985,-0.3188605,-1.4432725,0.0,0.0,0.0
631,6310,-1.1562155,-0.299136,-1.502554,0.0,0.0,0.0
632,6320,-1.012951,-0.229771,-1.425688,0.0,0.0,0.0
633,6330,-0.870642,-0.185826,-1.258716,0.0,0.0,0.0
634,6340,-0.615795,-0.165138,-1.125489,0.0,0.0,0.0
635,6350,-0.412339,-0.100917,-1.129862,0.0,0.0,0.0
636,6360,-0.412339,-0.100917,-1.129862,0.0,0.0,0.0
637,6370,0.199694,-0.04159,-1.887768,0.0,0.0,0.0
638,6380,0.199694,-0.04159,-1.887768,0.0,0.0,0.0
639,6390,0.311514,-0.2737,-2.480015,0.0,0.0,0.0
640,6400,0.31819600000000003,-0.3099385,-2.5216589999999997,0.0,0.0,0.0
641,6410,0.318547,-0.352294,-2.403165,0.0,0.0,0.0
642,6420,0.310505,-0.279618,-2.036392,0.0,0.0,0.0
643,6430,0.315184,-0.271758,-1.701728,0.0,0.0,0.0
644,6440,0.307339,-0.28104,-1.41396,0.0,0.0,0.0
645,6450,0.24694149999999998,-0.291644,-1.3158485,0.0,0.0,0.0
646,6460,0.07456399999999999,-0.160604,-1.17039,0.0,0.0,0.0
647,6470,-0.126713,0.092966,-1.235367,0.0,0.0,0.0
648,6480,-0.2592815,0.077622,-1.3298165000000002,0.0,0.0,0.0
649,6490,-0.799587,-0.017431,-1.730994,0.0,0.0,0.0
650,6500,-1.684098,0.210902,-2.297752,0.0,0.0,0.0
651,6510,-1.684098,0.210902,-2.297752,0.0,0.0,0.0
652,6520,-2.270642,0.496942,-2.480841,0.0,0.0,0.0
653,6530,-2.343838,0.420994,-2.527416,0.0,0.0,0.0
654,6540,-2.292553,0.055657,-2.901835,0.0,0.0,0.0
655,6550,-2.329969,-0.183685,-3.048211,0.0,0.0,0.0
656,6560,-2.4071865,-0.30376899999999996,-3.0925535,0.0,0.0,0.0
657,6570,-2.620589,-0.5739525,-3.138685,0.0,0.0,0.0
658,6580,-2.874725,-0.799694,-3.060749,0.0,0.0,0.0
659,6590,-3.0237005000000003,-0.9306345,-2.867783,0.0,0.0,0.0
660,6600,-3.295,-1.260046,-2.523242,0.0,0.0,0.0
661,6610,-3.3465825000000002,-1.385222,-2.4622325,0.0,0.0,0.0
662,6620,-3.514373,-1.817936,-2.257493,0.0,0.0,0.0
663,6630,-3.499136,-1.8977525,-2.2343045000000004,0.0,0.0,0.0
664,6640,-3.475841,-2.156162,-2.178899,0.0,0.0,0.0
665,6650,-3.477064,-2.38318,-2.136697,0.0,0.0,0.0
666,6660,-3.477064,-2.38318,-2.136697,0.0,0.0,0.0
667,6670,-3.2612615,-2.432263,-1.5809324999999999,0.0,0.0,0.0
668,6680,-2.9907265,-2.2711544999999997,-1.2290975,0.0,0.0,0.0
669,6690,-2.428746,-1.910902,-0.647401,0.0,0.0,0.0
670,6700,-2.428746,-1.910902,-0.647401,0.0,0.0,0.0
671,6710,-2.428746,-1.910902,-0.647401,0.0,0.0,0.0
672,6720,-2.428746,-1.910902,-0.647401,0.0,0.0,0.0
673,6730,-2.428746,-1.910902,-0.647401,0.0,0.0,0.0
674,6740,-2.428746,-1.910902,-0.647401,0.0,0.0,0.0
675,6750,-2.428746,-1.910902,-0.647401,0.0,0.0,0.0
676,6760,-2.428746,-1.910902,-0.647401,0.0,0.0,0.0
677,6770,-2.428746,-1.910902,-0.647401,0.0,0.0,0.0
678,6780,-2.428746,-1.910902,-0.647401,0.0,0.0,0.0
679,6790,-2.428746,-1.910902,-0.647401,0.0,0.0,0.0
680,6800,-0.9793575,-0.8834329999999999,0.0708485,0.0,0.0,0.0
681,6810,-0.830382,-0.861973,-0.177569,0.0,0.0,0.0
682,6820,-0.62344,-0.820688,-0.218349,0.0,0.0,0.0
683,6830,-0.6325685000000001,-0.7126915,-0.254182,0.0,0.0,0.0
684,6840,-0.649541,-0.677875,-0.259021,0.0,0.0,0.0
685,6850,-0.798884,-0.666667,-0.316927,0.0,0.0,0.0
686,6860,-0.798884,-0.666667,-0.316927,0.0,0.0,0.0
687,6870,-0.950658,-0.708869,-0.448012,0.0,0.0,0.0
688,6880,-0.953104,-0.739144,-0.447607,0.0,0.0,0.0
689,6890,-0.947294,-0.836804,-0.411621,0.0,0.0,0.0
690,6900,-0.873807,-0.90948,-0.339144,0.0,0.0,0.0
691,6910,-0.8360855,-0.9193655000000001,-0.30617,0.0,0.0,0.0
692,6920,-0.783073,-0.890933,-0.203471,0.0,0.0,0.0
693,6930,-0.782768,-0.851483,-0.166361,0.0,0.0,0.0
694,6940,-0.788884,-0.804786,-0.152401,0.0,0.0,0.0
695,6950,-0.7922020000000001,-0.7955125000000001,-0.1846105,0.0,0.0,0.0
696,6960,-0.79552,-0.786239,-0.21682,0.0,0.0,0.0
697,6970,-0.805604,-0.7569805000000001,-0.316055,0.0,0.0,0.0
698,6980,-0.807951,-0.745765,-0.353716,0.0,0.0,0.0
699,6990,-0.613654,-0.824358,-0.48185,0.0,0.0,0.0
700,7000,-0.505306,-0.855352,-0.48919,0.0,0.0,0.0
701,7010,-0.505306,-0.855352,-0.48919,0.0,0.0,0.0
702,7020,-0.375734,-0.847095,-0.453318,0.0,0.0,0.0
703,7030,-0.007446,-0.616407,-0.197049,0.0,0.0,0.0
704,7040,0.390826,-0.335979,0.059832,0.0,0.0,0.0
705,7050,0.447905,-0.289801,0.207034,0.0,0.0,0.0
706,7060,0.4550915,-0.330474,0.297806,0.0,0.0,0.0
707,7070,0.949434,-0.610092,0.617232,0.0,0.0,0.0
708,7080,1.41081,-0.63078,0.693165,0.0,0.0,0.0
709,7090,1.888884,-0.483899,0.768303,0.0,0.0,0.0
710,7100,2.0770645,-0.372584,0.8032109999999999,0.0,0.0,0.0
711,7110,2.2738075,-0.07854749999999999,0.860856,0.0,0.0,0.0
712,7120,2.28237,0.104174,0.883593,0.0,0.0,0.0
713,7130,2.294495,0.139144,0.844037,0.0,0.0,0.0
714,7140,2.8850685,0.10336399999999998,0.667278,0.0,0.0,0.0
715,7150,3.068501,0.069113,0.639954,0.0,0.0,0.0
716,7160,3.104839,0.0404205,0.6359325,0.0,0.0,0.0
717,7170,3.15341,0.007844,0.671254,0.0,0.0,0.0
718,7180,3.157997,0.01396,0.735168,0.0,0.0,0.0
719,7190,3.178792,0.026804,0.924572,0.0,0.0,0.0
720,7200,3.08237,0.064939,0.986743,0.0,0.0,0.0
721,7210,3.08237,0.064939,0.986743,0.0,0.0,0.0
722,7220,2.980581,0.08558099999999999,1.0042280000000001,0.0,0.0,0.0
723,7230,2.878792,0.106223,1.021713,0.0,0.0,0.0
724,7240,2.878792,0.106223,1.021713,0.0,0.0,0.0
725,7250,2.878792,0.106223,1.021713,0.0,0.0,0.0
726,7260,2.878792,0.106223,1.021713,0.0,0.0,0.0
727,7270,2.878792,0.106223,1.021713,0.0,0.0,0.0
728,7280,2.878792,0.106223,1.021713,0.0,0.0,0.0
729,7290,2.878792,0.106223,1.021713,0.0,0.0,0.0
730,7300,2.878792,0.106223,1.021713,0.0,0.0,0.0
731,7310,2.878792,0.106223,1.021713,0.0,0.0,0.0
732,7320,1.9295105,-0.1555045,1.0291515,0.0,0.0,0.0
733,7330,0.836697,-0.513868,0.909893,0.0,0.0,0.0
734,7340,0.6627905000000001,-0.5790515,0.7770185000000001,0.0,0.0,0.0
735,7350,0.315398,-0.682768,0.516009,0.0,0.0,0.0
736,7360,0.143318,-0.748425,0.388578,0.0,0.0,0.0
737,7370,0.0621255,-0.8735014999999999,0.27909799999999996,0.0,0.0,0.0
738,7380,-0.033234,-0.998578,0.169618,0.0,0.0,0.0
739,7390,-0.229969,-1.191132,-0.071361,0.0,0.0,0.0
740,7400,-0.364021,-1.226606,-0.139251,0.0,0.0,0.0
741,7410,-0.364021,-1.226606,-0.139251,0.0,0.0,0.0
742,7420,-0.6656495,-1.2388915,-0.16253800000000002,0.0,0.0,0.0
743,7430,-0.806223,-1.219985,-0.174419,0.0,0.0,0.0
744,7440,-0.896743,-1.058211,-0.185122,0.0,0.0,0.0
745,7450,-0.916315,-0.969113,-0.230076,0.0,0.0,0.0
746,7460,-0.9222785,-0.962997,-0.339862,0.0,0.0,0.0
747,7470,-0.986345,-0.996437,-0.596835,0.0,0.0,0.0
748,7480,-1.017584,-1.0253364999999999,-0.6630965,0.0,0.0,0.0
749,7490,-1.054786,-1.0590215,-0.775023,0.0,0.0,0.0
750,7500,-1.022217,-0.995719,-0.779205,0.0,0.0,0.0
751,7510,-1.022217,-0.995719,-0.779205,0.0,0.0,0.0
752,7520,-0.972477,-0.952187,-0.528028,0.0,0.0,0.0
753,7530,-0.972477,-0.952187,-0.528028,0.0,0.0,0.0
754,7540,-0.852798,-0.942202,-0.105505,0.0,0.0,0.0
755,7550,-0.852095,-0.93711,-0.048425,0.0,0.0,0.0
756,7560,-0.8851685,-0.933792,-0.045619,0.0,0.0,0.0
757,7570,-0.918242,-0.930474,-0.042813,0.0,0.0,0.0
758,7580,-1.139342,-0.877783,-0.162691,0.0,0.0,0.0
759,7590,-1.174006,-0.804786,-0.248318,0.0,0.0,0.0
760,7600,-1.18552,-0.730887,-0.284404,0.0,0.0,0.0
761,7610,-1.1902599999999999,-0.678387,-0.28893749999999996,0.0,0.0,0.0
762,7620,-1.20133,-0.361575,-0.246376,0.0,0.0,0.0
763,7630,-1.20133,-0.361575,-0.246376,0.0,0.0,0.0
764,7640,-1.323853,-0.352095,-0.213456,0.0,0.0,0.0
765,7650,-1.41029,-0.53659,-0.338425,0.0,0.0,0.0
766,7660,-1.467989,-0.6098315000000001,-0.446789,0.0,0.0,0.0
767,7670,-1.525688,-0.683073,-0.555153,0.0,0.0,0.0
768,7680,-1.5055049999999999,-0.725994,-0.6749775,0.0,0.0,0.0
769,7690,-1.454939,-0.625887,-0.690321,0.0,0.0,0.0
770,7700,-1.5164605,-0.543884,-0.6660550000000001,0.0,0.0,0.0
771,7710,-1.732416,-0.445765,-0.633028,0.0,0.0,0.0
772,7720,-1.795413,-0.48200350000000003,-0.65117,0.0,0.0,0.0
773,7730,-1.917737,-0.604694,-0.793777,0.0,0.0,0.0
774,7740,-1.917737,-0.604694,-0.793777,0.0,0.0,0.0
775,7750,-1.917737,-0.604694,-0.793777,0.0,0.0,0.0
776,7760,-1.917737,-0.604694,-0.793777,0.0,0.0,0.0
777,7770,-1.917737,-0.604694,-0.793777,0.0,0.0,0.0
778,7780,-1.917737,-0.604694,-0.793777,0.0,0.0,0.0
779,7790,-1.917737,-0.604694,-0.793777,0.0,0.0,0.0
780,7800,-1.917737,-0.604694,-0.793777,0.0,0.0,0.0
781,7810,-1.917737,-0.604694,-0.793777,0.0,0.0,0.0
782,7820,-1.917737,-0.604694,-0.793777,0.0,0.0,0.0
783,7830,-1.917737,-0.604694,-0.793777,0.0,0.0,0.0
784,7840,-1.917737,-0.604694,-0.793777,0.0,0.0,0.0
785,7850,-2.7715595,-0.7467429999999999,-2.1122319999999997,0.0,0.0,0.0
786,7860,-3.3347629999999997,-0.2598395,-2.6712995,0.0,0.0,0.0
787,7870,-3.065749,0.365336,-2.461774,0.0,0.0,0.0
788,7880,-3.034656,0.43562649999999997,-2.4599390000000003,0.0,0.0,0.0
789,7890,-3.001017,0.620902,-2.515956,0.0,0.0,0.0
790,7900,-3.112286,0.844954,-2.7056120000000004,0.0,0.0,0.0
791,7910,-3.226101,0.954021,-2.837416,0.0,0.0,0.0
792,7920,-3.3494954999999997,0.9763455,-2.9384325000000002,0.0,0.0,0.0
793,7930,-3.4505654999999997,0.9057035,-3.1103435,0.0,0.0,0.0
794,7940,-3.08185,0.555046,-3.101024,0.0,0.0,0.0
795,7950,-2.945673,0.331697,-2.993379,0.0,0.0,0.0
796,7960,-2.945673,0.331697,-2.993379,0.0,0.0,0.0
797,7970,-2.8852675000000003,-0.043173,-2.8307875,0.0,0.0,0.0
798,7980,-2.865237,-0.26789,-2.6682495,0.0,0.0,0.0
799,7990,-2.836086,-0.633226,-2.32263,0.0,0.0,0.0
800,8000,-2.825184,-0.771667,-2.201116,0.0,0.0,0.0
801,8010,-2.825184,-0.771667,-2.201116,0.0,0.0,0.0
802,8020,-2.828547,-1.150153,-2.031192,0.0,0.0,0.0
803,8030,-2.8307339999999996,-1.1694725,-1.9880195,0.0,0.0,0.0
804,8040,-2.82344,-1.221911,-1.806422,0.0,0.0,0.0
805,8050,-2.700413,-1.234358,-1.621208,0.0,0.0,0.0
806,8060,-2.631246,-1.2339985,-1.4872095,0.0,0.0,0.0
807,8070,-2.247905,-1.126713,-0.945367,0.0,0.0,0.0
808,8080,-2.228899,-1.107699,-0.923754,0.0,0.0,0.0
809,8090,-2.1025995,-1.026812,-0.7853749999999999,0.0,0.0,0.0
810,8100,-1.9235475,-0.9198775,-0.6169724999999999,0.0,0.0,0.0
811,8110,-1.778593,-0.860749,-0.502645,0.0,0.0,0.0
812,8120,-1.740979,-0.803165,-0.464327,0.0,0.0,0.0
813,8130,-1.707034,-0.788991,-0.39185,0.0,0.0,0.0
814,8140,-1.610902,-0.822125,-0.287156,0.0,0.0,0.0
815,8150,-1.567691,-0.89266,-0.277875,0.0,0.0,0.0
816,8160,-1.5459785,-0.9478055,-0.2909255,0.0,0.0,0.0
817,8170,-1.487156,-1.142813,-0.36789,0.0,0.0,0.0
818,8180,-1.487156,-1.142813,-0.36789,0.0,0.0,0.0
819,8190,-1.318761,-1.383486,-0.440673,0.0,0.0,0.0
820,8200,-1.284602,-1.395917,-0.429862,0.0,0.0,0.0
821,8210,-1.2794569999999998,-1.3954585000000002,-0.3916895,0.0,0.0,0.0
822,8220,-1.245061,-1.346376,-0.177569,0.0,0.0,0.0
823,8230,-1.23945,-1.337615,-0.143425,0.0,0.0,0.0
824,8240,-1.218242,-1.333945,-0.108761,0.0,0.0,0.0
825,8250,-1.18237,-1.339343,-0.105306,0.0,0.0,0.0
826,8260,-1.18237,-1.339343,-0.105306,0.0,0.0,0.0
827,8270,-1.18237,-1.339343,-0.105306,0.0,0.0,0.0
828,8280,-1.18237,-1.339343,-0.105306,0.0,0.0,0.0
829,8290,-1.18237,-1.339343,-0.105306,0.0,0.0,0.0
830,8300,-1.18237,-1.339343,-0.105306,0.0,0.0,0.0
831,8310,-1.18237,-1.339343,-0.105306,0.0,0.0,0.0
832,8320,-1.18237,-1.339343,-0.105306,0.0,0.0,0.0
833,8330,-1.18237,-1.339343,-0.105306,0.0,0.0,0.0
834,8340,-1.18237,-1.339343,-0.105306,0.0,0.0,0.0
835,8350,-1.18237,-1.339343,-0.105306,0.0,0.0,0.0
836,8360,-1.18237,-1.339343,-0.105306,0.0,0.0,0.0
837,8370,-0.823448,-1.3896025,-0.344648,0.0,0.0,0.0
838,8380,-0.552905,-1.358823,-0.475336,0.0,0.0,0.0
839,8390,-0.315749,-1.005558,-0.139243,0.0,0.0,0.0
840,8400,-0.117232,-0.624465,0.034969,0.0,0.0,0.0
841,8410,-0.117232,-0.624465,0.034969,0.0,0.0,0.0
842,8420,0.155451,-0.1470945,0.189809,0.0,0.0,0.0
843,8430,0.257699,-0.259832,0.2527525,0.0,0.0,0.0
844,8440,0.230994,-0.502951,0.258517,0.0,0.0,0.0
845,8450,0.453823,-0.795826,0.221911,0.0,0.0,0.0
846,8460,0.696537,-0.7855810000000001,0.2164065,0.0,0.0,0.0
847,8470,1.760046,-0.204174,0.344648,0.0,0.0,0.0
848,8480,1.7768655,-0.096223,0.40724000000000005,0.0,0.0,0.0
849,8490,1.638532,0.174511,0.718761,0.0,0.0,0.0
850,8500,,,,,,
851,8510,,,,,,
852,8520,,,,,,
853,8530,,,,,,
854,8540,,,,,,
855,8550,,,,,,
856,8560,,,,,,
857,8570,,,,,,
858,8580,,,,,,
859,8590,,,,,,
860,8600,,,,,,
861,8610,2.0310930000000003,0.356315,0.3461315,0.0,0.0,0.0
862,8620,2.412125,0.344847,0.32263,0.0,0.0,0.0
863,8630,2.4349615,0.2661545,0.377217,0.0,0.0,0.0
864,8640,2.569832,0.046177,0.581147,0.0,0.0,0.0
865,8650,2.640168,-0.014266,0.757599,0.0,0.0,0.0
866,8660,2.65724,-0.014877499999999998,0.8769645,0.0,0.0,0.0
867,8670,2.534664,0.02763,1.395306,0.0,0.0,0.0
868,8680,2.514526,0.02763,1.4092205,0.0,0.0,0.0
869,8690,2.101942,0.017538,1.388792,0.0,0.0,0.0
870,8700,1.584297,-0.004083,0.860856,0.0,0.0,0.0
871,8710,1.4546865,-0.034557000000000004,0.7151375,0.0,0.0,0.0
872,8720,1.097355,-0.110703,0.33078,0.0,0.0,0.0
873,8730,0.8305355000000001,-0.42568799999999996,0.114732,0.0,0.0,0.0
874,8740,0.794297,-0.584908,0.084709,0.0,0.0,0.0
875,8750,0.672676,-0.697966,0.114786,0.0,0.0,0.0
876,8760,0.5877675,-0.737362,0.16712549999999998,0.0,0.0,0.0
877,8770,0.034251,-0.897554,0.452294,0.0,0.0,0.0
878,8780,0.034251,-0.897554,0.452294,0.0,0.0,0.0
879,8790,-0.303165,-1.009587,0.515489,0.0,0.0,0.0
880,8800,-0.303165,-1.009587,0.515489,0.0,0.0,0.0
881,8810,-0.303165,-1.009587,0.515489,0.0,0.0,0.0
882,8820,-0.303165,-1.009587,0.515489,0.0,0.0,0.0
883,8830,-0.303165,-1.009587,0.515489,0.0,0.0,0.0
884,8840,-0.303165,-1.009587,0.515489,0.0,0.0,0.0
885,8850,-0.303165,-1.009587,0.515489,0.0,0.0,0.0
886,8860,-0.303165,-1.009587,0.515489,0.0,0.0,0.0
887,8870,-0.303165,-1.009587,0.515489,0.0,0.0,0.0
888,8880,-0.303165,-1.009587,0.515489,0.0,0.0,0.0
889,8890,-0.303165,-1.009587,0.515489,0.0,0.0,0.0
890,8900,-1.0831345,-1.1373545,0.177729,0.0,0.0,0.0
891,8910,-1.286743,-1.09185,0.012232,0.0,0.0,0.0
892,8920,-1.2672245,-1.0968425,0.0279815,0.0,0.0,0.0
893,8930,-1.202859,-1.090826,0.039037,0.0,0.0,0.0
894,8940,-1.155245,-0.981239,-0.054327,0.0,0.0,0.0
895,8950,-1.1382725,-0.94526,-0.11396,0.0,0.0,0.0
896,8960,-1.106621,-0.868303,-0.283486,0.0,0.0,0.0
897,8970,-1.103257,-0.802339,-0.440872,0.0,0.0,0.0
898,8980,-1.257997,-0.699893,-0.571972,0.0,0.0,0.0
899,8990,-1.29633,-0.623043,-0.576147,0.0,0.0,0.0
900,9000,-1.338028,-0.547599,-0.573196,0.0,0.0,0.0
901,9010,-1.338028,-0.547599,-0.573196,0.0,0.0,0.0
902,9020,-1.417378,-0.541032,-0.44174349999999996,0.0,0.0,0.0
903,9030,-1.408058,-0.521208,-0.263716,0.0,0.0,0.0
904,9040,-1.330474,-0.385734,-0.178089,0.0,0.0,0.0
905,9050,-1.322431,-0.200505,-0.098272,0.0,0.0,0.0
906,9060,-1.322431,-0.200505,-0.098272,0.0,0.0,0.0
907,9070,-1.987263,-0.256881,-0.463609,0.0,0.0,0.0
908,9080,-2.338731,-0.266468,-0.688379,0.0,0.0,0.0
909,9090,-2.684297,-0.259526,-0.828945,0.0,0.0,0.0
910,9100,-2.891743,-0.172171,-0.884817,0.0,0.0,0.0
911,9110,-2.891743,-0.172171,-0.884817,0.0,0.0,0.0
912,9120,-2.4825685,-0.014778,-0.8961315,0.0,0.0,0.0
913,9130,-2.280841,-0.1564755,-1.0545875,0.0,0.0,0.0
914,9140,-2.305,-0.261575,-1.174511,0.0,0.0,0.0
915,9150,-2.3690675,-0.270084,-1.2334865000000002,0.0,0.0,0.0
916,9160,-2.55841,-0.278899,-1.361269,0.0,0.0,0.0
917,9170,-2.55841,-0.278899,-1.361269,0.0,0.0,0.0
918,9180,-2.6424545,-0.25474,-1.3976605000000002,0.0,0.0,0.0
919,9190,-2.77971,-0.307645,-1.527936,0.0,0.0,0.0
920,9200,-2.772171,-0.424572,-1.566055,0.0,0.0,0.0
921,9210,-2.769113,-0.458257,-1.570084,0.0,0.0,0.0
922,9220,-2.864419,-0.538333,-1.325382,0.0,0.0,0.0
923,9230,-2.875642,-0.532217,-1.13578,0.0,0.0,0.0
924,9240,-2.860856,-0.5353745000000001,-1.0534175000000001,0.0,0.0,0.0
925,9250,-2.771453,-0.618853,-0.853823,0.0,0.0,0.0
926,9260,-2.58802,-0.6260395,-0.8900615000000001,0.0,0.0,0.0
927,9270,-2.404587,-0.633226,-0.9263,0.0,0.0,0.0
928,9280,-2.404587,-0.633226,-0.9263,0.0,0.0,0.0
929,9290,-2.179312,-0.557294,-1.214878,0.0,0.0,0.0
930,9300,-2.101223,-0.537615,-1.34445,0.0,0.0,0.0
931,9310,-2.101223,-0.537615,-1.34445,0.0,0.0,0.0
932,9320,-2.037309,-0.536804,-1.338333,0.0,0.0,0.0
933,9330,-2.037309,-0.536804,-1.338333,0.0,0.0,0.0
934,9340,-2.037309,-0.536804,-1.338333,0.0,0.0,0.0
935,9350,-2.037309,-0.536804,-1.338333,0.0,0.0,0.0
936,9360,-2.037309,-0.536804,-1.338333,0.0,0.0,0.0
937,9370,-2.037309,-0.536804,-1.338333,0.0,0.0,0.0
938,9380,-2.037309,-0.536804,-1.338333,0.0,0.0,0.0
939,9390,-2.037309,-0.536804,-1.338333,0.0,0.0,0.0
940,9400,-2.037309,-0.536804,-1.338333,0.0,0.0,0.0
941,9410,-2.037309,-0.536804,-1.338333,0.0,0.0,0.0
942,9420,-0.8946485,-0.10876899999999998,-1.186544,0.0,0.0,0.0
943,9430,0.254128,0.262187,-1.140168,0.0,0.0,0.0
944,9440,0.217018,0.107844,-1.627829,0.0,0.0,0.0
945,9450,0.160138,0.010291,-1.966774,0.0,0.0,0.0
946,9460,0.140008,0.0063685,-2.101124,0.0,0.0,0.0
947,9470,-0.057187,-0.044037,-2.285826,0.0,0.0,0.0
948,9480,-0.0967355,-0.062592,-2.217477,0.0,0.0,0.0
949,9490,-0.140872,-0.137813,-1.901636,0.0,0.0,0.0
950,9500,-0.131346,-0.21905950000000002,-1.7654435,0.0,0.0,0.0
951,9510,-0.249541,-0.3747705,-1.5134555,0.0,0.0,0.0
952,9520,-0.380122,-0.406728,-1.457691,0.0,0.0,0.0
953,9530,-0.380122,-0.406728,-1.457691,0.0,0.0,0.0
954,9540,-0.587309,-0.3572325,-1.4424540000000001,0.0,0.0,0.0
955,9550,-0.890413,-0.351881,-1.610199,0.0,0.0,0.0
956,9560,-1.144541,-0.42844,-1.757385,0.0,0.0,0.0
957,9570,-1.276705,-0.469824,-1.8496405,0.0,0.0,0.0
958,9580,-1.408869,-0.511208,-1.941896,0.0,0.0,0.0
959,9590,-1.7108560000000002,-0.55867,-2.176254,0.0,0.0,0.0
960,9600,-2.014373,-0.52711,-2.220183,0.0,0.0,0.0
961,9610,-2.014373,-0.52711,-2.220183,0.0,0.0,0.0
962,9620,-2.951575,-0.635168,-1.991437,0.0,0.0,0.0
963,9630,-3.216621,-0.718654,-1.977569,0.0,0.0,0.0
964,9640,-3.216621,-0.718654,-1.977569,0.0,0.0,0.0
965,9650,-3.4459245000000003,-0.9103975,-2.053211,0.0,0.0,0.0
966,9660,-3.5004584999999997,-1.050971,-2.146942,0.0,0.0,0.0
967,9670,-3.537309,-1.65393,-2.238945,0.0,0.0,0.0
968,9680,-3.4992355,-1.7890445,-2.2372095,0.0,0.0,0.0
969,9690,-3.461162,-1.924159,-2.235474,0.0,0.0,0.0
970,9700,-3.07818,-2.105398,-1.668807,0.0,0.0,0.0
971,9710,-2.895917,-2.040566,-1.432309,0.0,0.0,0.0
972,9720,-2.728242,-1.963609,-1.211927,0.0,0.0,0.0
973,9730,-2.478593,-1.867691,-0.954939,0.0,0.0,0.0
974,9740,-2.11315,-1.577783,-0.563196,0.0,0.0,0.0
975,9750,-2.045818,-1.4833335,-0.451529,0.0,0.0,0.0
976,9760,-1.927217,-1.301728,-0.23405199999999998,0.0,0.0,0.0
977,9770,-1.76055,-0.947401,0.185015,0.0,0.0,0.0
978,9780,-1.76055,-0.947401,0.185015,0.0,0.0,0.0
979,9790,-1.76055,-0.947401,0.185015,0.0,0.0,0.0
980,9800,-1.372171,-0.790214,0.293165,0.0,0.0,0.0
981,9810,-1.2993345,-0.7933715,0.2897555,0.0,0.0,0.0
982,9820,-0.950459,-0.759434,0.278287,0.0,0.0,0.0
983,9830,-0.950459,-0.759434,0.278287,0.0,0.0,0.0
984,9840,-0.848731,-0.725994,0.279709,0.0,0.0,0.0
985,9850,-0.848731,-0.725994,0.279709,0.0,0.0,0.0
986,9860,-0.848731,-0.725994,0.279709,0.0,0.0,0.0
987,9870,-0.848731,-0.725994,0.279709,0.0,0.0,0.0
988,9880,-0.848731,-0.725994,0.279709,0.0,0.0,0.0
989,9890,-0.848731,-0.725994,0.279709,0.0,0.0,0.0
990,9900,-0.848731,-0.725994,0.279709,0.0,0.0,0.0
991,9910,-0.848731,-0.725994,0.279709,0.0,0.0,0.0
992,9920,-0.848731,-0.725994,0.279709,0.0,0.0,0.0
993,9930,-0.848731,-0.725994,0.279709,0.0,0.0,0.0
994,9940,-0.848731,-0.725994,0.279709,0.0,0.0,0.0
995,9950,-0.6551454999999999,-0.734656,0.010550499999999999,0.0,0.0,0.0
996,9960,-0.676858,-0.687102,0.034908,0.0,0.0,0.0
997,9970,-0.847905,-0.630275,0.05026,0.0,0.0,0.0
998,9980,-0.9246635000000001,-0.59857,-0.0346025,0.0,0.0,0.0
999,9990,-1.0340445,-0.571506,-0.17512250000000001,0.0,0.0,0.0
