id,timestamp,acc_x,acc_y,acc_z,gyro_x,gyro_y,gyro_z
0,0,0.11182,0.339755,0.946988,0.0,0.0,0.0
1,10,0.009373,0.598976,1.15393,0.0,0.0,0.0
2,20,0.006927,0.603364,1.192554,0.0,0.0,0.0
3,30,-0.030069,0.742202,1.457951,0.0,0.0,0.0
4,40,-0.02711,0.761269,1.533027,0.0,0.0,0.0
5,50,0.0111165,0.77737,1.6575915,0.0,0.0,0.0
6,60,0.118456,0.828639,1.857079,0.0,0.0,0.0
7,70,0.130887,0.863716,1.864725,0.0,0.0,0.0
8,80,0.145566,0.874725,1.837615,0.0,0.0,0.0
9,90,0.101636,0.885015,1.716009,0.0,0.0,0.0
10,100,0.101636,0.885015,1.716009,0.0,0.0,0.0
11,110,0.09159,0.8482645,1.5791054999999998,0.0,0.0,0.0
12,120,0.123349,0.84159,1.451682,0.0,0.0,0.0
13,130,0.1007645,0.820948,1.4125385,0.0,0.0,0.0
14,140,0.009373,0.761468,1.327018,0.0,0.0,0.0
15,150,-0.02711,0.722431,1.288685,0.0,0.0,0.0
16,160,-0.067171,0.68685,1.251881,0.0,0.0,0.0
17,170,-0.067171,0.68685,1.251881,0.0,0.0,0.0
18,180,-0.117018,0.602859,1.060749,0.0,0.0,0.0
19,190,-0.083287,0.592355,0.97656,0.0,0.0,0.0
20,200,-0.065749,0.576453,0.904083,0.0,0.0,0.0
21,210,-0.054235,0.505703,0.827936,0.0,0.0,0.0
22,220,-0.011009,0.433028,0.829159,0.0,0.0,0.0
23,230,0.021147,0.39149100000000003,0.8441365,0.0,0.0,0.0
24,240,0.036896,0.384404,0.84893,0.0,0.0,0.0
25,250,0.0454585,0.358922,0.8852675,0.0,0.0,0.0
26,260,0.0813455,0.2760395,0.9842505,0.0,0.0,0.0
27,270,0.100917,0.257691,1.012431,0.0,0.0,0.0
28,280,0.131911,0.221407,1.087049,0.0,0.0,0.0
29,290,0.095719,0.122324,1.129771,0.0,0.0,0.0
30,300,0.056162,0.106927,1.133028,0.0,0.0,0.0
31,310,0.020489499999999997,0.099335,1.127011,0.0,0.0,0.0
32,320,-0.015183,0.091743,1.120994,0.0,0.0,0.0
33,330,-0.015183,0.091743,1.120994,0.0,0.0,0.0
34,340,-0.015183,0.091743,1.120994,0.0,0.0,0.0
35,350,-0.015183,0.091743,1.120994,0.0,0.0,0.0
36,360,-0.015183,0.091743,1.120994,0.0,0.0,0.0
37,370,-0.015183,0.091743,1.120994,0.0,0.0,0.0
38,380,-0.015183,0.091743,1.120994,0.0,0.0,0.0
39,390,-0.015183,0.091743,1.120994,0.0,0.0,0.0
40,400,-0.015183,0.091743,1.120994,0.0,0.0,0.0
41,410,-0.063249,0.087714,1.091942,0.0,0.0,0.0
42,420,-0.195566,0.05942649999999999,1.0325155,0.0,0.0,0.0
43,430,-0.279817,0.035168,1.002141,0.0,0.0,0.0
44,440,-0.282156,-0.003058,1.009281,0.0,0.0,0.0
45,450,-0.282156,-0.003058,1.009281,0.0,0.0,0.0
46,460,-0.136498,0.085933,0.958517,0.0,0.0,0.0
47,470,-0.098884,0.157385,0.942095,0.0,0.0,0.0
48,480,-0.032003000000000004,0.296789,0.9235475,0.0,0.0,0.0
49,490,0.02396,0.34393,0.913563,0.0,0.0,0.0
50,500,0.061314999999999995,0.35172800000000004,0.884511,0.0,0.0,0.0
51,510,0.197194,0.3319575,0.8128975,0.0,0.0,0.0
52,520,0.229052,0.298777,0.806223,0.0,0.0,0.0
53,530,0.267278,0.230688,0.800107,0.0,0.0,0.0
54,540,0.302248,0.152294,0.945765,0.0,0.0,0.0
55,550,0.28552750000000005,0.121919,0.9833795,0.0,0.0,0.0
56,560,0.21315,0.077171,1.056881,0.0,0.0,0.0
57,570,0.140872,0.035673,1.060046,0.0,0.0,0.0
58,580,0.072064,-0.010398,1.057599,0.0,0.0,0.0
59,590,0.037416,-0.079709,1.066361,0.0,0.0,0.0
60,600,0.037416,-0.079709,1.066361,0.0,0.0,0.0
61,610,-0.022523,-0.23292,1.162997,0.0,0.0,0.0
62,620,-0.026193,-0.233226,1.166866,0.0,0.0,0.0
63,630,-0.063807,-0.141177,1.079816,0.0,0.0,0.0
64,640,-0.100612,-0.106835,0.962584,0.0,0.0,0.0
65,650,-0.162187,-0.070642,0.851376,0.0,0.0,0.0
66,660,-0.227523,-0.020902,0.68685,0.0,0.0,0.0
67,670,-0.22364699999999998,-0.018708000000000002,0.6514295,0.0,0.0,0.0
68,680,-0.184602,-0.054021,0.558914,0.0,0.0,0.0
69,690,-0.089404,-0.198272,0.483792,0.0,0.0,0.0
70,700,-0.045826,-0.235627,0.5112155,0.0,0.0,0.0
71,710,-0.002248,-0.272982,0.538639,0.0,0.0,0.0
72,720,0.0403135,-0.28776749999999995,0.6320565,0.0,0.0,0.0
73,730,0.041896,-0.284809,0.7435780000000001,0.0,0.0,0.0
74,740,0.036391,-0.279817,0.805199,0.0,0.0,0.0
75,750,0.036391,-0.279817,0.805199,0.0,0.0,0.0
76,760,-0.093326,-0.124205,0.96906,0.0,0.0,0.0
77,770,-0.130887,-0.061361,1.015291,0.0,0.0,0.0
78,780,-0.130887,-0.061361,1.015291,0.0,0.0,0.0
79,790,-0.1496405,0.0121255,0.9577445,0.0,0.0,0.0
80,800,-0.158914,0.079817,0.893578,0.0,0.0,0.0
81,810,-0.164572,0.127775,0.891338,0.0,0.0,0.0
82,820,-0.16289,0.136896,0.895214,0.0,0.0,0.0
83,830,-0.097446,0.172584,0.968502,0.0,0.0,0.0
84,840,-0.050872,0.187156,1.004388,0.0,0.0,0.0
85,850,-0.050872,0.187156,1.004388,0.0,0.0,0.0
86,860,-0.050872,0.187156,1.004388,0.0,0.0,0.0
87,870,-0.050872,0.187156,1.004388,0.0,0.0,0.0
88,880,-0.050872,0.187156,1.004388,0.0,0.0,0.0
89,890,-0.050872,0.187156,1.004388,0.0,0.0,0.0
90,900,-0.050872,0.187156,1.004388,0.0,0.0,0.0
91,910,-0.050872,0.187156,1.004388,0.0,0.0,0.0
92,920,-0.050872,0.187156,1.004388,0.0,0.0,0.0
93,930,-0.050872,0.187156,1.004388,0.0,0.0,0.0
94,940,-0.050872,0.187156,1.004388,0.0,0.0,0.0
95,950,0.091995,0.38354,0.9069875000000001,0.0,0.0,0.0
96,960,0.373287,0.629465,0.885015,0.0,0.0,0.0
97,970,0.333945,0.695306,0.893272,0.0,0.0,0.0
98,980,0.163807,0.833226,0.900612,0.0,0.0,0.0
99,990,0.062798,1.056575,0.907446,0.0,0.0,0.0
100,1000,0.061361,1.193471,0.864725,0.0,0.0,0.0
101,1010,0.100917,1.279924,0.752492,0.0,0.0,0.0
102,1020,0.217324,1.319465,0.738333,0.0,0.0,0.0
103,1030,0.4296105,1.1383334999999999,1.0607035,0.0,0.0,0.0
104,1040,0.479404,1.100719,1.206422,0.0,0.0,0.0
105,1050,0.479404,1.100719,1.206422,0.0,0.0,0.0
106,1060,0.514572,1.034358,1.579817,0.0,0.0,0.0
107,1070,0.246583,1.012997,2.5240065,0.0,0.0,0.0
108,1080,0.047401,1.067584,2.71182,0.0,0.0,0.0
109,1090,-0.238731,1.254939,2.715489,0.0,0.0,0.0
110,1100,-0.2648775,1.342607,2.3944419999999997,0.0,0.0,0.0
111,1110,-0.229763,1.396078,1.9617205000000002,0.0,0.0,0.0
112,1120,-0.11432,1.3265064999999998,1.798165,0.0,0.0,0.0
113,1130,-0.060138,1.291132,1.746284,0.0,0.0,0.0
114,1140,0.029557,1.170031,1.731911,0.0,0.0,0.0
115,1150,0.0677825,1.0766054999999999,1.6893425,0.0,0.0,0.0
116,1160,0.073287,1.019985,1.653104,0.0,0.0,0.0
117,1170,0.10448,1.006728,1.533027,0.0,0.0,0.0
118,1180,0.173395,0.969419,1.363914,0.0,0.0,0.0
119,1190,0.213868,0.901116,1.205199,0.0,0.0,0.0
120,1200,0.208456,0.836896,1.159633,0.0,0.0,0.0
121,1210,0.0977065,0.7863915,1.1450529999999999,0.0,0.0,0.0
122,1220,0.024771,0.7737,1.144235,0.0,0.0,0.0
123,1230,-0.090826,0.74974,1.212339,0.0,0.0,0.0
124,1240,-0.131911,0.691942,1.212339,0.0,0.0,0.0
125,1250,-0.162997,0.674006,1.1917965000000001,0.0,0.0,0.0
126,1260,-0.239251,0.585734,0.987768,0.0,0.0,0.0
127,1270,-0.239251,0.585734,0.987768,0.0,0.0,0.0
128,1280,-0.21590199999999998,0.513402,0.853777,0.0,0.0,0.0
129,1290,-0.1573395,0.44189599999999996,0.7641745,0.0,0.0,0.0
130,1300,-0.057187,0.369312,0.622125,0.0,0.0,0.0
131,1310,-0.021713,0.33440349999999996,0.592255,0.0,0.0,0.0
132,1320,0.013761,0.299495,0.562385,0.0,0.0,0.0
133,1330,0.01396,0.253624,0.523349,0.0,0.0,0.0
134,1340,0.0098315,0.2492355,0.5042814999999999,0.0,0.0,0.0
135,1350,0.005703,0.244847,0.485214,0.0,0.0,0.0
136,1360,0.005703,0.244847,0.485214,0.0,0.0,0.0
137,1370,0.043532,0.233532,0.409067,0.0,0.0,0.0
138,1380,0.043532,0.233532,0.409067,0.0,0.0,0.0
139,1390,0.043532,0.233532,0.409067,0.0,0.0,0.0
140,1400,0.043532,0.233532,0.409067,0.0,0.0,0.0
141,1410,0.043532,0.233532,0.409067,0.0,0.0,0.0
142,1420,0.043532,0.233532,0.409067,0.0,0.0,0.0
143,1430,0.043532,0.233532,0.409067,0.0,0.0,0.0
144,1440,0.043532,0.233532,0.409067,0.0,0.0,0.0
145,1450,0.043532,0.233532,0.409067,0.0,0.0,0.0
146,1460,0.043532,0.233532,0.409067,0.0,0.0,0.0
147,1470,0.146988,0.156988,0.500612,0.0,0.0,0.0
148,1480,-0.202141,0.002446,0.759832,0.0,0.0,0.0
149,1490,-0.259526,0.038119,0.766865,0.0,0.0,0.0
150,1500,-0.2650305,0.057133,0.7659020000000001,0.0,0.0,0.0
151,1510,-0.268089,0.113456,0.693165,0.0,0.0,0.0
152,1520,-0.15922,0.118654,0.610703,0.0,0.0,0.0
153,1530,0.079618,0.003165,0.635367,0.0,0.0,0.0
154,1540,0.145765,-0.073807,0.711514,0.0,0.0,0.0
155,1550,0.156468,-0.109985,0.78685,0.0,0.0,0.0
156,1560,0.123853,-0.110505,0.869113,0.0,0.0,0.0
157,1570,0.027936,0.002951,0.973807,0.0,0.0,0.0
158,1580,0.02711,0.093685,0.991437,0.0,0.0,0.0
159,1590,0.128639,0.172783,1.025581,0.0,0.0,0.0
160,1600,0.241483,0.206728,1.081238,0.0,0.0,0.0
161,1610,0.331804,0.235581,1.148119,0.0,0.0,0.0
162,1620,0.328853,0.241391,1.15474,0.0,0.0,0.0
163,1630,0.251177,0.258211,1.15474,0.0,0.0,0.0
164,1640,0.158716,0.294801,1.146682,0.0,0.0,0.0
165,1650,0.139549,0.300558,1.1462765,0.0,0.0,0.0
166,1660,0.071865,0.319266,1.229159,0.0,0.0,0.0
167,1670,-0.0240595,0.24164349999999998,1.3054055,0.0,0.0,0.0
168,1680,-0.054541,0.204281,1.313563,0.0,0.0,0.0
169,1690,-0.0902675,0.2008635,1.279771,0.0,0.0,0.0
170,1700,-0.167278,0.206927,1.185214,0.0,0.0,0.0
171,1710,-0.234144,0.215291,1.148624,0.0,0.0,0.0
172,1720,-0.2830735,0.2098855,1.1405735,0.0,0.0,0.0
173,1730,-0.345872,0.139862,1.123746,0.0,0.0,0.0
174,1740,-0.33746200000000004,0.10652899999999998,1.127622,0.0,0.0,0.0
175,1750,-0.296636,0.013456,1.122936,0.0,0.0,0.0
176,1760,-0.1909325,-0.08312699999999999,1.011774,0.0,0.0,0.0
177,1770,-0.120902,-0.118043,0.940872,0.0,0.0,0.0
178,1780,-0.077676,-0.12303549999999999,0.880375,0.0,0.0,0.0
179,1790,0.007446,-0.138333,0.73344,0.0,0.0,0.0
180,1800,0.039862,-0.145153,0.674817,0.0,0.0,0.0
181,1810,0.062584,-0.137309,0.624878,0.0,0.0,0.0
182,1820,0.065245,-0.121911,0.618242,0.0,0.0,0.0
183,1830,0.05474,-0.112431,0.651483,0.0,0.0,0.0
184,1840,0.049648,-0.106529,0.658517,0.0,0.0,0.0
185,1850,0.049648,-0.106529,0.658517,0.0,0.0,0.0
186,1860,0.049648,-0.106529,0.658517,0.0,0.0,0.0
187,1870,0.032003,-0.044343,0.904786,0.0,0.0,0.0
188,1880,-0.020642000000000004,-0.019213,0.8705885,0.0,0.0,0.0
189,1890,-0.161162,0.078394,0.762492,0.0,0.0,0.0
190,1900,-0.161162,0.078394,0.762492,0.0,0.0,0.0
191,1910,-0.161162,0.078394,0.762492,0.0,0.0,0.0
192,1920,-0.161162,0.078394,0.762492,0.0,0.0,0.0
193,1930,-0.161162,0.078394,0.762492,0.0,0.0,0.0
194,1940,-0.161162,0.078394,0.762492,0.0,0.0,0.0
195,1950,-0.161162,0.078394,0.762492,0.0,0.0,0.0
196,1960,-0.161162,0.078394,0.762492,0.0,0.0,0.0
197,1970,-0.161162,0.078394,0.762492,0.0,0.0,0.0
198,1980,-0.161162,0.078394,0.762492,0.0,0.0,0.0
199,1990,-0.23022150000000002,0.2603515,0.984457,0.0,0.0,0.0
200,2000,-0.294388,0.50448,1.049037,0.0,0.0,0.0
201,2010,-0.129664,0.600917,0.714373,0.0,0.0,0.0
202,2020,0.007141,0.616009,0.584098,0.0,0.0,0.0
203,2030,0.007141,0.616009,0.584098,0.0,0.0,0.0
204,2040,0.1713075,0.650971,0.46544300000000005,0.0,0.0,0.0
205,2050,0.2081575,0.669725,0.449847,0.0,0.0,0.0
206,2060,0.157294,0.717538,0.752492,0.0,0.0,0.0
207,2070,0.153624,0.750459,0.904786,0.0,0.0,0.0
208,2080,0.1666665,0.7969955,1.0067735,0.0,0.0,0.0
209,2090,0.179709,0.843532,1.108761,0.0,0.0,0.0
210,2100,0.270031,0.880841,1.11396,0.0,0.0,0.0
211,2110,0.36055,0.888379,1.039557,0.0,0.0,0.0
212,2120,0.461361,0.903563,0.920902,0.0,0.0,0.0
213,2130,0.502859,0.91815,0.835168,0.0,0.0,0.0
214,2140,0.470642,0.924159,0.9248700000000001,0.0,0.0,0.0
215,2150,0.380535,0.943838,1.344144,0.0,0.0,0.0
216,2160,0.341789,0.981346,1.672171,0.0,0.0,0.0
217,2170,0.145566,1.058303,2.175841,0.0,0.0,0.0
218,2180,0.022935999999999998,1.0934249999999999,2.2882265000000004,0.0,0.0,0.0
219,2190,-0.099694,1.128547,2.400612,0.0,0.0,0.0
220,2200,-0.149847,1.1454125,2.400612,0.0,0.0,0.0
221,2210,-0.345872,1.207447,2.289404,0.0,0.0,0.0
222,2220,-0.3640675,1.214274,2.2665675,0.0,0.0,0.0
223,2230,-0.382263,1.221101,2.243731,0.0,0.0,0.0
224,2240,-0.319572,1.239862,2.022829,0.0,0.0,0.0
225,2250,-0.265856,1.206621,1.963502,0.0,0.0,0.0
226,2260,-0.055765,1.082982,1.770229,0.0,0.0,0.0
227,2270,0.074511,1.008257,1.703364,0.0,0.0,0.0
228,2280,0.12660549999999998,0.9647785,1.6684480000000002,0.0,0.0,0.0
229,2290,0.326407,0.784908,1.526407,0.0,0.0,0.0
230,2300,0.364939,0.748318,1.424664,0.0,0.0,0.0
231,2310,0.382569,0.707034,1.317737,0.0,0.0,0.0
232,2320,0.379312,0.669006,1.183792,0.0,0.0,0.0
233,2330,0.269373,0.6682414999999999,1.058922,0.0,0.0,0.0
234,2340,0.159434,0.667477,0.934052,0.0,0.0,0.0
235,2350,,,,,,
236,2360,,,,,,
237,2370,,,,,,
238,2380,,,,,,
239,2390,,,,,,
240,2400,,,,,,
241,2410,,,,,,
242,2420,-0.041789,0.708762,0.826407,0.0,0.0,0.0
243,2430,0.018853,0.530581,0.495917,0.0,0.0,0.0
244,2440,0.018853,0.530581,0.495917,0.0,0.0,0.0
245,2450,0.018853,0.530581,0.495917,0.0,0.0,0.0
246,2460,0.018853,0.530581,0.495917,0.0,0.0,0.0
247,2470,0.018853,0.530581,0.495917,0.0,0.0,0.0
248,2480,0.018853,0.530581,0.495917,0.0,0.0,0.0
249,2490,0.018853,0.530581,0.495917,0.0,0.0,0.0
250,2500,0.018853,0.530581,0.495917,0.0,0.0,0.0
251,2510,0.018853,0.530581,0.495917,0.0,0.0,0.0
252,2520,0.209985,0.213043,0.295612,0.0,0.0,0.0
253,2530,0.18949549999999998,0.23210999999999998,0.382722,0.0,0.0,0.0
254,2540,0.030581,0.258914,0.696132,0.0,0.0,0.0
255,2550,-0.094495,0.260963,0.755153,0.0,0.0,0.0
256,2560,-0.197049,0.272171,0.761055,0.0,0.0,0.0
257,2570,-0.24607800000000002,0.2877675,0.719419,0.0,0.0,0.0
258,2580,-0.1925075,0.2587155,0.5218119999999999,0.0,0.0,0.0
259,2590,-0.146284,0.227722,0.521101,0.0,0.0,0.0
260,2600,-0.072783,0.146483,0.55474,0.0,0.0,0.0
261,2610,-0.05117,0.06672,0.6338455000000001,0.0,0.0,0.0
262,2620,-0.032309,-0.070948,0.82711,0.0,0.0,0.0
263,2630,-0.0648775,-0.10642199999999999,0.878387,0.0,0.0,0.0
264,2640,-0.186544,-0.179511,1.014878,0.0,0.0,0.0
265,2650,-0.218142,-0.176812,1.053563,0.0,0.0,0.0
266,2660,-0.296124,-0.0720185,1.1426605,0.0,0.0,0.0
267,2670,-0.339862,0.159633,1.256988,0.0,0.0,0.0
268,2680,-0.339862,0.159633,1.256988,0.0,0.0,0.0
269,2690,-0.108456,0.405612,1.298976,0.0,0.0,0.0
270,2700,-0.108456,0.405612,1.298976,0.0,0.0,0.0
271,2710,0.123188,0.412485,1.2330275,0.0,0.0,0.0
272,2720,0.294908,0.34659,1.198364,0.0,0.0,0.0
273,2730,0.376147,0.301422,1.195917,0.0,0.0,0.0
274,2740,0.338119,0.292859,1.205917,0.0,0.0,0.0
275,2750,0.248012,0.287049,1.269419,0.0,0.0,0.0
276,2760,0.141177,0.288486,1.303869,0.0,0.0,0.0
277,2770,0.012232,0.290413,1.309893,0.0,0.0,0.0
278,2780,-0.060910000000000006,0.268089,1.271361,0.0,0.0,0.0
279,2790,-0.172171,0.202859,1.153211,0.0,0.0,0.0
280,2800,-0.175031,0.162584,1.092966,0.0,0.0,0.0
281,2810,-0.104786,0.092248,0.960443,0.0,0.0,0.0
282,2820,-0.043226,0.08104,0.896743,0.0,0.0,0.0
283,2830,-0.034755,0.045673,0.886239,0.0,0.0,0.0
284,2840,-0.040872,-0.024771,0.88185,0.0,0.0,0.0
285,2850,-0.098165,-0.08185,0.92182,0.0,0.0,0.0
286,2860,-0.098165,-0.08185,0.92182,0.0,0.0,0.0
287,2870,-0.098165,-0.08185,0.92182,0.0,0.0,0.0
288,2880,-0.142615,-0.261269,0.958211,0.0,0.0,0.0
289,2890,-0.125994,-0.283234,0.8828285,0.0,0.0,0.0
290,2900,-0.109373,-0.305199,0.807446,0.0,0.0,0.0
291,2910,-0.038425,-0.328135,0.660963,0.0,0.0,0.0
292,2920,-0.001529,-0.320076,0.620902,0.0,0.0,0.0
293,2930,0.005504500000000001,-0.2888375,0.5977064999999999,0.0,0.0,0.0
294,2940,-0.03078,-0.148517,0.529159,0.0,0.0,0.0
295,2950,-0.03078,-0.148517,0.529159,0.0,0.0,0.0
296,2960,-0.03078,-0.148517,0.529159,0.0,0.0,0.0
297,2970,-0.03078,-0.148517,0.529159,0.0,0.0,0.0
298,2980,-0.03078,-0.148517,0.529159,0.0,0.0,0.0
299,2990,-0.03078,-0.148517,0.529159,0.0,0.0,0.0
300,3000,-0.03078,-0.148517,0.529159,0.0,0.0,0.0
301,3010,-0.03078,-0.148517,0.529159,0.0,0.0,0.0
302,3020,-0.03078,-0.148517,0.529159,0.0,0.0,0.0
303,3030,-0.03078,-0.148517,0.529159,0.0,0.0,0.0
304,3040,-0.03078,-0.148517,0.529159,0.0,0.0,0.0
305,3050,-0.014679,0.174006,0.786131,0.0,0.0,0.0
306,3060,-0.1070875,0.3128975,1.0225305,0.0,0.0,0.0
307,3070,-0.123043,0.330688,1.04659,0.0,0.0,0.0
308,3080,-0.123043,0.330688,1.04659,0.0,0.0,0.0
309,3090,-0.151177,0.433746,0.880627,0.0,0.0,0.0
310,3100,-0.126713,0.433746,0.849847,0.0,0.0,0.0
311,3110,-0.006223,0.414174,0.619985,0.0,0.0,0.0
312,3120,0.144037,0.380734,0.505703,0.0,0.0,0.0
313,3130,0.21580300000000002,0.3852675,0.476911,0.0,0.0,0.0
314,3140,0.405,0.533027,0.484709,0.0,0.0,0.0
315,3150,0.235933,0.734763,0.760145,0.0,0.0,0.0
316,3160,0.176254,0.797355,0.874006,0.0,0.0,0.0
317,3170,0.119167,0.9031655000000001,0.9999465000000001,0.0,0.0,0.0
318,3180,0.197554,1.060443,1.039557,0.0,0.0,0.0
319,3190,0.368807,1.072676,0.81396,0.0,0.0,0.0
320,3200,0.578287,1.029465,0.586239,0.0,0.0,0.0
321,3210,0.876957,0.86208,0.580428,0.0,0.0,0.0
322,3220,0.882569,0.846896,0.852798,0.0,0.0,0.0
323,3230,0.7725305,0.8809405,1.2555045,0.0,0.0,0.0
324,3240,0.662492,0.914985,1.658211,0.0,0.0,0.0
325,3250,0.5369035,0.946231,1.945214,0.0,0.0,0.0
326,3260,0.123547,1.099083,2.828945,0.0,0.0,0.0
327,3270,-0.007446,1.132722,3.001835,0.0,0.0,0.0
328,3280,-0.007446,1.132722,3.001835,0.0,0.0,0.0
329,3290,-0.117936,1.236697,2.589602,0.0,0.0,0.0
330,3300,-0.11661350000000001,1.238532,2.5507645,0.0,0.0,0.0
331,3310,-0.066254,1.277982,2.024266,0.0,0.0,0.0
332,3320,-0.007446,1.271147,1.853716,0.0,0.0,0.0
333,3330,0.014013999999999999,1.251835,1.8110095,0.0,0.0,0.0
334,3340,0.262691,1.105398,1.749954,0.0,0.0,0.0
335,3350,0.341789,1.049235,1.746789,0.0,0.0,0.0
336,3360,0.351422,1.0011695,1.7068805,0.0,0.0,0.0
337,3370,0.361055,0.953104,1.666972,0.0,0.0,0.0
338,3380,0.361055,0.953104,1.666972,0.0,0.0,0.0
339,3390,0.3300765,0.800665,1.2745185,0.0,0.0,0.0
340,3400,0.32396,0.783486,1.223242,0.0,0.0,0.0
341,3410,0.29403650000000003,0.7701835,1.1372095,0.0,0.0,0.0
342,3420,0.187263,0.745153,1.023349,0.0,0.0,0.0
343,3430,0.14811950000000002,0.743066,1.0238535,0.0,0.0,0.0
344,3440,0.046682,0.73711,1.038532,0.0,0.0,0.0
345,3450,0.028387000000000003,0.7351225,1.042913,0.0,0.0,0.0
346,3460,-0.041086,0.687049,0.977263,0.0,0.0,0.0
347,3470,-0.041086,0.687049,0.977263,0.0,0.0,0.0
348,3480,-0.041086,0.687049,0.977263,0.0,0.0,0.0
349,3490,-0.041086,0.687049,0.977263,0.0,0.0,0.0
350,3500,-0.041086,0.687049,0.977263,0.0,0.0,0.0
351,3510,-0.041086,0.687049,0.977263,0.0,0.0,0.0
352,3520,-0.041086,0.687049,0.977263,0.0,0.0,0.0
353,3530,-0.041086,0.687049,0.977263,0.0,0.0,0.0
354,3540,-0.041086,0.687049,0.977263,0.0,0.0,0.0
355,3550,-0.041086,0.687049,0.977263,0.0,0.0,0.0
356,3560,-0.041086,0.687049,0.977263,0.0,0.0,0.0
357,3570,-0.0176915,0.4689605,0.7012229999999999,0.0,0.0,0.0
358,3580,0.005703,0.250872,0.425183,0.0,0.0,0.0
359,3590,-0.0115215,0.2551985,0.372217,0.0,0.0,0.0
360,3600,-0.015902,0.254327,0.35341,0.0,0.0,0.0
361,3610,0.089908,0.18818,0.189404,0.0,0.0,0.0
362,3620,0.123349,0.180321,0.182569,0.0,0.0,0.0
363,3630,0.123349,0.180321,0.182569,0.0,0.0,0.0
364,3640,-0.014266,0.282676,0.54159,0.0,0.0,0.0
365,3650,-0.014266,0.282676,0.54159,0.0,0.0,0.0
366,3660,-0.148012,0.382462,0.779618,0.0,0.0,0.0
367,3670,-0.155765,0.412431,0.779618,0.0,0.0,0.0
368,3680,-0.12293599999999999,0.35850899999999997,0.6814985,0.0,0.0,0.0
369,3690,-0.090107,0.304587,0.583379,0.0,0.0,0.0
370,3700,-0.044954,0.222125,0.423746,0.0,0.0,0.0
371,3710,0.028394500000000003,0.11947250000000001,0.2964295,0.0,0.0,0.0
372,3720,-0.035168,0.02711,0.254847,0.0,0.0,0.0
373,3730,-0.163708,-0.006628500000000001,0.3605045,0.0,0.0,0.0
374,3740,-0.324465,-0.00867,0.667584,0.0,0.0,0.0
375,3750,-0.264419,0.027324,0.927523,0.0,0.0,0.0
376,3760,-0.06747700000000001,0.0800765,1.2855275,0.0,0.0,0.0
377,3770,0.129465,0.132829,1.643532,0.0,0.0,0.0
378,3780,0.194243,0.1290065,1.643532,0.0,0.0,0.0
379,3790,0.345459,0.119067,1.519771,0.0,0.0,0.0
380,3800,0.3433255,0.1704895,1.1577525,0.0,0.0,0.0
381,3810,0.335168,0.221101,1.000719,0.0,0.0,0.0
382,3820,0.30366950000000004,0.2525995,0.9792049999999999,0.0,0.0,0.0
383,3830,0.25219400000000003,0.302546,0.9547859999999999,0.0,0.0,0.0
384,3840,0.188685,0.334664,1.049235,0.0,0.0,0.0
385,3850,0.188685,0.334664,1.049235,0.0,0.0,0.0
386,3860,0.196529,0.256988,1.124664,0.0,0.0,0.0
387,3870,0.195107,0.19552,1.163502,0.0,0.0,0.0
388,3880,0.195107,0.19552,1.163502,0.0,0.0,0.0
389,3890,-0.094495,0.135474,1.231605,0.0,0.0,0.0
390,3900,-0.094495,0.135474,1.231605,0.0,0.0,0.0
391,3910,-0.306116,0.172064,1.234251,0.0,0.0,0.0
392,3920,-0.344954,0.211422,1.175428,0.0,0.0,0.0
393,3930,-0.344954,0.211422,1.175428,0.0,0.0,0.0
394,3940,-0.18130000000000002,0.2415365,1.0289985000000001,0.0,0.0,0.0
395,3950,-0.050566,0.106223,1.008761,0.0,0.0,0.0
396,3960,-0.01341,0.037767499999999996,0.989495,0.0,0.0,0.0
397,3970,0.120382,-0.171254,0.923349,0.0,0.0,0.0
398,3980,0.120382,-0.171254,0.923349,0.0,0.0,0.0
399,3990,0.125994,-0.239343,0.908976,0.0,0.0,0.0
400,4000,0.125994,-0.239343,0.908976,0.0,0.0,0.0
401,4010,0.125994,-0.239343,0.908976,0.0,0.0,0.0
402,4020,0.125994,-0.239343,0.908976,0.0,0.0,0.0
403,4030,0.125994,-0.239343,0.908976,0.0,0.0,0.0
404,4040,0.125994,-0.239343,0.908976,0.0,0.0,0.0
405,4050,0.125994,-0.239343,0.908976,0.0,0.0,0.0
406,4060,0.125994,-0.239343,0.908976,0.0,0.0,0.0
407,4070,0.125994,-0.239343,0.908976,0.0,0.0,0.0
408,4080,0.125994,-0.239343,0.908976,0.0,0.0,0.0
409,4090,0.125994,-0.239343,0.908976,0.0,0.0,0.0
410,4100,-0.04526,-0.084817,0.596529,0.0,0.0,0.0
411,4110,-0.106881,-0.008364000000000003,0.5099845,0.0,0.0,0.0
412,4120,-0.23659,0.136391,0.357079,0.0,0.0,0.0
413,4130,-0.2477065,0.159732,0.334503,0.0,0.0,0.0
414,4140,-0.261468,0.18818,0.309985,0.0,0.0,0.0
415,4150,-0.17656,0.187661,0.311422,0.0,0.0,0.0
416,4160,-0.042508,0.19185,0.318242,0.0,0.0,0.0
417,4170,0.122125,0.26656,0.581147,0.0,0.0,0.0
418,4180,0.119067,0.2681425,0.7077979999999999,0.0,0.0,0.0
419,4190,0.054021,0.26656,1.081957,0.0,0.0,0.0
420,4200,-0.022018,0.261361,1.278899,0.0,0.0,0.0
421,4210,-0.140321,0.319014,1.303463,0.0,0.0,0.0
422,4220,-0.146284,0.339251,1.226911,0.0,0.0,0.0
423,4230,-0.143119,0.3708485,1.1222245000000002,0.0,0.0,0.0
424,4240,0.018853,0.49419,0.707844,0.0,0.0,0.0
425,4250,0.098884,0.511116,0.516713,0.0,0.0,0.0
426,4260,0.214373,0.545061,0.44445,0.0,0.0,0.0
427,4270,0.223135,0.5787,0.436391,0.0,0.0,0.0
428,4280,0.223135,0.5787,0.436391,0.0,0.0,0.0
429,4290,0.015902,0.790826,0.81396,0.0,0.0,0.0
430,4300,0.020076,0.819373,0.882768,0.0,0.0,0.0
431,4310,0.121407,0.82763,0.925994,0.0,0.0,0.0
432,4320,0.282462,0.815902,0.885734,0.0,0.0,0.0
433,4330,0.352294,0.847202,0.611927,0.0,0.0,0.0
434,4340,0.343425,0.911621,0.581346,0.0,0.0,0.0
435,4350,0.326911,1.015596,0.582569,0.0,0.0,0.0
436,4360,0.289098,1.068501,0.857187,0.0,0.0,0.0
437,4370,0.289098,1.068501,0.857187,0.0,0.0,0.0
438,4380,0.38354,1.0315515,1.6662615,0.0,0.0,0.0
439,4390,0.436193,1.029251,2.093165,0.0,0.0,0.0
440,4400,0.503563,0.993073,2.785015,0.0,0.0,0.0
441,4410,0.308058,1.120291,2.891239,0.0,0.0,0.0
442,4420,0.135979,1.281346,2.801116,0.0,0.0,0.0
443,4430,0.036490999999999996,1.375436,2.6851145,0.0,0.0,0.0
444,4440,-0.372783,1.709174,2.211728,0.0,0.0,0.0
445,4450,-0.372982,1.738945,2.157599,0.0,0.0,0.0
446,4460,-0.148012,1.697966,2.13659,0.0,0.0,0.0
447,4470,0.015902,1.559633,2.129969,0.0,0.0,0.0
448,4480,0.015902,1.559633,2.129969,0.0,0.0,0.0
449,4490,0.352706,1.238425,2.051682,0.0,0.0,0.0
450,4500,0.352706,1.238425,2.051682,0.0,0.0,0.0
451,4510,0.376453,1.070948,2.007752,0.0,0.0,0.0
452,4520,0.376453,1.070948,2.007752,0.0,0.0,0.0
453,4530,0.376453,1.070948,2.007752,0.0,0.0,0.0
454,4540,0.376453,1.070948,2.007752,0.0,0.0,0.0
455,4550,0.376453,1.070948,2.007752,0.0,0.0,0.0
456,4560,0.376453,1.070948,2.007752,0.0,0.0,0.0
457,4570,0.376453,1.070948,2.007752,0.0,0.0,0.0
458,4580,0.376453,1.070948,2.007752,0.0,0.0,0.0
459,4590,0.376453,1.070948,2.007752,0.0,0.0,0.0
460,4600,0.376453,1.070948,2.007752,0.0,0.0,0.0
461,4610,0.376453,1.070948,2.007752,0.0,0.0,0.0
462,4620,-0.092049,0.554021,0.395413,0.0,0.0,0.0
463,4630,-0.072783,0.5241055,0.379052,0.0,0.0,0.0
464,4640,0.010291,0.453517,0.345153,0.0,0.0,0.0
465,4650,0.106728,0.352187,0.371758,0.0,0.0,0.0
466,4660,0.170948,0.282875,0.447401,0.0,0.0,0.0
467,4670,0.2263,0.206529,0.527722,0.0,0.0,0.0
468,4680,0.2423015,0.165497,0.534656,0.0,0.0,0.0
469,4690,0.229052,0.012431,0.510092,0.0,0.0,0.0
470,4700,0.195306,-0.013043,0.506927,0.0,0.0,0.0
471,4710,-0.090826,0.057905,0.401024,0.0,0.0,0.0
472,4720,-0.301024,0.172783,0.320994,0.0,0.0,0.0
473,4730,-0.396942,0.250459,0.209893,0.0,0.0,0.0
474,4740,-0.284205,0.33659,0.138425,0.0,0.0,0.0
475,4750,-0.121606,0.304893,0.179924,0.0,0.0,0.0
476,4760,0.035673,0.183073,0.317538,0.0,0.0,0.0
477,4770,0.12649849999999999,0.064113,0.474977,0.0,0.0,0.0
478,4780,0.176254,-0.147813,0.666774,0.0,0.0,0.0
479,4790,-0.023547,-0.180734,0.664113,0.0,0.0,0.0
480,4800,-0.300306,-0.08185,0.643425,0.0,0.0,0.0
481,4810,-0.425688,0.021514,0.715902,0.0,0.0,0.0
482,4820,-0.382982,0.036086,0.813257,0.0,0.0,0.0
483,4830,-0.34526,0.0375615,0.8605045,0.0,0.0,0.0
484,4840,-0.201636,-0.142706,1.073899,0.0,0.0,0.0
485,4850,-0.196384,-0.18077949999999998,1.1234405,0.0,0.0,0.0
486,4860,-0.180627,-0.235887,1.199083,0.0,0.0,0.0
487,4870,-0.180627,-0.235887,1.199083,0.0,0.0,0.0
488,4880,-0.180627,-0.235887,1.199083,0.0,0.0,0.0
489,4890,-0.16162100000000001,-0.23604,1.19776,0.0,0.0,0.0
490,4900,0.3231345,-0.123601,1.0589145,0.0,0.0,0.0
491,4910,0.677875,-0.080627,1.158823,0.0,0.0,0.0
492,4920,0.772783,-0.010199,1.193777,0.0,0.0,0.0
493,4930,0.7781345,0.0472475,1.1943885,0.0,0.0,0.0
494,4940,0.709786,0.334664,1.091743,0.0,0.0,0.0
495,4950,0.672676,0.448823,0.979511,0.0,0.0,0.0
496,4960,0.672676,0.448823,0.979511,0.0,0.0,0.0
497,4970,0.637813,0.523547,0.879098,0.0,0.0,0.0
498,4980,0.637813,0.523547,0.879098,0.0,0.0,0.0
499,4990,0.255352,0.464939,0.752492,0.0,0.0,0.0
500,5000,0.127936,0.407141,0.8213,0.0,0.0,0.0
501,5010,-0.137003,0.382676,1.070948,0.0,0.0,0.0
502,5020,-0.226101,0.367783,1.230581,0.0,0.0,0.0
503,5030,-0.267278,0.36289,1.400505,0.0,0.0,0.0
504,5040,-0.267278,0.36289,1.400505,0.0,0.0,0.0
505,5050,-0.267278,0.36289,1.400505,0.0,0.0,0.0
506,5060,-0.267278,0.36289,1.400505,0.0,0.0,0.0
507,5070,-0.267278,0.36289,1.400505,0.0,0.0,0.0
508,5080,-0.267278,0.36289,1.400505,0.0,0.0,0.0
509,5090,-0.267278,0.36289,1.400505,0.0,0.0,0.0
510,5100,-0.267278,0.36289,1.400505,0.0,0.0,0.0
511,5110,-0.267278,0.36289,1.400505,0.0,0.0,0.0
512,5120,-0.267278,0.36289,1.400505,0.0,0.0,0.0
513,5130,-0.267278,0.36289,1.400505,0.0,0.0,0.0
514,5140,-0.01610850000000001,-0.008975499999999997,1.0515750000000001,0.0,0.0,0.0
515,5150,0.2749775,-0.38221700000000003,0.7474004999999999,0.0,0.0,0.0
516,5160,0.281453,-0.377477,0.754235,0.0,0.0,0.0
517,5170,0.171865,-0.251789,0.750765,0.0,0.0,0.0
518,5180,0.09974749999999999,-0.21922,0.7179435000000001,0.0,0.0,0.0
519,5190,-0.126858,-0.060145000000000004,0.6121255,0.0,0.0,0.0
520,5200,-0.165031,-0.018654,0.580627,0.0,0.0,0.0
521,5210,-0.298364,0.147401,0.408364,0.0,0.0,0.0
522,5220,-0.313654,0.216009,0.277982,0.0,0.0,0.0
523,5230,-0.315184,0.224052,0.200612,0.0,0.0,0.0
524,5240,-0.3119725,0.22053499999999998,0.18220950000000002,0.0,0.0,0.0
525,5250,-0.240474,0.094495,0.239954,0.0,0.0,0.0
526,5260,-0.177263,0.057385,0.342401,0.0,0.0,0.0
527,5270,-0.111116,0.024159,0.453012,0.0,0.0,0.0
528,5280,-0.0970945,0.009228,0.5895565,0.0,0.0,0.0
529,5290,-0.083073,-0.005703,0.726101,0.0,0.0,0.0
530,5300,-0.006621,0.031498,0.813257,0.0,0.0,0.0
531,5310,0.09974,0.1264525,0.8906265,0.0,0.0,0.0
532,5320,0.119159,0.162798,0.907446,0.0,0.0,0.0
533,5330,0.1401605,0.200512,0.9269645,0.0,0.0,0.0
534,5340,0.209281,0.307752,0.973089,0.0,0.0,0.0
535,5350,0.212431,0.312125,0.974312,0.0,0.0,0.0
536,5360,0.21498450000000002,0.375734,0.9257415,0.0,0.0,0.0
537,5370,0.086743,0.565245,0.691743,0.0,0.0,0.0
538,5380,0.086743,0.565245,0.691743,0.0,0.0,0.0
539,5390,0.086743,0.565245,0.691743,0.0,0.0,0.0
540,5400,0.1981115,0.726506,0.6549925000000001,0.0,0.0,0.0
541,5410,0.466973,0.946682,0.70367,0.0,0.0,0.0
542,5420,0.500612,1.019985,0.71682,0.0,0.0,0.0
543,5430,0.5007645,1.036445,0.7196255,0.0,0.0,0.0
544,5440,0.516009,1.117324,0.673593,0.0,0.0,0.0
545,5450,0.5277295,1.103769,0.7071864999999999,0.0,0.0,0.0
546,5460,0.600505,1.055352,1.068807,0.0,0.0,0.0
547,5470,0.664419,1.0200845,1.332775,0.0,0.0,0.0
548,5480,0.805963,0.9492895,1.856269,0.0,0.0,0.0
549,5490,0.926101,0.883073,2.776254,0.0,0.0,0.0
550,5500,0.73711,0.921101,2.970336,0.0,0.0,0.0
551,5510,0.448624,1.030994,2.983991,0.0,0.0,0.0
552,5520,0.026911,1.224969,2.919067,0.0,0.0,0.0
553,5530,0.026911,1.224969,2.919067,0.0,0.0,0.0
554,5540,-0.341284,1.510505,2.19633,0.0,0.0,0.0
555,5550,-0.326246,1.5103974999999998,2.168555,0.0,0.0,0.0
556,5560,-0.016927,1.355352,1.841284,0.0,0.0,0.0
557,5570,-0.016927,1.355352,1.841284,0.0,0.0,0.0
558,5580,-0.016927,1.355352,1.841284,0.0,0.0,0.0
559,5590,-0.016927,1.355352,1.841284,0.0,0.0,0.0
560,5600,-0.016927,1.355352,1.841284,0.0,0.0,0.0
561,5610,-0.016927,1.355352,1.841284,0.0,0.0,0.0
562,5620,-0.016927,1.355352,1.841284,0.0,0.0,0.0
563,5630,-0.016927,1.355352,1.841284,0.0,0.0,0.0
564,5640,-0.016927,1.355352,1.841284,0.0,0.0,0.0
565,5650,-0.016927,1.355352,1.841284,0.0,0.0,0.0
566,5660,0.126911,1.255757,1.8240595,0.0,0.0,0.0
567,5670,0.218242,0.58919,1.309679,0.0,0.0,0.0
568,5680,0.173953,0.5835859999999999,1.2525460000000002,0.0,0.0,0.0
569,5690,-0.054939,0.560138,0.970642,0.0,0.0,0.0
570,5700,-0.062278,0.555046,0.927523,0.0,0.0,0.0
571,5710,-0.07828750000000001,0.544549,0.8732949999999999,0.0,0.0,0.0
572,5720,-0.085734,0.502034,0.74659,0.0,0.0,0.0
573,5730,-0.022737,0.487156,0.657294,0.0,0.0,0.0
574,5740,0.059832,0.456682,0.53945,0.0,0.0,0.0
575,5750,0.089908,0.439557,0.49867,0.0,0.0,0.0
576,5760,0.090107,0.426606,0.463303,0.0,0.0,0.0
577,5770,0.04159,0.407645,0.437615,0.0,0.0,0.0
578,5780,0.04159,0.407645,0.437615,0.0,0.0,0.0
579,5790,0.009587,0.357294,0.450352,0.0,0.0,0.0
580,5800,-0.002248,0.320688,0.462278,0.0,0.0,0.0
581,5810,0.011315,0.24893,0.49919,0.0,0.0,0.0
582,5820,0.028035,0.230734,0.5001530000000001,0.0,0.0,0.0
583,5830,0.058609,0.199893,0.490321,0.0,0.0,0.0
584,5840,0.094083,0.18552,0.476651,0.0,0.0,0.0
585,5850,0.170443,0.139343,0.435474,0.0,0.0,0.0
586,5860,0.1890975,0.1189605,0.436292,0.0,0.0,0.0
587,5870,0.272982,0.033226,0.503563,0.0,0.0,0.0
588,5880,0.272982,0.033226,0.503563,0.0,0.0,0.0
589,5890,0.272982,0.033226,0.503563,0.0,0.0,0.0
590,5900,0.272982,0.033226,0.503563,0.0,0.0,0.0
591,5910,0.204381,0.0258865,0.68211,0.0,0.0,0.0
592,5920,-0.060138,0.073502,0.748823,0.0,0.0,0.0
593,5930,-0.060138,0.073502,0.748823,0.0,0.0,0.0
594,5940,-0.131391,0.20133,0.25974,0.0,0.0,0.0
595,5950,-0.057905,0.207232,0.25974,0.0,0.0,0.0
596,5960,-0.057905,0.207232,0.25974,0.0,0.0,0.0
597,5970,-0.024771,0.096636,0.779618,0.0,0.0,0.0
598,5980,-0.024771,0.096636,0.779618,0.0,0.0,0.0
599,5990,-0.052798,0.08104,1.174205,0.0,0.0,0.0
600,6000,-0.047202,0.070535,1.253823,0.0,0.0,0.0
601,6010,0.006422,0.037309,1.257905,0.0,0.0,0.0
602,6020,0.041789,0.041697,1.200612,0.0,0.0,0.0
603,6030,0.054021,0.098884,1.190321,0.0,0.0,0.0
604,6040,0.055765,0.161055,1.156162,0.0,0.0,0.0
605,6050,0.11565,0.2322095,1.049893,0.0,0.0,0.0
606,6060,0.175535,0.303364,0.943624,0.0,0.0,0.0
607,6070,0.2785475,0.4112615,0.7652905,0.0,0.0,0.0
608,6080,0.311728,0.443731,0.725382,0.0,0.0,0.0
609,6090,0.369832,0.482064,0.715398,0.0,0.0,0.0
610,6100,0.369832,0.482064,0.715398,0.0,0.0,0.0
611,6110,0.369832,0.482064,0.715398,0.0,0.0,0.0
612,6120,0.369832,0.482064,0.715398,0.0,0.0,0.0
613,6130,0.369832,0.482064,0.715398,0.0,0.0,0.0
614,6140,0.369832,0.482064,0.715398,0.0,0.0,0.0
615,6150,0.369832,0.482064,0.715398,0.0,0.0,0.0
616,6160,0.369832,0.482064,0.715398,0.0,0.0,0.0
617,6170,0.369832,0.482064,0.715398,0.0,0.0,0.0
618,6180,0.369832,0.482064,0.715398,0.0,0.0,0.0
619,6190,0.084205,0.5086695,0.900153,0.0,0.0,0.0
620,6200,-0.080627,0.49867,1.077064,0.0,0.0,0.0
621,6210,-0.080627,0.49867,1.077064,0.0,0.0,0.0
622,6220,0.20493899999999998,0.2699235,0.9477525,0.0,0.0,0.0
623,6230,0.210902,0.233532,0.927722,0.0,0.0,0.0
624,6240,0.219465,0.172278,0.887661,0.0,0.0,0.0
625,6250,0.1847095,0.130688,0.8504590000000001,0.0,0.0,0.0
626,6260,0.07818,0.053716,0.774419,0.0,0.0,0.0
627,6270,-0.010291,0.036086,0.737309,0.0,0.0,0.0
628,6280,-0.0549925,0.029762999999999998,0.7006114999999999,0.0,0.0,0.0
629,6290,-0.13435,0.019159,0.60948,0.0,0.0,0.0
630,6300,-0.169006,0.003471,0.476453,0.0,0.0,0.0
631,6310,-0.169006,0.003471,0.476453,0.0,0.0,0.0
632,6320,-0.057187,-0.049434,0.349037,0.0,0.0,0.0
633,6330,0.009067,-0.077477,0.348318,0.0,0.0,0.0
634,6340,0.096437,-0.067477,0.388578,0.0,0.0,0.0
635,6350,0.09867,-0.031391,0.452294,0.0,0.0,0.0
636,6360,0.0752295,-0.011055000000000002,0.486338,0.0,0.0,0.0
637,6370,-0.129862,0.131086,0.682875,0.0,0.0,0.0
638,6380,-0.129862,0.131086,0.682875,0.0,0.0,0.0
639,6390,-0.129862,0.131086,0.682875,0.0,0.0,0.0
640,6400,-0.129862,0.131086,0.682875,0.0,0.0,0.0
641,6410,-0.235581,0.304388,0.758609,0.0,0.0,0.0
642,6420,-0.195612,0.2687,0.691743,0.0,0.0,0.0
643,6430,-0.176552,0.2521405,0.661315,0.0,0.0,0.0
644,6440,-0.09919,0.2263,0.573089,0.0,0.0,0.0
645,6450,-0.046483,0.216514,0.496942,0.0,0.0,0.0
646,6460,-0.046483,0.216514,0.496942,0.0,0.0,0.0
647,6470,-0.001529,0.250459,0.501835,0.0,0.0,0.0
648,6480,-0.003777,0.263303,0.565031,0.0,0.0,0.0
649,6490,-0.028333,0.361468,0.710703,0.0,0.0,0.0
650,6500,-0.039343,0.419771,0.809587,0.0,0.0,0.0
651,6510,-0.002554,0.479618,0.919465,0.0,0.0,0.0
652,6520,0.141177,0.492248,0.931911,0.0,0.0,0.0
653,6530,0.212951,0.482982,0.931911,0.0,0.0,0.0
654,6540,0.261269,0.444235,0.746896,0.0,0.0,0.0
655,6550,0.26656,0.510398,0.635367,0.0,0.0,0.0
656,6560,0.23312700000000003,0.5297635,0.6175305,0.0,0.0,0.0
657,6570,0.199694,0.549129,0.599694,0.0,0.0,0.0
658,6580,0.1385855,0.7633565,0.595818,0.0,0.0,0.0
659,6590,0.137202,0.919679,0.798165,0.0,0.0,0.0
660,6600,0.203165,0.956468,0.880122,0.0,0.0,0.0
661,6610,0.333945,1.062385,0.737814,0.0,0.0,0.0
662,6620,0.333945,1.062385,0.737814,0.0,0.0,0.0
663,6630,0.333945,1.062385,0.737814,0.0,0.0,0.0
664,6640,0.333945,1.062385,0.737814,0.0,0.0,0.0
665,6650,0.333945,1.062385,0.737814,0.0,0.0,0.0
666,6660,0.333945,1.062385,0.737814,0.0,0.0,0.0
667,6670,0.333945,1.062385,0.737814,0.0,0.0,0.0
668,6680,0.333945,1.062385,0.737814,0.0,0.0,0.0
669,6690,0.333945,1.062385,0.737814,0.0,0.0,0.0
670,6700,0.333945,1.062385,0.737814,0.0,0.0,0.0
671,6710,0.333945,1.062385,0.737814,0.0,0.0,0.0
672,6720,-0.24393,1.871973,2.381651,0.0,0.0,0.0
673,6730,-0.24719449999999998,1.891644,2.2136085000000003,0.0,0.0,0.0
674,6740,0.0148855,1.6726835,1.7124389999999998,0.0,0.0,0.0
675,6750,0.090627,1.602752,1.680229,0.0,0.0,0.0
676,6760,0.090627,1.602752,1.680229,0.0,0.0,0.0
677,6770,0.625077,1.17737,1.666972,0.0,0.0,0.0
678,6780,0.662492,1.109985,1.661667,0.0,0.0,0.0
679,6790,0.833028,0.933532,1.535887,0.0,0.0,0.0
680,6800,0.866254,0.847202,1.415902,0.0,0.0,0.0
681,6810,0.866254,0.847202,1.415902,0.0,0.0,0.0
682,6820,0.781193,0.7655505,1.1811924999999999,0.0,0.0,0.0
683,6830,0.55922,0.668303,0.829358,0.0,0.0,0.0
684,6840,0.433333,0.654847,0.760551,0.0,0.0,0.0
685,6850,0.23659,0.652905,0.709985,0.0,0.0,0.0
686,6860,0.23659,0.652905,0.709985,0.0,0.0,0.0
687,6870,0.119878,0.649434,0.693685,0.0,0.0,0.0
688,6880,0.107446,0.613869,0.619985,0.0,0.0,0.0
689,6890,0.097446,0.539862,0.394388,0.0,0.0,0.0
690,6900,0.097446,0.539862,0.394388,0.0,0.0,0.0
691,6910,0.095466,0.4761925,0.2262,0.0,0.0,0.0
692,6920,0.09919,0.3737,0.152095,0.0,0.0,0.0
693,6930,0.138226,0.308976,0.152798,0.0,0.0,0.0
694,6940,0.244144,0.279924,0.32344,0.0,0.0,0.0
695,6950,0.285826,0.247202,0.431804,0.0,0.0,0.0
696,6960,0.285826,0.247202,0.431804,0.0,0.0,0.0
697,6970,0.268502,0.204786,0.599893,0.0,0.0,0.0
698,6980,0.268502,0.204786,0.599893,0.0,0.0,0.0
699,6990,0.2466895,0.168907,0.551881,0.0,0.0,0.0
700,7000,0.212125,0.157187,0.346896,0.0,0.0,0.0
701,7010,0.212125,0.157187,0.346896,0.0,0.0,0.0
702,7020,0.0229355,0.2422555,0.010190999999999999,0.0,0.0,0.0
703,7030,-0.190413,0.33134600000000003,-0.0037230000000000006,0.0,0.0,0.0
704,7040,-0.322217,0.376346,0.032722,0.0,0.0,0.0
705,7050,-0.450658,0.391743,0.486651,0.0,0.0,0.0
706,7060,-0.450658,0.391743,0.486651,0.0,0.0,0.0
707,7070,-0.23292,0.391942,0.771758,0.0,0.0,0.0
708,7080,-0.113815,0.3491365,0.742255,0.0,0.0,0.0
709,7090,-0.065443,0.311927,0.685122,0.0,0.0,0.0
710,7100,-0.060856,0.297966,0.678287,0.0,0.0,0.0
711,7110,-0.060856,0.297966,0.678287,0.0,0.0,0.0
712,7120,-0.012538,0.256468,0.802248,0.0,0.0,0.0
713,7130,0.0069345,0.2587155,0.8689145,0.0,0.0,0.0
714,7140,0.026407,0.260963,0.935581,0.0,0.0,0.0
715,7150,0.026407,0.260963,0.935581,0.0,0.0,0.0
716,7160,0.026407,0.260963,0.935581,0.0,0.0,0.0
717,7170,0.026407,0.260963,0.935581,0.0,0.0,0.0
718,7180,0.026407,0.260963,0.935581,0.0,0.0,0.0
719,7190,0.026407,0.260963,0.935581,0.0,0.0,0.0
720,7200,0.026407,0.260963,0.935581,0.0,0.0,0.0
721,7210,0.026407,0.260963,0.935581,0.0,0.0,0.0
722,7220,0.026407,0.260963,0.935581,0.0,0.0,0.0
723,7230,0.026407,0.260963,0.935581,0.0,0.0,0.0
724,7240,0.19042050000000002,0.42288950000000003,1.0517355,0.0,0.0,0.0
725,7250,0.177477,0.542813,1.098058,0.0,0.0,0.0
726,7260,0.177477,0.542813,1.098058,0.0,0.0,0.0
727,7270,0.026193,0.497141,1.001422,0.0,0.0,0.0
728,7280,,,,,,
729,7290,-0.09948749999999999,0.4881805,0.8957645,0.0,0.0,0.0
730,7300,-0.192156,0.481346,0.796636,0.0,0.0,0.0
731,7310,-0.192156,0.481346,0.796636,0.0,0.0,0.0
732,7320,-0.192156,0.481346,0.796636,0.0,0.0,0.0
733,7330,-0.063502,0.441086,0.779098,0.0,0.0,0.0
734,7340,-0.001529,0.377064,0.78685,0.0,0.0,0.0
735,7350,0.0112155,0.3272705,0.792867,0.0,0.0,0.0
736,7360,0.026910999999999997,0.259939,0.8144800000000001,0.0,0.0,0.0
737,7370,0.023043,0.177171,0.831605,0.0,0.0,0.0
738,7380,0.014021500000000001,0.1570335,0.8103515,0.0,0.0,0.0
739,7390,-0.0640215,0.026399,0.6542355,0.0,0.0,0.0
740,7400,-0.066468,-0.00867,0.622125,0.0,0.0,0.0
741,7410,-0.066468,-0.00867,0.622125,0.0,0.0,0.0
742,7420,0.0002594999999999993,-0.0556575,0.543226,0.0,0.0,0.0
743,7430,0.039648,-0.091437,0.51815,0.0,0.0,0.0
744,7440,0.135275,-0.105306,0.490321,0.0,0.0,0.0
745,7450,0.133333,-0.102645,0.483486,0.0,0.0,0.0
746,7460,0.133333,-0.102645,0.483486,0.0,0.0,0.0
747,7470,-0.063807,-0.01182,0.482064,0.0,0.0,0.0
748,7480,-0.063807,0.021208,0.482064,0.0,0.0,0.0
749,7490,-0.151682,0.130382,0.467691,0.0,0.0,0.0
750,7500,-0.188272,0.167171,0.428853,0.0,0.0,0.0
751,7510,-0.20703349999999998,0.1900075,0.391896,0.0,0.0,0.0
752,7520,-0.217538,0.217737,0.322217,0.0,0.0,0.0
753,7530,-0.174618,0.207232,0.319465,0.0,0.0,0.0
754,7540,-0.14444200000000001,0.198211,0.33572650000000004,0.0,0.0,0.0
755,7550,-0.040061,0.155963,0.600199,0.0,0.0,0.0
756,7560,-0.023746,0.158609,0.745872,0.0,0.0,0.0
757,7570,-0.010291,0.166468,0.873287,0.0,0.0,0.0
758,7580,0.002034,0.207951,0.971865,0.0,0.0,0.0
759,7590,-0.026407,0.280229,0.984098,0.0,0.0,0.0
760,7600,-0.091636,0.354434,0.917936,0.0,0.0,0.0
761,7610,-0.148012,0.416621,0.846896,0.0,0.0,0.0
762,7620,-0.196024,0.489098,0.684404,0.0,0.0,0.0
763,7630,-0.196024,0.489098,0.684404,0.0,0.0,0.0
764,7640,0.015183,0.492049,0.657492,0.0,0.0,0.0
765,7650,0.184297,0.475428,0.809587,0.0,0.0,0.0
766,7660,0.184297,0.475428,0.809587,0.0,0.0,0.0
767,7670,0.184297,0.475428,0.809587,0.0,0.0,0.0
768,7680,0.184297,0.475428,0.809587,0.0,0.0,0.0
769,7690,0.184297,0.475428,0.809587,0.0,0.0,0.0
770,7700,0.184297,0.475428,0.809587,0.0,0.0,0.0
771,7710,0.184297,0.475428,0.809587,0.0,0.0,0.0
772,7720,0.184297,0.475428,0.809587,0.0,0.0,0.0
773,7730,0.184297,0.475428,0.809587,0.0,0.0,0.0
774,7740,0.184297,0.475428,0.809587,0.0,0.0,0.0
775,7750,0.184297,0.475428,0.809587,0.0,0.0,0.0
776,7760,0.184297,0.475428,0.809587,0.0,0.0,0.0
777,7770,0.54607,1.016514,0.895214,0.0,0.0,0.0
778,7780,0.902645,0.865443,1.443624,0.0,0.0,0.0
779,7790,1.011208,0.83078,1.794388,0.0,0.0,0.0
780,7800,1.010703,0.825887,2.129052,0.0,0.0,0.0
781,7810,0.873287,0.865749,2.381651,0.0,0.0,0.0
782,7820,0.671254,1.014878,2.508563,0.0,0.0,0.0
783,7830,0.6174315,1.0639145,2.5118275,0.0,0.0,0.0
784,7840,0.411514,1.331911,2.248318,0.0,0.0,0.0
785,7850,0.405092,1.3505655,2.1637614999999997,0.0,0.0,0.0
786,7860,0.39867,1.36922,2.079205,0.0,0.0,0.0
787,7870,0.43578,1.377477,1.903471,0.0,0.0,0.0
788,7880,0.439144,1.347294,1.893777,0.0,0.0,0.0
789,7890,0.451376,1.30815,1.822936,0.0,0.0,0.0
790,7900,0.451376,1.30815,1.822936,0.0,0.0,0.0
791,7910,0.47074150000000003,1.233639,1.7271635,0.0,0.0,0.0
792,7920,0.490107,1.159128,1.631391,0.0,0.0,0.0
793,7930,0.490413,1.118761,1.595719,0.0,0.0,0.0
794,7940,0.456682,1.055856,1.582263,0.0,0.0,0.0
795,7950,0.399954,1.0198239999999998,1.5308869999999999,0.0,0.0,0.0
796,7960,0.307087,0.9224235000000001,1.42987,0.0,0.0,0.0
797,7970,0.270948,0.861055,1.380229,0.0,0.0,0.0
798,7980,0.262492,0.816927,1.26503,0.0,0.0,0.0
799,7990,0.281758,0.725581,1.138119,0.0,0.0,0.0
800,8000,0.295413,0.691437,1.069312,0.0,0.0,0.0
801,8010,0.295413,0.691437,1.069312,0.0,0.0,0.0
802,8020,0.294442,0.653616,1.030222,0.0,0.0,0.0
803,8030,0.22981649999999998,0.5581575000000001,0.8874615,0.0,0.0,0.0
804,8040,0.176254,0.534251,0.820596,0.0,0.0,0.0
805,8050,0.135979,0.517232,0.745673,0.0,0.0,0.0
806,8060,0.100864,0.5095335000000001,0.711728,0.0,0.0,0.0
807,8070,0.008364,0.445153,0.63292,0.0,0.0,0.0
808,8080,0.006269,0.444442,0.6305810000000001,0.0,0.0,0.0
809,8090,0.0038225,0.4188075,0.5844575,0.0,0.0,0.0
810,8100,0.036193,0.379511,0.435474,0.0,0.0,0.0
811,8110,0.0414375,0.3726835,0.398471,0.0,0.0,0.0
812,8120,0.118654,0.314373,0.193073,0.0,0.0,0.0
813,8130,0.2059635,0.255558,0.15596349999999998,0.0,0.0,0.0
814,8140,0.234144,0.23578,0.153517,0.0,0.0,0.0
815,8150,0.248517,0.19893,0.20881499999999997,0.0,0.0,0.0
816,8160,0.268295,0.15866249999999998,0.3091205,0.0,0.0,0.0
817,8170,0.267783,0.152492,0.489602,0.0,0.0,0.0
818,8180,0.200413,0.146682,0.618456,0.0,0.0,0.0
819,8190,0.200413,0.146682,0.618456,0.0,0.0,0.0
820,8200,0.200413,0.146682,0.618456,0.0,0.0,0.0
821,8210,0.200413,0.146682,0.618456,0.0,0.0,0.0
822,8220,0.200413,0.146682,0.618456,0.0,0.0,0.0
823,8230,0.200413,0.146682,0.618456,0.0,0.0,0.0
824,8240,0.200413,0.146682,0.618456,0.0,0.0,0.0
825,8250,0.200413,0.146682,0.618456,0.0,0.0,0.0
826,8260,0.200413,0.146682,0.618456,0.0,0.0,0.0
827,8270,0.200413,0.146682,0.618456,0.0,0.0,0.0
828,8280,0.200413,0.146682,0.618456,0.0,0.0,0.0
829,8290,-0.018349,0.082982,1.243012,0.0,0.0,0.0
830,8300,0.026605499999999997,0.08613950000000001,1.1430655,0.0,0.0,0.0
831,8310,0.06682,0.09470200000000001,0.9556574999999999,0.0,0.0,0.0
832,8320,-0.005,0.100306,0.788379,0.0,0.0,0.0
833,8330,-0.097446,0.163303,0.901835,0.0,0.0,0.0
834,8340,-0.09964049999999999,0.2083105,1.004335,0.0,0.0,0.0
835,8350,-0.0681425,0.289962,1.187416,0.0,0.0,0.0
836,8360,0.059832,0.392462,1.330168,0.0,0.0,0.0
837,8370,0.403976,0.49133,1.306223,0.0,0.0,0.0
838,8380,0.540168,0.497446,1.267171,0.0,0.0,0.0
839,8390,0.550658,0.495917,1.256468,0.0,0.0,0.0
840,8400,0.550658,0.495917,1.256468,0.0,0.0,0.0
841,8410,0.354687,0.518142,1.2892964999999998,0.0,0.0,0.0
842,8420,0.440566,0.497859,1.255459,0.0,0.0,0.0
843,8430,-0.079924,0.589709,1.324052,0.0,0.0,0.0
844,8440,-0.079924,0.589709,1.324052,0.0,0.0,0.0
845,8450,-0.17604,0.589709,1.00367,0.0,0.0,0.0
846,8460,-0.17604,0.589709,1.00367,0.0,0.0,0.0
847,8470,-0.022018,0.513257,0.8213,0.0,0.0,0.0
848,8480,0.0478595,0.49801249999999997,0.8008105000000001,0.0,0.0,0.0
849,8490,0.155046,0.465948,0.80815,0.0,0.0,0.0
850,8500,0.162026,0.46116199999999996,0.8269115,0.0,0.0,0.0
851,8510,0.1766515,0.450665,0.864985,0.0,0.0,0.0
852,8520,0.184297,0.444954,0.884297,0.0,0.0,0.0
853,8530,0.187263,0.386651,0.920902,0.0,0.0,0.0
854,8540,0.117936,0.256988,1.00948,0.0,0.0,0.0
855,8550,0.04393,0.19552,1.045359,0.0,0.0,0.0
856,8560,-0.106927,0.089602,1.070535,0.0,0.0,0.0
857,8570,-0.18604,-0.008456,0.92263,0.0,0.0,0.0
858,8580,-0.192156,-0.045765,0.79419,0.0,0.0,0.0
859,8590,-0.17263,-0.053104,0.7425615,0.0,0.0,0.0
860,8600,-0.081346,-0.063807,0.594297,0.0,0.0,0.0
861,8610,-0.007141,-0.015291,0.480841,0.0,0.0,0.0
862,8620,-0.0014835,-0.0098855,0.47900600000000004,0.0,0.0,0.0
863,8630,0.008364,0.028333,0.474725,0.0,0.0,0.0
864,8640,0.008364,0.028333,0.474725,0.0,0.0,0.0
865,8650,-0.077676,0.048119,0.467385,0.0,0.0,0.0
866,8660,-0.113563,0.085627,0.453716,0.0,0.0,0.0
867,8670,-0.173593,0.098884,0.416407,0.0,0.0,0.0
868,8680,-0.269725,0.146896,0.271865,0.0,0.0,0.0
869,8690,-0.269006,0.159633,0.211422,0.0,0.0,0.0
870,8700,-0.224159,0.169618,0.199893,0.0,0.0,0.0
871,8710,-0.224159,0.169618,0.199893,0.0,0.0,0.0
872,8720,-0.224159,0.169618,0.199893,0.0,0.0,0.0
873,8730,-0.224159,0.169618,0.199893,0.0,0.0,0.0
874,8740,-0.224159,0.169618,0.199893,0.0,0.0,0.0
875,8750,-0.224159,0.169618,0.199893,0.0,0.0,0.0
876,8760,-0.224159,0.169618,0.199893,0.0,0.0,0.0
877,8770,-0.224159,0.169618,0.199893,0.0,0.0,0.0
878,8780,-0.224159,0.169618,0.199893,0.0,0.0,0.0
879,8790,-0.224159,0.169618,0.199893,0.0,0.0,0.0
880,8800,-0.224159,0.169618,0.199893,0.0,0.0,0.0
881,8810,-0.224159,0.169618,0.199893,0.0,0.0,0.0
882,8820,-0.042102499999999994,0.48409800000000003,0.6732415,0.0,0.0,0.0
883,8830,-0.1395565,0.5496405,0.5583100000000001,0.0,0.0,0.0
884,8840,-0.188272,0.639954,0.52844,0.0,0.0,0.0
885,8850,-0.16212549999999998,0.6487229999999999,0.5518879999999999,0.0,0.0,0.0
886,8860,-0.0977065,0.6643195,0.5761465,0.0,0.0,0.0
887,8870,0.05841,0.702645,0.537722,0.0,0.0,0.0
888,8880,0.10831049999999999,0.703257,0.5314985000000001,0.0,0.0,0.0
889,8890,0.229052,0.705398,0.682875,0.0,0.0,0.0
890,8900,0.262691,0.738333,0.772278,0.0,0.0,0.0
891,8910,0.1799695,0.8291055,0.755405,0.0,0.0,0.0
892,8920,0.097248,0.919878,0.738532,0.0,0.0,0.0
893,8930,0.070841,1.093165,0.595107,0.0,0.0,0.0
894,8940,0.23711,1.133746,0.598976,0.0,0.0,0.0
895,8950,0.403976,1.088272,0.7737,0.0,0.0,0.0
896,8960,0.403976,1.088272,0.7737,0.0,0.0,0.0
897,8970,1.064427,0.7571330000000001,1.510344,0.0,0.0,0.0
898,8980,1.136193,0.736391,1.636284,0.0,0.0,0.0
899,8990,1.235061,0.7263,1.90133,0.0,0.0,0.0
900,9000,1.238731,0.758104,2.167783,0.0,0.0,0.0
901,9010,1.147202,0.877171,2.38604,0.0,0.0,0.0
902,9020,0.9996485,1.036445,2.4658565,0.0,0.0,0.0
903,9030,0.669006,1.36341,2.546376,0.0,0.0,0.0
904,9040,0.31320349999999997,1.605757,2.116208,0.0,0.0,0.0
905,9050,0.183593,1.655551,1.91815,0.0,0.0,0.0
906,9060,0.160298,1.654534,1.8430735,0.0,0.0,0.0
907,9070,0.10448,1.596942,1.760443,0.0,0.0,0.0
908,9080,0.108456,1.523242,1.832523,0.0,0.0,0.0
909,9090,0.210199,1.374312,1.971361,0.0,0.0,0.0
910,9100,0.275841,1.301835,1.982064,0.0,0.0,0.0
911,9110,0.28318,1.23445,1.943731,0.0,0.0,0.0
912,9120,0.298058,1.166361,1.834664,0.0,0.0,0.0
913,9130,0.335367,1.12344,1.601835,0.0,0.0,0.0
914,9140,0.355046,1.0566740000000001,1.4799159999999998,0.0,0.0,0.0
915,9150,0.391544,0.916009,1.256988,0.0,0.0,0.0
916,9160,0.391544,0.916009,1.256988,0.0,0.0,0.0
917,9170,0.400612,0.739557,0.971453,0.0,0.0,0.0
918,9180,0.3647325,0.7178445,0.9128445000000001,0.0,0.0,0.0
919,9190,0.290321,0.66341,0.77156,0.0,0.0,0.0
920,9200,0.254633,0.646988,0.713654,0.0,0.0,0.0
921,9210,0.254633,0.646988,0.713654,0.0,0.0,0.0
922,9220,0.2052985,0.5885324999999999,0.6561159999999999,0.0,0.0,0.0
923,9230,0.157691,0.524465,0.620688,0.0,0.0,0.0
924,9240,0.157691,0.524465,0.620688,0.0,0.0,0.0
925,9250,0.157691,0.524465,0.620688,0.0,0.0,0.0
926,9260,0.157691,0.524465,0.620688,0.0,0.0,0.0
927,9270,0.157691,0.524465,0.620688,0.0,0.0,0.0
928,9280,0.157691,0.524465,0.620688,0.0,0.0,0.0
929,9290,0.157691,0.524465,0.620688,0.0,0.0,0.0
930,9300,0.157691,0.524465,0.620688,0.0,0.0,0.0
931,9310,0.157691,0.524465,0.620688,0.0,0.0,0.0
932,9320,0.157691,0.524465,0.620688,0.0,0.0,0.0
933,9330,0.157691,0.524465,0.620688,0.0,0.0,0.0
934,9340,0.22058899999999998,0.1950535,0.20458700000000002,0.0,0.0,0.0
935,9350,0.341086,0.136391,0.103058,0.0,0.0,0.0
936,9360,0.305917,0.125184,0.225275,0.0,0.0,0.0
937,9370,0.141896,0.125688,0.453716,0.0,0.0,0.0
938,9380,,,,,,
939,9390,-0.108815,0.1374085,0.653517,0.0,0.0,0.0
940,9400,-0.243119,0.13078,0.676865,0.0,0.0,0.0
941,9410,-0.243119,0.13078,0.676865,0.0,0.0,0.0
942,9420,-0.167783,-0.019373,0.343226,0.0,0.0,0.0
943,9430,-0.170642,-0.086346,0.270229,0.0,0.0,0.0
944,9440,-0.244847,-0.1,0.239251,0.0,0.0,0.0
945,9450,-0.414266,-0.143119,0.437615,0.0,0.0,0.0
946,9460,-0.425688,-0.1737,0.690933,0.0,0.0,0.0
947,9470,-0.279006,-0.185826,0.990413,0.0,0.0,0.0
948,9480,-0.14281349999999998,-0.181086,1.1691129999999998,0.0,0.0,0.0
949,9490,0.21815,-0.14653650000000001,1.7123855,0.0,0.0,0.0
950,9500,0.235887,-0.141896,1.738731,0.0,0.0,0.0
951,9510,0.29633,-0.035061,1.73578,0.0,0.0,0.0
952,9520,0.453823,0.146483,1.569618,0.0,0.0,0.0
953,9530,0.497446,0.340474,1.226193,0.0,0.0,0.0
954,9540,0.4649845,0.403471,1.121254,0.0,0.0,0.0
955,9550,0.39185,0.503058,0.979511,0.0,0.0,0.0
956,9560,0.39185,0.503058,0.979511,0.0,0.0,0.0
957,9570,0.1971945,0.5427065,1.1540825,0.0,0.0,0.0
958,9580,0.0230355,0.5737995,1.406835,0.0,0.0,0.0
959,9590,0.005199,0.572064,1.411728,0.0,0.0,0.0
960,9600,-0.060138,0.560352,1.408058,0.0,0.0,0.0
961,9610,-0.079916,0.5522935,1.3706955,0.0,0.0,0.0
962,9620,-0.151177,0.518456,1.209587,0.0,0.0,0.0
963,9630,-0.154541,0.522324,1.172064,0.0,0.0,0.0
964,9640,-0.121101,0.542309,1.079006,0.0,0.0,0.0
965,9650,-0.068914,0.543318,1.038028,0.0,0.0,0.0
966,9660,-0.05,0.52487,1.0395035,0.0,0.0,0.0
967,9670,0.028333,0.44445,1.04974,0.0,0.0,0.0
968,9680,0.119878,0.288486,1.014572,0.0,0.0,0.0
969,9690,0.12889899999999999,0.2463835,0.9779815000000001,0.0,0.0,0.0
970,9700,0.149434,0.128333,0.872278,0.0,0.0,0.0
971,9710,0.14673550000000002,0.0951525,0.851682,0.0,0.0,0.0
972,9720,0.080321,0.020291,0.817431,0.0,0.0,0.0
973,9730,0.021965000000000002,-0.0017809999999999996,0.842049,0.0,0.0,0.0
974,9740,-0.036391,-0.023853,0.866667,0.0,0.0,0.0
975,9750,-0.076254,-0.031391,0.869419,0.0,0.0,0.0
976,9760,-0.076254,-0.031391,0.869419,0.0,0.0,0.0
977,9770,-0.076254,-0.031391,0.869419,0.0,0.0,0.0
978,9780,-0.076254,-0.031391,0.869419,0.0,0.0,0.0
979,9790,-0.076254,-0.031391,0.869419,0.0,0.0,0.0
980,9800,-0.076254,-0.031391,0.869419,0.0,0.0,0.0
981,9810,-0.076254,-0.031391,0.869419,0.0,0.0,0.0
982,9820,-0.076254,-0.031391,0.869419,0.0,0.0,0.0
983,9830,-0.076254,-0.031391,0.869419,0.0,0.0,0.0
984,9840,-0.076254,-0.031391,0.869419,0.0,0.0,0.0
985,9850,-0.076254,-0.031391,0.869419,0.0,0.0,0.0
986,9860,-0.0363915,0.1077985,0.8101910000000001,0.0,0.0,0.0
987,9870,-0.075535,0.247706,0.79419,0.0,0.0,0.0
988,9880,-0.160658,0.28552,0.796131,0.0,0.0,0.0
989,9890,-0.21019900000000002,0.335061,0.734862,0.0,0.0,0.0
990,9900,-0.2737,0.42396,0.578486,0.0,0.0,0.0
991,9910,-0.276147,0.45474,0.50234,0.0,0.0,0.0
992,9920,-0.276147,0.45474,0.50234,0.0,0.0,0.0
993,9930,-0.276147,0.45474,0.50234,0.0,0.0,0.0
994,9940,-0.130382,0.431804,0.660963,0.0,0.0,0.0
995,9950,-0.058609,0.42396,0.725382,0.0,0.0,0.0
996,9960,-0.017936,0.3989295,0.758104,0.0,0.0,0.0
997,9970,0.022737,0.373899,0.790826,0.0,0.0,0.0
998,9980,0.041086,0.380229,0.82763,0.0,0.0,0.0
999,9990,0.0413305,0.413662,0.8643730000000001,0.0,0.0,0.0
