id,timestamp,acc_x,acc_y,acc_z,gyro_x,gyro_y,gyro_z
0,0,0.235061,0.49867,1.244755,0.0,0.0,0.0
1,10,0.08185,0.516713,1.354129,0.0,0.0,0.0
2,20,0.08185,0.516713,1.354129,0.0,0.0,0.0
3,30,-0.023035,0.5112155,1.3609555,0.0,0.0,0.0
4,40,-0.07156,0.50133,1.300413,0.0,0.0,0.0
5,50,-0.070849,0.4831345,1.2652450000000002,0.0,0.0,0.0
6,60,-0.051583000000000004,0.4469955,1.1984715000000001,0.0,0.0,0.0
7,70,-0.028853,0.419067,1.1313,0.0,0.0,0.0
8,80,-0.028853,0.419067,1.1313,0.0,0.0,0.0
9,90,-0.028853,0.419067,1.1313,0.0,0.0,0.0
10,100,-0.028853,0.419067,1.1313,0.0,0.0,0.0
11,110,-0.028853,0.419067,1.1313,0.0,0.0,0.0
12,120,-0.028853,0.419067,1.1313,0.0,0.0,0.0
13,130,-0.028853,0.419067,1.1313,0.0,0.0,0.0
14,140,-0.028853,0.419067,1.1313,0.0,0.0,0.0
15,150,-0.028853,0.419067,1.1313,0.0,0.0,0.0
16,160,-0.028853,0.419067,1.1313,0.0,0.0,0.0
17,170,-0.028853,0.419067,1.1313,0.0,0.0,0.0
18,180,-0.028853,0.419067,1.1313,0.0,0.0,0.0
19,190,-0.024465,0.324572,0.635581,0.0,0.0,0.0
20,200,-0.040566,0.256269,0.759526,0.0,0.0,0.0
21,210,-0.0277755,0.2434785,0.8782875,0.0,0.0,0.0
22,220,-0.019878,0.240168,0.914985,0.0,0.0,0.0
23,230,-0.022072,0.2238,0.9877675,0.0,0.0,0.0
24,240,-0.17656,0.249648,1.065138,0.0,0.0,0.0
25,250,-0.17656,0.249648,1.065138,0.0,0.0,0.0
26,260,-0.17656,0.249648,1.065138,0.0,0.0,0.0
27,270,-0.3319115,0.2926145,1.03802,0.0,0.0,0.0
28,280,-0.5128440000000001,0.3690135,0.9216055,0.0,0.0,0.0
29,290,-0.459128,0.433945,0.715183,0.0,0.0,0.0
30,300,-0.459128,0.433945,0.715183,0.0,0.0,0.0
31,310,-0.2427675,0.378899,0.7209935000000001,0.0,0.0,0.0
32,320,-0.019572,0.210199,0.887966,0.0,0.0,0.0
33,330,-0.060856,0.120795,0.994083,0.0,0.0,0.0
34,340,-0.060856,0.120795,0.994083,0.0,0.0,0.0
35,350,-0.274113,0.004174,1.047599,0.0,0.0,0.0
36,360,-0.279006,0.068807,0.945765,0.0,0.0,0.0
37,370,-0.22446499999999997,0.111674,0.9029514999999999,0.0,0.0,0.0
38,380,-0.022737,0.23211,0.762691,0.0,0.0,0.0
39,390,0.27737,0.302645,0.630474,0.0,0.0,0.0
40,400,0.315191,0.3038685,0.6277755,0.0,0.0,0.0
41,410,0.410092,0.305306,0.657997,0.0,0.0,0.0
42,420,0.410092,0.305306,0.657997,0.0,0.0,0.0
43,430,0.3903135,0.267225,0.801682,0.0,0.0,0.0
44,440,0.304694,0.217936,0.931911,0.0,0.0,0.0
45,450,0.304694,0.217936,0.931911,0.0,0.0,0.0
46,460,0.278089,0.256774,1.111208,0.0,0.0,0.0
47,470,0.27268349999999997,0.255046,1.1584555,0.0,0.0,0.0
48,480,0.221407,0.196743,1.258211,0.0,0.0,0.0
49,490,0.2037235,0.164633,1.215856,0.0,0.0,0.0
50,500,0.16738550000000002,0.11264550000000001,1.1109095,0.0,0.0,0.0
51,510,0.044755,0.017324,0.815489,0.0,0.0,0.0
52,520,0.0284935,0.0084555,0.7587155,0.0,0.0,0.0
53,530,-0.00081,-0.016208,0.594297,0.0,0.0,0.0
54,540,-0.065031,-0.075336,0.523547,0.0,0.0,0.0
55,550,-0.065031,-0.075336,0.523547,0.0,0.0,0.0
56,560,-0.195818,-0.1041285,0.5718654999999999,0.0,0.0,0.0
57,570,-0.234144,-0.114878,0.627018,0.0,0.0,0.0
58,580,-0.270596,-0.10942650000000001,0.736292,0.0,0.0,0.0
59,590,-0.292966,-0.098471,0.7755354999999999,0.0,0.0,0.0
60,600,-0.295917,-0.092156,0.784404,0.0,0.0,0.0
61,610,-0.295917,-0.092156,0.784404,0.0,0.0,0.0
62,620,-0.295917,-0.092156,0.784404,0.0,0.0,0.0
63,630,-0.295917,-0.092156,0.784404,0.0,0.0,0.0
64,640,-0.295917,-0.092156,0.784404,0.0,0.0,0.0
65,650,-0.295917,-0.092156,0.784404,0.0,0.0,0.0
66,660,-0.295917,-0.092156,0.784404,0.0,0.0,0.0
67,670,-0.295917,-0.092156,0.784404,0.0,0.0,0.0
68,680,-0.295917,-0.092156,0.784404,0.0,0.0,0.0
69,690,-0.295917,-0.092156,0.784404,0.0,0.0,0.0
70,700,-0.295917,-0.092156,0.784404,0.0,0.0,0.0
71,710,-0.1830275,-0.11341000000000001,0.822271,0.0,0.0,0.0
72,720,-0.0885325,-0.0936315,0.8828214999999999,0.0,0.0,0.0
73,730,-0.168502,0.049037,0.916009,0.0,0.0,0.0
74,740,-0.168502,0.049037,0.916009,0.0,0.0,0.0
75,750,-0.177783,0.168395,0.882064,0.0,0.0,0.0
76,760,-0.167278,0.344144,0.561162,0.0,0.0,0.0
77,770,-0.167278,0.344144,0.561162,0.0,0.0,0.0
78,780,-0.166055,0.384602,0.591636,0.0,0.0,0.0
79,790,-0.131399,0.4035625,0.6918425,0.0,0.0,0.0
80,800,-0.096743,0.422523,0.792049,0.0,0.0,0.0
81,810,-0.052806,0.433838,0.98461,0.0,0.0,0.0
82,820,0.043425,0.445306,1.195214,0.0,0.0,0.0
83,830,0.409893,0.393471,1.441483,0.0,0.0,0.0
84,840,0.409893,0.393471,1.441483,0.0,0.0,0.0
85,850,0.546789,0.369006,1.582768,0.0,0.0,0.0
86,860,0.674924,0.573287,1.690627,0.0,0.0,0.0
87,870,0.674924,0.573287,1.690627,0.0,0.0,0.0
88,880,0.504434,0.921101,1.6019345,0.0,0.0,0.0
89,890,0.40596299999999996,1.1496485,1.4165675,0.0,0.0,0.0
90,900,0.386437,1.197355,1.325795,0.0,0.0,0.0
91,910,0.386437,1.197355,1.325795,0.0,0.0,0.0
92,920,0.512339,1.110703,1.27237,0.0,0.0,0.0
93,930,0.584816,0.992355,2.047706,0.0,0.0,0.0
94,940,0.5105045,0.9705429999999999,2.2955655,0.0,0.0,0.0
95,950,0.436193,0.948731,2.543425,0.0,0.0,0.0
96,960,0.13241599999999998,1.042561,2.8185015,0.0,0.0,0.0
97,970,-0.336193,1.264526,2.848012,0.0,0.0,0.0
98,980,-0.336193,1.264526,2.848012,0.0,0.0,0.0
99,990,-0.377523,1.4022934999999999,2.3226755,0.0,0.0,0.0
100,1000,-0.331804,1.427324,2.115795,0.0,0.0,0.0
101,1010,0.02039,1.3036699999999999,1.6538225,0.0,0.0,0.0
102,1020,0.25974,1.173501,1.568914,0.0,0.0,0.0
103,1030,0.374511,1.008456,1.499587,0.0,0.0,0.0
104,1040,0.38266849999999997,0.9493885,1.470535,0.0,0.0,0.0
105,1050,0.390826,0.890321,1.441483,0.0,0.0,0.0
106,1060,0.28104,0.836697,1.258211,0.0,0.0,0.0
107,1070,0.2118275,0.833486,1.2365979999999999,0.0,0.0,0.0
108,1080,0.04551999999999999,0.8298165,1.230023,0.0,0.0,0.0
109,1090,-0.085734,0.766865,1.249434,0.0,0.0,0.0
110,1100,-0.08889150000000001,0.734044,1.2275684999999998,0.0,0.0,0.0
111,1110,-0.07156,0.567997,1.047095,0.0,0.0,0.0
112,1120,-0.0700845,0.5523469999999999,1.029763,0.0,0.0,0.0
113,1130,-0.068609,0.536697,1.012431,0.0,0.0,0.0
114,1140,-0.068609,0.536697,1.012431,0.0,0.0,0.0
115,1150,-0.068609,0.536697,1.012431,0.0,0.0,0.0
116,1160,-0.068609,0.536697,1.012431,0.0,0.0,0.0
117,1170,-0.068609,0.536697,1.012431,0.0,0.0,0.0
118,1180,-0.068609,0.536697,1.012431,0.0,0.0,0.0
119,1190,-0.068609,0.536697,1.012431,0.0,0.0,0.0
120,1200,-0.068609,0.536697,1.012431,0.0,0.0,0.0
121,1210,-0.068609,0.536697,1.012431,0.0,0.0,0.0
122,1220,,,,,,
123,1230,-0.091086,0.2578975,0.9428590000000001,0.0,0.0,0.0
124,1240,-0.118242,-0.020382,0.832309,0.0,0.0,0.0
125,1250,-0.1990295,0.0300765,0.6580505,0.0,0.0,0.0
126,1260,-0.279817,0.080535,0.483792,0.0,0.0,0.0
127,1270,-0.279817,0.080535,0.483792,0.0,0.0,0.0
128,1280,0.160963,0.137615,0.527722,0.0,0.0,0.0
129,1290,0.20122299999999999,0.09006149999999999,0.722118,0.0,0.0,0.0
130,1300,0.241483,0.042508,0.916514,0.0,0.0,0.0
131,1310,0.162385,-0.10168200000000001,1.247454,0.0,0.0,0.0
132,1320,,,,,,
133,1330,0.083287,-0.245872,1.578394,0.0,0.0,0.0
134,1340,-0.32589450000000003,-0.10825699999999999,1.445719,0.0,0.0,0.0
135,1350,-0.505405,0.014625000000000003,1.18445,0.0,0.0,0.0
136,1360,-0.565336,0.135168,0.799388,0.0,0.0,0.0
137,1370,-0.525428,0.13899050000000002,0.712943,0.0,0.0,0.0
138,1380,-0.438272,0.0986235,0.5857795,0.0,0.0,0.0
139,1390,-0.26289,-0.058211,0.541896,0.0,0.0,0.0
140,1400,-0.149434,-0.091636,0.551575,0.0,0.0,0.0
141,1410,-0.062737,-0.09908249999999999,0.5809865000000001,0.0,0.0,0.0
142,1420,0.356376,-0.117324,0.741483,0.0,0.0,0.0
143,1430,0.50948,-0.054847,0.923853,0.0,0.0,0.0
144,1440,0.525076,0.019771,1.034358,0.0,0.0,0.0
145,1450,0.525076,0.019771,1.034358,0.0,0.0,0.0
146,1460,0.486743,0.107645,1.166866,0.0,0.0,0.0
147,1470,0.207752,0.249648,1.270443,0.0,0.0,0.0
148,1480,0.130168,0.420291,1.117844,0.0,0.0,0.0
149,1490,0.090627,0.482768,0.937003,0.0,0.0,0.0
150,1500,0.068555,0.491789,0.7729895,0.0,0.0,0.0
151,1510,0.041284,0.468609,0.546988,0.0,0.0,0.0
152,1520,0.041284,0.468609,0.546988,0.0,0.0,0.0
153,1530,0.00133,0.364939,0.600199,0.0,0.0,0.0
154,1540,0.00133,0.364939,0.600199,0.0,0.0,0.0
155,1550,-0.016101,0.32818800000000004,0.6730355,0.0,0.0,0.0
156,1560,-0.033532,0.291437,0.745872,0.0,0.0,0.0
157,1570,-0.1229815,0.160344,1.1584634999999999,0.0,0.0,0.0
158,1580,-0.138945,0.098578,1.153716,0.0,0.0,0.0
159,1590,-0.116873,0.086751,1.031086,0.0,0.0,0.0
160,1600,-0.087821,0.056728,0.8260935,0.0,0.0,0.0
161,1610,-0.045459,0.030076,0.586239,0.0,0.0,0.0
162,1620,-0.0213535,0.019930999999999997,0.47314249999999997,0.0,0.0,0.0
163,1630,0.0232415,-0.0007645000000000004,0.298165,0.0,0.0,0.0
164,1640,0.078899,-0.049648,0.161575,0.0,0.0,0.0
165,1650,0.078899,-0.049648,0.161575,0.0,0.0,0.0
166,1660,0.090826,-0.058211,0.124266,0.0,0.0,0.0
167,1670,0.090826,-0.058211,0.124266,0.0,0.0,0.0
168,1680,0.090826,-0.058211,0.124266,0.0,0.0,0.0
169,1690,0.090826,-0.058211,0.124266,0.0,0.0,0.0
170,1700,0.090826,-0.058211,0.124266,0.0,0.0,0.0
171,1710,0.090826,-0.058211,0.124266,0.0,0.0,0.0
172,1720,0.090826,-0.058211,0.124266,0.0,0.0,0.0
173,1730,0.090826,-0.058211,0.124266,0.0,0.0,0.0
174,1740,0.090826,-0.058211,0.124266,0.0,0.0,0.0
175,1750,0.090826,-0.058211,0.124266,0.0,0.0,0.0
176,1760,-0.1739065,0.081957,0.333792,0.0,0.0,0.0
177,1770,-0.438639,0.222125,0.543318,0.0,0.0,0.0
178,1780,-0.3423545,0.13593249999999998,0.510344,0.0,0.0,0.0
179,1790,0.037416,-0.023349,0.779618,0.0,0.0,0.0
180,1800,0.037416,-0.023349,0.779618,0.0,0.0,0.0
181,1810,-0.047660499999999995,0.1244645,0.9805275,0.0,0.0,0.0
182,1820,-0.08318049999999999,0.234656,1.121613,0.0,0.0,0.0
183,1830,-0.101116,0.28919,1.189098,0.0,0.0,0.0
184,1840,-0.060244500000000006,0.363303,1.109434,0.0,0.0,0.0
185,1850,-0.054541,0.368303,1.056376,0.0,0.0,0.0
186,1860,-0.094289,0.4313455,1.0128975,0.0,0.0,0.0
187,1870,-0.097446,0.548425,1.014373,0.0,0.0,0.0
188,1880,-0.0958715,0.595673,0.9943424999999999,0.0,0.0,0.0
189,1890,-0.150872,0.734358,0.939144,0.0,0.0,0.0
190,1900,-0.150872,0.734358,0.939144,0.0,0.0,0.0
191,1910,0.177783,0.866972,0.93945,0.0,0.0,0.0
192,1920,0.33078,0.751269,1.100306,0.0,0.0,0.0
193,1930,0.43073400000000006,0.6904665,1.1951070000000001,0.0,0.0,0.0
194,1940,0.6467430000000001,0.5885325,1.433792,0.0,0.0,0.0
195,1950,0.762798,0.547401,1.577676,0.0,0.0,0.0
196,1960,0.595826,0.800306,2.386743,0.0,0.0,0.0
197,1970,0.5258944999999999,0.8903669999999999,2.519266,0.0,0.0,0.0
198,1980,0.41997700000000004,1.047806,2.783234,0.0,0.0,0.0
199,1990,0.281239,1.189098,3.138226,0.0,0.0,0.0
200,2000,0.281239,1.189098,3.138226,0.0,0.0,0.0
201,2010,0.177477,1.20133,3.111621,0.0,0.0,0.0
202,2020,0.083287,1.206422,3.043532,0.0,0.0,0.0
203,2030,0.083287,1.206422,3.043532,0.0,0.0,0.0
204,2040,,,,,,
205,2050,,,,,,
206,2060,,,,,,
207,2070,,,,,,
208,2080,,,,,,
209,2090,,,,,,
210,2100,,,,,,
211,2110,0.04159,1.210596,2.942003,0.0,0.0,0.0
212,2120,0.005863999999999999,0.8668195,2.6704895000000004,0.0,0.0,0.0
213,2130,-0.065237,0.5164679999999999,2.4361925,0.0,0.0,0.0
214,2140,-0.135627,0.480581,2.278035,0.0,0.0,0.0
215,2150,-0.195665,0.4425075,2.091338,0.0,0.0,0.0
216,2160,-0.231391,0.35026,1.640673,0.0,0.0,0.0
217,2170,-0.214931,0.3199845,1.562332,0.0,0.0,0.0
218,2180,-0.198471,0.289709,1.483991,0.0,0.0,0.0
219,2190,-0.198471,0.289709,1.483991,0.0,0.0,0.0
220,2200,-0.198471,0.289709,1.483991,0.0,0.0,0.0
221,2210,-0.198471,0.289709,1.483991,0.0,0.0,0.0
222,2220,-0.198471,0.289709,1.483991,0.0,0.0,0.0
223,2230,-0.198471,0.289709,1.483991,0.0,0.0,0.0
224,2240,-0.198471,0.289709,1.483991,0.0,0.0,0.0
225,2250,-0.198471,0.289709,1.483991,0.0,0.0,0.0
226,2260,-0.198471,0.289709,1.483991,0.0,0.0,0.0
227,2270,-0.198471,0.289709,1.483991,0.0,0.0,0.0
228,2280,-0.1254815,0.104029,0.9915905,0.0,0.0,0.0
229,2290,-0.067171,-0.08237,0.490627,0.0,0.0,0.0
230,2300,-0.067171,-0.08237,0.490627,0.0,0.0,0.0
231,2310,-0.071865,-0.158303,0.502034,0.0,0.0,0.0
232,2320,-0.051735500000000004,-0.1603975,0.5328215000000001,0.0,0.0,0.0
233,2330,0.042309,-0.15555,0.606009,0.0,0.0,0.0
234,2340,0.042309,-0.15555,0.606009,0.0,0.0,0.0
235,2350,0.105604,-0.1297705,0.6679435,0.0,0.0,0.0
236,2360,0.114526,-0.156223,0.7060165,0.0,0.0,0.0
237,2370,0.020291,-0.18685,0.70948,0.0,0.0,0.0
238,2380,-0.038937,-0.188937,0.6901145,0.0,0.0,0.0
239,2390,-0.290015,-0.175841,0.532829,0.0,0.0,0.0
240,2400,-0.2977065,-0.143884,0.468043,0.0,0.0,0.0
241,2410,-0.311208,-0.04159,0.26708,0.0,0.0,0.0
242,2420,-0.2654895,-0.0201835,0.22176649999999998,0.0,0.0,0.0
243,2430,-0.095214,0.041483,0.165948,0.0,0.0,0.0
244,2440,-0.091132,-0.000413,0.239251,0.0,0.0,0.0
245,2450,-0.091132,-0.000413,0.239251,0.0,0.0,0.0
246,2460,-0.0935245,-0.047355,0.343165,0.0,0.0,0.0
247,2470,-0.101116,-0.067477,0.407844,0.0,0.0,0.0
248,2480,-0.09877649999999999,-0.0661545,0.414679,0.0,0.0,0.0
249,2490,-0.060138,-0.030688,0.432003,0.0,0.0,0.0
250,2500,-0.060138,-0.030688,0.432003,0.0,0.0,0.0
251,2510,0.01182,0.007034,0.435887,0.0,0.0,0.0
252,2520,0.204083,0.144037,0.408563,0.0,0.0,0.0
253,2530,0.291239,0.21896,0.382676,0.0,0.0,0.0
254,2540,0.368395,0.279709,0.364939,0.0,0.0,0.0
255,2550,0.368395,0.279709,0.364939,0.0,0.0,0.0
256,2560,0.41448,0.326804,0.291942,0.0,0.0,0.0
257,2570,0.407446,0.290933,0.323654,0.0,0.0,0.0
258,2580,0.4004585,0.2566285,0.379564,0.0,0.0,0.0
259,2590,0.315642,0.1735475,0.48134550000000004,0.0,0.0,0.0
260,2600,0.237813,0.124771,0.527217,0.0,0.0,0.0
261,2610,0.116514,0.148165,0.4957185,0.0,0.0,0.0
262,2620,0.007141,0.219679,0.355658,0.0,0.0,0.0
263,2630,-0.1826225,0.233234,0.0240065,0.0,0.0,0.0
264,2640,-0.203364,0.216009,-0.024969,0.0,0.0,0.0
265,2650,-0.20590999999999998,0.19918950000000002,-0.024969,0.0,0.0,0.0
266,2660,-0.1210015,0.062737,0.1835395,0.0,0.0,0.0
267,2670,-0.100413,0.016101,0.30948,0.0,0.0,0.0
268,2680,-0.08552,-0.020382,0.448624,0.0,0.0,0.0
269,2690,-0.069113,-0.025795,0.571667,0.0,0.0,0.0
270,2700,-0.069113,-0.025795,0.571667,0.0,0.0,0.0
271,2710,-0.069113,-0.025795,0.571667,0.0,0.0,0.0
272,2720,-0.069113,-0.025795,0.571667,0.0,0.0,0.0
273,2730,-0.069113,-0.025795,0.571667,0.0,0.0,0.0
274,2740,-0.069113,-0.025795,0.571667,0.0,0.0,0.0
275,2750,-0.069113,-0.025795,0.571667,0.0,0.0,0.0
276,2760,-0.069113,-0.025795,0.571667,0.0,0.0,0.0
277,2770,-0.069113,-0.025795,0.571667,0.0,0.0,0.0
278,2780,-0.069113,-0.025795,0.571667,0.0,0.0,0.0
279,2790,-0.069113,-0.025795,0.571667,0.0,0.0,0.0
280,2800,-0.069113,-0.025795,0.571667,0.0,0.0,0.0
281,2810,-0.361774,0.082064,1.151483,0.0,0.0,0.0
282,2820,-0.271758,0.08104,1.284817,0.0,0.0,0.0
283,2830,-0.0801225,0.0729895,1.4293580000000001,0.0,0.0,0.0
284,2840,-0.046177,0.132523,1.379006,0.0,0.0,0.0
285,2850,-0.0284935,0.138991,1.3718195,0.0,0.0,0.0
286,2860,-0.01081,0.145459,1.364633,0.0,0.0,0.0
287,2870,0.055963,0.302446,1.304786,0.0,0.0,0.0
288,2880,0.056827,0.32023650000000004,1.3033105,0.0,0.0,0.0
289,2890,0.044954,0.403471,1.339648,0.0,0.0,0.0
290,2900,0.002752,0.442003,1.465642,0.0,0.0,0.0
291,2910,-0.116208,0.516208,1.702859,0.0,0.0,0.0
292,2920,-0.1344035,0.533433,1.702859,0.0,0.0,0.0
293,2930,-0.16886050000000002,0.598976,1.683081,0.0,0.0,0.0
294,2940,-0.18185,0.720688,1.564526,0.0,0.0,0.0
295,2950,-0.177217,0.7509635,1.487974,0.0,0.0,0.0
296,2960,-0.10316499999999999,0.8065215,1.3231955,0.0,0.0,0.0
297,2970,0.040061,0.837416,1.234969,0.0,0.0,0.0
298,2980,0.0752295,0.8203365,1.2565745000000001,0.0,0.0,0.0
299,2990,0.264113,0.783685,1.52711,0.0,0.0,0.0
300,3000,0.30550449999999996,0.7813915,1.5753285,0.0,0.0,0.0
301,3010,0.425994,0.7737,1.668502,0.0,0.0,0.0
302,3020,0.4505125,0.772989,1.6710475,0.0,0.0,0.0
303,3030,0.709281,0.788073,1.628945,0.0,0.0,0.0
304,3040,0.722217,0.804694,1.6213,0.0,0.0,0.0
305,3050,0.722217,0.804694,1.6213,0.0,0.0,0.0
306,3060,0.8059635,0.834503,1.7513225000000001,0.0,0.0,0.0
307,3070,0.780321,0.81081,2.13711,0.0,0.0,0.0
308,3080,0.741636,0.805558,2.2370565,0.0,0.0,0.0
309,3090,0.623035,0.8038225,2.372477,0.0,0.0,0.0
310,3100,0.543119,0.807339,2.407951,0.0,0.0,0.0
311,3110,0.073089,0.987966,2.263715,0.0,0.0,0.0
312,3120,0.024771,1.020795,2.1945485,0.0,0.0,0.0
313,3130,-0.043677,1.0715595,2.0565215,0.0,0.0,0.0
314,3140,-0.074511,1.1,1.892553,0.0,0.0,0.0
315,3150,-0.074511,1.1,1.892553,0.0,0.0,0.0
316,3160,0.095,0.987462,1.820994,0.0,0.0,0.0
317,3170,0.133135,0.923349,1.818547,0.0,0.0,0.0
318,3180,0.213654,0.888884,1.743119,0.0,0.0,0.0
319,3190,0.32237000000000005,0.842049,1.7010165000000002,0.0,0.0,0.0
320,3200,0.45356300000000005,0.7527065,1.6856725,0.0,0.0,0.0
321,3210,0.463456,0.6894495,1.7724769999999999,0.0,0.0,0.0
322,3220,0.337416,0.602645,1.896437,0.0,0.0,0.0
323,3230,0.337416,0.602645,1.896437,0.0,0.0,0.0
324,3240,0.337416,0.602645,1.896437,0.0,0.0,0.0
325,3250,0.337416,0.602645,1.896437,0.0,0.0,0.0
326,3260,0.337416,0.602645,1.896437,0.0,0.0,0.0
327,3270,0.337416,0.602645,1.896437,0.0,0.0,0.0
328,3280,0.337416,0.602645,1.896437,0.0,0.0,0.0
329,3290,0.337416,0.602645,1.896437,0.0,0.0,0.0
330,3300,0.337416,0.602645,1.896437,0.0,0.0,0.0
331,3310,0.337416,0.602645,1.896437,0.0,0.0,0.0
332,3320,0.337416,0.602645,1.896437,0.0,0.0,0.0
333,3330,0.337416,0.602645,1.896437,0.0,0.0,0.0
334,3340,0.075229,0.121514,0.860138,0.0,0.0,0.0
335,3350,0.075229,0.121514,0.860138,0.0,0.0,0.0
336,3360,0.09552,0.042508,0.79052,0.0,0.0,0.0
337,3370,0.092859,0.00367,0.75393,0.0,0.0,0.0
338,3380,0.092859,0.00367,0.75393,0.0,0.0,0.0
339,3390,0.039556999999999995,-0.044090000000000004,0.7244189999999999,0.0,0.0,0.0
340,3400,-0.065948,-0.048983,0.7219725,0.0,0.0,0.0
341,3410,-0.131086,-0.048012,0.723654,0.0,0.0,0.0
342,3420,-0.345925,0.0649315,0.8603445,0.0,0.0,0.0
343,3430,-0.265138,0.120076,0.931605,0.0,0.0,0.0
344,3440,-0.103257,0.15474,0.883792,0.0,0.0,0.0
345,3450,-0.044037,0.153876,0.838991,0.0,0.0,0.0
346,3460,0.088425,0.0897095,0.7176834999999999,0.0,0.0,0.0
347,3470,0.171147,-0.016009,0.569419,0.0,0.0,0.0
348,3480,0.171667,-0.049648,0.502034,0.0,0.0,0.0
349,3490,0.1373625,-0.049648,0.46763,0.0,0.0,0.0
350,3500,0.0401605,-0.020083999999999998,0.41380700000000004,0.0,0.0,0.0
351,3510,-0.32763,0.153012,0.428135,0.0,0.0,0.0
352,3520,-0.32763,0.153012,0.428135,0.0,0.0,0.0
353,3530,-0.361774,0.156988,0.432523,0.0,0.0,0.0
354,3540,-0.3267585,0.1931725,0.697959,0.0,0.0,0.0
355,3550,-0.261269,0.115703,0.73711,0.0,0.0,0.0
356,3560,-0.237813,0.036086,0.660245,0.0,0.0,0.0
357,3570,-0.23536649999999998,0.0223245,0.6302220000000001,0.0,0.0,0.0
358,3580,-0.23292,0.008563,0.600199,0.0,0.0,0.0
359,3590,-0.119679,0.008563,0.502034,0.0,0.0,0.0
360,3600,0.0855275,0.0366975,0.45785149999999997,0.0,0.0,0.0
361,3610,0.1887385,0.09128449999999999,0.45178149999999995,0.0,0.0,0.0
362,3620,0.349847,0.224771,0.468914,0.0,0.0,0.0
363,3630,0.3659555,0.27421249999999997,0.47925799999999996,0.0,0.0,0.0
364,3640,0.369618,0.365336,0.495,0.0,0.0,0.0
365,3650,0.3509175,0.3929125,0.494136,0.0,0.0,0.0
366,3660,0.263196,0.483287,0.487462,0.0,0.0,0.0
367,3670,0.250765,0.548211,0.495917,0.0,0.0,0.0
368,3680,0.250765,0.548211,0.495917,0.0,0.0,0.0
369,3690,0.1469955,0.5893505,0.5219644999999999,0.0,0.0,0.0
370,3700,0.111116,0.595826,0.51896,0.0,0.0,0.0
371,3710,-0.0644265,0.576147,0.4118735,0.0,0.0,0.0
372,3720,-0.17737,0.5316055,0.3667205,0.0,0.0,0.0
373,3730,-0.208456,0.511116,0.36341,0.0,0.0,0.0
374,3740,-0.252401,0.472982,0.398058,0.0,0.0,0.0
375,3750,-0.299801,0.436391,0.484511,0.0,0.0,0.0
376,3760,-0.299801,0.436391,0.484511,0.0,0.0,0.0
377,3770,-0.299801,0.436391,0.484511,0.0,0.0,0.0
378,3780,-0.299801,0.436391,0.484511,0.0,0.0,0.0
379,3790,-0.299801,0.436391,0.484511,0.0,0.0,0.0
380,3800,-0.299801,0.436391,0.484511,0.0,0.0,0.0
381,3810,-0.299801,0.436391,0.484511,0.0,0.0,0.0
382,3820,-0.299801,0.436391,0.484511,0.0,0.0,0.0
383,3830,-0.299801,0.436391,0.484511,0.0,0.0,0.0
384,3840,-0.299801,0.436391,0.484511,0.0,0.0,0.0
385,3850,-0.306269,0.4288455,0.5606575,0.0,0.0,0.0
386,3860,-0.154541,0.06055,0.761269,0.0,0.0,0.0
387,3870,-0.2901605,0.09031349999999999,0.8450074999999999,0.0,0.0,0.0
388,3880,-0.34056549999999997,0.12716349999999998,0.779717,0.0,0.0,0.0
389,3890,-0.357385,0.14526,0.715902,0.0,0.0,0.0
390,3900,-0.3529055,0.156575,0.5035165,0.0,0.0,0.0
391,3910,-0.132615,0.110596,0.277064,0.0,0.0,0.0
392,3920,-0.087156,0.075642,0.271865,0.0,0.0,0.0
393,3930,-0.087156,0.075642,0.271865,0.0,0.0,0.0
394,3940,-0.053716,0.043731,0.373899,0.0,0.0,0.0
395,3950,-0.108815,0.036743,0.781391,0.0,0.0,0.0
396,3960,-0.242921,0.100306,0.923043,0.0,0.0,0.0
397,3970,-0.27656,0.134251,0.964526,0.0,0.0,0.0
398,3980,-0.27656,0.134251,0.964526,0.0,0.0,0.0
399,3990,-0.234144,0.157385,0.978486,0.0,0.0,0.0
400,4000,-0.234144,0.157385,0.978486,0.0,0.0,0.0
401,4010,-0.181292,0.170382,0.9852215,0.0,0.0,0.0
402,4020,-0.153104,0.210199,1.082676,0.0,0.0,0.0
403,4030,-0.153104,0.210199,1.082676,0.0,0.0,0.0
404,4040,-0.17411349999999998,0.3271635,1.1991285,0.0,0.0,0.0
405,4050,-0.169419,0.360443,1.205703,0.0,0.0,0.0
406,4060,-0.169419,0.360443,1.205703,0.0,0.0,0.0
407,4070,-0.11513799999999999,0.40550450000000005,1.059633,0.0,0.0,0.0
408,4080,-0.007446,0.414679,0.865245,0.0,0.0,0.0
409,4090,0.069618,0.413257,0.793685,0.0,0.0,0.0
410,4100,0.092202,0.416873,0.7904205,0.0,0.0,0.0
411,4110,0.114786,0.420489,0.787156,0.0,0.0,0.0
412,4120,0.13185000000000002,0.592355,0.886086,0.0,0.0,0.0
413,4130,0.141384,0.6785475,0.9486775000000001,0.0,0.0,0.0
414,4140,0.118456,0.802446,1.062187,0.0,0.0,0.0
415,4150,0.116361,0.8367505,1.077936,0.0,0.0,0.0
416,4160,0.122477,0.8797170000000001,1.069266,0.0,0.0,0.0
417,4170,0.141896,0.887661,1.032416,0.0,0.0,0.0
418,4180,0.141896,0.887661,1.032416,0.0,0.0,0.0
419,4190,0.1787,0.876453,1.033639,0.0,0.0,0.0
420,4200,0.326407,0.744648,1.297966,0.0,0.0,0.0
421,4210,0.457852,0.6706955,1.496024,0.0,0.0,0.0
422,4220,0.655352,0.563303,1.896132,0.0,0.0,0.0
423,4230,0.655352,0.563303,1.896132,0.0,0.0,0.0
424,4240,0.718853,0.547401,2.433639,0.0,0.0,0.0
425,4250,0.65708,0.610703,2.433639,0.0,0.0,0.0
426,4260,0.598624,0.647301,2.378341,0.0,0.0,0.0
427,4270,0.284602,0.775642,1.965749,0.0,0.0,0.0
428,4280,0.284602,0.775642,1.965749,0.0,0.0,0.0
429,4290,0.284602,0.775642,1.965749,0.0,0.0,0.0
430,4300,0.284602,0.775642,1.965749,0.0,0.0,0.0
431,4310,0.284602,0.775642,1.965749,0.0,0.0,0.0
432,4320,0.284602,0.775642,1.965749,0.0,0.0,0.0
433,4330,0.284602,0.775642,1.965749,0.0,0.0,0.0
434,4340,0.284602,0.775642,1.965749,0.0,0.0,0.0
435,4350,0.284602,0.775642,1.965749,0.0,0.0,0.0
436,4360,0.284602,0.775642,1.965749,0.0,0.0,0.0
437,4370,0.284602,0.775642,1.965749,0.0,0.0,0.0
438,4380,0.2253825,0.8509635,1.9496485000000001,0.0,0.0,0.0
439,4390,0.2283945,0.833639,2.10581,0.0,0.0,0.0
440,4400,0.206529,0.824465,2.089189,0.0,0.0,0.0
441,4410,0.154327,0.779511,1.888884,0.0,0.0,0.0
442,4420,0.125382,0.775023,1.83578,0.0,0.0,0.0
443,4430,0.045259999999999995,0.760749,1.6666210000000001,0.0,0.0,0.0
444,4440,-0.017844,0.738333,1.44292,0.0,0.0,0.0
445,4450,-0.021666499999999998,0.7085625,1.394954,0.0,0.0,0.0
446,4460,0.007798499999999998,0.6469419999999999,1.318448,0.0,0.0,0.0
447,4470,0.108976,0.457599,1.366055,0.0,0.0,0.0
448,4480,0.10856299999999999,0.4388375,1.3828745,0.0,0.0,0.0
449,4490,0.046177,0.391437,1.415596,0.0,0.0,0.0
450,4500,0.00867,0.388272,1.42711,0.0,0.0,0.0
451,4510,-0.015083999999999998,0.3840445,1.372064,0.0,0.0,0.0
452,4520,-0.046896,0.370031,1.160352,0.0,0.0,0.0
453,4530,-0.046896,0.370031,1.160352,0.0,0.0,0.0
454,4540,-0.046177,0.325581,0.818349,0.0,0.0,0.0
455,4550,-0.040573,0.32104750000000004,0.7715065,0.0,0.0,0.0
456,4560,-0.020291,0.271667,0.651682,0.0,0.0,0.0
457,4570,-0.020596,0.260963,0.641896,0.0,0.0,0.0
458,4580,-0.020596,0.260963,0.641896,0.0,0.0,0.0
459,4590,-0.061575000000000005,0.2475075,0.5845565,0.0,0.0,0.0
460,4600,-0.102554,0.234052,0.527217,0.0,0.0,0.0
461,4610,-0.11218700000000001,0.24332550000000003,0.472882,0.0,0.0,0.0
462,4620,,,,,,
463,4630,-0.16188049999999998,0.27727100000000005,0.4194185,0.0,0.0,0.0
464,4640,-0.194388,0.277982,0.471055,0.0,0.0,0.0
465,4650,-0.094495,0.240673,0.485933,0.0,0.0,0.0
466,4660,0.040061,0.180841,0.493777,0.0,0.0,0.0
467,4670,0.25393,0.100612,0.590627,0.0,0.0,0.0
468,4680,0.2704895,0.0846105,0.621766,0.0,0.0,0.0
469,4690,0.293685,0.054939,0.688792,0.0,0.0,0.0
470,4700,0.268555,0.0490825,0.6980655,0.0,0.0,0.0
471,4710,0.017431,0.106927,0.71315,0.0,0.0,0.0
472,4720,-0.098884,0.179404,0.643425,0.0,0.0,0.0
473,4730,-0.098884,0.179404,0.643425,0.0,0.0,0.0
474,4740,-0.228242,0.309281,0.515703,0.0,0.0,0.0
475,4750,-0.24607,0.347095,0.478593,0.0,0.0,0.0
476,4760,-0.34393,0.336284,0.53578,0.0,0.0,0.0
477,4770,-0.379098,0.274618,0.591437,0.0,0.0,0.0
478,4780,-0.385061,0.25590999999999997,0.6243655,0.0,0.0,0.0
479,4790,-0.391024,0.237202,0.657294,0.0,0.0,0.0
480,4800,-0.391024,0.237202,0.657294,0.0,0.0,0.0
481,4810,-0.391024,0.237202,0.657294,0.0,0.0,0.0
482,4820,-0.391024,0.237202,0.657294,0.0,0.0,0.0
483,4830,-0.391024,0.237202,0.657294,0.0,0.0,0.0
484,4840,-0.391024,0.237202,0.657294,0.0,0.0,0.0
485,4850,-0.391024,0.237202,0.657294,0.0,0.0,0.0
486,4860,-0.391024,0.237202,0.657294,0.0,0.0,0.0
487,4870,-0.391024,0.237202,0.657294,0.0,0.0,0.0
488,4880,-0.391024,0.237202,0.657294,0.0,0.0,0.0
489,4890,-0.391024,0.237202,0.657294,0.0,0.0,0.0
490,4900,-0.391024,0.237202,0.657294,0.0,0.0,0.0
491,4910,-0.07354699999999999,0.401988,0.5228365,0.0,0.0,0.0
492,4920,0.183593,0.572783,0.38318,0.0,0.0,0.0
493,4930,0.183593,0.572783,0.38318,0.0,0.0,0.0
494,4940,0.158968,0.575841,0.42849400000000004,0.0,0.0,0.0
495,4950,0.134755,0.567477,0.511621,0.0,0.0,0.0
496,4960,0.067691,0.554541,0.551177,0.0,0.0,0.0
497,4970,0.0370565,0.554281,0.5553055,0.0,0.0,0.0
498,4980,0.006422,0.554021,0.559434,0.0,0.0,0.0
499,4990,-0.10133,0.555046,0.545459,0.0,0.0,0.0
500,5000,-0.10133,0.555046,0.545459,0.0,0.0,0.0
501,5010,-0.153318,0.4737,0.573089,0.0,0.0,0.0
502,5020,-0.163104,0.429557,0.607538,0.0,0.0,0.0
503,5030,-0.1549465,0.367225,0.6359325,0.0,0.0,0.0
504,5040,-0.141177,0.240168,0.670031,0.0,0.0,0.0
505,5050,-0.1405655,0.222324,0.6676835000000001,0.0,0.0,0.0
506,5060,-0.133333,0.140566,0.662187,0.0,0.0,0.0
507,5070,-0.11896,0.056881,0.652401,0.0,0.0,0.0
508,5080,-0.1123315,0.041644,0.647661,0.0,0.0,0.0
509,5090,-0.08818,0.020994,0.633333,0.0,0.0,0.0
510,5100,-0.079411,0.0204895,0.6323620000000001,0.0,0.0,0.0
511,5110,-0.0730885,0.0125385,0.631292,0.0,0.0,0.0
512,5120,-0.081346,-0.00133,0.622125,0.0,0.0,0.0
513,5130,-0.081346,-0.00133,0.622125,0.0,0.0,0.0
514,5140,-0.077676,0.00117,0.548165,0.0,0.0,0.0
515,5150,-0.114266,0.017844,0.487462,0.0,0.0,0.0
516,5160,-0.124771,0.040979,0.375642,0.0,0.0,0.0
517,5170,-0.1226835,0.041338,0.3737,0.0,0.0,0.0
518,5180,-0.1419495,0.0391435,0.3750225,0.0,0.0,0.0
519,5190,-0.393991,0.076865,0.537202,0.0,0.0,0.0
520,5200,-0.393991,0.076865,0.537202,0.0,0.0,0.0
521,5210,-0.524771,0.172064,0.82497,0.0,0.0,0.0
522,5220,-0.5402675,0.1907185,0.8604970000000001,0.0,0.0,0.0
523,5230,-0.555764,0.209373,0.896024,0.0,0.0,0.0
524,5240,-0.5299235,0.216361,0.896024,0.0,0.0,0.0
525,5250,-0.211728,0.247706,0.712951,0.0,0.0,0.0
526,5260,0.006475499999999999,0.189656,0.635474,0.0,0.0,0.0
527,5270,0.11987800000000001,0.19663599999999998,0.7306345000000001,0.0,0.0,0.0
528,5280,0.168196,0.22263,0.830076,0.0,0.0,0.0
529,5290,0.168196,0.22263,0.830076,0.0,0.0,0.0
530,5300,0.07818,0.278287,1.000719,0.0,0.0,0.0
531,5310,-0.144801,0.47558849999999997,1.329205,0.0,0.0,0.0
532,5320,-0.124572,0.544235,1.225489,0.0,0.0,0.0
533,5330,-0.124572,0.544235,1.225489,0.0,0.0,0.0
534,5340,-0.124572,0.544235,1.225489,0.0,0.0,0.0
535,5350,-0.124572,0.544235,1.225489,0.0,0.0,0.0
536,5360,-0.124572,0.544235,1.225489,0.0,0.0,0.0
537,5370,-0.124572,0.544235,1.225489,0.0,0.0,0.0
538,5380,-0.124572,0.544235,1.225489,0.0,0.0,0.0
539,5390,-0.124572,0.544235,1.225489,0.0,0.0,0.0
540,5400,-0.124572,0.544235,1.225489,0.0,0.0,0.0
541,5410,-0.124572,0.544235,1.225489,0.0,0.0,0.0
542,5420,-0.124572,0.544235,1.225489,0.0,0.0,0.0
543,5430,0.15116949999999998,0.6432185,1.287821,0.0,0.0,0.0
544,5440,0.4492815,0.7834865,1.3389375000000001,0.0,0.0,0.0
545,5450,0.456468,0.8213,1.33211,0.0,0.0,0.0
546,5460,0.361269,0.897446,1.578394,0.0,0.0,0.0
547,5470,0.428135,0.939862,1.973089,0.0,0.0,0.0
548,5480,0.4481655,0.944495,2.080329,0.0,0.0,0.0
549,5490,0.468196,0.949128,2.187569,0.0,0.0,0.0
550,5500,0.5026984999999999,0.9935775,2.476804,0.0,0.0,0.0
551,5510,0.316101,1.175229,2.65474,0.0,0.0,0.0
552,5520,0.26411300000000004,1.2121785,2.63461,0.0,0.0,0.0
553,5530,0.185061,1.2717125,2.5042815000000003,0.0,0.0,0.0
554,5540,0.185122,1.306529,2.309893,0.0,0.0,0.0
555,5550,0.271453,1.276254,2.251988,0.0,0.0,0.0
556,5560,0.3263995,1.2213075,2.2453135,0.0,0.0,0.0
557,5570,0.447202,1.060963,2.23078,0.0,0.0,0.0
558,5580,0.447202,1.060963,2.23078,0.0,0.0,0.0
559,5590,0.411514,0.983792,2.083899,0.0,0.0,0.0
560,5600,0.377722,0.9639145,2.0057645,0.0,0.0,0.0
561,5610,0.284404,0.9292585,1.8331805,0.0,0.0,0.0
562,5620,0.118456,0.896942,1.632615,0.0,0.0,0.0
563,5630,0.06865450000000001,0.880734,1.5897554999999999,0.0,0.0,0.0
564,5640,-0.09133,0.848823,1.396835,0.0,0.0,0.0
565,5650,-0.095971,0.833685,1.377775,0.0,0.0,0.0
566,5660,-0.122829,0.74607,1.258716,0.0,0.0,0.0
567,5670,-0.093073,0.683899,1.178899,0.0,0.0,0.0
568,5680,-0.093073,0.683899,1.178899,0.0,0.0,0.0
569,5690,0.084908,0.5680965,1.0619725,0.0,0.0,0.0
570,5700,0.248731,0.411208,1.039251,0.0,0.0,0.0
571,5710,0.272431,0.366208,1.0432725,0.0,0.0,0.0
572,5720,0.296131,0.285122,1.045367,0.0,0.0,0.0
573,5730,0.296131,0.285122,1.045367,0.0,0.0,0.0
574,5740,0.1297095,0.2929665,0.9251225,0.0,0.0,0.0
575,5750,0.030627,0.320589,0.8680425,0.0,0.0,0.0
576,5760,-0.039862,0.340979,0.772278,0.0,0.0,0.0
577,5770,-0.062798,0.3407265,0.7056115000000001,0.0,0.0,0.0
578,5780,-0.08792050000000001,0.33496950000000003,0.6045415000000001,0.0,0.0,0.0
579,5790,-0.079924,0.292859,0.512339,0.0,0.0,0.0
580,5800,-0.079924,0.292859,0.512339,0.0,0.0,0.0
581,5810,-0.003417499999999997,0.23964799999999997,0.46830249999999995,0.0,0.0,0.0
582,5820,0.223135,0.152095,0.453517,0.0,0.0,0.0
583,5830,0.223135,0.152095,0.453517,0.0,0.0,0.0
584,5840,0.312026,0.120084,0.653616,0.0,0.0,0.0
585,5850,0.329358,0.101529,0.738532,0.0,0.0,0.0
586,5860,0.329358,0.101529,0.738532,0.0,0.0,0.0
587,5870,0.329358,0.101529,0.738532,0.0,0.0,0.0
588,5880,0.329358,0.101529,0.738532,0.0,0.0,0.0
589,5890,0.329358,0.101529,0.738532,0.0,0.0,0.0
590,5900,0.329358,0.101529,0.738532,0.0,0.0,0.0
591,5910,0.329358,0.101529,0.738532,0.0,0.0,0.0
592,5920,0.329358,0.101529,0.738532,0.0,0.0,0.0
593,5930,0.329358,0.101529,0.738532,0.0,0.0,0.0
594,5940,0.329358,0.101529,0.738532,0.0,0.0,0.0
595,5950,0.329358,0.101529,0.738532,0.0,0.0,0.0
596,5960,-0.3115215,0.2050995,0.8855735,0.0,0.0,0.0
597,5970,-0.253211,0.093991,0.790826,0.0,0.0,0.0
598,5980,-0.253211,0.093991,0.790826,0.0,0.0,0.0
599,5990,-0.25515299999999996,0.0416435,0.7113685,0.0,0.0,0.0
600,6000,-0.2517355,0.0181955,0.6850149999999999,0.0,0.0,0.0
601,6010,-0.095214,0.131086,0.674113,0.0,0.0,0.0
602,6020,0.012232,0.219159,0.707844,0.0,0.0,0.0
603,6030,0.064625,0.2608025,0.727217,0.0,0.0,0.0
604,6040,0.1933715,0.3690595,0.7538225000000001,0.0,0.0,0.0
605,6050,0.308058,0.47156,0.757599,0.0,0.0,0.0
606,6060,0.3213,0.477676,0.74445,0.0,0.0,0.0
607,6070,0.3276225,0.480222,0.726606,0.0,0.0,0.0
608,6080,0.336751,0.4838915,0.6915905,0.0,0.0,0.0
609,6090,0.325183,0.500612,0.623853,0.0,0.0,0.0
610,6100,0.3242125,0.5042815,0.6205425,0.0,0.0,0.0
611,6110,0.317737,0.514526,0.606376,0.0,0.0,0.0
612,6120,0.296835,0.51448,0.545459,0.0,0.0,0.0
613,6130,0.296835,0.51448,0.545459,0.0,0.0,0.0
614,6140,0.173807,0.447095,0.496437,0.0,0.0,0.0
615,6150,0.112798,0.44123100000000004,0.492049,0.0,0.0,0.0
616,6160,-0.053517,0.409985,0.571147,0.0,0.0,0.0
617,6170,-0.084656,0.40367,0.6325155,0.0,0.0,0.0
618,6180,-0.115795,0.397355,0.693884,0.0,0.0,0.0
619,6190,-0.114931,0.43711,0.7938305,0.0,0.0,0.0
620,6200,-0.108463,0.4743115,0.8918425000000001,0.0,0.0,0.0
621,6210,-0.102859,0.471758,0.889908,0.0,0.0,0.0
622,6220,-0.049587,0.4189065,0.79052,0.0,0.0,0.0
623,6230,-0.026552,0.3469415,0.69974,0.0,0.0,0.0
624,6240,-0.022324,0.291437,0.644847,0.0,0.0,0.0
625,6250,-0.039144,0.1688075,0.658364,0.0,0.0,0.0
626,6260,-0.0630505,0.0655425,0.7301225,0.0,0.0,0.0
627,6270,-0.082569,-0.03211,0.801728,0.0,0.0,0.0
628,6280,-0.07818800000000001,-0.035627,0.8041745,0.0,0.0,0.0
629,6290,-0.077676,-0.044541,0.77156,0.0,0.0,0.0
630,6300,-0.077676,-0.044541,0.77156,0.0,0.0,0.0
631,6310,-0.257798,-0.028639,0.635581,0.0,0.0,0.0
632,6320,-0.2775765,-0.0195185,0.606269,0.0,0.0,0.0
633,6330,-0.2977065,-0.0043349999999999994,0.5456115,0.0,0.0,0.0
634,6340,-0.298058,0.001728,0.514266,0.0,0.0,0.0
635,6350,-0.258517,0.002645,0.447202,0.0,0.0,0.0
636,6360,-0.082821,-0.032615,0.354534,0.0,0.0,0.0
637,6370,0.028440499999999997,-0.08802,0.3262005,0.0,0.0,0.0
638,6380,0.05841,-0.119266,0.321208,0.0,0.0,0.0
639,6390,0.05841,-0.119266,0.321208,0.0,0.0,0.0
640,6400,0.05841,-0.119266,0.321208,0.0,0.0,0.0
641,6410,0.05841,-0.119266,0.321208,0.0,0.0,0.0
642,6420,0.05841,-0.119266,0.321208,0.0,0.0,0.0
643,6430,0.05841,-0.119266,0.321208,0.0,0.0,0.0
644,6440,0.05841,-0.119266,0.321208,0.0,0.0,0.0
645,6450,0.05841,-0.119266,0.321208,0.0,0.0,0.0
646,6460,0.05841,-0.119266,0.321208,0.0,0.0,0.0
647,6470,0.05841,-0.119266,0.321208,0.0,0.0,0.0
648,6480,-0.044755,0.154235,1.034358,0.0,0.0,0.0
649,6490,-0.008211000000000001,0.152905,1.072936,0.0,0.0,0.0
650,6500,0.039648,0.232829,1.265948,0.0,0.0,0.0
651,6510,0.039648,0.232829,1.265948,0.0,0.0,0.0
652,6520,-0.0450075,0.3822095,1.374618,0.0,0.0,0.0
653,6530,-0.077477,0.50234,1.372676,0.0,0.0,0.0
654,6540,-0.073295,0.5188075,1.353517,0.0,0.0,0.0
655,6550,-0.046536499999999995,0.569067,1.2718655,0.0,0.0,0.0
656,6560,-0.007844,0.61529,1.170841,0.0,0.0,0.0
657,6570,-0.0016820000000000003,0.6322625,1.153616,0.0,0.0,0.0
658,6580,0.00448,0.649235,1.136391,0.0,0.0,0.0
659,6590,-0.004893,0.7518345,1.120795,0.0,0.0,0.0
660,6600,-0.0175305,0.893983,1.1360325,0.0,0.0,0.0
661,6610,-0.018601,0.9519875,1.1705355,0.0,0.0,0.0
662,6620,0.127217,1.010398,1.181346,0.0,0.0,0.0
663,6630,0.127217,1.010398,1.181346,0.0,0.0,0.0
664,6640,0.400306,0.905703,1.425382,0.0,0.0,0.0
665,6650,0.400306,0.905703,1.425382,0.0,0.0,0.0
666,6660,0.43389900000000003,0.8906195,1.763249,0.0,0.0,0.0
667,6670,0.416407,0.880122,2.139954,0.0,0.0,0.0
668,6680,0.416407,0.880122,2.139954,0.0,0.0,0.0
669,6690,0.529664,0.876957,2.336697,0.0,0.0,0.0
670,6700,0.565031,0.872278,2.406728,0.0,0.0,0.0
671,6710,0.58685,0.872584,2.422829,0.0,0.0,0.0
672,6720,0.5675304999999999,0.878035,2.361208,0.0,0.0,0.0
673,6730,0.5087155,0.8921479999999999,2.2172245,0.0,0.0,0.0
674,6740,0.34026,0.913762,1.999388,0.0,0.0,0.0
675,6750,0.2553515,0.9246179999999999,1.891032,0.0,0.0,0.0
676,6760,0.13237000000000002,0.9384325,1.746078,0.0,0.0,0.0
677,6770,0.094297,0.941391,1.70948,0.0,0.0,0.0
678,6780,0.028333,0.939862,1.675535,0.0,0.0,0.0
679,6790,-0.00133,0.882064,1.662079,0.0,0.0,0.0
680,6800,-0.00133,0.882064,1.662079,0.0,0.0,0.0
681,6810,-0.00133,0.882064,1.662079,0.0,0.0,0.0
682,6820,-0.00133,0.882064,1.662079,0.0,0.0,0.0
683,6830,0.149235,0.750046,1.60867,0.0,0.0,0.0
684,6840,0.2492355,0.6490825,1.6041284999999998,0.0,0.0,0.0
685,6850,0.287408,0.594801,1.580841,0.0,0.0,0.0
686,6860,0.219465,0.584098,1.457798,0.0,0.0,0.0
687,6870,0.1583565,0.5933714999999999,1.436598,0.0,0.0,0.0
688,6880,0.03792,0.641391,1.379205,0.0,0.0,0.0
689,6890,-0.000107,0.648211,1.339648,0.0,0.0,0.0
690,6900,-0.000107,0.648211,1.339648,0.0,0.0,0.0
691,6910,-0.000107,0.648211,1.339648,0.0,0.0,0.0
692,6920,-0.000107,0.648211,1.339648,0.0,0.0,0.0
693,6930,-0.000107,0.648211,1.339648,0.0,0.0,0.0
694,6940,-0.000107,0.648211,1.339648,0.0,0.0,0.0
695,6950,-0.000107,0.648211,1.339648,0.0,0.0,0.0
696,6960,-0.000107,0.648211,1.339648,0.0,0.0,0.0
697,6970,-0.000107,0.648211,1.339648,0.0,0.0,0.0
698,6980,-0.000107,0.648211,1.339648,0.0,0.0,0.0
699,6990,-0.000107,0.648211,1.339648,0.0,0.0,0.0
700,7000,-0.008563,0.470336,0.599495,0.0,0.0,0.0
701,7010,5.3500000000000596e-05,0.4546865,0.5793575,0.0,0.0,0.0
702,7020,0.00867,0.439037,0.55922,0.0,0.0,0.0
703,7030,0.019878,0.421514,0.546284,0.0,0.0,0.0
704,7040,0.110596,0.35974,0.552599,0.0,0.0,0.0
705,7050,0.190214,0.324358,0.657997,0.0,0.0,0.0
706,7060,0.210451,0.274205,0.8077445000000001,0.0,0.0,0.0
707,7070,0.2522935,0.2042815,1.059633,0.0,0.0,0.0
708,7080,0.270841,0.179618,1.1930200000000002,0.0,0.0,0.0
709,7090,0.201942,0.169618,1.228639,0.0,0.0,0.0
710,7100,0.1711545,0.1876605,1.1574925,0.0,0.0,0.0
711,7110,0.020596,0.234755,0.925994,0.0,0.0,0.0
712,7120,-0.046483,0.236284,0.914266,0.0,0.0,0.0
713,7130,-0.0745185,0.217584,0.910749,0.0,0.0,0.0
714,7140,-0.190413,0.162798,0.90867,0.0,0.0,0.0
715,7150,-0.265856,0.146483,0.913349,0.0,0.0,0.0
716,7160,-0.29735449999999997,0.14378449999999998,0.8915905,0.0,0.0,0.0
717,7170,-0.287875,0.211116,0.805199,0.0,0.0,0.0
718,7180,-0.287875,0.211116,0.805199,0.0,0.0,0.0
719,7190,-0.212645,0.323654,0.537202,0.0,0.0,0.0
720,7200,-0.139954,0.332615,0.431086,0.0,0.0,0.0
721,7210,-0.079924,0.336284,0.385627,0.0,0.0,0.0
722,7220,-0.061575,0.3298165,0.383433,0.0,0.0,0.0
723,7230,-0.036651,0.303112,0.401728,0.0,0.0,0.0
724,7240,-0.059021000000000004,0.2567815,0.4712995,0.0,0.0,0.0
725,7250,-0.142813,0.224052,0.559434,0.0,0.0,0.0
726,7260,-0.160298,0.24199549999999997,0.5897095,0.0,0.0,0.0
727,7270,-0.2,0.466468,0.64607,0.0,0.0,0.0
728,7280,-0.089404,0.552095,0.57604,0.0,0.0,0.0
729,7290,0.040061,0.585015,0.491131,0.0,0.0,0.0
730,7300,0.040061,0.585015,0.491131,0.0,0.0,0.0
731,7310,0.040061,0.585015,0.491131,0.0,0.0,0.0
732,7320,0.040061,0.585015,0.491131,0.0,0.0,0.0
733,7330,0.388379,0.555459,0.338027,0.0,0.0,0.0
734,7340,0.37665899999999997,0.572936,0.3049465,0.0,0.0,0.0
735,7350,0.3385855,0.620795,0.28445750000000003,0.0,0.0,0.0
736,7360,0.319266,0.650963,0.282875,0.0,0.0,0.0
737,7370,0.30489299999999997,0.67594,0.307546,0.0,0.0,0.0
738,7380,0.2710015,0.7053515,0.3392965,0.0,0.0,0.0
739,7390,0.147706,0.711009,0.351988,0.0,0.0,0.0
740,7400,0.1404205,0.690879,0.3469955,0.0,0.0,0.0
741,7410,0.1239605,0.664885,0.3074465,0.0,0.0,0.0
742,7420,0.114786,0.659021,0.27289,0.0,0.0,0.0
743,7430,0.114786,0.659021,0.27289,0.0,0.0,0.0
744,7440,0.114786,0.659021,0.27289,0.0,0.0,0.0
745,7450,0.114786,0.659021,0.27289,0.0,0.0,0.0
746,7460,0.114786,0.659021,0.27289,0.0,0.0,0.0
747,7470,0.114786,0.659021,0.27289,0.0,0.0,0.0
748,7480,0.114786,0.659021,0.27289,0.0,0.0,0.0
749,7490,0.114786,0.659021,0.27289,0.0,0.0,0.0
750,7500,0.114786,0.659021,0.27289,0.0,0.0,0.0
751,7510,0.114786,0.659021,0.27289,0.0,0.0,0.0
752,7520,0.114786,0.659021,0.27289,0.0,0.0,0.0
753,7530,0.030581,0.245765,0.459128,0.0,0.0,0.0
754,7540,0.0649845,0.2033105,0.45509900000000003,0.0,0.0,0.0
755,7550,0.102141,0.119373,0.488884,0.0,0.0,0.0
756,7560,0.032722,0.096078,0.57237,0.0,0.0,0.0
757,7570,-0.10867,0.075948,0.744648,0.0,0.0,0.0
758,7580,-0.1509175,0.0820105,0.7827215000000001,0.0,0.0,0.0
759,7590,-0.240474,0.107844,0.865749,0.0,0.0,0.0
760,7600,-0.143624,0.109587,0.834449,0.0,0.0,0.0
761,7610,-0.143624,0.109587,0.834449,0.0,0.0,0.0
762,7620,0.054793499999999995,0.07874600000000001,0.7210015000000001,0.0,0.0,0.0
763,7630,0.127882,0.042607,0.6572935,0.0,0.0,0.0
764,7640,-0.036697,0.010505,0.61896,0.0,0.0,0.0
765,7650,-0.169924,0.050566,0.651483,0.0,0.0,0.0
766,7660,-0.169924,0.050566,0.651483,0.0,0.0,0.0
767,7670,-0.169924,0.050566,0.651483,0.0,0.0,0.0
768,7680,-0.38950300000000004,0.2133025,0.666613,0.0,0.0,0.0
769,7690,-0.4586625,0.31335650000000004,0.6053515,0.0,0.0,0.0
770,7700,-0.314174,0.292859,0.486437,0.0,0.0,0.0
771,7710,-0.314174,0.292859,0.486437,0.0,0.0,0.0
772,7720,-0.166055,0.223853,0.622829,0.0,0.0,0.0
773,7730,-0.159434,0.22182,0.7737,0.0,0.0,0.0
774,7740,-0.163807,0.236804,0.922324,0.0,0.0,0.0
775,7750,-0.158716,0.272171,1.092966,0.0,0.0,0.0
776,7760,0.00867,0.378593,1.193272,0.0,0.0,0.0
777,7770,0.084817,0.39419,1.188578,0.0,0.0,0.0
778,7780,0.08623900000000001,0.4009175,1.17237,0.0,0.0,0.0
779,7790,0.001575,0.4481115,1.0764985,0.0,0.0,0.0
780,7800,-0.084511,0.488578,0.996835,0.0,0.0,0.0
781,7810,-0.14113150000000002,0.518601,0.9255355000000001,0.0,0.0,0.0
782,7820,-0.197752,0.548624,0.854236,0.0,0.0,0.0
783,7830,-0.24117700000000003,0.5724235,0.7799240000000001,0.0,0.0,0.0
784,7840,-0.303769,0.5781805,0.7246715,0.0,0.0,0.0
785,7850,-0.285122,0.54893,0.815489,0.0,0.0,0.0
786,7860,-0.285122,0.54893,0.815489,0.0,0.0,0.0
787,7870,-0.172737,0.528188,0.9297095,0.0,0.0,0.0
788,7880,-0.060352,0.507446,1.04393,0.0,0.0,0.0
789,7890,-0.0585095,0.5329205,1.114878,0.0,0.0,0.0
790,7900,-0.060856499999999994,0.5826145,1.097347,0.0,0.0,0.0
791,7910,-0.05841,0.612125,1.079816,0.0,0.0,0.0
792,7920,-0.0446485,0.784763,1.071353,0.0,0.0,0.0
793,7930,-0.0205965,0.807699,1.190367,0.0,0.0,0.0
794,7940,0.080122,0.752187,1.471453,0.0,0.0,0.0
795,7950,0.080122,0.752187,1.471453,0.0,0.0,0.0
796,7960,0.080122,0.752187,1.471453,0.0,0.0,0.0
797,7970,0.080122,0.752187,1.471453,0.0,0.0,0.0
798,7980,0.080122,0.752187,1.471453,0.0,0.0,0.0
799,7990,0.080122,0.752187,1.471453,0.0,0.0,0.0
800,8000,0.080122,0.752187,1.471453,0.0,0.0,0.0
801,8010,0.080122,0.752187,1.471453,0.0,0.0,0.0
802,8020,0.080122,0.752187,1.471453,0.0,0.0,0.0
803,8030,0.080122,0.752187,1.471453,0.0,0.0,0.0
804,8040,0.080122,0.752187,1.471453,0.0,0.0,0.0
805,8050,0.080122,0.752187,1.471453,0.0,0.0,0.0
806,8060,0.348318,1.266254,1.660443,0.0,0.0,0.0
807,8070,0.425994,1.179098,1.795826,0.0,0.0,0.0
808,8080,0.425994,1.179098,1.795826,0.0,0.0,0.0
809,8090,0.468914,0.996529,1.963807,0.0,0.0,0.0
810,8100,0.433746,0.94159,1.970841,0.0,0.0,0.0
811,8110,0.344908,0.9018349999999999,1.9369494999999999,0.0,0.0,0.0
812,8120,0.167477,0.853012,1.784908,0.0,0.0,0.0
813,8130,0.102339,0.845153,1.68237,0.0,0.0,0.0
814,8140,0.0820565,0.843983,1.6276760000000001,0.0,0.0,0.0
815,8150,0.043119500000000005,0.8382795000000001,1.4907725,0.0,0.0,0.0
816,8160,0.024465,0.833746,1.408563,0.0,0.0,0.0
817,8170,0.017737,0.8247245,1.357393,0.0,0.0,0.0
818,8180,0.0155425,0.7820104999999999,1.3006115,0.0,0.0,0.0
819,8190,0.087966,0.615092,1.249128,0.0,0.0,0.0
820,8200,0.114266,0.555046,1.182263,0.0,0.0,0.0
821,8210,0.114266,0.555046,1.182263,0.0,0.0,0.0
822,8220,0.077569,0.5329280000000001,1.0500995,0.0,0.0,0.0
823,8230,0.0396485,0.512645,0.917072,0.0,0.0,0.0
824,8240,0.000505,0.550153,0.948731,0.0,0.0,0.0
825,8250,-0.011514,0.543838,0.988991,0.0,0.0,0.0
826,8260,-0.0343505,0.505153,1.042049,0.0,0.0,0.0
827,8270,-0.057385,0.428135,1.099587,0.0,0.0,0.0
828,8280,-0.0571865,0.4102985,1.0798165000000002,0.0,0.0,0.0
829,8290,-0.049136,0.37538249999999995,0.9966895,0.0,0.0,0.0
830,8300,0.034251,0.325076,0.717538,0.0,0.0,0.0
831,8310,0.034251,0.325076,0.717538,0.0,0.0,0.0
832,8320,0.034251,0.325076,0.717538,0.0,0.0,0.0
833,8330,0.0890445,0.2849615,0.661315,0.0,0.0,0.0
834,8340,0.166254,0.235061,0.633838,0.0,0.0,0.0
835,8350,0.1262465,0.2278285,0.6560625,0.0,0.0,0.0
836,8360,0.086239,0.220596,0.678287,0.0,0.0,0.0
837,8370,0.016360999999999997,0.220237,0.7065745,0.0,0.0,0.0
838,8380,-0.053517,0.219878,0.734862,0.0,0.0,0.0
839,8390,-0.125283,0.2354205,0.7201835,0.0,0.0,0.0
840,8400,-0.059434,0.256988,0.695413,0.0,0.0,0.0
841,8410,-0.059434,0.256988,0.695413,0.0,0.0,0.0
842,8420,0.122829,0.257997,0.697355,0.0,0.0,0.0
843,8430,0.12624649999999998,0.2548395,0.695008,0.0,0.0,0.0
844,8440,0.129664,0.251682,0.692661,0.0,0.0,0.0
845,8450,0.133333,0.180841,0.61896,0.0,0.0,0.0
846,8460,0.100107,0.171865,0.589404,0.0,0.0,0.0
847,8470,-0.107752,0.192049,0.655352,0.0,0.0,0.0
848,8480,-0.107752,0.192049,0.655352,0.0,0.0,0.0
849,8490,-0.107752,0.192049,0.655352,0.0,0.0,0.0
850,8500,-0.107752,0.192049,0.655352,0.0,0.0,0.0
851,8510,-0.107752,0.192049,0.655352,0.0,0.0,0.0
852,8520,-0.107752,0.192049,0.655352,0.0,0.0,0.0
853,8530,-0.107752,0.192049,0.655352,0.0,0.0,0.0
854,8540,-0.107752,0.192049,0.655352,0.0,0.0,0.0
855,8550,-0.107752,0.192049,0.655352,0.0,0.0,0.0
856,8560,,,,,,
857,8570,-0.107752,0.192049,0.655352,0.0,0.0,0.0
858,8580,-0.238333,0.264832,0.74445,0.0,0.0,0.0
859,8590,-0.19607799999999997,0.3022935,0.769679,0.0,0.0,0.0
860,8600,-0.076957,0.408058,0.829862,0.0,0.0,0.0
861,8610,-0.076957,0.408058,0.829862,0.0,0.0,0.0
862,8620,-0.020489,0.438226,0.8244644999999999,0.0,0.0,0.0
863,8630,0.069618,0.474725,0.772278,0.0,0.0,0.0
864,8640,0.121254,0.480688,0.6642735,0.0,0.0,0.0
865,8650,0.18237,0.485214,0.485214,0.0,0.0,0.0
866,8660,0.18237,0.485214,0.485214,0.0,0.0,0.0
867,8670,0.292661,0.553517,0.53945,0.0,0.0,0.0
868,8680,0.28889149999999997,0.57039,0.5563685,0.0,0.0,0.0
869,8690,0.224572,0.59919,0.633135,0.0,0.0,0.0
870,8700,0.074006,0.642615,0.628027,0.0,0.0,0.0
871,8710,0.074006,0.642615,0.628027,0.0,0.0,0.0
872,8720,-0.041789,0.644702,0.5376145000000001,0.0,0.0,0.0
873,8730,-0.106728,0.6372555,0.4993885,0.0,0.0,0.0
874,8740,-0.150872,0.614266,0.470336,0.0,0.0,0.0
875,8750,-0.158914,0.565948,0.500612,0.0,0.0,0.0
876,8760,-0.158914,0.565948,0.500612,0.0,0.0,0.0
877,8770,-0.1516285,0.5306805,0.5148855,0.0,0.0,0.0
878,8780,-0.1417435,0.46406749999999997,0.5483180000000001,0.0,0.0,0.0
879,8790,-0.123349,0.366055,0.637309,0.0,0.0,0.0
880,8800,-0.107951,0.33344,0.668807,0.0,0.0,0.0
881,8810,-0.107951,0.33344,0.668807,0.0,0.0,0.0
882,8820,-0.107951,0.33344,0.668807,0.0,0.0,0.0
883,8830,-0.107951,0.33344,0.668807,0.0,0.0,0.0
884,8840,-0.095512,0.22396,0.6401145,0.0,0.0,0.0
885,8850,-0.044235,0.078394,0.652401,0.0,0.0,0.0
886,8860,-0.044235,0.078394,0.652401,0.0,0.0,0.0
887,8870,0.005045999999999999,0.0173775,0.705963,0.0,0.0,0.0
888,8880,0.025887,-0.020382,0.683685,0.0,0.0,0.0
889,8890,0.02711,-0.0263,0.639954,0.0,0.0,0.0
890,8900,-0.007698999999999999,-0.0227295,0.5892965,0.0,0.0,0.0
891,8910,-0.042508,-0.019159,0.538639,0.0,0.0,0.0
892,8920,-0.079404,0.076147,0.426407,0.0,0.0,0.0
893,8930,-0.079404,0.076147,0.426407,0.0,0.0,0.0
894,8940,-0.076957,0.142813,0.395214,0.0,0.0,0.0
895,8950,-0.286346,0.205703,0.715902,0.0,0.0,0.0
896,8960,-0.322225,0.23903649999999999,0.7222245,0.0,0.0,0.0
897,8970,-0.433532,0.333135,0.704893,0.0,0.0,0.0
898,8980,-0.475229,0.368807,0.630887,0.0,0.0,0.0
899,8990,-0.4324155,0.3803745,0.555604,0.0,0.0,0.0
900,9000,-0.389602,0.391942,0.480321,0.0,0.0,0.0
901,9010,-0.389602,0.391942,0.480321,0.0,0.0,0.0
902,9020,-0.389602,0.391942,0.480321,0.0,0.0,0.0
903,9030,-0.389602,0.391942,0.480321,0.0,0.0,0.0
904,9040,-0.389602,0.391942,0.480321,0.0,0.0,0.0
905,9050,-0.389602,0.391942,0.480321,0.0,0.0,0.0
906,9060,-0.389602,0.391942,0.480321,0.0,0.0,0.0
907,9070,-0.389602,0.391942,0.480321,0.0,0.0,0.0
908,9080,-0.389602,0.391942,0.480321,0.0,0.0,0.0
909,9090,-0.389602,0.391942,0.480321,0.0,0.0,0.0
910,9100,0.095719,0.367844,0.7392965,0.0,0.0,0.0
911,9110,0.120183,0.416927,0.849847,0.0,0.0,0.0
912,9120,0.0999005,0.419725,0.8938835,0.0,0.0,0.0
913,9130,0.042309,0.455199,0.95724,0.0,0.0,0.0
914,9140,-0.030581,0.577477,1.014373,0.0,0.0,0.0
915,9150,-0.0313,0.611422,1.056376,0.0,0.0,0.0
916,9160,-0.0313,0.611422,1.056376,0.0,0.0,0.0
917,9170,-0.033746,0.662187,0.879924,0.0,0.0,0.0
918,9180,-0.042309,0.6676915,0.8376685,0.0,0.0,0.0
919,9190,-0.050971,0.6767125,0.773188,0.0,0.0,0.0
920,9200,0.015902,0.639251,0.887156,0.0,0.0,0.0
921,9210,0.015902,0.639251,0.887156,0.0,0.0,0.0
922,9220,0.057905,0.629251,1.133945,0.0,0.0,0.0
923,9230,0.343226,0.570642,1.780535,0.0,0.0,0.0
924,9240,0.4071865,0.5401145,1.9632034999999999,0.0,0.0,0.0
925,9250,0.4890905,0.505711,2.2304285,0.0,0.0,0.0
926,9260,0.507034,0.501835,2.314985,0.0,0.0,0.0
927,9270,0.419878,0.5777215,2.2394495,0.0,0.0,0.0
928,9280,0.328135,0.678792,2.108456,0.0,0.0,0.0
929,9290,0.167477,0.772676,1.76656,0.0,0.0,0.0
930,9300,0.125887,0.806621,1.6582035,0.0,0.0,0.0
931,9310,0.084297,0.840566,1.549847,0.0,0.0,0.0
932,9320,0.084297,0.840566,1.549847,0.0,0.0,0.0
933,9330,0.084297,0.840566,1.549847,0.0,0.0,0.0
934,9340,0.09918199999999999,0.8403134999999999,1.601124,0.0,0.0,0.0
935,9350,0.198976,0.802034,1.836896,0.0,0.0,0.0
936,9360,0.198976,0.802034,1.836896,0.0,0.0,0.0
937,9370,0.2766055,0.728081,1.9114140000000002,0.0,0.0,0.0
938,9380,0.280535,0.719771,1.874725,0.0,0.0,0.0
939,9390,0.24185,0.7424545,1.816514,0.0,0.0,0.0
940,9400,0.167026,0.7718655,1.7423015,0.0,0.0,0.0
941,9410,0.130887,0.778593,1.7263,0.0,0.0,0.0
942,9420,0.10367,0.7991820000000001,1.689549,0.0,0.0,0.0
943,9430,0.0792585,0.8202830000000001,1.6053515,0.0,0.0,0.0
944,9440,0.148425,0.803976,1.485428,0.0,0.0,0.0
945,9450,0.212125,0.788379,1.451269,0.0,0.0,0.0
946,9460,0.212125,0.788379,1.451269,0.0,0.0,0.0
947,9470,0.229251,0.728028,1.304587,0.0,0.0,0.0
948,9480,0.223349,0.720489,1.296024,0.0,0.0,0.0
949,9490,0.1848165,0.7093805,1.2651375,0.0,0.0,0.0
950,9500,0.086437,0.693165,1.234557,0.0,0.0,0.0
951,9510,0.0372015,0.6867965,1.3094804999999998,0.0,0.0,0.0
952,9520,-0.012034,0.680428,1.384404,0.0,0.0,0.0
953,9530,-0.012034,0.680428,1.384404,0.0,0.0,0.0
954,9540,-0.012034,0.680428,1.384404,0.0,0.0,0.0
955,9550,-0.012034,0.680428,1.384404,0.0,0.0,0.0
956,9560,-0.012034,0.680428,1.384404,0.0,0.0,0.0
957,9570,-0.012034,0.680428,1.384404,0.0,0.0,0.0
958,9580,-0.012034,0.680428,1.384404,0.0,0.0,0.0
959,9590,-0.012034,0.680428,1.384404,0.0,0.0,0.0
960,9600,-0.012034,0.680428,1.384404,0.0,0.0,0.0
961,9610,-0.012034,0.680428,1.384404,0.0,0.0,0.0
962,9620,0.005145,0.4932185,1.064679,0.0,0.0,0.0
963,9630,-0.006927,0.314878,0.672477,0.0,0.0,0.0
964,9640,-0.022018,0.321208,0.670031,0.0,0.0,0.0
965,9650,-0.0253285,0.3208485,0.675023,0.0,0.0,0.0
966,9660,-0.0122325,0.3034175,0.6857260000000001,0.0,0.0,0.0
967,9670,0.004174,0.286346,0.691437,0.0,0.0,0.0
968,9680,0.110398,0.235581,0.719771,0.0,0.0,0.0
969,9690,0.150657,0.185214,0.742508,0.0,0.0,0.0
970,9700,0.150657,0.185214,0.742508,0.0,0.0,0.0
971,9710,0.153624,0.180841,0.725382,0.0,0.0,0.0
972,9720,0.1401605,0.239801,0.7200310000000001,0.0,0.0,0.0
973,9730,0.134358,0.25922,0.757599,0.0,0.0,0.0
974,9740,0.090627,0.329465,0.778394,0.0,0.0,0.0
975,9750,0.056162,0.392462,0.772278,0.0,0.0,0.0
976,9760,0.056162,0.392462,0.772278,0.0,0.0,0.0
977,9770,0.062997,0.418456,0.719419,0.0,0.0,0.0
978,9780,0.073295,0.44980149999999997,0.645719,0.0,0.0,0.0
979,9790,0.105703,0.450352,0.610398,0.0,0.0,0.0
980,9800,0.0732875,0.44897549999999997,0.658005,0.0,0.0,0.0
981,9810,-0.023547000000000002,0.46727799999999997,0.7700305000000001,0.0,0.0,0.0
982,9820,-0.087966,0.486957,0.834449,0.0,0.0,0.0
983,9830,-0.087966,0.486957,0.834449,0.0,0.0,0.0
984,9840,-0.1520335,0.5063225,0.9095260000000001,0.0,0.0,0.0
985,9850,-0.283379,0.404174,0.818349,0.0,0.0,0.0
986,9860,-0.283379,0.404174,0.818349,0.0,0.0,0.0
987,9870,0.018853,0.32263,0.679312,0.0,0.0,0.0
988,9880,0.0452065,0.3215595,0.6758945000000001,0.0,0.0,0.0
989,9890,0.133433,0.33975500000000003,0.6487769999999999,0.0,0.0,0.0
990,9900,0.204388,0.400306,0.563609,0.0,0.0,0.0
991,9910,0.204388,0.400306,0.563609,0.0,0.0,0.0
992,9920,0.209021,0.4182495,0.5262465000000001,0.0,0.0,0.0
993,9930,0.195306,0.505199,0.372278,0.0,0.0,0.0
994,9940,0.2027525,0.5333870000000001,0.385168,0.0,0.0,0.0
995,9950,0.215092,0.569419,0.519679,0.0,0.0,0.0
996,9960,0.215092,0.569419,0.519679,0.0,0.0,0.0
997,9970,0.1705965,0.5657494999999999,0.5728359999999999,0.0,0.0,0.0
998,9980,0.1366515,0.5425614999999999,0.49546599999999996,0.0,0.0,0.0
999,9990,0.07023700000000001,0.499029,0.359992,0.0,0.0,0.0
