id,timestamp,acc_x,acc_y,acc_z,gyro_x,gyro_y,gyro_z
0,0,0.185321,0.224052,1.000413,0.0,0.0,0.0
1,10,0.194083,0.298777,0.956774,0.0,0.0,0.0
2,20,,,,,,
3,30,0.1544345,0.3678365,0.925994,0.0,0.0,0.0
4,40,0.073502,0.467691,0.887156,0.0,0.0,0.0
5,50,0.041789,0.471254,0.885015,0.0,0.0,0.0
6,60,0.041789,0.471254,0.885015,0.0,0.0,0.0
7,70,0.041789,0.471254,0.885015,0.0,0.0,0.0
8,80,0.074717,0.43333350000000004,0.896995,0.0,0.0,0.0
9,90,0.13185000000000002,0.36355499999999996,0.889656,0.0,0.0,0.0
10,100,0.149434,0.343425,0.883288,0.0,0.0,0.0
11,110,0.164832,0.296177,0.8925535,0.0,0.0,0.0
12,120,0.123547,0.267278,1.054847,0.0,0.0,0.0
13,130,0.123547,0.267278,1.054847,0.0,0.0,0.0
14,140,0.002951,0.276758,1.175229,0.0,0.0,0.0
15,150,-0.05474,0.308976,1.210398,0.0,0.0,0.0
16,160,-0.127936,0.384404,1.2313,0.0,0.0,0.0
17,170,-0.140872,0.418043,1.228134,0.0,0.0,0.0
18,180,-0.140872,0.418043,1.228134,0.0,0.0,0.0
19,190,-0.107546,0.437263,1.2219645,0.0,0.0,0.0
20,200,-0.0161085,0.4243655,1.2795640000000001,0.0,0.0,0.0
21,210,0.043731,0.406422,1.336804,0.0,0.0,0.0
22,220,-0.005917,0.397554,1.751881,0.0,0.0,0.0
23,230,-0.005917,0.397554,1.751881,0.0,0.0,0.0
24,240,-0.1916435,0.45774499999999996,1.8405200000000002,0.0,0.0,0.0
25,250,-0.37737,0.517936,1.929159,0.0,0.0,0.0
26,260,-0.314832,0.613456,1.8818044999999999,0.0,0.0,0.0
27,270,-0.260046,0.644343,1.837615,0.0,0.0,0.0
28,280,-0.118654,0.706621,1.680933,0.0,0.0,0.0
29,290,-0.118654,0.706621,1.680933,0.0,0.0,0.0
30,300,-0.1399085,0.680329,1.759274,0.0,0.0,0.0
31,310,-0.095,0.612844,1.948119,0.0,0.0,0.0
32,320,-0.058609,0.592553,1.950872,0.0,0.0,0.0
33,330,-0.058609,0.592553,1.950872,0.0,0.0,0.0
34,340,-0.13623849999999998,0.619572,1.8331805,0.0,0.0,0.0
35,350,-0.257798,0.650963,1.680933,0.0,0.0,0.0
36,360,-0.363716,0.653104,1.525887,0.0,0.0,0.0
37,370,-0.363716,0.653104,1.525887,0.0,0.0,0.0
38,380,-0.363716,0.653104,1.525887,0.0,0.0,0.0
39,390,-0.363716,0.653104,1.525887,0.0,0.0,0.0
40,400,-0.363716,0.653104,1.525887,0.0,0.0,0.0
41,410,-0.363716,0.653104,1.525887,0.0,0.0,0.0
42,420,-0.363716,0.653104,1.525887,0.0,0.0,0.0
43,430,-0.363716,0.653104,1.525887,0.0,0.0,0.0
44,440,-0.363716,0.653104,1.525887,0.0,0.0,0.0
45,450,-0.363716,0.653104,1.525887,0.0,0.0,0.0
46,460,-0.363716,0.653104,1.525887,0.0,0.0,0.0
47,470,-0.363716,0.653104,1.525887,0.0,0.0,0.0
48,480,-0.038585499999999995,-0.1215595,0.738685,0.0,0.0,0.0
49,490,-0.148012,-0.126804,0.516713,0.0,0.0,0.0
50,500,-0.148012,-0.126804,0.516713,0.0,0.0,0.0
51,510,-0.153318,-0.163914,0.386346,0.0,0.0,0.0
52,520,-0.139297,-0.19296600000000003,0.2033105,0.0,0.0,0.0
53,530,-0.127722,-0.21396,0.138119,0.0,0.0,0.0
54,540,-0.127722,-0.21396,0.138119,0.0,0.0,0.0
55,550,-0.129465,-0.284709,0.136896,0.0,0.0,0.0
56,560,-0.129465,-0.284709,0.136896,0.0,0.0,0.0
57,570,-0.148731,-0.317431,0.1521865,0.0,0.0,0.0
58,580,-0.167997,-0.350153,0.167477,0.0,0.0,0.0
59,590,-0.17946499999999999,-0.3266055,0.1699235,0.0,0.0,0.0
60,600,-0.190933,-0.303058,0.17237,0.0,0.0,0.0
61,610,-0.1879665,-0.2460705,0.3062155,0.0,0.0,0.0
62,620,-0.18185,-0.2213,0.400306,0.0,0.0,0.0
63,630,-0.122324,-0.185122,0.467171,0.0,0.0,0.0
64,640,0.00448,-0.117737,0.571865,0.0,0.0,0.0
65,650,0.022675999999999998,-0.1002065,0.5710014999999999,0.0,0.0,0.0
66,660,0.075734,-0.045566,0.556988,0.0,0.0,0.0
67,670,0.068914,0.022018,0.522125,0.0,0.0,0.0
68,680,0.068914,0.022018,0.522125,0.0,0.0,0.0
69,690,-0.16555,0.315596,0.677783,0.0,0.0,0.0
70,700,-0.1974005,0.3489295,0.7451605,0.0,0.0,0.0
71,710,-0.244648,0.417324,0.918654,0.0,0.0,0.0
72,720,-0.2084095,0.43684999999999996,0.916613,0.0,0.0,0.0
73,730,-0.13700299999999999,0.4658025,0.8067740000000001,0.0,0.0,0.0
74,740,-0.097446,0.487875,0.569419,0.0,0.0,0.0
75,750,-0.097446,0.487875,0.569419,0.0,0.0,0.0
76,760,-0.0891975,0.5395030000000001,0.501323,0.0,0.0,0.0
77,770,-0.070336,0.635581,0.655153,0.0,0.0,0.0
78,780,-0.070336,0.635581,0.655153,0.0,0.0,0.0
79,790,-0.019572,0.7276755,0.887821,0.0,0.0,0.0
80,800,-0.002248,0.749541,0.987263,0.0,0.0,0.0
81,810,0.004786,0.696942,1.007546,0.0,0.0,0.0
82,820,0.044235,0.634557,0.957492,0.0,0.0,0.0
83,830,0.044235,0.634557,0.957492,0.0,0.0,0.0
84,840,0.044235,0.634557,0.957492,0.0,0.0,0.0
85,850,0.1911775,0.758662,0.5118275,0.0,0.0,0.0
86,860,0.274618,0.810092,0.484511,0.0,0.0,0.0
87,870,0.33445,0.823746,0.55555,0.0,0.0,0.0
88,880,0.33445,0.823746,0.55555,0.0,0.0,0.0
89,890,0.1902145,0.8747245,0.871101,0.0,0.0,0.0
90,900,0.108976,0.890321,0.970642,0.0,0.0,0.0
91,910,0.108976,0.890321,0.970642,0.0,0.0,0.0
92,920,0.108976,0.890321,0.970642,0.0,0.0,0.0
93,930,0.108976,0.890321,0.970642,0.0,0.0,0.0
94,940,0.108976,0.890321,0.970642,0.0,0.0,0.0
95,950,0.108976,0.890321,0.970642,0.0,0.0,0.0
96,960,0.108976,0.890321,0.970642,0.0,0.0,0.0
97,970,0.108976,0.890321,0.970642,0.0,0.0,0.0
98,980,0.108976,0.890321,0.970642,0.0,0.0,0.0
99,990,0.108976,0.890321,0.970642,0.0,0.0,0.0
100,1000,0.0498015,1.1351225,1.3536160000000002,0.0,0.0,0.0
101,1010,-0.057079500000000005,1.327829,1.7803745000000002,0.0,0.0,0.0
102,1020,-0.121147,1.2181425,1.8418425,0.0,0.0,0.0
103,1030,-0.137508,1.160551,1.859526,0.0,0.0,0.0
104,1040,-0.284205,0.859128,1.541086,0.0,0.0,0.0
105,1050,-0.284205,0.859128,1.541086,0.0,0.0,0.0
106,1060,-0.284205,0.859128,1.541086,0.0,0.0,0.0
107,1070,-0.284205,0.859128,1.541086,0.0,0.0,0.0
108,1080,-0.443012,0.626804,0.96555,0.0,0.0,0.0
109,1090,-0.35224,0.611162,0.7772705,0.0,0.0,0.0
110,1100,-0.20728599999999997,0.577829,0.5903135,0.0,0.0,0.0
111,1110,-0.117225,0.54169,0.644595,0.0,0.0,0.0
112,1120,-0.00081,0.427829,1.001422,0.0,0.0,0.0
113,1130,-0.00081,0.427829,1.001422,0.0,0.0,0.0
114,1140,-0.0159555,0.327875,1.1537235,0.0,0.0,0.0
115,1150,-0.023746,0.274618,1.172982,0.0,0.0,0.0
116,1160,-0.017431,0.258716,1.017538,0.0,0.0,0.0
117,1170,-0.0190135,0.2605505,0.9791055,0.0,0.0,0.0
118,1180,-0.020596,0.262385,0.940673,0.0,0.0,0.0
119,1190,-0.015902,0.270948,0.844037,0.0,0.0,0.0
120,1200,-0.019112999999999998,0.26412100000000005,0.8208485000000001,0.0,0.0,0.0
121,1210,-0.063303,0.25607,0.790321,0.0,0.0,0.0
122,1220,-0.06901399999999999,0.2755885,0.7906725,0.0,0.0,0.0
123,1230,-0.074725,0.295107,0.791024,0.0,0.0,0.0
124,1240,-0.0548395,0.4095335,0.9204889999999999,0.0,0.0,0.0
125,1250,-0.027936,0.420994,1.117125,0.0,0.0,0.0
126,1260,-0.027936,0.420994,1.117125,0.0,0.0,0.0
127,1270,0.015183,0.280627,1.298165,0.0,0.0,0.0
128,1280,0.015183,0.280627,1.298165,0.0,0.0,0.0
129,1290,-0.05393,0.16162100000000001,1.207691,0.0,0.0,0.0
130,1300,-0.18552,0.070749,0.966254,0.0,0.0,0.0
131,1310,-0.220183,0.03292,0.80448,0.0,0.0,0.0
132,1320,-0.229771,0.007339,0.54159,0.0,0.0,0.0
133,1330,-0.229771,0.007339,0.54159,0.0,0.0,0.0
134,1340,-0.129465,0.079817,0.466973,0.0,0.0,0.0
135,1350,-0.118242,0.084709,0.496223,0.0,0.0,0.0
136,1360,-0.16289,0.009067,0.697554,0.0,0.0,0.0
137,1370,-0.1689605,-0.0124925,0.737974,0.0,0.0,0.0
138,1380,-0.175031,-0.034052,0.778394,0.0,0.0,0.0
139,1390,-0.183899,-0.074817,0.820076,0.0,0.0,0.0
140,1400,-0.2249695,-0.117179,0.7870565,0.0,0.0,0.0
141,1410,-0.299495,-0.148517,0.634862,0.0,0.0,0.0
142,1420,-0.299495,-0.148517,0.634862,0.0,0.0,0.0
143,1430,-0.299495,-0.148517,0.634862,0.0,0.0,0.0
144,1440,-0.299495,-0.148517,0.634862,0.0,0.0,0.0
145,1450,-0.299495,-0.148517,0.634862,0.0,0.0,0.0
146,1460,-0.299495,-0.148517,0.634862,0.0,0.0,0.0
147,1470,-0.299495,-0.148517,0.634862,0.0,0.0,0.0
148,1480,-0.299495,-0.148517,0.634862,0.0,0.0,0.0
149,1490,-0.299495,-0.148517,0.634862,0.0,0.0,0.0
150,1500,-0.299495,-0.148517,0.634862,0.0,0.0,0.0
151,1510,-0.299495,-0.148517,0.634862,0.0,0.0,0.0
152,1520,-0.299495,-0.148517,0.634862,0.0,0.0,0.0
153,1530,-0.221407,0.060749,0.459832,0.0,0.0,0.0
154,1540,-0.161881,0.138425,0.702645,0.0,0.0,0.0
155,1550,-0.158823,0.1465825,0.7648775,0.0,0.0,0.0
156,1560,-0.155765,0.15474,0.82711,0.0,0.0,0.0
157,1570,-0.155765,0.15474,0.82711,0.0,0.0,0.0
158,1580,-0.1390445,0.164526,0.855199,0.0,0.0,0.0
159,1590,0.063807,0.205,0.660245,0.0,0.0,0.0
160,1600,0.063807,0.205,0.660245,0.0,0.0,0.0
161,1610,0.2219115,0.2976075,0.6485164999999999,0.0,0.0,0.0
162,1620,0.345459,0.420994,0.79052,0.0,0.0,0.0
163,1630,0.345459,0.420994,0.79052,0.0,0.0,0.0
164,1640,0.2423015,0.486185,1.0046865,0.0,0.0,0.0
165,1650,0.139144,0.551376,1.218853,0.0,0.0,0.0
166,1660,0.139144,0.551376,1.218853,0.0,0.0,0.0
167,1670,0.201934,0.592913,1.1148775,0.0,0.0,0.0
168,1680,0.292859,0.6490825,0.9084095,0.0,0.0,0.0
169,1690,0.332523,0.937202,0.602339,0.0,0.0,0.0
170,1700,0.2653975,1.0056575,0.601628,0.0,0.0,0.0
171,1710,0.087661,1.20815,0.79052,0.0,0.0,0.0
172,1720,0.087661,1.20815,0.79052,0.0,0.0,0.0
173,1730,0.15540500000000002,1.3059175,1.308616,0.0,0.0,0.0
174,1740,0.457492,1.128333,1.674312,0.0,0.0,0.0
175,1750,0.457492,1.128333,1.674312,0.0,0.0,0.0
176,1760,0.7810855,0.913815,1.997248,0.0,0.0,0.0
177,1770,0.850657,0.863303,2.14078,0.0,0.0,0.0
178,1780,0.852798,0.864021,2.327416,0.0,0.0,0.0
179,1790,0.6865905,0.946384,2.5627370000000003,0.0,0.0,0.0
180,1800,0.5167660000000001,1.030176,2.6350615,0.0,0.0,0.0
181,1810,0.433333,1.066774,2.653716,0.0,0.0,0.0
182,1820,0.264878,1.168601,2.698165,0.0,0.0,0.0
183,1830,0.258303,1.169312,2.699388,0.0,0.0,0.0
184,1840,,,,,,
185,1850,0.114786,1.098272,2.222737,0.0,0.0,0.0
186,1860,,,,,,
187,1870,,,,,,
188,1880,,,,,,
189,1890,,,,,,
190,1900,,,,,,
191,1910,,,,,,
192,1920,,,,,,
193,1930,,,,,,
194,1940,,,,,,
195,1950,0.047401,1.058716,2.117538,0.0,0.0,0.0
196,1960,0.054021,0.629251,1.128853,0.0,0.0,0.0
197,1970,0.054021,0.629251,1.128853,0.0,0.0,0.0
198,1980,0.054021,0.629251,1.128853,0.0,0.0,0.0
199,1990,0.054021,0.629251,1.128853,0.0,0.0,0.0
200,2000,0.054021,0.629251,1.128853,0.0,0.0,0.0
201,2010,0.054021,0.629251,1.128853,0.0,0.0,0.0
202,2020,0.054021,0.629251,1.128853,0.0,0.0,0.0
203,2030,0.054021,0.629251,1.128853,0.0,0.0,0.0
204,2040,-0.074725,0.285122,0.58604,0.0,0.0,0.0
205,2050,-0.074725,0.285122,0.58604,0.0,0.0,0.0
206,2060,-0.0836395,0.1988305,0.601269,0.0,0.0,0.0
207,2070,-0.085933,0.147202,0.619465,0.0,0.0,0.0
208,2080,-0.085933,0.147202,0.619465,0.0,0.0,0.0
209,2090,-0.030076,0.043425,0.635061,0.0,0.0,0.0
210,2100,-0.058257,-0.028341,0.6305810000000001,0.0,0.0,0.0
211,2110,-0.24974,-0.014266,0.60948,0.0,0.0,0.0
212,2120,-0.267431,0.0056575,0.5701835,0.0,0.0,0.0
213,2130,-0.200818,0.058050500000000005,0.5324694999999999,0.0,0.0,0.0
214,2140,-0.015489,0.061468,0.669006,0.0,0.0,0.0
215,2150,0.026964999999999996,0.0293045,0.7176834999999999,0.0,0.0,0.0
216,2160,0.09724749999999999,-0.0571405,0.8326225,0.0,0.0,0.0
217,2170,0.133838,-0.126101,0.914067,0.0,0.0,0.0
218,2180,0.133838,-0.126101,0.914067,0.0,0.0,0.0
219,2190,0.133838,-0.126101,0.914067,0.0,0.0,0.0
220,2200,-0.042201499999999996,-0.061873,0.8846555,0.0,0.0,0.0
221,2210,-0.213402,0.0444955,0.7298165,0.0,0.0,0.0
222,2220,-0.353517,0.203563,0.513761,0.0,0.0,0.0
223,2230,-0.353517,0.203563,0.513761,0.0,0.0,0.0
224,2240,-0.218547,0.35026,0.51896,0.0,0.0,0.0
225,2250,-0.218547,0.35026,0.51896,0.0,0.0,0.0
226,2260,-0.049343,0.314373,0.561881,0.0,0.0,0.0
227,2270,-0.029205,0.2645795,0.5681959999999999,0.0,0.0,0.0
228,2280,-0.009067,0.214786,0.574511,0.0,0.0,0.0
229,2290,0.0835935,0.1701375,0.59893,0.0,0.0,0.0
230,2300,0.2370565,0.164174,0.6253365,0.0,0.0,0.0
231,2310,0.297859,0.202859,0.627324,0.0,0.0,0.0
232,2320,0.5172785,0.3648855,0.7323165,0.0,0.0,0.0
233,2330,0.539962,0.4373625,0.7724774999999999,0.0,0.0,0.0
234,2340,0.401116,0.480321,0.710703,0.0,0.0,0.0
235,2350,0.33557349999999997,0.4806805,0.6926605,0.0,0.0,0.0
236,2360,0.20193450000000002,0.4847095,0.6686545,0.0,0.0,0.0
237,2370,0.06422,0.524052,0.663914,0.0,0.0,0.0
238,2380,0.0474005,0.5310855,0.6661085,0.0,0.0,0.0
239,2390,0.024824,0.5405655,0.683792,0.0,0.0,0.0
240,2400,0.032003,0.533333,0.747813,0.0,0.0,0.0
241,2410,-0.005199,0.475229,0.760749,0.0,0.0,0.0
242,2420,-0.046942,0.43639150000000004,0.7794570000000001,0.0,0.0,0.0
243,2430,-0.1326225,0.3548395,0.8584095,0.0,0.0,0.0
244,2440,-0.280535,0.15107,1.101024,0.0,0.0,0.0
245,2450,-0.28481650000000003,0.13205650000000002,1.101024,0.0,0.0,0.0
246,2460,-0.293165,0.077569,1.059526,0.0,0.0,0.0
247,2470,-0.293165,0.077569,1.059526,0.0,0.0,0.0
248,2480,-0.293165,0.077569,1.059526,0.0,0.0,0.0
249,2490,-0.293165,0.077569,1.059526,0.0,0.0,0.0
250,2500,-0.293165,0.077569,1.059526,0.0,0.0,0.0
251,2510,-0.293165,0.077569,1.059526,0.0,0.0,0.0
252,2520,-0.293165,0.077569,1.059526,0.0,0.0,0.0
253,2530,-0.293165,0.077569,1.059526,0.0,0.0,0.0
254,2540,-0.293165,0.077569,1.059526,0.0,0.0,0.0
255,2550,-0.293165,0.077569,1.059526,0.0,0.0,0.0
256,2560,-0.293165,0.077569,1.059526,0.0,0.0,0.0
257,2570,-0.180428,-0.119771,0.724664,0.0,0.0,0.0
258,2580,-0.180428,-0.119771,0.724664,0.0,0.0,0.0
259,2590,-0.186032,-0.088731,0.6766055,0.0,0.0,0.0
260,2600,-0.167997,-0.010199,0.812538,0.0,0.0,0.0
261,2610,-0.188838,0.008104,0.8466895,0.0,0.0,0.0
262,2620,-0.239243,0.044549,0.913303,0.0,0.0,0.0
263,2630,-0.268807,0.062691,0.945765,0.0,0.0,0.0
264,2640,-0.2757415,0.114067,0.927829,0.0,0.0,0.0
265,2650,-0.24678899999999998,0.16447250000000002,0.8667199999999999,0.0,0.0,0.0
266,2660,-0.123035,0.14276,0.73568,0.0,0.0,0.0
267,2670,0.146284,0.05341,0.561361,0.0,0.0,0.0
268,2680,0.146284,0.05341,0.561361,0.0,0.0,0.0
269,2690,0.27074149999999997,0.068196,0.6488765,0.0,0.0,0.0
270,2700,0.293471,0.089297,0.737814,0.0,0.0,0.0
271,2710,0.293471,0.089297,0.737814,0.0,0.0,0.0
272,2720,0.095,0.264679,0.8620795,0.0,0.0,0.0
273,2730,0.057691,0.328746,0.865245,0.0,0.0,0.0
274,2740,-0.006934,0.4389375,0.821307,0.0,0.0,0.0
275,2750,0.030581,0.462492,0.817125,0.0,0.0,0.0
276,2760,0.055864,0.49811900000000003,0.796995,0.0,0.0,0.0
277,2770,0.098578,0.5648850000000001,0.776865,0.0,0.0,0.0
278,2780,0.116009,0.596024,0.776865,0.0,0.0,0.0
279,2790,0.123349,0.667783,0.876254,0.0,0.0,0.0
280,2800,0.1250305,0.8255355,1.0230350000000001,0.0,0.0,0.0
281,2810,0.24607,1.023654,1.21448,0.0,0.0,0.0
282,2820,0.30967849999999997,1.029717,1.2778285,0.0,0.0,0.0
283,2830,0.373287,1.03578,1.341177,0.0,0.0,0.0
284,2840,0.430015,1.037156,1.3979050000000002,0.0,0.0,0.0
285,2850,0.486743,1.038532,1.454633,0.0,0.0,0.0
286,2860,0.417936,0.93792,2.383792,0.0,0.0,0.0
287,2870,0.4168195,0.918555,2.5415900000000002,0.0,0.0,0.0
288,2880,0.4215595,0.8964835,2.8659555,0.0,0.0,0.0
289,2890,0.427416,0.893777,3.032523,0.0,0.0,0.0
290,2900,0.158716,1.199388,3.075734,0.0,0.0,0.0
291,2910,-0.038838,1.375031,2.8737,0.0,0.0,0.0
292,2920,-0.073142,1.438127,2.738226,0.0,0.0,0.0
293,2930,-0.107446,1.501223,2.602752,0.0,0.0,0.0
294,2940,0.114786,1.360443,2.100719,0.0,0.0,0.0
295,2950,0.238532,1.248425,2.092859,0.0,0.0,0.0
296,2960,0.341743,1.1572399999999998,2.0974005,0.0,0.0,0.0
297,2970,0.444954,1.066055,2.101942,0.0,0.0,0.0
298,2980,0.449128,1.062691,2.102859,0.0,0.0,0.0
299,2990,0.520184,0.988991,1.96789,0.0,0.0,0.0
300,3000,0.520184,0.988991,1.96789,0.0,0.0,0.0
301,3010,0.520184,0.988991,1.96789,0.0,0.0,0.0
302,3020,0.520184,0.988991,1.96789,0.0,0.0,0.0
303,3030,0.520184,0.988991,1.96789,0.0,0.0,0.0
304,3040,0.520184,0.988991,1.96789,0.0,0.0,0.0
305,3050,0.520184,0.988991,1.96789,0.0,0.0,0.0
306,3060,0.520184,0.988991,1.96789,0.0,0.0,0.0
307,3070,0.520184,0.988991,1.96789,0.0,0.0,0.0
308,3080,0.520184,0.988991,1.96789,0.0,0.0,0.0
309,3090,0.520184,0.988991,1.96789,0.0,0.0,0.0
310,3100,-0.1113685,0.502653,0.96763,0.0,0.0,0.0
311,3110,-0.101116,0.28919,0.774419,0.0,0.0,0.0
312,3120,-0.048471,0.232569,0.7785934999999999,0.0,0.0,0.0
313,3130,0.0389905,0.138838,0.8163075,0.0,0.0,0.0
314,3140,0.109174,0.017538,0.888884,0.0,0.0,0.0
315,3150,0.1211545,-0.058563000000000004,0.8906195,0.0,0.0,0.0
316,3160,0.133135,-0.134664,0.892355,0.0,0.0,0.0
317,3170,0.067179,-0.17364649999999998,0.7634555000000001,0.0,0.0,0.0
318,3180,0.0313,-0.178287,0.720489,0.0,0.0,0.0
319,3190,-0.064526,-0.179511,0.592156,0.0,0.0,0.0
320,3200,-0.1506575,-0.12293599999999999,0.40733949999999997,0.0,0.0,0.0
321,3210,-0.1036695,-0.107898,0.406269,0.0,0.0,0.0
322,3220,-0.072584,-0.098976,0.407645,0.0,0.0,0.0
323,3230,-0.017943499999999998,-0.12023700000000001,0.513402,0.0,0.0,0.0
324,3240,0.001529,-0.138333,0.546682,0.0,0.0,0.0
325,3250,0.0543805,-0.1871025,0.5822095,0.0,0.0,0.0
326,3260,0.02487,-0.19526,0.59409,0.0,0.0,0.0
327,3270,-0.006223,-0.2,0.598272,0.0,0.0,0.0
328,3280,-0.065245,-0.156376,0.559633,0.0,0.0,0.0
329,3290,-0.206529,-0.052599,0.549954,0.0,0.0,0.0
330,3300,-0.18313449999999998,-0.0317505,0.56896,0.0,0.0,0.0
331,3310,-0.0721255,0.0529055,0.63435,0.0,0.0,0.0
332,3320,0.053769000000000004,0.153563,0.683433,0.0,0.0,0.0
333,3330,0.103058,0.200107,0.690933,0.0,0.0,0.0
334,3340,0.08440349999999999,0.160451,0.693884,0.0,0.0,0.0
335,3350,0.061567,0.0577445,0.7306269999999999,0.0,0.0,0.0
336,3360,0.193165,0.025581,0.860856,0.0,0.0,0.0
337,3370,0.21472449999999998,0.090413,0.8649845,0.0,0.0,0.0
338,3380,0.2416895,0.21712549999999997,0.8739065,0.0,0.0,0.0
339,3390,0.321514,0.530076,0.929159,0.0,0.0,0.0
340,3400,0.355046,0.564885,0.943685,0.0,0.0,0.0
341,3410,0.41095550000000003,0.616873,0.959327,0.0,0.0,0.0
342,3420,0.434969,0.637508,0.954541,0.0,0.0,0.0
343,3430,0.434969,0.637508,0.954541,0.0,0.0,0.0
344,3440,0.193884,0.563303,0.973593,0.0,0.0,0.0
345,3450,0.1305275,0.560245,0.9318500000000001,0.0,0.0,0.0
346,3460,0.0027979999999999984,0.5392435,0.841789,0.0,0.0,0.0
347,3470,-0.128639,0.377064,0.736086,0.0,0.0,0.0
348,3480,-0.128639,0.377064,0.736086,0.0,0.0,0.0
349,3490,-0.136491,0.30642199999999997,0.7591745000000001,0.0,0.0,0.0
350,3500,-0.144847,0.233135,0.813257,0.0,0.0,0.0
351,3510,-0.120795,0.1974545,0.8623395,0.0,0.0,0.0
352,3520,-0.096743,0.161774,0.911422,0.0,0.0,0.0
353,3530,-0.096743,0.161774,0.911422,0.0,0.0,0.0
354,3540,-0.096743,0.161774,0.911422,0.0,0.0,0.0
355,3550,-0.096743,0.161774,0.911422,0.0,0.0,0.0
356,3560,-0.096743,0.161774,0.911422,0.0,0.0,0.0
357,3570,-0.096743,0.161774,0.911422,0.0,0.0,0.0
358,3580,-0.096743,0.161774,0.911422,0.0,0.0,0.0
359,3590,-0.096743,0.161774,0.911422,0.0,0.0,0.0
360,3600,-0.096743,0.161774,0.911422,0.0,0.0,0.0
361,3610,-0.096743,0.161774,0.911422,0.0,0.0,0.0
362,3620,-0.0202905,-0.044854500000000005,0.6232949999999999,0.0,0.0,0.0
363,3630,0.300719,-0.30081,0.357798,0.0,0.0,0.0
364,3640,0.242508,-0.3086085,0.5990825,0.0,0.0,0.0
365,3650,0.184297,-0.316407,0.840367,0.0,0.0,0.0
366,3660,-0.006728000000000005,-0.2472475,0.9661545,0.0,0.0,0.0
367,3670,-0.1101375,-0.177217,0.9897020000000001,0.0,0.0,0.0
368,3680,-0.154327,-0.138532,0.990214,0.0,0.0,0.0
369,3690,-0.200917,0.061774,0.453716,0.0,0.0,0.0
370,3700,-0.200917,0.061774,0.453716,0.0,0.0,0.0
371,3710,-0.201223,0.071758,0.30367,0.0,0.0,0.0
372,3720,-0.15974,-0.00867,0.318242,0.0,0.0,0.0
373,3730,-0.15974,-0.00867,0.318242,0.0,0.0,0.0
374,3740,-0.166774,-0.027416,0.556269,0.0,0.0,0.0
375,3750,-0.163456,-0.024258500000000002,0.63461,0.0,0.0,0.0
376,3760,-0.160138,-0.021101,0.712951,0.0,0.0,0.0
377,3770,-0.113815,0.0289985,0.754281,0.0,0.0,0.0
378,3780,-0.0493885,0.0666665,0.7276755,0.0,0.0,0.0
379,3790,-0.014266,0.074006,0.720489,0.0,0.0,0.0
380,3800,0.023242,0.166972,0.751988,0.0,0.0,0.0
381,3810,0.01182,0.240168,0.827936,0.0,0.0,0.0
382,3820,0.01448,0.321407,0.899893,0.0,0.0,0.0
383,3830,0.010703,0.417737,0.8785395,0.0,0.0,0.0
384,3840,-0.035673,0.525489,0.652187,0.0,0.0,0.0
385,3850,-0.0189605,0.5625914999999999,0.6353215,0.0,0.0,0.0
386,3860,-0.002248,0.599694,0.618456,0.0,0.0,0.0
387,3870,0.146988,0.750765,0.862278,0.0,0.0,0.0
388,3880,0.1642205,0.7523475,0.8630424999999999,0.0,0.0,0.0
389,3890,0.252806,0.757852,0.885168,0.0,0.0,0.0
390,3900,0.335887,0.761269,1.018242,0.0,0.0,0.0
391,3910,0.335887,0.761269,1.018242,0.0,0.0,0.0
392,3920,0.261315,0.8704355,1.5919495000000001,0.0,0.0,0.0
393,3930,0.191636,0.936697,1.981147,0.0,0.0,0.0
394,3940,0.14628449999999998,0.9816055,2.5580505000000002,0.0,0.0,0.0
395,3950,0.23914400000000002,0.9749235,2.821659,0.0,0.0,0.0
396,3960,0.33445,0.95922,2.94393,0.0,0.0,0.0
397,3970,0.33445,0.95922,2.94393,0.0,0.0,0.0
398,3980,0.41396,0.8936850000000001,3.288838,0.0,0.0,0.0
399,3990,0.334656,0.923899,3.538127,0.0,0.0,0.0
400,4000,0.295107,0.9687,3.501835,0.0,0.0,0.0
401,4010,0.178287,1.014373,3.083792,0.0,0.0,0.0
402,4020,0.233387,1.025535,2.7565215,0.0,0.0,0.0
403,4030,0.25026,1.024052,2.647401,0.0,0.0,0.0
404,4040,0.239251,0.900612,2.280535,0.0,0.0,0.0
405,4050,0.239251,0.900612,2.280535,0.0,0.0,0.0
406,4060,0.239251,0.900612,2.280535,0.0,0.0,0.0
407,4070,0.239251,0.900612,2.280535,0.0,0.0,0.0
408,4080,0.239251,0.900612,2.280535,0.0,0.0,0.0
409,4090,0.239251,0.900612,2.280535,0.0,0.0,0.0
410,4100,0.239251,0.900612,2.280535,0.0,0.0,0.0
411,4110,0.239251,0.900612,2.280535,0.0,0.0,0.0
412,4120,0.239251,0.900612,2.280535,0.0,0.0,0.0
413,4130,0.239251,0.900612,2.280535,0.0,0.0,0.0
414,4140,0.239251,0.900612,2.280535,0.0,0.0,0.0
415,4150,0.223654,0.347294,1.090321,0.0,0.0,0.0
416,4160,0.184602,0.326101,1.020489,0.0,0.0,0.0
417,4170,0.09306600000000001,0.312951,0.909327,0.0,0.0,0.0
418,4180,0.0552525,0.3133025,0.8707415000000001,0.0,0.0,0.0
419,4190,-0.013257,0.30581,0.780535,0.0,0.0,0.0
420,4200,-0.0157035,0.301781,0.771254,0.0,0.0,0.0
421,4210,-0.01815,0.297752,0.761973,0.0,0.0,0.0
422,4220,-0.013868499999999999,0.2826145,0.7501530000000001,0.0,0.0,0.0
423,4230,-0.009587,0.267477,0.738333,0.0,0.0,0.0
424,4240,-0.008257,0.19010700000000003,0.7296635,0.0,0.0,0.0
425,4250,-0.006927,0.112737,0.720994,0.0,0.0,0.0
426,4260,-0.006927,0.112737,0.720994,0.0,0.0,0.0
427,4270,-0.006927,0.112737,0.720994,0.0,0.0,0.0
428,4280,-0.006927,0.112737,0.720994,0.0,0.0,0.0
429,4290,-0.006927,0.112737,0.720994,0.0,0.0,0.0
430,4300,-0.006927,0.112737,0.720994,0.0,0.0,0.0
431,4310,-0.006927,0.112737,0.720994,0.0,0.0,0.0
432,4320,-0.006927,0.112737,0.720994,0.0,0.0,0.0
433,4330,0.0463835,0.061009,0.705757,0.0,0.0,0.0
434,4340,0.054939,0.055856,0.619266,0.0,0.0,0.0
435,4350,0.051070500000000005,0.0540215,0.612997,0.0,0.0,0.0
436,4360,0.047202,0.052187,0.606728,0.0,0.0,0.0
437,4370,0.064373,0.0868505,0.57013,0.0,0.0,0.0
438,4380,0.07900599999999999,0.101942,0.4681495,0.0,0.0,0.0
439,4390,0.062798,0.082064,0.449342,0.0,0.0,0.0
440,4400,-0.14995399999999998,0.15168199999999998,0.579304,0.0,0.0,0.0
441,4410,-0.204388,0.186239,0.628027,0.0,0.0,0.0
442,4420,-0.328333,0.314174,0.65341,0.0,0.0,0.0
443,4430,-0.3143195,0.3318575,0.608968,0.0,0.0,0.0
444,4440,-0.14474800000000002,0.31279049999999997,0.5757875,0.0,0.0,0.0
445,4450,0.197554,0.205,0.824266,0.0,0.0,0.0
446,4460,0.197554,0.205,0.824266,0.0,0.0,0.0
447,4470,0.49638400000000005,0.160092,1.2572935,0.0,0.0,0.0
448,4480,0.5969420000000001,0.17717149999999998,1.44185,0.0,0.0,0.0
449,4490,0.424465,0.359526,1.314067,0.0,0.0,0.0
450,4500,0.368448,0.41518350000000004,1.2327750000000002,0.0,0.0,0.0
451,4510,0.312431,0.470841,1.151483,0.0,0.0,0.0
452,4520,0.312431,0.470841,1.151483,0.0,0.0,0.0
453,4530,0.001728,0.627722,0.992661,0.0,0.0,0.0
454,4540,-0.08399849999999999,0.574159,0.9846105,0.0,0.0,0.0
455,4550,-0.1865445,0.48934999999999995,0.9457725,0.0,0.0,0.0
456,4560,-0.203364,0.458104,0.914985,0.0,0.0,0.0
457,4570,-0.203364,0.458104,0.914985,0.0,0.0,0.0
458,4580,-0.203364,0.458104,0.914985,0.0,0.0,0.0
459,4590,-0.203364,0.458104,0.914985,0.0,0.0,0.0
460,4600,-0.203364,0.458104,0.914985,0.0,0.0,0.0
461,4610,-0.203364,0.458104,0.914985,0.0,0.0,0.0
462,4620,-0.203364,0.458104,0.914985,0.0,0.0,0.0
463,4630,-0.203364,0.458104,0.914985,0.0,0.0,0.0
464,4640,-0.203364,0.458104,0.914985,0.0,0.0,0.0
465,4650,-0.203364,0.458104,0.914985,0.0,0.0,0.0
466,4660,-0.203364,0.458104,0.914985,0.0,0.0,0.0
467,4670,-0.201323,0.15504549999999998,0.4955195,0.0,0.0,0.0
468,4680,-0.207034,-0.029664,0.218761,0.0,0.0,0.0
469,4690,-0.008768999999999999,-0.148983,0.086032,0.0,0.0,0.0
470,4700,0.139648,-0.266468,0.059526,0.0,0.0,0.0
471,4710,0.139648,-0.266468,0.059526,0.0,0.0,0.0
472,4720,0.1641205,-0.3090215,0.2088225,0.0,0.0,0.0
473,4730,0.1514295,-0.3183945,0.3036235,0.0,0.0,0.0
474,4740,-0.024266,-0.220291,0.48185,0.0,0.0,0.0
475,4750,-0.072584,-0.184763,0.5333330000000001,0.0,0.0,0.0
476,4760,-0.120902,-0.149235,0.584816,0.0,0.0,0.0
477,4770,-0.270948,0.019067,0.702248,0.0,0.0,0.0
478,4780,-0.3640675,0.1182495,0.6700305,0.0,0.0,0.0
479,4790,-0.401682,0.1424085,0.5749235,0.0,0.0,0.0
480,4800,-0.415183,0.052706,0.444235,0.0,0.0,0.0
481,4810,-0.415183,0.052706,0.444235,0.0,0.0,0.0
482,4820,-0.415183,0.052706,0.444235,0.0,0.0,0.0
483,4830,-0.3218655,-0.0352675,0.5519415000000001,0.0,0.0,0.0
484,4840,-0.24377700000000002,-0.026353500000000002,0.6381265,0.0,0.0,0.0
485,4850,-0.206315,-0.00867,0.688073,0.0,0.0,0.0
486,4860,-0.201223,0.00367,0.691743,0.0,0.0,0.0
487,4870,-0.125994,0.060046,0.683379,0.0,0.0,0.0
488,4880,-0.01922,0.168914,0.725382,0.0,0.0,0.0
489,4890,-0.0618275,0.2350685,0.827523,0.0,0.0,0.0
490,4900,-0.115291,0.267278,0.874725,0.0,0.0,0.0
491,4910,-0.144343,0.331193,0.872783,0.0,0.0,0.0
492,4920,-0.1285935,0.359633,0.8093275,0.0,0.0,0.0
493,4930,-0.003777,0.408058,0.538639,0.0,0.0,0.0
494,4940,-0.003777,0.408058,0.538639,0.0,0.0,0.0
495,4950,0.08828,0.45091749999999997,0.545107,0.0,0.0,0.0
496,4960,0.105505,0.486132,0.545459,0.0,0.0,0.0
497,4970,0.114572,0.707339,0.386346,0.0,0.0,0.0
498,4980,0.159832,0.888272,0.33354,0.0,0.0,0.0
499,4990,0.22584100000000001,0.9556575,0.37747699999999995,0.0,0.0,0.0
500,5000,0.3527525,0.9376145,0.8253360000000001,0.0,0.0,0.0
501,5010,0.431086,0.896223,1.225489,0.0,0.0,0.0
502,5020,0.465237,0.8124845,1.7863455,0.0,0.0,0.0
503,5030,0.534457,0.692148,2.6024005,0.0,0.0,0.0
504,5040,0.640979,0.75708,3.173593,0.0,0.0,0.0
505,5050,0.5935245,0.8442354999999999,3.1771635,0.0,0.0,0.0
506,5060,0.54607,0.931391,3.180734,0.0,0.0,0.0
507,5070,0.377676,1.13711,3.031804,0.0,0.0,0.0
508,5080,0.1572325,1.499182,2.741491,0.0,0.0,0.0
509,5090,0.139648,1.581544,2.645979,0.0,0.0,0.0
510,5100,0.139648,1.581544,2.645979,0.0,0.0,0.0
511,5110,0.139648,1.581544,2.645979,0.0,0.0,0.0
512,5120,0.139648,1.581544,2.645979,0.0,0.0,0.0
513,5130,0.139648,1.581544,2.645979,0.0,0.0,0.0
514,5140,0.139648,1.581544,2.645979,0.0,0.0,0.0
515,5150,0.139648,1.581544,2.645979,0.0,0.0,0.0
516,5160,0.139648,1.581544,2.645979,0.0,0.0,0.0
517,5170,0.139648,1.581544,2.645979,0.0,0.0,0.0
518,5180,0.139648,1.581544,2.645979,0.0,0.0,0.0
519,5190,0.488884,1.513456,2.45922,0.0,0.0,0.0
520,5200,0.230023,0.8173855,1.7877675000000002,0.0,0.0,0.0
521,5210,0.209281,0.786346,1.711621,0.0,0.0,0.0
522,5220,0.2006115,0.72156,1.578387,0.0,0.0,0.0
523,5230,0.17201850000000002,0.6363915,1.314832,0.0,0.0,0.0
524,5240,0.13246950000000002,0.5935779999999999,1.049037,0.0,0.0,0.0
525,5250,0.112844,0.571147,0.913563,0.0,0.0,0.0
526,5260,0.09867,0.535979,0.837416,0.0,0.0,0.0
527,5270,0.0418425,0.4970415,0.8018885,0.0,0.0,0.0
528,5280,-0.0482645,0.4373625,0.7713535,0.0,0.0,0.0
529,5290,-0.081544,0.416621,0.776346,0.0,0.0,0.0
530,5300,-0.13104,0.3287465,0.820948,0.0,0.0,0.0
531,5310,-0.137508,0.308976,0.82182,0.0,0.0,0.0
532,5320,-0.14882299999999998,0.24042049999999998,0.7404204999999999,0.0,0.0,0.0
533,5330,-0.160138,0.171865,0.659021,0.0,0.0,0.0
534,5340,-0.147202,0.142095,0.557691,0.0,0.0,0.0
535,5350,-0.142714,0.13414399999999999,0.528792,0.0,0.0,0.0
536,5360,-0.138226,0.126193,0.499893,0.0,0.0,0.0
537,5370,-0.10759949999999999,0.0645795,0.45422799999999997,0.0,0.0,0.0
538,5380,-0.089404,0.042003,0.443731,0.0,0.0,0.0
539,5390,-0.09185,0.004388,0.44393,0.0,0.0,0.0
540,5400,-0.0977065,-0.06798900000000001,0.5468425,0.0,0.0,0.0
541,5410,-0.096942,-0.100917,0.581346,0.0,0.0,0.0
542,5420,-0.0536695,-0.116208,0.5960245,0.0,0.0,0.0
543,5430,-0.046682,-0.1280355,0.600405,0.0,0.0,0.0
544,5440,-0.045459,-0.134358,0.601116,0.0,0.0,0.0
545,5450,-0.005199,-0.148517,0.561361,0.0,0.0,0.0
546,5460,0.00133,-0.157599,0.52182,0.0,0.0,0.0
547,5470,-0.0370565,-0.21172000000000002,0.49220200000000003,0.0,0.0,0.0
548,5480,-0.073807,-0.231498,0.476254,0.0,0.0,0.0
549,5490,-0.2633025,-0.23287449999999998,0.4704355,0.0,0.0,0.0
550,5500,-0.328853,-0.219572,0.469113,0.0,0.0,0.0
551,5510,-0.232217,-0.122125,0.500612,0.0,0.0,0.0
552,5520,-0.008563000000000001,-0.01763,0.7835855,0.0,0.0,0.0
553,5530,0.10448,0.009281,0.942813,0.0,0.0,0.0
554,5540,0.10448,0.009281,0.942813,0.0,0.0,0.0
555,5550,0.252706,-0.01182,1.062691,0.0,0.0,0.0
556,5560,0.252706,-0.01182,1.062691,0.0,0.0,0.0
557,5570,0.147859,0.030581000000000004,0.913815,0.0,0.0,0.0
558,5580,0.020994000000000002,0.1228825,0.727217,0.0,0.0,0.0
559,5590,-0.001024,0.172783,0.689495,0.0,0.0,0.0
560,5600,-0.001024,0.172783,0.689495,0.0,0.0,0.0
561,5610,-0.001024,0.172783,0.689495,0.0,0.0,0.0
562,5620,-0.001024,0.172783,0.689495,0.0,0.0,0.0
563,5630,-0.001024,0.172783,0.689495,0.0,0.0,0.0
564,5640,-0.001024,0.172783,0.689495,0.0,0.0,0.0
565,5650,-0.001024,0.172783,0.689495,0.0,0.0,0.0
566,5660,-0.001024,0.172783,0.689495,0.0,0.0,0.0
567,5670,-0.001024,0.172783,0.689495,0.0,0.0,0.0
568,5680,-0.001024,0.172783,0.689495,0.0,0.0,0.0
569,5690,-0.001024,0.172783,0.689495,0.0,0.0,0.0
570,5700,-0.001024,0.172783,0.689495,0.0,0.0,0.0
571,5710,-0.001024,0.172783,0.689495,0.0,0.0,0.0
572,5720,0.433532,0.579618,0.632615,0.0,0.0,0.0
573,5730,-0.569526,0.341697,0.768807,0.0,0.0,0.0
574,5740,-0.5236005,0.293119,0.693624,0.0,0.0,0.0
575,5750,-0.476758,0.270642,0.622829,0.0,0.0,0.0
576,5760,-0.396942,0.231391,0.551177,0.0,0.0,0.0
577,5770,-0.257087,0.153058,0.4901145,0.0,0.0,0.0
578,5780,-0.080122,0.01315,0.462492,0.0,0.0,0.0
579,5790,-0.064885,-0.004228,0.4936315,0.0,0.0,0.0
580,5800,-0.0469415,-0.044289,0.562592,0.0,0.0,0.0
581,5810,-0.044235,-0.066972,0.600413,0.0,0.0,0.0
582,5820,-0.059434,-0.078486,0.61315,0.0,0.0,0.0
583,5830,-0.092355,-0.085321,0.618761,0.0,0.0,0.0
584,5840,-0.10646800000000001,-0.110803,0.587615,0.0,0.0,0.0
585,5850,-0.108456,-0.121407,0.566254,0.0,0.0,0.0
586,5860,-0.115291,-0.131391,0.560856,0.0,0.0,0.0
587,5870,-0.139297,-0.12182,0.5872094999999999,0.0,0.0,0.0
588,5880,-0.165749,-0.096024,0.717324,0.0,0.0,0.0
589,5890,-0.162133,-0.0869035,0.7810395,0.0,0.0,0.0
590,5900,-0.16152149999999998,-0.07885349999999999,0.8595335,0.0,0.0,0.0
591,5910,-0.164526,-0.079924,0.874312,0.0,0.0,0.0
592,5920,-0.164526,-0.079924,0.874312,0.0,0.0,0.0
593,5930,-0.183387,-0.0536165,0.835474,0.0,0.0,0.0
594,5940,-0.1985245,-0.0237005,0.7690600000000001,0.0,0.0,0.0
595,5950,-0.145765,0.057905,0.705612,0.0,0.0,0.0
596,5960,-0.145765,0.057905,0.705612,0.0,0.0,0.0
597,5970,-0.020237,0.11426599999999999,0.7428669999999999,0.0,0.0,0.0
598,5980,0.1093275,0.14281349999999998,0.797301,0.0,0.0,0.0
599,5990,0.173395,0.148425,0.812538,0.0,0.0,0.0
600,6000,0.2872095,0.177676,0.843731,0.0,0.0,0.0
601,6010,0.29633,0.199893,0.843731,0.0,0.0,0.0
602,6020,0.2183485,0.304228,0.8262995,0.0,0.0,0.0
603,6030,0.140367,0.408563,0.808868,0.0,0.0,0.0
604,6040,0.057691,0.546988,0.81396,0.0,0.0,0.0
605,6050,-0.020083999999999998,0.831399,0.795925,0.0,0.0,0.0
606,6060,-0.017844,0.854434,0.778394,0.0,0.0,0.0
607,6070,-0.03078,0.856468,0.771254,0.0,0.0,0.0
608,6080,0.051483,0.7322095,0.9187000000000001,0.0,0.0,0.0
609,6090,0.484511,0.487661,1.586437,0.0,0.0,0.0
610,6100,0.484511,0.487661,1.586437,0.0,0.0,0.0
611,6110,0.484511,0.487661,1.586437,0.0,0.0,0.0
612,6120,0.4116745,0.5176835,2.0795565,0.0,0.0,0.0
613,6130,0.203364,0.639243,2.7107035,0.0,0.0,0.0
614,6140,0.06789,0.73078,2.848731,0.0,0.0,0.0
615,6150,0.06789,0.73078,2.848731,0.0,0.0,0.0
616,6160,0.06789,0.73078,2.848731,0.0,0.0,0.0
617,6170,0.06789,0.73078,2.848731,0.0,0.0,0.0
618,6180,0.06789,0.73078,2.848731,0.0,0.0,0.0
619,6190,0.06789,0.73078,2.848731,0.0,0.0,0.0
620,6200,0.06789,0.73078,2.848731,0.0,0.0,0.0
621,6210,0.06789,0.73078,2.848731,0.0,0.0,0.0
622,6220,0.06789,0.73078,2.848731,0.0,0.0,0.0
623,6230,0.06789,0.73078,2.848731,0.0,0.0,0.0
624,6240,0.09439600000000001,0.7158485,2.588838,0.0,0.0,0.0
625,6250,0.084817,0.684817,2.226407,0.0,0.0,0.0
626,6260,0.084817,0.684817,2.226407,0.0,0.0,0.0
627,6270,0.072584,0.666254,2.115092,0.0,0.0,0.0
628,6280,0.061361,0.620902,1.933532,0.0,0.0,0.0
629,6290,0.1195715,0.5515825,1.829052,0.0,0.0,0.0
630,6300,0.141177,0.513257,1.764832,0.0,0.0,0.0
631,6310,0.179312,0.46310399999999996,1.6469955,0.0,0.0,0.0
632,6320,0.144847,0.401728,1.395306,0.0,0.0,0.0
633,6330,0.1108025,0.3955125,1.3363915,0.0,0.0,0.0
634,6340,0.0565745,0.385268,1.2185549999999998,0.0,0.0,0.0
635,6350,-0.028853,0.382676,0.984603,0.0,0.0,0.0
636,6360,-0.028853,0.382676,0.984603,0.0,0.0,0.0
637,6370,-0.146483,0.40112400000000004,0.8112155000000001,0.0,0.0,0.0
638,6380,-0.162584,0.403165,0.772278,0.0,0.0,0.0
639,6390,-0.162584,0.403165,0.772278,0.0,0.0,0.0
640,6400,-0.162584,0.403165,0.772278,0.0,0.0,0.0
641,6410,-0.162584,0.403165,0.772278,0.0,0.0,0.0
642,6420,-0.162584,0.403165,0.772278,0.0,0.0,0.0
643,6430,-0.162584,0.403165,0.772278,0.0,0.0,0.0
644,6440,-0.162584,0.403165,0.772278,0.0,0.0,0.0
645,6450,-0.162584,0.403165,0.772278,0.0,0.0,0.0
646,6460,-0.162584,0.403165,0.772278,0.0,0.0,0.0
647,6470,-0.162584,0.403165,0.772278,0.0,0.0,0.0
648,6480,-0.0721175,0.209893,0.6554584999999999,0.0,0.0,0.0
649,6490,0.018349,0.016621,0.538639,0.0,0.0,0.0
650,6500,0.007141,0.016621,0.466162,0.0,0.0,0.0
651,6510,-0.006927,0.028853,0.463303,0.0,0.0,0.0
652,6520,-0.052546,0.099587,0.514885,0.0,0.0,0.0
653,6530,-0.065948,0.137202,0.565749,0.0,0.0,0.0
654,6540,-0.0675305,0.1733945,0.682416,0.0,0.0,0.0
655,6550,-0.067171,0.179618,0.719771,0.0,0.0,0.0
656,6560,-0.068914,0.189602,0.760046,0.0,0.0,0.0
657,6570,-0.04893,0.14445,0.912125,0.0,0.0,0.0
658,6580,-0.0292585,0.128242,0.928234,0.0,0.0,0.0
659,6590,0.0577445,0.12533650000000002,0.9452065000000001,0.0,0.0,0.0
660,6600,0.125076,0.138639,0.94607,0.0,0.0,0.0
661,6610,0.125076,0.138639,0.94607,0.0,0.0,0.0
662,6620,0.12772899999999998,0.1699845,0.9440824999999999,0.0,0.0,0.0
663,6630,0.1212535,0.2754355,0.9968885000000001,0.0,0.0,0.0
664,6640,0.14199499999999998,0.379052,1.047301,0.0,0.0,0.0
665,6650,0.20239249999999998,0.4248245,1.008616,0.0,0.0,0.0
666,6660,0.23292,0.441086,0.974312,0.0,0.0,0.0
667,6670,0.23292,0.441086,0.974312,0.0,0.0,0.0
668,6680,0.23292,0.441086,0.974312,0.0,0.0,0.0
669,6690,0.23292,0.441086,0.974312,0.0,0.0,0.0
670,6700,0.23292,0.441086,0.974312,0.0,0.0,0.0
671,6710,0.23292,0.441086,0.974312,0.0,0.0,0.0
672,6720,0.23292,0.441086,0.974312,0.0,0.0,0.0
673,6730,0.23292,0.441086,0.974312,0.0,0.0,0.0
674,6740,0.23292,0.441086,0.974312,0.0,0.0,0.0
675,6750,0.23292,0.441086,0.974312,0.0,0.0,0.0
676,6760,0.23292,0.441086,0.974312,0.0,0.0,0.0
677,6770,-0.043012,-0.029862,0.93792,0.0,0.0,0.0
678,6780,-0.020795,-0.0851145,0.904786,0.0,0.0,0.0
679,6790,-0.001529,-0.102446,0.886743,0.0,0.0,0.0
680,6800,0.069832,-0.171972,0.838838,0.0,0.0,0.0
681,6810,0.103563,-0.177064,0.801024,0.0,0.0,0.0
682,6820,0.1117205,-0.1668195,0.733899,0.0,0.0,0.0
683,6830,0.119878,-0.156575,0.666774,0.0,0.0,0.0
684,6840,-0.093425,-0.11595549999999999,0.5395490000000001,0.0,0.0,0.0
685,6850,-0.125275,-0.110703,0.509373,0.0,0.0,0.0
686,6860,-0.158716,-0.101636,0.496437,0.0,0.0,0.0
687,6870,-0.191896,-0.095107,0.479862,0.0,0.0,0.0
688,6880,-0.212431,-0.095107,0.476651,0.0,0.0,0.0
689,6890,-0.19872299999999998,-0.11804300000000001,0.46406749999999997,0.0,0.0,0.0
690,6900,-0.1844495,-0.12899850000000002,0.460451,0.0,0.0,0.0
691,6910,-0.17604,-0.133838,0.460856,0.0,0.0,0.0
692,6920,-0.17604,-0.133838,0.460856,0.0,0.0,0.0
693,6930,-0.06768350000000001,-0.1956195,0.548578,0.0,0.0,0.0
694,6940,-0.063303,-0.19516050000000001,0.6126455,0.0,0.0,0.0
695,6950,-0.06208,-0.191743,0.644144,0.0,0.0,0.0
696,6960,-0.072584,-0.153211,0.687569,0.0,0.0,0.0
697,6970,-0.072783,-0.121911,0.724664,0.0,0.0,0.0
698,6980,0.030581,-0.047508,0.823242,0.0,0.0,0.0
699,6990,0.06208,-0.033333,0.86422,0.0,0.0,0.0
700,7000,0.03802,-0.013042999999999999,0.902347,0.0,0.0,0.0
701,7010,0.019878,-0.014266,0.902859,0.0,0.0,0.0
702,7020,-0.022324,-0.015030499999999999,0.9019874999999999,0.0,0.0,0.0
703,7030,-0.149434,0.016101,0.865443,0.0,0.0,0.0
704,7040,-0.22461799999999998,0.1684025,0.7911315000000001,0.0,0.0,0.0
705,7050,-0.224878,0.19919,0.78685,0.0,0.0,0.0
706,7060,-0.14673550000000002,0.2397015,0.7687005,0.0,0.0,0.0
707,7070,-0.106017,0.2444415,0.7546865,0.0,0.0,0.0
708,7080,0.017844,0.221101,0.697554,0.0,0.0,0.0
709,7090,0.035428,0.2176835,0.695719,0.0,0.0,0.0
710,7100,0.053012,0.214266,0.693884,0.0,0.0,0.0
711,7110,0.09133,0.21896,0.687768,0.0,0.0,0.0
712,7120,0.09133,0.21896,0.687768,0.0,0.0,0.0
713,7130,0.16457149999999998,0.33465599999999995,0.775023,0.0,0.0,0.0
714,7140,0.237813,0.450352,0.862278,0.0,0.0,0.0
715,7150,0.270749,0.563807,0.862278,0.0,0.0,0.0
716,7160,0.272982,0.68685,0.859832,0.0,0.0,0.0
717,7170,0.272982,0.68685,0.859832,0.0,0.0,0.0
718,7180,0.163303,0.989709,0.75393,0.0,0.0,0.0
719,7190,0.158517,1.01896,0.803777,0.0,0.0,0.0
720,7200,0.158517,1.01896,0.803777,0.0,0.0,0.0
721,7210,0.158517,1.01896,0.803777,0.0,0.0,0.0
722,7220,0.158517,1.01896,0.803777,0.0,0.0,0.0
723,7230,0.158517,1.01896,0.803777,0.0,0.0,0.0
724,7240,0.158517,1.01896,0.803777,0.0,0.0,0.0
725,7250,0.158517,1.01896,0.803777,0.0,0.0,0.0
726,7260,0.158517,1.01896,0.803777,0.0,0.0,0.0
727,7270,0.158517,1.01896,0.803777,0.0,0.0,0.0
728,7280,0.158517,1.01896,0.803777,0.0,0.0,0.0
729,7290,0.158517,1.01896,0.803777,0.0,0.0,0.0
730,7300,0.056934,1.120795,2.592867,0.0,0.0,0.0
731,7310,-0.039144,1.126804,2.271055,0.0,0.0,0.0
732,7320,-0.030015500000000004,1.1066284999999998,2.1586625,0.0,0.0,0.0
733,7330,0.005,1.082982,2.142202,0.0,0.0,0.0
734,7340,0.044954,1.018043,2.150046,0.0,0.0,0.0
735,7350,0.11565,0.918555,2.146384,0.0,0.0,0.0
736,7360,0.17396050000000002,0.8694725,2.112179,0.0,0.0,0.0
737,7370,0.200413,0.853012,2.091636,0.0,0.0,0.0
738,7380,0.2274235,0.7097325,1.9213075000000002,0.0,0.0,0.0
739,7390,0.2263,0.681651,1.901529,0.0,0.0,0.0
740,7400,0.120902,0.603364,1.787767,0.0,0.0,0.0
741,7410,0.079924,0.567477,1.707232,0.0,0.0,0.0
742,7420,0.0286395,0.5468424999999999,1.5114144999999999,0.0,0.0,0.0
743,7430,0.01182,0.539862,1.436392,0.0,0.0,0.0
744,7440,-0.0049464999999999995,0.4739605,1.109075,0.0,0.0,0.0
745,7450,0.015030499999999999,0.4364985,0.993731,0.0,0.0,0.0
746,7460,0.033532,0.417844,0.946483,0.0,0.0,0.0
747,7470,0.037308999999999995,0.38649849999999997,0.909885,0.0,0.0,0.0
748,7480,0.052095,0.31529,0.80815,0.0,0.0,0.0
749,7490,0.059434,0.256988,0.746376,0.0,0.0,0.0
750,7500,0.056934,0.207439,0.6199775,0.0,0.0,0.0
751,7510,0.053318,0.200612,0.587768,0.0,0.0,0.0
752,7520,-0.037416,0.156468,0.483287,0.0,0.0,0.0
753,7530,-0.044243,0.1496405,0.481093,0.0,0.0,0.0
754,7540,-0.05107,0.142813,0.478899,0.0,0.0,0.0
755,7550,-0.059633,0.108869,0.474205,0.0,0.0,0.0
756,7560,-0.049748,0.053104,0.4477525,0.0,0.0,0.0
757,7570,-0.044037,0.03445,0.429557,0.0,0.0,0.0
758,7580,-0.044037,0.03445,0.429557,0.0,0.0,0.0
759,7590,-0.0230355,0.0132495,0.41640699999999997,0.0,0.0,0.0
760,7600,0.104534,-0.055557999999999996,0.31024450000000003,0.0,0.0,0.0
761,7610,0.160138,-0.072171,0.270948,0.0,0.0,0.0
762,7620,0.212997,-0.082775,0.266208,0.0,0.0,0.0
763,7630,0.250359,-0.0905735,0.282416,0.0,0.0,0.0
764,7640,0.005,0.004388,0.531391,0.0,0.0,0.0
765,7650,0.005,0.004388,0.531391,0.0,0.0,0.0
766,7660,-0.132462,0.0658025,0.8615675,0.0,0.0,0.0
767,7670,-0.193471,0.07824149999999999,0.9681425,0.0,0.0,0.0
768,7680,-0.210902,0.084205,0.971453,0.0,0.0,0.0
769,7690,-0.048425,0.165749,0.689495,0.0,0.0,0.0
770,7700,0.099388,0.217936,0.25607,0.0,0.0,0.0
771,7710,0.099388,0.217936,0.25607,0.0,0.0,0.0
772,7720,0.099388,0.217936,0.25607,0.0,0.0,0.0
773,7730,0.099388,0.217936,0.25607,0.0,0.0,0.0
774,7740,0.099388,0.217936,0.25607,0.0,0.0,0.0
775,7750,0.099388,0.217936,0.25607,0.0,0.0,0.0
776,7760,0.099388,0.217936,0.25607,0.0,0.0,0.0
777,7770,0.099388,0.217936,0.25607,0.0,0.0,0.0
778,7780,0.099388,0.217936,0.25607,0.0,0.0,0.0
779,7790,0.099388,0.217936,0.25607,0.0,0.0,0.0
780,7800,0.099388,0.217936,0.25607,0.0,0.0,0.0
781,7810,0.099388,0.217936,0.25607,0.0,0.0,0.0
782,7820,0.09439600000000001,0.3695185,0.5799235,0.0,0.0,0.0
783,7830,0.089404,0.521101,0.903777,0.0,0.0,0.0
784,7840,-0.032309,0.482569,0.907951,0.0,0.0,0.0
785,7850,-0.0430195,0.389656,0.897959,0.0,0.0,0.0
786,7860,-0.03792,0.370031,0.89867,0.0,0.0,0.0
787,7870,0.02763,0.333135,0.938731,0.0,0.0,0.0
788,7880,0.089297,0.210497,0.9717659999999999,0.0,0.0,0.0
789,7890,0.103563,0.163303,0.973089,0.0,0.0,0.0
790,7900,0.101017,0.12889899999999999,0.8986775,0.0,0.0,0.0
791,7910,0.032829,0.056376,0.699801,0.0,0.0,0.0
792,7920,-0.11136850000000001,-0.019472500000000004,0.587615,0.0,0.0,0.0
793,7930,-0.168502,-0.052401,0.544037,0.0,0.0,0.0
794,7940,-0.204388,-0.057997,0.511621,0.0,0.0,0.0
795,7950,-0.219465,-0.06208,0.49867,0.0,0.0,0.0
796,7960,-0.213349,-0.070948,0.461575,0.0,0.0,0.0
797,7970,-0.208976,-0.073394,0.457691,0.0,0.0,0.0
798,7980,-0.130887,-0.107232,0.411315,0.0,0.0,0.0
799,7990,-0.065948,-0.138028,0.414679,0.0,0.0,0.0
800,8000,-0.008364,-0.193685,0.660443,0.0,0.0,0.0
801,8010,-0.0116745,-0.192462,0.6952594999999999,0.0,0.0,0.0
802,8020,-0.055604,-0.15963349999999998,0.749694,0.0,0.0,0.0
803,8030,-0.096223,-0.128028,0.769312,0.0,0.0,0.0
804,8040,-0.230688,-0.059939,0.81081,0.0,0.0,0.0
805,8050,-0.35107,0.088578,0.816927,0.0,0.0,0.0
806,8060,-0.383991,0.165443,0.782982,0.0,0.0,0.0
807,8070,-0.387875,0.203777,0.741483,0.0,0.0,0.0
808,8080,-0.384709,0.229664,0.724664,0.0,0.0,0.0
809,8090,-0.361774,0.153012,0.707034,0.0,0.0,0.0
810,8100,-0.361774,0.153012,0.707034,0.0,0.0,0.0
811,8110,-0.329557,0.105917,0.732722,0.0,0.0,0.0
812,8120,-0.329557,0.105917,0.732722,0.0,0.0,0.0
813,8130,-0.159985,0.1109095,0.7777295,0.0,0.0,0.0
814,8140,-0.0313455,0.1115215,0.805558,0.0,0.0,0.0
815,8150,0.041789,0.123043,0.890826,0.0,0.0,0.0
816,8160,0.05107,0.138425,0.899388,0.0,0.0,0.0
817,8170,-0.024969,0.237921,0.800107,0.0,0.0,0.0
818,8180,-0.024969,0.237921,0.800107,0.0,0.0,0.0
819,8190,-0.025688,0.252905,0.724664,0.0,0.0,0.0
820,8200,0.0718655,0.2975535,0.640566,0.0,0.0,0.0
821,8210,0.169419,0.342202,0.556468,0.0,0.0,0.0
822,8220,0.24607,0.375642,0.548731,0.0,0.0,0.0
823,8230,0.315398,0.385627,0.55474,0.0,0.0,0.0
824,8240,0.319067,0.459128,0.623135,0.0,0.0,0.0
825,8250,0.319067,0.459128,0.623135,0.0,0.0,0.0
826,8260,0.319067,0.459128,0.623135,0.0,0.0,0.0
827,8270,0.319067,0.459128,0.623135,0.0,0.0,0.0
828,8280,0.319067,0.459128,0.623135,0.0,0.0,0.0
829,8290,0.319067,0.459128,0.623135,0.0,0.0,0.0
830,8300,0.319067,0.459128,0.623135,0.0,0.0,0.0
831,8310,0.319067,0.459128,0.623135,0.0,0.0,0.0
832,8320,0.319067,0.459128,0.623135,0.0,0.0,0.0
833,8330,0.319067,0.459128,0.623135,0.0,0.0,0.0
834,8340,0.319067,0.459128,0.623135,0.0,0.0,0.0
835,8350,0.659526,0.41763,2.951269,0.0,0.0,0.0
836,8360,0.345459,0.702951,3.293991,0.0,0.0,0.0
837,8370,0.200413,0.889602,3.255856,0.0,0.0,0.0
838,8380,-0.0487765,1.295413,2.2882800000000003,0.0,0.0,0.0
839,8390,-0.096024,1.330688,2.063104,0.0,0.0,0.0
840,8400,-0.036032,1.2918500000000002,1.9141210000000002,0.0,0.0,0.0
841,8410,0.173395,1.161973,1.982569,0.0,0.0,0.0
842,8420,0.24990099999999998,1.1178365000000001,2.083234,0.0,0.0,0.0
843,8430,0.326407,1.0737,2.183899,0.0,0.0,0.0
844,8440,0.390826,1.020489,2.2524005,0.0,0.0,0.0
845,8450,0.48791999999999996,0.914174,2.355604,0.0,0.0,0.0
846,8460,0.468394,0.906223,2.339144,0.0,0.0,0.0
847,8470,0.377676,0.8664675,2.2660549999999997,0.0,0.0,0.0
848,8480,0.280887,0.8346100000000001,2.247248,0.0,0.0,0.0
849,8490,0.229251,0.810092,2.235673,0.0,0.0,0.0
850,8500,0.1970415,0.788127,2.1984709999999996,0.0,0.0,0.0
851,8510,0.10733899999999999,0.7268045000000001,2.0206425,0.0,0.0,0.0
852,8520,0.089602,0.719465,1.956988,0.0,0.0,0.0
853,8530,-0.029557,0.689495,1.599587,0.0,0.0,0.0
854,8540,-0.029557,0.689495,1.599587,0.0,0.0,0.0
855,8550,-0.040413000000000004,0.6517809999999999,1.3989755000000001,0.0,0.0,0.0
856,8560,0.016261499999999998,0.524159,0.9439375,0.0,0.0,0.0
857,8570,0.118456,0.387049,0.788073,0.0,0.0,0.0
858,8580,0.118456,0.387049,0.788073,0.0,0.0,0.0
859,8590,0.12844,0.319985,0.772278,0.0,0.0,0.0
860,8600,0.14470149999999998,0.300566,0.768708,0.0,0.0,0.0
861,8610,0.147706,0.202554,0.773501,0.0,0.0,0.0
862,8620,0.050352,0.152294,0.763196,0.0,0.0,0.0
863,8630,0.029511000000000003,0.1409255,0.761514,0.0,0.0,0.0
864,8640,0.00867,0.129557,0.759832,0.0,0.0,0.0
865,8650,-0.053516999999999995,0.087974,0.802645,0.0,0.0,0.0
866,8660,-0.069419,0.070031,0.80448,0.0,0.0,0.0
867,8670,-0.051789,-0.005505,0.696835,0.0,0.0,0.0
868,8680,-0.03104,-0.028188500000000002,0.6141129999999999,0.0,0.0,0.0
869,8690,-0.010291,-0.050872,0.531391,0.0,0.0,0.0
870,8700,0.044755,-0.099495,0.371055,0.0,0.0,0.0
871,8710,0.044755,-0.099495,0.371055,0.0,0.0,0.0
872,8720,0.049847,-0.100199,0.337813,0.0,0.0,0.0
873,8730,-0.098165,-0.050459,0.326804,0.0,0.0,0.0
874,8740,-0.098165,-0.050459,0.326804,0.0,0.0,0.0
875,8750,-0.116361,0.006368500000000003,0.5780810000000001,0.0,0.0,0.0
876,8760,-0.134557,0.063196,0.829358,0.0,0.0,0.0
877,8770,-0.134557,0.063196,0.829358,0.0,0.0,0.0
878,8780,-0.134557,0.063196,0.829358,0.0,0.0,0.0
879,8790,-0.134557,0.063196,0.829358,0.0,0.0,0.0
880,8800,-0.134557,0.063196,0.829358,0.0,0.0,0.0
881,8810,-0.134557,0.063196,0.829358,0.0,0.0,0.0
882,8820,-0.134557,0.063196,0.829358,0.0,0.0,0.0
883,8830,-0.134557,0.063196,0.829358,0.0,0.0,0.0
884,8840,-0.134557,0.063196,0.829358,0.0,0.0,0.0
885,8850,-0.134557,0.063196,0.829358,0.0,0.0,0.0
886,8860,-0.134557,0.063196,0.829358,0.0,0.0,0.0
887,8870,0.475734,0.266774,0.852095,0.0,0.0,0.0
888,8880,0.475734,0.266774,0.852095,0.0,0.0,0.0
889,8890,0.6674845,0.25973250000000003,0.8909785,0.0,0.0,0.0
890,8900,0.684205,0.275841,0.852095,0.0,0.0,0.0
891,8910,0.646376,0.335367,0.707844,0.0,0.0,0.0
892,8920,0.582676,0.375122,0.560658,0.0,0.0,0.0
893,8930,0.461881,0.475948,0.487875,0.0,0.0,0.0
894,8940,0.339557,0.571865,0.544541,0.0,0.0,0.0
895,8950,0.339557,0.571865,0.544541,0.0,0.0,0.0
896,8960,0.236284,0.645061,0.747401,0.0,0.0,0.0
897,8970,0.12467149999999999,0.5932185,0.8068805,0.0,0.0,0.0
898,8980,0.075948,0.539648,0.818853,0.0,0.0,0.0
899,8990,0.040566,0.470535,0.780535,0.0,0.0,0.0
900,9000,0.004694,0.406422,0.710703,0.0,0.0,0.0
901,9010,-0.068196,0.376346,0.607538,0.0,0.0,0.0
902,9020,-0.103257,0.367278,0.595826,0.0,0.0,0.0
903,9030,-0.2011695,0.361116,0.6082110000000001,0.0,0.0,0.0
904,9040,-0.233639,0.35974,0.625795,0.0,0.0,0.0
905,9050,-0.2640135,0.3154435,0.6657035,0.0,0.0,0.0
906,9060,-0.294388,0.271147,0.705612,0.0,0.0,0.0
907,9070,-0.25743900000000003,0.16946450000000002,0.7433255,0.0,0.0,0.0
908,9080,-0.225581,0.128333,0.74659,0.0,0.0,0.0
909,9090,-0.187049,0.060245,0.748318,0.0,0.0,0.0
910,9100,0.016009500000000003,-0.10545850000000001,0.662278,0.0,0.0,0.0
911,9110,0.070138,-0.136804,0.64607,0.0,0.0,0.0
912,9120,0.2362845,-0.2312995,0.6395035,0.0,0.0,0.0
913,9130,0.291942,-0.262798,0.640979,0.0,0.0,0.0
914,9140,0.291942,-0.262798,0.640979,0.0,0.0,0.0
915,9150,0.31513749999999996,-0.2591285,0.678647,0.0,0.0,0.0
916,9160,0.26341,-0.215398,0.721514,0.0,0.0,0.0
917,9170,0.012232,-0.077477,0.716621,0.0,0.0,0.0
918,9180,-0.150872,0.015902,0.706315,0.0,0.0,0.0
919,9190,-0.198777,0.093685,0.701223,0.0,0.0,0.0
920,9200,-0.209985,0.158609,0.691437,0.0,0.0,0.0
921,9210,-0.134755,0.229465,0.553318,0.0,0.0,0.0
922,9220,0.0273165,0.180023,0.5272175,0.0,0.0,0.0
923,9230,0.07156,0.161575,0.529664,0.0,0.0,0.0
924,9240,0.182156,0.12396,0.736391,0.0,0.0,0.0
925,9250,0.152095,0.105703,0.951682,0.0,0.0,0.0
926,9260,0.026911,0.11182,1.058517,0.0,0.0,0.0
927,9270,-0.254128,0.275535,1.113654,0.0,0.0,0.0
928,9280,-0.254128,0.275535,1.113654,0.0,0.0,0.0
929,9290,-0.254128,0.275535,1.113654,0.0,0.0,0.0
930,9300,-0.254128,0.275535,1.113654,0.0,0.0,0.0
931,9310,-0.254128,0.275535,1.113654,0.0,0.0,0.0
932,9320,-0.254128,0.275535,1.113654,0.0,0.0,0.0
933,9330,-0.254128,0.275535,1.113654,0.0,0.0,0.0
934,9340,-0.254128,0.275535,1.113654,0.0,0.0,0.0
935,9350,-0.254128,0.275535,1.113654,0.0,0.0,0.0
936,9360,-0.254128,0.275535,1.113654,0.0,0.0,0.0
937,9370,-0.254128,0.275535,1.113654,0.0,0.0,0.0
938,9380,-0.254128,0.275535,1.113654,0.0,0.0,0.0
939,9390,-0.195818,0.538532,0.958815,0.0,0.0,0.0
940,9400,-0.134358,0.864526,0.811009,0.0,0.0,0.0
941,9410,-0.03078,0.867171,0.666774,0.0,0.0,0.0
942,9420,0.023187999999999997,0.8405735000000001,0.5528595000000001,0.0,0.0,0.0
943,9430,0.074511,0.81815,0.472584,0.0,0.0,0.0
944,9440,0.12175849999999999,0.815956,0.4699845,0.0,0.0,0.0
945,9450,0.3711545,0.756116,1.2606045,0.0,0.0,0.0
946,9460,0.417431,0.738027,1.483181,0.0,0.0,0.0
947,9470,0.518708,0.687263,1.9737995000000002,0.0,0.0,0.0
948,9480,0.5926605,0.622018,2.440925,0.0,0.0,0.0
949,9490,0.610703,0.602645,2.628333,0.0,0.0,0.0
950,9500,0.575535,0.672171,2.680841,0.0,0.0,0.0
951,9510,0.442814,0.788578,2.644037,0.0,0.0,0.0
952,9520,0.2941895,1.021047,2.4973015,0.0,0.0,0.0
953,9530,0.2880735,1.1305275,2.428089,0.0,0.0,0.0
954,9540,0.309786,1.147401,2.39552,0.0,0.0,0.0
955,9550,0.344954,1.1276225,2.3303825,0.0,0.0,0.0
956,9560,0.3444415,1.100405,2.2451075,0.0,0.0,0.0
957,9570,0.259373,1.0950075,2.1579515000000002,0.0,0.0,0.0
958,9580,0.209985,1.097049,2.090933,0.0,0.0,0.0
959,9590,0.196743,1.107538,2.04893,0.0,0.0,0.0
960,9600,0.196743,1.107538,2.04893,0.0,0.0,0.0
961,9610,0.182875,1.078287,1.986239,0.0,0.0,0.0
962,9620,0.185321,1.052187,1.956988,0.0,0.0,0.0
963,9630,0.19143749999999998,0.9580500000000001,1.901017,0.0,0.0,0.0
964,9640,0.188991,0.93792,1.882462,0.0,0.0,0.0
965,9650,0.11967850000000001,0.829717,1.623448,0.0,0.0,0.0
966,9660,0.102859,0.825489,1.550566,0.0,0.0,0.0
967,9670,0.07156,0.81081,1.397554,0.0,0.0,0.0
968,9680,0.089503,0.751376,1.196942,0.0,0.0,0.0
969,9690,0.115038,0.660803,0.9605505000000001,0.0,0.0,0.0
970,9700,0.12263,0.629664,0.924771,0.0,0.0,0.0
971,9710,0.133532,0.568914,0.852294,0.0,0.0,0.0
972,9720,0.12492349999999999,0.4934785,0.758203,0.0,0.0,0.0
973,9730,0.105306,0.456881,0.720489,0.0,0.0,0.0
974,9740,0.069113,0.421514,0.652905,0.0,0.0,0.0
975,9750,-0.0141745,0.36330300000000004,0.5742125,0.0,0.0,0.0
976,9760,-0.061575,0.344343,0.553318,0.0,0.0,0.0
977,9770,-0.0770645,0.305199,0.5729895,0.0,0.0,0.0
978,9780,-0.092554,0.266055,0.592661,0.0,0.0,0.0
979,9790,-0.090107,0.227722,0.655153,0.0,0.0,0.0
980,9800,-0.0011695000000000004,0.1445945,0.736139,0.0,0.0,0.0
981,9810,0.04893,0.068807,0.81081,0.0,0.0,0.0
982,9820,0.04893,0.068807,0.81081,0.0,0.0,0.0
983,9830,0.04893,0.068807,0.81081,0.0,0.0,0.0
984,9840,0.04893,0.068807,0.81081,0.0,0.0,0.0
985,9850,0.04893,0.068807,0.81081,0.0,0.0,0.0
986,9860,0.04893,0.068807,0.81081,0.0,0.0,0.0
987,9870,0.04893,0.068807,0.81081,0.0,0.0,0.0
988,9880,0.04893,0.068807,0.81081,0.0,0.0,0.0
989,9890,0.04893,0.068807,0.81081,0.0,0.0,0.0
990,9900,0.04893,0.068807,0.81081,0.0,0.0,0.0
991,9910,0.04893,0.068807,0.81081,0.0,0.0,0.0
992,9920,0.028333,0.177875,0.696132,0.0,0.0,0.0
993,9930,0.21569549999999998,-0.07747699999999999,1.063563,0.0,0.0,0.0
994,9940,0.215795,-0.105306,1.063716,0.0,0.0,0.0
995,9950,0.08552,0.045367,0.730474,0.0,0.0,0.0
996,9960,0.08552,0.045367,0.730474,0.0,0.0,0.0
997,9970,-0.121506,0.19072650000000002,0.6985779999999999,0.0,0.0,0.0
998,9980,-0.167477,0.256269,0.697355,0.0,0.0,0.0
999,9990,-0.16922,0.374924,0.735367,0.0,0.0,0.0
