id,timestamp,acc_x,acc_y,acc_z,gyro_x,gyro_y,gyro_z
0,0,0.27737,0.629969,1.188379,0.0,0.0,0.0
1,10,0.292462,0.636498,1.180535,0.0,0.0,0.0
2,20,0.2164145,0.635275,1.284052,0.0,0.0,0.0
3,30,0.140367,0.634052,1.387569,0.0,0.0,0.0
4,40,0.062798,0.624771,1.492049,0.0,0.0,0.0
5,50,-0.073089,0.624358,1.494908,0.0,0.0,0.0
6,60,-0.10540550000000001,0.6213,1.459633,0.0,0.0,0.0
7,70,-0.145061,0.608456,1.334052,0.0,0.0,0.0
8,80,-0.145061,0.608456,1.334052,0.0,0.0,0.0
9,90,-0.121407,0.5777295,1.1277295,0.0,0.0,0.0
10,100,-0.09061949999999999,0.555153,1.0069344999999998,0.0,0.0,0.0
11,110,-0.082768,0.548425,0.975841,0.0,0.0,0.0
12,120,-0.0625845,0.5414375,0.9162615,0.0,0.0,0.0
13,130,-0.0769575,0.5419495,0.8903669999999999,0.0,0.0,0.0
14,140,-0.116514,0.552294,0.865031,0.0,0.0,0.0
15,150,-0.11539,0.554893,0.8601380000000001,0.0,0.0,0.0
16,160,-0.114266,0.557492,0.855245,0.0,0.0,0.0
17,170,-0.086338,0.554075,0.8493885,0.0,0.0,0.0
18,180,-0.05841,0.550658,0.843532,0.0,0.0,0.0
19,190,-0.05841,0.550658,0.843532,0.0,0.0,0.0
20,200,-0.05841,0.550658,0.843532,0.0,0.0,0.0
21,210,-0.05841,0.550658,0.843532,0.0,0.0,0.0
22,220,-0.05841,0.550658,0.843532,0.0,0.0,0.0
23,230,-0.05841,0.550658,0.843532,0.0,0.0,0.0
24,240,-0.05841,0.550658,0.843532,0.0,0.0,0.0
25,250,-0.05841,0.550658,0.843532,0.0,0.0,0.0
26,260,-0.05841,0.550658,0.843532,0.0,0.0,0.0
27,270,-0.05841,0.550658,0.843532,0.0,0.0,0.0
28,280,-0.05841,0.550658,0.843532,0.0,0.0,0.0
29,290,-0.1196715,0.402852,0.83461,0.0,0.0,0.0
30,300,-0.212026,0.2594265,0.8215595,0.0,0.0,0.0
31,310,-0.243119,0.263807,0.817431,0.0,0.0,0.0
32,320,-0.24337150000000002,0.29189600000000004,0.776911,0.0,0.0,0.0
33,330,-0.243624,0.319985,0.736391,0.0,0.0,0.0
34,340,-0.202645,0.330688,0.694602,0.0,0.0,0.0
35,350,-0.123295,0.346942,0.5701835,0.0,0.0,0.0
36,360,-0.114985,0.345367,0.549954,0.0,0.0,0.0
37,370,-0.109174,0.33659,0.484511,0.0,0.0,0.0
38,380,-0.10183500000000001,0.31789,0.5045335,0.0,0.0,0.0
39,390,-0.1201835,0.30474,0.670841,0.0,0.0,0.0
40,400,-0.155245,0.284098,0.924572,0.0,0.0,0.0
41,410,-0.155245,0.284098,0.924572,0.0,0.0,0.0
42,420,-0.052194000000000004,0.2919495,0.9739605,0.0,0.0,0.0
43,430,0.04526,0.310505,0.950872,0.0,0.0,0.0
44,440,0.04526,0.310505,0.950872,0.0,0.0,0.0
45,450,0.1859325,0.3536695,0.7646790000000001,0.0,0.0,0.0
46,460,0.194388,0.352905,0.740979,0.0,0.0,0.0
47,470,0.211927,0.357997,0.766361,0.0,0.0,0.0
48,480,0.211927,0.357997,0.766361,0.0,0.0,0.0
49,490,0.208456,0.391239,0.82711,0.0,0.0,0.0
50,500,0.1398085,0.4208945,0.9624845,0.0,0.0,0.0
51,510,0.141391,0.427829,0.981651,0.0,0.0,0.0
52,520,0.199694,0.393884,0.999442,0.0,0.0,0.0
53,530,0.218761,0.361667,1.004083,0.0,0.0,0.0
54,540,0.253211,0.282156,1.036086,0.0,0.0,0.0
55,550,0.270031,0.174725,1.082982,0.0,0.0,0.0
56,560,0.175535,0.173287,1.087355,0.0,0.0,0.0
57,570,0.175535,0.173287,1.087355,0.0,0.0,0.0
58,580,-0.038425,0.290933,1.051177,0.0,0.0,0.0
59,590,-0.179564,0.35866200000000004,0.9538685,0.0,0.0,0.0
60,600,-0.234862,0.366865,0.891636,0.0,0.0,0.0
61,610,-0.303165,0.325076,0.819067,0.0,0.0,0.0
62,620,-0.3230885,0.2366435,0.6694725,0.0,0.0,0.0
63,630,-0.307538,0.187966,0.596743,0.0,0.0,0.0
64,640,-0.23435,0.1358255,0.5252295,0.0,0.0,0.0
65,650,-0.078394,-0.002034,0.453716,0.0,0.0,0.0
66,660,-0.078394,-0.002034,0.453716,0.0,0.0,0.0
67,670,-0.078394,-0.002034,0.453716,0.0,0.0,0.0
68,680,-0.028547000000000003,-0.036949499999999996,0.504228,0.0,0.0,0.0
69,690,0.0213,-0.071865,0.55474,0.0,0.0,0.0
70,700,0.092049,-0.130474,0.759832,0.0,0.0,0.0
71,710,0.092049,-0.130474,0.759832,0.0,0.0,0.0
72,720,0.092049,-0.130474,0.759832,0.0,0.0,0.0
73,730,0.092049,-0.130474,0.759832,0.0,0.0,0.0
74,740,0.092049,-0.130474,0.759832,0.0,0.0,0.0
75,750,0.092049,-0.130474,0.759832,0.0,0.0,0.0
76,760,0.092049,-0.130474,0.759832,0.0,0.0,0.0
77,770,0.092049,-0.130474,0.759832,0.0,0.0,0.0
78,780,0.092049,-0.130474,0.759832,0.0,0.0,0.0
79,790,0.092049,-0.130474,0.759832,0.0,0.0,0.0
80,800,0.092049,-0.130474,0.759832,0.0,0.0,0.0
81,810,0.092049,-0.130474,0.759832,0.0,0.0,0.0
82,820,-0.008050499999999995,0.1280885,0.7669189999999999,0.0,0.0,0.0
83,830,-0.10815,0.386651,0.774006,0.0,0.0,0.0
84,840,-0.0859785,0.42054250000000004,0.7661545,0.0,0.0,0.0
85,850,-0.044495,0.4622325,0.7622325,0.0,0.0,0.0
86,860,-0.025183,0.470031,0.766162,0.0,0.0,0.0
87,870,0.011208,0.4780355,0.835168,0.0,0.0,0.0
88,880,0.0960705,0.47253100000000003,0.829205,0.0,0.0,0.0
89,890,0.2125385,0.465092,0.8119270000000001,0.0,0.0,0.0
90,900,0.345872,0.538119,0.826911,0.0,0.0,0.0
91,910,0.345872,0.538119,0.826911,0.0,0.0,0.0
92,920,0.3500535,0.6501525,0.958463,0.0,0.0,0.0
93,930,0.3536235,0.840168,1.179006,0.0,0.0,0.0
94,940,0.469924,1.011926,1.234251,0.0,0.0,0.0
95,950,0.5266515,1.0298695000000002,1.195818,0.0,0.0,0.0
96,960,0.583379,1.047813,1.157385,0.0,0.0,0.0
97,970,0.643677,1.00974,1.104281,0.0,0.0,0.0
98,980,0.7186005,0.9262539999999999,1.2141205,0.0,0.0,0.0
99,990,0.6685475000000001,0.8706955000000001,1.6772705,0.0,0.0,0.0
100,1000,0.603869,0.86055,1.977477,0.0,0.0,0.0
101,1010,0.458914,0.833945,2.443838,0.0,0.0,0.0
102,1020,0.458914,0.833945,2.443838,0.0,0.0,0.0
103,1030,-0.343425,1.128333,3.049342,0.0,0.0,0.0
104,1040,-0.569006,1.273287,2.743318,0.0,0.0,0.0
105,1050,-0.554327,1.2800150000000001,2.5621255,0.0,0.0,0.0
106,1060,-0.539648,1.286743,2.380933,0.0,0.0,0.0
107,1070,-0.229969,1.256468,1.752706,0.0,0.0,0.0
108,1080,0.04714800000000001,1.122584,1.5528054999999998,0.0,0.0,0.0
109,1090,0.268708,0.9738075,1.5802215,0.0,0.0,0.0
110,1100,0.4421025,0.8270185,1.6845565,0.0,0.0,0.0
111,1110,0.483593,0.780535,1.741697,0.0,0.0,0.0
112,1120,0.5659025,0.6739525,1.824572,0.0,0.0,0.0
113,1130,0.576407,0.6091745,1.7747705,0.0,0.0,0.0
114,1140,0.49042050000000004,0.5561165,1.587561,0.0,0.0,0.0
115,1150,0.409174,0.535979,1.453211,0.0,0.0,0.0
116,1160,0.278089,0.529159,1.270138,0.0,0.0,0.0
117,1170,0.08368500000000001,0.5408255,1.066208,0.0,0.0,0.0
118,1180,0.022523,0.547905,1.015291,0.0,0.0,0.0
119,1190,-0.0092205,0.5218119999999999,0.824618,0.0,0.0,0.0
120,1200,0.006422,0.430581,0.657294,0.0,0.0,0.0
121,1210,0.006422,0.430581,0.657294,0.0,0.0,0.0
122,1220,0.023547,0.375642,0.584098,0.0,0.0,0.0
123,1230,0.023547,0.375642,0.584098,0.0,0.0,0.0
124,1240,0.034251,0.328028,0.471361,0.0,0.0,0.0
125,1250,0.034251,0.328028,0.471361,0.0,0.0,0.0
126,1260,0.034251,0.328028,0.471361,0.0,0.0,0.0
127,1270,0.034251,0.328028,0.471361,0.0,0.0,0.0
128,1280,0.034251,0.328028,0.471361,0.0,0.0,0.0
129,1290,0.034251,0.328028,0.471361,0.0,0.0,0.0
130,1300,0.034251,0.328028,0.471361,0.0,0.0,0.0
131,1310,0.034251,0.328028,0.471361,0.0,0.0,0.0
132,1320,0.034251,0.328028,0.471361,0.0,0.0,0.0
133,1330,0.034251,0.328028,0.471361,0.0,0.0,0.0
134,1340,0.0336395,0.32594049999999997,0.457798,0.0,0.0,0.0
135,1350,0.0781885,0.1816055,0.5102445,0.0,0.0,0.0
136,1360,0.045979,0.210199,0.554021,0.0,0.0,0.0
137,1370,0.004694,0.222324,0.640474,0.0,0.0,0.0
138,1380,-0.044144,0.2486775,0.7196255,0.0,0.0,0.0
139,1390,-0.045718999999999996,0.245413,0.711468,0.0,0.0,0.0
140,1400,-0.025688,0.24933500000000003,0.6594800000000001,0.0,0.0,0.0
141,1410,-0.01081,0.256269,0.622125,0.0,0.0,0.0
142,1420,-0.21682,0.396132,0.538226,0.0,0.0,0.0
143,1430,-0.21682,0.396132,0.538226,0.0,0.0,0.0
144,1440,-0.315642,0.41065,0.7330734999999999,0.0,0.0,0.0
145,1450,-0.347905,0.421713,0.854939,0.0,0.0,0.0
146,1460,-0.303165,0.433746,0.98604,0.0,0.0,0.0
147,1470,-0.005199,0.411514,0.950872,0.0,0.0,0.0
148,1480,0.072278,0.397859,0.944847,0.0,0.0,0.0
149,1490,0.106575,0.386139,0.943012,0.0,0.0,0.0
150,1500,0.23695,0.3630505,0.941995,0.0,0.0,0.0
151,1510,0.333028,0.351682,0.942813,0.0,0.0,0.0
152,1520,0.3837925,0.392355,0.9784934999999999,0.0,0.0,0.0
153,1530,0.43098650000000005,0.471101,1.0649384999999998,0.0,0.0,0.0
154,1540,0.427416,0.509174,1.115703,0.0,0.0,0.0
155,1550,0.272072,0.549281,1.0633029999999999,0.0,0.0,0.0
156,1560,0.232416,0.552798,1.01315,0.0,0.0,0.0
157,1570,0.15504600000000002,0.54607,0.9151374999999999,0.0,0.0,0.0
158,1580,0.0303745,0.5069265000000001,0.7624845,0.0,0.0,0.0
159,1590,-0.016927,0.474511,0.707844,0.0,0.0,0.0
160,1600,-0.06448,0.385887,0.726353,0.0,0.0,0.0
161,1610,-0.072278,0.364939,0.743226,0.0,0.0,0.0
162,1620,-0.058609,0.225795,0.877875,0.0,0.0,0.0
163,1630,-0.090826,0.169113,0.949235,0.0,0.0,0.0
164,1640,-0.090826,0.169113,0.949235,0.0,0.0,0.0
165,1650,-0.15321099999999999,0.0634555,0.9843500000000001,0.0,0.0,0.0
166,1660,-0.172584,0.03292,0.987049,0.0,0.0,0.0
167,1670,-0.1933715,0.008356,0.8379205000000001,0.0,0.0,0.0
168,1680,-0.1764985,-0.006017,0.7230885,0.0,0.0,0.0
169,1690,-0.156468,-0.011621,0.688272,0.0,0.0,0.0
170,1700,-0.026857999999999996,-0.073494,0.5838455,0.0,0.0,0.0
171,1710,0.03792,-0.097554,0.552095,0.0,0.0,0.0
172,1720,0.03792,-0.097554,0.552095,0.0,0.0,0.0
173,1730,0.03792,-0.097554,0.552095,0.0,0.0,0.0
174,1740,0.121606,-0.187875,0.55841,0.0,0.0,0.0
175,1750,0.050352,-0.188578,0.595826,0.0,0.0,0.0
176,1760,-0.031804,-0.149235,0.666774,0.0,0.0,0.0
177,1770,-0.031804,-0.149235,0.666774,0.0,0.0,0.0
178,1780,-0.031804,-0.149235,0.666774,0.0,0.0,0.0
179,1790,-0.031804,-0.149235,0.666774,0.0,0.0,0.0
180,1800,-0.031804,-0.149235,0.666774,0.0,0.0,0.0
181,1810,-0.031804,-0.149235,0.666774,0.0,0.0,0.0
182,1820,-0.031804,-0.149235,0.666774,0.0,0.0,0.0
183,1830,-0.031804,-0.149235,0.666774,0.0,0.0,0.0
184,1840,-0.031804,-0.149235,0.666774,0.0,0.0,0.0
185,1850,-0.031804,-0.149235,0.666774,0.0,0.0,0.0
186,1860,-0.031804,-0.149235,0.666774,0.0,0.0,0.0
187,1870,-0.198471,0.264725,0.800818,0.0,0.0,0.0
188,1880,-0.2733945,0.33903700000000003,0.718096,0.0,0.0,0.0
189,1890,-0.291942,0.358303,0.660963,0.0,0.0,0.0
190,1900,-0.275031,0.443731,0.516713,0.0,0.0,0.0
191,1910,-0.258823,0.458104,0.516713,0.0,0.0,0.0
192,1920,-0.10607050000000001,0.5003595,0.597248,0.0,0.0,0.0
193,1930,0.08123849999999999,0.561728,0.719167,0.0,0.0,0.0
194,1940,0.118242,0.605306,0.904786,0.0,0.0,0.0
195,1950,0.09969449999999999,0.6237005,0.941743,0.0,0.0,0.0
196,1960,0.081147,0.642095,0.9787,0.0,0.0,0.0
197,1970,0.079618,0.707538,1.022217,0.0,0.0,0.0
198,1980,0.1216055,0.8559635,0.973395,0.0,0.0,0.0
199,1990,0.2215595,0.9345565,0.8015295,0.0,0.0,0.0
200,2000,0.357905,0.974511,0.612645,0.0,0.0,0.0
201,2010,0.357905,0.974511,0.612645,0.0,0.0,0.0
202,2020,0.36203399999999997,0.9843045,0.7125915,0.0,0.0,0.0
203,2030,0.365245,0.982569,0.812538,0.0,0.0,0.0
204,2040,0.559633,0.941231,1.4030580000000001,0.0,0.0,0.0
205,2050,0.784862,0.8955120000000001,2.237003,0.0,0.0,0.0
206,2060,0.815703,0.891131,2.480428,0.0,0.0,0.0
207,2070,0.5904739999999999,0.9691130000000001,2.860451,0.0,0.0,0.0
208,2080,0.086239,1.238838,3.201728,0.0,0.0,0.0
209,2090,-0.050252,1.3450075,3.0823625000000003,0.0,0.0,0.0
210,2100,-0.3284405,1.5974005,2.6426605,0.0,0.0,0.0
211,2110,-0.470138,1.743624,2.322324,0.0,0.0,0.0
212,2120,-0.3493425,1.7174775,1.8427064999999998,0.0,0.0,0.0
213,2130,-0.075535,1.517844,1.637722,0.0,0.0,0.0
214,2140,-0.075535,1.517844,1.637722,0.0,0.0,0.0
215,2150,0.397446,1.206621,1.730688,0.0,0.0,0.0
216,2160,0.48822600000000005,1.134503,1.7804815,0.0,0.0,0.0
217,2170,0.7004049999999999,0.876101,1.886644,0.0,0.0,0.0
218,2180,0.72711,0.815703,1.892049,0.0,0.0,0.0
219,2190,0.6613685,0.67289,1.6815975,0.0,0.0,0.0
220,2200,0.585627,0.637722,1.571758,0.0,0.0,0.0
221,2210,0.475734,0.627018,1.472982,0.0,0.0,0.0
222,2220,0.475734,0.627018,1.472982,0.0,0.0,0.0
223,2230,0.4406195,0.6212534999999999,1.435268,0.0,0.0,0.0
224,2240,0.291644,0.5736465,1.1936315,0.0,0.0,0.0
225,2250,0.177783,0.531804,0.989709,0.0,0.0,0.0
226,2260,0.14159,0.499083,0.91896,0.0,0.0,0.0
227,2270,0.0837385,0.463968,0.8331805,0.0,0.0,0.0
228,2280,0.025887,0.428853,0.747401,0.0,0.0,0.0
229,2290,-0.009587,0.411728,0.712232,0.0,0.0,0.0
230,2300,-0.009587,0.411728,0.712232,0.0,0.0,0.0
231,2310,-0.009587,0.411728,0.712232,0.0,0.0,0.0
232,2320,-0.009587,0.411728,0.712232,0.0,0.0,0.0
233,2330,-0.009587,0.411728,0.712232,0.0,0.0,0.0
234,2340,-0.009587,0.411728,0.712232,0.0,0.0,0.0
235,2350,-0.009587,0.411728,0.712232,0.0,0.0,0.0
236,2360,-0.009587,0.411728,0.712232,0.0,0.0,0.0
237,2370,-0.009587,0.411728,0.712232,0.0,0.0,0.0
238,2380,-0.009587,0.411728,0.712232,0.0,0.0,0.0
239,2390,0.242401,0.095413,0.358104,0.0,0.0,0.0
240,2400,0.1745645,0.10224,0.434098,0.0,0.0,0.0
241,2410,0.106728,0.109067,0.510092,0.0,0.0,0.0
242,2420,-0.1256425,0.17656,0.6204435,0.0,0.0,0.0
243,2430,-0.302806,0.2537235,0.654847,0.0,0.0,0.0
244,2440,-0.4425615,0.319977,0.647913,0.0,0.0,0.0
245,2450,-0.400612,0.351177,0.54159,0.0,0.0,0.0
246,2460,-0.400612,0.351177,0.54159,0.0,0.0,0.0
247,2470,-0.206529,0.361972,0.454021,0.0,0.0,0.0
248,2480,0.0871025,0.2194725,0.42895300000000003,0.0,0.0,0.0
249,2490,0.153364,0.091185,0.4860325,0.0,0.0,0.0
250,2500,0.026911,0.02396,0.604083,0.0,0.0,0.0
251,2510,0.026911,0.02396,0.604083,0.0,0.0,0.0
252,2520,-0.1770185,0.075023,0.9384785,0.0,0.0,0.0
253,2530,-0.18104,0.15107,1.2214525,0.0,0.0,0.0
254,2540,0.042309,0.215795,1.456881,0.0,0.0,0.0
255,2550,0.1287005,0.2305275,1.456881,0.0,0.0,0.0
256,2560,0.215092,0.24526,1.456881,0.0,0.0,0.0
257,2570,0.315703,0.238226,1.322829,0.0,0.0,0.0
258,2580,0.4303745,0.206728,1.099801,0.0,0.0,0.0
259,2590,0.44561150000000005,0.2544345,1.0877215,0.0,0.0,0.0
260,2600,0.302446,0.41396,1.162798,0.0,0.0,0.0
261,2610,0.302446,0.41396,1.162798,0.0,0.0,0.0
262,2620,0.1855275,0.4584555,1.2040215,0.0,0.0,0.0
263,2630,0.147706,0.466865,1.206927,0.0,0.0,0.0
264,2640,-0.082523,0.4689605,0.9563765,0.0,0.0,0.0
265,2650,-0.1824695,0.4469955,0.803364,0.0,0.0,0.0
266,2660,-0.21896,0.430275,0.752492,0.0,0.0,0.0
267,2670,-0.27818050000000005,0.367324,0.6816055,0.0,0.0,0.0
268,2680,-0.302951,0.318547,0.674419,0.0,0.0,0.0
269,2690,-0.304893,0.316101,0.676346,0.0,0.0,0.0
270,2700,-0.2862385,0.209939,0.6920489999999999,0.0,0.0,0.0
271,2710,-0.267278,0.174312,0.691942,0.0,0.0,0.0
272,2720,-0.267278,0.174312,0.691942,0.0,0.0,0.0
273,2730,-0.267278,0.174312,0.691942,0.0,0.0,0.0
274,2740,-0.267278,0.174312,0.691942,0.0,0.0,0.0
275,2750,-0.2254815,-0.013149500000000001,0.6238535000000001,0.0,0.0,0.0
276,2760,-0.212179,-0.017431000000000002,0.6004590000000001,0.0,0.0,0.0
277,2770,-0.192355,-0.050657,0.514786,0.0,0.0,0.0
278,2780,-0.1912845,-0.0563685,0.5135624999999999,0.0,0.0,0.0
279,2790,-0.1925075,-0.07054300000000001,0.5167200000000001,0.0,0.0,0.0
280,2800,-0.205612,-0.107538,0.552095,0.0,0.0,0.0
281,2810,-0.205612,-0.107538,0.552095,0.0,0.0,0.0
282,2820,-0.205612,-0.107538,0.552095,0.0,0.0,0.0
283,2830,,,,,,
284,2840,-0.205612,-0.107538,0.552095,0.0,0.0,0.0
285,2850,-0.205612,-0.107538,0.552095,0.0,0.0,0.0
286,2860,-0.205612,-0.107538,0.552095,0.0,0.0,0.0
287,2870,-0.205612,-0.107538,0.552095,0.0,0.0,0.0
288,2880,-0.205612,-0.107538,0.552095,0.0,0.0,0.0
289,2890,-0.205612,-0.107538,0.552095,0.0,0.0,0.0
290,2900,-0.205612,-0.107538,0.552095,0.0,0.0,0.0
291,2910,-0.216514,0.096942,0.759021,0.0,0.0,0.0
292,2920,-0.143991,0.1619265,0.771361,0.0,0.0,0.0
293,2930,-0.076254,0.189602,0.792462,0.0,0.0,0.0
294,2940,-0.06208,0.205505,0.828639,0.0,0.0,0.0
295,2950,-0.0802755,0.229771,0.8850155,0.0,0.0,0.0
296,2960,-0.098471,0.237722,0.903563,0.0,0.0,0.0
297,2970,-0.13532149999999998,0.28679699999999997,0.9008635,0.0,0.0,0.0
298,2980,-0.1143275,0.342049,0.897347,0.0,0.0,0.0
299,2990,-0.0559635,0.3796635,0.921407,0.0,0.0,0.0
300,3000,0.11182,0.470841,0.909893,0.0,0.0,0.0
301,3010,0.11182,0.470841,0.909893,0.0,0.0,0.0
302,3020,0.11182,0.470841,0.909893,0.0,0.0,0.0
303,3030,0.14893,0.478089,0.833028,0.0,0.0,0.0
304,3040,0.160038,0.4886315,0.7811925,0.0,0.0,0.0
305,3050,0.120382,0.634052,0.99919,0.0,0.0,0.0
306,3060,0.120382,0.634052,0.99919,0.0,0.0,0.0
307,3070,0.14628449999999998,0.6952065000000001,1.1443425,0.0,0.0,0.0
308,3080,0.15958699999999998,0.7241055000000001,1.2423009999999999,0.0,0.0,0.0
309,3090,0.159434,0.728746,1.275229,0.0,0.0,0.0
310,3100,0.160963,0.732722,1.341697,0.0,0.0,0.0
311,3110,0.269312,0.765856,1.483181,0.0,0.0,0.0
312,3120,0.43623900000000004,0.8518345,1.97854,0.0,0.0,0.0
313,3130,0.469924,0.902859,2.266667,0.0,0.0,0.0
314,3140,0.430076,0.97237,2.518547,0.0,0.0,0.0
315,3150,0.1568805,1.084656,2.686238,0.0,0.0,0.0
316,3160,0.06055,1.122217,2.686238,0.0,0.0,0.0
317,3170,-0.03639150000000001,1.176147,2.641949,0.0,0.0,0.0
318,3180,-0.263716,1.345765,2.39185,0.0,0.0,0.0
319,3190,-0.1608105,1.3922475,2.1550000000000002,0.0,0.0,0.0
320,3200,-0.089404,1.397752,2.104083,0.0,0.0,0.0
321,3210,0.0400075,1.3457724999999998,2.069931,0.0,0.0,0.0
322,3220,0.231391,1.187355,2.012125,0.0,0.0,0.0
323,3230,0.290719,1.109281,2.000917,0.0,0.0,0.0
324,3240,0.290719,1.109281,2.000917,0.0,0.0,0.0
325,3250,0.356881,0.9807874999999999,1.9815975,0.0,0.0,0.0
326,3260,0.423043,0.852294,1.962278,0.0,0.0,0.0
327,3270,0.428647,0.7900615,1.9088685,0.0,0.0,0.0
328,3280,0.433028,0.690214,1.75555,0.0,0.0,0.0
329,3290,0.433028,0.690214,1.75555,0.0,0.0,0.0
330,3300,0.334205,0.657393,1.4619805000000001,0.0,0.0,0.0
331,3310,0.278089,0.650459,1.366774,0.0,0.0,0.0
332,3320,0.19032149999999998,0.639243,1.2155965,0.0,0.0,0.0
333,3330,0.102554,0.628027,1.064419,0.0,0.0,0.0
334,3340,0.102554,0.628027,1.064419,0.0,0.0,0.0
335,3350,0.102554,0.628027,1.064419,0.0,0.0,0.0
336,3360,0.102554,0.628027,1.064419,0.0,0.0,0.0
337,3370,0.102554,0.628027,1.064419,0.0,0.0,0.0
338,3380,0.102554,0.628027,1.064419,0.0,0.0,0.0
339,3390,0.102554,0.628027,1.064419,0.0,0.0,0.0
340,3400,0.102554,0.628027,1.064419,0.0,0.0,0.0
341,3410,0.102554,0.628027,1.064419,0.0,0.0,0.0
342,3420,0.102554,0.628027,1.064419,0.0,0.0,0.0
343,3430,0.102554,0.628027,1.064419,0.0,0.0,0.0
344,3440,0.065031,0.056376,0.664832,0.0,0.0,0.0
345,3450,0.022523,0.044648,0.762492,0.0,0.0,0.0
346,3460,0.044755,0.025382,0.718761,0.0,0.0,0.0
347,3470,0.085122,0.0163605,0.615191,0.0,0.0,0.0
348,3480,0.125489,0.007339,0.511621,0.0,0.0,0.0
349,3490,0.134151,0.00020600000000000002,0.489656,0.0,0.0,0.0
350,3500,0.0602445,-0.08491599999999999,0.4530125,0.0,0.0,0.0
351,3510,-0.112844,-0.11473249999999999,0.4753365,0.0,0.0,0.0
352,3520,-0.197752,-0.111728,0.496437,0.0,0.0,0.0
353,3530,-0.49883049999999995,0.0192125,0.6948544999999999,0.0,0.0,0.0
354,3540,-0.591239,0.068089,0.805917,0.0,0.0,0.0
355,3550,-0.531605,0.16789,0.873287,0.0,0.0,0.0
356,3560,-0.29734700000000003,0.1763455,0.8295105,0.0,0.0,0.0
357,3570,-0.13736199999999998,0.1083565,0.760038,0.0,0.0,0.0
358,3580,-0.054235,0.060245,0.730474,0.0,0.0,0.0
359,3590,0.05841,-0.017936,0.739557,0.0,0.0,0.0
360,3600,0.0488765,-0.028792,0.7218655,0.0,0.0,0.0
361,3610,0.039343,-0.039648,0.704174,0.0,0.0,0.0
362,3620,-0.027936,0.229862,0.611208,0.0,0.0,0.0
363,3630,-0.027936,0.229862,0.611208,0.0,0.0,0.0
364,3640,0.211468,0.3590215,0.7667665,0.0,0.0,0.0
365,3650,0.305199,0.401223,0.82497,0.0,0.0,0.0
366,3660,0.46555,0.465443,0.950872,0.0,0.0,0.0
367,3670,0.5455654999999999,0.398219,0.9919955,0.0,0.0,0.0
368,3680,0.494083,0.298272,0.880321,0.0,0.0,0.0
369,3690,0.494083,0.298272,0.880321,0.0,0.0,0.0
370,3700,0.3012765,0.2602985,0.8045869999999999,0.0,0.0,0.0
371,3710,0.255657,0.263609,0.802951,0.0,0.0,0.0
372,3720,0.1217125,0.27987,0.917584,0.0,0.0,0.0
373,3730,0.083287,0.283899,0.960443,0.0,0.0,0.0
374,3740,0.083287,0.283899,0.960443,0.0,0.0,0.0
375,3750,0.083287,0.283899,0.960443,0.0,0.0,0.0
376,3760,-0.136491,0.254587,0.941491,0.0,0.0,0.0
377,3770,-0.177263,0.249235,0.923043,0.0,0.0,0.0
378,3780,-0.2429205,0.15948,0.880627,0.0,0.0,0.0
379,3790,-0.253624,0.109587,0.856468,0.0,0.0,0.0
380,3800,-0.260245,0.038119,0.783287,0.0,0.0,0.0
381,3810,-0.255153,0.031697,0.748823,0.0,0.0,0.0
382,3820,-0.255153,0.031697,0.748823,0.0,0.0,0.0
383,3830,-0.175841,-0.013761,0.677783,0.0,0.0,0.0
384,3840,-0.111315,-0.050459,0.642921,0.0,0.0,0.0
385,3850,-0.046177,-0.083593,0.610703,0.0,0.0,0.0
386,3860,0.003921999999999998,-0.099442,0.6044875000000001,0.0,0.0,0.0
387,3870,0.054021,-0.115291,0.598272,0.0,0.0,0.0
388,3880,0.054021,-0.115291,0.598272,0.0,0.0,0.0
389,3890,0.054021,-0.115291,0.598272,0.0,0.0,0.0
390,3900,0.054021,-0.115291,0.598272,0.0,0.0,0.0
391,3910,0.054021,-0.115291,0.598272,0.0,0.0,0.0
392,3920,0.054021,-0.115291,0.598272,0.0,0.0,0.0
393,3930,0.054021,-0.115291,0.598272,0.0,0.0,0.0
394,3940,0.054021,-0.115291,0.598272,0.0,0.0,0.0
395,3950,0.054021,-0.115291,0.598272,0.0,0.0,0.0
396,3960,-0.002905500000000002,-0.011414500000000001,0.6816055000000001,0.0,0.0,0.0
397,3970,-0.059832,0.092462,0.764939,0.0,0.0,0.0
398,3980,-0.06645999999999999,0.07431199999999999,0.879251,0.0,0.0,0.0
399,3990,-0.086437,0.071254,0.955245,0.0,0.0,0.0
400,4000,-0.153104,0.191132,1.020489,0.0,0.0,0.0
401,4010,-0.188486,0.293578,1.020489,0.0,0.0,0.0
402,4020,-0.2091205,0.420948,0.949694,0.0,0.0,0.0
403,4030,-0.21824149999999998,0.4728825,0.8571865000000001,0.0,0.0,0.0
404,4040,-0.219465,0.486132,0.824266,0.0,0.0,0.0
405,4050,-0.2144725,0.48409800000000003,0.8159555000000001,0.0,0.0,0.0
406,4060,-0.1010245,0.4499465,0.8182495000000001,0.0,0.0,0.0
407,4070,0.05927349999999999,0.4257875,0.885115,0.0,0.0,0.0
408,4080,0.170642,0.420994,0.932615,0.0,0.0,0.0
409,4090,0.242921,0.489098,0.931086,0.0,0.0,0.0
410,4100,0.333433,0.641743,0.922225,0.0,0.0,0.0
411,4110,0.392248,0.721208,0.92263,0.0,0.0,0.0
412,4120,0.5654435,0.766254,0.9432185,0.0,0.0,0.0
413,4130,0.624358,0.774205,0.95922,0.0,0.0,0.0
414,4140,0.675428,0.816407,1.00581,0.0,0.0,0.0
415,4150,0.696636,0.884511,1.012645,0.0,0.0,0.0
416,4160,0.7146790000000001,0.8888915,1.014373,0.0,0.0,0.0
417,4170,0.772431,0.9038225,1.2734405,0.0,0.0,0.0
418,4180,0.775948,0.907232,1.396835,0.0,0.0,0.0
419,4190,0.707141,0.94893,1.98185,0.0,0.0,0.0
420,4200,0.480841,1.052187,2.510505,0.0,0.0,0.0
421,4210,0.480841,1.052187,2.510505,0.0,0.0,0.0
422,4220,0.30408250000000003,1.1737535000000001,2.5693194999999998,0.0,0.0,0.0
423,4230,0.23711,1.223547,2.566667,0.0,0.0,0.0
424,4240,0.23711,1.223547,2.566667,0.0,0.0,0.0
425,4250,0.234358,1.290826,2.389709,0.0,0.0,0.0
426,4260,0.252194,1.268448,2.3289985,0.0,0.0,0.0
427,4270,0.307339,1.246483,2.206621,0.0,0.0,0.0
428,4280,0.307339,1.246483,2.206621,0.0,0.0,0.0
429,4290,0.3047935,1.2352215,2.0788455,0.0,0.0,0.0
430,4300,0.37181949999999997,1.088379,1.8877675,0.0,0.0,0.0
431,4310,0.500199,0.859633,1.896132,0.0,0.0,0.0
432,4320,0.521147,0.800665,1.911881,0.0,0.0,0.0
433,4330,0.5539755,0.691697,1.9089755,0.0,0.0,0.0
434,4340,0.565856,0.641697,1.890321,0.0,0.0,0.0
435,4350,0.3520415,0.5700305,1.6644269999999999,0.0,0.0,0.0
436,4360,0.231598,0.5862385,1.558257,0.0,0.0,0.0
437,4370,0.169006,0.602859,1.502951,0.0,0.0,0.0
438,4380,0.046177,0.636086,1.370443,0.0,0.0,0.0
439,4390,0.046177,0.636086,1.370443,0.0,0.0,0.0
440,4400,0.046177,0.636086,1.370443,0.0,0.0,0.0
441,4410,0.046177,0.636086,1.370443,0.0,0.0,0.0
442,4420,0.046177,0.636086,1.370443,0.0,0.0,0.0
443,4430,0.046177,0.636086,1.370443,0.0,0.0,0.0
444,4440,0.046177,0.636086,1.370443,0.0,0.0,0.0
445,4450,0.046177,0.636086,1.370443,0.0,0.0,0.0
446,4460,0.046177,0.636086,1.370443,0.0,0.0,0.0
447,4470,0.046177,0.636086,1.370443,0.0,0.0,0.0
448,4480,0.046177,0.636086,1.370443,0.0,0.0,0.0
449,4490,-0.101835,0.207232,0.333945,0.0,0.0,0.0
450,4500,-0.138945,0.203777,0.323853,0.0,0.0,0.0
451,4510,-0.070336,0.138425,0.340474,0.0,0.0,0.0
452,4520,0.068303,0.0892965,0.3497475,0.0,0.0,0.0
453,4530,0.2459785,0.009434,0.3763535,0.0,0.0,0.0
454,4540,0.315703,-0.024052,0.396132,0.0,0.0,0.0
455,4550,0.283333,-0.028791999999999998,0.411881,0.0,0.0,0.0
456,4560,0.1517275,-0.015030499999999999,0.44801199999999997,0.0,0.0,0.0
457,4570,-0.204388,0.071055,0.545061,0.0,0.0,0.0
458,4580,-0.3398085,0.106575,0.6136085,0.0,0.0,0.0
459,4590,-0.475229,0.142095,0.682156,0.0,0.0,0.0
460,4600,-0.46880700000000003,0.2583565,0.7487765,0.0,0.0,0.0
461,4610,-0.324664,0.273807,0.857187,0.0,0.0,0.0
462,4620,-0.2720645,0.2006115,0.865956,0.0,0.0,0.0
463,4630,-0.182615,0.0805275,0.8763,0.0,0.0,0.0
464,4640,-0.145765,0.033639,0.877875,0.0,0.0,0.0
465,4650,0.026605500000000004,-0.053111500000000006,0.9208485,0.0,0.0,0.0
466,4660,0.082569,-0.060963,0.954541,0.0,0.0,0.0
467,4670,0.129862,-0.068196,1.027324,0.0,0.0,0.0
468,4680,0.077217,0.0159025,1.287362,0.0,0.0,0.0
469,4690,0.061575,0.051988,1.322125,0.0,0.0,0.0
470,4700,0.061575,0.051988,1.322125,0.0,0.0,0.0
471,4710,0.222431,0.344144,1.222523,0.0,0.0,0.0
472,4720,0.222431,0.344144,1.222523,0.0,0.0,0.0
473,4730,0.400306,0.387569,0.935581,0.0,0.0,0.0
474,4740,0.400306,0.387569,0.935581,0.0,0.0,0.0
475,4750,0.400306,0.387569,0.935581,0.0,0.0,0.0
476,4760,0.425589,0.414679,0.8901680000000001,0.0,0.0,0.0
477,4770,0.37656,0.4421485,0.8634094999999999,0.0,0.0,0.0
478,4780,0.302248,0.442508,0.882064,0.0,0.0,0.0
479,4790,0.200917,0.452294,0.893073,0.0,0.0,0.0
480,4800,0.067125,0.45020649999999995,0.825688,0.0,0.0,0.0
481,4810,-0.066667,0.448119,0.758303,0.0,0.0,0.0
482,4820,-0.09306600000000001,0.380375,0.7525,0.0,0.0,0.0
483,4830,-0.081346,0.347294,0.756682,0.0,0.0,0.0
484,4840,-0.076758,0.336804,0.766865,0.0,0.0,0.0
485,4850,-0.10560349999999999,0.2636085,0.7785934999999999,0.0,0.0,0.0
486,4860,-0.13792,0.235061,0.779312,0.0,0.0,0.0
487,4870,-0.2574465,0.11834900000000001,0.7642205,0.0,0.0,0.0
488,4880,-0.2757415,0.051988,0.7590749999999999,0.0,0.0,0.0
489,4890,-0.274618,0.03078,0.756376,0.0,0.0,0.0
490,4900,-0.24240849999999997,-0.0017890000000000007,0.7373625,0.0,0.0,0.0
491,4910,-0.047706,-0.138333,0.57237,0.0,0.0,0.0
492,4920,-0.047706,-0.138333,0.57237,0.0,0.0,0.0
493,4930,-0.047706,-0.138333,0.57237,0.0,0.0,0.0
494,4940,-0.047706,-0.138333,0.57237,0.0,0.0,0.0
495,4950,-0.047706,-0.138333,0.57237,0.0,0.0,0.0
496,4960,-0.047706,-0.138333,0.57237,0.0,0.0,0.0
497,4970,-0.047706,-0.138333,0.57237,0.0,0.0,0.0
498,4980,-0.047706,-0.138333,0.57237,0.0,0.0,0.0
499,4990,-0.047706,-0.138333,0.57237,0.0,0.0,0.0
500,5000,-0.047706,-0.138333,0.57237,0.0,0.0,0.0
501,5010,-0.241483,0.116407,0.330275,0.0,0.0,0.0
502,5020,-0.158914,0.100612,0.264832,0.0,0.0,0.0
503,5030,-0.002248,0.064419,0.2687,0.0,0.0,0.0
504,5040,0.033746,0.026101,0.513043,0.0,0.0,0.0
505,5050,0.036193,0.026606,0.945061,0.0,0.0,0.0
506,5060,0.036193,0.026606,0.945061,0.0,0.0,0.0
507,5070,-0.0265595,0.0908255,1.144954,0.0,0.0,0.0
508,5080,-0.051789,0.139648,1.164725,0.0,0.0,0.0
509,5090,-0.083593,0.20815,1.060749,0.0,0.0,0.0
510,5100,-0.016208,0.388073,0.699281,0.0,0.0,0.0
511,5110,-0.016208,0.388073,0.699281,0.0,0.0,0.0
512,5120,-0.0164605,0.40331,0.7119725,0.0,0.0,0.0
513,5130,-0.016713,0.418547,0.724664,0.0,0.0,0.0
514,5140,-0.0794115,0.436185,0.793991,0.0,0.0,0.0
515,5150,-0.0859865,0.453517,0.8262005,0.0,0.0,0.0
516,5160,-0.008509500000000003,0.48037450000000004,0.833486,0.0,0.0,0.0
517,5170,0.210703,0.518853,0.836193,0.0,0.0,0.0
518,5180,0.269266,0.5543804999999999,0.829358,0.0,0.0,0.0
519,5190,0.327829,0.589908,0.822523,0.0,0.0,0.0
520,5200,0.366667,0.733639,0.809786,0.0,0.0,0.0
521,5210,0.3737,0.855245,0.805917,0.0,0.0,0.0
522,5220,0.359228,1.0237535,0.717584,0.0,0.0,0.0
523,5230,0.398165,1.0796635,0.6190135,0.0,0.0,0.0
524,5240,0.446483,1.085627,0.599495,0.0,0.0,0.0
525,5250,0.613456,1.04974,0.630887,0.0,0.0,0.0
526,5260,0.613456,1.04974,0.630887,0.0,0.0,0.0
527,5270,0.998578,0.878899,2.612951,0.0,0.0,0.0
528,5280,,,,,,
529,5290,0.8733485,0.87961,2.7799234999999998,0.0,0.0,0.0
530,5300,0.028386999999999996,1.2477065,2.9665135,0.0,0.0,0.0
531,5310,-0.364021,1.467385,2.912431,0.0,0.0,0.0
532,5320,-0.4555045,1.5610625,2.817989,0.0,0.0,0.0
533,5330,-0.557492,1.716315,2.463608,0.0,0.0,0.0
534,5340,-0.40867,1.670841,2.189098,0.0,0.0,0.0
535,5350,0.10489299999999999,1.3721174999999999,1.8987764999999999,0.0,0.0,0.0
536,5360,0.30367,1.265245,1.88766,0.0,0.0,0.0
537,5370,0.4841515,1.1575995,1.9003515,0.0,0.0,0.0
538,5380,0.7298165000000001,1.012645,1.933433,0.0,0.0,0.0
539,5390,0.795,0.975336,1.953823,0.0,0.0,0.0
540,5400,0.7975535,0.900512,1.856881,0.0,0.0,0.0
541,5410,0.800107,0.825688,1.759939,0.0,0.0,0.0
542,5420,0.7858335000000001,0.824465,1.7419954999999998,0.0,0.0,0.0
543,5430,0.74445,0.820795,1.690413,0.0,0.0,0.0
544,5440,,,,,,
545,5450,,,,,,
546,5460,,,,,,
547,5470,,,,,,
548,5480,,,,,,
549,5490,,,,,,
550,5500,,,,,,
551,5510,,,,,,
552,5520,,,,,,
553,5530,,,,,,
554,5540,,,,,,
555,5550,,,,,,
556,5560,,,,,,
557,5570,,,,,,
558,5580,0.74445,0.820795,1.690413,0.0,0.0,0.0
559,5590,0.232615,0.120596,0.389297,0.0,0.0,0.0
560,5600,0.18185,0.034664,0.439862,0.0,0.0,0.0
561,5610,0.142095,0.02711,0.477171,0.0,0.0,0.0
562,5620,0.142095,0.02711,0.477171,0.0,0.0,0.0
563,5630,0.0006120000000000014,0.02987,0.48547399999999996,0.0,0.0,0.0
564,5640,-0.128899,0.055864,0.448364,0.0,0.0,0.0
565,5650,-0.268303,0.076346,0.395917,0.0,0.0,0.0
566,5660,-0.2465905,0.0563685,0.393119,0.0,0.0,0.0
567,5670,-0.0799235,-0.0256885,0.47400600000000004,0.0,0.0,0.0
568,5680,0.163807,-0.124572,0.642921,0.0,0.0,0.0
569,5690,0.163807,-0.124572,0.642921,0.0,0.0,0.0
570,5700,0.109427,-0.16096349999999998,0.7711545,0.0,0.0,0.0
571,5710,0.04893,-0.164633,0.79052,0.0,0.0,0.0
572,5720,-0.336751,-0.073601,0.8701375,0.0,0.0,0.0
573,5730,-0.423043,0.0179895,0.8965905000000001,0.0,0.0,0.0
574,5740,-0.443532,0.05341,0.913563,0.0,0.0,0.0
575,5750,-0.443532,0.05341,0.913563,0.0,0.0,0.0
576,5760,-0.443532,0.05341,0.913563,0.0,0.0,0.0
577,5770,-0.049488,-0.141491,1.627416,0.0,0.0,0.0
578,5780,-0.029358,-0.17737,1.627416,0.0,0.0,0.0
579,5790,0.070841,-0.180229,1.553517,0.0,0.0,0.0
580,5800,0.3176375,-0.006933999999999996,1.2602445,0.0,0.0,0.0
581,5810,0.434052,0.105398,1.117125,0.0,0.0,0.0
582,5820,0.490413,0.174312,1.05026,0.0,0.0,0.0
583,5830,0.5299155,0.2614145,1.0131495,0.0,0.0,0.0
584,5840,0.536284,0.282156,1.014373,0.0,0.0,0.0
585,5850,0.5275225,0.282156,1.0137615,0.0,0.0,0.0
586,5860,0.5136085,0.27737,0.950153,0.0,0.0,0.0
587,5870,0.508456,0.272584,0.887156,0.0,0.0,0.0
588,5880,0.336185,0.2617735,0.6408255,0.0,0.0,0.0
589,5890,0.241483,0.25607,0.565749,0.0,0.0,0.0
590,5900,-0.007446,0.246483,0.526498,0.0,0.0,0.0
591,5910,-0.007446,0.246483,0.526498,0.0,0.0,0.0
592,5920,-0.2391435,0.18608550000000001,0.6738,0.0,0.0,0.0
593,5930,-0.317125,0.162798,0.77156,0.0,0.0,0.0
594,5940,-0.3237,0.1556115,0.7748245,0.0,0.0,0.0
595,5950,-0.34408249999999996,0.1067815,0.6920489999999999,0.0,0.0,0.0
596,5960,-0.349128,0.098884,0.638226,0.0,0.0,0.0
597,5970,-0.349128,0.098884,0.638226,0.0,0.0,0.0
598,5980,-0.349128,0.098884,0.638226,0.0,0.0,0.0
599,5990,-0.349128,0.098884,0.638226,0.0,0.0,0.0
600,6000,-0.349128,0.098884,0.638226,0.0,0.0,0.0
601,6010,-0.349128,0.098884,0.638226,0.0,0.0,0.0
602,6020,-0.349128,0.098884,0.638226,0.0,0.0,0.0
603,6030,-0.349128,0.098884,0.638226,0.0,0.0,0.0
604,6040,-0.349128,0.098884,0.638226,0.0,0.0,0.0
605,6050,-0.349128,0.098884,0.638226,0.0,0.0,0.0
606,6060,-0.225382,0.080428,0.626506,0.0,0.0,0.0
607,6070,-0.101636,0.061972,0.614786,0.0,0.0,0.0
608,6080,-0.011009,0.099083,0.486651,0.0,0.0,0.0
609,6090,0.029862,0.061468,0.479618,0.0,0.0,0.0
610,6100,0.0998015,0.056422,0.5995870000000001,0.0,0.0,0.0
611,6110,0.133135,0.057385,0.672676,0.0,0.0,0.0
612,6120,0.207844,0.100665,1.1240595,0.0,0.0,0.0
613,6130,0.18567250000000002,0.1539755,1.1971479999999999,0.0,0.0,0.0
614,6140,0.165336,0.188884,1.204694,0.0,0.0,0.0
615,6150,0.011368499999999998,0.3187535,1.160191,0.0,0.0,0.0
616,6160,-0.071353,0.421766,1.089243,0.0,0.0,0.0
617,6170,-0.2105965,0.5641745,0.9856805,0.0,0.0,0.0
618,6180,-0.393471,0.752706,0.671254,0.0,0.0,0.0
619,6190,-0.39266049999999997,0.7366969999999999,0.6481655,0.0,0.0,0.0
620,6200,-0.256376,0.605505,0.614373,0.0,0.0,0.0
621,6210,-0.256376,0.605505,0.614373,0.0,0.0,0.0
622,6220,0.011368499999999997,0.46432,0.8114220000000001,0.0,0.0,0.0
623,6230,0.1257875,0.474977,1.0314525,0.0,0.0,0.0
624,6240,0.142401,0.507446,1.130994,0.0,0.0,0.0
625,6250,0.142401,0.507446,1.130994,0.0,0.0,0.0
626,6260,0.142401,0.507446,1.130994,0.0,0.0,0.0
627,6270,0.3640135,0.7497935,1.1431195,0.0,0.0,0.0
628,6280,0.383288,0.836697,0.879924,0.0,0.0,0.0
629,6290,0.383288,0.836697,0.879924,0.0,0.0,0.0
630,6300,0.4091285,0.907538,0.8831804999999999,0.0,0.0,0.0
631,6310,0.46830249999999995,0.9154895,1.0014295,0.0,0.0,0.0
632,6320,0.543838,0.880321,1.289908,0.0,0.0,0.0
633,6330,0.566055,0.8815445,1.5055580000000002,0.0,0.0,0.0
634,6340,0.588272,0.882768,1.721208,0.0,0.0,0.0
635,6350,0.6348625,0.9105045,2.0499545,0.0,0.0,0.0
636,6360,0.6679435,0.933234,2.2282415,0.0,0.0,0.0
637,6370,0.654641,0.9605505000000001,2.4687615000000003,0.0,0.0,0.0
638,6380,0.638028,0.984098,2.645979,0.0,0.0,0.0
639,6390,0.324878,1.091743,2.783792,0.0,0.0,0.0
640,6400,0.043425000000000005,1.1971479999999999,2.5042815,0.0,0.0,0.0
641,6410,-0.1549385,1.2681955,2.2743655,0.0,0.0,0.0
642,6420,-0.24607,1.304786,2.15974,0.0,0.0,0.0
643,6430,-0.29367750000000004,1.390673,1.744595,0.0,0.0,0.0
644,6440,-0.23945,1.395306,1.679404,0.0,0.0,0.0
645,6450,0.0496485,1.2862385,1.5847555,0.0,0.0,0.0
646,6460,0.374725,1.082982,1.601835,0.0,0.0,0.0
647,6470,0.374725,1.082982,1.601835,0.0,0.0,0.0
648,6480,0.374725,1.082982,1.601835,0.0,0.0,0.0
649,6490,0.374725,1.082982,1.601835,0.0,0.0,0.0
650,6500,0.374725,1.082982,1.601835,0.0,0.0,0.0
651,6510,0.374725,1.082982,1.601835,0.0,0.0,0.0
652,6520,0.374725,1.082982,1.601835,0.0,0.0,0.0
653,6530,0.374725,1.082982,1.601835,0.0,0.0,0.0
654,6540,0.374725,1.082982,1.601835,0.0,0.0,0.0
655,6550,0.374725,1.082982,1.601835,0.0,0.0,0.0
656,6560,0.374725,1.082982,1.601835,0.0,0.0,0.0
657,6570,0.374725,1.082982,1.601835,0.0,0.0,0.0
658,6580,0.269266,0.7538229999999999,1.2964835,0.0,0.0,0.0
659,6590,0.074725,0.335887,0.75026,0.0,0.0,0.0
660,6600,0.0677905,0.329052,0.7059635,0.0,0.0,0.0
661,6610,0.0581575,0.3165595,0.625176,0.0,0.0,0.0
662,6620,0.043532,0.301422,0.391544,0.0,0.0,0.0
663,6630,0.0360855,0.2968885,0.3512765,0.0,0.0,0.0
664,6640,0.028639,0.292355,0.311009,0.0,0.0,0.0
665,6650,0.017431,0.279205,0.269924,0.0,0.0,0.0
666,6660,0.066055,0.2152905,0.2054055,0.0,0.0,0.0
667,6670,0.155757,0.149136,0.237615,0.0,0.0,0.0
668,6680,0.26341,0.093991,0.304893,0.0,0.0,0.0
669,6690,0.26341,0.093991,0.304893,0.0,0.0,0.0
670,6700,0.2822095,0.0830275,0.3185015,0.0,0.0,0.0
671,6710,0.2591745,0.10474,0.24392950000000002,0.0,0.0,0.0
672,6720,0.251988,0.124266,0.190107,0.0,0.0,0.0
673,6730,0.2425535,0.216621,0.00020649999999999835,0.0,0.0,0.0
674,6740,0.241483,0.247508,-0.068196,0.0,0.0,0.0
675,6750,-0.092355,0.263807,-0.112125,0.0,0.0,0.0
676,6760,-0.120283,0.2344035,-0.029097500000000002,0.0,0.0,0.0
677,6770,0.0085625,0.23063450000000002,-0.04117699999999999,0.0,0.0,0.0
678,6780,-0.158517,0.133028,0.29633,0.0,0.0,0.0
679,6790,-0.128945,0.0422475,0.8015749999999999,0.0,0.0,0.0
680,6800,-0.156315,0.0185475,0.9882725,0.0,0.0,0.0
681,6810,-0.2523395,0.0349085,1.146789,0.0,0.0,0.0
682,6820,-0.572676,0.087355,1.691132,0.0,0.0,0.0
683,6830,-0.5870489999999999,0.084809,1.7273705000000001,0.0,0.0,0.0
684,6840,-0.5387310000000001,0.08251549999999999,1.762026,0.0,0.0,0.0
685,6850,-0.39107800000000004,0.0789985,1.65698,0.0,0.0,0.0
686,6860,-0.047706,-0.050459,1.342615,0.0,0.0,0.0
687,6870,-0.047706,-0.050459,1.342615,0.0,0.0,0.0
688,6880,0.2659555,-0.1248245,1.321659,0.0,0.0,0.0
689,6890,0.372477,-0.157294,1.314067,0.0,0.0,0.0
690,6900,0.511009,-0.10749249999999999,1.240879,0.0,0.0,0.0
691,6910,0.590015,0.051269,1.128853,0.0,0.0,0.0
692,6920,0.5229889999999999,0.1003055,1.0966360000000002,0.0,0.0,0.0
693,6930,0.38129199999999996,0.21707949999999998,0.9959709999999999,0.0,0.0,0.0
694,6940,0.306621,0.284817,0.927523,0.0,0.0,0.0
695,6950,0.13425099999999998,0.3590215,0.733081,0.0,0.0,0.0
696,6960,-0.08608550000000001,0.44958699999999996,0.49837149999999997,0.0,0.0,0.0
697,6970,-0.134052,0.465948,0.458104,0.0,0.0,0.0
698,6980,-0.13822600000000002,0.4704355,0.4956195,0.0,0.0,0.0
699,6990,-0.097966,0.447599,0.538945,0.0,0.0,0.0
700,7000,-0.064786,0.4075915,0.6010705000000001,0.0,0.0,0.0
701,7010,-0.031606,0.367584,0.663196,0.0,0.0,0.0
702,7020,-0.031606,0.367584,0.663196,0.0,0.0,0.0
703,7030,-0.031606,0.367584,0.663196,0.0,0.0,0.0
704,7040,-0.031606,0.367584,0.663196,0.0,0.0,0.0
705,7050,-0.031606,0.367584,0.663196,0.0,0.0,0.0
706,7060,-0.031606,0.367584,0.663196,0.0,0.0,0.0
707,7070,-0.031606,0.367584,0.663196,0.0,0.0,0.0
708,7080,-0.031606,0.367584,0.663196,0.0,0.0,0.0
709,7090,-0.031606,0.367584,0.663196,0.0,0.0,0.0
710,7100,-0.031606,0.367584,0.663196,0.0,0.0,0.0
711,7110,0.139648,-0.191024,0.636284,0.0,0.0,0.0
712,7120,0.139648,-0.191024,0.636284,0.0,0.0,0.0
713,7130,0.2204355,-0.2000455,0.658509,0.0,0.0,0.0
714,7140,0.301223,-0.209067,0.680734,0.0,0.0,0.0
715,7150,0.23123849999999999,-0.1717125,0.729304,0.0,0.0,0.0
716,7160,0.09683449999999999,-0.09637599999999999,0.747347,0.0,0.0,0.0
717,7170,0.052492,-0.056468,0.750046,0.0,0.0,0.0
718,7180,0.052492,-0.056468,0.750046,0.0,0.0,0.0
719,7190,-0.129465,0.152294,0.668303,0.0,0.0,0.0
720,7200,-0.0900155,0.151835,0.610352,0.0,0.0,0.0
721,7210,-0.050566,0.151376,0.552401,0.0,0.0,0.0
722,7220,0.14327199999999998,0.07105500000000001,0.6101380000000001,0.0,0.0,0.0
723,7230,0.3222705,0.016514,0.7319575,0.0,0.0,0.0
724,7240,0.35474,0.010291,0.789098,0.0,0.0,0.0
725,7250,0.362492,0.001422,0.916514,0.0,0.0,0.0
726,7260,0.362492,0.001422,0.916514,0.0,0.0,0.0
727,7270,0.362492,0.001422,0.916514,0.0,0.0,0.0
728,7280,0.1840975,0.151529,1.0749235000000001,0.0,0.0,0.0
729,7290,-0.043532,0.388792,1.120795,0.0,0.0,0.0
730,7300,-0.1007645,0.4931725,0.9033180000000001,0.0,0.0,0.0
731,7310,-0.118448,0.5268575,0.775948,0.0,0.0,0.0
732,7320,-0.114067,0.526498,0.74445,0.0,0.0,0.0
733,7330,-0.0770645,0.4972015,0.705963,0.0,0.0,0.0
734,7340,-0.071361,0.483287,0.701223,0.0,0.0,0.0
735,7350,-0.008050499999999999,0.573593,0.7471479999999999,0.0,0.0,0.0
736,7360,0.164526,0.655352,0.852798,0.0,0.0,0.0
737,7370,0.164526,0.655352,0.852798,0.0,0.0,0.0
738,7380,0.3115215,0.702194,1.0328745,0.0,0.0,0.0
739,7390,0.336193,0.733639,1.103165,0.0,0.0,0.0
740,7400,0.304182,0.8636085,0.9845565000000001,0.0,0.0,0.0
741,7410,0.278089,1.105612,0.769526,0.0,0.0,0.0
742,7420,0.278089,1.105612,0.769526,0.0,0.0,0.0
743,7430,0.502599,1.1766595,0.962592,0.0,0.0,0.0
744,7440,0.54607,1.174924,1.070948,0.0,0.0,0.0
745,7450,0.586804,1.1588150000000002,1.3821634999999999,0.0,0.0,0.0
746,7460,0.5752295000000001,1.1443885,1.670283,0.0,0.0,0.0
747,7470,0.561667,1.13659,1.863196,0.0,0.0,0.0
748,7480,0.553517,1.1536695,1.9631500000000002,0.0,0.0,0.0
749,7490,0.456827,1.216208,2.410191,0.0,0.0,0.0
750,7500,0.3,1.418547,2.588074,0.0,0.0,0.0
751,7510,0.2524465,1.460038,2.5346565,0.0,0.0,0.0
752,7520,0.204893,1.501529,2.481239,0.0,0.0,0.0
753,7530,0.204893,1.501529,2.481239,0.0,0.0,0.0
754,7540,0.204893,1.501529,2.481239,0.0,0.0,0.0
755,7550,0.204893,1.501529,2.481239,0.0,0.0,0.0
756,7560,0.204893,1.501529,2.481239,0.0,0.0,0.0
757,7570,0.204893,1.501529,2.481239,0.0,0.0,0.0
758,7580,0.204893,1.501529,2.481239,0.0,0.0,0.0
759,7590,0.204893,1.501529,2.481239,0.0,0.0,0.0
760,7600,0.204893,1.501529,2.481239,0.0,0.0,0.0
761,7610,0.204893,1.501529,2.481239,0.0,0.0,0.0
762,7620,0.204893,1.501529,2.481239,0.0,0.0,0.0
763,7630,0.5735475,1.2853745,2.3801685,0.0,0.0,0.0
764,7640,0.096743,0.879817,1.782982,0.0,0.0,0.0
765,7650,0.059633,0.844755,1.702339,0.0,0.0,0.0
766,7660,0.048677,0.737309,1.4008639999999999,0.0,0.0,0.0
767,7670,0.047706,0.667997,1.227722,0.0,0.0,0.0
768,7680,0.058922,0.617844,1.0010705,0.0,0.0,0.0
769,7690,0.070138,0.567691,0.774419,0.0,0.0,0.0
770,7700,0.076506,0.44897549999999997,0.4713075,0.0,0.0,0.0
771,7710,0.058815000000000006,0.3618735,0.3146255,0.0,0.0,0.0
772,7720,0.042095,0.326606,0.278792,0.0,0.0,0.0
773,7730,0.03445,0.290413,0.267477,0.0,0.0,0.0
774,7740,0.041789,0.274817,0.264832,0.0,0.0,0.0
775,7750,0.1112155,0.1815515,0.3282875,0.0,0.0,0.0
776,7760,0.146483,0.149342,0.352905,0.0,0.0,0.0
777,7770,0.146483,0.149342,0.352905,0.0,0.0,0.0
778,7780,0.093073,0.055657,0.08104,0.0,0.0,0.0
779,7790,0.093073,0.055657,0.08104,0.0,0.0,0.0
780,7800,0.11320350000000001,-0.016567000000000002,0.144136,0.0,0.0,0.0
781,7810,0.134557,-0.079006,0.212844,0.0,0.0,0.0
782,7820,0.134557,-0.079006,0.212844,0.0,0.0,0.0
783,7830,0.05147550000000001,-0.11448,0.38858550000000003,0.0,0.0,0.0
784,7840,-0.1204435,-0.101636,0.6463300000000001,0.0,0.0,0.0
785,7850,-0.252187,-0.039648,0.728333,0.0,0.0,0.0
786,7860,-0.162584,0.001024,0.491131,0.0,0.0,0.0
787,7870,-0.162584,0.001024,0.491131,0.0,0.0,0.0
788,7880,0.10856249999999999,-0.07018350000000001,0.328547,0.0,0.0,0.0
789,7890,0.207752,-0.103165,0.313868,0.0,0.0,0.0
790,7900,0.3125915,-0.216613,0.5232950000000001,0.0,0.0,0.0
791,7910,0.24434250000000002,-0.258968,0.7605505,0.0,0.0,0.0
792,7920,0.180627,-0.264725,0.844037,0.0,0.0,0.0
793,7930,0.114373,-0.2614145,0.907745,0.0,0.0,0.0
794,7940,-0.047905,-0.162492,1.065642,0.0,0.0,0.0
795,7950,-0.044954,0.102554,0.961881,0.0,0.0,0.0
796,7960,-0.044954,0.102554,0.961881,0.0,0.0,0.0
797,7970,-0.031606,0.145459,0.865245,0.0,0.0,0.0
798,7980,-0.032523,0.229862,0.660963,0.0,0.0,0.0
799,7990,-0.032523,0.229862,0.660963,0.0,0.0,0.0
800,8000,0.020641999999999997,0.31009149999999996,0.5913915,0.0,0.0,0.0
801,8010,0.142966,0.42262999999999995,0.491797,0.0,0.0,0.0
802,8020,0.212125,0.454939,0.461774,0.0,0.0,0.0
803,8030,0.4944495,0.5099385,0.4411775,0.0,0.0,0.0
804,8040,0.588792,0.540367,0.44642950000000003,0.0,0.0,0.0
805,8050,0.611728,0.558716,0.45107,0.0,0.0,0.0
806,8060,0.611728,0.558716,0.45107,0.0,0.0,0.0
807,8070,0.611728,0.558716,0.45107,0.0,0.0,0.0
808,8080,0.611728,0.558716,0.45107,0.0,0.0,0.0
809,8090,0.611728,0.558716,0.45107,0.0,0.0,0.0
810,8100,0.611728,0.558716,0.45107,0.0,0.0,0.0
811,8110,0.611728,0.558716,0.45107,0.0,0.0,0.0
812,8120,0.611728,0.558716,0.45107,0.0,0.0,0.0
813,8130,0.611728,0.558716,0.45107,0.0,0.0,0.0
814,8140,0.611728,0.558716,0.45107,0.0,0.0,0.0
815,8150,0.28481650000000003,0.4704895,0.5422015,0.0,0.0,0.0
816,8160,-0.049648,0.346376,0.666774,0.0,0.0,0.0
817,8170,-0.049648,0.346376,0.666774,0.0,0.0,0.0
818,8180,-0.0444955,0.337202,0.7223245,0.0,0.0,0.0
819,8190,-0.039343,0.328028,0.777875,0.0,0.0,0.0
820,8200,-0.129159,0.298119,0.7766515,0.0,0.0,0.0
821,8210,-0.1808865,0.2816515,0.73578,0.0,0.0,0.0
822,8220,-0.183073,0.274817,0.703471,0.0,0.0,0.0
823,8230,-0.1263535,0.20785199999999998,0.645818,0.0,0.0,0.0
824,8240,-0.066667,0.156988,0.623135,0.0,0.0,0.0
825,8250,0.133127,0.098012,0.6432185,0.0,0.0,0.0
826,8260,0.204893,0.080321,0.662385,0.0,0.0,0.0
827,8270,0.204893,0.080321,0.662385,0.0,0.0,0.0
828,8280,0.204893,0.080321,0.662385,0.0,0.0,0.0
829,8290,0.264113,0.009067,0.891636,0.0,0.0,0.0
830,8300,-0.106682,0.2318575,0.9282874999999999,0.0,0.0,0.0
831,8310,-0.405703,0.485428,0.953318,0.0,0.0,0.0
832,8320,-0.405703,0.485428,0.953318,0.0,0.0,0.0
833,8330,-0.405703,0.485428,0.953318,0.0,0.0,0.0
834,8340,-0.361567,0.52146,0.582569,0.0,0.0,0.0
835,8350,-0.320076,0.484709,0.526193,0.0,0.0,0.0
836,8360,-0.145061,0.286544,0.453211,0.0,0.0,0.0
837,8370,-0.102141,0.250657,0.529862,0.0,0.0,0.0
838,8380,-0.064633,0.226254,0.7407794999999999,0.0,0.0,0.0
839,8390,-0.062798,0.224572,0.805917,0.0,0.0,0.0
840,8400,-0.0392435,0.29643699999999995,0.892355,0.0,0.0,0.0
841,8410,-0.019725,0.334151,0.8801760000000001,0.0,0.0,0.0
842,8420,-0.016208,0.339755,0.851376,0.0,0.0,0.0
843,8430,-0.020596,0.348012,0.813456,0.0,0.0,0.0
844,8440,0.0062155000000000005,0.3657495,0.76198,0.0,0.0,0.0
845,8450,0.0583025,0.39245450000000004,0.7302755,0.0,0.0,0.0
846,8460,0.091636,0.414878,0.705398,0.0,0.0,0.0
847,8470,0.127018,0.45393,0.666361,0.0,0.0,0.0
848,8480,0.235581,0.539648,0.608976,0.0,0.0,0.0
849,8490,0.25280600000000003,0.559885,0.605199,0.0,0.0,0.0
850,8500,0.273089,0.6078515,0.6161544999999999,0.0,0.0,0.0
851,8510,0.23465599999999998,0.68828,0.668601,0.0,0.0,0.0
852,8520,0.15581050000000002,0.784557,0.709526,0.0,0.0,0.0
853,8530,0.085734,0.902859,0.716315,0.0,0.0,0.0
854,8540,0.085734,0.902859,0.716315,0.0,0.0,0.0
855,8550,0.269679,0.8990290000000001,0.9157495,0.0,0.0,0.0
856,8560,0.524771,0.781957,1.586437,0.0,0.0,0.0
857,8570,0.524771,0.781957,1.586437,0.0,0.0,0.0
858,8580,0.524771,0.781957,1.586437,0.0,0.0,0.0
859,8590,0.524771,0.781957,1.586437,0.0,0.0,0.0
860,8600,0.524771,0.781957,1.586437,0.0,0.0,0.0
861,8610,0.524771,0.781957,1.586437,0.0,0.0,0.0
862,8620,0.524771,0.781957,1.586437,0.0,0.0,0.0
863,8630,0.524771,0.781957,1.586437,0.0,0.0,0.0
864,8640,0.524771,0.781957,1.586437,0.0,0.0,0.0
865,8650,0.524771,0.781957,1.586437,0.0,0.0,0.0
866,8660,0.524771,0.781957,1.586437,0.0,0.0,0.0
867,8670,0.524771,0.781957,1.586437,0.0,0.0,0.0
868,8680,0.524771,0.781957,1.586437,0.0,0.0,0.0
869,8690,0.63711,1.357492,2.412339,0.0,0.0,0.0
870,8700,0.551277,1.3466360000000002,2.36198,0.0,0.0,0.0
871,8710,0.530887,1.343318,2.342309,0.0,0.0,0.0
872,8720,0.47604,1.293272,2.202951,0.0,0.0,0.0
873,8730,0.43496199999999996,1.191896,2.1482185,0.0,0.0,0.0
874,8740,0.403976,1.155658,2.129052,0.0,0.0,0.0
875,8750,0.320642,1.003517,2.020642,0.0,0.0,0.0
876,8760,0.227018,0.822523,1.874924,0.0,0.0,0.0
877,8770,0.227018,0.822523,1.874924,0.0,0.0,0.0
878,8780,0.19776,0.7847095,1.7596335,0.0,0.0,0.0
879,8790,0.1705355,0.7462305,1.634052,0.0,0.0,0.0
880,8800,0.197752,0.604587,1.199893,0.0,0.0,0.0
881,8810,0.2290975,0.5721175000000001,1.1398545000000002,0.0,0.0,0.0
882,8820,0.260443,0.539648,1.079816,0.0,0.0,0.0
883,8830,0.297554,0.456682,0.99919,0.0,0.0,0.0
884,8840,0.33568050000000005,0.29041300000000003,0.9196789999999999,0.0,0.0,0.0
885,8850,0.334457,0.1931655,0.9267585,0.0,0.0,0.0
886,8860,0.333746,0.139343,0.949434,0.0,0.0,0.0
887,8870,0.3313,0.064939,1.020489,0.0,0.0,0.0
888,8880,0.1620335,-0.042714,1.0590215,0.0,0.0,0.0
889,8890,0.029159,-0.07289,1.061468,0.0,0.0,0.0
890,8900,-0.167385,-0.0450535,1.0636545000000002,0.0,0.0,0.0
891,8910,-0.22155950000000002,0.0095795,0.9306270000000001,0.0,0.0,0.0
892,8920,-0.225581,0.046376,0.797141,0.0,0.0,0.0
893,8930,-0.1762995,0.031598,0.6016285,0.0,0.0,0.0
894,8940,-0.127018,0.01682,0.406116,0.0,0.0,0.0
895,8950,-0.051269,-0.027217,0.301422,0.0,0.0,0.0
896,8960,0.08562700000000001,-0.126193,0.273242,0.0,0.0,0.0
897,8970,0.154541,-0.161667,0.277982,0.0,0.0,0.0
898,8980,0.235321,-0.19209500000000002,0.3107035,0.0,0.0,0.0
899,8990,0.316101,-0.222523,0.343425,0.0,0.0,0.0
900,9000,0.441231,-0.235321,0.5372095,0.0,0.0,0.0
901,9010,0.429664,-0.218853,0.592156,0.0,0.0,0.0
902,9020,0.391544,-0.182982,0.564327,0.0,0.0,0.0
903,9030,0.28052750000000004,-0.1630505,0.3413375,0.0,0.0,0.0
904,9040,0.1749775,-0.151124,0.2264065,0.0,0.0,0.0
905,9050,0.133135,-0.147095,0.187263,0.0,0.0,0.0
906,9060,0.0464295,-0.065092,0.19990049999999998,0.0,0.0,0.0
907,9070,0.020237,-0.043578,0.265191,0.0,0.0,0.0
908,9080,0.002554,-0.029862,0.3,0.0,0.0,0.0
909,9090,-0.0263,0.0008179999999999993,0.396888,0.0,0.0,0.0
910,9100,-0.0213,0.017844,0.40081,0.0,0.0,0.0
911,9110,-0.0213,0.017844,0.40081,0.0,0.0,0.0
912,9120,-0.0213,0.017844,0.40081,0.0,0.0,0.0
913,9130,-0.0213,0.017844,0.40081,0.0,0.0,0.0
914,9140,-0.0213,0.017844,0.40081,0.0,0.0,0.0
915,9150,-0.0213,0.017844,0.40081,0.0,0.0,0.0
916,9160,-0.0213,0.017844,0.40081,0.0,0.0,0.0
917,9170,-0.0213,0.017844,0.40081,0.0,0.0,0.0
918,9180,-0.0213,0.017844,0.40081,0.0,0.0,0.0
919,9190,-0.0213,0.017844,0.40081,0.0,0.0,0.0
920,9200,-0.0213,0.017844,0.40081,0.0,0.0,0.0
921,9210,0.291231,0.5507645,0.3644265,0.0,0.0,0.0
922,9220,0.3034635,0.5282875,0.393578,0.0,0.0,0.0
923,9230,0.28104,0.503976,0.42711,0.0,0.0,0.0
924,9240,0.0712,0.436032,0.5035164999999999,0.0,0.0,0.0
925,9250,-0.068601,0.41233200000000003,0.581858,0.0,0.0,0.0
926,9260,-0.211422,0.370948,0.63578,0.0,0.0,0.0
927,9270,-0.211422,0.370948,0.63578,0.0,0.0,0.0
928,9280,-0.211422,0.370948,0.63578,0.0,0.0,0.0
929,9290,-0.211422,0.370948,0.63578,0.0,0.0,0.0
930,9300,-0.0035169999999999993,0.279969,0.37956449999999997,0.0,0.0,0.0
931,9310,0.09918199999999999,0.173188,0.285734,0.0,0.0,0.0
932,9320,0.104786,0.139144,0.285122,0.0,0.0,0.0
933,9330,0.057905,0.078394,0.357798,0.0,0.0,0.0
934,9340,0.057905,0.078394,0.357798,0.0,0.0,0.0
935,9350,0.015902,0.0619725,0.44032150000000003,0.0,0.0,0.0
936,9360,-0.0238535,0.0589145,0.505,0.0,0.0,0.0
937,9370,-0.029358,0.063196,0.522125,0.0,0.0,0.0
938,9380,0.090367,0.054946499999999995,0.5278285,0.0,0.0,0.0
939,9390,0.164832,0.037615,0.530168,0.0,0.0,0.0
940,9400,0.166774,0.03292,0.570138,0.0,0.0,0.0
941,9410,0.054029,-0.0034175,0.8146789999999999,0.0,0.0,0.0
942,9420,-0.086491,0.0711005,0.925994,0.0,0.0,0.0
943,9430,-0.1934785,0.180122,0.9966820000000001,0.0,0.0,0.0
944,9440,-0.212645,0.217431,1.012431,0.0,0.0,0.0
945,9450,-0.24964050000000002,0.29408999999999996,0.9509175000000001,0.0,0.0,0.0
946,9460,-0.251682,0.311422,0.891636,0.0,0.0,0.0
947,9470,-0.0777215,0.317584,0.6815979999999999,0.0,0.0,0.0
948,9480,0.09867,0.300413,0.569419,0.0,0.0,0.0
949,9490,0.0894955,0.29898349999999996,0.6180965,0.0,0.0,0.0
950,9500,0.043731,0.314526,0.7147325,0.0,0.0,0.0
951,9510,0.007141,0.331498,0.762691,0.0,0.0,0.0
952,9520,-0.085015,0.368502,0.865948,0.0,0.0,0.0
953,9530,-0.2107035,0.448119,1.0147325,0.0,0.0,0.0
954,9540,-0.240474,0.486957,1.043425,0.0,0.0,0.0
955,9550,-0.15957949999999999,0.5458715000000001,0.9163604999999999,0.0,0.0,0.0
956,9560,-0.07512250000000001,0.579564,0.699029,0.0,0.0,0.0
957,9570,-0.069618,0.586544,0.611927,0.0,0.0,0.0
958,9580,-0.069618,0.586544,0.611927,0.0,0.0,0.0
959,9590,-0.314174,0.780535,0.78104,0.0,0.0,0.0
960,9600,-0.383486,0.85841,1.071758,0.0,0.0,0.0
961,9610,-0.383486,0.85841,1.071758,0.0,0.0,0.0
962,9620,-0.248318,0.848823,1.075841,0.0,0.0,0.0
963,9630,-0.248318,0.848823,1.075841,0.0,0.0,0.0
964,9640,-0.248318,0.848823,1.075841,0.0,0.0,0.0
965,9650,-0.248318,0.848823,1.075841,0.0,0.0,0.0
966,9660,-0.248318,0.848823,1.075841,0.0,0.0,0.0
967,9670,-0.248318,0.848823,1.075841,0.0,0.0,0.0
968,9680,-0.248318,0.848823,1.075841,0.0,0.0,0.0
969,9690,-0.248318,0.848823,1.075841,0.0,0.0,0.0
970,9700,-0.248318,0.848823,1.075841,0.0,0.0,0.0
971,9710,-0.248318,0.848823,1.075841,0.0,0.0,0.0
972,9720,-0.248318,0.848823,1.075841,0.0,0.0,0.0
973,9730,-0.035627000000000006,0.976858,1.72263,0.0,0.0,0.0
974,9740,0.177064,1.104893,2.369419,0.0,0.0,0.0
975,9750,0.248884,1.3098855,2.2564219999999997,0.0,0.0,0.0
976,9760,0.346743,1.3475995,2.1897555,0.0,0.0,0.0
977,9770,0.404694,1.353104,2.167783,0.0,0.0,0.0
978,9780,0.404694,1.353104,2.167783,0.0,0.0,0.0
979,9790,0.404694,1.353104,2.167783,0.0,0.0,0.0
980,9800,0.5760475,1.3259940000000001,2.277263,0.0,0.0,0.0
981,9810,0.769014,1.268861,2.444954,0.0,0.0,0.0
982,9820,0.790627,1.238838,2.503165,0.0,0.0,0.0
983,9830,0.7399615,1.159434,2.5544345,0.0,0.0,0.0
984,9840,0.659885,1.0920489999999998,2.4241055,0.0,0.0,0.0
985,9850,0.601682,1.0301684999999998,2.2154435,0.0,0.0,0.0
986,9860,0.366667,0.920382,1.643532,0.0,0.0,0.0
987,9870,0.31906,0.9031575000000001,1.5509175,0.0,0.0,0.0
988,9880,0.2315445,0.880069,1.3693654999999998,0.0,0.0,0.0
989,9890,0.191636,0.874205,1.280428,0.0,0.0,0.0
990,9900,0.1056575,0.8108029999999999,0.9289449999999999,0.0,0.0,0.0
991,9910,0.060856,0.764419,0.80448,0.0,0.0,0.0
992,9920,0.02711,0.692661,0.737309,0.0,0.0,0.0
993,9930,0.00045849999999999884,0.593066,0.7168194999999999,0.0,0.0,0.0
994,9940,-0.026193,0.493471,0.69633,0.0,0.0,0.0
995,9950,-0.0561695,0.368448,0.7252825,0.0,0.0,0.0
996,9960,-0.080122,0.3286465,0.7076985,0.0,0.0,0.0
997,9970,-0.096024,0.307752,0.690214,0.0,0.0,0.0
998,9980,-0.0979125,0.2394495,0.6647325,0.0,0.0,0.0
999,9990,-0.089602,0.213349,0.680734,0.0,0.0,0.0
