id,timestamp,acc_x,acc_y,acc_z,gyro_x,gyro_y,gyro_z
0,9.54e-07,0.02783616,0.41070545,0.890268765,0.0,0.0,0.0
1,0.010000954,0.15187799000000002,0.3563761125,0.9215234,0.0,0.0,0.0
2,0.020000954,0.188992875,0.3428243,0.9605916999999999,0.0,0.0,0.0
3,0.030000954,0.20071337,0.3428243,0.99966,0.0,0.0,0.0
4,0.040000954,0.20071337,0.3428243,0.99966,0.0,0.0,0.0
5,0.050000954,0.2753704175,0.3874476125,0.8917338125,0.0,0.0,0.0
6,0.060000954,0.2749431,0.4165657,0.86145589375,0.0,0.0,0.0
7,0.070000954,0.31535438125,0.3844564425,0.86975791625,0.0,0.0,0.0
8,0.080000954,0.46588942,0.28812867,0.89026874,0.0,0.0,0.0
9,0.090000954,0.46588942,0.28812867,0.89026874,0.0,0.0,0.0
10,0.100000954,0.5040895266666667,0.25166493444444443,0.8898346655555556,0.0,0.0,0.0
11,0.110000954,0.60653526,0.19436477,0.87073463,0.0,0.0,0.0
12,0.120000954,0.66123088875,0.1875278175,0.87073463,0.0,0.0,0.0
13,0.130000954,0.6338831174999999,0.22171258,0.8912454875,0.0,0.0,0.0
14,0.140000954,0.62216264,0.23343307,0.89808244,0.0,0.0,0.0
15,0.150000954,0.59286137,0.274454775,0.9117563399999999,0.0,0.0,0.0
16,0.160000954,0.575768975,0.39574961750000004,0.96938207125,0.0,0.0,0.0
17,0.170000954,0.547932835,0.3942235125,1.0074736524999999,0.0,0.0,0.0
18,0.180000954,0.47174965,0.251013795,1.0309146625,0.0,0.0,0.0
19,0.190000954,0.520585,0.26078087,1.0113806,0.0,0.0,0.0
20,0.200000954,0.5337705625,0.2358748325,0.999660065,0.0,0.0,0.0
21,0.210000954,0.5557465,0.19436477,0.9581499087500001,0.0,0.0,0.0
22,0.220000954,0.481638825,0.14845952275,0.9254302125,0.0,0.0,0.0
23,0.230000954,0.23587483,-0.024417683,0.8472936,0.0,0.0,0.0
24,0.240000954,0.23587483,-0.024417683,0.8472936,0.0,0.0,0.0
25,0.250000954,0.26594346571428573,-0.034394051142857145,0.8327825285714285,0.0,0.0,0.0
26,0.260000954,0.51661717,-0.07819763275000001,0.7272197,0.0,0.0,0.0
27,0.270000954,0.6225899250000001,-0.057686784,0.6558589875,0.0,0.0,0.0
28,0.280000954,0.8485145000000001,-0.0534747315,0.507887825,0.0,0.0,0.0
29,0.290000954,1.129562,-0.036138173,0.35161465,0.0,0.0,0.0
30,0.300000954,1.124190125,-0.048285971375,0.309677277875,0.0,0.0,0.0
31,0.310000954,0.9791491999999999,-0.24466520000000003,-0.1418667385,0.0,0.0,0.0
32,0.320000954,0.6975522575,-0.45502356,-0.35790219375,0.0,0.0,0.0
33,0.330000954,-0.52156174,-1.1481196,-0.7642735,0.0,0.0,0.0
34,0.340000954,-0.52156174,-1.1481196,-0.7642735,0.0,0.0,0.0
35,0.350000954,-0.52156174,-1.1481196,-0.7642735,0.0,0.0,0.0
36,0.360000954,-0.9582720425,-1.3869855125,-0.70811284125,0.0,0.0,0.0
37,0.370000954,-0.59725658,-1.5344072999999998,-0.86560692,0.0,0.0,0.0
38,0.380000954,-0.23245636,-1.6086371,-1.0060086,0.0,0.0,0.0
39,0.390000954,0.4572211425,-1.5778707875,-1.09830745,0.0,0.0,0.0
40,0.400000954,0.5557465,-1.5734756,-1.111493,0.0,0.0,0.0
41,0.410000954,0.705915195,-1.39052615,-0.8640808,0.0,0.0,0.0
42,0.420000954,2.0071335,-1.0387284,-0.42260906375,0.0,0.0,0.0
43,0.430000954,2.0071335,-1.0387284,-0.13966917,0.0,0.0,0.0
44,0.440000954,2.373032625,-0.7988245725,0.18777199500000002,0.0,0.0,0.0
45,0.450000954,2.494999,-0.71885663,0.29691905,0.0,0.0,0.0
46,0.460000954,3.4732325,-0.1456514925,0.95314433125,0.0,0.0,0.0
47,0.470000954,5.32989215,0.8968615200000001,2.75358225,0.0,0.0,0.0
48,0.480000954,4.91821,0.67050964,2.1936848,0.0,0.0,0.0
49,0.490000954,4.91821,0.67050964,2.1936848,0.0,0.0,0.0
50,0.500000954,4.91821,0.67050964,2.1936848,0.0,0.0,0.0
51,0.510000954,5.85841295,1.18108343,4.19776625,0.0,0.0,0.0
52,0.520000954,5.66136225,1.07523278125,4.667012975,0.0,0.0,0.0
53,0.530000954,5.495444075,0.99331143125,5.055437125,0.0,0.0,0.0
54,0.540000954,5.296928299999999,0.680032553,4.5155623,0.0,0.0,0.0
55,0.550000954,4.5006676,0.053718906,3.8365066,0.0,0.0,0.0
56,0.560000954,4.1232312625,-0.45117779625,3.0448242625,0.0,0.0,0.0
57,0.570000954,3.4941707,-1.2926723,1.7253537,0.0,0.0,0.0
58,0.580000954,2.7736047,-2.001578625,0.776055075,0.0,0.0,0.0
59,0.590000954,2.5223467,-2.2444735,0.4375649,0.0,0.0,0.0
60,0.600000954,2.5223467,-2.2444735,0.4375649,0.0,0.0,0.0
61,0.610000954,1.9117825375,-2.7123774375,0.39654318875,0.0,0.0,0.0
62,0.620000954,-0.7509048624999999,-3.6988518750000003,0.048285970124999994,0.0,0.0,0.0
63,0.630000954,-1.6081487,-3.74909115,0.0317429895,0.0,0.0,0.0
64,0.640000954,-2.199545,-3.7432308,0.3742010215,0.0,0.0,0.0
65,0.650000954,-2.199545,-3.7432308,0.48054004,0.0,0.0,0.0
66,0.660000954,-2.567972957142857,-3.7130924857142857,0.9003149285714286,0.0,0.0,0.0
67,0.670000954,-3.8232599875,-3.6187009,2.0411963125,0.0,0.0,0.0
68,0.680000954,-3.8693484,-3.598678375,2.8806762249999998,0.0,0.0,0.0
69,0.690000954,-3.8926673,-3.5908647,3.1928563,0.0,0.0,0.0
70,0.700000954,-3.8926673,-3.5908647,3.1928563,0.0,0.0,0.0
71,0.710000954,-3.23424435,-3.696227,2.4142984825,0.0,0.0,0.0
72,0.720000954,-1.0675411,-3.9654322,0.65634733,0.0,0.0,0.0
73,0.730000954,-1.0675411,-3.9654322,0.65634733,0.0,0.0,0.0
74,0.740000954,-0.11164985512499999,-3.764169425,-0.22818324875,0.0,0.0,0.0
75,0.750000954,0.024906037,-3.7354176,-0.35454476,0.0,0.0,0.0
76,0.760000954,0.024906037,-3.7354176,-0.35454476,0.0,0.0,0.0
77,0.770000954,3.1562299171249997,-2.7756803249999997,-0.8190302325000001,0.0,0.0,0.0
78,0.780000954,5.3591933,-1.9597633,-0.16701695,0.0,0.0,0.0
79,0.790000954,6.545526525,-0.9408133675000001,2.0728173500000002,0.0,0.0,0.0
80,0.800000954,7.017643,-1.1481196,1.7571576750000002,0.0,0.0,0.0
81,0.810000954,7.017643,-1.1481196,1.0387284,0.0,0.0,0.0
82,0.820000954,7.69749175,0.8734816249999999,5.361391125,0.0,0.0,0.0
83,0.830000954,7.61489875,1.3769132499999999,5.840466,0.0,0.0,0.0
84,0.840000954,7.4351845,1.5915447,5.670763,0.0,0.0,0.0
85,0.850000954,7.4351845,1.5915447,5.670763,0.0,0.0,0.0
86,0.860000954,7.3322639375000005,1.57835915,5.440015875,0.0,0.0,0.0
87,0.870000954,5.6832769999999995,0.6596437562499999,2.7731774875,0.0,0.0,0.0
88,0.880000954,4.9682662375,0.05426831874999999,2.0142148125,0.0,0.0,0.0
89,0.890000954,3.5670748428571426,-1.1100977,0.7655292857142858,0.0,0.0,0.0
90,0.900000954,3.2441335,-1.3742273,0.58993125,0.0,0.0,0.0
91,0.910000954,3.2441335,-1.3742273,0.58993125,0.0,0.0,0.0
92,0.920000954,1.084267267375,-2.4732062,-0.20907642750000002,0.0,0.0,0.0
93,0.930000954,-0.018069087,-3.017049,-0.69785744,0.0,0.0,0.0
94,0.940000954,-0.018069087,-3.017049,-0.923476855,0.0,0.0,0.0
95,0.950000954,-1.36995414675,-3.4415505,-0.86487435,0.0,0.0,0.0
96,0.960000954,-1.8205825,-3.583051,-0.8345964,0.0,0.0,0.0
97,0.970000954,-2.2843790714285714,-3.6009108285714286,-0.5044693257142857,0.0,0.0,0.0
98,0.980000954,-2.6322265,-3.6143057000000005,-0.25687402,0.0,0.0,0.0
99,0.990000954,-3.3413159285714285,-3.4037555,1.5493369399999999,0.0,0.0,0.0
100,1.000000954,-3.4594975,-3.3686638,1.8503721,0.0,0.0,0.0
101,1.010000954,-3.4594975,-3.3686638,1.8503721,0.0,0.0,0.0
102,1.020000954,-3.247918225,-3.268185025,1.93424685,0.0,0.0,0.0
103,1.030000954,-3.4002844750000003,-2.9667487,2.894228025,0.0,0.0,0.0
104,1.040000954,-2.6131804,-2.9667487,1.0895171,0.0,0.0,0.0
105,1.050000954,-1.7077729,-2.9276803,0.12160007,0.0,0.0,0.0
106,1.060000954,-1.7077729,-2.9276803,0.12160007,0.0,0.0,0.0
107,1.070000954,-1.7077729,-2.9276803,0.12160007,0.0,0.0,0.0
108,1.080000954,1.2283316312500001,-2.20296345,-0.8307506875,0.0,0.0,0.0
109,1.090000954,3.412127125,-1.550889175,-0.6121513525,0.0,0.0,0.0
110,1.100000954,6.055829624999999,-0.7004212400000001,0.5363344175,0.0,0.0,0.0
111,1.110000954,6.963435,-0.28178006,1.4523638,0.0,0.0,0.0
112,1.120000954,6.963435,-0.28178006,1.4523638,0.0,0.0,0.0
113,1.130000954,7.336048999999999,0.05567232,3.04049005,0.0,0.0,0.0
114,1.140000954,7.4817617499999995,0.7473032374999999,5.1130021875,0.0,0.0,0.0
115,1.150000954,7.103593,1.3376008,5.718499749999999,0.0,0.0,0.0
116,1.160000954,7.103593,1.3376008,5.651229,0.0,0.0,0.0
117,1.170000954,6.9777808125,1.237610375,5.562898,0.0,0.0,0.0
118,1.180000954,6.0180433125,0.46790386824999997,4.811443575,0.0,0.0,0.0
119,1.190000954,5.464678,-0.020510854,3.8794816,0.0,0.0,0.0
120,1.200000954,4.06383525,-0.9432551,2.08258435,0.0,0.0,0.0
121,1.210000954,4.5319223,-0.64072,2.685457,0.0,0.0,0.0
122,1.220000954,4.5319223,-0.64072,2.685457,0.0,0.0,0.0
123,1.230000954,2.02917065,-1.9384587500000001,-0.264687715,0.0,0.0,0.0
124,1.240000954,1.06583195,-2.3315226,-0.86487441,0.0,0.0,0.0
125,1.250000954,0.6409293514285714,-2.4820925714285713,-0.9767771428571429,0.0,0.0,0.0
126,1.260000954,-1.70563629,-3.1978009999999997,-0.5102075175,0.0,0.0,0.0
127,1.270000954,-1.9612284,-3.270993,-0.42486772,0.0,0.0,0.0
128,1.280000954,-1.9612284,-3.270993,-0.42486772,0.0,0.0,0.0
129,1.290000954,-3.3782679777777775,-3.0813489444444446,0.8689982688888889,0.0,0.0,0.0
130,1.300000954,-4.0160112,-2.7027587,2.8308469285714284,0.0,0.0,0.0
131,1.310000954,-4.0411267,-2.6581092,3.243157,0.0,0.0,0.0
132,1.320000954,-4.0411267,-2.6581092,3.243157,0.0,0.0,0.0
133,1.330000954,-3.6576469750000005,-2.71378155,3.000322975,0.0,0.0,0.0
134,1.340000954,-3.5298204,-2.732339,2.6014601500000003,0.0,0.0,0.0
135,1.350000954,-2.73771075,-2.822196,1.8679529000000001,0.0,0.0,0.0
136,1.360000954,-1.33821118125,-2.9071694999999997,0.87427514375,0.0,0.0,0.0
137,1.370000954,-0.97377723,-2.9042394,0.52742195,0.0,0.0,0.0
138,1.380000954,-0.44989582250000004,-2.773482675,0.17617356250000002,0.0,0.0,0.0
139,1.390000954,1.4879438857142857,-2.282565057142857,-0.8262944571428571,0.0,0.0,0.0
140,1.400000954,3.0180257499999996,-1.8721039,-0.744739365,0.0,0.0,0.0
141,1.410000954,4.7286066125,-1.2910850125,0.40789740625,0.0,0.0,0.0
142,1.420000954,6.4677563,-0.6250927,0.91761655,0.0,0.0,0.0
143,1.430000954,6.4677563,-0.6250927,1.383994325,0.0,0.0,0.0
144,1.440000954,7.79852,0.11232135,3.215809,0.0,0.0,0.0
145,1.450000954,7.8627994999999995,0.3494781,3.8144696125,0.0,0.0,0.0
146,1.460000954,7.969932,1.3376008,6.3964567,0.0,0.0,0.0
147,1.470000954,7.969932,1.3376008,6.3964567,0.0,0.0,0.0
148,1.480000954,7.881173725,1.3054304875,6.3091634375,0.0,0.0,0.0
149,1.490000954,7.2598658,1.0802383,5.6981106,0.0,0.0,0.0
150,1.500000954,5.013857357142858,-0.5833733342857144,2.9801435285714284,0.0,0.0,0.0
151,1.510000954,4.8366547,-0.73839074,2.4862087,0.0,0.0,0.0
152,1.520000954,4.8366547,-0.73839074,2.4862087,0.0,0.0,0.0
153,1.530000954,4.1137692,-1.13151548,1.73792875,0.0,0.0,0.0
154,1.540000954,1.9451127,-2.3108897,-0.5069111,0.0,0.0,0.0
155,1.550000954,1.7226675999999999,-2.36949215,-0.47663317499999996,0.0,0.0,0.0
156,1.560000954,0.7128742749999999,-2.603779825,-0.375055625,0.0,0.0,0.0
157,1.570000954,-0.3144998,-2.7792208,-0.3428243,0.0,0.0,0.0
158,1.580000954,-0.9333834571428571,-2.789266942857143,-0.25310674857142856,0.0,0.0,0.0
159,1.590000954,-2.7845929,-2.7440593,0.29691905,0.0,0.0,0.0
160,1.600000954,-2.7845929,-2.7440593,0.29691905,0.0,0.0,0.0
161,1.610000954,-3.5741994875,-2.6060384375,1.40133096875,0.0,0.0,0.0
162,1.620000954,-3.8965738,-2.5374858,2.0921073,0.0,0.0,0.0
163,1.630000954,-3.8965738,-2.5374858,2.0921073,0.0,0.0,0.0
164,1.640000954,-4.067497875,-2.4725348125,2.805714075,0.0,0.0,0.0
165,1.650000954,-3.8359571875,-2.453000575,2.4128335,0.0,0.0,0.0
166,1.660000954,-3.4290801,-2.4560004714285713,1.864952985714286,0.0,0.0,0.0
167,1.670000954,-3.1513464,-2.4593492,1.5070595,0.0,0.0,0.0
168,1.680000954,-3.1513464,-2.4593492,1.5070595,0.0,0.0,0.0
169,1.690000954,-1.16215968875,-2.32413625,0.13728843125,0.0,0.0,0.0
170,1.700000954,1.28607938125,-1.67493105,-1.13243105625,0.0,0.0,0.0
171,1.710000954,2.1899,-1.45236385,-1.154468,0.0,0.0,0.0
172,1.720000954,2.947703,-1.3468795,-1.154468,0.0,0.0,0.0
173,1.730000954,2.947703,-1.3468795,-1.154468,0.0,0.0,0.0
174,1.740000954,3.6813495714285716,-1.1975827571428572,-0.24480470000000001,0.0,0.0,0.0
175,1.750000954,5.25309845,-0.6656870907500001,0.7803281125,0.0,0.0,0.0
176,1.760000954,7.2394769375,0.23178485875000002,2.172136075,0.0,0.0,0.0
177,1.770000954,7.4404345,1.122969265,5.1837524,0.0,0.0,0.0
178,1.780000954,7.349723,1.3102529,5.8656163,0.0,0.0,0.0
179,1.790000954,7.349723,1.3102529,5.8656163,0.0,0.0,0.0
180,1.800000954,6.5844727,1.177909,6.1620464,0.0,0.0,0.0
181,1.810000954,4.931700775,0.3403825085,3.9553596750000004,0.0,0.0,0.0
182,1.820000954,4.3722305,-0.05518396600000001,2.5838794999999997,0.0,0.0,0.0
183,1.830000954,4.3722305,-0.055183966,2.5838795,0.0,0.0,0.0
184,1.840000954,4.11853075,-0.252478848,1.54588367,0.0,0.0,0.0
185,1.850000954,3.1352308,-0.84387517,-0.046393603,0.0,0.0,0.0
186,1.860000954,2.9552114,-0.97359411125,-0.10151652762499999,0.0,0.0,0.0
187,1.870000954,1.6950756,-1.5930097,-0.3818926,0.0,0.0,0.0
188,1.880000954,1.6950756,-1.5930097,-0.3818926,0.0,0.0,0.0
189,1.890000954,1.02145275,-1.8442066375000001,-0.46137215,0.0,0.0,0.0
190,1.900000954,-0.9651264285714285,-2.528765228571429,-0.5508629428571429,0.0,0.0,0.0
191,1.910000954,-1.2160007,-2.6034136,-0.5186316,0.0,0.0,0.0
192,1.920000954,-2.1103594625,-2.6820385625,-0.05414621325,0.0,0.0,0.0
193,1.930000954,-2.989335075,-2.6454119625,0.7531634865000001,0.0,0.0,0.0
194,1.940000954,-3.3200726,-2.654202275,1.0609484375,0.0,0.0,0.0
195,1.950000954,-4.1387973,-2.7675004,2.3616784,0.0,0.0,0.0
196,1.960000954,-4.077753175000001,-2.7894764,2.58845765,0.0,0.0,0.0
197,1.970000954,-3.8669675875,-2.81877755,2.673248075,0.0,0.0,0.0
198,1.980000954,-3.5767024,-2.8456368,2.5877862,0.0,0.0,0.0
199,1.990000954,-3.1855311,-2.8622408375,2.2497233625,0.0,0.0,0.0
200,2.000000954,-1.7144877125,-2.9374472875,0.9565627750000001,0.0,0.0,0.0
201,2.010000954,-1.2817191285714284,-2.9148435142857143,-0.04004498857142854,0.0,0.0,0.0
202,2.020000954,-1.1534914,-2.9081461,-0.25687402,0.0,0.0,0.0
203,2.030000954,0.7753225312500001,-2.5868704125,-0.7549947875,0.0,0.0,0.0
204,2.040000954,0.64169675,-2.6190407,-0.7369257,0.0,0.0,0.0
205,2.050000954,2.688265,-2.162796325,-0.2327005325,0.0,0.0,0.0
206,2.060000954,3.014119,-2.0965023,-0.10108921,0.0,0.0,0.0
207,2.070000954,6.415502375,-0.98427685,2.4042874750000003,0.0,0.0,0.0
208,2.080000954,7.657874,-0.44586694,3.3994303,0.0,0.0,0.0
209,2.090000954,7.657874,-0.44586694,3.3994303,0.0,0.0,0.0
210,2.100000954,7.84131205,0.6069625925,6.828527837499999,0.0,0.0,0.0
211,2.110000954,7.7907066,0.97084713,7.520159,0.0,0.0,0.0
212,2.120000954,6.7517341625,0.6634895175,6.0355633125,0.0,0.0,0.0
213,2.130000954,6.1283507,0.47907494999999994,5.2571273,0.0,0.0,0.0
214,2.140000954,6.1283507,0.47907495,5.2571273,0.0,0.0,0.0
215,2.150000954,5.42595812857143,0.11448405514285713,2.029388642857143,0.0,0.0,0.0
216,2.160000954,5.085470925,-0.07013979475000001,1.34211805625,0.0,0.0,0.0
217,2.170000954,3.1600146375,-1.1318207,0.07020084125,0.0,0.0,0.0
218,2.180000954,2.5575082,-1.4562707,-0.30766284,0.0,0.0,0.0
219,2.190000954,2.5575082,-1.4562707,-0.30766284,0.0,0.0,0.0
220,2.200000954,1.230285,-1.9753296624999999,-0.55788306,0.0,0.0,0.0
221,2.210000954,-0.24417685,-2.5431019,-0.7740406200000001,0.0,0.0,0.0
222,2.220000954,-0.82067835,-2.7401526,-0.46955207125000004,0.0,0.0,0.0
223,2.230000954,-1.4382015,-2.9042394,-0.007325305,0.0,0.0,0.0
224,2.240000954,-1.4382015,-2.9042394,-0.007325305,0.0,0.0,0.0
225,2.250000954,-2.0016395625000003,-2.9408658374999996,0.541462154375,0.0,0.0,0.0
226,2.260000954,-3.1708806,-2.8261027,1.8699062000000002,0.0,0.0,0.0
227,2.270000954,-3.5294540999999997,-2.8011966999999998,2.3538036375,0.0,0.0,0.0
228,2.280000954,-3.990338,-2.8143823,2.8256145,0.0,0.0,0.0
229,2.290000954,-3.990338,-2.8143823,2.8256145,0.0,0.0,0.0
230,2.300000954,-3.7815668000000002,-2.8358699,2.511603,0.0,0.0,0.0
231,2.310000954,-2.777389525,-2.9304884374999998,1.3947381,0.0,0.0,0.0
232,2.320000954,-1.060826315,-3.012226525,0.50837618625,0.0,0.0,0.0
233,2.330000954,-0.29887244,-3.0209558,-0.15529647,0.0,0.0,0.0
234,2.340000954,-0.29887244,-3.0209558,-0.15529647,0.0,0.0,0.0
235,2.350000954,-0.29887244,-3.0209558,-0.15529647,0.0,0.0,0.0
236,2.360000954,-0.2101141575,-3.0088080125,-0.16457519125,0.0,0.0,0.0
237,2.370000954,0.41119382,-2.9237735,-0.22952624,0.0,0.0,0.0
238,2.380000954,2.2720655325,-2.3440367,-0.06775907249999999,0.0,0.0,0.0
239,2.390000954,5.324032,-1.3625067,0.4883537,0.0,0.0,0.0
240,2.400000954,5.324032,-1.3625067,0.4883537,0.0,0.0,0.0
241,2.410000954,5.6338924,-1.154468125,0.41662675125,0.0,0.0,0.0
242,2.420000954,6.72511875,-0.56868787,1.8657553500000001,0.0,0.0,0.0
243,2.430000954,7.323107725,0.4845079325,4.311125125,0.0,0.0,0.0
244,2.440000954,7.1543818,1.1036794,5.619974,0.0,0.0,0.0
245,2.450000954,7.1543818,1.1036794,5.619974,0.0,0.0,0.0
246,2.460000954,7.0886371,1.156238425,5.3302583,0.0,0.0,0.0
247,2.470000954,6.490281749999999,0.9438655625,4.324921499999999,0.0,0.0,0.0
248,2.480000954,5.675647,0.4439135,3.454126,0.0,0.0,0.0
249,2.490000954,5.675647,0.4439135,3.454126,0.0,0.0,0.0
250,2.500000954,5.675647,0.4439135,3.454126,0.0,0.0,0.0
251,2.510000954,4.832748,-0.062997624,2.0022502,0.0,0.0,0.0
252,2.520000954,4.483453075,-0.2903262555,1.6003350950000002,0.0,0.0,0.0
253,2.530000954,3.593550725,-0.8591361875000001,0.39458978,0.0,0.0,0.0
254,2.540000954,3.4355683,-0.97231215,0.39458978,0.0,0.0,0.0
255,2.550000954,3.4355683,-0.97231215,0.39458978,0.0,0.0,0.0
256,2.560000954,1.4883625322857144,-1.9788090785714285,-0.29824456,0.0,0.0,0.0
257,2.570000954,-0.029789574,-2.3968399,-0.8463169,0.0,0.0,0.0
258,2.580000954,-0.6661754652499999,-2.7698199624999997,-0.74864618125,0.0,0.0,0.0
259,2.590000954,-1.048007,-2.993608,-0.69004375,0.0,0.0,0.0
260,2.600000954,-1.048007,-2.993608,-0.69004375,0.0,0.0,0.0
261,2.610000954,-2.228602,-3.022909375,0.19998084375,0.0,0.0,0.0
262,2.620000954,-3.118382375,-3.0297463999999996,1.3487107749999998,0.0,0.0,0.0
263,2.630000954,-3.7173481375,-3.17869425,3.1928563,0.0,0.0,0.0
264,2.640000954,-3.7251618,-3.204577,3.29028295,0.0,0.0,0.0
265,2.650000954,-3.7251618,-3.204577,3.3877096,0.0,0.0,0.0
266,2.660000954,-3.07382005,-3.49972575,3.0632596,0.0,0.0,0.0
267,2.670000954,-2.2850068500000003,-3.7547072999999997,2.4608141999999997,0.0,0.0,0.0
268,2.680000954,-1.8869987,-3.8325995999999996,2.0530388,0.0,0.0,0.0
269,2.690000954,-1.2460344499999998,-3.941014125,0.9937997,0.0,0.0,0.0
270,2.700000954,-1.0323797,-3.9771523,0.64072,0.0,0.0,0.0
271,2.710000954,0.4029527875000001,-4.0191507375,0.2576676,0.0,0.0,0.0
272,2.720000954,1.6247526,-4.008407,0.12160007,0.0,0.0,0.0
273,2.730000954,2.2199336625,-3.84511375,0.28489332,0.0,0.0,0.0
274,2.740000954,5.315058425,-2.7153076,1.2133146962499999,0.0,0.0,0.0
275,2.750000954,6.3974333,-2.166337,2.1702437,0.0,0.0,0.0
276,2.760000954,6.5310590375,-2.0571289125,2.1702437,0.0,0.0,0.0
277,2.770000954,7.814286885714286,-0.5965589342857143,3.5850741285714283,0.0,0.0,0.0
278,2.780000954,7.8376494375,-0.38982834125,3.9965034249999998,0.0,0.0,0.0
279,2.790000954,7.48121235,0.4119263375,5.34783925,0.0,0.0,0.0
280,2.800000954,7.1387544,0.9122447,5.713738,0.0,0.0,0.0
281,2.810000954,6.986632125,1.045931525,5.4043660000000004,0.0,0.0,0.0
282,2.820000954,6.5302653,1.446992,3.703125,0.0,0.0,0.0
283,2.830000954,6.5029175125,1.436736575,3.1153913,0.0,0.0,0.0
284,2.840000954,6.311483,1.3649486,2.2483804,0.0,0.0,0.0
285,2.850000954,6.311483,1.3649486,2.2483804,0.0,0.0,0.0
286,2.860000954,6.311483,1.3649486,2.2483804,0.0,0.0,0.0
287,2.870000954,4.27651325,-0.54524689,0.948871185,0.0,0.0,0.0
288,2.880000954,3.540991525,-1.17693236875,0.6463971362500001,0.0,0.0,0.0
289,2.890000954,2.537974,-1.897254,0.08253177,0.0,0.0,0.0
290,2.900000954,2.537974,-1.897254,0.08253177,0.0,0.0,0.0
291,2.910000954,2.537974,-1.897254,0.08253177,0.0,0.0,0.0
292,2.920000954,0.93812746,-2.818289,-0.5030043,0.0,0.0,0.0
293,2.930000954,0.93812746,-3.125646625,-0.5539762374999999,0.0,0.0,0.0
294,2.940000954,0.587001145,-3.3100612,-0.5125272,0.0,0.0,0.0
295,2.950000954,-1.0958656924999999,-3.825030175,0.080700475,0.0,0.0,0.0
296,2.960000954,-1.5397792,-3.9966865,0.2544323,0.0,0.0,0.0
297,2.970000954,-2.987503625,-3.508271825,3.1567180500000003,0.0,0.0,0.0
298,2.980000954,-3.1943214,-3.4384983,3.5713303,0.0,0.0,0.0
299,2.990000954,-3.4753689999999997,-3.2768532,3.75080035,0.0,0.0,0.0
300,3.000000954,-3.5181,-3.2553656,3.9302704,0.0,0.0,0.0
301,3.010000954,-3.5181,-3.2553656,3.9302704,0.0,0.0,0.0
302,3.020000954,-3.594282975,-3.2377849999999997,3.43837615,0.0,0.0,0.0
303,3.030000954,-3.39534005,-3.249017175,2.4597764,0.0,0.0,0.0
304,3.040000954,-3.2607377,-3.2592726,1.9709954,0.0,0.0,0.0
305,3.050000954,-2.6865732714285713,-3.2581563142857144,1.6119857,0.0,0.0,0.0
306,3.060000954,-1.2511622,-3.2553656,0.71446145,0.0,0.0,0.0
307,3.070000954,-0.9731668474999999,-3.2377848875,0.36046606625000005,0.0,0.0,0.0
308,3.080000954,0.419556865,-3.0668611375,-0.33452227749999996,0.0,0.0,0.0
309,3.090000954,0.97719574,-2.9818876,-0.3975199,0.0,0.0,0.0
310,3.100000954,3.0496465925000003,-2.4084382375,-0.3154764875,0.0,0.0,0.0
311,3.110000954,3.345711,-2.3265169,-0.303756,0.0,0.0,0.0
312,3.120000954,4.4755175000000005,-2.0454693500000003,0.012208834999999973,0.0,0.0,0.0
313,3.130000954,6.1361637,-1.5070595,0.32817367,0.0,0.0,0.0
314,3.140000954,6.1361637,-1.5070595,1.26056293375,0.0,0.0,0.0
315,3.150000954,6.298367142857143,-1.1558634285714287,1.950693957142857,0.0,0.0,0.0
316,3.160000954,6.900926,-0.09034543,5.147736,0.0,0.0,0.0
317,3.170000954,6.900926,-0.09034543,5.147736,0.0,0.0,0.0
318,3.180000954,6.900926,-0.09034543,5.147736,0.0,0.0,0.0
319,3.190000954,6.5782465000000006,0.25858327000000003,5.069111475,0.0,0.0,0.0
320,3.200000954,5.568086625,-0.23178487125,4.560308025,0.0,0.0,0.0
321,3.210000954,5.070576,-0.48054004,3.7310224,0.0,0.0,0.0
322,3.220000954,4.6471735,-0.6889449675,3.004290975,0.0,0.0,0.0
323,3.230000954,3.6929305,-1.136399,1.4797117,0.0,0.0,0.0
324,3.240000954,3.6929305,-1.136399,1.4797117,0.0,0.0,0.0
325,3.250000954,3.2024402625,-1.4968040375,0.66513772875,0.0,0.0,0.0
326,3.260000954,1.7185166,-2.7870345,-0.26078087,0.0,0.0,0.0
327,3.270000954,1.7185166,-2.7870345,-0.26078087,0.0,0.0,0.0
328,3.280000954,1.7185166,-2.7870345,-0.35356807625,0.0,0.0,0.0
329,3.290000954,1.39412767,-2.9445896,-0.361442781625,0.0,0.0,0.0
330,3.300000954,0.08314220750000001,-3.86629605,-0.381953639125,0.0,0.0,0.0
331,3.310000954,0.2202475,-3.8404133,-0.43268138,0.0,0.0,0.0
332,3.320000954,0.2202475,-3.8404132999999994,-0.43268138,0.0,0.0,0.0
333,3.330000954,-3.3115265,-3.3725705,2.0413184,0.0,0.0,0.0
334,3.340000954,-3.5591826875,-3.0635036875,2.208152225,0.0,0.0,0.0
335,3.350000954,-3.654839,-2.751873,3.375989,0.0,0.0,0.0
336,3.360000954,-3.5010077,-2.5335178875,3.375989,0.0,0.0,0.0
337,3.370000954,-3.4790318,-2.5023243,3.375989,0.0,0.0,0.0
338,3.380000954,-2.6769718,-2.4749764375,2.8704818999999997,0.0,0.0,0.0
339,3.390000954,-2.1573634875,-2.5489011,2.3447081,0.0,0.0,0.0
340,3.400000954,-1.5124314,-2.6502955000000004,1.2062335750000002,0.0,0.0,0.0
341,3.410000954,-1.1105163,-2.704991,0.33989415,0.0,0.0,0.0
342,3.420000954,-1.1105163,-2.704991,0.33989415,0.0,0.0,0.0
343,3.430000954,0.773831342857143,-2.2033820714285715,-0.6103026,0.0,0.0,0.0
344,3.440000954,2.05194015,-1.663637875,-1.1515379875,0.0,0.0,0.0
345,3.450000954,2.366562,-1.4601775,-1.248232,0.0,0.0,0.0
346,3.460000954,3.9061581875,-0.7397337374999999,-1.04654205,0.0,0.0,0.0
347,3.470000954,4.1261005,-0.6368132,-1.0177292,0.0,0.0,0.0
348,3.480000954,4.9993376875,-0.32457206875,0.5578219249999999,0.0,0.0,0.0
349,3.490000954,5.5539852875,-0.04846910374999999,1.9216717124999998,0.0,0.0,0.0
350,3.500000954,5.68346,0.18655111,1.5031526,0.0,0.0,0.0
351,3.510000954,5.90175415,0.9425225875,5.1770375,0.0,0.0,0.0
352,3.520000954,6.0189595,1.0802383,6.1542335,0.0,0.0,0.0
353,3.530000954,6.081468757142858,1.0065666771428572,6.154233499999999,0.0,0.0,0.0
354,3.540000954,6.017555375000001,0.7874703075,5.7402315625,0.0,0.0,0.0
355,3.550000954,5.5389075,0.27250138,3.738836,0.0,0.0,0.0
356,3.560000954,5.4632737375,0.22030857625,3.738836,0.0,0.0,0.0
357,3.570000954,4.9338374,-0.14504105,3.738836,0.0,0.0,0.0
358,3.580000954,4.42820815,-0.6070236687499999,2.6290520625,0.0,0.0,0.0
359,3.590000954,3.83662865,-1.1841356749999998,1.813989675,0.0,0.0,0.0
360,3.600000954,3.033653,-2.0730615,0.913221375,0.0,0.0,0.0
361,3.610000954,2.3680966999999997,-2.6082273857142857,0.55839757,0.0,0.0,0.0
362,3.620000954,1.4806883,-3.3217819,0.30863953,0.0,0.0,0.0
363,3.630000954,1.1528809075,-3.456323275,0.2218346625,0.0,0.0,0.0
364,3.640000954,-1.3220954925,-3.96152515,0.1527326125,0.0,0.0,0.0
365,3.650000954,-2.6517603,-3.899016,0.664161,0.0,0.0,0.0
366,3.660000954,-3.4870284625,-3.4153627125,1.6054626875,0.0,0.0,0.0
367,3.670000954,-3.5806093,-3.3335025,2.1702437,0.0,0.0,0.0
368,3.680000954,-3.5806093,-3.3335025,2.1702437,0.0,0.0,0.0
369,3.690000954,-3.664885085714286,-3.3731287714285716,2.6776433,0.0,0.0,0.0
370,3.700000954,-3.6020967625,-3.333013925,3.0156450375,0.0,0.0,0.0
371,3.710000954,-3.4899584875,-3.369457325,2.69217175,0.0,0.0,0.0
372,3.720000954,-3.5923297,-3.3256886,3.063931,0.0,0.0,0.0
373,3.730000954,-3.5923297,-3.3256886,3.063931,0.0,0.0,0.0
374,3.740000954,-2.3769393875,-3.723452675,1.21111710875,0.0,0.0,0.0
375,3.750000954,-1.1261436,-3.8794816,-0.40142673,0.0,0.0,0.0
376,3.760000954,-0.88471375,-3.830218925,-0.41217051375,0.0,0.0,0.0
377,3.770000954,0.8052952,-3.4853802,-0.487377,0.0,0.0,0.0
378,3.780000954,0.8052952,-3.4853802,-0.487377,0.0,0.0,0.0
379,3.790000954,1.9607401,-3.1186266,-0.487377,0.0,0.0,0.0
380,3.800000954,4.4784475375,-2.30911935,0.5262621625,0.0,0.0,0.0
381,3.810000954,6.3036695,-1.7487946,1.1090512,0.0,0.0,0.0
382,3.820000954,7.201263000000001,-1.6086371,2.9428194,0.0,0.0,0.0
383,3.830000954,7.201263,-1.6086371,2.9428194,0.0,0.0,0.0
384,3.840000954,7.4968395,-0.9354414799999999,5.4627246,0.0,0.0,0.0
385,3.850000954,7.1739154,0.27250138,7.1534047,0.0,0.0,0.0
386,3.860000954,7.0979155,0.27836161375,6.7598525875,0.0,0.0,0.0
387,3.870000954,6.971249,0.28812867,6.1039324,0.0,0.0,0.0
388,3.880000954,6.971249,0.28812867,6.1039324,0.0,0.0,0.0
389,3.890000954,6.29347475,-0.1261173525,4.1473435375,0.0,0.0,0.0
390,3.900000954,5.431591624999999,-0.6597048249999999,2.1975915,0.0,0.0,0.0
391,3.910000954,4.4824764375,-1.1821212,1.6765791862500001,0.0,0.0,0.0
392,3.920000954,3.9703155,-1.4211092,0.80822533,0.0,0.0,0.0
393,3.930000954,3.9703155000000003,-1.4211092,0.80822533,0.0,0.0,0.0
394,3.940000954,3.2834461,-1.8132572,0.652196345,0.0,0.0,0.0
395,3.950000954,2.0344813,-2.5413926,0.055183966,0.0,0.0,0.0
396,3.960000954,1.561212388888889,-2.817529455555556,0.055183966,0.0,0.0,0.0
397,3.970000954,1.4259927,-2.8964257,0.055183966,0.0,0.0,0.0
398,3.980000954,1.4259927,-2.8964257,0.055183966,0.0,0.0,0.0
399,3.990000954,0.21948005428571424,-3.0714655285714287,-0.29050068171428567,0.0,0.0,0.0
400,4.000000954,-1.173819175,-3.2344275125,-0.59939309625,0.0,0.0,0.0
401,4.010000954,-2.7037703125,-2.6394296625,0.82495145625,0.0,0.0,0.0
402,4.020000954,-2.9486797,-2.5452995,1.3742273,0.0,0.0,0.0
403,4.030000954,-2.9486797,-2.5452995,1.3742273,0.0,0.0,0.0
404,4.040000954,-3.07455285,-2.535532375,1.3742273,0.0,0.0,0.0
405,4.050000954,-4.05248105,-2.6294793125,1.6537486750000001,0.0,0.0,0.0
406,4.060000954,-4.972173375,-2.7801975125,1.8142949625,0.0,0.0,0.0
407,4.070000954,-4.6780620625,-2.749919575,1.40261286875,0.0,0.0,0.0
408,4.080000954,-3.920015,-2.7362456,0.97231215,0.0,0.0,0.0
409,4.090000954,-3.6101197142857138,-2.7418267714285713,0.9723121499999999,0.0,0.0,0.0
410,4.100000954,-2.8353815,-2.7557797,0.97231215,0.0,0.0,0.0
411,4.110000954,-1.21099505,-2.700107425,0.24637442475000002,0.0,0.0,0.0
412,4.120000954,0.443791425,-2.487185375,-0.526017965,0.0,0.0,0.0
413,4.130000954,1.2462786,-2.2444735,-0.36235842,0.0,0.0,0.0
414,4.140000954,1.3433389,-2.2059545999999997,-0.36235842,0.0,0.0,0.0
415,4.150000954,2.022761,-1.9363223,-0.36235842,0.0,0.0,0.0
416,4.160000954,2.60084975,-1.7705873,-0.29887245125,0.0,0.0,0.0
417,4.170000954,3.48037475,-1.5486916124999999,-0.14076794875,0.0,0.0,0.0
418,4.180000954,7.209077,-0.6915088,0.6993225,0.0,0.0,0.0
419,4.190000954,7.209077,-0.6915088,0.6993225,0.0,0.0,0.0
420,4.200000954,7.684611375,0.4524597,4.8039353125,0.0,0.0,0.0
421,4.210000954,7.969932,1.1388408,7.266703,0.0,0.0,0.0
422,4.220000954,7.969932,1.3127558,7.840152625,0.0,0.0,0.0
423,4.230000954,7.969932,1.3376008,7.922074,0.0,0.0,0.0
424,4.240000954,7.969932,1.3376008,7.922074,0.0,0.0,0.0
425,4.250000954,7.06189935,0.6479232625,5.05739085,0.0,0.0,0.0
426,4.260000954,6.4706862,0.25675195,4.1954465249999995,0.0,0.0,0.0
427,4.270000954,4.880362525,-0.7792293625,2.484682496625,0.0,0.0,0.0
428,4.280000954,4.337069,-1.273138,0.3984966,0.0,0.0,0.0
429,4.290000954,4.106321899999999,-1.437957375,0.3082732575,0.0,0.0,0.0
430,4.300000954,2.4910922,-2.591693,-0.32329014,0.0,0.0,0.0
431,4.310000954,0.7211588782142858,-3.1299284999999997,-0.5964193971428572,0.0,0.0,0.0
432,4.320000954,0.0131855495,-3.3452227,-0.7056711,0.0,0.0,0.0
433,4.330000954,-0.9463073939375001,-3.3042010625,-0.7642735125,0.0,0.0,0.0
434,4.340000954,-1.6647978,-3.2592726,-0.79943496,0.0,0.0,0.0
435,4.350000954,-2.0017007625,-3.056911,-0.37792468125,0.0,0.0,0.0
436,4.360000954,-2.6283195,-2.5413926,1.0387284,0.0,0.0,0.0
437,4.370000954,-2.6283195,-2.5413926,1.0387284,0.0,0.0,0.0
438,4.380000954,-3.16795035,-2.2913555999999997,1.805443575,0.0,0.0,0.0
439,4.390000954,-3.0927439,-2.2093122,1.830838,0.0,0.0,0.0
440,4.400000954,-3.2431568,-2.373399,1.59081215,0.0,0.0,0.0
441,4.410000954,-3.3076196,-2.5643451,0.976219,0.0,0.0,0.0
442,4.420000954,-2.6196512875,-2.4962809125,0.58828304375,0.0,0.0,0.0
443,4.430000954,-2.66946325,-2.4993942000000002,0.4815167375,0.0,0.0,0.0
444,4.440000954,-2.8236609,-2.5140448,0.52351516,0.0,0.0,0.0
445,4.450000954,-2.3251739000000002,-2.4710696750000003,0.4386637025,0.0,0.0,0.0
446,4.460000954,0.2574845,-2.069337825,0.09620567,0.0,0.0,0.0
447,4.470000954,0.7818543,-1.9402292,-0.05030043,0.0,0.0,0.0
448,4.480000954,0.7818543,-1.9402292,-0.19436477,0.0,0.0,0.0
449,4.490000954,0.7818543,-1.9402292,-0.19436477,0.0,0.0,0.0
450,4.500000954,1.373128525,-1.774433125,-0.2793383025,0.0,0.0,0.0
451,4.510000954,5.3478388,-0.7411988125,-0.41119378500000003,0.0,0.0,0.0
452,4.520000954,6.698991225,-0.25382182999999997,1.138474475,0.0,0.0,0.0
453,4.530000954,7.9397150750000005,1.09360694625,5.950955825,0.0,0.0,0.0
454,4.540000954,7.969932,1.2125821,6.2792516,0.0,0.0,0.0
455,4.550000954,7.969932,1.3184327625,6.2792516,0.0,0.0,0.0
456,4.560000954,7.201263,1.9856461,7.906446,0.0,0.0,0.0
457,4.570000954,7.201263,1.9856461,7.906446,0.0,0.0,0.0
458,4.580000954,4.9299307,0.93177885,4.008407,0.0,0.0,0.0
459,4.590000954,4.9299307,0.93177885,4.008407,0.0,0.0,0.0
460,4.600000954,4.9299307,0.93177885,4.008407,0.0,0.0,0.0
461,4.610000954,3.0018492500000002,-0.358817875,-0.16835997000000003,0.0,0.0,0.0
462,4.620000954,2.1618197375,-0.985131475,-0.6935843625,0.0,0.0,0.0
463,4.630000954,1.2843091625,-1.9231979249999998,-0.82867516875,0.0,0.0,0.0
464,4.640000954,0.5655135714285715,-2.0105522,-0.6872531857142857,0.0,0.0,0.0
465,4.650000954,0.3057094,-2.0105522,-0.639255,0.0,0.0,0.0
466,4.660000954,-2.2816494625,-2.2054664,-0.4926878225,0.0,0.0,0.0
467,4.670000954,-3.299805825,-2.1328237,-0.46344764250000003,0.0,0.0,0.0
468,4.680000954,-3.361338225,-2.07208465,-0.47565648,0.0,0.0,0.0
469,4.690000954,-3.1357188,-2.057434,-0.47565648,0.0,0.0,0.0
470,4.700000954,-3.1357188,-2.057434,-0.47565648,0.0,0.0,0.0
471,4.710000954,-2.5451772750000003,-2.2450228875000002,-0.3901946175,0.0,0.0,0.0
472,4.720000954,-2.385607825,-2.4212575750000003,0.186917365,0.0,0.0,0.0
473,4.730000954,-2.3475163,-2.506231,0.50007415,0.0,0.0,0.0
474,4.740000954,-2.213096875,-2.5527467500000003,0.50007415,0.0,0.0,0.0
475,4.750000954,-2.1682904,-2.568252,0.50007415,0.0,0.0,0.0
476,4.760000954,-1.892675775,-2.580460875,0.87580124375,0.0,0.0,0.0
477,4.770000954,-1.429655425,-2.55567695,1.049472025,0.0,0.0,0.0
478,4.780000954,-0.5367007,-2.4593492,0.8941756,0.0,0.0,0.0
479,4.790000954,0.19485314999999997,-2.15681405,0.40435685499999996,0.0,0.0,0.0
480,4.800000954,0.926407,-1.8542789,-0.08546189,0.0,0.0,0.0
481,4.810000954,2.038632625,-1.3543268375,-0.3439841275,0.0,0.0,0.0
482,4.820000954,2.705968,-1.0543556,-0.49909747,0.0,0.0,0.0
483,4.830000954,3.8155685125,-0.6070846775000001,0.2814748425,0.0,0.0,0.0
484,4.840000954,6.061812424999999,0.43841949999999996,2.9048497125,0.0,0.0,0.0
485,4.850000954,6.7915350000000005,0.7916213,3.8599474,0.0,0.0,0.0
486,4.860000954,7.297835324999999,1.4206208625,4.876944025,0.0,0.0,0.0
487,4.870000954,7.587673,2.177569125,5.574923575000001,0.0,0.0,0.0
488,4.880000954,7.71556115,2.5937073374999997,6.6612659125,0.0,0.0,0.0
489,4.890000954,6.7126656,2.1298324125,6.1909815625,0.0,0.0,0.0
490,4.900000954,6.065841,1.8371865,5.8382683,0.0,0.0,0.0
491,4.910000954,5.7843661625,1.6854916450000001,5.4285395625,0.0,0.0,0.0
492,4.920000954,3.634572325,0.47779304,2.248746656875,0.0,0.0,0.0
493,4.930000954,2.3782825,-0.5430493,0.066904455,0.0,0.0,0.0
494,4.940000954,2.0196476875,-0.823547425,0.066904455,0.0,0.0,0.0
495,4.950000954,1.3439494,-1.3742273,-0.43268138,0.0,0.0,0.0
496,4.960000954,1.3439494,-1.3742273,-0.43268138,0.0,0.0,0.0
497,4.970000954,0.84393625375,-1.535689225,-0.416565705,0.0,0.0,0.0
498,4.980000954,0.3291504,-1.7683287,-0.4092404,0.0,0.0,0.0
499,4.990000954,0.3291504,-1.7683287,-0.4092404,0.0,0.0,0.0
500,5.000000954,-0.62655777,-1.8777199,-0.37017208,0.0,0.0,0.0
501,5.010000954,-0.81097229875,-1.8938355875,-0.3643118375,0.0,0.0,0.0
502,5.020000954,-2.101874,-2.0066454,-0.32329014,0.0,0.0,0.0
503,5.030000954,-2.8696273750000003,-2.3411675375,0.32579296087500004,0.0,0.0,0.0
504,5.040000954,-3.00715995,-2.390979625,0.47748783000000006,0.0,0.0,0.0
505,5.050000954,-3.2763648,-2.4788833,0.7847844,0.0,0.0,0.0
506,5.060000954,-3.2763648,-2.4788833,0.7847844,0.0,0.0,0.0
507,5.070000954,-3.2372966,-2.6229477,1.069983,0.0,0.0,0.0
508,5.080000954,-2.812001575,-2.69571235,1.02603115,0.0,0.0,0.0
509,5.090000954,-1.513469125,-2.7049909875,0.70542691,0.0,0.0,0.0
510,5.100000954,-1.0011251,-2.6737363,0.47272637,0.0,0.0,0.0
511,5.110000954,-1.0011251,-2.6737362999999994,0.47272637,0.0,0.0,0.0
512,5.120000954,-0.5719842875000001,-2.5666038,0.47272637,0.0,0.0,0.0
513,5.130000954,0.695659775,-2.3528880875000002,-0.35253032125,0.0,0.0,0.0
514,5.140000954,0.4268211,-2.3616784,-0.31156966,0.0,0.0,0.0
515,5.150000954,0.4268211,-2.3616784,-0.31156966,0.0,0.0,0.0
516,5.160000954,0.4268211,-2.3616784,-0.31156966,0.0,0.0,0.0
517,5.170000954,2.19771375,-2.2356832000000004,-0.58956499,0.0,0.0,0.0
518,5.180000954,4.8503288,-1.7644219,-0.12037918499999997,0.0,0.0,0.0
519,5.190000954,6.9126463,-1.335159,0.44147173,0.0,0.0,0.0
520,5.200000954,6.547427514285714,0.38733428571428574,4.689451208571429,0.0,0.0,0.0
521,5.210000954,6.40134,1.0763316,6.388643,0.0,0.0,0.0
522,5.220000954,6.155453925,0.948505,5.916404875,0.0,0.0,0.0
523,5.230000954,4.81492305,0.21585232,3.60624765,0.0,0.0,0.0
524,5.240000954,4.2120504,-0.13332056,1.5278756,0.0,0.0,0.0
525,5.250000954,4.2120504,-0.13332056,1.3586,0.0,0.0,0.0
526,5.260000954,4.2120504,-0.13332056,1.3586,0.0,0.0,0.0
527,5.270000954,3.1185044875,-0.92866559,0.20828287500000003,0.0,0.0,0.0
528,5.280000954,1.7849327,-1.6828668,-0.5069111,0.0,0.0,0.0
529,5.290000954,1.074622285,-1.85647655,-0.6648935499999999,0.0,0.0,0.0
530,5.300000954,0.36431187,-2.0300863,-0.822876,0.0,0.0,0.0
531,5.310000954,0.36431187,-2.0300863,-0.822876,0.0,0.0,0.0
532,5.320000954,-0.09309239875000001,-2.0188541625,-0.6404148375000001,0.0,0.0,0.0
533,5.330000954,-0.98159087,-1.9871111,-0.2373399,0.0,0.0,0.0
534,5.340000954,-1.99010240875,-1.994436425,0.08057834999999999,0.0,0.0,0.0
535,5.350000954,-2.609274,-2.0222726,0.3984966,0.0,0.0,0.0
536,5.360000954,-2.609274,-2.0222726,0.3984966,0.0,0.0,0.0
537,5.370000954,-2.7477832875,-2.0773955375,0.6258252375,0.0,0.0,0.0
538,5.380000954,-3.7173483,-2.4632561,1.5383140999999998,0.0,0.0,0.0
539,5.390000954,-3.68511695,-2.4881010875,1.612849075,0.0,0.0,0.0
540,5.400000954,-3.7173483,-2.4632561,1.7136331,0.0,0.0,0.0
541,5.410000954,-3.4594975,-2.662016,1.7839559,0.0,0.0,0.0
542,5.420000954,-3.3936918124999997,-2.67813165,1.7498322,0.0,0.0,0.0
543,5.430000954,-1.6608909,-3.0561173,1.1984199,0.0,0.0,0.0
544,5.440000954,-1.6608909,-3.0561173,0.9790270275,0.0,0.0,0.0
545,5.450000954,-1.324293125,-3.081511675,0.8736647375000001,0.0,0.0,0.0
546,5.460000954,-0.3144998,-3.1576947999999994,0.77697074,0.0,0.0,0.0
547,5.470000954,-0.3144998,-3.1576948,0.77697074,0.0,0.0,0.0
548,5.480000954,0.20010295,-3.167461925,0.55263325875,0.0,0.0,0.0
549,5.490000954,4.1448410375,-2.7777557875,0.61379958,0.0,0.0,0.0
550,5.500000954,5.6561127,-2.4671628,1.069983,0.0,0.0,0.0
551,5.510000954,5.6561127,-2.4671628,1.069983,0.0,0.0,0.0
552,5.520000954,5.6561127,-2.4671628,1.069983,0.0,0.0,0.0
553,5.530000954,7.6807045875,-0.50709426125,5.190955625,0.0,0.0,0.0
554,5.540000954,7.623567175,0.2265961225,5.944607425,0.0,0.0,0.0
555,5.550000954,6.5844727,1.5876379,6.4394317,0.0,0.0,0.0
556,5.560000954,6.5844727,1.5876379,6.4394317,0.0,0.0,0.0
557,5.570000954,6.5844727,1.5876379,6.4394317,0.0,0.0,0.0
558,5.580000954,6.284501575,1.33436545,4.869252475,0.0,0.0,0.0
559,5.590000954,5.7845497,0.9122447,1.7059414750000002,0.0,0.0,0.0
560,5.600000954,4.79789165,-0.159874775,1.0708985875,0.0,0.0,0.0
561,5.610000954,4.6569405,-0.3130347,1.0270078,0.0,0.0,0.0
562,5.620000954,4.6569405,-0.3130347,1.0270078,0.0,0.0,0.0
563,5.630000954,3.4038251875,-1.5759172625,0.6650766625,0.0,0.0,0.0
564,5.640000954,2.3346969,-2.4745492375,0.45075045625,0.0,0.0,0.0
565,5.650000954,2.2376366,-2.5452995,0.42975125,0.0,0.0,0.0
566,5.660000954,0.51344284375,-3.3644516625,0.21823304624999998,0.0,0.0,0.0
567,5.670000954,0.26712945,-3.4814734,0.18801616,0.0,0.0,0.0
568,5.680000954,-0.3919387285714286,-3.5702141714285713,-0.011022851428571432,0.0,0.0,0.0
569,5.690000954,-2.7467452125,-3.556191475,0.33281303250000005,0.0,0.0,0.0
570,5.700000954,-3.7759504,-3.4267778,1.2570224,0.0,0.0,0.0
571,5.710000954,-3.7759504,-3.4267778,1.2570224,0.0,0.0,0.0
572,5.720000954,-3.7759504,-3.4267778,1.2570224,0.0,0.0,0.0
573,5.730000954,-3.958350625,-3.4482654,1.7321905,0.0,0.0,0.0
574,5.740000954,-4.5055513,-3.5127282,2.9647951125,0.0,0.0,0.0
575,5.750000954,-4.5055513,-3.5127282,2.8490553,0.0,0.0,0.0
576,5.760000954,-3.527989075,-3.694395675,2.436640575,0.0,0.0,0.0
577,5.770000954,-3.202135,-3.7549515,2.299169,0.0,0.0,0.0
578,5.780000954,-2.70163355125,-3.77973545,1.814783225,0.0,0.0,0.0
579,5.790000954,0.48011273125,-3.7116711374999998,-0.20608524875,0.0,0.0,0.0
580,5.800000954,1.5895913,-3.5166347,-0.28422183,0.0,0.0,0.0
581,5.810000954,1.5895913,-3.5166347,-0.28422183,0.0,0.0,0.0
582,5.820000954,1.5895913,-3.5166347,-0.28422183,0.0,0.0,0.0
583,5.830000954,1.5895913,-3.5166347,-0.28422183,0.0,0.0,0.0
584,5.840000954,7.6695943,-2.0222726,1.217221625,0.0,0.0,0.0
585,5.850000954,7.6695943,-2.0222726,2.23666,0.0,0.0,0.0
586,5.860000954,7.969932,-0.81652737,4.632523,0.0,0.0,0.0
587,5.870000954,7.969932,-0.81652737,4.632523,0.0,0.0,0.0
588,5.880000954,7.969932,-0.81652737,4.632523,0.0,0.0,0.0
589,5.890000954,7.79827565,1.48007795,7.7484641000000005,0.0,0.0,0.0
590,5.900000954,7.2833066,1.2321163,7.2276344,0.0,0.0,0.0
591,5.910000954,6.5805655,0.6119072,7.2276344,0.0,0.0,0.0
592,5.920000954,6.5805655,0.6119072,7.2276344,0.0,0.0,0.0
593,5.930000954,6.5805655,0.6119072,7.2276344,0.0,0.0,0.0
594,5.940000954,4.0988746,-0.9953259000000001,1.1161933625,0.0,0.0,0.0
595,5.950000954,3.15696245,-1.465488425,-0.8242799999999999,0.0,0.0,0.0
596,5.960000954,1.6989825,-2.0496204,-1.2716731,0.0,0.0,0.0
597,5.970000954,1.6989825,-2.0496204,-1.2716731,0.0,0.0,0.0
598,5.980000954,1.6989825,-2.0496204,-1.2716731,0.0,0.0,0.0
599,5.990000954,0.2634668325,-2.524605425,-0.70469439375,0.0,0.0,0.0
600,6.000000954,-0.8820365114285714,-2.7608028142857144,-0.2373399,0.0,0.0,0.0
601,6.010000954,-1.406947,-2.7440593,-0.2373399,0.0,0.0,0.0
602,6.020000954,-1.406947,-2.7440593,-0.2373399,0.0,0.0,0.0
603,6.030000954,-1.406947,-2.7440593,-0.2373399,0.0,0.0,0.0
604,6.040000954,-1.966600325,-2.7606633375,0.4391520425,0.0,0.0,0.0
605,6.050000954,-2.8627294,-2.9137622,1.7370740500000001,0.0,0.0,0.0
606,6.060000954,-3.724246325,-3.1679503749999998,2.0608525,0.0,0.0,0.0
607,6.070000954,-3.8072054,-3.1889496,2.0608525,0.0,0.0,0.0
608,6.080000954,-3.8072054,-3.1889496,2.0608525,0.0,0.0,0.0
609,6.090000954,-3.9436390875,-3.4938654749999998,2.6096399375,0.0,0.0,0.0
610,6.100000954,-3.9230671375,-3.7011716125,2.7964962625,0.0,0.0,0.0
611,6.110000954,-3.206042,-3.8716679,1.7995833,0.0,0.0,0.0
612,6.120000954,-1.51633822,-3.77619495,1.03677485,0.0,0.0,0.0
613,6.130000954,0.17336556,-3.680722,0.2739664,0.0,0.0,0.0
614,6.140000954,0.585963375,-3.6309098125,-0.10511813750000001,0.0,0.0,0.0
615,6.150000954,3.0043518999999996,-3.167462,-0.57698988,0.0,0.0,0.0
616,6.160000954,4.7350774,-2.7870345,-0.41705406,0.0,0.0,0.0
617,6.170000954,6.417761212499999,-2.021234875,1.2488424774999998,0.0,0.0,0.0
618,6.180000954,7.4273715,-1.5617551,2.2483804,0.0,0.0,0.0
619,6.190000954,7.4951915625,-1.3266128000000001,2.6956512999999998,0.0,0.0,0.0
620,6.200000954,7.969932,0.4578926125,5.9602344375,0.0,0.0,0.0
621,6.210000954,7.969932,1.4274578000000002,6.8960423,0.0,0.0,0.0
622,6.220000954,7.8587095,1.519146225,6.914599725,0.0,0.0,0.0
623,6.230000954,6.3153896,1.0567974,5.6981106,0.0,0.0,0.0
624,6.240000954,6.3153896,1.0567974,5.6981106,0.0,0.0,0.0
625,6.250000954,6.078468299999999,0.8890130228571429,5.2237099,0.0,0.0,0.0
626,6.260000954,4.6569405,-0.11769324,1.117170075,0.0,0.0,0.0
627,6.270000954,4.1081531875,-0.50318744,0.34196966,0.0,0.0,0.0
628,6.280000954,3.7788808,-0.73448396,-0.015138964,0.0,0.0,0.0
629,6.290000954,3.7788808,-0.73448396,-0.015138964,0.0,0.0,0.0
630,6.300000954,0.8248294,-2.0808752,-0.9331828875,0.0,0.0,0.0
631,6.310000954,0.722885565,-2.1149988875,-0.9630945175,0.0,0.0,0.0
632,6.320000954,-0.0921767525,-2.387072775,-0.93617404,0.0,0.0,0.0
633,6.330000954,-0.39654317,-2.486697,-0.93617404,0.0,0.0,0.0
634,6.340000954,-0.39654317,-2.486697,-0.93617404,0.0,0.0,0.0
635,6.350000954,-1.3717855,-2.4515355,-0.38970622,0.0,0.0,0.0
636,6.360000954,-1.3717855,-2.4515355,-0.38970622,0.0,0.0,0.0
637,6.370000954,-1.805809875,-2.4876126750000003,0.49183321249999995,0.0,0.0,0.0
638,6.380000954,-2.5936463,-2.6932707,1.0191941,0.0,0.0,0.0
639,6.390000954,-2.5936463,-2.6932707,1.0191941,0.0,0.0,0.0
640,6.400000954,-3.3631695500000003,-2.56178145,1.908852425,0.0,0.0,0.0
641,6.410000954,-3.6196773,-2.5179517,2.5160592499999996,0.0,0.0,0.0
642,6.420000954,-3.4421608125,-2.4979291375,2.4682615875,0.0,0.0,0.0
643,6.430000954,-2.8275678,-2.5492063,2.16243,0.0,0.0,0.0
644,6.440000954,-2.8275678,-2.5492062999999994,2.16243,0.0,0.0,0.0
645,6.450000954,-2.8275678,-2.5492063,2.16243,0.0,0.0,0.0
646,6.460000954,-1.4264811,-2.732339,0.94105756,0.0,0.0,0.0
647,6.470000954,-1.232360525,-2.7206185,0.61618027,0.0,0.0,0.0
648,6.480000954,-0.6499988,-2.685457,-0.3584516,0.0,0.0,0.0
649,6.490000954,-0.6499988,-2.685457,-0.3584516,0.0,0.0,0.0
650,6.500000954,0.8991812749999999,-2.407461625,-0.6979794825,0.0,0.0,0.0
651,6.510000954,3.7866948,-1.8620926,-0.24124672,0.0,0.0,0.0
652,6.520000954,5.71447075,-1.05240219,0.5664902900000001,0.0,0.0,0.0
653,6.530000954,7.6422467,-0.24271178,1.3742273,0.0,0.0,0.0
654,6.540000954,7.6422467,-0.24271178,1.3742273,0.0,0.0,0.0
655,6.550000954,7.888010675,0.6073899175,4.8072315875,0.0,0.0,0.0
656,6.560000954,7.969932,1.4040169,6.444742625,0.0,0.0,0.0
657,6.570000954,6.97784145,1.3941276125,5.949490625,0.0,0.0,0.0
658,6.580000954,5.679553,0.89661735,4.9523945,0.0,0.0,0.0
659,6.590000954,5.679553,0.89661735,4.9523945,0.0,0.0,0.0
660,6.600000954,5.679553,0.89661735,4.534852225,0.0,0.0,0.0
661,6.610000954,4.133914,-0.13332056,1.6667513,0.0,0.0,0.0
662,6.620000954,3.77991865,-0.301619435,0.8151845000000001,0.0,0.0,0.0
663,6.630000954,2.6792479428571427,-0.8285268857142858,-0.7423673571428572,0.0,0.0,0.0
664,6.640000954,1.4025518,-1.4445502,-1.088052,0.0,0.0,0.0
665,6.650000954,1.2117682888888888,-1.5477556,-1.1245157555555556,0.0,0.0,0.0
666,6.660000954,0.544026,-1.9089745,-1.1271203,0.0,0.0,0.0
667,6.670000954,-0.06324178874999997,-2.1607819,-0.79070568875,0.0,0.0,0.0
668,6.680000954,-0.7398558,-2.3929331,-0.49909747,0.0,0.0,0.0
669,6.690000954,-0.7398558,-2.3929331,-0.49909747,0.0,0.0,0.0
670,6.700000954,-0.85645025,-2.3748640125,-0.38543314875,0.0,0.0,0.0
671,6.710000954,-1.6726114,-2.2483804,0.9566849,0.0,0.0,0.0
672,6.720000954,-1.9224042000000001,-2.2405667,1.25311555,0.0,0.0,0.0
673,6.730000954,-3.2568307,-2.2757282,2.2210326,0.0,0.0,0.0
674,6.740000954,-3.2568307,-2.2757282,2.2210326,0.0,0.0,0.0
675,6.750000954,-3.2568307,-2.2757282,2.2210326,0.0,0.0,0.0
676,6.760000954,-3.8697147,-2.3108897,2.18587125,0.0,0.0,0.0
677,6.770000954,-3.707860342857143,-2.3973980571428575,1.9378572142857142,0.0,0.0,0.0
678,6.780000954,-3.6431186,-2.4320014,1.8542789,0.0,0.0,0.0
679,6.790000954,-2.99531745,-2.5352882,1.38790115,0.0,0.0,0.0
680,6.800000954,-2.3475163,-2.638575,0.9215234,0.0,0.0,0.0
681,6.810000954,-0.858769985,-2.6556674250000003,0.0814329775,0.0,0.0,0.0
682,6.820000954,-0.24613026000000002,-2.5704497,-0.17507480000000003,0.0,0.0,0.0
683,6.830000954,0.15383142,-2.4827902,-0.31156966,0.0,0.0,0.0
684,6.840000954,1.5024200775,-1.9567721375,-0.38677612,0.0,0.0,0.0
685,6.850000954,1.6950756,-1.8816267,-0.3975199,0.0,0.0,0.0
686,6.860000954,3.653129625,-1.436980725,-0.37114879,0.0,0.0,0.0
687,6.870000954,5.6798584375,-0.63608069375,0.6838782375,0.0,0.0,0.0
688,6.880000954,5.878313,-0.7305771,0.6485337,0.0,0.0,0.0
689,6.890000954,5.878313,-0.7305771,0.6485337,0.0,0.0,0.0
690,6.900000954,5.878313,-0.7305771,0.6485337,0.0,0.0,0.0
691,6.910000954,7.185574875,0.83276515,4.7091947,0.0,0.0,0.0
692,6.920000954,7.2944779375,1.41488275,7.1577998625,0.0,0.0,0.0
693,6.930000954,6.007239,0.6548823,5.4637012,0.0,0.0,0.0
694,6.940000954,5.19944085,0.23495917500000002,2.7856915125,0.0,0.0,0.0
695,6.950000954,3.8531106,-0.4649127,1.2413951,0.0,0.0,0.0
696,6.960000954,3.8531106,-0.4649127,1.2413951,0.0,0.0,0.0
697,6.970000954,2.6004832,-1.0348215,-1.3732506,0.0,0.0,0.0
698,6.980000954,1.3100087875000002,-1.605279675,-1.6179767375,0.0,0.0,0.0
699,6.990000954,0.9202676714285715,-1.7891885,-1.4411316714285716,0.0,0.0,0.0
700,7.000000954,0.76622695,-1.8659996,-1.3224617,0.0,0.0,0.0
701,7.010000954,0.72526628375,-1.8904172750000001,-1.3224617,0.0,0.0,0.0
702,7.020000954,0.305831505,-2.120798,-1.1897516000000001,0.0,0.0,0.0
703,7.030000954,-0.9995378850000001,-2.4427452499999998,-0.5751585499999999,0.0,0.0,0.0
704,7.040000954,-1.3019509,-2.490604,-0.39861869749999995,0.0,0.0,0.0
705,7.050000954,-1.3019509,-2.490604,-0.08546189,0.0,0.0,0.0
706,7.060000954,-1.435576675,-2.4940224625,-0.01861847875,0.0,0.0,0.0
707,7.070000954,-2.8534505125000003,-2.5812544875,0.906384425,0.0,0.0,0.0
708,7.080000954,-3.7837641,-2.7088978,1.8113037,0.0,0.0,0.0
709,7.090000954,-3.7837641,-2.7088978,1.9941312,0.0,0.0,0.0
710,7.100000954,-3.7837641,-2.7088978,2.1038277,0.0,0.0,0.0
711,7.110000954,-3.7837641,-2.7088978,2.1038277,0.0,0.0,0.0
712,7.120000954,-2.5871759125000002,-2.6151338875000003,1.7824299375000001,0.0,0.0,0.0
713,7.130000954,-2.1175017,-2.6522488500000003,1.3625068,0.0,0.0,0.0
714,7.140000954,-1.16576132375,-2.66787625,0.8445466374999999,0.0,0.0,0.0
715,7.150000954,-0.21682903,-2.638575,0.6250927,0.0,0.0,0.0
716,7.160000954,-0.21682903,-2.638575,0.6250927,0.0,0.0,0.0
717,7.170000954,1.3701809914285714,-2.3589576,-0.4019150814285714,0.0,0.0,0.0
718,7.180000954,2.971144,-2.0769682,-1.2208842,0.0,0.0,0.0
719,7.190000954,4.179819325,-1.791464425,-1.7597215,0.0,0.0,0.0
720,7.200000954,6.1942782,-1.3156248,-1.5720105,0.0,0.0,0.0
721,7.210000954,6.1942782,-1.3156248,-1.34028668,0.0,0.0,0.0
722,7.220000954,7.50843785,-0.389095805,3.249261315,0.0,0.0,0.0
723,7.230000954,7.969932,1.2282095,6.0648646,0.0,0.0,0.0
724,7.240000954,7.969932,1.2282095,6.0648646,0.0,0.0,0.0
725,7.250000954,7.969932,1.2282095,6.0648646,0.0,0.0,0.0
726,7.260000954,7.969932,1.2282095,6.0648646,0.0,0.0,0.0
727,7.270000954,6.596402285714285,1.1374454857142857,5.645647885714285,0.0,0.0,0.0
728,7.280000954,5.188635625,0.7268534325,3.1416404025,0.0,0.0,0.0
729,7.290000954,4.55927,0.38531107,0.26615274,0.0,0.0,0.0
730,7.300000954,4.55927,0.38531107,0.26615274,0.0,0.0,0.0
731,7.310000954,4.55927,0.38531107,0.26615274,0.0,0.0,0.0
732,7.320000954,3.0749799537499998,-0.34520503625,-0.9022334475,0.0,0.0,0.0
733,7.330000954,0.4437739514285714,-1.6774948857142857,-1.2709753,0.0,0.0,0.0
734,7.340000954,0.231968,-1.7878628,-1.0958656,0.0,0.0,0.0
735,7.350000954,0.231968,-1.7878628,-1.0958656,0.0,0.0,0.0
736,7.360000954,0.231968,-1.7878628,-1.0958656,0.0,0.0,0.0
737,7.370000954,-0.611479925,-2.0361296125,-0.71452246575,0.0,0.0,0.0
738,7.380000954,-1.2863237,-2.1780574,0.012208842,0.0,0.0,0.0
739,7.390000954,-1.3540827625,-2.1678630125000002,0.12831493175,0.0,0.0,0.0
740,7.400000954,-1.8283962,-2.0965023,0.5898091675,0.0,0.0,0.0
741,7.410000954,-1.8283962,-2.0965023,0.47272637,0.0,0.0,0.0
742,7.420000954,-2.0001746,-2.148145725,0.8229980275,0.0,0.0,0.0
743,7.430000954,-2.9525864,-2.373399,2.299169,0.0,0.0,0.0
744,7.440000954,-3.5063794,-2.4632561,2.408072,0.0,0.0,0.0
745,7.450000954,-3.20787325,-2.5158151625,1.8887078750000001,0.0,0.0,0.0
746,7.460000954,-2.710363,-2.6034136,1.023101,0.0,0.0,0.0
747,7.470000954,-2.4362745,-2.6263662,0.9337933162500001,0.0,0.0,0.0
748,7.480000954,-1.2160007,-2.685457,0.30863953,0.0,0.0,0.0
749,7.490000954,-0.45514563,-2.5218585,-0.62362766,0.0,0.0,0.0
750,7.500000954,-0.45514563,-2.5218585,-0.62362766,0.0,0.0,0.0
751,7.510000954,-0.45514563,-2.5218585,-0.62362766,0.0,0.0,0.0
752,7.520000954,0.17849326875000002,-2.4412801125,-0.6778349375,0.0,0.0,0.0
753,7.530000954,2.8695662,-2.0183659,-0.95961493,0.0,0.0,0.0
754,7.540000954,5.2695193875,-1.2037308375,0.84790408875,0.0,0.0,0.0
755,7.550000954,6.7094913,-0.7149498,1.9324155,0.0,0.0,0.0
756,7.560000954,7.4972667375,0.15584586875000003,4.4761276875,0.0,0.0,0.0
757,7.570000954,7.92945975,0.80071692375,5.7213685,0.0,0.0,0.0
758,7.580000954,7.646154,1.6574724999999997,7.3448396,0.0,0.0,0.0
759,7.590000954,6.9695395,1.51664345,6.6560167,0.0,0.0,0.0
760,7.600000954,5.8894231,1.0730961125,3.8359571874999996,0.0,0.0,0.0
761,7.610000954,5.3552866,0.7950398,2.5799725,0.0,0.0,0.0
762,7.620000954,5.3552866,0.7950398,2.5799725,0.0,0.0,0.0
763,7.630000954,3.2966315625,-0.44305891875000003,-0.0314377625,0.0,0.0,0.0
764,7.640000954,3.127417,-0.55867666,-0.16701695,0.0,0.0,0.0
765,7.650000954,2.8532064,-0.768424545,-0.3699279125,0.0,0.0,0.0
766,7.660000954,2.0305746,-1.3976682,-0.9786608,0.0,0.0,0.0
767,7.670000954,2.0305746,-1.3976682,-0.9786608,0.0,0.0,0.0
768,7.680000954,2.0305746,-1.3976682,-0.9786608,0.0,0.0,0.0
769,7.690000954,1.758439525,-1.58397515,-0.9143202,0.0,0.0,0.0
770,7.700000954,0.9420343,-2.142896,-0.7212984,0.0,0.0,0.0
771,7.710000954,0.9420343,-2.142896,-0.7212984,0.0,0.0,0.0
772,7.720000954,0.9420343,-2.142896,-0.7212984,0.0,0.0,0.0
773,7.730000954,0.5537931,-2.2776816,-0.6998108350000001,0.0,0.0,0.0
774,7.740000954,-1.9807626,-2.2952623,-0.12843701,0.0,0.0,0.0
775,7.750000954,-2.2884252857142857,-2.466046642857143,0.5073994557142857,0.0,0.0,0.0
776,7.760000954,-2.9220643500000003,-2.506231175,1.6491703500000001,0.0,0.0,0.0
777,7.770000954,-3.116185,-2.510138,1.9944364,0.0,0.0,0.0
778,7.780000954,-3.0948195000000003,-2.4954873749999997,1.9623272,0.0,0.0,0.0
779,7.790000954,-2.9185237500000003,-2.446651975,1.6630886,0.0,0.0,0.0
780,7.800000954,-2.3726053875,-2.4378616375,0.8538253625000001,0.0,0.0,0.0
781,7.810000954,-2.0237377,-2.4476287,0.5196083,0.0,0.0,0.0
782,7.820000954,-2.0237377,-2.4476287,0.5196083,0.0,0.0,0.0
783,7.830000954,-2.0237377,-2.4476287,0.5196083,0.0,0.0,0.0
784,7.840000954,1.3185550075,-2.1509538,-0.9261628,0.0,0.0,0.0
785,7.850000954,2.588763,-1.9949248,-1.0567974,0.0,0.0,0.0
786,7.860000954,4.204237,-1.5773824,-1.1388408,0.0,0.0,0.0
787,7.870000954,4.204237,-1.5773824,-1.1388408,0.0,0.0,0.0
788,7.880000954,5.325191875,-1.0768809175,0.5893818,0.0,0.0,0.0
789,7.890000954,7.2607817500000005,-0.061715707499999994,3.6668035750000003,0.0,0.0,0.0
790,7.900000954,7.672097624999999,1.2467058249999998,5.13149875,0.0,0.0,0.0
791,7.910000954,7.252053,1.536849,5.728877,0.0,0.0,0.0
792,7.920000954,7.252053,1.536849,5.728877,0.0,0.0,0.0
793,7.930000954,7.252053,1.536849,5.8285011749999995,0.0,0.0,0.0
794,7.940000954,5.9486365,1.4313647,5.18326385,0.0,0.0,0.0
795,7.950000954,5.451980714285715,1.1103070142857143,4.519922657142858,0.0,0.0,0.0
796,7.960000954,4.789773,0.6822301,2.3226101,0.0,0.0,0.0
797,7.970000954,4.789773,0.6822301,2.3226101,0.0,0.0,0.0
798,7.980000954,4.5273439375,0.5080709699999999,2.0601810425,0.0,0.0,0.0
799,7.990000954,2.426812625,-0.8895972625,-0.05060563749999997,0.0,0.0,0.0
800,8.000000954,1.99565735,-1.16374682,-0.17678403,0.0,0.0,0.0
801,8.010000954,1.3009742,-1.6164507,-0.5767457,0.0,0.0,0.0
802,8.020000954,-0.08448519,-2.3538647,-0.5767457,0.0,0.0,0.0
803,8.030000954,-0.08448519,-2.3538647,-0.5767457,0.0,0.0,0.0
804,8.040000954,-1.28499805,-2.5020452428571427,-0.3305456714285714,0.0,0.0,0.0
805,8.050000954,-2.5233235,-2.4593492,0.02783616,0.0,0.0,0.0
806,8.060000954,-2.5233235,-2.4593492,0.53914243,0.0,0.0,0.0
807,8.070000954,-3.1070282999999996,-2.4661861000000003,1.0681515662499999,0.0,0.0,0.0
808,8.080000954,-3.1904147,-2.4671628,1.1437243,0.0,0.0,0.0
809,8.090000954,-3.3017591,-2.505254475,2.1769585250000003,0.0,0.0,0.0
810,8.100000954,-3.2255762,-2.4554424,2.3710792,0.0,0.0,0.0
811,8.110000954,-3.2255762,-2.4554424,2.2601008,0.0,0.0,0.0
812,8.120000954,-2.13697475,-2.4862088,1.5536361749999998,0.0,0.0,0.0
813,8.130000954,-1.3644602,-2.490604,1.1398175,0.0,0.0,0.0
814,8.140000954,-0.8112165162499999,-2.3252351499999997,0.3087616175,0.0,0.0,0.0
815,8.150000954,0.2639551675,-1.986134425,-0.47260426,0.0,0.0,0.0
816,8.160000954,0.7232518,-1.7956765,-0.9439876,0.0,0.0,0.0
817,8.170000954,0.7232518,-1.7956765,-1.163380525,0.0,0.0,0.0
818,8.180000954,0.7232518,-1.7956765,-1.2365115,0.0,0.0,0.0
819,8.190000954,2.4388994125,-1.424466675,-1.2149628875,0.0,0.0,0.0
820,8.200000954,6.1244435,-0.28568693,0.35185879999999997,0.0,0.0,0.0
821,8.210000954,7.818053999999999,0.41265884,1.3625066999999997,0.0,0.0,0.0
822,8.220000954,7.9319625,0.90455306,3.197495625,0.0,0.0,0.0
823,8.230000954,7.969932,1.0685178,3.8091586,0.0,0.0,0.0
824,8.240000954,7.969932,1.2500022375,4.7955110125000004,0.0,0.0,0.0
825,8.250000954,7.1767845,1.34462078625,6.047161675,0.0,0.0,0.0
826,8.260000954,5.854872,0.99819493,5.3933783,0.0,0.0,0.0
827,8.270000954,5.31939225,0.5942043625,4.331208800000001,0.0,0.0,0.0
828,8.280000954,5.140899,0.45954084,3.9771523,0.0,0.0,0.0
829,8.290000954,4.772959457142858,0.235595784,2.741268742857143,0.0,0.0,0.0
830,8.300000954,3.978006975,-0.2542491335,0.9177997925,0.0,0.0,0.0
831,8.310000954,2.25521735,-1.3412633999999999,-0.04224259500000001,0.0,0.0,0.0
832,8.320000954,1.8528139000000001,-1.572498875,-0.34288533,0.0,0.0,0.0
833,8.330000954,0.2593158,-2.4359083,-0.64316183,0.0,0.0,0.0
834,8.340000954,0.2593158,-2.4359083,-0.64365017625,0.0,0.0,0.0
835,8.350000954,-1.2902304,-2.5877862,-0.47956333,0.0,0.0,0.0
836,8.360000954,-1.2902304,-2.5877862,-0.47956333,0.0,0.0,0.0
837,8.370000954,-1.7022789,-2.539256075,-0.047675529999999994,0.0,0.0,0.0
838,8.380000954,-1.949508,-2.510138,0.21145715,0.0,0.0,0.0
839,8.390000954,-2.05975385,-2.5120914,0.26462665625000004,0.0,0.0,0.0
840,8.400000954,-3.29724205,-2.5620866375,1.51462895,0.0,0.0,0.0
841,8.410000954,-3.7407893125,-2.5091001625000002,2.772017425,0.0,0.0,0.0
842,8.420000954,-3.6553969428571427,-2.4733021857142856,2.876403,0.0,0.0,0.0
843,8.430000954,-3.231314275,-2.5072079,2.739053775,0.0,0.0,0.0
844,8.440000954,-3.1044645,-2.5218585,2.6932707,0.0,0.0,0.0
845,8.450000954,-1.6635768875,-2.6171485375,1.4165919875,0.0,0.0,0.0
846,8.460000954,-0.5332822,-2.4593492,0.38677612,0.0,0.0,0.0
847,8.470000954,0.37389579999999994,-2.148878325,-0.55904289125,0.0,0.0,0.0
848,8.480000954,1.0357982,-1.9206952,-1.2599525,0.0,0.0,0.0
849,8.490000954,1.0357982,-1.9206952,-1.2599525,0.0,0.0,0.0
850,8.500000954,3.7244293375,-1.3578063999999999,-1.5551013375,0.0,0.0,0.0
851,8.510000954,5.409982,-0.8595025,-1.2013501000000002,0.0,0.0,0.0
852,8.520000954,6.689957,-0.17067962999999997,0.7772148000000001,0.0,0.0,0.0
853,8.530000954,5.409982,-0.8595025,0.45709905,0.0,0.0,0.0
854,8.540000954,5.409982,-0.8595025,0.45709905,0.0,0.0,0.0
855,8.550000954,7.647923875,1.0718142775000001,5.82563225,0.0,0.0,0.0
856,8.560000954,6.710346,1.4484570125,6.60016125,0.0,0.0,0.0
857,8.570000954,6.3172213625,1.343644125,5.6598362875,0.0,0.0,0.0
858,8.580000954,5.8392453,1.158375,4.6442437,0.0,0.0,0.0
859,8.590000954,5.8392453,1.158375,4.6442437,0.0,0.0,0.0
860,8.600000954,5.356385425,0.8925274375,4.6442437,0.0,0.0,0.0
861,8.610000954,3.3519986875,-0.3597335475,0.901867195,0.0,0.0,0.0
862,8.620000954,2.712560625,-0.725571475,0.19167883000000002,0.0,0.0,0.0
863,8.630000954,2.2181025,-1.0035667,-0.33501062,0.0,0.0,0.0
864,8.640000954,2.2181025,-1.0035667,-0.33501062,0.0,0.0,0.0
865,8.650000954,1.2760682025,-1.52988995,-0.477365715,0.0,0.0,0.0
866,8.660000954,0.34868452,-2.0300863,-0.44440186,0.0,0.0,0.0
867,8.670000954,0.34868452,-2.0300863,-0.44440186,0.0,0.0,0.0
868,8.680000954,-0.6773466,-2.2483804,-0.29984915,0.0,0.0,0.0
869,8.690000954,-0.6773466,-2.2483804,-0.29984915,0.0,0.0,0.0
870,8.700000954,-0.798336225,-2.2610775999999997,-0.22128525500000001,0.0,0.0,0.0
871,8.710000954,-1.937909625,-2.470093,0.28239051,0.0,0.0,0.0
872,8.720000954,-2.0354583,-2.510138,0.8171378100000001,0.0,0.0,0.0
873,8.730000954,-2.7924063,-2.2718213,1.6628443,0.0,0.0,0.0
874,8.740000954,-2.7924063,-2.2718213,1.6628443,0.0,0.0,0.0
875,8.750000954,-2.8480786,-2.189899975,2.0077440625,0.0,0.0,0.0
876,8.760000954,-3.0150955,-1.944136,2.4432335000000003,0.0,0.0,0.0
877,8.770000954,-2.63735405,-2.05731195,1.992605125,0.0,0.0,0.0
878,8.780000954,-1.9026259,-2.2874486,1.4445502,0.0,0.0,0.0
879,8.790000954,-1.9026259,-2.2874486,1.4445502,0.0,0.0,0.0
880,8.800000954,-1.9026259,-2.2874486,1.4445502,0.0,0.0,0.0
881,8.810000954,0.16640651999999997,-2.1917313000000003,-0.3411761025,0.0,0.0,0.0
882,8.820000954,1.245301945,-1.989919175,-1.35237344,0.0,0.0,0.0
883,8.830000954,2.050109,-1.8073971,-1.9192299,0.0,0.0,0.0
884,8.840000954,2.050109,-1.8073971,-1.9192299,0.0,0.0,0.0
885,8.850000954,2.050109,-1.8073971,-1.9192299,0.0,0.0,0.0
886,8.860000954,4.833175387500001,-0.95406,0.48096734,0.0,0.0,0.0
887,8.870000954,7.285138075,0.3475857525,2.48047054,0.0,0.0,0.0
888,8.880000954,7.852727,1.1427476,4.866933,0.0,0.0,0.0
889,8.890000954,7.852727,1.1427476,5.6724111,0.0,0.0,0.0
890,8.900000954,7.852727,1.1427476,5.7874794,0.0,0.0,0.0
891,8.910000954,5.91738175,1.3512746500000001,5.63145045,0.0,0.0,0.0
892,8.920000954,5.601417,1.2438368,5.0227175,0.0,0.0,0.0
893,8.930000954,3.9270961250000003,0.33464438399999996,2.796435425,0.0,0.0,0.0
894,8.940000954,3.3535247,0.065439396,1.4562707,0.0,0.0,0.0
895,8.950000954,3.3535247,0.065439396,1.4562707,0.0,0.0,0.0
896,8.960000954,2.7760463499999997,-0.192167167,0.38506686999999995,0.0,0.0,0.0
897,8.970000954,2.198568,-0.44977373,-0.68613696,0.0,0.0,0.0
898,8.980000954,2.0951591499999997,-0.51020750125,-0.965047945,0.0,0.0,0.0
899,8.990000954,1.0566753125000001,-1.1059379625,-0.99398287625,0.0,0.0,0.0
900,9.000000954,0.5323055,-1.3937614,-0.83068967,0.0,0.0,0.0
901,9.010000954,0.09901370749999999,-1.5490579,-0.83068967,0.0,0.0,0.0
902,9.020000954,-0.63785097375,-1.735670075,-0.7071971925,0.0,0.0,0.0
903,9.030000954,-1.2042803,-1.7917696,-0.49909747,0.0,0.0,0.0
904,9.040000954,-1.2042803,-1.7917696,-0.49909747,0.0,0.0,0.0
905,9.050000954,-1.2042803,-1.7917696,-0.49909747,0.0,0.0,0.0
906,9.060000954,-1.35640245,-1.826931075,-0.4629592925,0.0,0.0,0.0
907,9.070000954,-1.9436476,-1.9812509,-0.098891615,0.0,0.0,0.0
908,9.080000954,-2.4144815875,-1.9719722124999999,0.48548462125,0.0,0.0,0.0
909,9.090000954,-2.6405283125,-1.749099725,1.0682125875,0.0,0.0,0.0
910,9.100000954,-2.6244125,-1.7024009,1.1632584,0.0,0.0,0.0
911,9.110000954,-2.5572029,-1.6628442875,1.188164475,0.0,0.0,0.0
912,9.120000954,-2.257903275,-1.567615375,1.10477814,0.0,0.0,0.0
913,9.130000954,-1.6960524,-1.4797117,0.848819765,0.0,0.0,0.0
914,9.140000954,-1.6960524,-1.4797117,0.5860244,0.0,0.0,0.0
915,9.150000954,-1.6960524,-1.4797117,0.5860244,0.0,0.0,0.0
916,9.160000954,-1.3985229,-1.4806884,0.4943360025,0.0,0.0,0.0
917,9.170000954,1.26190595,-1.2708794375,-0.64529833375,0.0,0.0,0.0
918,9.180000954,2.8578458,-1.023101,-1.3498095,0.0,0.0,0.0
919,9.190000954,2.8578458,-1.023101,-1.3498095,0.0,0.0,0.0
920,9.200000954,2.8578458,-1.023101,-1.3498095,0.0,0.0,0.0
921,9.210000954,3.9925354750000004,-0.5421946910000001,0.4911617749999999,0.0,0.0,0.0
922,9.220000954,4.800943875000001,0.17141214575,3.0600243,0.0,0.0,0.0
923,9.230000954,4.738984,0.18655111,3.0600243,0.0,0.0,0.0
924,9.240000954,3.9468746,0.2920355,3.8794816,0.0,0.0,0.0
925,9.250000954,3.9468746,0.2920355,3.8794816,0.0,0.0,0.0
926,9.260000954,3.790296175,0.288617025,3.8667844000000002,0.0,0.0,0.0
927,9.270000954,2.186848,0.2256194,3.2705047,0.0,0.0,0.0
928,9.280000954,2.186848,0.2256194,3.010090075,0.0,0.0,0.0
929,9.290000954,1.985035675,0.09083378525000001,2.1449715,0.0,0.0,0.0
930,9.300000954,1.9177649,0.045905247,1.8855336,0.0,0.0,0.0
931,9.310000954,1.8675342142857143,0.014790141000000003,1.8855336,0.0,0.0,0.0
932,9.320000954,1.3451091750000002,-0.26603067175,1.1761998125,0.0,0.0,0.0
933,9.330000954,0.7002992,-0.503981,0.7886912,0.0,0.0,0.0
934,9.340000954,0.7002992,-0.503981,0.7886912,0.0,0.0,0.0
935,9.350000954,0.044684375,-0.460395455,0.431582555,0.0,0.0,0.0
936,9.360000954,-0.1738539,-0.44586694,0.31254634,0.0,0.0,0.0
937,9.370000954,-0.27738490625,-0.2197591575,0.24899933375,0.0,0.0,0.0
938,9.380000954,-0.2549816875,-0.16701695875,0.2485720275,0.0,0.0,0.0
939,9.390000954,-0.08448519,-0.15676153,0.26224595,0.0,0.0,0.0
940,9.400000954,-0.08448519,-0.15676153,0.26224595,0.0,0.0,0.0
941,9.410000954,-0.08448519,-0.15676153,0.26224595,0.0,0.0,0.0
942,9.420000954,0.20923242333333333,-0.054912661366666664,0.6573783455555555,0.0,0.0,0.0
943,9.430000954,0.20071337,-0.07862495,0.9215234,0.0,0.0,0.0
944,9.440000954,0.20071337,-0.07862495,0.9215234,0.0,0.0,0.0
945,9.450000954,0.02099921,-0.07471810999999999,0.9019892,0.0,0.0,0.0
946,9.460000954,0.02099921,-0.07471811,0.9019892,0.0,0.0,0.0
947,9.470000954,0.030766281875000002,-0.09425226,0.8238526625,0.0,0.0,0.0
948,9.480000954,-0.051032957500000004,-0.0710554615,0.7867378,0.0,0.0,0.0
949,9.490000954,-0.13869244,-0.036138173,0.79650486,0.0,0.0,0.0
950,9.500000954,0.0017702862500000027,0.06641610437499999,0.761526525,0.0,0.0,0.0
951,9.510000954,0.23587483,0.2373399,0.7032293,0.0,0.0,0.0
952,9.520000954,0.24808366375000002,0.26761782624999997,0.71324056125,0.0,0.0,0.0
953,9.530000954,0.29447725,0.33891746,0.71446145,0.0,0.0,0.0
954,9.540000954,0.29447725,0.33891746,0.8004117,0.0,0.0,0.0
955,9.550000954,0.32591503125000004,0.36547170375,0.8419217625,0.0,0.0,0.0
956,9.560000954,0.3447777,0.38140425,0.8668278,0.0,0.0,0.0
957,9.570000954,0.36235843125,0.40338016875,0.90491938875,0.0,0.0,0.0
958,9.580000954,0.40114766571428573,0.45228529999999995,0.9628241885714287,0.0,0.0,0.0
959,9.590000954,0.45807576,0.5015392249999999,0.9293371,0.0,0.0,0.0
960,9.600000954,0.42047252125,0.5313288025,0.9737772475,0.0,0.0,0.0
961,9.610000954,0.41510063,0.5376774,0.98012584,0.0,0.0,0.0
962,9.620000954,0.38006124750000003,0.526933625,0.9615683975,0.0,0.0,0.0
963,9.630000954,0.2749431,0.4947023,0.90589607,0.0,0.0,0.0
964,9.640000954,0.26273426875,0.4947023,0.81585587125,0.0,0.0,0.0
965,9.650000954,0.245153545,0.5005625375,0.76347994375,0.0,0.0,0.0
966,9.660000954,0.24173508375,0.506911115,0.8160390025,0.0,0.0,0.0
967,9.670000954,0.247106975,0.5054460525,0.82385266,0.0,0.0,0.0
968,9.680000954,0.2593158,0.502516,0.7524135285714285,0.0,0.0,0.0
969,9.690000954,0.2593158,0.502516,0.7222751,0.0,0.0,0.0
970,9.700000954,0.237828245,0.490795475,0.76891285,0.0,0.0,0.0
971,9.710000954,0.21634069,0.47907495,0.8155506,0.0,0.0,0.0
972,9.720000954,0.21194550625,0.47174965875,0.8221434,0.0,0.0,0.0
973,9.730000954,0.16945873,0.43609983,0.8499185225,0.0,0.0,0.0
974,9.740000954,0.1606683625,0.43023958125,0.857915315,0.0,0.0,0.0
975,9.750000954,0.1479711675,0.41558896500000003,0.86817078,0.0,0.0,0.0
976,9.760000954,0.15383142,0.40093836,0.8824551,0.0,0.0,0.0
977,9.770000954,0.15383142,0.40093836,0.8824551000000002,0.0,0.0,0.0
978,9.780000954,0.17434226,0.428286205,0.8811121375000001,0.0,0.0,0.0
979,9.790000954,0.17727238,0.43219304,0.8814784,0.0,0.0,0.0
980,9.800000954,0.1748306175,0.43219304,0.878426175,0.0,0.0,0.0
981,9.810000954,0.15773824,0.38140425,0.88636196,0.0,0.0,0.0
982,9.820000954,0.15578482375,0.38140425,0.8868503075,0.0,0.0,0.0
983,9.830000954,0.137227375,0.3901946125,0.8919779925,0.0,0.0,0.0
984,9.840000954,0.12257677,0.4165657,0.89710575,0.0,0.0,0.0
985,9.850000954,0.17206328333333334,0.4087520333333334,0.89580347,0.0,0.0,0.0
986,9.860000954,0.21243386,0.38140425,0.89661735,0.0,0.0,0.0
987,9.870000954,0.21243386,0.38140425,0.89661735,0.0,0.0,0.0
988,9.880000954,0.19778325375,0.36950060625000003,0.89844866875,0.0,0.0,0.0
989,9.890000954,0.1235534875,0.37853515374999996,0.905407745,0.0,0.0,0.0
990,9.900000954,0.11085629,0.38335764,0.909314575,0.0,0.0,0.0
991,9.910000954,0.11085629,0.38921788,0.91029125,0.0,0.0,0.0
992,9.920000954,0.11085629,0.38921788,0.91029125,0.0,0.0,0.0
993,9.930000954,0.12453019374999999,0.393124705,0.91212255875,0.0,0.0,0.0
994,9.940000954,0.14992458,0.40875202,0.90589607,0.0,0.0,0.0
995,9.950000954,0.1596916575,0.41168214000000003,0.903210135,0.0,0.0,0.0
996,9.960000954,0.18899289,0.4204725,0.89515233,0.0,0.0,0.0
997,9.970000954,0.18899289,0.4204725,0.89515233,0.0,0.0,0.0
998,9.980000954,0.18676041,0.41824002571428576,0.8943151414285715,0.0,0.0,0.0
999,9.990000954,0.17678403,0.4141239125,0.89075709375,0.0,0.0,0.0
