id,timestamp,acc_x,acc_y,acc_z,gyro_x,gyro_y,gyro_z
0,9.54e-07,0.028812869,0.43219304,0.9171282,0.0,0.0,0.0
1,0.010000954,0.028812869,0.43219304,0.9171282,0.0,0.0,0.0
2,0.020000954,0.141134215,0.491772175,0.851261475,0.0,0.0,0.0
3,0.030000954,0.185574395,0.5069111749999999,0.866583575,0.0,0.0,0.0
4,0.040000954,0.2436885,0.5376774,0.8614559,0.0,0.0,0.0
5,0.050000954,0.35082108125,0.5059344125,0.9014398625,0.0,0.0,0.0
6,0.060000954,0.41510063,0.48688862,0.92543024,0.0,0.0,0.0
7,0.070000954,0.4552851614285714,0.4422391342857143,0.8338987885714285,0.0,0.0,0.0
8,0.080000954,0.4473319675,0.411682135,0.817992405,0.0,0.0,0.0
9,0.090000954,0.45807576,0.47516817,0.85901415,0.0,0.0,0.0
10,0.100000954,0.40142673,0.47907497,0.8297129249999999,0.0,0.0,0.0
11,0.110000954,0.3447777,0.48298177,0.8004117,0.0,0.0,0.0
12,0.120000954,0.32524355000000005,0.488842035,0.81994585,0.0,0.0,0.0
13,0.130000954,0.3032676375,0.543537675,0.861455875,0.0,0.0,0.0
14,0.140000954,0.30180258,0.5728389,0.8746414,0.0,0.0,0.0
15,0.150000954,0.3085,0.5761876085714286,0.877432,0.0,0.0,0.0
16,0.160000954,0.34868452,0.59627986,0.8941756,0.0,0.0,0.0
17,0.170000954,0.35307971125,0.5625834475,0.847598875,0.0,0.0,0.0
18,0.180000954,0.36040503,0.50642276,0.7730639,0.0,0.0,0.0
19,0.190000954,0.28220739125,0.44489019625000004,0.7905835437500001,0.0,0.0,0.0
20,0.200000954,0.49427495875,0.29740738125,0.8458285775000001,0.0,0.0,0.0
21,0.210000954,0.5323055,0.29984915,0.82385266,0.0,0.0,0.0
22,0.220000954,0.5657926142857143,0.2551996728571429,0.7715290428571429,0.0,0.0,0.0
23,0.230000954,0.6495104,0.14357598,0.64072,0.0,0.0,0.0
24,0.240000954,0.526445325,0.4048452,0.7736132874999999,0.0,0.0,0.0
25,0.250000954,0.26017043500000003,0.6246043800000001,0.850223775,0.0,0.0,0.0
26,0.260000954,0.17727238,0.69785744,0.8668278,0.0,0.0,0.0
27,0.270000954,0.17727238,0.69785744,0.8668278,0.0,0.0,0.0
28,0.280000954,-0.076671526,0.4673545,0.7379024,0.0,0.0,0.0
29,0.290000954,-0.1191583,0.2920355,0.7730639,0.0,0.0,0.0
30,0.300000954,-0.08704904499999999,0.259804155,0.7974815825,0.0,0.0,0.0
31,0.310000954,0.00927872,0.16311012,0.87073463,0.0,0.0,0.0
32,0.320000954,0.00927872,0.16311012,0.87073463,0.0,0.0,0.0
33,0.330000954,0.7740406,0.08497354,1.2765565,0.0,0.0,0.0
34,0.340000954,1.0817034625,0.20462019125,0.6894333374999999,0.0,0.0,0.0
35,0.350000954,1.1256553,0.22171257,0.6055586,0.0,0.0,0.0
36,0.360000954,1.1256553,0.22171257,0.6055586,0.0,0.0,0.0
37,0.370000954,1.1256553,0.22171257,0.6055586,0.0,0.0,0.0
38,0.380000954,0.6816196475,-0.04407392125,0.1811181875,0.0,0.0,0.0
39,0.390000954,0.33494957875,-0.18166756374999998,0.04004500375,0.0,0.0,0.0
40,0.400000954,-0.057137386250000005,-0.47864763625,-0.33360660125,0.0,0.0,0.0
41,0.410000954,-0.10792617,-0.5196083,-0.38579940000000007,0.0,0.0,0.0
42,0.420000954,-0.10792617,-0.5196083,-0.3857994,0.0,0.0,0.0
43,0.430000954,0.013185549,-0.674904775,-1.11173715,0.0,0.0,0.0
44,0.440000954,0.052742199125,-0.7525530375,-1.4364313375,0.0,0.0,0.0
45,0.450000954,0.060067505,-0.847782,-1.4860603,0.0,0.0,0.0
46,0.460000954,0.14797116125,-0.847782,-1.407313225,0.0,0.0,0.0
47,0.470000954,0.17727238,-0.847782,-1.3810642,0.0,0.0,0.0
48,0.480000954,0.244482055,-0.838991625,-1.0254206424999999,0.0,0.0,0.0
49,0.490000954,0.62973206,-0.7306991825,-0.196562385,0.0,0.0,0.0
50,0.500000954,0.8413723737500001,-0.65445496375,0.1977221875,0.0,0.0,0.0
51,0.510000954,2.2876929587499997,-0.089734987025,0.7365594124999999,0.0,0.0,0.0
52,0.520000954,2.5067196,-0.0048835366,0.8199458,0.0,0.0,0.0
53,0.530000954,2.5067196,-0.0048835366,0.8199458,0.0,0.0,0.0
54,0.540000954,4.738984,0.99819493,1.8269311,0.0,0.0,0.0
55,0.550000954,4.8058274625,1.01577566375,1.9844862124999998,0.0,0.0,0.0
56,0.560000954,5.2737317,1.1388408,3.087372,0.0,0.0,0.0
57,0.570000954,5.2737317,1.1388408,3.087372,0.0,0.0,0.0
58,0.580000954,5.1389458125,1.0553323125,4.26436535,0.0,0.0,0.0
59,0.590000954,4.937744,0.9161515,5.1828976,0.0,0.0,0.0
60,0.600000954,4.715473271428571,0.40442661571428573,4.401810828571429,0.0,0.0,0.0
61,0.610000954,4.5623831875,0.19033585875,4.383340625,0.0,0.0,0.0
62,0.620000954,4.176889,-0.41461226,3.824786,0.0,0.0,0.0
63,0.630000954,3.6482462,-0.90223343,2.61220385,0.0,0.0,0.0
64,0.640000954,2.9263984124999998,-1.5361776125,0.9173113500000001,0.0,0.0,0.0
65,0.650000954,2.6043901,-1.7800493,0.6954156,0.0,0.0,0.0
66,0.660000954,1.2199074699999999,-2.78984255,0.39361305,0.0,0.0,0.0
67,0.670000954,0.75841326,-3.1264403,0.2930122,0.0,0.0,0.0
68,0.680000954,0.75841326,-3.1264403,0.19741697,0.0,0.0,0.0
69,0.690000954,-1.213925235,-3.7615441250000003,-0.25601941500000003,0.0,0.0,0.0
70,0.700000954,-1.8713714,-3.9732454,-0.4131472,0.0,0.0,0.0
71,0.710000954,-3.451893042857143,-4.0764974714285716,0.30054679999999995,0.0,0.0,0.0
72,0.720000954,-4.0841017,-4.1177983,0.5860244,0.0,0.0,0.0
73,0.730000954,-4.0841017,-4.1177983,0.5860244,0.0,0.0,0.0
74,0.740000954,-4.8644915,-3.7354176,3.754463,0.0,0.0,0.0
75,0.750000954,-4.8644915,-3.7354176,3.754463,0.0,0.0,0.0
76,0.760000954,-3.7751571125,-4.064140699999999,2.5750889,0.0,0.0,0.0
77,0.770000954,-3.5063794,-4.1412396,2.1702437,0.0,0.0,0.0
78,0.780000954,-3.5063794,-4.1412396,2.1702437,0.0,0.0,0.0
79,0.790000954,-1.1378641,-4.2618623,-0.40533355,0.0,0.0,0.0
80,0.800000954,0.840700925,-3.9604261249999997,-1.1396953374999998,0.0,0.0,0.0
81,0.810000954,0.23978166,-4.1138916,-1.3844826,0.0,0.0,0.0
82,0.820000954,5.051042,-2.997515,-1.2833935,0.0,0.0,0.0
83,0.830000954,5.051042,-2.997515,-1.2833935,0.0,0.0,0.0
84,0.840000954,7.1582274,-1.7113744375,2.880859475,0.0,0.0,0.0
85,0.850000954,7.969932,-0.87818201,5.9542524,0.0,0.0,0.0
86,0.860000954,7.969932,-0.10987958,7.4224877,0.0,0.0,0.0
87,0.870000954,7.969932,0.47040669125,7.750661525,0.0,0.0,0.0
88,0.880000954,7.969932,0.55330473,7.7975435,0.0,0.0,0.0
89,0.890000954,6.767727625,1.210323575,6.316794025,0.0,0.0,0.0
90,0.900000954,6.5146384,1.3258802,5.849989,0.0,0.0,0.0
91,0.910000954,5.708732425,0.7421754875000001,3.309633875,0.0,0.0,0.0
92,0.920000954,5.593603,0.6587891,2.946726,0.0,0.0,0.0
93,0.930000954,5.593603,0.6587891,2.9467260000000004,0.0,0.0,0.0
94,0.940000954,4.86583395,0.152488425,2.2911112125,0.0,0.0,0.0
95,0.950000954,2.6825268,-1.3664136,0.25992625125,0.0,0.0,0.0
96,0.960000954,2.5283291,-1.4747060250000001,0.003540563750000003,0.0,0.0,0.0
97,0.970000954,2.065736,-1.7995833,-0.18655111,0.0,0.0,0.0
98,0.980000954,2.065736,-1.7995833,-0.18655111,0.0,0.0,0.0
99,0.990000954,1.5681646774999998,-2.060181075,-0.35924516875,0.0,0.0,0.0
100,1.000000954,-0.6773466,-3.0795584,-0.8033418,0.0,0.0,0.0
101,1.010000954,-1.4606659,-3.3206218499999998,-0.711042975,0.0,0.0,0.0
102,1.020000954,-2.5605082142857145,-3.5741209571428567,-0.27298973571428575,0.0,0.0,0.0
103,1.030000954,-2.9486797,-3.6299329,0.10597275,0.0,0.0,0.0
104,1.040000954,-3.0472050250000002,-3.551918425,0.6279007625,0.0,0.0,0.0
105,1.050000954,-3.16526435,-3.15378815,2.5526247,0.0,0.0,0.0
106,1.060000954,-2.9877477,-2.9897013,2.9115646,0.0,0.0,0.0
107,1.070000954,-2.9877477,-2.9897013,2.93207545,0.0,0.0,0.0
108,1.080000954,-2.9877477,-2.9897013,2.9389124,0.0,0.0,0.0
109,1.090000954,-2.812062475,-2.8717639,2.5964544,0.0,0.0,0.0
110,1.100000954,-2.2850068,-2.5179517,1.5690804,0.0,0.0,0.0
111,1.110000954,-1.9608621125,-2.2740800125,1.3447429625,0.0,0.0,0.0
112,1.120000954,-1.7663753,-2.127757,1.2101405,0.0,0.0,0.0
113,1.130000954,-1.7663753,-2.127757,1.2101405,0.0,0.0,0.0
114,1.140000954,-1.7663753,-2.127757,1.2101405,0.0,0.0,0.0
115,1.150000954,1.0592391,-2.1897779,-0.7564599,0.0,0.0,0.0
116,1.160000954,1.0592391,-2.1897779,-0.7564599,0.0,0.0,0.0
117,1.170000954,5.324032,-1.6750531,-1.4313647,0.0,0.0,0.0
118,1.180000954,7.308457,-0.934464775,0.502882225,0.0,0.0,0.0
119,1.190000954,7.969932,-0.687602,1.1476312,0.0,0.0,0.0
120,1.200000954,7.652440875,0.9413017625,7.07526865,0.0,0.0,0.0
121,1.210000954,7.236285285714286,1.2128612714285716,7.922074,0.0,0.0,0.0
122,1.220000954,7.072338,1.2672778,7.922074,0.0,0.0,0.0
123,1.230000954,6.7298805,1.1914609,7.922074,0.0,0.0,0.0
124,1.240000954,6.615728,1.1661886,7.922074,0.0,0.0,0.0
125,1.250000954,5.597021499999999,-0.17922583000000003,3.5132165,0.0,0.0,0.0
126,1.260000954,5.277638,-0.55867666,2.3616784,0.0,0.0,0.0
127,1.270000954,3.96933875,-1.61242174,1.310863375,0.0,0.0,0.0
128,1.280000954,3.533239,-1.9636701,0.9605917,0.0,0.0,0.0
129,1.290000954,3.5332389999999996,-1.9636701,0.9605917,0.0,0.0,0.0
130,1.300000954,1.7434837112500001,-3.0172321875,0.29813992575000003,0.0,0.0,0.0
131,1.310000954,-0.15731097624999996,-3.8088536125,1.2500000045462256e-09,0.0,0.0,0.0
132,1.320000954,-1.3155027499999998,-3.814347475,0.06104421000000001,0.0,0.0,0.0
133,1.330000954,-1.7312138,-3.7588582,0.17238885,0.0,0.0,0.0
134,1.340000954,-1.7312138,-3.7588582,0.17238885,0.0,0.0,0.0
135,1.350000954,-2.853938925,-3.27978335,1.393639375,0.0,0.0,0.0
136,1.360000954,-2.4235773,-3.11569655,2.54688655,0.0,0.0,0.0
137,1.370000954,-2.3201685,-3.0795584,2.728432,0.0,0.0,0.0
138,1.380000954,-2.3201685,-3.0795584,3.1365562857142857,0.0,0.0,0.0
139,1.390000954,-2.3201685,-3.0795584,3.204577,0.0,0.0,0.0
140,1.400000954,-2.3333540624999998,-2.9947679375,3.2659263625,0.0,0.0,0.0
141,1.410000954,-1.9807626,-2.935494,2.6614055125,0.0,0.0,0.0
142,1.420000954,-1.66955921,-2.9100995999999997,1.931194669,0.0,0.0,0.0
143,1.430000954,-0.73594904,-2.8339164,0.043463476,0.0,0.0,0.0
144,1.440000954,-0.73594904,-2.8339164,0.043463476,0.0,0.0,0.0
145,1.450000954,0.4809672975,-2.1169522125,-1.022368384,0.0,0.0,0.0
146,1.460000954,1.5252506000000001,-1.3648265175,-1.676518125,0.0,0.0,0.0
147,1.470000954,2.6690970125,-0.30332869,-1.533613675,0.0,0.0,0.0
148,1.480000954,4.0792184,0.36626527,-0.2256194,0.0,0.0,0.0
149,1.490000954,4.0792184,0.36626527,-0.2256194,0.0,0.0,0.0
150,1.500000954,4.828475125000001,0.6354702525,0.17043545000000002,0.0,0.0,0.0
151,1.510000954,7.2899610625,1.5337358625,2.631677125,0.0,0.0,0.0
152,1.520000954,7.646154,1.6848203,5.405099,0.0,0.0,0.0
153,1.530000954,5.9877043,1.8840686,6.7827444,0.0,0.0,0.0
154,1.540000954,5.9877043,1.8840686,6.7827444,0.0,0.0,0.0
155,1.550000954,5.4613201875,1.6543592375,6.559810925000001,0.0,0.0,0.0
156,1.560000954,4.453480375,0.8552905425,4.8304893625,0.0,0.0,0.0
157,1.570000954,3.6035619,-0.28178006,3.6489787,0.0,0.0,0.0
158,1.580000954,3.0280021285714285,-0.8904082657142857,2.491998957142857,0.0,0.0,0.0
159,1.590000954,2.0383883,-1.6281712,1.288277,0.0,0.0,0.0
160,1.600000954,2.0383883,-1.6281712,1.288277,0.0,0.0,0.0
161,1.610000954,-0.29887244,-2.5257652,-0.33891746,0.0,0.0,0.0
162,1.620000954,-0.81994587,-2.62319185,-0.71934498,0.0,0.0,0.0
163,1.630000954,-2.0009072125,-2.8495437625,-1.1242511625,0.0,0.0,0.0
164,1.640000954,-2.7181766,-2.8729846,-0.6314413,0.0,0.0,0.0
165,1.650000954,-2.7181766,-2.8729846,-0.6314413,0.0,0.0,0.0
166,1.660000954,-2.9677254625000002,-2.828544575,1.0585677375,0.0,0.0,0.0
167,1.670000954,-2.7101187875,-2.7733606,1.9970002125,0.0,0.0,0.0
168,1.680000954,-2.5076962,-2.7596867,2.1350822,0.0,0.0,0.0
169,1.690000954,-2.5076962,-2.7596867,2.1350822,0.0,0.0,0.0
170,1.700000954,-2.5076962,-2.7596867,2.1350822,0.0,0.0,0.0
171,1.710000954,-1.8021472125,-2.596393425,1.119001425,0.0,0.0,0.0
172,1.720000954,-1.4538289,-2.5218585,0.7574366,0.0,0.0,0.0
173,1.730000954,-0.25785072,-1.85647655,-0.26102505000000004,0.0,0.0,0.0
174,1.740000954,0.9381274599999999,-1.1910946,-1.2794867,0.0,0.0,0.0
175,1.750000954,0.93812746,-1.1910946,-1.2794867,0.0,0.0,0.0
176,1.760000954,1.712778485,-0.635409177075,-1.7818805125,0.0,0.0,0.0
177,1.770000954,2.6668994,0.0068369517,-2.0833168,0.0,0.0,0.0
178,1.780000954,3.71661555,0.35234719585,-1.6227993,0.0,0.0,0.0
179,1.790000954,4.7663317,0.69785744,-1.1622818,0.0,0.0,0.0
180,1.800000954,4.7663317,0.69785744,-1.1622818,0.0,0.0,0.0
181,1.810000954,6.5150044625,1.331313165,1.8980475499999998,0.0,0.0,0.0
182,1.820000954,7.8683543,1.8332796,5.5887194,0.0,0.0,0.0
183,1.830000954,7.724569114285714,1.7914905,5.627159828571428,0.0,0.0,0.0
184,1.840000954,6.861858,1.5407559,5.8578024,0.0,0.0,0.0
185,1.850000954,6.861858,1.5407559,5.8578024,0.0,0.0,0.0
186,1.860000954,5.59164985,0.6568357149999999,4.2023444625,0.0,0.0,0.0
187,1.870000954,4.3214417,-0.22708447,2.2249393,0.0,0.0,0.0
188,1.880000954,3.6113758,-0.82824785,1.0856102,0.0,0.0,0.0
189,1.890000954,1.9021376,-1.9792974,0.2739664,0.0,0.0,0.0
190,1.900000954,1.9021376,-1.9792974,0.2739664,0.0,0.0,0.0
191,1.910000954,1.5375466871428571,-2.186708257142857,0.03530098285714286,0.0,0.0,0.0
192,1.920000954,-0.5989929177777777,-3.1261146444444443,-0.6988883977777777,0.0,0.0,0.0
193,1.930000954,-1.8051645485714285,-3.302247714285714,0.020092265714285715,0.0,0.0,0.0
194,1.940000954,-2.4569074,-3.31982845,0.47467976,0.0,0.0,0.0
195,1.950000954,-2.9447727,-3.317875,0.8472936,0.0,0.0,0.0
196,1.960000954,-3.087127775,-3.311038,0.8472936,0.0,0.0,0.0
197,1.970000954,-3.965004375,-3.3042010625,2.25399645,0.0,0.0,0.0
198,1.980000954,-3.7893803999999998,-3.3461994749999997,2.550671225,0.0,0.0,0.0
199,1.990000954,-3.5923297,-3.3803842,2.4823017,0.0,0.0,0.0
200,2.000000954,-3.5923297,-3.3803842,2.4823017,0.0,0.0,0.0
201,2.010000954,-3.4235424625,-3.398392225,2.3057618625,0.0,0.0,0.0
202,2.020000954,-1.1056938,-3.3635970874999996,0.07465706249999995,0.0,0.0,0.0
203,2.030000954,-0.42389099999999996,-3.2670863,-0.6864159857142857,0.0,0.0,0.0
204,2.040000954,-0.423891,-3.2670863,-0.9049193,0.0,0.0,0.0
205,2.050000954,-0.423891,-3.2670863,-0.9049193,0.0,0.0,0.0
206,2.060000954,-0.423891,-3.2670863,-0.9049193,0.0,0.0,0.0
207,2.070000954,2.08942135,-2.2017425499999996,-0.688090365,0.0,0.0,0.0
208,2.080000954,6.348597875,-0.842898425,0.1985157675,0.0,0.0,0.0
209,2.090000954,7.587490062500001,-0.39709256175,0.9585162125,0.0,0.0,0.0
210,2.100000954,7.969932,0.053718906,4.8786535,0.0,0.0,0.0
211,2.110000954,7.969932,0.053718906,4.8786535,0.0,0.0,0.0
212,2.120000954,7.796078285714286,0.5208641042857143,5.7482022142857145,0.0,0.0,0.0
213,2.130000954,7.893871,1.5395960375,7.7465715,0.0,0.0,0.0
214,2.140000954,7.969932,1.40011,7.64127,0.0,0.0,0.0
215,2.150000954,6.5498,1.2282095,6.272048375000001,0.0,0.0,0.0
216,2.160000954,6.5498,1.2282095,7.274516,0.0,0.0,0.0
217,2.170000954,6.5498,1.2282095,7.274516,0.0,0.0,0.0
218,2.180000954,2.830498,-1.0817034,-0.280315,0.0,0.0,0.0
219,2.190000954,4.6569405,-0.48054004,0.7339956,0.0,0.0,0.0
220,2.200000954,1.852744035714286,-1.8828127257142857,-0.1966670142857143,0.0,0.0,0.0
221,2.210000954,0.73106545,-2.4437218,-0.56893206,0.0,0.0,0.0
222,2.220000954,0.55257218225,-2.525643125,-0.53096256,0.0,0.0,0.0
223,2.230000954,0.017092379,-2.7714071,-0.41705406,0.0,0.0,0.0
224,2.240000954,-0.7632968105,-2.9000883,-0.09303138500000001,0.0,0.0,0.0
225,2.250000954,-1.543686,-3.0287695,0.23099129,0.0,0.0,0.0
226,2.260000954,-1.543686,-3.0287695,0.23099129,0.0,0.0,0.0
227,2.270000954,-2.2243115571428573,-2.985445557142857,0.8078067371428571,0.0,0.0,0.0
228,2.280000954,-3.4971619875,-3.0981769375,2.28366405,0.0,0.0,0.0
229,2.290000954,-4.3157036625,-3.4756740875,2.8159083625,0.0,0.0,0.0
230,2.300000954,-4.439135,-3.532262,2.8842168,0.0,0.0,0.0
231,2.310000954,-4.439135,-3.532262,2.8842168,0.0,0.0,0.0
232,2.320000954,-3.9737950250000003,-3.543982625,2.5520142,0.0,0.0,0.0
233,2.330000954,-3.0582540125,-3.558633425,1.7944555475000001,0.0,0.0,0.0
234,2.340000954,-0.3339118275,-3.2054314749999997,-0.20632942999999998,0.0,0.0,0.0
235,2.350000954,0.52803243875,-2.991776775,-0.40533356,0.0,0.0,0.0
236,2.360000954,2.4910922,-2.2405667,-0.46002918,0.0,0.0,0.0
237,2.370000954,2.862851425,-2.1089554,-0.455145635,0.0,0.0,0.0
238,2.380000954,3.9781291,-1.7141215,-0.440495,0.0,0.0,0.0
239,2.390000954,5.570162,-1.093424,-0.097182386,0.0,0.0,0.0
240,2.400000954,7.3699895,-0.095351075,2.4285829285,0.0,0.0,0.0
241,2.410000954,7.969932,0.2373399,3.2705047,0.0,0.0,0.0
242,2.420000954,7.969932,0.2373399,3.2705047,0.0,0.0,0.0
243,2.430000954,7.969932,0.2373399,3.2705047,0.0,0.0,0.0
244,2.440000954,7.969932,0.2373399,3.2705047,0.0,0.0,0.0
245,2.450000954,7.969932,1.14250345,5.2100016,0.0,0.0,0.0
246,2.460000954,7.969932,2.047667,7.1494985,0.0,0.0,0.0
247,2.470000954,7.969932,2.047667,7.1494985,0.0,0.0,0.0
248,2.480000954,7.969932,2.3523996,7.188566,0.0,0.0,0.0
249,2.490000954,4.185801625,0.060677945,1.33601355,0.0,0.0,0.0
250,2.500000954,3.437155325,-0.6738060025,0.73515540125,0.0,0.0,0.0
251,2.510000954,2.990678,-1.1246786,0.0981591,0.0,0.0,0.0
252,2.520000954,2.990678,-1.1246786,0.0981591,0.0,0.0,0.0
253,2.530000954,1.450654725,-2.2002164375,-0.2295872875,0.0,0.0,0.0
254,2.540000954,1.2306514,-2.3538647,-0.2764082,0.0,0.0,0.0
255,2.550000954,0.7274028699999999,-2.5294278500000003,-0.110612117,0.0,0.0,0.0
256,2.560000954,0.22415434,-2.704991,0.055183966,0.0,0.0,0.0
257,2.570000954,0.22415433999999998,-2.704991,0.05518396600000001,0.0,0.0,0.0
258,2.580000954,-1.8891961400000001,-2.98591655,0.5324275915000001,0.0,0.0,0.0
259,2.590000954,-3.7104502999999998,-3.2651328375,1.3987059875,0.0,0.0,0.0
260,2.600000954,-4.3805327,-3.3764775,2.0321617625,0.0,0.0,0.0
261,2.610000954,-4.3805327,-3.3764775,2.3807242,0.0,0.0,0.0
262,2.620000954,-4.3805327,-3.3764775,2.3807242,0.0,0.0,0.0
263,2.630000954,-4.5698919,-3.2680628875,2.3584430750000003,0.0,0.0,0.0
264,2.640000954,-2.893861925,-3.0561173,1.51658245,0.0,0.0,0.0
265,2.650000954,-2.374864,-3.017049,1.218093692857143,0.0,0.0,0.0
266,2.660000954,-2.374864,-3.017049,0.56258345,0.0,0.0,0.0
267,2.670000954,-2.374864,-3.017049,0.56258345,0.0,0.0,0.0
268,2.680000954,-1.8275416025,-2.9097333,0.2913029625,0.0,0.0,0.0
269,2.690000954,-0.18557441,-2.5877862,-0.5225385,0.0,0.0,0.0
270,2.700000954,0.87781572125,-2.2050390125,-0.7908277875,0.0,0.0,0.0
271,2.710000954,1.5158498,-1.9753907,-0.95180136,0.0,0.0,0.0
272,2.720000954,1.5158498,-1.9753907,-0.95180136,0.0,0.0,0.0
273,2.730000954,2.2126607714285713,-1.7574454185714286,-0.5270034085714286,0.0,0.0,0.0
274,2.740000954,7.1485213000000005,-0.19998082749999999,3.09103465,0.0,0.0,0.0
275,2.750000954,7.9616299999999995,1.193719459375,7.240331725,0.0,0.0,0.0
276,2.760000954,7.969932,1.3571348,7.6803384,0.0,0.0,0.0
277,2.770000954,7.969932,1.3571348,7.6803384,0.0,0.0,0.0
278,2.780000954,7.521135,1.2683765500000002,7.47840405,0.0,0.0,0.0
279,2.790000954,6.174744,1.0021018,6.872601,0.0,0.0,0.0
280,2.800000954,5.35540875,0.507643675,5.458817625,0.0,0.0,0.0
281,2.810000954,4.853503275,0.19351015500000002,4.5437040125,0.0,0.0,0.0
282,2.820000954,3.2519472,-0.85168886,1.4367366,0.0,0.0,0.0
283,2.830000954,2.92035505,-1.06912837,0.970358815,0.0,0.0,0.0
284,2.840000954,1.9255786,-1.7214469,-0.7681804,0.0,0.0,0.0
285,2.850000954,1.748916625,-1.803490275,-0.7965049,0.0,0.0,0.0
286,2.860000954,1.1418929125,-2.0832557749999996,-0.87512980875,0.0,0.0,0.0
287,2.870000954,0.6026284,-2.3187034,-0.83068967,0.0,0.0,0.0
288,2.880000954,0.5089865874999999,-2.324075275,-0.8155506987500001,0.0,0.0,0.0
289,2.890000954,-0.8006558749999999,-2.4435386875000003,-0.691997165,0.0,0.0,0.0
290,2.900000954,-1.2984714375,-2.531442375,-0.66269594,0.0,0.0,0.0
291,2.910000954,-2.76432615,-2.6534087625,-0.27494312125,0.0,0.0,0.0
292,2.920000954,-3.7642303,-2.7128048,-0.24515355,0.0,0.0,0.0
293,2.930000954,-3.8578721375000002,-2.7483935749999997,-0.118364725,0.0,0.0,0.0
294,2.940000954,-4.539735975,-3.05904755,1.4189116375,0.0,0.0,0.0
295,2.950000954,-4.0274528499999995,-3.0248628,1.6354965,0.0,0.0,0.0
296,2.960000954,-3.5063794,-2.9701672,1.6354965,0.0,0.0,0.0
297,2.970000954,-3.5063794,-2.9701672,1.6354965,0.0,0.0,0.0
298,2.980000954,-3.5063794,-2.9701672,1.6354965,0.0,0.0,0.0
299,2.990000954,-2.3923226,-3.05318735,0.8433868,0.0,0.0,0.0
300,3.000000954,-0.19393744499999999,-3.0165607875,0.09559523187499999,0.0,0.0,0.0
301,3.010000954,0.59090796,-2.95087715,-0.0581140875,0.0,0.0,0.0
302,3.020000954,2.0600590249999997,-2.615744475,0.078075543125,0.0,0.0,0.0
303,3.030000954,2.1595001,-2.6112273,0.066904455,0.0,0.0,0.0
304,3.040000954,5.077108175,-1.6905583625,0.91218364625,0.0,0.0,0.0
305,3.050000954,6.5341725,-1.2418834,2.091191525,0.0,0.0,0.0
306,3.060000954,7.53773925,-0.878914525,4.611279725,0.0,0.0,0.0
307,3.070000954,7.8722615,-0.7579249,5.284475300000001,0.0,0.0,0.0
308,3.080000954,7.8722615,-0.7579249,5.2844753,0.0,0.0,0.0
309,3.090000954,7.8806245,0.040716513750000016,6.5842899,0.0,0.0,0.0
310,3.100000954,7.646154,1.134934,7.770196,0.0,0.0,0.0
311,3.110000954,7.2408811125,1.1232135250000002,7.124836375,0.0,0.0,0.0
312,3.120000954,6.5654263,1.1036794,6.049237,0.0,0.0,0.0
313,3.130000954,6.5654263,1.1036794,6.049237,0.0,0.0,0.0
314,3.140000954,5.457108,0.47541235000000004,3.3137239,0.0,0.0,0.0
315,3.150000954,3.693698057142857,-0.5710947285714286,0.26043205714285717,0.0,0.0,0.0
316,3.160000954,3.4316614,-0.73839074,0.13332056,0.0,0.0,0.0
317,3.170000954,1.7489166375,-1.919229955,-0.203704525,0.0,0.0,0.0
318,3.180000954,1.0045435,-2.3421443,-0.3857994,0.0,0.0,0.0
319,3.190000954,0.6869915275,-2.4811419875,-0.609587475,0.0,0.0,0.0
320,3.200000954,-0.315354385,-2.825126175,-0.9825676,0.0,0.0,0.0
321,3.210000954,-0.833375545,-2.8974025,-0.8656069,0.0,0.0,0.0
322,3.220000954,-1.5358723,-2.912053,-0.5147248,0.0,0.0,0.0
323,3.230000954,-1.5358723,-2.912053,-0.5147248,0.0,0.0,0.0
324,3.240000954,-1.5358723,-2.912053,-0.5147248,0.0,0.0,0.0
325,3.250000954,-4.1812232,-2.544689,1.64446995,0.0,0.0,0.0
326,3.260000954,-4.2680891,-2.5247275625000003,1.856171275,0.0,0.0,0.0
327,3.270000954,-4.8625377499999995,-2.758709875,2.0678115999999997,0.0,0.0,0.0
328,3.280000954,-4.91528,-2.8261027,1.8425584,0.0,0.0,0.0
329,3.290000954,-4.8542968,-2.8285444625,1.7874354875,0.0,0.0,0.0
330,3.300000954,-3.1128274,-2.81877755,1.0209644125000001,0.0,0.0,0.0
331,3.310000954,-1.8011704899999998,-2.741129425,0.48432475,0.0,0.0,0.0
332,3.320000954,-2.3240752,-2.802662,0.792598,0.0,0.0,0.0
333,3.330000954,-2.3240752,-2.802662,0.792598,0.0,0.0,0.0
334,3.340000954,-2.3240752,-2.802662,0.792598,0.0,0.0,0.0
335,3.350000954,-0.8743972999999998,-2.5724031500000004,0.2053527,0.0,0.0,0.0
336,3.360000954,1.14299175,-2.1811707125,-0.3101046025,0.0,0.0,0.0
337,3.370000954,4.3076458,-1.623165625,0.2248868625,0.0,0.0,0.0
338,3.380000954,5.0471354,-1.5265937,0.36333513,0.0,0.0,0.0
339,3.390000954,5.0471354,-1.5265937,0.36333513,0.0,0.0,0.0
340,3.400000954,7.2392328500000005,-0.16555192250000003,3.3399727575,0.0,0.0,0.0
341,3.410000954,7.969932,0.28812867,4.3321853,0.0,0.0,0.0
342,3.420000954,7.969932,0.8752519025,6.2717432875,0.0,0.0,0.0
343,3.430000954,7.969932,0.95912665,6.548823,0.0,0.0,0.0
344,3.440000954,7.969932,0.95912665,6.548823,0.0,0.0,0.0
345,3.450000954,7.568017,0.935685675,5.8111647,0.0,0.0,0.0
346,3.460000954,6.038981714285714,0.4808191,3.5762140142857146,0.0,0.0,0.0
347,3.470000954,3.221181,-0.5977449,-0.16701695,0.0,0.0,0.0
348,3.480000954,3.221181,-0.5977449,-0.16701695,0.0,0.0,0.0
349,3.490000954,3.221181,-0.5977449,-0.16701695,0.0,0.0,0.0
350,3.500000954,2.073855,-1.181144425,-0.35387328249999994,0.0,0.0,0.0
351,3.510000954,0.545552089125,-1.9001841875,-0.57338827625,0.0,0.0,0.0
352,3.520000954,-0.19167881525000002,-1.9753907,-0.5196083625,0.0,0.0,0.0
353,3.530000954,-0.712508,-1.9753907,-0.51081795,0.0,0.0,0.0
354,3.540000954,-0.712508,-1.9753907,-0.51081795,0.0,0.0,0.0
355,3.550000954,-1.294869875,-2.0252028125,-0.4600291675,0.0,0.0,0.0
356,3.560000954,-2.265473,-2.108223,-0.19827159,0.0,0.0,0.0
357,3.570000954,-3.472560875,-2.202475175,0.5070332,0.0,0.0,0.0
358,3.580000954,-3.523227625,-2.19563825,0.5070332,0.0,0.0,0.0
359,3.590000954,-3.9356425,-2.142896,1.2062336,0.0,0.0,0.0
360,3.600000954,-3.83327125,-2.169267125,1.4096939750000002,0.0,0.0,0.0
361,3.610000954,-3.6626525,-2.213219,1.7487946,0.0,0.0,0.0
362,3.620000954,-3.247063575,-2.3069829,1.679570425,0.0,0.0,0.0
363,3.630000954,-2.7733606714285712,-2.4112115142857142,1.436666742857143,0.0,0.0,0.0
364,3.640000954,-1.8088621,-2.6424818,0.6954156,0.0,0.0,0.0
365,3.650000954,-1.5103559025,-2.65029545,0.59396014,0.0,0.0,0.0
366,3.660000954,-1.0284729,-2.7128048,0.28959376,0.0,0.0,0.0
367,3.670000954,0.5042862125,-2.5081234875000002,-0.0526811525,0.0,0.0,0.0
368,3.680000954,0.7232518,-2.4788833,-0.4092404,0.0,0.0,0.0
369,3.690000954,3.0961623,-2.1004093,-0.4092404,0.0,0.0,0.0
370,3.700000954,3.4346524250000003,-2.0291706874999997,-0.27018168750000005,0.0,0.0,0.0
371,3.710000954,5.8040833,-1.5305004,0.7032293,0.0,0.0,0.0
372,3.720000954,6.79678435,-0.869147449625,3.18205165,0.0,0.0,0.0
373,3.730000954,7.969932,0.3933688905,6.03361,0.0,0.0,0.0
374,3.740000954,7.969932,1.08664805,5.702444900000001,0.0,0.0,0.0
375,3.750000954,7.969932,1.1310272,5.6551356,0.0,0.0,0.0
376,3.760000954,7.26743505,1.1017259,4.8180973,0.0,0.0,0.0
377,3.770000954,6.7596693,1.036347525,3.7615440375,0.0,0.0,0.0
378,3.780000954,4.7893456875,0.6221625625,2.0537103,0.0,0.0,0.0
379,3.790000954,4.1744471375,0.16109567125,0.24747323625,0.0,0.0,0.0
380,3.800000954,4.1417274,0.12013501,0.16066837,0.0,0.0,0.0
381,3.810000954,3.687924925,-0.24521461625,0.023929331375,0.0,0.0,0.0
382,3.820000954,3.23760175,-0.6194156575,-0.139363931375,0.0,0.0,0.0
383,3.830000954,2.858944525,-0.929703375,-0.1615229875,0.0,0.0,0.0
384,3.840000954,1.1447011,-2.0496204,-0.40142673,0.0,0.0,0.0
385,3.850000954,1.1447011,-2.0496204,-0.40142673,0.0,0.0,0.0
386,3.860000954,0.9663822142857142,-2.136547342857143,-0.6432315671428572,0.0,0.0,0.0
387,3.870000954,0.520585,-2.3538647,-0.8033418,0.0,0.0,0.0
388,3.880000954,-0.44556168500000004,-2.674774275,-0.74864622375,0.0,0.0,0.0
389,3.890000954,-1.0884182400000002,-2.7499196875,-0.13588442,0.0,0.0,0.0
390,3.900000954,-1.3913196,-2.7675004,0.22708447,0.0,0.0,0.0
391,3.910000954,-2.3869506875,-2.7093862875,0.9995989725,0.0,0.0,0.0
392,3.920000954,-4.1610784375000005,-2.736245675,2.3414727875,0.0,0.0,0.0
393,3.930000954,-4.68611975,-2.832939725,2.5291836,0.0,0.0,0.0
394,3.940000954,-4.958255,-2.888612,2.5291836,0.0,0.0,0.0
395,3.950000954,-4.958255,-2.8886119999999997,2.5291836,0.0,0.0,0.0
396,3.960000954,-4.922116750000001,-2.9022859,2.446285575,0.0,0.0,0.0
397,3.970000954,-3.4958799000000003,-3.011249775,1.733106325,0.0,0.0,0.0
398,3.980000954,-1.9192909875000002,-2.905887625,0.7143393035000001,0.0,0.0,0.0
399,3.990000954,-1.2706963,-2.798755,0.043463476,0.0,0.0,0.0
400,4.000000954,-1.2706963,-2.798755,0.043463476,0.0,0.0,0.0
401,4.010000954,-0.6180115975,-2.605550125,-0.16292699,0.0,0.0,0.0
402,4.020000954,0.46979624,-2.283542,-0.5069111,0.0,0.0,0.0
403,4.030000954,1.328322,-1.967577,-0.7838077,0.0,0.0,0.0
404,4.040000954,3.2912595,-1.6164507499999998,-0.57308306,0.0,0.0,0.0
405,4.050000954,5.254197,-1.2653245,-0.36235842,0.0,0.0,0.0
406,4.060000954,5.687244675,-1.1803509349999999,0.21762261,0.0,0.0,0.0
407,4.070000954,6.9863877,-0.92543024,3.0483036,0.0,0.0,0.0
408,4.080000954,7.8469889625,0.7640293825,7.3128527000000005,0.0,0.0,0.0
409,4.090000954,7.969932,1.3063462,7.922074,0.0,0.0,0.0
410,4.100000954,7.969932,1.2360232,7.922074,0.0,0.0,0.0
411,4.110000954,7.821681771428572,1.1758161628571429,7.5151357714285725,0.0,0.0,0.0
412,4.120000954,5.8946731625,0.44141068625,3.2619585000000004,0.0,0.0,0.0
413,4.130000954,4.680382,0.01465061,2.6581092,0.0,0.0,0.0
414,4.140000954,4.021897925,-0.3467311225,0.9059571645000001,0.0,0.0,0.0
415,4.150000954,3.9195266,-0.34819618,0.004395183,0.0,0.0,0.0
416,4.160000954,3.9195266,-0.34819618,0.004395183,0.0,0.0,0.0
417,4.170000954,3.056605775,-1.02755711,-0.209564775875,0.0,0.0,0.0
418,4.180000954,2.2610774,-1.6867737,-0.18655111,0.0,0.0,0.0
419,4.190000954,1.8752171,-1.8982917375000001,-0.0502393855,0.0,0.0,0.0
420,4.200000954,1.8200942,-1.9285086,-0.030766282,0.0,0.0,0.0
421,4.210000954,1.8200942,-1.9285086,-0.030766282,0.0,0.0,0.0
422,4.220000954,0.7220919715,-2.0812413000000003,-0.0273478065,0.0,0.0,0.0
423,4.230000954,-0.54451436,-2.1160367,-0.11622817625,0.0,0.0,0.0
424,4.240000954,-0.54451436,-2.1160367,-0.10890287,0.0,0.0,0.0
425,4.250000954,-0.54451436,-2.1160367,-0.10890287,0.0,0.0,0.0
426,4.260000954,-0.54451436,-2.1160367,-0.10890287,0.0,0.0,0.0
427,4.270000954,-1.0325628225,-1.8840685750000001,0.14015752374999998,0.0,0.0,0.0
428,4.280000954,-1.4746450125000001,-1.72590295,0.3505158825,0.0,0.0,0.0
429,4.290000954,-2.5194167999999997,-1.5930097,0.77697074,0.0,0.0,0.0
430,4.300000954,-2.5194168,-1.5930097,0.77697074,0.0,0.0,0.0
431,4.310000954,-2.5194168,-1.5930097,0.77697074,0.0,0.0,0.0
432,4.320000954,-3.5730397375000003,-1.9708733250000001,0.713789965,0.0,0.0,0.0
433,4.330000954,-4.1118769875,-2.3318888625,0.5630717749999999,0.0,0.0,0.0
434,4.340000954,-3.239860425,-2.3690037875,0.430239585,0.0,0.0,0.0
435,4.350000954,-2.0432718,-2.3616784,0.30473268,0.0,0.0,0.0
436,4.360000954,-2.0432718,-2.3616784,0.30473268,0.0,0.0,0.0
437,4.370000954,-0.9679867702857142,-2.257310285714286,0.37170691714285714,0.0,0.0,0.0
438,4.380000954,0.0365654815,-2.119027725,0.4453785825,0.0,0.0,0.0
439,4.390000954,0.5830943,-1.9792974,0.33598736,0.0,0.0,0.0
440,4.400000954,1.3240489375,-1.8904170875,0.0014040173750000029,0.0,0.0,0.0
441,4.410000954,1.4298996,-1.8777199,-0.046393603,0.0,0.0,0.0
442,4.420000954,2.68246575,-1.664004105,-0.14589566025,0.0,0.0,0.0
443,4.430000954,5.66649,-0.8916117149999999,1.0677853525,0.0,0.0,0.0
444,4.440000954,6.818211,0.20358250000000008,3.6086894637499998,0.0,0.0,0.0
445,4.450000954,7.969932,1.451997625,6.197452625,0.0,0.0,0.0
446,4.460000954,7.969932,1.5681037,6.4277115,0.0,0.0,0.0
447,4.470000954,7.6236281875000005,1.5884314125,5.832652250000001,0.0,0.0,0.0
448,4.480000954,6.381806,1.5095012,5.237593,0.0,0.0,0.0
449,4.490000954,5.486287475,1.3161132500000001,2.814016,0.0,0.0,0.0
450,4.500000954,4.28628,0.88099,0.8316663,0.0,0.0,0.0
451,4.510000954,4.28628,0.88099,0.8316663,0.0,0.0,0.0
452,4.520000954,4.2053354249999995,0.8410060450000001,0.75951205,0.0,0.0,0.0
453,4.530000954,2.2828703,-0.42212072375,-0.2920965325,0.0,0.0,0.0
454,4.540000954,1.71155755,-0.8317884125,-0.37017208,0.0,0.0,0.0
455,4.550000954,1.4525469750000002,-1.0015523625,-0.39306366125000003,0.0,0.0,0.0
456,4.560000954,0.520585,-1.5617551,-0.55330473,0.0,0.0,0.0
457,4.570000954,0.44690464124999996,-1.59246035,-0.55623485125,0.0,0.0,0.0
458,4.580000954,-0.06885787,-1.8073971,-0.5767457,0.0,0.0,0.0
459,4.590000954,-0.06885787,-1.8073971,-0.5767457,0.0,0.0,0.0
460,4.600000954,-0.06885787,-1.8073971,-0.5767457,0.0,0.0,0.0
461,4.610000954,-0.06885787,-1.8073971,-0.5767457,0.0,0.0,0.0
462,4.620000954,-0.06885787,-1.8073971,-0.5767457,0.0,0.0,0.0
463,4.630000954,-1.2191749837499999,-1.8826036124999999,-0.48145570625,0.0,0.0,0.0
464,4.640000954,-1.383506,-1.8933474,-0.46784285,0.0,0.0,0.0
465,4.650000954,-2.62258135,-2.1411868,0.373102225,0.0,0.0,0.0
466,4.660000954,-4.107603675,-2.40953705,1.2140473,0.0,0.0,0.0
467,4.670000954,-4.189586,-2.416374,1.2140473,0.0,0.0,0.0
468,4.680000954,-3.756416325,-2.39195635,1.0998946250000001,0.0,0.0,0.0
469,4.690000954,-2.4569073,-2.3187034,0.7574366,0.0,0.0,0.0
470,4.700000954,-2.4569073,-2.3187034,0.7574366,0.0,0.0,0.0
471,4.710000954,-2.4569073,-2.3187034,0.7574366,0.0,0.0,0.0
472,4.720000954,-2.4569073,-2.3187034,0.7574366,0.0,0.0,0.0
473,4.730000954,0.7452277714285714,-1.7295394714285715,-0.3055698828571428,0.0,0.0,0.0
474,4.740000954,3.3156774,-1.2355348312499999,-0.41705406,0.0,0.0,0.0
475,4.750000954,4.87963,-0.94496435,-0.41705406,0.0,0.0,0.0
476,4.760000954,6.424780999999999,-0.345998575,1.20623357,0.0,0.0,0.0
477,4.770000954,7.969932,0.2529672,2.8295212,0.0,0.0,0.0
478,4.780000954,7.969932,1.0651603875,5.6515952,0.0,0.0,0.0
479,4.790000954,7.82660025,1.57005705,7.3448396,0.0,0.0,0.0
480,4.800000954,6.177491125,1.2912071125,6.95556085,0.0,0.0,0.0
481,4.810000954,6.003332,1.2438368,5.702627925,0.0,0.0,0.0
482,4.820000954,6.003332,1.2438368,5.3035207,0.0,0.0,0.0
483,4.830000954,5.00818925,0.82391369,3.519808975,0.0,0.0,0.0
484,4.840000954,2.8503373,-0.1563342275,0.42108293999999996,0.0,0.0,0.0
485,4.850000954,2.2610774,-0.50007415,-0.46002918,0.0,0.0,0.0
486,4.860000954,1.934185775,-0.7390622437500001,-0.46002918,0.0,0.0,0.0
487,4.870000954,1.7380508,-0.8824551,-0.46002918,0.0,0.0,0.0
488,4.880000954,1.4786129,-1.0522801,-0.40435686,0.0,0.0,0.0
489,4.890000954,0.5920067625000001,-1.62121215,-0.2373399,0.0,0.0,0.0
490,4.900000954,-0.26371098,-1.9363223,0.09815910000000001,0.0,0.0,0.0
491,4.910000954,-0.59359389,-1.9636700999999999,0.0981591,0.0,0.0,0.0
492,4.920000954,-0.9234768,-1.9910179,0.0981591,0.0,0.0,0.0
493,4.930000954,-1.282416775,-2.008598675,0.2913029825,0.0,0.0,0.0
494,4.940000954,-2.497807075,-2.0827065,0.87073463,0.0,0.0,0.0
495,4.950000954,-3.247185925,-2.199545025,1.4179349075,0.0,0.0,0.0
496,4.960000954,-3.3584085,-2.2171257,1.600335,0.0,0.0,0.0
497,4.970000954,-3.3584085,-2.2171257,1.600335,0.0,0.0,0.0
498,4.980000954,-3.4018109375,-2.226892775,1.635984825,0.0,0.0,0.0
499,4.990000954,-3.5310414999999997,-2.292332225,1.838651625,0.0,0.0,0.0
500,5.000000954,-3.007282,-2.283542,1.6980057,0.0,0.0,0.0
501,5.010000954,-2.4710085,-2.297215625,1.0356760775,0.0,0.0,0.0
502,5.020000954,-2.394398,-2.299169,0.94105756,0.0,0.0,0.0
503,5.030000954,-2.394398,-2.299169,0.94105756,0.0,0.0,0.0
504,5.040000954,0.33696408625,-1.6470949375000001,-0.11738801875,0.0,0.0,0.0
505,5.050000954,0.72715867,-1.5539415,-0.26859453,0.0,0.0,0.0
506,5.060000954,2.1643836175000004,-1.1675316750000002,-0.9740214075,0.0,0.0,0.0
507,5.070000954,2.6434586,-1.0387284,-1.2091637,0.0,0.0,0.0
508,5.080000954,2.6434586,-1.0387284,-1.2091637,0.0,0.0,0.0
509,5.090000954,5.26884785,-0.19888206750000004,0.7869819250000001,0.0,0.0,0.0
510,5.100000954,7.9513745,1.401208765,4.581001925,0.0,0.0,0.0
511,5.110000954,7.969932,1.5798241,5.6238813,0.0,0.0,0.0
512,5.120000954,7.5456748125,1.8722259125,5.5140017375,0.0,0.0,0.0
513,5.130000954,7.2911205,2.047667,5.448074,0.0,0.0,0.0
514,5.140000954,6.1071680125,1.7414082,4.5018885,0.0,0.0,0.0
515,5.150000954,4.13586745,1.060460035,2.34190007,0.0,0.0,0.0
516,5.160000954,3.6499555,0.83020127,0.74962294,0.0,0.0,0.0
517,5.170000954,3.6499555,0.83020127,0.74962294,0.0,0.0,0.0
518,5.180000954,3.6499555,0.83020127,0.74962294,0.0,0.0,0.0
519,5.190000954,2.5273001571428573,0.08769436057142857,-0.12655337000000003,0.0,0.0,0.0
520,5.200000954,0.9472229999999999,-0.9720070437499999,-0.85120049125,0.0,0.0,0.0
521,5.210000954,0.41473436625,-1.2420665625,-0.80724865,0.0,0.0,0.0
522,5.220000954,-0.011048992500000007,-1.4220859125,-0.67118110375,0.0,0.0,0.0
523,5.230000954,-0.37700903,-1.5734756,-0.44440186,0.0,0.0,0.0
524,5.240000954,-1.251162215,-1.63793825,-0.338917465,0.0,0.0,0.0
525,5.250000954,-2.56117085,-1.757707025,0.1469944625,0.0,0.0,0.0
526,5.260000954,-2.8578458125,-1.8078853375,0.20755032,0.0,0.0,0.0
527,5.270000954,-2.9486797,-1.8269311,0.20755032,0.0,0.0,0.0
528,5.280000954,-2.9486797,-1.8269311,0.20755032,0.0,0.0,0.0
529,5.290000954,-2.9364010142857144,-1.8258148714285714,0.4026127257142857,0.0,0.0,0.0
530,5.300000954,-2.6361332,-1.8191174,0.9840327,0.0,0.0,0.0
531,5.310000954,-2.35227755,-1.8191174,0.9840327,0.0,0.0,0.0
532,5.320000954,-2.257659,-1.8191174,0.9840327,0.0,0.0,0.0
533,5.330000954,-2.257659,-1.8191174,0.9840327,0.0,0.0,0.0
534,5.340000954,-1.879184925,-1.8347447250000002,0.83276514,0.0,0.0,0.0
535,5.350000954,-0.7437627,-1.8816267,0.37896246,0.0,0.0,0.0
536,5.360000954,-0.67643093125,-1.871371275,0.3233511845,0.0,0.0,0.0
537,5.370000954,0.06507311249999999,-1.7225455250000001,-0.137105293,0.0,0.0,0.0
538,5.380000954,0.8756181,-1.4914322,-0.35063794,0.0,0.0,0.0
539,5.390000954,0.8756181,-1.4914322,-0.35063794,0.0,0.0,0.0
540,5.400000954,4.289943,-0.91200051,-0.17507478499999998,0.0,0.0,0.0
541,5.410000954,6.151303,-0.39507812,0.44147173,0.0,0.0,0.0
542,5.420000954,6.151303,-0.39507812,0.44147173,0.0,0.0,0.0
543,5.430000954,6.151303,-0.39507812,0.44147173,0.0,0.0,0.0
544,5.440000954,6.151303,-0.39507812,0.44147173,0.0,0.0,0.0
545,5.450000954,7.969932,1.4782467,5.8695226,0.0,0.0,0.0
546,5.460000954,5.89796955,1.1738802,4.535523599999999,0.0,0.0,0.0
547,5.470000954,5.2073154,1.0724247,4.339999,0.0,0.0,0.0
548,5.480000954,4.0422255,0.647923245,1.4717758975,0.0,0.0,0.0
549,5.490000954,3.6538622,0.50642276,0.51570153,0.0,0.0,0.0
550,5.500000954,3.0599021375,0.113725364875,-0.09876953,0.0,0.0,0.0
551,5.510000954,2.6795967714285713,-0.1429481037142857,-0.18655111,0.0,0.0,0.0
552,5.520000954,2.457029525,-0.28751824000000004,-0.2236659875,0.0,0.0,0.0
553,5.530000954,1.87558325,-0.6416967275000001,-0.28373348249999997,0.0,0.0,0.0
554,5.540000954,1.7146097,-0.73839074,-0.2529672,0.0,0.0,0.0
555,5.550000954,1.167287375,-1.033966885,-0.23147964,0.0,0.0,0.0
556,5.560000954,0.8365499,-1.2106289,-0.1492530925,0.0,0.0,0.0
557,5.570000954,0.8365499,-1.2106289,-0.1128097,0.0,0.0,0.0
558,5.580000954,-0.48619093428571425,-1.5850565428571428,-0.06425339285714285,0.0,0.0,0.0
559,5.590000954,-1.1495845,-1.7175399,-0.06983458,0.0,0.0,0.0
560,5.600000954,-1.739882125,-1.8054435875000001,-0.06983458,0.0,0.0,0.0
561,5.610000954,-2.96943445,-2.01445905,0.331286925,0.0,0.0,0.0
562,5.620000954,-3.4946587,-2.108223,0.6368132,0.0,0.0,0.0
563,5.630000954,-3.4946587,-2.108223,0.6368132,0.0,0.0,0.0
564,5.640000954,-3.4946587,-2.108223,0.6368132,0.0,0.0,0.0
565,5.650000954,-3.407487725,-2.0676896,0.8313611,0.0,0.0,0.0
566,5.660000954,-3.042321525,-1.9998083625,1.0408648375,0.0,0.0,0.0
567,5.670000954,-2.355452025,-1.9880878499999999,0.74577714625,0.0,0.0,0.0
568,5.680000954,-0.5241430285714286,-1.7593987142857144,0.06460221637142857,0.0,0.0,0.0
569,5.690000954,-0.3144998,-1.7292603,-0.0034184759,0.0,0.0,0.0
570,5.700000954,-0.03210926749999999,-1.6591205625,-0.3561318974375,0.0,0.0,0.0
571,5.710000954,1.14982878,-1.4220860000000002,-1.1399394999999999,0.0,0.0,0.0
572,5.720000954,2.705968,-1.1754674,-1.0021018,0.0,0.0,0.0
573,5.730000954,4.283166875,-0.77593297625,-0.015444178749999992,0.0,0.0,0.0
574,5.740000954,4.508481,-0.71885663,0.12550691,0.0,0.0,0.0
575,5.750000954,5.3001633749999995,-0.4496516589875,0.12550691,0.0,0.0,0.0
576,5.760000954,7.46357025,0.3991681097625,2.8837894662499997,0.0,0.0,0.0
577,5.770000954,7.969932,1.2399299,4.538759,0.0,0.0,0.0
578,5.780000954,7.1709244875,1.3434609875,5.29985835,0.0,0.0,0.0
579,5.790000954,5.8392453,1.2789984,5.576999,0.0,0.0,0.0
580,5.800000954,5.8392453,1.2789984,5.576999,0.0,0.0,0.0
581,5.810000954,4.621779075,0.690776325,3.174299,0.0,0.0,0.0
582,5.820000954,3.5262799,0.1293526825,0.4680259675,0.0,0.0,0.0
583,5.830000954,2.485353875,-0.5520838499999999,-0.23453188,0.0,0.0,0.0
584,5.840000954,2.1712203,-0.76183176,-0.37798578,0.0,0.0,0.0
585,5.850000954,2.0234322825,-0.84375309,-0.426271745,0.0,0.0,0.0
586,5.860000954,0.98891616,-1.4172024,-0.7642735,0.0,0.0,0.0
587,5.870000954,0.70982206,-1.5402675000000001,-0.7369257,0.0,0.0,0.0
588,5.880000954,0.06271856714285715,-1.7969322428571428,-0.5285382142857143,0.0,0.0,0.0
589,5.890000954,-0.08448519,-1.8503721,-0.45612234,0.0,0.0,0.0
590,5.900000954,-0.08448519,-1.8503721,-0.45612234,0.0,0.0,0.0
591,5.910000954,-0.9921515325,-1.890905425,-0.311569645,0.0,0.0,0.0
592,5.920000954,-2.75907605,-1.95780985,-0.11775427249999999,0.0,0.0,0.0
593,5.930000954,-3.9850272625,-2.0227611,0.60610798375,0.0,0.0,0.0
594,5.940000954,-4.225724725,-2.075991375,0.6602542,0.0,0.0,0.0
595,5.950000954,-4.2833505,-2.0925953,0.6602542,0.0,0.0,0.0
596,5.960000954,-4.2389102125,-2.1502823,1.185844825,0.0,0.0,0.0
597,5.970000954,-4.029650625,-2.17610405,1.2609292,0.0,0.0,0.0
598,5.980000954,-2.3113082714285715,-2.212102657142857,0.9850093428571428,0.0,0.0,0.0
599,5.990000954,-1.8674645,-2.151991575,0.62344450625,0.0,0.0,0.0
600,6.000000954,-1.8674645,-2.1199434,0.47272637,0.0,0.0,0.0
601,6.010000954,-1.118329935,-2.05352725,0.27567566,0.0,0.0,0.0
602,6.020000954,-0.36919537,-1.9871111,0.07862495,0.0,0.0,0.0
603,6.030000954,0.35362910625,-1.773761575,-0.76482286875,0.0,0.0,0.0
604,6.040000954,0.34868452,-1.7644218,-0.8619442,0.0,0.0,0.0
605,6.050000954,0.34868452,-1.7644218,-0.8619442,0.0,0.0,0.0
606,6.060000954,3.741277755,-1.2181371875,-0.319993740625,0.0,0.0,0.0
607,6.070000954,5.745062742857143,-0.8541305771428572,0.5011206414285715,0.0,0.0,0.0
608,6.080000954,7.591458,-0.35600984,3.5752373,0.0,0.0,0.0
609,6.090000954,7.6860765,0.02063292,4.1859236,0.0,0.0,0.0
610,6.100000954,7.969932,1.1505612,6.0179825,0.0,0.0,0.0
611,6.110000954,7.969932,1.30567455,6.7320168124999995,0.0,0.0,0.0
612,6.120000954,7.742603375,1.4685405375,7.847966250000001,0.0,0.0,0.0
613,6.130000954,5.06666945,0.289837945,5.14382925,0.0,0.0,0.0
614,6.140000954,3.9820359,-0.21927081,2.9584465,0.0,0.0,0.0
615,6.150000954,3.9820359,-0.21927081,2.9584465,0.0,0.0,0.0
616,6.160000954,3.9820359,-0.21927081,2.9584465,0.0,0.0,0.0
617,6.170000954,3.5137745857142852,-0.4154494614285714,1.1255854257142857,0.0,0.0,0.0
618,6.180000954,2.6962007999999997,-0.8133530625000001,-0.49103966,0.0,0.0,0.0
619,6.190000954,1.8425585075,-1.26166173125,-0.79735953,0.0,0.0,0.0
620,6.200000954,0.68076503,-1.8542789,-0.9903813,0.0,0.0,0.0
621,6.210000954,0.4212050475,-1.913858,-0.89869289,0.0,0.0,0.0
622,6.220000954,-0.3574749,-2.0925953,-0.5030043,0.0,0.0,0.0
623,6.230000954,-1.6311013375,-2.0657360375000002,-0.43219301,0.0,0.0,0.0
624,6.240000954,-2.5544560625,-2.108406,-0.3975199,0.0,0.0,0.0
625,6.250000954,-3.2880855,-2.1546166,0.2700596,0.0,0.0,0.0
626,6.260000954,-3.3309908571428575,-2.1557328,0.3274760428571429,0.0,0.0,0.0
627,6.270000954,-3.588423,-2.16243,0.6719747,0.0,0.0,0.0
628,6.280000954,-3.68218675,-2.183917675,0.9967298625,0.0,0.0,0.0
629,6.290000954,-3.6510540000000002,-2.1966149,1.288277,0.0,0.0,0.0
630,6.300000954,-3.1477446625,-2.188312825,1.1906063125,0.0,0.0,0.0
631,6.310000954,-2.9721205,-2.1780574,1.1320039,0.0,0.0,0.0
632,6.320000954,-2.0364959,-2.1314808625,0.68577069375,0.0,0.0,0.0
633,6.330000954,-1.7155865,-2.1160367,0.41803077,0.0,0.0,0.0
634,6.340000954,-1.7155865,-2.1160367,0.41803077,0.0,0.0,0.0
635,6.350000954,-0.3076628225,-1.893347225,-0.5507408324999999,0.0,0.0,0.0
636,6.360000954,0.16164507,-1.8191174,-0.8736647,0.0,0.0,0.0
637,6.370000954,1.6022186528571427,-1.6967499571428573,-0.9130121185714286,0.0,0.0,0.0
638,6.380000954,1.9451127,-1.6477053,-1.0567974,0.0,0.0,0.0
639,6.390000954,5.1033572125,-1.08750265,-0.22476479249999998,0.0,0.0,0.0
640,6.400000954,5.554535,-1.0074737,1.3625067,0.0,0.0,0.0
641,6.410000954,5.554535,-1.0074737,1.3625067,0.0,0.0,0.0
642,6.420000954,7.36608275,0.04297509999999999,3.355722675,0.0,0.0,0.0
643,6.430000954,7.969932,0.9980728875,5.7125781875,0.0,0.0,0.0
644,6.440000954,7.969932,1.2441856571428571,7.168613514285715,0.0,0.0,0.0
645,6.450000954,7.969932,1.1974432,7.3448396,0.0,0.0,0.0
646,6.460000954,7.969932,1.1974432,7.3448396,0.0,0.0,0.0
647,6.470000954,6.6821435000000005,0.943743475,6.2150333,0.0,0.0,0.0
648,6.480000954,5.394355,0.69004375,5.085227,0.0,0.0,0.0
649,6.490000954,5.394355,0.69004375,5.085227,0.0,0.0,0.0
650,6.500000954,3.8007346625,0.16030209125,1.35951565625,0.0,0.0,0.0
651,6.510000954,4.0987525,0.280315,1.2921839,0.0,0.0,0.0
652,6.520000954,2.4090487499999997,-0.49445809999999996,0.62680198,0.0,0.0,0.0
653,6.530000954,0.45307014500000004,-1.334975825,0.011232135,0.0,0.0,0.0
654,6.540000954,-0.38286929000000003,-1.47775825,0.09425226,0.0,0.0,0.0
655,6.550000954,-1.992483075,-1.53147715,0.03857994,0.0,0.0,0.0
656,6.560000954,-2.398305,-1.5383140999999998,0.0200225,0.0,0.0,0.0
657,6.570000954,-2.571914725,-1.573475575,-0.055000835,0.0,0.0,0.0
658,6.580000954,-3.4703635,-1.7196154,-0.039434561,0.0,0.0,0.0
659,6.590000954,-3.5962367,-1.7331672,0.12337034999999999,0.0,0.0,0.0
660,6.600000954,-3.5962367,-1.7331672,0.30863953,0.0,0.0,0.0
661,6.610000954,-3.5962367,-1.7331672,0.30863953,0.0,0.0,0.0
662,6.620000954,-3.5250591499999997,-1.7409808500000001,0.41064441625,0.0,0.0,0.0
663,6.630000954,-2.5145942999999997,-1.6869567375,0.864874375,0.0,0.0,0.0
664,6.640000954,-1.7780958,-1.6359848,0.816039,0.0,0.0,0.0
665,6.650000954,-1.4247719,-1.58519605,0.301070045,0.0,0.0,0.0
666,6.660000954,-1.071448,-1.5344073,-0.21389891,0.0,0.0,0.0
667,6.670000954,-0.53596818,-1.464084375,-0.45099463249999994,0.0,0.0,0.0
668,6.680000954,1.1541018875,-1.4054819375,-1.097330725,0.0,0.0,0.0
669,6.690000954,1.2658128000000002,-1.4132956,-1.088052,0.0,0.0,0.0
670,6.700000954,3.710145125,-1.1987251875,0.24851100000000004,0.0,0.0,0.0
671,6.710000954,4.6413136,-1.0621693,1.0504488,0.0,0.0,0.0
672,6.720000954,4.6413136,-1.0621693,1.0504488,0.0,0.0,0.0
673,6.730000954,7.5538547000000005,0.8876438624999999,5.40387795,0.0,0.0,0.0
674,6.740000954,7.969932,1.202204675,6.0257964,0.0,0.0,0.0
675,6.750000954,5.2268496,0.7916213,5.1203885,0.0,0.0,0.0
676,6.760000954,5.2268496,0.7916213,3.860252875,0.0,0.0,0.0
677,6.770000954,5.2268496,0.7916213,3.6802335,0.0,0.0,0.0
678,6.780000954,3.487403585714286,-0.023022407142857155,1.5420116857142858,0.0,0.0,0.0
679,6.790000954,3.0180259,-0.26224595,0.474313525,0.0,0.0,0.0
680,6.800000954,3.0180259,-0.26224595,0.16848202,0.0,0.0,0.0
681,6.810000954,3.0180259,-0.26224595,0.16848202,0.0,0.0,0.0
682,6.820000954,3.0180259,-0.26224595,0.16848202,0.0,0.0,0.0
683,6.830000954,1.36745135875,-1.02316196875,-0.47980749749999996,0.0,0.0,0.0
684,6.840000954,0.4280420025,-1.3792328500000002,-0.6929738875,0.0,0.0,0.0
685,6.850000954,-0.06867475375,-1.4762931750000001,-0.5417673762499999,0.0,0.0,0.0
686,6.860000954,-0.51765496,-1.5226868,-0.28812867,0.0,0.0,0.0
687,6.870000954,-0.51765496,-1.5226868,-0.28812867,0.0,0.0,0.0
688,6.880000954,-0.98582332,-1.5409186666666668,-0.05160270866666666,0.0,0.0,0.0
689,6.890000954,-2.493045625,-1.8485409,0.026859454249999998,0.0,0.0,0.0
690,6.900000954,-2.917425,-1.948043,0.05127714,0.0,0.0,0.0
691,6.910000954,-3.7366383,-2.1783016,0.86292094,0.0,0.0,0.0
692,6.920000954,-3.5337274,-2.1121297,0.86292094,0.0,0.0,0.0
693,6.930000954,-3.6993490142857146,-2.161592957142857,1.3033462514285714,0.0,0.0,0.0
694,6.940000954,-3.4323939,-2.14509355,2.0022502,0.0,0.0,0.0
695,6.950000954,-2.9430634875,-2.093083875,1.9471272750000002,0.0,0.0,0.0
696,6.960000954,-1.14525045,-1.929485425,1.2949919225,0.0,0.0,0.0
697,6.970000954,-0.5332822,-1.7878628,0.85120046,0.0,0.0,0.0
698,6.980000954,-0.28055917500000005,-1.7429953125000002,0.6292437075,0.0,0.0,0.0
699,6.990000954,1.85232555,-1.3743494,-1.022978895,0.0,0.0,0.0
700,7.000000954,2.9437962,-1.2106289,-0.785700025,0.0,0.0,0.0
701,7.010000954,4.545351924999999,-0.79742051,0.7860052625,0.0,0.0,0.0
702,7.020000954,4.7741456,-0.73839074,0.99966,0.0,0.0,0.0
703,7.030000954,4.7741456,-0.73839074,0.9996599999999999,0.0,0.0,0.0
704,7.040000954,7.969932,0.764517675,5.621866625,0.0,0.0,0.0
705,7.050000954,7.969932,1.4508989,6.072678,0.0,0.0,0.0
706,7.060000954,6.9835797,1.333693925,4.95740055,0.0,0.0,0.0
707,7.070000954,6.6547956,1.2946256,4.5856414,0.0,0.0,0.0
708,7.080000954,6.6547956,1.2946256,4.5856414,0.0,0.0,0.0
709,7.090000954,4.2648537625,0.75194255,1.5944748125,0.0,0.0,0.0
710,7.100000954,2.830498,0.15138964,-0.21780574,0.0,0.0,0.0
711,7.110000954,2.830498,0.15138964,-0.21780574,0.0,0.0,0.0
712,7.120000954,2.830498,0.15138964,-0.21780574,0.0,0.0,0.0
713,7.130000954,2.413504975,-0.10316470625000002,-0.34361786125,0.0,0.0,0.0
714,7.140000954,0.738695975,-1.0363475437499998,-0.67978835125,0.0,0.0,0.0
715,7.150000954,0.5987216,-1.1090512,-0.69785744,0.0,0.0,0.0
716,7.160000954,-0.1067052775,-1.3343044000000002,-0.455023545,0.0,0.0,0.0
717,7.170000954,-0.34184757,-1.4093888,-0.3193833,0.0,0.0,0.0
718,7.180000954,-0.43988457375,-1.4255044625000002,-0.31254635,0.0,0.0,0.0
719,7.190000954,-2.8879405250000003,-1.79769105,-0.3467311125,0.0,0.0,0.0
720,7.200000954,-3.7219875250000003,-1.8992076249999998,0.0631197175,0.0,0.0,0.0
721,7.210000954,-4.0919155375,-1.959763325,0.20364349,0.0,0.0,0.0
722,7.220000954,-4.1974,-1.9832042,0.20364349,0.0,0.0,0.0
723,7.230000954,-4.1974,-1.9832042,0.20364349,0.0,0.0,0.0
724,7.240000954,-3.474331325,-2.0971738875000003,0.7537738975,0.0,0.0,0.0
725,7.250000954,-2.6949798,-2.201498425,0.735338525,0.0,0.0,0.0
726,7.260000954,-2.012871825,-2.2552173,0.6680678,0.0,0.0,0.0
727,7.270000954,-1.8362099,-2.2679145,0.6680678,0.0,0.0,0.0
728,7.280000954,-1.8362099,-2.2679145,0.6680678,0.0,0.0,0.0
729,7.290000954,-0.625581075,-2.049925675,0.2825736375,0.0,0.0,0.0
730,7.300000954,0.6299763,-1.7527015,0.05127714,0.0,0.0,0.0
731,7.310000954,1.884129625,-1.394860225,-0.41125484874999996,0.0,0.0,0.0
732,7.320000954,1.5197567,-1.4758048,-0.45221552,0.0,0.0,0.0
733,7.330000954,1.5197567,-1.4758048,-0.45221552,0.0,0.0,0.0
734,7.340000954,5.1317425125,-0.793025325,1.8087399925,0.0,0.0,0.0
735,7.350000954,7.298934,-0.38335764,4.546573,0.0,0.0,0.0
736,7.360000954,7.773858,0.929825415,6.06950375,0.0,0.0,0.0
737,7.370000954,7.856634,1.4977807,6.9932246,0.0,0.0,0.0
738,7.380000954,7.856634,1.4977807,6.9932246,0.0,0.0,0.0
739,7.390000954,7.1123829999999995,1.360187075,6.255810625,0.0,0.0,0.0
740,7.400000954,4.497127,0.7757498675,3.78193315,0.0,0.0,0.0
741,7.410000954,3.349618,0.26078087,0.533892675,0.0,0.0,0.0
742,7.420000954,3.1534829875,0.140828994875,0.07734301125000001,0.0,0.0,0.0
743,7.430000954,2.8265913,-0.059090797,-0.13966917,0.0,0.0,0.0
744,7.440000954,2.581803975,-0.25138006025000004,-0.19045795250000003,0.0,0.0,0.0
745,7.450000954,1.847442,-0.82824785,-0.3428243,0.0,0.0,0.0
746,7.460000954,1.847442,-0.82824785,-0.3428243,0.0,0.0,0.0
747,7.470000954,1.56639445,-0.9930672125,-0.383846,0.0,0.0,0.0
748,7.480000954,0.7232518,-1.4875253,-0.5069111,0.0,0.0,0.0
749,7.490000954,0.420960875,-1.5715221499999998,-0.450262085,0.0,0.0,0.0
750,7.500000954,-0.31883390624999997,-1.6599141499999999,-0.33061544375,0.0,0.0,0.0
751,7.510000954,-1.048007,-1.6672394,-0.2256194,0.0,0.0,0.0
752,7.520000954,-1.048007,-1.6672394,-0.2256194,0.0,0.0,0.0
753,7.530000954,-2.8952659625,-1.916360825,0.18417038249999998,0.0,0.0,0.0
754,7.540000954,-3.1591601,-1.9519496,0.24271178,0.0,0.0,0.0
755,7.550000954,-3.65105435,-2.00469185,0.7987024699999999,0.0,0.0,0.0
756,7.560000954,-3.1974348125,-1.98955285,0.932145115,0.0,0.0,0.0
757,7.570000954,-2.605367,-1.9792974,0.74962294,0.0,0.0,0.0
758,7.580000954,-2.605367,-1.9792974,0.74962294,0.0,0.0,0.0
759,7.590000954,-2.605367,-1.9792974,0.74962294,0.0,0.0,0.0
760,7.600000954,-1.627804925,-1.988087775,0.3459985975,0.0,0.0,0.0
761,7.610000954,-2.605367,-1.9792974,0.74962294,0.0,0.0,0.0
762,7.620000954,-2.605367,-1.9792974,0.74962294,0.0,0.0,0.0
763,7.630000954,-2.605367,-1.9792974,0.74962294,0.0,0.0,0.0
764,7.640000954,-2.1975306125,-1.9227094375,0.5862686225,0.0,0.0,0.0
765,7.650000954,1.9539031749999998,-1.462130975,-0.62460435,0.0,0.0,0.0
766,7.660000954,2.3860962,-1.4406434,-0.6470686,0.0,0.0,0.0
767,7.670000954,3.29528865,-1.2728939124999998,-0.4675986275,0.0,0.0,0.0
768,7.680000954,6.022866,-0.76964545,0.07081129,0.0,0.0,0.0
769,7.690000954,6.022866,-0.76964545,0.07081129,0.0,0.0,0.0
770,7.700000954,6.022866,-0.76964545,0.07081129,0.0,0.0,0.0
771,7.710000954,7.969932,1.1700954,5.779666,0.0,0.0,0.0
772,7.720000954,7.969932,1.1700954,5.779666,0.0,0.0,0.0
773,7.730000954,7.969932,1.1700954,5.779666,0.0,0.0,0.0
774,7.740000954,7.969932,1.1700954,5.779666,0.0,0.0,0.0
775,7.750000954,5.7686166875,0.7905225324999999,3.1920019374999997,0.0,0.0,0.0
776,7.760000954,3.9789836249999997,0.406066105,1.083412775,0.0,0.0,0.0
777,7.770000954,2.8385558499999997,-0.152854695,0.4414718,0.0,0.0,0.0
778,7.780000954,2.050109,-0.65634733,-0.7564599,0.0,0.0,0.0
779,7.790000954,2.050109,-0.65634733,-0.7564599,0.0,0.0,0.0
780,7.800000954,1.2981662,-1.1801067325,-0.733018905,0.0,0.0,0.0
781,7.810000954,1.0475186,-1.3546932,-0.72520524,0.0,0.0,0.0
782,7.820000954,1.0475186,-1.3546932,-0.72520524,0.0,0.0,0.0
783,7.830000954,-1.0128455,-2.108223,0.1528547,0.0,0.0,0.0
784,7.840000954,-1.0128455,-2.108223,0.1528547,0.0,0.0,0.0
785,7.850000954,-1.6801808,-2.1126181500000003,0.26255115125,0.0,0.0,0.0
786,7.860000954,-2.954417625,-2.113106375,0.5888324524999999,0.0,0.0,0.0
787,7.870000954,-3.4404516,-2.0925953,1.0191941,0.0,0.0,0.0
788,7.880000954,-3.8587267499999998,-2.20357385,1.437469025,0.0,0.0,0.0
789,7.890000954,-3.9981518,-2.2405667,1.576894,0.0,0.0,0.0
790,7.900000954,-3.8050077,-2.2972156999999997,1.5925213500000002,0.0,0.0,0.0
791,7.910000954,-2.7923453499999997,-2.4344431375,1.3618353250000002,0.0,0.0,0.0
792,7.920000954,-2.3006344,-2.4827902,1.2140473,0.0,0.0,0.0
793,7.930000954,-1.683111025,-2.509161325,0.64926625,0.0,0.0,0.0
794,7.940000954,-1.4772699,-2.5179517,0.4610059,0.0,0.0,0.0
795,7.950000954,-0.88172257875,-2.4241877499999998,0.24142986625,0.0,0.0,0.0
796,7.960000954,0.3147439675,-2.1967369249999997,-0.144918955,0.0,0.0,0.0
797,7.970000954,0.926407,-1.9832042,-0.20608525,0.0,0.0,0.0
798,7.980000954,3.3175085500000003,-1.46029965,-0.3613817225,0.0,0.0,0.0
799,7.990000954,2.5496945,-1.5969166,-0.42096087,0.0,0.0,0.0
800,8.000000954,2.5496945,-1.5969166,-0.42096087,0.0,0.0,0.0
801,8.010000954,7.0879655,-0.42633274,3.4384983,0.0,0.0,0.0
802,8.020000954,7.0879655,-0.42633274,3.4384983,0.0,0.0,0.0
803,8.030000954,7.52894875,0.29765157999999997,5.4072963000000005,0.0,0.0,0.0
804,8.040000954,7.969932,1.0216359,7.3760943,0.0,0.0,0.0
805,8.050000954,7.969932,1.0216359,7.3760943,0.0,0.0,0.0
806,8.060000954,6.869122,1.2025709500000001,5.5334132875,0.0,0.0,0.0
807,8.070000954,5.0462808625,0.88984147625,1.1437243,0.0,0.0,0.0
808,8.080000954,4.438647,0.59627986,1.1437243,0.0,0.0,0.0
809,8.090000954,4.438647,0.59627986,1.1437243,0.0,0.0,0.0
810,8.100000954,4.438647,0.59627986,1.1437243,0.0,0.0,0.0
811,8.110000954,4.278650075,0.4743135275,0.96376597,0.0,0.0,0.0
812,8.120000954,1.1941469,-1.830776975,-0.56655135,0.0,0.0,0.0
813,8.130000954,0.6924856,-2.213219,-0.5225385,0.0,0.0,0.0
814,8.140000954,0.29234075375,-2.4375563749999998,-0.439518325,0.0,0.0,0.0
815,8.150000954,0.052253846,-2.5721588,-0.38970622,0.0,0.0,0.0
816,8.160000954,-0.9842768077499999,-2.6014599875,0.058968711249999986,0.0,0.0,0.0
817,8.170000954,-2.4959757,-2.5023243,0.792598,0.0,0.0,0.0
818,8.180000954,-2.9349445125,-2.5111146375,1.3457806625,0.0,0.0,0.0
819,8.190000954,-3.6665592,-2.5257652,1.7175399,0.0,0.0,0.0
820,8.200000954,-3.6665591999999996,-2.5257652,1.8230243,0.0,0.0,0.0
821,8.210000954,-3.8968179,-2.62319185,1.8659994,0.0,0.0,0.0
822,8.220000954,-4.1270766,-2.7206185,1.9089745,0.0,0.0,0.0
823,8.230000954,-3.9390608,-2.7240368625,1.72779525,0.0,0.0,0.0
824,8.240000954,-3.9122014,-2.7245252,1.7019125,0.0,0.0,0.0
825,8.250000954,-3.9122014,-2.7245252,1.7019125,0.0,0.0,0.0
826,8.260000954,-3.08688365,-2.6465107,1.1965885725,0.0,0.0,0.0
827,8.270000954,-1.8674645,-2.5374858,0.45709905,0.0,0.0,0.0
828,8.280000954,-0.3613817,-2.279635,-0.24124672,0.0,0.0,0.0
829,8.290000954,0.823547465,-1.8869376249999998,-0.44977375375,0.0,0.0,0.0
830,8.300000954,0.99282306,-1.830838,-0.47956333,0.0,0.0,0.0
831,8.310000954,1.536849042857143,-1.7070752,-0.5318869328571428,0.0,0.0,0.0
832,8.320000954,3.29492225,-1.33528105,-0.73008873,0.0,0.0,0.0
833,8.330000954,4.488947,-1.1481196,-0.9322671,0.0,0.0,0.0
834,8.340000954,4.488947,-1.1481196,-0.9322671,0.0,0.0,0.0
835,8.350000954,4.488947,-1.1481196,-0.9322671,0.0,0.0,0.0
836,8.360000954,4.879202625,-1.0163861825,-0.3093719625,0.0,0.0,0.0
837,8.370000954,7.8353295,0.8870944775,5.6128929875,0.0,0.0,0.0
838,8.380000954,5.8321027375,0.7590847175000001,4.40641525,0.0,0.0,0.0
839,8.390000954,5.5779757,0.88099,4.457204,0.0,0.0,0.0
840,8.400000954,5.5779757000000005,0.88099,4.457204,0.0,0.0,0.0
841,8.410000954,5.319453462499999,0.7922317225000001,3.9400985,0.0,0.0,0.0
842,8.420000954,3.5097978,0.17092378,0.32036,0.0,0.0,0.0
843,8.430000954,3.5097978,0.17092378,-0.49519065,0.0,0.0,0.0
844,8.440000954,3.2517029625,-0.022708450000000012,-0.55312160625,0.0,0.0,0.0
845,8.450000954,2.9984918,-0.21145715,-0.6548823,0.0,0.0,0.0
846,8.460000954,2.9984918,-0.21145715,-0.6548823,0.0,0.0,0.0
847,8.470000954,2.26931855,-0.74803580625,-0.6451152375,0.0,0.0,0.0
848,8.480000954,1.8318146,-1.069983,-0.639255,0.0,0.0,0.0
849,8.490000954,0.50691109,-1.695319875,-0.3729801425,0.0,0.0,0.0
850,8.500000954,-1.543686,-2.3460512,0.45319223,0.0,0.0,0.0
851,8.510000954,-1.543686,-2.3460512000000002,0.45319223,0.0,0.0,0.0
852,8.520000954,-2.431574,-2.407095325,0.9873290237499999,0.0,0.0,0.0
853,8.530000954,-2.9643068,-2.4437218,1.3078111,0.0,0.0,0.0
854,8.540000954,-3.2730683750000003,-2.5460929375,1.6151076624999998,0.0,0.0,0.0
855,8.550000954,-3.787671,-2.7167115,2.1272686,0.0,0.0,0.0
856,8.560000954,-3.787671,-2.7167115,2.1272686,0.0,0.0,0.0
857,8.570000954,-3.307497375,-2.725501875,1.647461125,0.0,0.0,0.0
858,8.580000954,-1.6999592,-2.7440593,0.89026874,0.0,0.0,0.0
859,8.590000954,-1.6024105462499998,-2.740640825,0.76103815,0.0,0.0,0.0
860,8.600000954,-0.91956997,-2.7167115,-0.14357598,0.0,0.0,0.0
861,8.610000954,-0.91956997,-2.7167115,-0.14357598,0.0,0.0,0.0
862,8.620000954,0.15163382125,-2.3976945375,-0.292523855,0.0,0.0,0.0
863,8.630000954,1.7536781,-1.8816267,-0.29984915,0.0,0.0,0.0
864,8.640000954,2.3526438499999998,-1.75685235,-0.29984915,0.0,0.0,0.0
865,8.650000954,2.9516096,-1.632078,-0.29984915,0.0,0.0,0.0
866,8.660000954,2.9516096,-1.632078,-0.29984915,0.0,0.0,0.0
867,8.670000954,4.396465,-0.9924567624999999,0.72935629375,0.0,0.0,0.0
868,8.680000954,7.969932,1.291085075,4.991096925,0.0,0.0,0.0
869,8.690000954,7.8155425,1.611009057142857,7.394093428571429,0.0,0.0,0.0
870,8.700000954,6.520376375,1.5659060999999999,6.81399925,0.0,0.0,0.0
871,8.710000954,5.413889,1.1505612,5.444167,0.0,0.0,0.0
872,8.720000954,5.413889,1.1505612,5.444167,0.0,0.0,0.0
873,8.730000954,5.413889,1.1505612,5.444167,0.0,0.0,0.0
874,8.740000954,4.3087447,0.45288697,1.899879012625,0.0,0.0,0.0
875,8.750000954,3.782055325,0.1747085275,-0.15175590725,0.0,0.0,0.0
876,8.760000954,4.009384,0.40875202,-0.026859453,0.0,0.0,0.0
877,8.770000954,3.448814875,-0.12379771250000005,-0.288739123125,0.0,0.0,0.0
878,8.780000954,2.405263925,-1.1138127500000001,-0.6910204950000001,0.0,0.0,0.0
879,8.790000954,2.3506293875,-1.165028825,-0.68613696,0.0,0.0,0.0
880,8.800000954,2.0774567,-1.4211092,-0.68613696,0.0,0.0,0.0
881,8.810000954,2.0774567,-1.4211092,-0.68613696,0.0,0.0,0.0
882,8.820000954,1.2278433225,-1.969408325,-0.52040190875,0.0,0.0,0.0
883,8.830000954,-1.1094174424999999,-2.62490105,0.2306250475,0.0,0.0,0.0
884,8.840000954,-1.4186674,-2.5799725,0.33598736,0.0,0.0,0.0
885,8.850000954,-1.92075605,-2.641505125,1.1589853575000002,0.0,0.0,0.0
886,8.860000954,-3.1747873,-2.7909412,1.7956765,0.0,0.0,0.0
887,8.870000954,-3.1747873,-2.7909412,1.7956765,0.0,0.0,0.0
888,8.880000954,-3.5967858625,-2.5608045500000003,2.5078182124999997,0.0,0.0,0.0
889,8.890000954,-3.6704662,-2.506231,2.5135565,0.0,0.0,0.0
890,8.900000954,-3.2535343875000002,-2.4354198125,2.2110824375,0.0,0.0,0.0
891,8.910000954,-2.5818039,-2.413444025,1.12235885,0.0,0.0,0.0
892,8.920000954,-2.4412801,-2.420281,0.8199458,0.0,0.0,0.0
893,8.930000954,-1.3234384750000001,-2.3763290500000003,0.416321495,0.0,0.0,0.0
894,8.940000954,-0.9508246,-2.3616784,-0.04755344625,0.0,0.0,0.0
895,8.950000954,-0.06537833750000001,-2.0762967125,-0.52809348125,0.0,0.0,0.0
896,8.960000954,0.46588942,-1.9050677,-0.69785744,0.0,0.0,0.0
897,8.970000954,0.46588942,-1.9050677,-0.7393064600000001,0.0,0.0,0.0
898,8.980000954,0.8991812050000001,-1.685674925,-1.0528905499999999,0.0,0.0,0.0
899,8.990000954,2.7814794875,-1.3326562625,-0.98207926375,0.0,0.0,0.0
900,9.000000954,3.7190576875,-1.1783975,-0.534808335,0.0,0.0,0.0
901,9.010000954,6.80667375,-0.161095675,1.4186064962500002,0.0,0.0,0.0
902,9.020000954,7.969932,0.33501062,2.1546166,0.0,0.0,0.0
903,9.030000954,7.969932,0.33501062,3.5839665375000003,0.0,0.0,0.0
904,9.040000954,7.969932,0.89490811,5.2102454,0.0,0.0,0.0
905,9.050000954,7.969932,1.4548056,5.9789143,0.0,0.0,0.0
906,9.060000954,5.599280425,0.9222559,3.857017475,0.0,0.0,0.0
907,9.070000954,4.9807196,0.729112,2.6073203,0.0,0.0,0.0
908,9.080000954,4.540285474999999,0.49195526125,2.07312245,0.0,0.0,0.0
909,9.090000954,3.8062286,0.09669403,1.07016612,0.0,0.0,0.0
910,9.100000954,3.8062286,0.09669403,0.28178006,0.0,0.0,0.0
911,9.110000954,3.0043519,-0.6368131324999999,-0.1174490665,0.0,0.0,0.0
912,9.120000954,3.0883486,-0.58211756,-0.073741406,0.0,0.0,0.0
913,9.130000954,2.404897675,-1.1031298999999999,-0.17318242625,0.0,0.0,0.0
914,9.140000954,1.2658128,-1.9714838,-0.32133673,0.0,0.0,0.0
915,9.150000954,0.7997838399999999,-2.137524057142857,-0.2758500714285715,0.0,0.0,0.0
916,9.160000954,-0.718002025,-2.5716705375,-0.17696715999999998,0.0,0.0,0.0
917,9.170000954,-1.3058578,-2.6034136,-0.12843701,0.0,0.0,0.0
918,9.180000954,-1.5141406375000002,-2.619529275,-0.06403536874999999,0.0,0.0,0.0
919,9.190000954,-3.04134465,-2.7469896,0.5433545425,0.0,0.0,0.0
920,9.200000954,-3.742559675,-2.8583341,1.8794903125,0.0,0.0,0.0
921,9.210000954,-4.1036363,-2.8729846,2.279635,0.0,0.0,0.0
922,9.220000954,-4.1036363,-2.8729846,2.279635,0.0,0.0,0.0
923,9.230000954,-4.2284105,-2.84172995,2.41612985,0.0,0.0,0.0
924,9.240000954,-4.253979171428571,-2.795406114285714,2.511951814285714,0.0,0.0,0.0
925,9.250000954,-3.0340193625,-2.6776431375,1.5440522875,0.0,0.0,0.0
926,9.260000954,-1.308543675,-2.463134,0.01733655250000002,0.0,0.0,0.0
927,9.270000954,-1.0675411,-2.420281,-0.17483063,0.0,0.0,0.0
928,9.280000954,-1.0675411,-2.420281,-0.17483063,0.0,0.0,0.0
929,9.290000954,0.5791875,-1.9832042,-0.96120215,0.0,0.0,0.0
930,9.300000954,0.5791875,-1.9832042,-0.9903813,0.0,0.0,0.0
931,9.310000954,3.3576146,-1.424039325,-0.5630107375,0.0,0.0,0.0
932,9.320000954,3.5097978,-1.3937614,-0.5186316,0.0,0.0,0.0
933,9.330000954,3.5097978,-1.3937614,-0.5186316,0.0,0.0,0.0
934,9.340000954,6.166380837499999,-0.6972469625000001,2.3687594875,0.0,0.0,0.0
935,9.350000954,6.5458927,-0.5977449,2.993608,0.0,0.0,0.0
936,9.360000954,7.079907437499999,-0.050544599999999995,3.5715746875,0.0,0.0,0.0
937,9.370000954,7.969932,0.8614559,4.5348525,0.0,0.0,0.0
938,9.380000954,7.969932,0.8614559,4.5348525,0.0,0.0,0.0
939,9.390000954,7.47815985,1.2167332,5.373843900000001,0.0,0.0,0.0
940,9.400000954,6.7351907875,1.4427188625,5.9474762000000005,0.0,0.0,0.0
941,9.410000954,4.9768124,0.5376774,4.0899625,0.0,0.0,0.0
942,9.420000954,4.314604914285715,0.03285922285714286,1.5081060142857143,0.0,0.0,0.0
943,9.430000954,4.204237,-0.05127714,1.0777966,0.0,0.0,0.0
944,9.440000954,3.6350607249999998,-0.46845326249999997,0.41632151500000003,0.0,0.0,0.0
945,9.450000954,2.6864336,-1.1637468,-0.68613696,0.0,0.0,0.0
946,9.460000954,1.651795265,-1.77150295,-0.90168406,0.0,0.0,0.0
947,9.470000954,0.96938203,-2.17439475,-1.0294496,0.0,0.0,0.0
948,9.480000954,0.66123086,-2.3655853,-1.0763316,0.0,0.0,0.0
949,9.490000954,0.2557752275,-2.4928624375,-0.8992423125,0.0,0.0,0.0
950,9.500000954,-0.41998416,-2.704991,-0.6040935,0.0,0.0,0.0
951,9.510000954,-1.45602655,-2.581926,0.646336125,0.0,0.0,0.0
952,9.520000954,-1.6647978,-2.5838794999999997,1.2140473,0.0,0.0,0.0
953,9.530000954,-1.6647978,-2.5838795,1.2140473,0.0,0.0,0.0
954,9.540000954,-1.8067255750000002,-2.6292963875,1.3018899125,0.0,0.0,0.0
955,9.550000954,-2.8997220875,-2.936959175,2.070436475,0.0,0.0,0.0
956,9.560000954,-3.6372583625000003,-2.8549155875,3.197251675,0.0,0.0,0.0
957,9.570000954,-3.6372583625000003,-2.8549155875,3.129431575,0.0,0.0,0.0
958,9.580000954,-3.5962367,-2.8651712,2.6034136,0.0,0.0,0.0
959,9.590000954,-3.36109435,-2.8886121499999997,2.1604767750000002,0.0,0.0,0.0
960,9.600000954,-1.697334251875,-2.875426475,0.3150491625,0.0,0.0,0.0
961,9.610000954,-1.114492845,-2.8900073714285717,-0.19129510857142856,0.0,0.0,0.0
962,9.620000954,-1.8752781,-3.0053287,0.07471811,0.0,0.0,0.0
963,9.630000954,-1.8752781000000003,-3.0053287,0.07471810999999999,0.0,0.0,0.0
964,9.640000954,-0.99935473875,-2.8283614625,-0.25601943625,0.0,0.0,0.0
965,9.650000954,1.954452475,-2.0511465125,-0.68088713625,0.0,0.0,0.0
966,9.660000954,6.6869047625,-0.7705000125,0.84888078875,0.0,0.0,0.0
967,9.670000954,6.9902945,-0.664161,1.37520395,0.0,0.0,0.0
968,9.680000954,6.9902945,-0.664161,2.5369973,0.0,0.0,0.0
969,9.690000954,7.1127491875,-0.47834242,2.8847661999999996,0.0,0.0,0.0
970,9.700000954,7.969932,0.82238764,5.3191485,0.0,0.0,0.0
971,9.710000954,6.9422529,1.6727335175,6.5724469625,0.0,0.0,0.0
972,9.720000954,6.7954416,1.7942115,6.6197562,0.0,0.0,0.0
973,9.730000954,4.9729056,0.8458286,4.523132,0.0,0.0,0.0
974,9.740000954,4.9729056,0.8458286,4.523132,0.0,0.0,0.0
975,9.750000954,4.4091013,0.32499939,2.99751505,0.0,0.0,0.0
976,9.760000954,3.31244195,-0.6398043649999999,0.6899217125,0.0,0.0,0.0
977,9.770000954,3.2363198,-0.7032293,0.39526128625,0.0,0.0,0.0
978,9.780000954,2.5223467,-1.1637468,-0.23343307,0.0,0.0,0.0
979,9.790000954,2.5223467,-1.1637468,-0.23343307,0.0,0.0,0.0
980,9.800000954,2.1212863,-1.4505325500000001,-0.23343307,0.0,0.0,0.0
981,9.810000954,0.9107098085714286,-2.0902934285714285,-0.4308674671428571,0.0,0.0,0.0
982,9.820000954,0.2180499125,-2.340190925,-0.6197208,0.0,0.0,0.0
983,9.830000954,-0.19729489,-2.4280946,-0.6197208,0.0,0.0,0.0
984,9.840000954,-0.19729489,-2.4280946,-0.6197208,0.0,0.0,0.0
985,9.850000954,-0.5705802274999999,-2.489138725,-0.6832068,0.0,0.0,0.0
986,9.860000954,-2.2246341125,-2.79435975,0.21963706875,0.0,0.0,0.0
987,9.870000954,-2.394398,-2.8807983,0.6485337,0.0,0.0,0.0
988,9.880000954,-3.4594975,-2.912053,1.3468795,0.0,0.0,0.0
989,9.890000954,-3.4594975,-2.912053,1.3468795,0.0,0.0,0.0
990,9.900000954,-3.4942248555555557,-2.8512801111111106,1.7241598,0.0,0.0,0.0
991,9.910000954,-3.4616951,-2.6366215,1.8269311,0.0,0.0,0.0
992,9.920000954,-3.3076196,-2.634668,1.4758048,0.0,0.0,0.0
993,9.930000954,-2.27145515,-2.646388625,0.9868406949999999,0.0,0.0,0.0
994,9.940000954,-1.926067,-2.6502955,0.82385266,0.0,0.0,0.0
995,9.950000954,-1.926067,-2.6502955,0.498120755,0.0,0.0,0.0
996,9.960000954,-1.2763123975,-2.5625749375,-0.0017702812499999915,0.0,0.0,0.0
997,9.970000954,0.17379286,-2.340190875,-0.50721635,0.0,0.0,0.0
998,9.980000954,0.78576106,-2.213219,-0.8658511,0.0,0.0,0.0
999,9.990000954,0.78576106,-2.213219,-0.8658511,0.0,0.0,0.0
