id,timestamp,acc_x,acc_y,acc_z,gyro_x,gyro_y,gyro_z
0,1.192e-06,-0.1719005025,0.09779281749999999,0.53645652,0.0,0.0,0.0
1,0.010001192,-0.18948123,-0.10987958,1.0250544,0.0,0.0,0.0
2,0.020001192,-0.1865511075,-0.09144422825000001,1.338455325,0.0,0.0,0.0
3,0.030001192,-0.17776074,-0.036138173,1.4172024,0.0,0.0,0.0
4,0.040001192,-0.17776074,-0.036138173,1.2770449,0.0,0.0,0.0
5,0.050001192,-0.16066837,-0.04926267625,0.98604709625,0.0,0.0,0.0
6,0.060001192,-0.1372884425,-0.11915830000000001,0.74278593625,0.0,0.0,0.0
7,0.070001192,-0.04541689,-0.15676153,0.664161,0.0,0.0,0.0
8,0.080001192,-0.1681157575,-0.1216000675,0.68760195,0.0,0.0,0.0
9,0.090001192,-0.236363185,-0.10597275,0.715682285,0.0,0.0,0.0
10,0.100001192,-0.37700904999999996,-0.08155506625,0.85693861875,0.0,0.0,0.0
11,0.110001192,-0.38091588,-0.07081129,0.9663822585714286,0.0,0.0,0.0
12,0.120001192,-0.38091588,-0.07081129,1.0113806,0.0,0.0,0.0
13,0.130001192,-0.36968374249999997,-0.065500443125,1.014799075,0.0,0.0,0.0
14,0.140001192,-0.28080335500000003,-0.030705239000000002,1.0387284,0.0,0.0,0.0
15,0.150001192,-0.2080386725,-0.06202091775,1.043611875,0.0,0.0,0.0
16,0.160001192,-0.2383166,-0.137227385,1.067052725,0.0,0.0,0.0
17,0.170001192,-0.33794075,-0.23099129,1.093424,0.0,0.0,0.0
18,0.180001192,-0.33794075,-0.23099129,1.093424,0.0,0.0,0.0
19,0.190001192,-0.404356845,-0.27494312625,1.06851785,0.0,0.0,0.0
20,0.200001192,-0.36138172571428573,-0.1963879514285714,1.0292403142857143,0.0,0.0,0.0
21,0.210001192,-0.2793383225,-0.094435402375,0.9806142875,0.0,0.0,0.0
22,0.220001192,-0.22073586,-0.036138173,0.9293371,0.0,0.0,0.0
23,0.230001192,-0.22073586,-0.036138173,0.9293371,0.0,0.0,0.0
24,0.240001192,-0.12819284250000001,0.03320805175,0.862310525,0.0,0.0,0.0
25,0.250001192,-0.07129963978750001,0.05371890725,0.8541306000000001,0.0,0.0,0.0
26,0.260001192,-0.0063485983,0.026371099,0.8985708,0.0,0.0,0.0
27,0.270001192,0.11866995,0.13576232,0.81652737,0.0,0.0,0.0
28,0.280001192,0.11866995,0.13576232,0.81652737,0.0,0.0,0.0
29,0.290001192,0.021975916499999998,0.030461059999999998,0.972922605,0.0,0.0,0.0
30,0.300001192,0.032719698,-0.13332056,0.9300347,0.0,0.0,0.0
31,0.310001192,-0.016115671,-0.156761535,0.9005242,0.0,0.0,0.0
32,0.320001192,0.007325304999999997,-0.17629568,0.802853475,0.0,0.0,0.0
33,0.330001192,0.07960165,-0.17238885,0.687602,0.0,0.0,0.0
34,0.340001192,0.08106671,-0.16359848625,0.54872640625,0.0,0.0,0.0
35,0.350001192,0.08253177249999999,-0.12367557675,0.4185191,0.0,0.0,0.0
36,0.360001192,0.024051419999999997,0.08973498975,0.2954539825,0.0,0.0,0.0
37,0.370001192,-0.24808368,0.39703155,0.34819618,0.0,0.0,0.0
38,0.380001192,-0.24808368,0.39703155,0.34819618,0.0,0.0,0.0
39,0.390001192,-0.154563946,0.408752025,0.83606154,0.0,0.0,0.0
40,0.400001192,0.44293678125,0.0649510410125,1.6091254125,0.0,0.0,0.0
41,0.410001192,0.5655135499999999,0.05176549135,1.7102146,0.0,0.0,0.0
42,0.420001192,0.5684437,0.1484595175,1.7443994,0.0,0.0,0.0
43,0.430001192,0.5244919,0.280315,1.7414693,0.0,0.0,0.0
44,0.440001192,0.4995858475,0.3037559875,1.7788893625,0.0,0.0,0.0
45,0.450001192,0.45807576,0.3428243,1.873813,0.0,0.0,0.0
46,0.460001192,0.38775283,0.24906038,2.0691545,0.0,0.0,0.0
47,0.470001192,0.33696404,0.108414516,2.2874486,0.0,0.0,0.0
48,0.480001192,0.33696404,0.108414516,2.2874486,0.0,0.0,0.0
49,0.490001192,0.21271291024285716,0.05881173471428571,2.3955840571428575,0.0,0.0,0.0
50,0.500001192,-0.1710458775,-0.012697197,2.684480175,0.0,0.0,0.0
51,0.510001192,-0.056160672499999995,-0.03699279275,2.5996288,0.0,0.0,0.0
52,0.520001192,0.103042625,-0.1255069,2.43004795,0.0,0.0,0.0
53,0.530001192,0.08350848,-0.14113422,2.3304238,0.0,0.0,0.0
54,0.540001192,0.0737414063125,-0.14552940250000002,2.2606502625,0.0,0.0,0.0
55,0.550001192,0.0053718905,-0.17629568,1.7722355,0.0,0.0,0.0
56,0.560001192,-0.23245636,-0.05518396600000001,1.3278337,0.0,0.0,0.0
57,0.570001192,-0.1797141625,-0.0028080340000000005,0.99709615,0.0,0.0,0.0
58,0.580001192,-0.010133340499999999,0.0029301220249999997,0.8077369999999999,0.0,0.0,0.0
59,0.590001192,0.040533356,-0.0009767073,0.7813659,0.0,0.0,0.0
60,0.600001192,0.29813993,0.030277927,1.1735139,0.0,0.0,0.0
61,0.610001192,0.328967265,0.08839201625,1.1481196,0.0,0.0,0.0
62,0.620001192,0.490307085,0.1259952475,1.04556535,0.0,0.0,0.0
63,0.630001192,0.520585,0.12794866,1.0113806,0.0,0.0,0.0
64,0.640001192,0.53914246,0.12013500249999999,0.967550835,0.0,0.0,0.0
65,0.650001192,0.59481484,0.09669403,0.8126206,0.0,0.0,0.0
66,0.660001192,0.5606300425,0.062509273625,0.788691275,0.0,0.0,0.0
67,0.670001192,0.4418903285714286,0.030836047285714287,0.7584830314285714,0.0,0.0,0.0
68,0.680001192,0.2729286775,-0.0043951828750000005,0.71641483125,0.0,0.0,0.0
69,0.690001192,0.25150216,-0.008790366,0.71104294,0.0,0.0,0.0
70,0.700001192,0.26688528499999997,0.165063546,0.5928614,0.0,0.0,0.0
71,0.710001192,0.394589775,0.37298012999999997,0.48652238999999997,0.0,0.0,0.0
72,0.720001192,0.609465425,0.5806525499999999,0.3804275275,0.0,0.0,0.0
73,0.730001192,0.707441375,0.81194908125,0.39214800250000004,0.0,0.0,0.0
74,0.740001192,0.719345,0.90443105,0.50446934,0.0,0.0,0.0
75,0.750001192,0.693340175,0.9102912875,0.63302846,0.0,0.0,0.0
76,0.760001192,0.6802069428571428,0.9122446999999999,0.7093686,0.0,0.0,0.0
77,0.770001192,0.66904455,0.90638445,0.800900025,0.0,0.0,0.0
78,0.780001192,0.6641609937499999,0.90296598125,0.76476185,0.0,0.0,0.0
79,0.790001192,0.66123086,0.90443105,0.73839074,0.0,0.0,0.0
80,0.800001192,0.69913934375,0.908826225,0.57692880875,0.0,0.0,0.0
81,0.810001192,0.7818542850000001,0.9005242,0.16872618865,0.0,0.0,0.0
82,0.820001192,0.8033418437500001,0.877083225,0.0057381556875,0.0,0.0,0.0
83,0.830001192,0.7691570614285714,0.8441542428571428,0.028743104999999998,0.0,0.0,0.0
84,0.840001192,0.70811284,0.8106671,0.06641611,0.0,0.0,0.0
85,0.850001192,0.70811284,0.8106671,0.06739281250000001,0.0,0.0,0.0
86,0.860001192,0.5635601,0.7642735,0.37310222,0.0,0.0,0.0
87,0.870001192,0.43854162,0.72520524,0.4302396,0.0,0.0,0.0
88,0.880001192,0.33598735875,0.6397433425,0.34819616125,0.0,0.0,0.0
89,0.890001192,0.32133675,0.6275345,0.33647567,0.0,0.0,0.0
90,0.900001192,0.28049816625,0.55135133,0.19894307075,0.0,0.0,0.0
91,0.910001192,0.1167165275,0.2847101875,-0.13966915,0.0,0.0,0.0
92,0.920001192,0.07234610728571429,0.22338691857142856,0.004116127142857152,0.0,0.0,0.0
93,0.930001192,0.036626525,0.17873745,0.18020251,0.0,0.0,0.0
94,0.940001192,0.036626525,0.17873745,0.18020251,0.0,0.0,0.0
95,0.950001192,0.036626525,0.17873745,0.18020251,0.0,0.0,0.0
96,0.960001192,-0.14259927,0.09669403,0.4341464,0.0,0.0,0.0
97,0.970001192,-0.11726592875,0.12501854167499998,0.45026209125,0.0,0.0,0.0
98,0.980001192,-0.05713738,-0.0048835366,0.42242593,0.0,0.0,0.0
99,0.990001192,-0.1738539,-0.10597275,0.18801616,0.0,0.0,0.0
100,1.000001192,-0.1963181725,-0.12404183625000001,0.14510208125,0.0,0.0,0.0
101,1.010001192,-0.42370786250000003,-0.30326763749999996,-0.2781784575,0.0,0.0,0.0
102,1.020001192,-0.7242285,-0.49616736,-0.71348476,0.0,0.0,0.0
103,1.030001192,-0.93592984,-0.57137384,-0.7873482225,0.0,0.0,0.0
104,1.040001192,-1.0597275,-0.6055586,-0.81457394,0.0,0.0,0.0
105,1.050001192,-1.0597275,-0.6055586,-0.81457394,0.0,0.0,0.0
106,1.060001192,-1.172537225,-0.6329063749999999,-0.76329684875,0.0,0.0,0.0
107,1.070001192,-1.285346875,-0.671974655,-0.7123859675,0.0,0.0,0.0
108,1.080001192,-1.4080456749999999,-0.7129963349999999,-0.6392549599999999,0.0,0.0,0.0
109,1.090001192,-1.4382015,-0.7227634,-0.6197208,0.0,0.0,0.0
110,1.100001192,-1.4382015,-0.7227634,-0.6197208,0.0,0.0,0.0
111,1.110001192,-1.301323042857143,-0.6513242857142857,-0.6096746914285714,0.0,0.0,0.0
112,1.120001192,-1.230651275,-0.6338831,-0.6402316800000001,0.0,0.0,0.0
113,1.130001192,-1.1652119,-0.6358364999999999,-0.758291185,0.0,0.0,0.0
114,1.140001192,-1.11833,-0.6329064,-0.82238764,0.0,0.0,0.0
115,1.150001192,-1.11833,-0.6329064,-0.82238764,0.0,0.0,0.0
116,1.160001192,-1.075354825,-0.657324075,-0.81164381,0.0,0.0,0.0
117,1.170001192,-1.0323797,-0.6758815,-0.7715988,0.0,0.0,0.0
118,1.180001192,-1.0050319250000002,-0.6929738375000001,-0.74467834875,0.0,0.0,0.0
119,1.190001192,-0.9513130142857144,-0.7322514342857144,-0.7106941671428572,0.0,0.0,0.0
120,1.200001192,-0.943011,-0.73839074,-0.7056711,0.0,0.0,0.0
121,1.210001192,-0.7994350025,-0.792109685,-0.68027668125,0.0,0.0,0.0
122,1.220001192,-0.6607425425,-0.8409450725,-0.648533675,0.0,0.0,0.0
123,1.230001192,-0.511123185,-0.891916925,-0.5669786125,0.0,0.0,0.0
124,1.240001192,-0.4746798,-0.9019892,-0.56111836,0.0,0.0,0.0
125,1.250001192,-0.4746798,-0.9019892,-0.56111836,0.0,0.0,0.0
126,1.260001192,-0.4038684875,-0.93129045,-0.45368056,0.0,0.0,0.0
127,1.270001192,-0.24808368,-0.9879395,-0.28422183,0.0,0.0,0.0
128,1.280001192,-0.12306513,-1.0426351,-0.17092378,0.0,0.0,0.0
129,1.290001192,-0.008057836999999998,-1.11295805,-0.0908337805,0.0,0.0,0.0
130,1.300001192,0.21963706475,-1.2676440875,0.011232134,0.0,0.0,0.0
131,1.310001192,0.37603232,-1.3742273,0.024417683,0.0,0.0,0.0
132,1.320001192,0.433169715,-1.4215976000000001,0.0448674935,0.0,0.0,0.0
133,1.330001192,0.744129,-1.6446531,0.16848202,0.0,0.0,0.0
134,1.340001192,0.8990592,-1.7175399,0.2475953125,0.0,0.0,0.0
135,1.350001192,0.9604696749999999,-1.7390274749999999,0.4389078625,0.0,0.0,0.0
136,1.360001192,1.1447011,-1.8034902,0.6172790499999999,0.0,0.0,0.0
137,1.370001192,1.7849327,-1.7566081,0.89075714,0.0,0.0,0.0
138,1.380001192,1.983814925,-1.689581575,1.013455985,0.0,0.0,0.0
139,1.390001192,2.14582625,-1.64184505,1.11100465,0.0,0.0,0.0
140,1.400001192,2.3795033125,-1.5925213875,1.2880328625000002,0.0,0.0,0.0
141,1.410001192,2.4915805,-1.5309888125,1.4645727125,0.0,0.0,0.0
142,1.420001192,2.486697125,-1.438262625,1.6271334625,0.0,0.0,0.0
143,1.430001192,2.401235,-1.2848585,2.0352751125,0.0,0.0,0.0
144,1.440001192,2.35056825,-1.2438368249999998,2.310889625,0.0,0.0,0.0
145,1.450001192,2.16737445,-1.110516375,2.4051419625,0.0,0.0,0.0
146,1.460001192,1.9490196,-1.0387284,2.2444735,0.0,0.0,0.0
147,1.470001192,1.8513489,-1.0191941,1.7722355,0.0,0.0,0.0
148,1.480001192,2.0332876888888887,-0.9644985111111111,1.3445462333333333,0.0,0.0,0.0
149,1.490001192,2.191243025,-0.9010125499999999,0.87751053125,0.0,0.0,0.0
150,1.500001192,2.286751028571429,-0.8386427999999999,0.8661998957142857,0.0,0.0,0.0
151,1.510001192,2.49420535,-0.711042945,1.1404890025,0.0,0.0,0.0
152,1.520001192,2.867612775,-0.4484307825,1.7492828,0.0,0.0,0.0
153,1.530001192,2.967237,-0.30522105,1.7492828,0.0,0.0,0.0
154,1.540001192,2.9398892,-0.14113422,2.1472912,0.0,0.0,0.0
155,1.550001192,2.9398892,-0.14113422,2.3382985375,0.0,0.0,0.0
156,1.560001192,2.9398892,-0.14113422,2.3655853,0.0,0.0,0.0
157,1.570001192,2.52454445,-0.041876329500000004,2.54688655,0.0,0.0,0.0
158,1.580001192,2.1883129500000003,-0.0039068293125,2.7049909875,0.0,0.0,0.0
159,1.590001192,2.069643,-0.0009767073,2.7635934,0.0,0.0,0.0
160,1.600001192,2.069643,-0.0009767073,2.7635934,0.0,0.0,0.0
161,1.610001192,2.069643,-0.0009767073,2.7635934,0.0,0.0,0.0
162,1.620001192,2.075564275,0.3279905380875,3.7576374625,0.0,0.0,0.0
163,1.630001192,2.64138305,0.7387570299999999,4.845445349999999,0.0,0.0,0.0
164,1.640001192,2.9047277,0.80285347,4.839585,0.0,0.0,0.0
165,1.650001192,2.9970266375,0.77251453375,4.5220943125,0.0,0.0,0.0
166,1.660001192,3.0102122,0.7681804,4.4767385,0.0,0.0,0.0
167,1.670001192,2.576187825,0.42169343425,3.814286625,0.0,0.0,0.0
168,1.680001192,1.9646469,-0.036138173,2.8690779999999996,0.0,0.0,0.0
169,1.690001192,1.756119875,-0.14852057162500001,1.9777103375,0.0,0.0,0.0
170,1.700001192,1.63207805,-0.27494311250000003,1.6872009374999999,0.0,0.0,0.0
171,1.710001192,1.5544298,-0.352103,1.6945872,0.0,0.0,0.0
172,1.720001192,1.5189630875,-0.39690945625,1.741286025,0.0,0.0,0.0
173,1.730001192,1.4631075999999998,-0.529375405,1.9226485,0.0,0.0,0.0
174,1.740001192,1.488501975,-0.5786991312499999,2.103644625,0.0,0.0,0.0
175,1.750001192,1.5080361,-0.6055586,2.259124125,0.0,0.0,0.0
176,1.760001192,1.5080361,-0.6055586,2.3382375,0.0,0.0,0.0
177,1.770001192,1.5208030857142858,-0.6407200528571428,2.327075128571429,0.0,0.0,0.0
178,1.780001192,1.573964,-0.7305771,2.2483804,0.0,0.0,0.0
179,1.790001192,1.6560074,-0.72081002,2.1411868,0.0,0.0,0.0
180,1.800001192,1.82204765,-0.69541562,1.98515775,0.0,0.0,0.0
181,1.810001192,1.9060445,-0.6797883,1.9363223,0.0,0.0,0.0
182,1.820001192,1.9060445,-0.6797883,1.9363223,0.0,0.0,0.0
183,1.830001192,1.8357215,-0.705182715,1.787008175,0.0,0.0,0.0
184,1.840001192,1.7419575,-0.7032293,1.5431976625,0.0,0.0,0.0
185,1.850001192,1.7346322,-0.6905321124999999,1.3772184625000001,0.0,0.0,0.0
186,1.860001192,1.6833551,-0.6016518,1.206722,0.0,0.0,0.0
187,1.870001192,1.6833551,-0.6016518,1.2067220000000003,0.0,0.0,0.0
188,1.880001192,1.6638209375,-0.56893205,0.939958795,0.0,0.0,0.0
189,1.890001192,1.573964,-0.5664903,0.55476975,0.0,0.0,0.0
190,1.900001192,1.351640975,-0.5782107750000001,0.459907095,0.0,0.0,0.0
191,1.910001192,1.2033036,-0.5782108,0.41851914,0.0,0.0,0.0
192,1.920001192,1.2033036,-0.5782108,0.41851914,0.0,0.0,0.0
193,1.930001192,0.9981338599999999,-0.47815929749999997,0.3350106425,0.0,0.0,0.0
194,1.940001192,1.08561025,-0.4437913925,0.291547175,0.0,0.0,0.0
195,1.950001192,1.0240777,-0.47272637,0.29740742,0.0,0.0,0.0
196,1.960001192,1.0240777,-0.47272637,0.33759191428571433,0.0,0.0,0.0
197,1.970001192,1.0240777,-0.47272637,0.34428933,0.0,0.0,0.0
198,1.980001192,1.0377516,-0.51423641625,0.38970623125,0.0,0.0,0.0
199,1.990001192,1.0660761125,-0.5225384187500001,0.35991664999999995,0.0,0.0,0.0
200,2.000001192,1.081215075,-0.53474725625,0.2827567625,0.0,0.0,0.0
201,2.010001192,0.904919375,-0.64462685,0.0711775475,0.0,0.0,0.0
202,2.020001192,0.8678045,-0.664161,0.04395183,0.0,0.0,0.0
203,2.030001192,0.661414025,-0.6773465625,0.007325303249999998,0.0,0.0,0.0
204,2.040001192,0.254615405,-0.6817417499999999,-0.06250927375,0.0,0.0,0.0
205,2.050001192,0.1328322011875,-0.64560355,-0.09669403,0.0,0.0,0.0
206,2.060001192,0.0131855495,-0.5977449,-0.09669403,0.0,0.0,0.0
207,2.070001192,0.0131855495,-0.5977449,-0.09669403,0.0,0.0,0.0
208,2.080001192,-0.07199729028571429,-0.54249117,-0.15864518285714285,0.0,0.0,0.0
209,2.090001192,-0.21292220444444443,-0.42665832,-0.3198716688888889,0.0,0.0,0.0
210,2.100001192,-0.2865938428571429,-0.3989849457142857,-0.48395851714285715,0.0,0.0,0.0
211,2.110001192,-0.4512388,-0.35991666,-0.83801496,0.0,0.0,0.0
212,2.120001192,-0.4512388,-0.35991666,-0.83801496,0.0,0.0,0.0
213,2.130001192,-0.46875849125,-0.3643118425,-0.8472936775,0.0,0.0,0.0
214,2.140001192,-0.8540695524999999,-0.446294245,-1.035309825,0.0,0.0,0.0
215,2.150001192,-1.1613051,-0.503981,-1.03237975,0.0,0.0,0.0
216,2.160001192,-1.1613051,-0.503981,-0.9825676,0.0,0.0,0.0
217,2.170001192,-1.1613051,-0.503981,-0.9825676,0.0,0.0,0.0
218,2.180001192,-1.312450525,-0.5547697899999999,-0.9552198000000001,0.0,0.0,0.0
219,2.190001192,-1.53587235,-0.62509268,-0.85168882,0.0,0.0,0.0
220,2.200001192,-1.6564957,-0.67148629,-0.6630622225,0.0,0.0,0.0
221,2.210001192,-1.736097375,-0.69053209,-0.5835826824999999,0.0,0.0,0.0
222,2.220001192,-1.7624685,-0.71104294,-0.58065253,0.0,0.0,0.0
223,2.230001192,-1.7580733125,-0.71836825375,-0.58651277625,0.0,0.0,0.0
224,2.240001192,-1.727307,-0.76964545,-0.6275345,0.0,0.0,0.0
225,2.250001192,-1.6569841125,-0.7803891924999999,-0.65341724125,0.0,0.0,0.0
226,2.260001192,-1.5622434875,-0.77599400375,-0.64706865125,0.0,0.0,0.0
227,2.270001192,-1.473363,-0.79308635,-0.6744164,0.0,0.0,0.0
228,2.280001192,-1.45975015,-0.79357470625,-0.67490475875,0.0,0.0,0.0
229,2.290001192,-1.243906657142857,-0.7969932,-0.6749745242857143,0.0,0.0,0.0
230,2.300001192,-1.0925693125,-0.8038301875,-0.722458235,0.0,0.0,0.0
231,2.310001192,-0.8746414,-0.8155507,-0.75597155,0.0,0.0,0.0
232,2.320001192,-0.7515763,-0.824341,-0.75597155,0.0,0.0,0.0
233,2.330001192,-0.7515763,-0.824341,-0.75597155,0.0,0.0,0.0
234,2.340001192,-0.4512388,-0.8751298,-0.729112,0.0,0.0,0.0
235,2.350001192,-0.40435684,-0.889597285,-0.6402316975,0.0,0.0,0.0
236,2.360001192,-0.27640817,-0.92933707,-0.5826059575,0.0,0.0,0.0
237,2.370001192,-0.12697196,-0.976219,-0.54158425,0.0,0.0,0.0
238,2.380001192,-0.11532123571428572,-0.9812420857142856,-0.5371193,0.0,0.0,0.0
239,2.390001192,0.024906038749999998,-1.03189145,-0.44293677500000006,0.0,0.0,0.0
240,2.400001192,0.059579150625,-1.0406818000000002,-0.408324705,0.0,0.0,0.0
241,2.410001192,0.27219614375,-1.0738897250000001,-0.25736239,0.0,0.0,0.0
242,2.420001192,0.35259137,-1.0856102,-0.21780574,0.0,0.0,0.0
243,2.430001192,0.35259137,-1.0856102,-0.21780574,0.0,0.0,0.0
244,2.440001192,0.587001125,-1.12516685,-0.1386924475,0.0,0.0,0.0
245,2.450001192,0.73533854,-1.1715605,-0.0996241535,0.0,0.0,0.0
246,2.460001192,0.79357475,-1.206722,-0.061532564,0.0,0.0,0.0
247,2.470001192,0.85608405,-1.2653245,0.0048835366,0.0,0.0,0.0
248,2.480001192,0.85608405,-1.2653245,0.0048835366,0.0,0.0,0.0
249,2.490001192,0.8895711642857143,-1.3766690714285714,0.09836838425714287,0.0,0.0,0.0
250,2.500001192,0.9146865,-1.5231751375,0.178737445,0.0,0.0,0.0
251,2.510001192,0.973716225,-1.76942745,0.2226892825,0.0,0.0,0.0
252,2.520001192,1.2111171,-1.9402292,0.29350057,0.0,0.0,0.0
253,2.530001192,1.2111171,-1.9402292,0.29350057,0.0,0.0,0.0
254,2.540001192,1.84970065,-1.9499962375,0.41491750000000005,0.0,0.0,0.0
255,2.550001192,2.5901669875,-1.920695,0.66947185625,0.0,0.0,0.0
256,2.560001192,2.994584875,-1.8454885250000002,1.14702075,0.0,0.0,0.0
257,2.570001192,2.8656595,-1.8659996,1.4836185,0.0,0.0,0.0
258,2.580001192,2.8656595,-1.8659996,1.4836185,0.0,0.0,0.0
259,2.590001192,2.4866359125,-1.9016493250000002,1.748061925,0.0,0.0,0.0
260,2.600001192,1.8679527857142857,-1.9971573571428571,2.012226357142857,0.0,0.0,0.0
261,2.610001192,2.1460702625,-2.0755032625000003,1.6748089375,0.0,0.0,0.0
262,2.620001192,2.5703275000000003,-2.0476670875000003,1.597404925,0.0,0.0,0.0
263,2.630001192,2.896914,-1.9792974,1.7414693,0.0,0.0,0.0
264,2.640001192,2.9544787125000003,-1.9163608250000002,1.804344825,0.0,0.0,0.0
265,2.650001192,3.3471763125,-1.332412,2.4347483125,0.0,0.0,0.0
266,2.660001192,3.330084,-1.093424,2.751873,0.0,0.0,0.0
267,2.670001192,3.2788068125,-0.77251448625,3.1514073625,0.0,0.0,0.0
268,2.680001192,3.225088,-0.43805328,3.3061545,0.0,0.0,0.0
269,2.690001192,3.2055538125,-0.41217053124999997,3.2173962124999997,0.0,0.0,0.0
270,2.700001192,2.941903525,-0.11140568299999999,2.3831659750000003,0.0,0.0,0.0
271,2.710001192,2.564903357142857,0.06488127285714286,2.3460512000000002,0.0,0.0,0.0
272,2.720001192,2.31968,0.17092378,2.395313875,0.0,0.0,0.0
273,2.730001192,2.31968,0.17092378,2.7401526,0.0,0.0,0.0
274,2.740001192,2.2019868625,0.7303939724999999,3.3476035125,0.0,0.0,0.0
275,2.750001192,2.2493572,1.5407559,3.7549515,0.0,0.0,0.0
276,2.760001192,2.8474683,1.6422113624999999,4.0801951875,0.0,0.0,0.0
277,2.770001192,4.0601726,2.3523996,4.390788,0.0,0.0,0.0
278,2.780001192,4.258016574999999,2.4682006,4.51385325,0.0,0.0,0.0
279,2.790001192,4.49395245,2.467529,4.484551875,0.0,0.0,0.0
280,2.800001192,4.5162948285714295,2.263100628571429,4.357300785714286,0.0,0.0,0.0
281,2.810001192,4.0880696375,1.655274825,3.4732324500000002,0.0,0.0,0.0
282,2.820001192,3.5058908,1.0216359,2.6581092,0.0,0.0,0.0
283,2.830001192,2.7993654,0.3688291375,2.283542,0.0,0.0,0.0
284,2.840001192,2.3954968,0.005005619999999999,2.2377588250000002,0.0,0.0,0.0
285,2.850001192,2.202475,-0.19973667,2.1004093,0.0,0.0,0.0
286,2.860001192,2.139966,-0.33647567,2.0886889,0.0,0.0,0.0
287,2.870001192,2.3449523,-0.400938375,2.162796375,0.0,0.0,0.0
288,2.880001192,2.5614152,-0.4302396,2.1975915,0.0,0.0,0.0
289,2.890001192,2.62978455,-0.46399703875,2.105719825,0.0,0.0,0.0
290,2.900001192,2.7450361,-0.55086297,1.7531897,0.0,0.0,0.0
291,2.910001192,2.7626168125,-0.60214010625,1.7150981375,0.0,0.0,0.0
292,2.920001192,2.743082675,-0.7139730875000001,1.617427425,0.0,0.0,0.0
293,2.930001192,2.5965767,-0.79308635,1.5148731000000002,0.0,0.0,0.0
294,2.940001192,2.5965767,-0.79308635,1.5148731,0.0,0.0,0.0
295,2.950001192,2.5428577,-0.84436350625,1.406641725,0.0,0.0,0.0
296,2.960001192,2.4090488,-0.9332439,1.3395541,0.0,0.0,0.0
297,2.970001192,2.3420221999999997,-0.95668485,1.2868119249999999,0.0,0.0,0.0
298,2.980001192,2.2444734000000004,-1.0055203375000001,1.17693235,0.0,0.0,0.0
299,2.990001192,2.2337296,-1.0113806,1.1637468,0.0,0.0,0.0
300,3.000001192,2.03277215,-1.0357982625,0.95546397375,0.0,0.0,0.0
301,3.010001192,1.7927464,-1.0660762,0.71885663,0.0,0.0,0.0
302,3.020001192,1.6208458,-1.069983,0.71885663,0.0,0.0,0.0
303,3.030001192,1.5974746142857141,-1.0710992285714285,0.6931831728571429,0.0,0.0,0.0
304,3.040001192,1.4572475,-1.0777966,0.53914243,0.0,0.0,0.0
305,3.050001192,1.373372725,-1.069006225,0.5479327974999999,0.0,0.0,0.0
306,3.060001192,1.0631459625000002,-0.991357975,0.57186215,0.0,0.0,0.0
307,3.070001192,1.013333925,-0.8906350000000001,0.602628425,0.0,0.0,0.0
308,3.080001192,1.0904938,-0.78917956,0.6133722,0.0,0.0,0.0
309,3.090001192,1.0904938,-0.78917956,0.6133722,0.0,0.0,0.0
310,3.100001192,1.105022325,-0.75890162,0.6241159825,0.0,0.0,0.0
311,3.110001192,1.115330057142857,-0.6697421857142858,0.6630447742857143,0.0,0.0,0.0
312,3.120001192,0.9185932,-0.687602,0.6915088,0.0,0.0,0.0
313,3.130001192,0.81603899375,-0.6924855000000001,0.680765025,0.0,0.0,0.0
314,3.140001192,0.75450647,-0.6954156,0.6485337,0.0,0.0,0.0
315,3.150001192,0.75450647,-0.6954156,0.6485337,0.0,0.0,0.0
316,3.160001192,0.53602922875,-0.663672625,0.4300564675,0.0,0.0,0.0
317,3.170001192,0.30180258,-0.503981,0.13332056,0.0,0.0,0.0
318,3.180001192,0.43463477,-0.4575874,-0.2920355,0.0,0.0,0.0
319,3.190001192,0.44489021625,-0.348196195,-0.39758092250000004,0.0,0.0,0.0
320,3.200001192,0.44635528,-0.33256888,-0.41265884,0.0,0.0,0.0
321,3.210001192,0.4614942325,-0.26810617999999997,-0.35234718625,0.0,0.0,0.0
322,3.220001192,0.46198258,-0.25052544,-0.303756,0.0,0.0,0.0
323,3.230001192,0.3721255,-0.2739664,-0.31156966,0.0,0.0,0.0
324,3.240001192,0.32524356,-0.32084838,-0.38921788,0.0,0.0,0.0
325,3.250001192,0.32524356,-0.32084838,-0.38921788,0.0,0.0,0.0
326,3.260001192,0.12398079375,-0.4605785825,-0.46784281625,0.0,0.0,0.0
327,3.270001192,-0.128864335,-0.5713738187499999,-0.6372404924999999,0.0,0.0,0.0
328,3.280001192,-0.3027793,-0.6329064000000001,-0.75987834,0.0,0.0,0.0
329,3.290001192,-0.39849661999999997,-0.6485337,-0.79894665,0.0,0.0,0.0
330,3.300001192,-0.49421394,-0.664161,-0.83801496,0.0,0.0,0.0
331,3.310001192,-0.664283115,-0.7344229125,-0.84778203,0.0,0.0,0.0
332,3.320001192,-1.2228375625,-0.9557081625,-0.76262532875,0.0,0.0,0.0
333,3.330001192,-1.5242739250000001,-1.0333564124999999,-0.66025416875,0.0,0.0,0.0
334,3.340001192,-1.407313175,-1.0108921375,-0.69834575625,0.0,0.0,0.0
335,3.350001192,-1.3488328,-0.99966,-0.71739155,0.0,0.0,0.0
336,3.360001192,-1.63549645,-1.043611825,-0.4138797415,0.0,0.0,0.0
337,3.370001192,-1.9377874,-1.0895171,-0.108414516,0.0,0.0,0.0
338,3.380001192,-1.913369725,-1.0914705249999999,-0.260658764,0.0,0.0,0.0
339,3.390001192,-1.8401167,-1.0973308,-0.45563398125,0.0,0.0,0.0
340,3.400001192,-1.8401167,-1.0973308,-0.51423645,0.0,0.0,0.0
341,3.410001192,-1.822597,-1.095865725,-0.54109589375,0.0,0.0,0.0
342,3.420001192,-1.71851665,-1.0641227249999998,-0.73289675,0.0,0.0,0.0
343,3.430001192,-1.6569841,-1.0465419,-0.744251,0.0,0.0,0.0
344,3.440001192,-1.5910563625,-1.055820675,-0.77263654875,0.0,0.0,0.0
345,3.450001192,-1.5124314,-1.0660762,-0.72520524,0.0,0.0,0.0
346,3.460001192,-1.47922335,-1.0690062999999999,-0.72422853,0.0,0.0,0.0
347,3.470001192,-1.234008775,-1.0792616375000001,-0.7056710975,0.0,0.0,0.0
348,3.480001192,-1.0987958500000001,-1.09488905,-0.69785744,0.0,0.0,0.0
349,3.490001192,-0.8919431571428572,-1.1168648857142858,-0.6677190371428571,0.0,0.0,0.0
350,3.500001192,-0.7984583,-1.1324922,-0.6275345,0.0,0.0,0.0
351,3.510001192,-0.756459875,-1.138352425,-0.62167425,0.0,0.0,0.0
352,3.520001192,-0.53798261875,-1.1754672875,-0.50642275,0.0,0.0,0.0
353,3.530001192,-0.32231343,-1.2145356,-0.33061543,0.0,0.0,0.0
354,3.540001192,-0.05390203125,-1.2365114625,-0.220918988125,0.0,0.0,0.0
355,3.550001192,0.14601775,-1.2536039,-0.038091585,0.0,0.0,0.0
356,3.560001192,0.14601775,-1.2536039,-0.0327196948,0.0,0.0,0.0
357,3.570001192,0.21615754375000001,-1.2609291875000002,0.0048835366,0.0,0.0,0.0
358,3.580001192,0.3330572,-1.273138,0.0048835366,0.0,0.0,0.0
359,3.590001192,0.66806781125,-1.2560456625,-0.166040255425,0.0,0.0,0.0
360,3.600001192,0.8180534337500001,-1.28778875,-0.231479655,0.0,0.0,0.0
361,3.610001192,0.832643,-1.2926723,-0.2373399,0.0,0.0,0.0
362,3.620001192,0.93324389,-1.451509275,0.053474728500000006,0.0,0.0,0.0
363,3.630001192,0.9693821,-1.5383141,0.21536398,0.0,0.0,0.0
364,3.640001192,1.219907525,-1.6428217749999998,0.32280176499999996,0.0,0.0,0.0
365,3.650001192,1.4338064,-1.6750531,0.38726446,0.0,0.0,0.0
366,3.660001192,1.4338064,-1.6750531,0.38726446,0.0,0.0,0.0
367,3.670001192,1.981617175,-1.6154739625,0.58962603,0.0,0.0,0.0
368,3.680001192,2.3816399,-1.5583366,0.74620444,0.0,0.0,0.0
369,3.690001192,2.49890575,-1.48557195,0.90614032,0.0,0.0,0.0
370,3.700001192,2.5008592375000003,-1.454317275,1.1027027,0.0,0.0,0.0
371,3.710001192,2.494999,-1.448457,1.1246786,0.0,0.0,0.0
372,3.720001192,2.38566875,-1.4787349875,1.09147049625,0.0,0.0,0.0
373,3.730001192,2.276705,-1.5539415,0.9489933024999999,0.0,0.0,0.0
374,3.740001192,2.234218175,-1.6110788625,0.7530413874999999,0.0,0.0,0.0
375,3.750001192,2.1658486750000003,-1.8256491750000001,0.5894428875,0.0,0.0,0.0
376,3.760001192,2.1673138,-1.897254,0.5469561,0.0,0.0,0.0
377,3.770001192,2.5667259625,-2.022272675,0.8358173325,0.0,0.0,0.0
378,3.780001192,2.896914,-2.108223,1.0777966,0.0,0.0,0.0
379,3.790001192,3.128393625,-2.1170133,1.3499317,0.0,0.0,0.0
380,3.800001192,3.2055535,-2.1199434,1.4406434,0.0,0.0,0.0
381,3.810001192,3.2055535,-2.1199434,1.4406434,0.0,0.0,0.0
382,3.820001192,3.3342347500000002,-2.0769683,1.68652945,0.0,0.0,0.0
383,3.830001192,3.8067172,-1.7172346875,2.336406075,0.0,0.0,0.0
384,3.840001192,3.796644625,-1.34755095,3.1807695625,0.0,0.0,0.0
385,3.850001192,2.8633397,-0.7554221375,3.3944855499999997,0.0,0.0,0.0
386,3.860001192,2.4051418,-0.6329064,3.3842912,0.0,0.0,0.0
387,3.870001192,2.246182675,-0.5568453099999999,3.20176895,0.0,0.0,0.0
388,3.880001192,1.777607325,-0.29160820325,2.6542022,0.0,0.0,0.0
389,3.890001192,2.02105175,0.157249892,2.8922746,0.0,0.0,0.0
390,3.900001192,2.47570905,0.56331599,3.413348,0.0,0.0,0.0
391,3.910001192,2.7450361,0.77990085,3.696349,0.0,0.0,0.0
392,3.920001192,2.9494120875,0.90717804375,3.832904875,0.0,0.0,0.0
393,3.930001192,4.380044,1.7981184,4.788796,0.0,0.0,0.0
394,3.940001192,4.1126705,1.5776265999999999,4.683555999999999,0.0,0.0,0.0
395,3.950001192,3.845297,1.20788174375,4.234881075,0.0,0.0,0.0
396,3.960001192,3.845297,0.95912665,3.7862062,0.0,0.0,0.0
397,3.970001192,3.67748645,0.91377080125,3.61546555,0.0,0.0,0.0
398,3.980001192,2.448178025,0.5567842525,2.3871339875,0.0,0.0,0.0
399,3.990001192,1.9819833999999998,0.1689703685,2.1492446999999997,0.0,0.0,0.0
400,4.000001192,1.9011609375,-0.0037236956249999988,2.1783628125,0.0,0.0,0.0
401,4.010001192,1.9060445,-0.10597275,2.23666,0.0,0.0,0.0
402,4.020001192,1.9060445,-0.10597275,2.23666,0.0,0.0,0.0
403,4.030001192,2.1859320625,-0.31108129875,2.52723035,0.0,0.0,0.0
404,4.040001192,2.4125369428571424,-0.52142219,2.5787865428571424,0.0,0.0,0.0
405,4.050001192,2.5623918875,-0.72227509375,2.5496946124999997,0.0,0.0,0.0
406,4.060001192,2.5965767,-0.8321547,2.4788833,0.0,0.0,0.0
407,4.070001192,2.5965767,-0.8321547,2.4788833,0.0,0.0,0.0
408,4.080001192,2.6546907,-1.1188793375,2.5199049625,0.0,0.0,0.0
409,4.090001192,2.756756575,-1.3503589625,2.4027000999999997,0.0,0.0,0.0
410,4.100001192,2.7465011875000003,-1.4899670625,2.174333725,0.0,0.0,0.0
411,4.110001192,2.6903405,-1.585196,1.9988316,0.0,0.0,0.0
412,4.120001192,2.648342,-1.6628442875,1.5292185,0.0,0.0,0.0
413,4.130001192,2.584856,-1.6750531,1.301462575,0.0,0.0,0.0
414,4.140001192,2.3640504285714283,-1.6114276428571428,1.0208685285714285,0.0,0.0,0.0
415,4.150001192,2.069643,-1.5265937,0.9293371,0.0,0.0,0.0
416,4.160001192,2.069643,-1.5265937,0.9293371,0.0,0.0,0.0
417,4.170001192,1.97300995,-1.4665261125,0.6504260500000001,0.0,0.0,0.0
418,4.180001192,1.7888396,-1.4445502,0.5938381,0.0,0.0,0.0
419,4.190001192,1.6952588375,-1.4298995875,0.57186215625,0.0,0.0,0.0
420,4.200001192,1.5134081375,-1.3942497625,0.53138986375,0.0,0.0,0.0
421,4.210001192,1.3322288,-1.3156248,0.39507812,0.0,0.0,0.0
422,4.220001192,1.320508325,-1.27234445,0.3706604375,0.0,0.0,0.0
423,4.230001192,1.2775332,-1.1168648,0.2856869,0.0,0.0,0.0
424,4.240001192,1.2086754124999999,-0.9937997249999999,0.266152755,0.0,0.0,0.0
425,4.250001192,1.1564215,-0.976219,0.2856869,0.0,0.0,0.0
426,4.260001192,1.0553323,-0.9488712,0.25052544,0.0,0.0,0.0
427,4.270001192,0.869269525,-0.7920486125,0.21292222,0.0,0.0,0.0
428,4.280001192,0.832643,-0.7579249,0.19973667,0.0,0.0,0.0
429,4.290001192,0.706891925,-0.6011633775,0.16066837,0.0,0.0,0.0
430,4.300001192,0.6182557333333334,-0.44814588666666666,0.10483325833333333,0.0,0.0,0.0
431,4.310001192,0.6495103999999999,-0.4067986,0.071299635,0.0,0.0,0.0
432,4.320001192,0.6495104,-0.4067986,0.071299635,0.0,0.0,0.0
433,4.330001192,0.612395525,-0.38335762500000004,0.012697193750000002,0.0,0.0,0.0
434,4.340001192,0.37377371374999996,-0.28519854375,-0.2031551275,0.0,0.0,0.0
435,4.350001192,0.10304262624999999,-0.24124671874999998,-0.22757281499999998,0.0,0.0,0.0
436,4.360001192,0.06788116,-0.24271178,-0.24515355,0.0,0.0,0.0
437,4.370001192,0.06788116,-0.24271178,-0.24515355,0.0,0.0,0.0
438,4.380001192,0.049812074124999994,-0.25589732625,-0.23001458375,0.0,0.0,0.0
439,4.390001192,-0.049323723,-0.30912787,-0.24124672,0.0,0.0,0.0
440,4.400001192,-0.2080386675,-0.3052210325,-0.3553994025,0.0,0.0,0.0
441,4.410001192,-0.28715196,-0.31694153,-0.47516817,0.0,0.0,0.0
442,4.420001192,-0.3486845175,-0.4455006575,-0.5835826424999999,0.0,0.0,0.0
443,4.430001192,-0.36919537,-0.4883537,-0.6197208,0.0,0.0,0.0
444,4.440001192,-0.8255619337500001,-0.7173915625,-0.75505582375,0.0,0.0,0.0
445,4.450001192,-1.0167524125,-0.8038301575,-0.7428469775,0.0,0.0,0.0
446,4.460001192,-1.1261436,-0.85168886,-0.67832327,0.0,0.0,0.0
447,4.470001192,-1.1261436,-0.85168886,-0.67832327,0.0,0.0,0.0
448,4.480001192,-1.1261436,-0.85168886,-0.67832327,0.0,0.0,0.0
449,4.490001192,-1.7179061625,-1.102763645,-0.5464677525,0.0,0.0,0.0
450,4.500001192,-1.8967656750000002,-1.161793425,-0.478098235,0.0,0.0,0.0
451,4.510001192,-1.842741525,-1.133957175,-0.43561147375,0.0,0.0,0.0
452,4.520001192,-1.7820024,-1.1168648,-0.38921788,0.0,0.0,0.0
453,4.530001192,-1.7820024,-1.1168648,-0.38921788,0.0,0.0,0.0
454,4.540001192,-1.6330546750000001,-1.0665644125,-0.481516755,0.0,0.0,0.0
455,4.550001192,-1.4850836,-1.0250544000000001,-0.549397915,0.0,0.0,0.0
456,4.560001192,-1.4577358,-1.023101,-0.55330473,0.0,0.0,0.0
457,4.570001192,-1.4577358,-1.023101,-0.54451438125,0.0,0.0,0.0
458,4.580001192,-1.4577358,-1.023101,-0.5298638,0.0,0.0,0.0
459,4.590001192,-1.3042095624999999,-1.0123572250000001,-0.535235645,0.0,0.0,0.0
460,4.600001192,-1.1896295749999999,-1.00161345,-0.535724,0.0,0.0,0.0
461,4.610001192,-1.0343331,-0.9840327,-0.5200967000000001,0.0,0.0,0.0
462,4.620001192,-0.9275667737500001,-0.98549775,-0.51179466875,0.0,0.0,0.0
463,4.630001192,-0.85706073,-0.9879395,-0.51423645,0.0,0.0,0.0
464,4.640001192,-0.73399559875,-1.0133339000000001,-0.5010508874999999,0.0,0.0,0.0
465,4.650001192,-0.56233928,-1.06021585,-0.46149422500000004,0.0,0.0,0.0
466,4.660001192,-0.50984126,-1.0777966,-0.4439135,0.0,0.0,0.0
467,4.670001192,-0.41217051499999996,-1.11393475,-0.413147215,0.0,0.0,0.0
468,4.680001192,-0.1738539,-1.1989082,-0.3384291,0.0,0.0,0.0
469,4.690001192,-0.14412537125,-1.20476845,-0.2829399125,0.0,0.0,0.0
470,4.700001192,0.1386924425,-1.235534775,-0.102065917625,0.0,0.0,0.0
471,4.710001192,0.29685798875,-1.214047225,-0.034673112375,0.0,0.0,0.0
472,4.720001192,0.71269115625,-1.15886325,0.07081128,0.0,0.0,0.0
473,4.730001192,0.82092255,-1.1442126,0.08692695,0.0,0.0,0.0
474,4.740001192,0.9569900812500001,-1.133957175,0.053230547925,0.0,0.0,0.0
475,4.750001192,1.1876761375,-1.124678475,-0.009278720175,0.0,0.0,0.0
476,4.760001192,1.215024,-1.1793742,-0.053718906,0.0,0.0,0.0
477,4.770001192,1.1798625500000002,-1.25922,0.088147838,0.0,0.0,0.0
478,4.780001192,1.1447011,-1.3390658,0.15676153,0.0,0.0,0.0
479,4.790001192,1.1637468875,-1.3395541499999999,0.22018646375,0.0,0.0,0.0
480,4.800001192,1.36824495,-1.3390658,0.708112825,0.0,0.0,0.0
481,4.810001192,1.5817776,-1.3273454,0.8399683,0.0,0.0,0.0
482,4.820001192,2.0666517875,-1.2467059,1.04855635,0.0,0.0,0.0
483,4.830001192,2.5067196,-1.1403059,1.226256,0.0,0.0,0.0
484,4.840001192,2.5067196,-1.1403059,1.226256,0.0,0.0,0.0
485,4.850001192,2.650173425,-0.750599625,1.65063545,0.0,0.0,0.0
486,4.860001192,2.1673138,-0.6993225,1.6164507,0.0,0.0,0.0
487,4.870001192,1.7565471625,-0.7027409499999999,1.3207524875,0.0,0.0,0.0
488,4.880001192,1.6560073,-0.7032293,1.1715604,0.0,0.0,0.0
489,4.890001192,1.6560073,-0.7032293,1.1715604,0.0,0.0,0.0
490,4.900001192,2.7096304,-0.435855655,1.0660761,0.0,0.0,0.0
491,4.910001192,2.9242618,-0.33647567,1.0895171,0.0,0.0,0.0
492,4.920001192,3.18406605,-0.047614476999999995,1.3627509500000001,0.0,0.0,0.0
493,4.930001192,3.1899264,0.053718906,1.448457,0.0,0.0,0.0
494,4.940001192,3.1899264,0.053718906,1.448457,0.0,0.0,0.0
495,4.950001192,3.0380484125,0.55232799375,2.0208075,0.0,0.0,0.0
496,4.960001192,3.0258396,0.6744164,2.174639,0.0,0.0,0.0
497,4.970001192,3.0326765499999997,0.7084790750000001,2.32554035,0.0,0.0,0.0
498,4.980001192,3.0531874,0.8106671,2.2640078,0.0,0.0,0.0
499,4.990001192,3.0531874,0.8106671,2.2640078,0.0,0.0,0.0
500,5.000001192,2.738382325,0.9015009125,1.958359325,0.0,0.0,0.0
501,5.010001192,2.4246762,0.89271057,1.7531897,0.0,0.0,0.0
502,5.020001192,2.2140736125,0.8181755549999999,1.621334225,0.0,0.0,0.0
503,5.030001192,2.0969908,0.77990085,1.5305004,0.0,0.0,0.0
504,5.040001192,2.0969908,0.77990085,1.5305004,0.0,0.0,0.0
505,5.050001192,1.8726532999999999,0.71885663125,1.613520525,0.0,0.0,0.0
506,5.060001192,1.7380508,0.6822301,1.6633326,0.0,0.0,0.0
507,5.070001192,1.4892956124999999,0.5870011625,1.6511237875,0.0,0.0,0.0
508,5.080001192,1.3400425,0.5298638,1.6486820249999998,0.0,0.0,0.0
509,5.090001192,1.3400425,0.5298638,1.6633326,0.0,0.0,0.0
510,5.100001192,1.2630221714285714,0.5131202128571428,1.6605420142857141,0.0,0.0,0.0
511,5.110001192,1.1603284,0.49079543,1.6633326,0.0,0.0,0.0
512,5.120001192,1.4815429625,0.54646779125,1.6999591375,0.0,0.0,0.0
513,5.130001192,1.6442869,0.5767457,1.721935,0.0,0.0,0.0
514,5.140001192,1.6442869,0.5767457,1.721935,0.0,0.0,0.0
515,5.150001192,1.8155159125,0.626557775,1.838956825,0.0,0.0,0.0
516,5.160001192,2.1008976,0.7095779,2.0339932,0.0,0.0,0.0
517,5.170001192,2.12433855,0.6705095999999999,2.1385008875,0.0,0.0,0.0
518,5.180001192,2.170243775,0.61093045,2.15022145,0.0,0.0,0.0
519,5.190001192,2.2376366,0.5493979,2.1707323,0.0,0.0,0.0
520,5.200001192,2.350812575,0.51423643,2.190144325,0.0,0.0,0.0
521,5.210001192,2.6903405,0.40875202,2.2483804,0.0,0.0,0.0
522,5.220001192,2.892213625,0.31724675874999997,2.32407515,0.0,0.0,0.0
523,5.230001192,3.033653,0.24124672,2.369492,0.0,0.0,0.0
524,5.240001192,2.9359825,0.11622818,2.369492,0.0,0.0,0.0
525,5.250001192,2.8994170125000003,0.08259282,2.293430925,0.0,0.0,0.0
526,5.260001192,2.6434586,-0.1528547,1.7610034,0.0,0.0,0.0
527,5.270001192,2.4512912875,-0.24954873125000002,1.2926722125,0.0,0.0,0.0
528,5.280001192,2.2884252,-0.3247552,0.8107892125,0.0,0.0,0.0
529,5.290001192,2.2884252,-0.3247552,0.50056255,0.0,0.0,0.0
530,5.300001192,2.2884252,-0.3247552,0.50056255,0.0,0.0,0.0
531,5.310001192,1.5817776,-0.4341464,-0.22171257,0.0,0.0,0.0
532,5.320001192,1.5511944125000001,-0.31889496500000003,-0.25345556375,0.0,0.0,0.0
533,5.330001192,1.5583366,-0.26224595,-0.23831660125,0.0,0.0,0.0
534,5.340001192,1.5583366,-0.26224595,-0.19436477,0.0,0.0,0.0
535,5.350001192,1.5583366,-0.26224595,-0.19436477,0.0,0.0,0.0
536,5.360001192,1.5856844625,-0.20071335999999998,-0.1089028725,0.0,0.0,0.0
537,5.370001192,1.569263525,-0.1845976875,0.1394860225,0.0,0.0,0.0
538,5.380001192,1.53489555,-0.17873744875,0.2710362925,0.0,0.0,0.0
539,5.390001192,1.5314771,-0.22317764,0.44196007,0.0,0.0,0.0
540,5.400001192,1.5314771,-0.22317764,0.44196007,0.0,0.0,0.0
541,5.410001192,1.5007108,-0.2510138025,0.64676340125,0.0,0.0,0.0
542,5.420001192,1.36446015,-0.37389579125,0.5891376937499999,0.0,0.0,0.0
543,5.430001192,1.2540922,-0.48054004,0.76964545,0.0,0.0,0.0
544,5.440001192,1.02975478125,-0.5220500775,0.56826056875,0.0,0.0,0.0
545,5.450001192,0.89515233,-0.5469561,0.5083762,0.0,0.0,0.0
546,5.460001192,0.8121321862499999,-0.59090794375,0.4448902,0.0,0.0,0.0
547,5.470001192,0.5991489375,-0.60262846875,0.25931581,0.0,0.0,0.0
548,5.480001192,0.5088646,-0.5938381,0.11769324,0.0,0.0,0.0
549,5.490001192,0.39190385,-0.59774495,-0.0634859775,0.0,0.0,0.0
550,5.500001192,0.22513102875,-0.59725659375,-0.0888803685,0.0,0.0,0.0
551,5.510001192,0.14211091,-0.58993125,-0.108414516,0.0,0.0,0.0
552,5.520001192,0.05078877675,-0.55867660875,-0.10597274775,0.0,0.0,0.0
553,5.530001192,-0.061044212,-0.5196083,-0.108414516,0.0,0.0,0.0
554,5.540001192,-0.061044212,-0.5196083,-0.092787206,0.0,0.0,0.0
555,5.550001192,-0.16329326825,-0.4578926325,-0.0449285412125,0.0,0.0,0.0
556,5.560001192,-0.24027002,-0.41851914,-0.01855744,0.0,0.0,0.0
557,5.570001192,-0.25443227749999997,-0.4282251675,-0.007325306,0.0,0.0,0.0
558,5.580001192,-0.35356808,-0.49616736,-0.1582266075,0.0,0.0,0.0
559,5.590001192,-0.44513439,-0.55867663,-0.36797448499999996,0.0,0.0,0.0
560,5.600001192,-0.69053210625,-0.6993224874999999,-0.53084044375,0.0,0.0,0.0
561,5.610001192,-0.78283095,-0.74620444,-0.58065253,0.0,0.0,0.0
562,5.620001192,-1.3076280375,-0.9361740225,-0.5396308625,0.0,0.0,0.0
563,5.630001192,-1.4147606,-0.94105756,-0.48005170625,0.0,0.0,0.0
564,5.640001192,-1.4409921714285712,-0.9494293371428572,-0.37310222,0.0,0.0,0.0
565,5.650001192,-1.64526355,-1.022124275,-0.2109687975,0.0,0.0,0.0
566,5.660001192,-1.7887784875,-1.0890287374999998,-0.1450410425,0.0,0.0,0.0
567,5.670001192,-1.788473325,-1.0817034,-0.07227634250000001,0.0,0.0,0.0
568,5.680001192,-1.727307,-1.069983,-0.06934622,0.0,0.0,0.0
569,5.690001192,-1.6911688249999999,-1.0738898,-0.10353098,0.0,0.0,0.0
570,5.700001192,-1.5402675125,-1.0856102,-0.24301699875,0.0,0.0,0.0
571,5.710001192,-1.4694562,-1.0856102,-0.33061543,0.0,0.0,0.0
572,5.720001192,-1.396447375,-1.0748664250000002,-0.388241165,0.0,0.0,0.0
573,5.730001192,-1.27851,-1.0543556,-0.4986091,0.0,0.0,0.0
574,5.740001192,-1.2565340625,-1.0514254625000001,-0.50495768875,0.0,0.0,0.0
575,5.750001192,-1.2199075,-1.0465419,-0.48298177,0.0,0.0,0.0
576,5.760001192,-1.2199075,-1.0465419,-0.48298177,0.0,0.0,0.0
577,5.770001192,-1.0954994175,-0.9942880912500001,-0.38347972125,0.0,0.0,0.0
578,5.780001192,-0.89222217,-0.91370976,-0.27445476,0.0,0.0,0.0
579,5.790001192,-0.8702462575000001,-0.9093756225,-0.2422234275,0.0,0.0,0.0
580,5.800001192,-0.71641487,-0.87903666,-0.22171257,0.0,0.0,0.0
581,5.810001192,-0.71641487,-0.87903666,-0.22171257,0.0,0.0,0.0
582,5.820001192,-0.40716490250000004,-0.849735425,-0.2841608025,0.0,0.0,0.0
583,5.830001192,-0.18948123,-0.85168886,-0.38531107,0.0,0.0,0.0
584,5.840001192,-0.095900454375,-0.82971291875,-0.45661073374999994,0.0,0.0,0.0
585,5.850001192,0.1245301975,-0.777459055,-0.50446938,0.0,0.0,0.0
586,5.860001192,0.18899289,-0.76183176,-0.50642276,0.0,0.0,0.0
587,5.870001192,0.41717613,-0.6797883,-0.5034926412499999,0.0,0.0,0.0
588,5.880001192,0.6104421,-0.60946536,-0.511794675,0.0,0.0,0.0
589,5.890001192,0.8061324,-0.5108876914285714,-0.5080971285714285,0.0,0.0,0.0
590,5.900001192,1.1040456,-0.3540564125,-0.5249801999999999,0.0,0.0,0.0
591,5.910001192,1.215024,-0.27787325,-0.5220501,0.0,0.0,0.0
592,5.920001192,1.2257678,-0.261269225,-0.51716655875,0.0,0.0,0.0
593,5.930001192,1.2579992,-0.21145715,-0.5259569,0.0,0.0,0.0
594,5.940001192,1.1619765625,-0.24759531625,-0.5064227575,0.0,0.0,0.0
595,5.950001192,1.0685179125,-0.29203549,-0.48542356375,0.0,0.0,0.0
596,5.960001192,0.9420343,-0.3638235,-0.47516817,0.0,0.0,0.0
597,5.970001192,0.9141283857142858,-0.37945082571428573,-0.45954083142857144,0.0,0.0,0.0
598,5.980001192,0.8443636,-0.41851914,-0.45172715,0.0,0.0,0.0
599,5.990001192,1.0082672499999998,-0.4141239375,-0.42828617375,0.0,0.0,0.0
600,6.000001192,1.3708087625,-0.40386848875000003,-0.38335763500000003,0.0,0.0,0.0
601,6.010001192,1.5197567,-0.39898497,-0.37359056,0.0,0.0,0.0
602,6.020001192,1.595268375,-0.41607734875,-0.34886765875000003,0.0,0.0,0.0
603,6.030001192,1.7380508,-0.4575874,-0.30277928875,0.0,0.0,0.0
604,6.040001192,1.6605856625,-0.49256573875,-0.29398891875,0.0,0.0,0.0
605,6.050001192,1.5095011624999999,-0.5464677674999999,-0.2861752575,0.0,0.0,0.0
606,6.060001192,1.4728745999999997,-0.53914243,-0.25687402,0.0,0.0,0.0
607,6.070001192,1.4728746,-0.53914243,-0.25687402,0.0,0.0,0.0
608,6.080001192,1.4728746,-0.53914243,-0.25687402,0.0,0.0,0.0
609,6.090001192,1.7487944625,-0.5318171375,0.020999210625,0.0,0.0,0.0
610,6.100001192,1.7883511375,-0.55672319375,0.05841931125,0.0,0.0,0.0
611,6.110001192,1.8200942,-0.6055586,0.10206592,0.0,0.0,0.0
612,6.120001192,1.8200942,-0.6055586,0.10206592,0.0,0.0,0.0
613,6.130001192,2.2415435,-0.6250927,-0.059090792875,0.0,0.0,0.0
614,6.140001192,2.2386132875,-0.6558589937499999,0.091627363125,0.0,0.0,0.0
615,6.150001192,2.2337296,-0.70713615,0.30326764,0.0,0.0,0.0
616,6.160001192,2.2337296,-0.70713615,0.38335764,0.0,0.0,0.0
617,6.170001192,2.2337296,-0.70713615,0.38335764,0.0,0.0,0.0
618,6.180001192,2.6913781375,-0.60116336875,0.6905931700000001,0.0,0.0,0.0
619,6.190001192,2.7952754124999997,-0.54018020125,0.853031815,0.0,0.0,0.0
620,6.200001192,3.11166765,-0.166650699,1.6828668,0.0,0.0,0.0
621,6.210001192,3.2519472,-0.008790366,1.6828668,0.0,0.0,0.0
622,6.220001192,3.2519472,-0.008790366,1.6828668,0.0,0.0,0.0
623,6.230001192,3.298829175,0.20803865849999997,2.172441375,0.0,0.0,0.0
624,6.240001192,3.3144565,0.280315,2.4945107,0.0,0.0,0.0
625,6.250001192,2.5132511375,0.47907496250000003,2.846125325,0.0,0.0,0.0
626,6.260001192,2.2571707,0.5376774,3.0097237,0.0,0.0,0.0
627,6.270001192,2.2571707,0.5376774,3.0097237,0.0,0.0,0.0
628,6.280001192,2.0838051375,0.815733775,3.3363101375,0.0,0.0,0.0
629,6.290001192,2.1861762750000002,1.1992135375,3.7188134374999997,0.0,0.0,0.0
630,6.300001192,2.6647628625,1.6318948875,3.701721025,0.0,0.0,0.0
631,6.310001192,2.8891003,1.7512362,3.6650944,0.0,0.0,0.0
632,6.320001192,2.8891003,1.7512362,3.6650944,0.0,0.0,0.0
633,6.330001192,3.0087471125,1.72926045,3.449058925,0.0,0.0,0.0
634,6.340001192,2.85222985,1.4955832500000001,2.96650445,0.0,0.0,0.0
635,6.350001192,2.6239245,1.2750915,2.5762488,0.0,0.0,0.0
636,6.360001192,2.6239245,1.2750915,2.2640078,0.0,0.0,0.0
637,6.370001192,2.6239245,1.2750915,2.2640078,0.0,0.0,0.0
638,6.380001192,2.5098328125,1.0820697,1.986012425,0.0,0.0,0.0
639,6.390001192,2.3556961,0.6968807149999999,1.5383141,0.0,0.0,0.0
640,6.400001192,2.4559306999999997,0.46552314499999997,1.60473015,0.0,0.0,0.0
641,6.410001192,2.4324896,0.3428243,1.6633326,0.0,0.0,0.0
642,6.420001192,2.4324896,0.3428243,1.6633326,0.0,0.0,0.0
643,6.430001192,2.4218069499999997,0.21347161625,1.71100815,0.0,0.0,0.0
644,6.440001192,2.3646084375000003,-0.25540898125,1.698982425,0.0,0.0,0.0
645,6.450001192,2.3211450875,-0.41296410625,1.5905679375,0.0,0.0,0.0
646,6.460001192,2.2649844,-0.4883537,1.495339,0.0,0.0,0.0
647,6.470001192,2.1243386,-0.58211756,1.4601775,0.0,0.0,0.0
648,6.480001192,2.1243386,-0.58211756,1.4601775,0.0,0.0,0.0
649,6.490001192,2.0847819750000003,-0.83007916125,1.1617934875,0.0,0.0,0.0
650,6.500001192,1.9760185571428568,-0.9170584357142858,1.010403857142857,0.0,0.0,0.0
651,6.510001192,1.8200942,-0.94496435,0.871223,0.0,0.0,0.0
652,6.520001192,1.8200942,-0.94496435,0.74620444,0.0,0.0,0.0
653,6.530001192,1.790304625,-0.94496435,0.7096389599999999,0.0,0.0,0.0
654,6.540001192,1.5549791874999999,-0.94545270625,0.43951834,0.0,0.0,0.0
655,6.550001192,1.2619059,-0.927383635,0.338429095,0.0,0.0,0.0
656,6.560001192,1.1564215,-0.90589607,0.33647567,0.0,0.0,0.0
657,6.570001192,0.9967299,-0.92543024,0.33647567,0.0,0.0,0.0
658,6.580001192,0.9967299,-0.92543024,0.33647567,0.0,0.0,0.0
659,6.590001192,0.5946926925,-0.8779378499999999,0.165551905,0.0,0.0,0.0
660,6.600001192,0.5108179374999999,-0.8468053,0.1626217825,0.0,0.0,0.0
661,6.610001192,0.48151675,-0.8087137,0.16848202,0.0,0.0,0.0
662,6.620001192,0.4915628757142857,-0.7819240428571428,0.22875881714285715,0.0,0.0,0.0
663,6.630001192,0.49323723,-0.7774591,0.23880495,0.0,0.0,0.0
664,6.640001192,0.48102839875000003,-0.75548319375,0.25589731875,0.0,0.0,0.0
665,6.650001192,0.4737031,-0.74229765,0.26615274,0.0,0.0,0.0
666,6.660001192,0.342519075,-0.67197467875,0.143759109175,0.0,0.0,0.0
667,6.670001192,0.16213343,-0.5479327962499999,-0.0029301222,0.0,0.0,0.0
668,6.680001192,0.15383142,-0.53914243,-0.0029301222,0.0,0.0,0.0
669,6.690001192,0.077648235,-0.32518251375,-0.219759146525,0.0,0.0,0.0
670,6.700001192,0.061044208999999995,-0.2436885,-0.3202379125,0.0,0.0,0.0
671,6.710001192,0.040533356,-0.1645752,-0.44244842125000006,0.0,0.0,0.0
672,6.720001192,0.040533356,-0.1645752,-0.54158425,0.0,0.0,0.0
673,6.730001192,0.040533356,-0.1645752,-0.54158425,0.0,0.0,0.0
674,6.740001192,-0.035649818875,-0.0506666978625,-0.9165788375,0.0,0.0,0.0
675,6.750001192,-0.112748656875,-0.0434024365,-1.2672778,0.0,0.0,0.0
676,6.760001192,-0.20120172,-0.12160007,-1.2672778,0.0,0.0,0.0
677,6.770001192,-0.40527251999999997,-0.22415434375,-1.24926975,0.0,0.0,0.0
678,6.780001192,-0.575769,-0.3130347,-1.1232134,0.0,0.0,0.0
679,6.790001192,-0.74571605,-0.38531105,-1.0939122000000001,0.0,0.0,0.0
680,6.800001192,-0.9974624,-0.484691,-1.00796198,0.0,0.0,0.0
681,6.810001192,-1.0792617,-0.5117946,-0.95131296,0.0,0.0,0.0
682,6.820001192,-1.2929774375,-0.622650975,-0.96889369875,0.0,0.0,0.0
683,6.830001192,-1.4147606,-0.687602,-0.99819493,0.0,0.0,0.0
684,6.840001192,-1.4811767,-0.727647,-1.02944955625,0.0,0.0,0.0
685,6.850001192,-1.700935875,-0.8613338,-1.12113795,0.0,0.0,0.0
686,6.860001192,-1.7624685,-0.9019892,-1.1617935,0.0,0.0,0.0
687,6.870001192,-1.799156025,-0.93910413,-1.0889676875,0.0,0.0,0.0
688,6.880001192,-1.7932347,-0.9488712,-1.043123525,0.0,0.0,0.0
689,6.890001192,-1.7407367,-0.9351973,-0.8809900500000001,0.0,0.0,0.0
690,6.900001192,-1.6472169625,-0.911267975,-0.77324704,0.0,0.0,0.0
691,6.910001192,-1.5788473999999997,-0.8941756,-0.69785744,0.0,0.0,0.0
692,6.920001192,-1.5216557555555557,-0.8734476977777778,-0.5541729022222223,0.0,0.0,0.0
693,6.930001192,-1.3019508625,-0.79650485375,-0.5220501375,0.0,0.0,0.0
694,6.940001192,-1.0870753,-0.752064645,-0.504469375,0.0,0.0,0.0
695,6.950001192,-0.9872418471428572,-0.7372745057142858,-0.5438167285714286,0.0,0.0,0.0
696,6.960001192,-0.85706073,-0.7305771,-0.5572116,0.0,0.0,0.0
697,6.970001192,-0.6968807287500001,-0.7042060312499999,-0.5708855,0.0,0.0,0.0
698,6.980001192,-0.5601417,-0.70713615,-0.6724630450000001,0.0,0.0,0.0
699,6.990001192,-0.5045914625,-0.7051827374999999,-0.722153035,0.0,0.0,0.0
700,7.000001192,-0.29838410375,-0.7007875499999999,-0.75548315125,0.0,0.0,0.0
701,7.010001192,-0.23245636,-0.7032293,-0.76769197,0.0,0.0,0.0
702,7.020001192,-0.105179171125,-0.6871136125,-0.64755701125,0.0,0.0,0.0
703,7.030001192,-0.023929330749999998,-0.675881475,-0.5923730475,0.0,0.0,0.0
704,7.040001192,0.122576774,-0.655370625,-0.507399525,0.0,0.0,0.0
705,7.050001192,0.14601775,-0.6524405,-0.502516,0.0,0.0,0.0
706,7.060001192,0.25540897,-0.61727905,-0.45172715,0.0,0.0,0.0
707,7.070001192,0.37218654875,-0.59823326875,-0.48395849375,0.0,0.0,0.0
708,7.080001192,0.4268211,-0.5977449,-0.5337705749999999,0.0,0.0,0.0
709,7.090001192,0.4619826,-0.627046125,-0.4986090975,0.0,0.0,0.0
710,7.100001192,0.4785866325,-0.638766615,-0.4751681125,0.0,0.0,0.0
711,7.110001192,0.49323723,-0.64462686,-0.4151616575,0.0,0.0,0.0
712,7.120001192,0.544026035,-0.675881505,-0.157249887,0.0,0.0,0.0
713,7.130001192,0.6615797371428572,-0.7088104885714286,0.03390569657142857,0.0,0.0,0.0
714,7.140001192,0.7505996,-0.71104294,0.067392804,0.0,0.0,0.0
715,7.150001192,0.9793933375,-0.7051827024999999,0.09052856275,0.0,0.0,0.0
716,7.160001192,1.1881645625,-0.7012758874999999,0.10206592,0.0,0.0,0.0
717,7.170001192,1.4472972375,-0.68906705,0.1269719575,0.0,0.0,0.0
718,7.180001192,1.5544298,-0.6915088,0.16848202,0.0,0.0,0.0
719,7.190001192,1.5544298,-0.6915088,0.16848202,0.0,0.0,0.0
720,7.200001192,1.7536781000000001,-0.664161,0.39629901375,0.0,0.0,0.0
721,7.210001192,1.8928588875,-0.6250927125,0.63626380625,0.0,0.0,0.0
722,7.220001192,1.9439964571428572,-0.5163991371428571,1.006357442857143,0.0,0.0,0.0
723,7.230001192,1.9607401,-0.44977373,1.139329225,0.0,0.0,0.0
724,7.240001192,1.9607401,-0.44977373,1.1950015,0.0,0.0,0.0
725,7.250001192,1.927532025,-0.420472515,1.1076472175,0.0,0.0,0.0
726,7.260001192,1.870883,-0.3911713,0.83606154,0.0,0.0,0.0
727,7.270001192,1.88065005,-0.41851910999999997,0.73839077,0.0,0.0,0.0
728,7.280001192,1.8977424625000001,-0.38286930125,0.62020915,0.0,0.0,0.0
729,7.290001192,1.9294854,-0.33647567,0.5860244,0.0,0.0,0.0
730,7.300001192,1.9166486714285713,-0.3258714242857143,0.5971867714285715,0.0,0.0,0.0
731,7.310001192,1.8396283,-0.26224595,0.664161,0.0,0.0,0.0
732,7.320001192,1.8245590857142857,-0.21368962,0.5426307042857144,0.0,0.0,0.0
733,7.330001192,1.9449295,-0.113969546125,0.33256886375,0.0,0.0,0.0
734,7.340001192,2.061829,-0.036138173,0.29350057,0.0,0.0,0.0
735,7.350001192,2.16816805,0.04688195525,0.35393433750000003,0.0,0.0,0.0
736,7.360001192,2.4871852,0.29594234,0.53523564,0.0,0.0,0.0
737,7.370001192,2.8408144875000003,0.55238905,0.56600191875,0.0,0.0,0.0
738,7.380001192,2.9359825,0.66269594,0.6358364875,0.0,0.0,0.0
739,7.390001192,2.9359825,0.66269594,0.6915088,0.0,0.0,0.0
740,7.400001192,2.8823246375,0.7119586225,0.7632357625,0.0,0.0,0.0
741,7.410001192,2.5067196,1.0567974,1.2653245,0.0,0.0,0.0
742,7.420001192,2.6071808142857145,1.2139774714285714,1.3940405285714286,0.0,0.0,0.0
743,7.430001192,2.7001075875,1.3078111375,1.6987993875,0.0,0.0,0.0
744,7.440001192,2.7489429,1.3493212,1.9206952,0.0,0.0,0.0
745,7.450001192,2.7489429,1.3493212,1.9206952,0.0,0.0,0.0
746,7.460001192,2.6429699875,1.506571125,2.4672239625,0.0,0.0,0.0
747,7.470001192,2.6327147,1.7063688750000001,2.9201719875,0.0,0.0,0.0
748,7.480001192,2.6668994,1.7903047,3.0736981500000002,0.0,0.0,0.0
749,7.490001192,2.6668994,1.7903047,3.224111,0.0,0.0,0.0
750,7.500001192,2.7098135,1.79274645,3.2319246375,0.0,0.0,0.0
751,7.510001192,3.06295445,1.593437075,3.098604125,0.0,0.0,0.0
752,7.520001192,2.8741708285714287,1.2132798714285715,2.712734957142857,0.0,0.0,0.0
753,7.530001192,2.4228448,1.14274765,1.7284057499999999,0.0,0.0,0.0
754,7.540001192,2.089177,1.1896297,1.4679912,0.0,0.0,0.0
755,7.550001192,2.089177,1.1896297,1.4679912,0.0,0.0,0.0
756,7.560001192,2.529183875,0.82073941875,1.2409067125,0.0,0.0,0.0
757,7.570001192,2.5223467,0.55916495,1.048739535,0.0,0.0,0.0
758,7.580001192,2.476929775,0.4460500375,0.90638447,0.0,0.0,0.0
759,7.590001192,2.4598374,0.3584516,0.90638447,0.0,0.0,0.0
760,7.600001192,2.4598374,0.3584516,0.90638447,0.0,0.0,0.0
761,7.610001192,2.3004510125,0.11726592699999999,0.9048583512499999,0.0,0.0,0.0
762,7.620001192,2.0276445125,-0.18996958249999998,0.97817240625,0.0,0.0,0.0
763,7.630001192,1.9369328,-0.267129465,0.9703587375,0.0,0.0,0.0
764,7.640001192,1.8318146,-0.34038252,0.9644985,0.0,0.0,0.0
765,7.650001192,1.8318146,-0.34038252,0.9644985,0.0,0.0,0.0
766,7.660001192,1.8083736875,-0.39019459125,0.83300931,0.0,0.0,0.0
767,7.670001192,1.8011181285714284,-0.4179609685714286,0.6157442399999999,0.0,0.0,0.0
768,7.680001192,1.7619800625,-0.42535604,0.4961673325,0.0,0.0,0.0
769,7.690001192,1.64379845,-0.402403455,0.421937595,0.0,0.0,0.0
770,7.700001192,1.5778707,-0.37554398,0.39507812,0.0,0.0,0.0
771,7.710001192,1.5472875750000001,-0.36821867750000004,0.40533354875,0.0,0.0,0.0
772,7.720001192,1.36104175,-0.37554398,0.39898495375,0.0,0.0,0.0
773,7.730001192,1.258975875,-0.370660445,0.35991666,0.0,0.0,0.0
774,7.740001192,1.1527589,-0.34038252,0.281780075,0.0,0.0,0.0
775,7.750001192,1.1256553,-0.3247552,0.20364349,0.0,0.0,0.0
776,7.760001192,1.124678575,-0.3198716625,0.19875995000000002,0.0,0.0,0.0
777,7.770001192,1.111981375,-0.30229093875,0.14766593749999998,0.0,0.0,0.0
778,7.780001192,1.0659365714285713,-0.3018723571428571,0.08692694999999999,0.0,0.0,0.0
779,7.790001192,0.93861578125,-0.302779275,0.060555853875,0.0,0.0,0.0
780,7.800001192,0.82873625,-0.2856869,0.016604027,0.0,0.0,0.0
781,7.810001192,0.79949607375,-0.29447726750000003,0.011720489875,0.0,0.0,0.0
782,7.820001192,0.5401191999999999,-0.36382349,-0.026371099000000002,0.0,0.0,0.0
783,7.830001192,0.48542356,-0.38189257625,0.020816076250000003,0.0,0.0,0.0
784,7.840001192,0.48542356,-0.39898497,0.10597275,0.0,0.0,0.0
785,7.850001192,0.48542356,-0.39898497,0.10597275,0.0,0.0,0.0
786,7.860001192,0.48542356,-0.39898497,0.10597274999999999,0.0,0.0,0.0
787,7.870001192,0.161584022375,-0.41363556625,0.13148922875000002,0.0,0.0,0.0
788,7.880001192,0.08302012624999999,-0.37163714999999997,-0.0029301225000000018,0.0,0.0,0.0
789,7.890001192,0.11476312,-0.352103,-0.08106671,0.0,0.0,0.0
790,7.900001192,0.11476312,-0.352103,-0.08106671,0.0,0.0,0.0
791,7.910001192,0.113786412,-0.35600982999999997,-0.09620567375,0.0,0.0,0.0
792,7.920001192,-0.036626526000000006,-0.41754239375,-0.15871494749999998,0.0,0.0,0.0
793,7.930001192,-0.14394224875,-0.4594187225,-0.18264428,0.0,0.0,0.0
794,7.940001192,-0.40533356000000004,-0.53621235,-0.41809179125,0.0,0.0,0.0
795,7.950001192,-0.5135039,-0.5684437,-0.49665570000000003,0.0,0.0,0.0
796,7.960001192,-0.6031168,-0.5938381,-0.54158425,0.0,0.0,0.0
797,7.970001192,-0.7325305375,-0.5938381,-0.57821078125,0.0,0.0,0.0
798,7.980001192,-0.891664062857143,-0.6027679857142857,-0.7038572171428571,0.0,0.0,0.0
799,7.990001192,-0.9457579562499999,-0.6397433124999999,-0.86536276,0.0,0.0,0.0
800,8.000001192,-1.0079620249999999,-0.6778349075,-0.91419812,0.0,0.0,0.0
801,8.010001192,-1.0636343,-0.71885663,-1.0607042,0.0,0.0,0.0
802,8.020001192,-1.1950014625,-0.78820287375,-1.111309825,0.0,0.0,0.0
803,8.030001192,-1.3332056,-0.8595025,-1.1642961625000001,0.0,0.0,0.0
804,8.040001192,-1.3332056,-0.8595025,-1.1271203,0.0,0.0,0.0
805,8.050001192,-1.51255345,-0.9304358500000001,-1.080238325,0.0,0.0,0.0
806,8.060001192,-1.5983816,-0.9644985,-1.0333564,0.0,0.0,0.0
807,8.070001192,-1.6120554999999999,-0.95863827,-0.9420342625,0.0,0.0,0.0
808,8.080001192,-1.62768285,-0.9469178,-0.8731764,0.0,0.0,0.0
809,8.090001192,-1.6296363,-0.94105756,-0.8731764,0.0,0.0,0.0
810,8.100001192,-1.6193808375,-0.9162125475,-0.84680531375,0.0,0.0,0.0
811,8.110001192,-1.5788474,-0.8673161,-0.80285347,0.0,0.0,0.0
812,8.120001192,-1.5158497625,-0.83068960625,-0.82482938125,0.0,0.0,0.0
813,8.130001192,-1.380697875,-0.758901655,-0.8614559,0.0,0.0,0.0
814,8.140001192,-1.21990745,-0.7051827049999999,-0.8848969,0.0,0.0,0.0
815,8.150001192,-1.1495845,-0.68369514,-0.9083379,0.0,0.0,0.0
816,8.160001192,-1.1495845,-0.68369514,-0.9083379,0.0,0.0,0.0
817,8.170001192,-1.0118687942857143,-0.6474174485714286,-0.9150353071428572,0.0,0.0,0.0
818,8.180001192,-0.71641489,-0.5879778250000001,-0.987451175,0.0,0.0,0.0
819,8.190001192,-0.63437146,-0.5938381,-1.0489838,0.0,0.0,0.0
820,8.200001192,-0.51307659875,-0.5977449375,-1.05875085,0.0,0.0,0.0
821,8.210001192,-0.35356808,-0.5977449,-1.088052,0.0,0.0,0.0
822,8.220001192,-0.30717447625,-0.59725655,-1.07388975,0.0,0.0,0.0
823,8.230001192,-0.0703229297142857,-0.6156047285714286,-0.9781026857142857,0.0,0.0,0.0
824,8.240001192,-0.033696402,-0.6289996,-0.9395925,0.0,0.0,0.0
825,8.250001192,0.0263710995,-0.66123089875,-0.848758725,0.0,0.0,0.0
826,8.260001192,0.07178799,-0.687602,-0.791133,0.0,0.0,0.0
827,8.270001192,0.07178799,-0.687602,-0.791133,0.0,0.0,0.0
828,8.280001192,0.20950374375,-0.8052952375,-0.45465729375,0.0,0.0,0.0
829,8.290001192,0.2436885,-0.8321547,-0.4204725,0.0,0.0,0.0
830,8.300001192,0.30216884,-0.874031025,-0.32097047,0.0,0.0,0.0
831,8.310001192,0.36821866,-0.9215234,-0.17092378,0.0,0.0,0.0
832,8.320001192,0.52400353375,-0.95668484375,-0.093275547625,0.0,0.0,0.0
833,8.330001192,0.6415136499999999,-0.985009375,0.037603233125,0.0,0.0,0.0
834,8.340001192,0.719345,-0.99966,0.040045,0.0,0.0,0.0
835,8.350001192,0.9298253624999999,-1.0201709375,0.050788784375,0.0,0.0,0.0
836,8.360001192,1.0201708,-1.0348215,0.07520647,0.0,0.0,0.0
837,8.370001192,1.22381425,-1.0646111249999999,0.073253055,0.0,0.0,0.0
838,8.380001192,1.5157277,-1.04751865,0.090711695,0.0,0.0,0.0
839,8.390001192,1.7146097,-1.0270078,0.18410933,0.0,0.0,0.0
840,8.400001192,1.8975592625000002,-0.9742656024999999,0.22659611375,0.0,0.0,0.0
841,8.410001192,2.07696825,-0.89484708875,0.35161466375,0.0,0.0,0.0
842,8.420001192,2.287099942857143,-0.80703934,0.4819353142857143,0.0,0.0,0.0
843,8.430001192,2.53602075,-0.6934622500000001,0.5606300200000001,0.0,0.0,0.0
844,8.440001192,2.6590858500000003,-0.591884675,0.6856485999999999,0.0,0.0,0.0
845,8.450001192,2.617087325,-0.5616067025,0.828125825,0.0,0.0,0.0
846,8.460001192,2.382799675,-0.60262842,0.9566849,0.0,0.0,0.0
847,8.470001192,1.891699025,-0.7105545875,1.0567973375,0.0,0.0,0.0
848,8.480001192,1.60350935,-0.75011125,1.08951705,0.0,0.0,0.0
849,8.490001192,1.4572475,-0.76183176,1.0621693,0.0,0.0,0.0
850,8.500001192,1.588370425,-0.65341722,1.0250544000000001,0.0,0.0,0.0
851,8.510001192,1.734144,-0.5977449,1.0113806,0.0,0.0,0.0
852,8.520001192,1.734144,-0.5977449,1.0113806,0.0,0.0,0.0
853,8.530001192,1.734144,-0.5977449,1.0113806,0.0,0.0,0.0
854,8.540001192,2.62111625,-0.34416724249999997,0.976219025,0.0,0.0,0.0
855,8.550001192,2.76450915,-0.28764029874999997,0.9644985,0.0,0.0,0.0
856,8.560001192,2.8335502249999998,-0.1733655525,0.98500935,0.0,0.0,0.0
857,8.570001192,2.9281688,-0.19192299,0.9644985,0.0,0.0,0.0
858,8.580001192,2.7819068,-0.17824909,1.040681675,0.0,0.0,0.0
859,8.590001192,2.3431208,-0.13722739,1.2692312,0.0,0.0,0.0
860,8.600001192,2.486758025,0.009339761874999998,1.4260537750000002,0.0,0.0,0.0
861,8.610001192,2.6424819250000002,0.24112462,1.5323317250000001,0.0,0.0,0.0
862,8.620001192,2.7801976,0.46344763,1.7839559,0.0,0.0,0.0
863,8.630001192,2.831902025,0.55129025125,1.9869279125000001,0.0,0.0,0.0
864,8.640001192,3.193833,1.1661886,3.407732,0.0,0.0,0.0
865,8.650001192,3.1829671875,1.4103653875,3.802810225,0.0,0.0,0.0
866,8.660001192,3.074674775,1.68091325,4.172494,0.0,0.0,0.0
867,8.670001192,2.9281688,1.8098387,4.172494,0.0,0.0,0.0
868,8.680001192,2.9281687999999995,1.8098387,4.172494,0.0,0.0,0.0
869,8.690001192,2.8656595,1.9348574,4.266258,0.0,0.0,0.0
870,8.700001192,2.870543025,1.8392621500000002,4.180857124999999,0.0,0.0,0.0
871,8.710001192,2.9047277,1.1700954,3.583051,0.0,0.0,0.0
872,8.720001192,2.9047277,1.1700954,3.583051,0.0,0.0,0.0
873,8.730001192,2.9047277,1.1700954,3.583051,0.0,0.0,0.0
874,8.740001192,2.3743756,0.4986091,2.3421443,0.0,0.0,0.0
875,8.750001192,2.168290425,0.23135755,2.08758995,0.0,0.0,0.0
876,8.760001192,2.069643,0.08497354,1.967577,0.0,0.0,0.0
877,8.770001192,2.065736,-0.028324515,1.967577,0.0,0.0,0.0
878,8.780001192,2.065736,-0.028324515,1.967577,0.0,0.0,0.0
879,8.790001192,2.1922197,-0.174891656875,1.947066125,0.0,0.0,0.0
880,8.800001192,2.348859175,-0.300337535,1.927531975,0.0,0.0,0.0
881,8.810001192,2.4832785,-0.41070548,1.8777199,0.0,0.0,0.0
882,8.820001192,2.569229,-0.52742195,1.8777199,0.0,0.0,0.0
883,8.830001192,2.5667871875,-0.54256091875,1.8460379625,0.0,0.0,0.0
884,8.840001192,2.4065459875,-0.7134846874999999,1.535384,0.0,0.0,0.0
885,8.850001192,2.343121075,-0.7325304899999999,1.499245825,0.0,0.0,0.0
886,8.860001192,2.2229860375,-0.8070655125,1.383689125,0.0,0.0,0.0
887,8.870001192,2.2376366,-0.8824551000000002,1.3082995,0.0,0.0,0.0
888,8.880001192,2.2376366,-0.8824551,1.3082995,0.0,0.0,0.0
889,8.890001192,2.1888012875,-0.9923346,1.2033035,0.0,0.0,0.0
890,8.900001192,2.1595001,-1.0582623,1.1403059,0.0,0.0,0.0
891,8.910001192,1.8117311875,-1.0382399125,0.8433257725000001,0.0,0.0,0.0
892,8.920001192,1.72877205,-1.090005425,0.7217867437500001,0.0,0.0,0.0
893,8.930001192,1.6677278,-1.0973308,0.58993125,0.0,0.0,0.0
894,8.940001192,1.54594455,-1.0973308,0.49500751875,0.0,0.0,0.0
895,8.950001192,1.28144,-1.0240776675,0.2710362825,0.0,0.0,0.0
896,8.960001192,1.1910248285714287,-0.9528478171428573,0.23880495,0.0,0.0,0.0
897,8.970001192,1.1407942,-0.8595025,0.23880495,0.0,0.0,0.0
898,8.980001192,1.1407942,-0.8595025,0.23880495,0.0,0.0,0.0
899,8.990001192,1.0999556125,-0.789179575,0.132038626125,0.0,0.0,0.0
900,9.000001192,0.889292075,-0.58407106,-0.025394392125,0.0,0.0,0.0
901,9.010001192,0.7818543,-0.53132886,0.021487562,0.0,0.0,0.0
902,9.020001192,0.7653723425,-0.525468605,0.0868048675,0.0,0.0,0.0
903,9.030001192,0.71592647,-0.50788784,0.16848202,0.0,0.0,0.0
904,9.040001192,0.7075547028571428,-0.5056553657142857,0.16513331,0.0,0.0,0.0
905,9.050001192,0.608488725,-0.49226052,0.1013944375,0.0,0.0,0.0
906,9.060001192,0.4351231375,-0.5318171375,-0.0029301222,0.0,0.0,0.0
907,9.070001192,0.3291504,-0.56258345,-0.0029301222,0.0,0.0,0.0
908,9.080001192,0.3291504,-0.56258345,-0.0029301222,0.0,0.0,0.0
909,9.090001192,0.30332869625000003,-0.56697863125,-0.044379141925000004,0.0,0.0,0.0
910,9.100001192,0.04834701375,-0.583094325,-0.553304725,0.0,0.0,0.0
911,9.110001192,-0.02978957525,-0.576257375,-0.6314413,0.0,0.0,0.0
912,9.120001192,-0.1955246075,-0.555746475,-0.59725655,0.0,0.0,0.0
913,9.130001192,-0.25980416,-0.5469561,-0.5767457,0.0,0.0,0.0
914,9.140001192,-0.25980416,-0.5469561,-0.5767457,0.0,0.0,0.0
915,9.150001192,-0.50080671,-0.6001866575,-0.638766605,0.0,0.0,0.0
916,9.160001192,-0.896983625,-0.704206015,-0.729112,0.0,0.0,0.0
917,9.170001192,-1.162281775,-0.8028534625,-0.7641513875,0.0,0.0,0.0
918,9.180001192,-1.3527397,-0.84387517,-0.86926955,0.0,0.0,0.0
919,9.190001192,-1.3527397,-0.84387517,-0.86926955,0.0,0.0,0.0
920,9.200001192,-1.4870980500000002,-0.8043185225,-0.9547314425,0.0,0.0,0.0
921,9.210001192,-1.4787350375000001,-0.7491345362499999,-1.01089212625,0.0,0.0,0.0
922,9.220001192,-1.3592104249999999,-0.7129963874999999,-1.091958825,0.0,0.0,0.0
923,9.230001192,-1.2980441,-0.70713615,-1.0685178,0.0,0.0,0.0
924,9.240001192,-1.2980441,-0.70713615,-1.0685178,0.0,0.0,0.0
925,9.250001192,-1.323865825,-0.7212983975,-1.0875636,0.0,0.0,0.0
926,9.260001192,-1.3795992,-0.7501113,-1.0724247,0.0,0.0,0.0
927,9.270001192,-1.41378395,-0.774528955,-1.061680925,0.0,0.0,0.0
928,9.280001192,-1.428434525,-0.7759940275,-1.022124275,0.0,0.0,0.0
929,9.290001192,-1.4186674,-0.77355224,-1.0099154,0.0,0.0,0.0
930,9.300001192,-1.37776785,-0.7398558175000001,-0.5669786225,0.0,0.0,0.0
931,9.310001192,-1.3136715,-0.6915088,-0.0864386,0.0,0.0,0.0
932,9.320001192,-1.2366510428571427,-0.6356969428571428,-0.44070430285714285,0.0,0.0,0.0
933,9.330001192,-1.1769323,-0.5977449,-0.95131296,0.0,0.0,0.0
934,9.340001192,-1.1769323,-0.5977449,-0.95131296,0.0,0.0,0.0
935,9.350001192,-1.113568425,-0.5664902675,-0.96401017,0.0,0.0,0.0
936,9.360001192,-0.91517479125,-0.46936894125,-1.0021018,0.0,0.0,0.0
937,9.370001192,-0.85706073,-0.44586694,-1.0021018,0.0,0.0,0.0
938,9.380001192,-0.73008875,-0.41461226500000004,-0.9356857,0.0,0.0,0.0
939,9.390001192,-0.6929739,-0.4067986,-0.9356857,0.0,0.0,0.0
940,9.400001192,-0.5971170428571428,-0.3878225771428571,-0.9267557999999999,0.0,0.0,0.0
941,9.410001192,-0.3574749,-0.34038252,-0.90540775625,0.0,0.0,0.0
942,9.420001192,-0.2960644225,-0.33647569,-0.9083378625,0.0,0.0,0.0
943,9.430001192,-0.11183299,-0.3247552,-0.89710570625,0.0,0.0,0.0
944,9.440001192,-0.11183299,-0.3247552,-0.9005242,0.0,0.0,0.0
945,9.450001192,-0.03564981749999999,-0.32963873250000003,-0.8790366350000001,0.0,0.0,0.0
946,9.460001192,0.1928997,-0.34428933,-0.81457394,0.0,0.0,0.0
947,9.470001192,0.22513104750000001,-0.35600982375,-0.7634799387500001,0.0,0.0,0.0
948,9.480001192,0.31376724,-0.39507812,-0.652928885,0.0,0.0,0.0
949,9.490001192,0.34868452,-0.41461226,-0.6275345,0.0,0.0,0.0
950,9.500001192,0.3628467775,-0.42187652375,-0.595303155,0.0,0.0,0.0
951,9.510001192,0.46979624499999995,-0.47809826499999997,-0.36968374,0.0,0.0,0.0
952,9.520001192,0.5371890875,-0.51765494625,-0.34044356249999996,0.0,0.0,0.0
953,9.530001192,0.6460308575,-0.53132886,-0.13576232,0.0,0.0,0.0
954,9.540001192,0.78576106,-0.53132886,-0.13576232,0.0,0.0,0.0
955,9.550001192,0.78576106,-0.53132886,-0.13576232,0.0,0.0,0.0
956,9.560001192,1.1915829,-0.48444685,0.067392804,0.0,0.0,0.0
957,9.570001192,1.4025518,-0.44977373,0.067392804,0.0,0.0,0.0
958,9.580001192,1.7669247,-0.25247886,0.3526524155,0.0,0.0,0.0
959,9.590001192,1.8435352,-0.19973667,0.43805328,0.0,0.0,0.0
960,9.600001192,1.8435352,-0.19973667,0.43805328,0.0,0.0,0.0
961,9.610001192,1.746841075,-0.09425226525,0.9735330825,0.0,0.0,0.0
962,9.620001192,1.663332575,-0.060555857125,1.2667894375,0.0,0.0,0.0
963,9.630001192,1.5546128625,-0.062997624,1.2394416625,0.0,0.0,0.0
964,9.640001192,1.5158498,-0.062997624,1.1246786,0.0,0.0,0.0
965,9.650001192,1.5158498,-0.062997624,1.1246786,0.0,0.0,0.0
966,9.660001192,1.4425967874999999,-0.12306512525,0.8685980999999999,0.0,0.0,0.0
967,9.670001192,1.39083135,-0.16066836,0.568687865,0.0,0.0,0.0
968,9.680001192,1.4053424142857143,-0.10876334714285715,0.4307977042857143,0.0,0.0,0.0
969,9.690001192,1.4142723,-0.07081129,0.44196007,0.0,0.0,0.0
970,9.700001192,1.5123092249999999,0.055733363125000004,0.47712153125,0.0,0.0,0.0
971,9.710001192,1.663820975,0.1601800075,0.42633274,0.0,0.0,0.0
972,9.720001192,1.8061411714285713,0.34819618571428573,0.35600983,0.0,0.0,0.0
973,9.730001192,1.8355993499999999,0.49274887500000003,0.2164627875,0.0,0.0,0.0
974,9.740001192,2.0237376250000003,0.66800681875,0.059579152499999996,0.0,0.0,0.0
975,9.750001192,2.1126182,0.86926955,-0.07715988,0.0,0.0,0.0
976,9.760001192,2.2132189,1.241273025,-0.14943622499999998,0.0,0.0,0.0
977,9.770001192,2.3055178,1.6245696,-0.1172048835,0.0,0.0,0.0
978,9.780001192,2.258635875,1.763445225,-0.08253177725,0.0,0.0,0.0
979,9.790001192,2.2415435,1.8489071,-0.065439396,0.0,0.0,0.0
980,9.800001192,2.2395900500000003,1.909463,0.06568356975,0.0,0.0,0.0
981,9.810001192,2.2371482250000003,1.9816783375,0.17238885,0.0,0.0,0.0
982,9.820001192,2.2376365000000003,2.0857586250000004,0.2865415375,0.0,0.0,0.0
983,9.830001192,2.2493572,2.1531513,0.6289996,0.0,0.0,0.0
984,9.840001192,2.323587,2.2312882,0.95277804,0.0,0.0,0.0
985,9.850001192,2.4507421,2.3517283499999997,1.37325059,0.0,0.0,0.0
986,9.860001192,2.5804611,2.4871854124999997,1.8034902,0.0,0.0,0.0
987,9.870001192,2.6644577000000003,2.5594616375,1.8757054874999999,0.0,0.0,0.0
988,9.880001192,2.7098746499999997,2.5257652999999998,2.39683985,0.0,0.0,0.0
989,9.890001192,2.7176883,2.4886506,2.4124672,0.0,0.0,0.0
990,9.900001192,2.6250405285714287,2.270286542857143,2.377863885714286,0.0,0.0,0.0
991,9.910001192,2.5457877250000003,2.11908875,2.3655853,0.0,0.0,0.0
992,9.920001192,2.4285830125,1.8894405125,2.2996575249999998,0.0,0.0,0.0
993,9.930001192,2.3702857625,1.6235928875,2.0557859,0.0,0.0,0.0
994,9.940001192,2.3587484,1.5446627,1.9753907,0.0,0.0,0.0
995,9.950001192,2.3704688000000003,1.380575825,1.8230243000000002,0.0,0.0,0.0
996,9.960001192,2.3743756,1.3258802,1.7722355,0.0,0.0,0.0
997,9.970001192,2.1907547000000003,0.681985945,1.2725887,0.0,0.0,0.0
998,9.980001192,2.02569115,0.44891913749999995,1.0935460375,0.0,0.0,0.0
999,9.990001192,2.0579224,0.2529672,0.91810495,0.0,0.0,0.0
