id,timestamp,acc_x,acc_y,acc_z,gyro_x,gyro_y,gyro_z
0,0.0,-0.044379141625,0.6065352825,0.80914100375,0.0,0.0,0.0
1,0.01,-0.010255427,0.63534814,0.8262944,0.0,0.0,0.0
2,0.02,-0.010255427,0.63534814,0.8262944,0.0,0.0,0.0
3,0.03,-0.08057836175,0.547444465,0.767691995,0.0,0.0,0.0
4,0.04,-0.07325305375,0.63095293,0.79687111375,0.0,0.0,0.0
5,0.05,-0.013185550000000002,0.616302325,0.81097234375,0.0,0.0,0.0
6,0.06,0.07960165,0.5650252,0.822876,0.0,0.0,0.0
7,0.07,0.07960165,0.5650252,0.822876,0.0,0.0,0.0
8,0.08,0.07960165,0.5650252,0.822876,0.0,0.0,0.0
9,0.09,0.0898570775,0.55818825,0.8413723825,0.0,0.0,0.0
10,0.1,0.16164507,0.5103296,0.84924704,0.0,0.0,0.0
11,0.11,0.20510854875,0.44879706249999995,0.76744782,0.0,0.0,0.0
12,0.12,0.18117921,0.4400067,0.6856486,0.0,0.0,0.0
13,0.13,0.16164506,0.51618985,0.73448395,0.0,0.0,0.0
14,0.14,0.15773824,0.504469375,0.85339805,0.0,0.0,0.0
15,0.15,0.14699445375,0.4990974725,0.8691474875,0.0,0.0,0.0
16,0.16,0.14211091,0.51981764,0.8507818914285714,0.0,0.0,0.0
17,0.17,0.14211091,0.5298638,0.85120046,0.0,0.0,0.0
18,0.18,0.1450410375,0.5327939125,0.85388643,0.0,0.0,0.0
19,0.19,0.14992458,0.54158425,0.8580375,0.0,0.0,0.0
20,0.2,0.17336555250000002,0.5327939125,0.84118923,0.0,0.0,0.0
21,0.21,0.19875995000000002,0.52595695,0.833131405,0.0,0.0,0.0
22,0.22,0.21634069,0.5220501,0.83068967,0.0,0.0,0.0
23,0.23,0.22122422375,0.491772165,0.8308727812500001,0.0,0.0,0.0
24,0.24,0.182155924875,0.4282861625,0.8344133125,0.0,0.0,0.0
25,0.25,0.046393603374999995,0.43219300250000003,0.8431426399999999,0.0,0.0,0.0
26,0.26,-0.006906716500000001,0.39591529142857146,0.8676649528571428,0.0,0.0,0.0
27,0.27,0.0131855495,0.37359056,0.89222217,0.0,0.0,0.0
28,0.28,0.054207257125000005,0.361015455,0.89222217,0.0,0.0,0.0
29,0.29,0.33696404,0.3584516,0.87659484,0.0,0.0,0.0
30,0.3,0.3779857375,0.4024644675,0.85950249375,0.0,0.0,0.0
31,0.31,0.38628776125,0.41607732000000003,0.8036470237500001,0.0,0.0,0.0
32,0.32,0.38775283,0.4204725,0.7715988,0.0,0.0,0.0
33,0.33,0.38775283,0.4204725,0.7715988,0.0,0.0,0.0
34,0.34,0.38482271,0.4204725,0.7549947850000001,0.0,0.0,0.0
35,0.35,0.4597501142857143,0.3678000928571428,0.9331043257142857,0.0,0.0,0.0
36,0.36,0.48542356,0.34673113,1.0172406,0.0,0.0,0.0
37,0.37,0.5264452900000001,0.2558973325,0.98793945,0.0,0.0,0.0
38,0.38,0.5401192,0.2256194,0.9781724,0.0,0.0,0.0
39,0.39,-0.023502022499999997,0.7785578875,0.8521161375,0.0,0.0,0.0
40,0.4,0.008790364874999998,0.76567755625,0.7315538125,0.0,0.0,0.0
41,0.41,0.40392954462499997,0.4893303875,0.675881485,0.0,0.0,0.0
42,0.42,0.43756489375,0.41070544375,0.799923355,0.0,0.0,0.0
43,0.43,0.43463477,0.4048452,0.8184808,0.0,0.0,0.0
44,0.44,0.31219752714285715,0.36054455714285716,0.9520803714285714,0.0,0.0,0.0
45,0.45,0.23831659875,0.28666362125,1.033844825,0.0,0.0,0.0
46,0.46,0.34514396999999997,0.11244344499999999,0.93910411,0.0,0.0,0.0
47,0.47,0.6260694,-0.07471811,0.90394264,0.0,0.0,0.0
48,0.48,0.6260694,-0.07471811,0.90394264,0.0,0.0,0.0
49,0.49,0.2982620175,-0.019412057975,0.710920885,0.0,0.0,0.0
50,0.5,0.45416895,0.049812075,0.59579146,0.0,0.0,0.0
51,0.51,0.30796804375000003,0.04248676875,0.5689320475,0.0,0.0,0.0
52,0.52,0.2202475,0.038091585,0.5528164,0.0,0.0,0.0
53,0.53,0.2202475,0.038091585,0.5528164,0.0,0.0,0.0
54,0.54,0.36730303,-0.120135015,0.61727905,0.0,0.0,0.0
55,0.55,0.1626217775,-0.23001458249999998,0.58700115,0.0,0.0,0.0
56,0.56,0.13597162285714284,-0.12829748714285713,0.11015864428571429,0.0,0.0,0.0
57,0.57,0.0893687275,-0.0864386,-0.081310893,0.0,0.0,0.0
58,0.58,0.048347015,-0.09034543,-0.19241136,0.0,0.0,0.0
59,0.59,0.048347015,-0.09034543,-0.29252386625000004,0.0,0.0,0.0
60,0.6,-0.08057836,-0.12550691,-0.44977373,0.0,0.0,0.0
61,0.61,-0.08057836,-0.1425992825,-0.60018667625,0.0,0.0,0.0
62,0.62,-0.07032293275,-0.183132635,-0.6685562,0.0,0.0,0.0
63,0.63,-0.053230554,-0.24661861,-0.7466928,0.0,0.0,0.0
64,0.64,0.03216157628571429,-0.27508264857142856,-0.7433440885714286,0.0,0.0,0.0
65,0.65,0.6377899,-0.0864386,-0.120989621225,0.0,0.0,0.0
66,0.66,1.12803595,0.218294095,0.0833863952375,0.0,0.0,0.0
67,0.67,1.9224653125,0.6913256875,0.7787409625,0.0,0.0,0.0
68,0.68,2.366562,0.927872,1.0445884,0.0,0.0,0.0
69,0.69,2.65920795,1.055149175,1.1821210375,0.0,0.0,0.0
70,0.7,3.70672685,1.44845705,2.2240848875,0.0,0.0,0.0
71,0.71,3.8013452625,1.4098771125,2.4572127125,0.0,0.0,0.0
72,0.72,3.7984149124999997,1.2029982750000001,2.7537043375,0.0,0.0,0.0
73,0.73,3.774974,0.9825676,3.0229092,0.0,0.0,0.0
74,0.74,3.8469790333333327,0.9244535155555555,3.195949177777778,0.0,0.0,0.0
75,0.75,4.2081437,0.60800034,4.1158447,0.0,0.0,0.0
76,0.76,4.06468995,0.07337514,4.506039250000001,0.0,0.0,0.0
77,0.77,3.7866948,-0.3130347,4.1897693875,0.0,0.0,0.0
78,0.78,3.7866948,-0.3130347,3.7993917,0.0,0.0,0.0
79,0.79,3.7203397125,-0.383784945,3.6930527,0.0,0.0,0.0
80,0.8,2.5223467,-1.4718981,2.0984557,0.0,0.0,0.0
81,0.81,2.1637730125,-1.6636378875,1.7735784250000002,0.0,0.0,0.0
82,0.82,0.9593707850000001,-2.2076028,0.80285343,0.0,0.0,0.0
83,0.83,0.35259137,-2.4320014,0.37359056,0.0,0.0,0.0
84,0.84,-0.36248052249999996,-2.5500609,0.22915996,0.0,0.0,0.0
85,0.85,-3.8106849499999997,-2.8285444625,0.33653672,0.0,0.0,0.0
86,0.86,-3.8697147,-2.8261027,0.40093836,0.0,0.0,0.0
87,0.87,-4.0709772125,-2.891053775,0.9538767949999999,0.0,0.0,0.0
88,0.88,-4.072381,-2.9315872,2.1526632,0.0,0.0,0.0
89,0.89,-4.072381,-2.9315872,2.1526632,0.0,0.0,0.0
90,0.9,-3.4729882499999998,-2.8998441500000003,2.42272285,0.0,0.0,0.0
91,0.91,-2.0667129,-2.8729846,2.1643834,0.0,0.0,0.0
92,0.92,-1.3052473875,-2.7977782625,1.5499124625,0.0,0.0,0.0
93,0.93,-1.1964666,-2.7870345,1.4621309,0.0,0.0,0.0
94,0.94,-1.1964666,-2.7870345,1.4621309,0.0,0.0,0.0
95,0.95,0.59858211,-2.5735542285714286,-0.14511080714285715,0.0,0.0,0.0
96,0.96,3.8077549625000002,-1.7285278375,-0.6347987775,0.0,0.0,0.0
97,0.97,6.077562,-1.0309145,-0.43805328,0.0,0.0,0.0
98,0.98,7.5523896,-0.21927081,0.84924704,0.0,0.0,0.0
99,0.99,7.5523896,-0.21927081,0.84924704,0.0,0.0,0.0
100,1.0,7.8133536,0.22696238375,3.4906301399999995,0.0,0.0,0.0
101,1.01,7.969932,0.6507312749999999,5.82483865,0.0,0.0,0.0
102,1.02,7.797299075,0.9677949125,6.794709075,0.0,0.0,0.0
103,1.03,7.2794003,1.4508989,7.4561844,0.0,0.0,0.0
104,1.04,7.2794003,1.4508989,7.4561844,0.0,0.0,0.0
105,1.05,6.818324542857143,1.1320039157142858,6.879159571428572,0.0,0.0,0.0
106,1.06,4.7173744125,-0.578821195,3.0358506000000003,0.0,0.0,0.0
107,1.07,4.625686,-0.664161,2.8202424,0.0,0.0,0.0
108,1.08,4.025621624999999,-1.0713258749999999,1.9225873375,0.0,0.0,0.0
109,1.09,3.665583,-1.3156248,1.3839943,0.0,0.0,0.0
110,1.1,1.5327591875,-2.173357025,0.26364992749999994,0.0,0.0,0.0
111,1.11,-0.5367007,-2.9315872,-0.5630718,0.0,0.0,0.0
112,1.12,-1.4694562,-2.9857945,-0.60995376,0.0,0.0,0.0
113,1.13,-1.9323457000000002,-2.9610279285714287,-0.4261234814285714,0.0,0.0,0.0
114,1.14,-2.1175015,-2.9511213,-0.35259137,0.0,0.0,0.0
115,1.15,-2.2316542249999998,-2.876891525,-0.053963090000000005,0.0,0.0,0.0
116,1.16,-2.8713975875,-2.6761781375,1.88260350625,0.0,0.0,0.0
117,1.17,-3.2079953999999997,-2.7049911,2.52747455,0.0,0.0,0.0
118,1.18,-3.3662221,-2.7206185,2.9265205375,0.0,0.0,0.0
119,1.19,-3.3662221,-2.7206185,3.0971391,0.0,0.0,0.0
120,1.2,-3.3662221,-2.7206185,3.0971391,0.0,0.0,0.0
121,1.21,-3.4928277,-2.7928948,2.853206375,0.0,0.0,0.0
122,1.22,-3.0122353285714287,-3.0044914,2.1986380571428574,0.0,0.0,0.0
123,1.23,-2.3686374375000003,-3.189437775,1.6981279,0.0,0.0,0.0
124,1.24,-1.6413566,-3.220204,0.9742656,0.0,0.0,0.0
125,1.25,-1.6413566,-3.220204,0.9742656,0.0,0.0,0.0
126,1.26,1.559008075,-2.569900175,-0.6899826625000001,0.0,0.0,0.0
127,1.27,3.6538622,-2.1507096,-1.0587507,0.0,0.0,0.0
128,1.28,3.6538622,-2.1507096,-1.0587507,0.0,0.0,0.0
129,1.29,5.2690921625,-1.6900700499999999,0.3445335775,0.0,0.0,0.0
130,1.3,5.4998393,-1.6242644,0.54500276,0.0,0.0,0.0
131,1.31,7.6611704125,0.5841930750000001,3.4777498575,0.0,0.0,0.0
132,1.32,7.956746475,1.2993260375,5.3937445749999995,0.0,0.0,0.0
133,1.33,7.7435802,1.5845856999999999,7.064768774999999,0.0,0.0,0.0
134,1.34,7.44989665,1.9241136125,7.8317279375,0.0,0.0,0.0
135,1.35,7.4898806,1.9622052,7.8229375,0.0,0.0,0.0
136,1.36,6.258863,0.8729932877500001,5.4371468375,0.0,0.0,0.0
137,1.37,5.2268496,-0.055183966,2.891420175,0.0,0.0,0.0
138,1.38,5.2268496,-0.055183966,1.7116797,0.0,0.0,0.0
139,1.39,4.5064058375,-0.60854974575,0.7694622875,0.0,0.0,0.0
140,1.4,4.4034853,-0.687602,0.6348598,0.0,0.0,0.0
141,1.41,3.3278862375,-1.3047589375,0.1397912375,0.0,0.0,0.0
142,1.42,2.0342373,-1.8973761249999999,-0.2290378825,0.0,0.0,0.0
143,1.43,0.78502859,-2.291355475,-0.40911829,0.0,0.0,0.0
144,1.44,0.27884996,-2.3616784,-0.5904196,0.0,0.0,0.0
145,1.45,0.27884996,-2.3616784,-0.5904196,0.0,0.0,0.0
146,1.46,-0.50725996,-2.485371442857143,-0.30438387000000006,0.0,0.0,0.0
147,1.47,-1.9728879125,-2.6776433375,0.35405642,0.0,0.0,0.0
148,1.48,-2.3826778,-2.6229477,0.35405642,0.0,0.0,0.0
149,1.49,-2.3826778,-2.6229477,1.0680295,0.0,0.0,0.0
150,1.5,-2.3826778,-2.6229477,1.0680295,0.0,0.0,0.0
151,1.51,-2.8890394,-2.699130825,1.7937840624999999,0.0,0.0,0.0
152,1.52,-3.4377045625,-2.839288375,2.52301815,0.0,0.0,0.0
153,1.53,-3.4907521,-2.8593109,2.7264786,0.0,0.0,0.0
154,1.54,-3.4234815999999997,-2.8905655,2.7450361,0.0,0.0,0.0
155,1.55,-3.2333899,-2.955028,2.5897396,0.0,0.0,0.0
156,1.56,-2.925116575,-3.0242522,2.295140225,0.0,0.0,0.0
157,1.57,-1.760270775,-3.2465753499999996,1.2181982249999999,0.0,0.0,0.0
158,1.58,-0.19155672,-3.199693375,0.13844826375,0.0,0.0,0.0
159,1.59,0.09132214,-3.1694155,-0.6021401,0.0,0.0,0.0
160,1.6,1.3087878,-2.8573575,-0.9298254,0.0,0.0,0.0
161,1.61,1.48294695,-2.8002811625,-0.92543021625,0.0,0.0,0.0
162,1.62,3.4668227500000004,-2.0339931,-0.615813985,0.0,0.0,0.0
163,1.63,4.7687125625,-1.2954801875,0.050910864999999986,0.0,0.0,0.0
164,1.64,7.2355705,0.5738156,1.93534571,0.0,0.0,0.0
165,1.65,7.9436219999999995,1.5027253875,4.020920950000001,0.0,0.0,0.0
166,1.66,7.969932,1.5759174,4.259909,0.0,0.0,0.0
167,1.67,7.9100476125,2.0727562625,6.7361674375,0.0,0.0,0.0
168,1.68,7.8102403,1.9973667,6.921437,0.0,0.0,0.0
169,1.69,7.8102403,1.9973667,6.921437,0.0,0.0,0.0
170,1.7,7.332996625,1.569935025,6.1779185000000005,0.0,0.0,0.0
171,1.71,7.1739154,1.4274578,5.930079,0.0,0.0,0.0
172,1.72,5.6514726875,-0.331469985,3.98588175,0.0,0.0,0.0
173,1.73,4.3931686249999995,-1.5679814875,2.34159485,0.0,0.0,0.0
174,1.74,3.454247775,-2.1684124,1.45138718,0.0,0.0,0.0
175,1.75,1.7302371,-3.0522106,0.15480812,0.0,0.0,0.0
176,1.76,1.7302371,-3.0522106,0.15480812,0.0,0.0,0.0
177,1.77,0.8668277750000001,-3.192734325,-0.463264505,0.0,0.0,0.0
178,1.78,-0.806272,-3.4033368,-0.6910204249999999,0.0,0.0,0.0
179,1.79,-0.806272,-3.4033368,-0.6177674,0.0,0.0,0.0
180,1.8,-1.3455365124999998,-3.45803235,-0.32420580125,0.0,0.0,0.0
181,1.81,-1.4225743,-3.465846,-0.28226843,0.0,0.0,0.0
182,1.82,-2.1076733875,-3.232718175,0.58889354375,0.0,0.0,0.0
183,1.83,-2.7820810857142857,-2.9614464,1.677704257142857,0.0,0.0,0.0
184,1.84,-3.1194201875,-2.8427067,2.321022975,0.0,0.0,0.0
185,1.85,-3.9043875,-2.822196,3.1713688,0.0,0.0,0.0
186,1.86,-3.9043875,-2.822196,3.1713688,0.0,0.0,0.0
187,1.87,-3.894742575,-2.8485671249999998,2.9689461500000003,0.0,0.0,0.0
188,1.88,-3.5845161,-2.956615425,1.827175275,0.0,0.0,0.0
189,1.89,-2.5299163250000003,-3.1440210875,1.0583845125,0.0,0.0,0.0
190,1.9,-1.221616805,-3.2465753,0.08961289125,0.0,0.0,0.0
191,1.91,-0.97768414,-3.247552,-0.122088425,0.0,0.0,0.0
192,1.92,-0.20182965142857143,-3.0652565714285713,-0.5653740285714285,0.0,0.0,0.0
193,1.93,0.832643,-2.822196,-1.1564215,0.0,0.0,0.0
194,1.94,1.9971834625,-2.4310857125,-1.07688091875,0.0,0.0,0.0
195,1.95,3.0453737,-2.0418067,-0.82092255,0.0,0.0,0.0
196,1.96,4.473808,-1.3781341,0.20169006,0.0,0.0,0.0
197,1.97,5.208841425,-0.826538615,0.58706215,0.0,0.0,0.0
198,1.98,7.864448,1.1075861,2.129222,0.0,0.0,0.0
199,1.99,7.864448,1.1075861,3.7301675000000003,0.0,0.0,0.0
200,2.0,7.9548628571428575,1.572219842857143,6.190580828571428,0.0,0.0,0.0
201,2.01,7.969932,1.6496588,6.5117083,0.0,0.0,0.0
202,2.02,7.969932,1.7726018625000002,6.6844023875,0.0,0.0,0.0
203,2.03,7.969932,2.5966377874999997,7.893261,0.0,0.0,0.0
204,2.04,7.969932,2.3406792,7.893261,0.0,0.0,0.0
205,2.05,6.0530217749999995,0.57112966125,5.4325683,0.0,0.0,0.0
206,2.06,6.3427377,0.7838077,5.9808674,0.0,0.0,0.0
207,2.07,5.5920769375,0.21646277375,4.13855320625,0.0,0.0,0.0
208,2.08,2.482545975,-2.1647499000000003,-0.50056255,0.0,0.0,0.0
209,2.09,1.9646469,-2.4984174,-0.50056255,0.0,0.0,0.0
210,2.1,1.9646469,-2.4984174,-0.524003505,0.0,0.0,0.0
211,2.11,1.9646469,-2.4984174,-0.54744446,0.0,0.0,0.0
212,2.12,1.9646469,-2.4984174,-0.54744446,0.0,0.0,0.0
213,2.13,-0.7778253375,-3.0575824249999997,-0.40222029625,0.0,0.0,0.0
214,2.14,-1.0089387,-3.0795584,-0.38775283,0.0,0.0,0.0
215,2.15,-1.7125952875000001,-2.8113910499999997,0.28123066875,0.0,0.0,0.0
216,2.16,-2.1448493,-2.591693,0.81457394,0.0,0.0,0.0
217,2.17,-2.1448493,-2.591693,0.81457394,0.0,0.0,0.0
218,2.18,-2.402333825,-2.56825205,1.537337435,0.0,0.0,0.0
219,2.19,-2.58375725,-2.5623918,2.008476675,0.0,0.0,0.0
220,2.2,-2.870543,-2.568252,2.2307997,0.0,0.0,0.0
221,2.21,-2.870543,-2.568252,2.2307997,0.0,0.0,0.0
222,2.22,-2.870543,-2.568252,2.2307997,0.0,0.0,0.0
223,2.23,-3.225637175,-2.617087375,2.18739715,0.0,0.0,0.0
224,2.24,-3.387587575,-2.90521625,1.7663753,0.0,0.0,0.0
225,2.25,-2.83385535,-3.099642025,1.288643325,0.0,0.0,0.0
226,2.26,-0.9710912899999999,-3.3800179,0.10511814999999998,0.0,0.0,0.0
227,2.27,-0.37310222,-3.465846,-0.2666411,0.0,0.0,0.0
228,2.28,0.7385128325,-3.2699552499999998,-0.4097897875,0.0,0.0,0.0
229,2.29,1.2267444,-3.1498814,-0.44586694,0.0,0.0,0.0
230,2.3,1.8706387500000001,-2.948069075,-0.4052114725,0.0,0.0,0.0
231,2.31,4.4722212875,-1.886876525,-0.22415434,0.0,0.0,0.0
232,2.32,4.8132143,-1.7448877,-0.20022501,0.0,0.0,0.0
233,2.33,5.899801,-0.75963415,0.679788345,0.0,0.0,0.0
234,2.34,7.1304520875,0.707990775,2.493900125,0.0,0.0,0.0
235,2.35,7.3809776,1.7629569,4.5216665,0.0,0.0,0.0
236,2.36,7.5185103875,2.1332510625000003,5.2415610125,0.0,0.0,0.0
237,2.37,7.7477317,2.750408,5.68053,0.0,0.0,0.0
238,2.38,7.711593275,2.783494,5.720575,0.0,0.0,0.0
239,2.39,7.5714961249999995,2.846186475,5.641522875,0.0,0.0,0.0
240,2.4,7.349723,2.5902278,5.184851,0.0,0.0,0.0
241,2.41,6.7787153,2.1104203249999998,4.38016625,0.0,0.0,0.0
242,2.42,6.5883794,1.9504845,4.111938,0.0,0.0,0.0
243,2.43,5.91530605,1.3417516624999999,3.4914846500000003,0.0,0.0,0.0
244,2.44,3.5975797375,-0.74211443125,1.024138721375,0.0,0.0,0.0
245,2.45,2.537904442857143,-1.6131718,-0.3269876604285714,0.0,0.0,0.0
246,2.46,1.8423753625,-2.017389075,-0.50233281,0.0,0.0,0.0
247,2.47,1.2658128,-2.3265169,-0.69981086,0.0,0.0,0.0
248,2.48,1.2658128,-2.3265169,-0.69981086,0.0,0.0,0.0
249,2.49,0.6846719,-2.5335789,-0.6802767,0.0,0.0,0.0
250,2.5,0.2308692125,-2.57130435,-0.6040935000000001,0.0,0.0,0.0
251,2.51,-0.1555406375,-2.596576625,-0.5445143425,0.0,0.0,0.0
252,2.52,-0.8609675,-2.634668,-0.44196007,0.0,0.0,0.0
253,2.53,-0.8609675,-2.634668,-0.44196007,0.0,0.0,0.0
254,2.54,-1.8510435625000001,-2.5325412375,-0.11079524125,0.0,0.0,0.0
255,2.55,-2.426080125,-2.5561042375,0.5886493212499999,0.0,0.0,0.0
256,2.56,-2.8163356750000004,-2.5352270625,1.709054775,0.0,0.0,0.0
257,2.57,-3.0385368,-2.486697,1.9578099,0.0,0.0,0.0
258,2.58,-3.0385368,-2.486697,1.9578099,0.0,0.0,0.0
259,2.59,-3.009235425,-2.510138025,2.0158630625,0.0,0.0,0.0
260,2.6,-2.7738487625,-2.558545925,1.632505325,0.0,0.0,0.0
261,2.61,-2.4611194625,-2.6180641,1.2109339875,0.0,0.0,0.0
262,2.62,-2.2928207,-2.6502955,0.9898929,0.0,0.0,0.0
263,2.63,-2.2928207,-2.6502955,0.9898929,0.0,0.0,0.0
264,2.64,-0.61447106625,-2.863706125,-0.3810990125,0.0,0.0,0.0
265,2.65,0.1210506735,-2.941354375,-0.8731763874999999,0.0,0.0,0.0
266,2.66,0.6573241,-2.955028,-0.8595025,0.0,0.0,0.0
267,2.67,2.3001459,-2.6932707,-0.6607425,0.0,0.0,0.0
268,2.68,2.3001459,-2.6932707,-0.6607425,0.0,0.0,0.0
269,2.69,3.486357,-2.3382375,0.15004666,0.0,0.0,0.0
270,2.7,5.36822775,-1.062169275,0.6867473399999999,0.0,0.0,0.0
271,2.71,6.651028057142858,-0.22882858285714283,1.417062914285714,0.0,0.0,0.0
272,2.72,7.57302245,0.571984245,2.9897014,0.0,0.0,0.0
273,2.73,7.7164764,0.7369257,3.3662221,0.0,0.0,0.0
274,2.74,7.6974306875,1.0840841625,4.2834111875000005,0.0,0.0,0.0
275,2.75,7.005922,2.0750148,6.48436,0.0,0.0,0.0
276,2.76,6.72792675,1.9657456249999998,6.1544773500000005,0.0,0.0,0.0
277,2.77,5.828562625,1.5784810624999999,5.3247645375,0.0,0.0,0.0
278,2.78,5.370914,1.1622818,4.1470995,0.0,0.0,0.0
279,2.79,5.370914,1.1622818,3.4856244500000004,0.0,0.0,0.0
280,2.8,4.93444775,0.8329482625,2.090092775,0.0,0.0,0.0
281,2.81,4.5799029,0.5685047299999999,1.5355061125,0.0,0.0,0.0
282,2.82,3.4229931000000002,-0.23599690500000003,0.5149689199999999,0.0,0.0,0.0
283,2.83,1.8982308,-1.2457902,-0.14943621999999998,0.0,0.0,0.0
284,2.84,2.06305015,-1.1559331400000001,-0.11622817175000001,0.0,0.0,0.0
285,2.85,1.03958295,-1.74012635,-0.3564981875,0.0,0.0,0.0
286,2.86,0.480478995,-1.9625713999999999,-0.50562918625,0.0,0.0,0.0
287,2.87,-0.10792617,-2.1350822,-0.5904196,0.0,0.0,0.0
288,2.88,-0.51374805,-2.3069828,-0.5904196,0.0,0.0,0.0
289,2.89,-0.56252237375,-2.321145075,-0.587001125,0.0,0.0,0.0
290,2.9,-1.13786407,-2.4495821500000003,-0.4480645,0.0,0.0,0.0
291,2.91,-1.7063077857142857,-2.4649303714285717,-0.08225270928571428,0.0,0.0,0.0
292,2.92,-2.04107425,-2.4671628500000002,0.3010700435,0.0,0.0,0.0
293,2.93,-2.2420318,-2.4749765,0.584071,0.0,0.0,0.0
294,2.94,-2.2420318,-2.4749765,0.584071,0.0,0.0,0.0
295,2.95,-2.809132425,-2.78215105,1.656251575,0.0,0.0,0.0
296,2.96,-2.9227968125,-2.94379605,1.936322375,0.0,0.0,0.0
297,2.97,-2.9252386,-2.958935,1.8640461,0.0,0.0,0.0
298,2.98,-2.9252386,-2.958935,1.8640461,0.0,0.0,0.0
299,2.99,-2.8715197000000003,-2.997881225,1.7782179249999999,0.0,0.0,0.0
300,3.0,-0.97768414,-3.727604,0.51374805,0.0,0.0,0.0
301,3.01,-0.29484354625,-3.8604969000000002,0.27146360375,0.0,0.0,0.0
302,3.02,0.34416726,-3.9112246,0.23440977125,0.0,0.0,0.0
303,3.03,0.66904455,-3.9302704,0.23294471,0.0,0.0,0.0
304,3.04,0.66904455,-3.9302704,0.23294471,0.0,0.0,0.0
305,3.05,1.7653985250000002,-3.7820549999999997,0.37920660500000003,0.0,0.0,0.0
306,3.06,4.4423701875,-2.873228825,0.9649868125000001,0.0,0.0,0.0
307,3.07,6.108816,-1.7644218,2.308936,0.0,0.0,0.0
308,3.08,6.108816,-1.7644218,2.308936,0.0,0.0,0.0
309,3.09,6.108816,-1.7644217999999998,2.308936,0.0,0.0,0.0
310,3.1,6.361478125,-0.4039905375,3.321659575,0.0,0.0,0.0
311,3.11,6.6353835,1.174734825,4.524352875,0.0,0.0,0.0
312,3.12,6.7817676,1.5268378500000002,4.800516999999999,0.0,0.0,0.0
313,3.13,6.8852987,1.7395159,4.927489,0.0,0.0,0.0
314,3.14,6.8852987,1.7395159,4.927489,0.0,0.0,0.0
315,3.15,6.6481419125,1.5230531125,4.487054875,0.0,0.0,0.0
316,3.16,6.1938508375,1.0851829625,3.680782725,0.0,0.0,0.0
317,3.17,5.6412174749999995,0.36016087,3.0094797,0.0,0.0,0.0
318,3.18,5.0589778,-0.3831134525,2.363753975,0.0,0.0,0.0
319,3.19,4.567084,-0.94496435,1.9187417,0.0,0.0,0.0
320,3.2,4.12811485,-1.34895494375,1.5323318,0.0,0.0,0.0
321,3.21,3.0824882999999996,-2.2310438,0.77330805,0.0,0.0,0.0
322,3.22,2.768477,-2.439815,0.6583008,0.0,0.0,0.0
323,3.23,2.5518311375,-2.567092175,0.57625737375,0.0,0.0,0.0
324,3.24,2.1907547,-2.7792208,0.43951833,0.0,0.0,0.0
325,3.25,2.1907547,-2.7792208,0.43951833,0.0,0.0,0.0
326,3.26,0.309311015,-3.6148550624999998,0.148398470625,0.0,0.0,0.0
327,3.27,-0.73008877,-3.7822993,0.855351525,0.0,0.0,0.0
328,3.28,-1.1613051,-3.7822993,1.196955,0.0,0.0,0.0
329,3.29,-1.1613051,-3.7822993,1.196955,0.0,0.0,0.0
330,3.3,-1.1613051,-3.7822993000000005,1.1969550000000002,0.0,0.0,0.0
331,3.31,-2.4787613125,-3.5615634375,2.2886085,0.0,0.0,0.0
332,3.32,-3.0976274249999998,-3.58305085,2.895326925,0.0,0.0,0.0
333,3.33,-3.2646441,-3.5947714,3.1088595,0.0,0.0,0.0
334,3.34,-3.2646441,-3.5947714,3.1088595,0.0,0.0,0.0
335,3.35,-3.2700160375,-3.598678275,3.0478763124999997,0.0,0.0,0.0
336,3.36,-2.96369645,-3.71960705,2.3473939625,0.0,0.0,0.0
337,3.37,-2.205161,-3.9224567749999997,1.7099704999999998,0.0,0.0,0.0
338,3.38,-1.534529375,-4.0845292,1.0125403687499999,0.0,0.0,0.0
339,3.39,-0.7320422,-4.2345147,-0.05957915,0.0,0.0,0.0
340,3.4,-0.7320421999999999,-4.2345147,-0.05957914999999999,0.0,0.0,0.0
341,3.41,1.23022405,-4.2240151374999995,-0.21389890749999999,0.0,0.0,0.0
342,3.42,2.4246762,-4.168587,-0.22366598,0.0,0.0,0.0
343,3.43,3.234000275,-3.939549275,-0.22366598,0.0,0.0,0.0
344,3.44,3.7339523000000003,-3.7703346,0.11378641,0.0,0.0,0.0
345,3.45,4.1182866,-3.6338396,0.4512388,0.0,0.0,0.0
346,3.46,5.552031975,-2.6299066,2.158706475,0.0,0.0,0.0
347,3.47,6.55150915,-1.6301245999999998,3.75861425,0.0,0.0,0.0
348,3.48,6.8501377,-1.2614176,4.15882,0.0,0.0,0.0
349,3.49,7.1983946125,-0.55122921375,4.15882,0.0,0.0,0.0
350,3.5,7.2481456,-0.44977373,4.15882,0.0,0.0,0.0
351,3.51,7.514969775,0.48975765624999995,5.531277,0.0,0.0,0.0
352,3.52,7.4592976125,1.2137419624999999,6.446757062500001,0.0,0.0,0.0
353,3.53,6.98455685,1.1285853449999999,6.3145352625,0.0,0.0,0.0
354,3.54,5.9209222624999995,0.572167385,4.9015449125,0.0,0.0,0.0
355,3.55,5.667833,0.41265884,4.4552507,0.0,0.0,0.0
356,3.56,5.1467595,-0.12184424499999999,3.2202042,0.0,0.0,0.0
357,3.57,4.558781571428571,-0.7282748542857143,1.8753479,0.0,0.0,0.0
358,3.58,4.157355,-1.15984,1.2164891,0.0,0.0,0.0
359,3.59,3.809036625,-1.481787175,0.7363152875,0.0,0.0,0.0
360,3.6,3.6929305,-1.5891029,0.57625735,0.0,0.0,0.0
361,3.61,3.1583663875,-2.1021794750000002,0.65292885,0.0,0.0,0.0
362,3.62,2.4019066625,-2.8220127500000003,0.7364373,0.0,0.0,0.0
363,3.63,2.1946616,-3.017049,0.7364372999999999,0.0,0.0,0.0
364,3.64,1.9214886624999998,-3.1952980625,0.682718425,0.0,0.0,0.0
365,3.65,1.3009742,-3.7002559,0.56063,0.0,0.0,0.0
366,3.66,0.9917242325,-3.8465178250000003,0.730454975,0.0,0.0,0.0
367,3.67,-0.08137193625,-4.268272225,1.305247225,0.0,0.0,0.0
368,3.68,-1.0987958,-4.1490526,1.7624685,0.0,0.0,0.0
369,3.69,-2.3168109,-3.8590317375,1.9112332374999998,0.0,0.0,0.0
370,3.7,-3.1630666,-3.4931939,2.9525864,0.0,0.0,0.0
371,3.71,-3.1630666,-3.4931939,2.9525864,0.0,0.0,0.0
372,3.72,-3.1466458250000002,-3.3192791125,3.2136725,0.0,0.0,0.0
373,3.73,-2.9838412,-3.278807,3.3623152,0.0,0.0,0.0
374,3.74,-2.5999339624999998,-3.2421802250000002,3.2338170374999997,0.0,0.0,0.0
375,3.75,-2.0745263,-3.1850426,2.9179134,0.0,0.0,0.0
376,3.76,-1.9462113875,-3.171857075,2.7510795625,0.0,0.0,0.0
377,3.77,-0.7906446,-3.05611745,0.736437385,0.0,0.0,0.0
378,3.78,-0.5332822,-3.0326765,-0.11036793,0.0,0.0,0.0
379,3.79,0.1337478725,-2.9173639000000002,-0.66898352875,0.0,0.0,0.0
380,3.8,0.7002992,-2.7362456,-0.871223,0.0,0.0,0.0
381,3.81,0.7002992,-2.7362456,-0.871223,0.0,0.0,0.0
382,3.82,2.3594807875,-1.9098901625,-0.9386768625,0.0,0.0,0.0
383,3.83,3.4746366,-1.3625067,-0.8248294,0.0,0.0,0.0
384,3.84,4.56085695,-0.5817513175,-0.28617528000000003,0.0,0.0,0.0
385,3.85,5.000253,-0.23099129,0.25247884,0.0,0.0,0.0
386,3.86,5.000253,-0.23099129,0.25247884,0.0,0.0,0.0
387,3.87,5.68083515,0.50794890375,1.61339857,0.0,0.0,0.0
388,3.88,6.4560356,1.4040169,3.5146816,0.0,0.0,0.0
389,3.89,6.788604625,1.7074676500000001,3.7853515,0.0,0.0,0.0
390,3.9,7.0801516,1.9582983000000003,4.236468,0.0,0.0,0.0
391,3.91,7.0801516,1.9582983,4.236468,0.0,0.0,0.0
392,3.92,6.490037375,1.4255044187500001,4.083003025,0.0,0.0,0.0
393,3.93,5.893941,0.89661735,3.7490914,0.0,0.0,0.0
394,3.94,5.1651949125,0.26505395374999996,2.8918474375,0.0,0.0,0.0
395,3.95,4.602245,-0.22317764,2.2151723,0.0,0.0,0.0
396,3.96,4.602245,-0.22317764,2.2151723,0.0,0.0,0.0
397,3.97,3.7599572,-0.9778672275,1.09775803125,0.0,0.0,0.0
398,3.98,3.0531874,-1.6086371,0.29154715,0.0,0.0,0.0
399,3.99,2.4975628625,-2.0441264875,0.1489478725,0.0,0.0,0.0
400,4.0,2.1595001,-2.2913556,0.15090129,0.0,0.0,0.0
401,4.01,2.1595001,-2.2913556,0.15090129,0.0,0.0,0.0
402,4.02,1.6230435499999998,-2.64638865,0.12941373,0.0,0.0,0.0
403,4.03,0.48371434999999996,-3.218250675,0.10792617,0.0,0.0,0.0
404,4.04,-0.6760035625,-3.3369206875,0.36950061125,0.0,0.0,0.0
405,4.05,-1.79555445,-3.18699625,1.2824168,0.0,0.0,0.0
406,4.06,-2.176104,-2.993608,1.2824168,0.0,0.0,0.0
407,4.07,-2.2334855625,-2.844416025,1.8497616625,0.0,0.0,0.0
408,4.08,-2.2811,-2.6659229,2.624901,0.0,0.0,0.0
409,4.09,-2.24905175,-2.6031083,2.683503525,0.0,0.0,0.0
410,4.1,-2.277193,-2.5452995,2.7811744,0.0,0.0,0.0
411,4.11,-2.277193,-2.5452995,2.7811744,0.0,0.0,0.0
412,4.12,-2.275728,-2.5286954625,2.7372836,0.0,0.0,0.0
413,4.13,-2.0784333,-2.3968399,1.8992075,0.0,0.0,0.0
414,4.14,-1.7536170625,-2.4207692375,1.3061019249999999,0.0,0.0,0.0
415,4.15,-1.3058578,-2.439815,0.5332822,0.0,0.0,0.0
416,4.16,-0.8140856,-2.4476287,-0.04395183,0.0,0.0,0.0
417,4.17,-0.8140856,-2.4476287,-0.04395183,0.0,0.0,0.0
418,4.18,-0.8140856,-2.4476287,-0.04395183,0.0,0.0,0.0
419,4.19,0.44397457500000004,-2.1685955375,-0.9220118,0.0,0.0,0.0
420,4.2,0.7818543,-2.0691545,-1.0463588375000001,0.0,0.0,0.0
421,4.21,2.8171294125,-1.3179446,-1.2980441,0.0,0.0,0.0
422,4.22,3.107883,-1.2106289,-1.3043927,0.0,0.0,0.0
423,4.23,5.661728575,0.35716967125,1.076148425,0.0,0.0,0.0
424,4.24,5.868546375,0.800045425,1.9342469000000002,0.0,0.0,0.0
425,4.25,5.8509655,1.3024393,2.8319629999999996,0.0,0.0,0.0
426,4.26,5.8509655,1.3024393,2.831963,0.0,0.0,0.0
427,4.27,5.8704996875,1.3595156375000002,2.893922875,0.0,0.0,0.0
428,4.28,6.153805875,1.8034901125,3.49130165,0.0,0.0,0.0
429,4.29,6.0870235125,1.4816650375,3.3874044249999997,0.0,0.0,0.0
430,4.3,5.8344834,0.959248675,3.1752758,0.0,0.0,0.0
431,4.31,5.5389075,0.5493979,3.1752758,0.0,0.0,0.0
432,4.32,5.5389075,0.5493979,3.1752758,0.0,0.0,0.0
433,4.33,5.0607481750000005,0.02380724,2.6971164749999996,0.0,0.0,0.0
434,4.34,3.306782342857143,-1.4012262771428572,1.3613207714285716,0.0,0.0,0.0
435,4.35,2.3509347,-2.1121297,0.7715988,0.0,0.0,0.0
436,4.36,2.3509347,-2.1121297,0.7715988,0.0,0.0,0.0
437,4.37,2.3509347,-2.1121297,0.7715988,0.0,0.0,0.0
438,4.38,1.2411508875,-2.5876640125000003,0.10316471875,0.0,0.0,0.0
439,4.39,0.5752806,-2.8729846,-0.29789573,0.0,0.0,0.0
440,4.4,0.358695755,-2.95978945,-0.29789573,0.0,0.0,0.0
441,4.41,-0.29105878,-3.220204,-0.4614942,0.0,0.0,0.0
442,4.42,-0.29105878,-3.220204,-0.4614942,0.0,0.0,0.0
443,4.43,-1.35260022,-3.347176114285714,6.980000000000082e-05,0.0,0.0,0.0
444,4.44,-2.1487563,-3.4424052,0.3462428,0.0,0.0,0.0
445,4.45,-2.3593588125,-3.2931520875,1.3851542000000001,0.0,0.0,0.0
446,4.46,-2.7250134375000004,-2.8444770875,3.4289142625,0.0,0.0,0.0
447,4.47,-2.7338037,-2.7245252,3.6162589,0.0,0.0,0.0
448,4.48,-2.7138422875000003,-2.725501925,3.486478925,0.0,0.0,0.0
449,4.49,-2.5291838500000003,-2.746012875,2.5780191,0.0,0.0,0.0
450,4.5,-2.214684,-2.84173,2.5780191,0.0,0.0,0.0
451,4.51,-1.7876187000000001,-2.91498325,1.7938452,0.0,0.0,0.0
452,4.52,-1.6452636,-2.939401,1.5324539,0.0,0.0,0.0
453,4.53,-0.701397975,-2.7344755375000003,0.46277614999999994,0.0,0.0,0.0
454,4.54,0.8717114,-2.3929331,-1.3200201,0.0,0.0,0.0
455,4.55,2.74631805,-1.5836089375,-1.231566875,0.0,0.0,0.0
456,4.56,3.51022525,-1.245668175,-0.9495426437500001,0.0,0.0,0.0
457,4.57,4.337069,-0.8751298,-0.50056255,0.0,0.0,0.0
458,4.58,4.8052779999999995,-0.6106862799999999,0.20083543749999994,0.0,0.0,0.0
459,4.59,6.671094375,0.47290948,2.3050294,0.0,0.0,0.0
460,4.6,7.5451866875,1.1589853374999999,3.7664277999999998,0.0,0.0,0.0
461,4.61,7.9275063125,1.6179768625,5.3545539875,0.0,0.0,0.0
462,4.62,7.969932,1.6730998,5.5516047,0.0,0.0,0.0
463,4.63,7.969932,1.6730998,5.5516047,0.0,0.0,0.0
464,4.64,7.6129455,1.5453953,5.375064775,0.0,0.0,0.0
465,4.65,5.7012241249999995,0.42553918749999997,3.0733316999999998,0.0,0.0,0.0
466,4.66,4.9116172,-0.2982620125,1.7663753,0.0,0.0,0.0
467,4.67,4.3409758,-0.7579249,1.7663753,0.0,0.0,0.0
468,4.68,4.3409758,-0.7579249,1.7663753,0.0,0.0,0.0
469,4.69,3.2620630857142854,-1.4517358999999999,0.487237455,0.0,0.0,0.0
470,4.7,2.5672753999999998,-1.92460185,-0.23514231149999998,0.0,0.0,0.0
471,4.71,1.873691025,-2.4331001999999997,-0.56600191,0.0,0.0,0.0
472,4.72,1.7302371,-2.5374858,-0.6060469,0.0,0.0,0.0
473,4.73,1.7302371,-2.5374858,-0.6060469,0.0,0.0,0.0
474,4.74,0.1918009135,-3.1514074375,-0.327563245,0.0,0.0,0.0
475,4.75,-0.7750173,-3.4931939,0.11573982000000001,0.0,0.0,0.0
476,4.76,-2.2811,-3.2749,1.5988699,0.0,0.0,0.0
477,4.77,-2.488162,-3.083465,1.5988699,0.0,0.0,0.0
478,4.78,-2.488162,-3.083465,1.5988699,0.0,0.0,0.0
479,4.79,-2.4407916375000003,-2.919256275,2.7054184375,0.0,0.0,0.0
480,4.8,-2.4412801,-2.8612642,3.3896627,0.0,0.0,0.0
481,4.81,-2.51453305,-2.87298475,3.421894175,0.0,0.0,0.0
482,4.82,-2.535044,-2.9081461,3.124487,0.0,0.0,0.0
483,4.83,-2.535044,-2.9081461,3.124487,0.0,0.0,0.0
484,4.84,-2.361312175,-2.957714075,2.5040335999999996,0.0,0.0,0.0
485,4.85,-1.9256396625,-3.0434201499999998,1.7845664875,0.0,0.0,0.0
486,4.86,-1.430388,-3.0912788,1.0914705,0.0,0.0,0.0
487,4.87,-0.10572858,-2.95154865,-0.5985384499999999,0.0,0.0,0.0
488,4.88,0.08350848,-2.9315872,-0.8399683,0.0,0.0,0.0
489,4.89,0.712752225,-2.6416882375,-0.9190815625,0.0,0.0,0.0
490,4.9,2.8279342,-1.6593648125,-1.187126675,0.0,0.0,0.0
491,4.91,4.133914,-1.206722,-1.296579,0.0,0.0,0.0
492,4.92,4.85789825,-0.94325515,-1.296579,0.0,0.0,0.0
493,4.93,5.5818825,-0.6797883,-1.296579,0.0,0.0,0.0
494,4.94,6.3237526875,-0.335865225,0.633455775,0.0,0.0,0.0
495,4.95,7.739673,0.520096685,4.9311512,0.0,0.0,0.0
496,4.96,7.948165285714286,1.326926687142857,7.087058571428571,0.0,0.0,0.0
497,4.97,7.949149855555556,1.696594888888889,7.8477355555555555,0.0,0.0,0.0
498,4.98,7.7828927,1.5095012,7.483532000000001,0.0,0.0,0.0
499,4.99,7.626741525,1.3553035425000002,7.483532,0.0,0.0,0.0
500,5.0,6.373992,0.17092378,5.930079,0.0,0.0,0.0
501,5.01,5.881365125,-0.29240177,4.798624312499999,0.0,0.0,0.0
502,5.02,5.18582765,-0.94105755,3.34107165,0.0,0.0,0.0
503,5.03,4.7858663,-1.311718,2.5623918,0.0,0.0,0.0
504,5.04,4.7858663,-1.311718,2.5623918,0.0,0.0,0.0
505,5.05,3.134253975,-2.55170905,0.60732884125,0.0,0.0,0.0
506,5.06,2.070863875,-3.2181286,-0.3291503875,0.0,0.0,0.0
507,5.07,0.666053335,-3.8898593125,-0.2954539825,0.0,0.0,0.0
508,5.08,-0.64609194,-4.3360925,-0.14162257,0.0,0.0,0.0
509,5.09,-0.64609194,-4.3360925,-0.14162257,0.0,0.0,0.0
510,5.1,-1.6843319,-4.0748234,0.27982667,0.0,0.0,0.0
511,5.11,-2.102223114285714,-3.7280921428571427,0.9313602142857142,0.0,0.0,0.0
512,5.12,-2.394398,-3.083465,2.3440976,0.0,0.0,0.0
513,5.13,-2.4090486249999996,-2.927497125,2.89044335,0.0,0.0,0.0
514,5.14,-2.417839,-2.8339164,3.2182508,0.0,0.0,0.0
515,5.15,-2.4739996,-2.5918151,3.5430671,0.0,0.0,0.0
516,5.16,-2.5086729500000002,-2.386096075,3.03194375,0.0,0.0,0.0
517,5.17,-2.4764416000000002,-2.39683985,2.874938,0.0,0.0,0.0
518,5.18,-2.4334664,-2.416374,2.874938,0.0,0.0,0.0
519,5.19,-2.4334664,-2.416374,2.874938,0.0,0.0,0.0
520,5.2,-1.808251625,-2.5429798,0.886484005,0.0,0.0,0.0
521,5.21,-1.2433485,-2.5877862,-1.0587507,0.0,0.0,0.0
522,5.22,-0.021975916,-2.2171257,-1.6984941,0.0,0.0,0.0
523,5.23,0.393735146,-1.997732775,-1.9563449249999998,0.0,0.0,0.0
524,5.24,0.5323055,-1.9246018,-2.0422952,0.0,0.0,0.0
525,5.25,1.3322287714285714,-1.7585616,-2.160337242857143,0.0,0.0,0.0
526,5.26,3.0420159875,-1.61889245,-1.7235223,0.0,0.0,0.0
527,5.27,5.2151294,-1.51878,0.5918847,0.0,0.0,0.0
528,5.28,5.2151294,-1.51878,0.5918847,0.0,0.0,0.0
529,5.29,5.2151294,-1.51878,0.5918847,0.0,0.0,0.0
530,5.3,5.896016550000001,-1.25922001,2.134227775,0.0,0.0,0.0
531,5.31,7.96602525,0.80651610875,7.7517605,0.0,0.0,0.0
532,5.32,7.969932,0.97084713,7.893261,0.0,0.0,0.0
533,5.33,7.6391945625,0.8377097175,7.2259256249999995,0.0,0.0,0.0
534,5.34,7.0879655,0.61581403,6.1137,0.0,0.0,0.0
535,5.35,6.0394004,0.2629435942857143,4.374463157142857,0.0,0.0,0.0
536,5.36,4.0461324125,-0.392819495,1.12364080625,0.0,0.0,0.0
537,5.37,3.159404225,-0.732530525,0.56453687,0.0,0.0,0.0
538,5.38,2.19466145,-1.3178223999999998,-1.07437812,0.0,0.0,0.0
539,5.39,1.9490196,-1.4797117,-1.6442869,0.0,0.0,0.0
540,5.4,1.7675351625,-1.6274996874999998,-1.6442869,0.0,0.0,0.0
541,5.41,0.8873387,-2.373399,-1.7141215,0.0,0.0,0.0
542,5.42,0.15663945275,-2.872069025,-1.3932121,0.0,0.0,0.0
543,5.43,-0.523270977,-3.12277755,-0.6666028215,0.0,0.0,0.0
544,5.44,-1.0987958,-3.3022475,0.014162257,0.0,0.0,0.0
545,5.45,-1.4461373499999999,-3.299317375,0.26102504275000005,0.0,0.0,0.0
546,5.46,-3.055629085714286,-3.1516254,1.6500076000000001,0.0,0.0,0.0
547,5.47,-4.03722,-2.7401526,2.6600626,0.0,0.0,0.0
548,5.48,-4.03722,-2.7401526,3.0083199499999997,0.0,0.0,0.0
549,5.49,-4.03722,-2.7401526,3.058071,0.0,0.0,0.0
550,5.5,-3.9961982999999996,-2.734292325,3.091767375,0.0,0.0,0.0
551,5.51,-3.3543792625,-2.87915025,2.087589925,0.0,0.0,0.0
552,5.52,-2.68521275,-3.05611735,1.3100087999999999,0.0,0.0,0.0
553,5.53,-2.3475163,-3.1381607,0.9469178,0.0,0.0,0.0
554,5.54,-1.691901325,-3.2114138,0.414368105,0.0,0.0,0.0
555,5.55,-1.473363,-3.2358315,0.23685154,0.0,0.0,0.0
556,5.56,0.82202129625,-2.6231308,-0.3347664375,0.0,0.0,0.0
557,5.57,2.3444027875,-2.1483289875000002,-0.4614942,0.0,0.0,0.0
558,5.58,3.5185184,-1.9379967142857144,-0.4564711342857143,0.0,0.0,0.0
559,5.59,4.602245,-1.760515,-0.42633274,0.0,0.0,0.0
560,5.6,4.602245,-1.760515,-0.42633274,0.0,0.0,0.0
561,5.61,6.2196723,-1.4465036,0.151145505,0.0,0.0,0.0
562,5.62,7.9367239000000005,-0.65524857,2.6778874375,0.0,0.0,0.0
563,5.63,7.969932,0.09870847125,5.1275305625,0.0,0.0,0.0
564,5.64,7.969932,0.45563397,6.2074637,0.0,0.0,0.0
565,5.65,7.969932,0.45563397,6.2074637,0.0,0.0,0.0
566,5.66,7.7692185857142855,0.56279274,6.2558107142857144,0.0,0.0,0.0
567,5.67,7.5016007,0.7056711,6.3202734,0.0,0.0,0.0
568,5.68,6.713398,0.04199842,3.928317,0.0,0.0,0.0
569,5.69,5.163119375,-1.1087459475,0.7393064375,0.0,0.0,0.0
570,5.7,4.941651,-1.273138,0.2837335,0.0,0.0,0.0
571,5.71,4.3345051375,-1.6613181250000002,-0.11915828125,0.0,0.0,0.0
572,5.72,3.0219326,-2.506231,-0.70371765,0.0,0.0,0.0
573,5.73,1.257144475,-3.48745575,-0.76329683,0.0,0.0,0.0
574,5.74,0.409484565,-3.86214495,-0.66660279,0.0,0.0,0.0
575,5.75,-0.18166757,-4.094357,-0.56697863,0.0,0.0,0.0
576,5.76,-1.1061210849999998,-4.0508937125,0.26951021249999996,0.0,0.0,0.0
577,5.77,-2.8197541,-3.6650944,2.176104,0.0,0.0,0.0
578,5.78,-3.173932675,-3.36951835,2.176104,0.0,0.0,0.0
579,5.79,-3.4831826,-3.1323005,2.6952239000000002,0.0,0.0,0.0
580,5.8,-3.674373,-2.993608,3.2143438,0.0,0.0,0.0
581,5.81,-3.77674425,-2.935188775,3.6445225,0.0,0.0,0.0
582,5.82,-3.906341225,-2.9458715499999997,4.15381455,0.0,0.0,0.0
583,5.83,-3.679134575,-3.1196032750000002,3.5227393749999996,0.0,0.0,0.0
584,5.84,-3.3212934,-3.24559855,2.1724414,0.0,0.0,0.0
585,5.85,-3.0346298,-3.3256886,1.0094271,0.0,0.0,0.0
586,5.86,-2.7681282285714284,-3.3256886,0.7061594571428571,0.0,0.0,0.0
587,5.87,-0.38164842499999996,-3.15867155,-1.43539365,0.0,0.0,0.0
588,5.88,-0.1191583,-3.1029992,-1.5427094,0.0,0.0,0.0
589,5.89,1.1770544749999998,-2.497196525,-1.466526125,0.0,0.0,0.0
590,5.9,2.3174824750000003,-2.04656815,-1.130905,0.0,0.0,0.0
591,5.91,2.7140867375,-1.948042775,-0.9040647125,0.0,0.0,0.0
592,5.92,4.0467429125,-1.8152715875,0.025272303750000003,0.0,0.0,0.0
593,5.93,5.6949973875,-1.60723305,0.66153611375,0.0,0.0,0.0
594,5.94,7.8839817,-0.99575317,4.2794433,0.0,0.0,0.0
595,5.95,7.8839817,-0.9957531699999999,4.2794433,0.0,0.0,0.0
596,5.96,7.8839817,-0.99575317,4.2794433,0.0,0.0,0.0
597,5.97,7.7484635,-0.256263605,6.08635215,0.0,0.0,0.0
598,5.98,7.292951725,0.7642735,7.6123353,0.0,0.0,0.0
599,5.99,7.1598142625,0.7081738725000001,7.26401695,0.0,0.0,0.0
600,6.0,6.705584,0.31547648,5.4812818,0.0,0.0,0.0
601,6.01,6.705584,0.31547648,5.4812818,0.0,0.0,0.0
602,6.02,6.705584,0.31547648,5.4812818,0.0,0.0,0.0
603,6.03,5.748533225,-0.559897525,3.912567475,0.0,0.0,0.0
604,6.04,4.5475492,-1.3664136,0.4048452,0.0,0.0,0.0
605,6.05,4.5475492,-1.3664136,0.4048452,0.0,0.0,0.0
606,6.06,4.5475492,-1.3664136,0.4048452,0.0,0.0,0.0
607,6.07,2.3077151999999996,-2.2356832,-0.213776825,0.0,0.0,0.0
608,6.08,-1.473363,-3.5010078,-0.9141981,0.0,0.0,0.0
609,6.09,-2.780686,-3.4384983,-0.1266056975,0.0,0.0,0.0
610,6.1,-2.780686,-3.4384983,0.6895554,0.0,0.0,0.0
611,6.11,-2.780686,-3.4384983,0.6895554,0.0,0.0,0.0
612,6.12,-2.907658,-3.0313334249999997,1.9797249,0.0,0.0,0.0
613,6.13,-3.047021825,-2.6893638125,3.207384975,0.0,0.0,0.0
614,6.14,-3.2875969499999997,-2.594134775,3.65044375,0.0,0.0,0.0
615,6.15,-3.409197,-2.5721588,3.7529980000000003,0.0,0.0,0.0
616,6.16,-3.8111122,-2.638575,2.9603999,0.0,0.0,0.0
617,6.17,-3.430074325,-2.7479661875,2.35618435,0.0,0.0,0.0
618,6.18,-2.6052449875,-2.9558216875,0.81005663,0.0,0.0,0.0
619,6.19,-1.6920234374999998,-3.0434201875,-0.03333016249999998,0.0,0.0,0.0
620,6.2,-1.048007,-3.067838,-0.5161899,0.0,0.0,0.0
621,6.21,-1.048007,-3.067838,-0.5161899,0.0,0.0,0.0
622,6.22,-0.04321931999999995,-2.86688045,-0.70347352,0.0,0.0,0.0
623,6.23,1.4012959914285712,-2.522137571428572,-0.9008032657142857,0.0,0.0,0.0
624,6.24,2.328104125,-2.2778037,-0.840090425,0.0,0.0,0.0
625,6.25,4.0125581125,-1.9983433124999999,-0.21982019374999998,0.0,0.0,0.0
626,6.26,5.1174583,-1.7956765,0.44342515,0.0,0.0,0.0
627,6.27,5.1174583,-1.7956765,0.44342515,0.0,0.0,0.0
628,6.28,6.904832525000001,-0.90955867075,2.031185025,0.0,0.0,0.0
629,6.29,7.7281966,0.7056711,7.529925,0.0,0.0,0.0
630,6.3,7.7242899000000005,0.7314928,7.575342,0.0,0.0,0.0
631,6.31,7.696943,0.9122447,7.893261,0.0,0.0,0.0
632,6.32,7.62759675,0.830323375,7.65616525,0.0,0.0,0.0
633,6.33,6.968319171428571,0.0491842,5.292707714285714,0.0,0.0,0.0
634,6.34,6.5632296,-0.41070544999999997,4.109984799999999,0.0,0.0,0.0
635,6.35,5.7456030625,-1.220273775,2.282992475,0.0,0.0,0.0
636,6.36,5.452957,-1.4836185,1.7312138,0.0,0.0,0.0
637,6.37,5.452957,-1.4836185,1.7312138,0.0,0.0,0.0
638,6.38,3.2851553,-2.777572575,0.5159456725,0.0,0.0,0.0
639,6.39,1.8685022375,-3.4727441875,0.11293178375,0.0,0.0,0.0
640,6.4,0.8387473995,-3.7890141,-0.10157756,0.0,0.0,0.0
641,6.41,-0.033696402,-3.9029229,-0.26273426,0.0,0.0,0.0
642,6.42,-0.033696402,-3.9029229,-0.26273426,0.0,0.0,0.0
643,6.43,-1.0978190862857142,-3.9654319,-0.1571801057142857,0.0,0.0,0.0
644,6.44,-2.373616,-3.7837642999999996,0.7386620666666667,0.0,0.0,0.0
645,6.45,-3.2216692,-2.958935,2.2268927,0.0,0.0,0.0
646,6.46,-3.3437577,-2.8490553125,2.822073825,0.0,0.0,0.0
647,6.47,-3.4170108,-2.7831275,3.1791825,0.0,0.0,0.0
648,6.48,-3.59739655,-2.724525125,3.5741385625,0.0,0.0,0.0
649,6.49,-3.864037375,-2.6991307625000003,3.940525825,0.0,0.0,0.0
650,6.5,-3.91323895,-2.763105125,3.2507873000000003,0.0,0.0,0.0
651,6.51,-3.607957,-2.888612,2.0320396,0.0,0.0,0.0
652,6.52,-3.607957,-2.888612,2.0320396,0.0,0.0,0.0
653,6.53,-2.7347196875,-3.115391375,0.9002799875,0.0,0.0,0.0
654,6.54,-1.7622244,-3.3273979000000002,-0.04614941500000001,0.0,0.0,0.0
655,6.55,-1.3136715,-3.4033368,-0.31352305,0.0,0.0,0.0
656,6.56,-0.573083055,-3.3656115,-0.4977545125,0.0,0.0,0.0
657,6.57,-0.32622024,-3.3530364,-0.559165,0.0,0.0,0.0
658,6.58,1.051774277142857,-2.9432378999999997,-0.46393601714285715,0.0,0.0,0.0
659,6.59,4.2107688125,-2.0964414625,-0.248083675,0.0,0.0,0.0
660,6.6,5.355530725,-1.790121525,-0.00860723000000001,0.0,0.0,0.0
661,6.61,6.4393095,-1.3647043625,1.48740324,0.0,0.0,0.0
662,6.62,7.969932,-0.56258345,5.567232,0.0,0.0,0.0
663,6.63,7.969932,-0.30509896625,5.567232,0.0,0.0,0.0
664,6.64,7.969932,0.6360806474999999,6.9605052,0.0,0.0,0.0
665,6.65,7.969932,0.80676025,7.4249296,0.0,0.0,0.0
666,6.66,7.2950277,1.0841452,7.893261,0.0,0.0,0.0
667,6.67,7.2950277,1.0841452,7.893261,0.0,0.0,0.0
668,6.68,7.1907989285714295,1.0144501514285715,7.677478357142857,0.0,0.0,0.0
669,6.69,4.7233567,-0.5196083,0.9713355050000001,0.0,0.0,0.0
670,6.7,3.682431025,-1.02590905,-0.34575440749999997,0.0,0.0,0.0
671,6.71,3.084442,-1.3273454,-0.7623201,0.0,0.0,0.0
672,6.72,2.4631339,-1.6790209375,-0.72129835,0.0,0.0,0.0
673,6.73,2.2172478,-1.8307157749999998,-0.6773465249999999,0.0,0.0,0.0
674,6.74,1.6595478875,-2.1809874625,-0.55086295625,0.0,0.0,0.0
675,6.75,0.7392453849999999,-2.6281364625,-0.46100588124999997,0.0,0.0,0.0
676,6.76,-0.2720130142857143,-2.9169366285714284,-0.3076628414285714,0.0,0.0,0.0
677,6.77,-2.0081105,-3.153788,0.36187008,0.0,0.0,0.0
678,6.78,-2.0081105,-3.153788,0.36187008,0.0,0.0,0.0
679,6.79,-2.9488626874999997,-2.7153075,1.7925022725000002,0.0,0.0,0.0
680,6.8,-3.1474395,-2.5218585,1.9968783,0.0,0.0,0.0
681,6.81,-3.3798959375,-2.4398150875,2.5976752625,0.0,0.0,0.0
682,6.82,-3.7134416,-2.3968399,3.1557415,0.0,0.0,0.0
683,6.83,-3.7134416,-2.3968399,3.1557415,0.0,0.0,0.0
684,6.84,-3.8037256375,-2.4993942125,3.059047375,0.0,0.0,0.0
685,6.85,-2.86578135,-2.6709284,1.9431593249999999,0.0,0.0,0.0
686,6.86,-1.89114965,-2.718664925,0.939348305,0.0,0.0,0.0
687,6.87,-1.6687046,-2.7167115,0.72471684,0.0,0.0,0.0
688,6.88,-1.6687046,-2.7167115,0.72471684,0.0,0.0,0.0
689,6.89,-0.66587028,-2.53919495,-0.12599528,0.0,0.0,0.0
690,6.9,1.3374786875,-2.0383272125,-0.9488712125000001,0.0,0.0,0.0
691,6.91,3.8374834,-1.230163,-0.7287457875,0.0,0.0,0.0
692,6.92,3.8374834,-1.230163,-0.4302396,0.0,0.0,0.0
693,6.93,3.8374834,-1.230163,-0.4302396,0.0,0.0,0.0
694,6.94,5.693532525,-0.7204437874999999,0.935319275,0.0,0.0,0.0
695,6.95,7.3299445,-0.25833909,2.6561555500000003,0.0,0.0,0.0
696,6.96,7.81768775,0.089979165,4.714688575,0.0,0.0,0.0
697,6.97,7.595365,0.45172715,6.468733,0.0,0.0,0.0
698,6.98,7.595365,0.45172715,6.468733,0.0,0.0,0.0
699,6.99,6.7973341125,0.5952421,5.9493078875,0.0,0.0,0.0
700,7.0,5.647077975,0.49580109,4.9079547,0.0,0.0,0.0
701,7.01,5.070576,0.10060086,4.9079547,0.0,0.0,0.0
702,7.02,4.3409758,-0.41070548,3.030723,0.0,0.0,0.0
703,7.03,4.3409758,-0.41070548,3.030723,0.0,0.0,0.0
704,7.04,3.819762985714285,-0.6754629285714285,2.1008975585714285,0.0,0.0,0.0
705,7.05,1.5108441375000001,-1.8011093624999999,-0.39953436125,0.0,0.0,0.0
706,7.06,0.6377899,-2.1389892,-0.5240035,0.0,0.0,0.0
707,7.07,0.6377899,-2.1389892,-0.5240035,0.0,0.0,0.0
708,7.08,0.6377899,-2.1389892,-0.5240035,0.0,0.0,0.0
709,7.09,0.02612693125,-2.3292639375,-0.5533047249999999,0.0,0.0,0.0
710,7.1,-1.86416809375,-2.7831278125,-0.43164361125,0.0,0.0,0.0
711,7.11,-2.495853575,-2.7611517500000002,0.19521938624999996,0.0,0.0,0.0
712,7.12,-3.1222283125,-2.66055085,1.01760695,0.0,0.0,0.0
713,7.13,-3.3154333,-2.615134,1.2941372,0.0,0.0,0.0
714,7.14,-3.3154333,-2.615134,1.2941372,0.0,0.0,0.0
715,7.15,-3.74231535,-2.4993331750000003,2.4653925125000002,0.0,0.0,0.0
716,7.16,-3.9512699,-2.4476287,3.0033753,0.0,0.0,0.0
717,7.17,-3.8628165875000002,-2.4476287,2.901248275,0.0,0.0,0.0
718,7.18,-3.8501804,-2.4476287,2.8866587,0.0,0.0,0.0
719,7.19,-3.513582625,-2.4817524250000003,2.6544465125,0.0,0.0,0.0
720,7.2,-1.04812906875,-2.724036975,0.6089159975,0.0,0.0,0.0
721,7.21,-0.28324515,-2.7479663,0.54890954,0.0,0.0,0.0
722,7.22,0.59481484,-2.751873,0.22903788,0.0,0.0,0.0
723,7.23,0.59481484,-2.751873,0.22903788,0.0,0.0,0.0
724,7.24,0.59481484,-2.751873,0.22903788,0.0,0.0,0.0
725,7.25,3.8829613975,-1.751053215,0.14278240274999998,0.0,0.0,0.0
726,7.26,6.9439015,-0.42633274,0.2602925,0.0,0.0,0.0
727,7.27,7.969932,0.049812075,1.5168265,0.0,0.0,0.0
728,7.28,7.969932,-0.3638235,3.8775284,0.0,0.0,0.0
729,7.29,7.969932,-0.3638235,3.8775284,0.0,0.0,0.0
730,7.3,6.78720075,-0.05402413125000001,6.0580277125,0.0,0.0,0.0
731,7.31,5.6940817500000005,0.3018025725,7.761527575,0.0,0.0,0.0
732,7.32,5.6131372,0.22952624,6.4765463,0.0,0.0,0.0
733,7.33,5.5838360499999995,0.021853829749999998,5.206338575,0.0,0.0,0.0
734,7.34,5.574069,-0.047370307,4.782936,0.0,0.0,0.0
735,7.35,5.41584225,-0.35796322675000003,3.5713305,0.0,0.0,0.0
736,7.36,4.729356557142857,-0.7423673142857143,2.5736936,0.0,0.0,0.0
737,7.37,3.3477867375,-1.2948087375000001,0.8284919500000001,0.0,0.0,0.0
738,7.38,2.7419839875,-1.5259221375,0.1628049068875,0.0,0.0,0.0
739,7.39,2.2688913,-1.7331672,0.0068369517,0.0,0.0,0.0
740,7.4,1.93620034,-1.862947175,-0.012697194975,0.0,0.0,0.0
741,7.41,0.5138701725,-2.3939097250000003,-0.139669144375,0.0,0.0,0.0
742,7.42,-1.4651831625,-2.701145325,-0.33159217,0.0,0.0,0.0
743,7.43,-2.5780191,-2.6893637,-0.07520647,0.0,0.0,0.0
744,7.44,-2.5780191,-2.6893637,-0.07520647,0.0,0.0,0.0
745,7.45,-2.7516287750000004,-2.625023125,0.04871327250000001,0.0,0.0,0.0
746,7.46,-3.4964031714285717,-2.1808480857142856,0.8784087514285714,0.0,0.0,0.0
747,7.47,-3.56595865,-1.9313167500000001,1.2503074650000001,0.0,0.0,0.0
748,7.48,-3.5820742625,-1.8118532125,1.5787863625,0.0,0.0,0.0
749,7.49,-3.5767024,-1.8620926,1.5988699,0.0,0.0,0.0
750,7.5,-3.4010781249999997,-1.6806081625,1.4129903125,0.0,0.0,0.0
751,7.51,-3.0488529375,-1.387901175,0.9661467439625,0.0,0.0,0.0
752,7.52,-2.6322265,-1.4562707,0.0068369517,0.0,0.0,0.0
753,7.53,-2.3338424,-1.495339,-0.24100255915000002,0.0,0.0,0.0
754,7.54,-2.0354583,-1.5344073,-0.48884207,0.0,0.0,0.0
755,7.55,-1.7306034725000001,-1.564196875,-0.5391424975,0.0,0.0,0.0
756,7.56,-0.11061211500000001,-1.656495675,-0.6807650387499999,0.0,0.0,0.0
757,7.57,0.4842375542857143,-1.6917269285714285,-0.5821176071428571,0.0,0.0,0.0
758,7.58,1.086587,-1.7448877,-0.39165965,0.0,0.0,0.0
759,7.59,1.086587,-1.7448877,-0.39165965,0.0,0.0,0.0
760,7.6,1.086587,-1.7448877,-0.39165965,0.0,0.0,0.0
761,7.61,5.282338687499999,-1.5885535125,2.050902468125,0.0,0.0,0.0
762,7.62,6.50658025,-1.150072925,2.9235295,0.0,0.0,0.0
763,7.63,7.48499675,-0.597439665,3.8478609125,0.0,0.0,0.0
764,7.64,7.560203,0.58065253,6.2348113,0.0,0.0,0.0
765,7.65,7.662635249999999,0.48310388249999997,5.8982136249999995,0.0,0.0,0.0
766,7.66,5.7225285,0.47907494999999994,4.755588,0.0,0.0,0.0
767,7.67,6.8710750625,0.5425609375,5.938624875,0.0,0.0,0.0
768,7.68,5.96023425,0.2879455425,4.3144216875,0.0,0.0,0.0
769,7.69,5.000253,0.11232135,2.9140065,0.0,0.0,0.0
770,7.7,5.000253,0.11232135,2.9140065,0.0,0.0,0.0
771,7.71,3.9904599,-0.303389715,1.59984675,0.0,0.0,0.0
772,7.72,2.486452775,-0.94020303375,-0.54915371875,0.0,0.0,0.0
773,7.73,1.841520675,-1.3049421375,-0.817504075,0.0,0.0,0.0
774,7.74,0.44244844,-1.9050677,-0.5982333,0.0,0.0,0.0
775,7.75,0.44244844,-1.9050677,-0.5982333,0.0,0.0,0.0
776,7.76,-0.40435683000000006,-2.04949835,-0.516311945,0.0,0.0,0.0
777,7.77,-2.1448493,-2.2718213,-0.35649818,0.0,0.0,0.0
778,7.78,-2.1448493,-2.2718213,-0.11506833375,0.0,0.0,0.0
779,7.79,-2.1448493,-2.2718213,0.029789574,0.0,0.0,0.0
780,7.8,-2.1448493,-2.2718213,0.029789574,0.0,0.0,0.0
781,7.81,-2.617941975,-2.241543375,0.5800421055,0.0,0.0,0.0
782,7.82,-4.03722,-2.1507096,2.2307997,0.0,0.0,0.0
783,7.83,-3.9733067124999994,-2.16731365,2.3128429125000003,0.0,0.0,0.0
784,7.84,-3.5259137,-2.283542,2.1370356,0.0,0.0,0.0
785,7.85,-3.5259137,-2.283542,2.1370356,0.0,0.0,0.0
786,7.86,-2.8597295285714286,-2.391747171428572,1.5997768957142857,0.0,0.0,0.0
787,7.87,-1.4772699,-2.6034136,0.56453687,0.0,0.0,0.0
788,7.88,-0.67539315,-2.6112271500000004,-0.2449093575,0.0,0.0,0.0
789,7.89,0.520035675,-2.6029251125,-0.5625834187500001,0.0,0.0,0.0
790,7.9,1.1759558,-2.5760658,-0.73106545,0.0,0.0,0.0
791,7.91,2.1110310875,-2.4458584875,-0.488048455,0.0,0.0,0.0
792,7.92,3.6694899,-2.2288463,-0.12990208,0.0,0.0,0.0
793,7.93,3.6694899,-2.2288463,-0.12990208,0.0,0.0,0.0
794,7.94,3.6694899,-2.2288463,-0.12990208,0.0,0.0,0.0
795,7.95,3.6694899,-2.2288463,-0.12990208,0.0,0.0,0.0
796,7.96,4.130983925,-2.122507275,0.48762119,0.0,0.0,0.0
797,7.97,7.04950725,-0.8768390625,4.581429125,0.0,0.0,0.0
798,7.98,7.969932,-0.11270117777777777,6.283429911111111,0.0,0.0,0.0
799,7.99,7.733010714285714,-0.20210866857142856,5.9083820000000005,0.0,0.0,0.0
800,8.0,6.311483,0.5103296,5.801642,0.0,0.0,0.0
801,8.01,6.311483,0.5103296,5.801642,0.0,0.0,0.0
802,8.02,5.435803625,0.007935743750000009,3.525120225,0.0,0.0,0.0
803,8.03,4.34268485,-0.62863328125,0.72654816125,0.0,0.0,0.0
804,8.04,3.3964996,-1.1871878,0.17043543,0.0,0.0,0.0
805,8.05,3.3964996,-1.1871878,-0.26670217125,0.0,0.0,0.0
806,8.06,3.3964996,-1.1871878,-0.3291504,0.0,0.0,0.0
807,8.07,1.4142723,-2.3812125,-0.40728697,0.0,0.0,0.0
808,8.08,0.49824285,-2.527352475,-0.039068296225,0.0,0.0,0.0
809,8.09,-0.144796865,-2.6073204,-0.00879036565,0.0,0.0,0.0
810,8.1,-0.48249343,-2.638575,-0.024417683,0.0,0.0,0.0
811,8.11,-0.48249343,-2.638575,-0.024417683,0.0,0.0,0.0
812,8.12,-1.64306601625,-2.600971875,0.043524524375,0.0,0.0,0.0
813,8.13,-1.8781472625,-2.5717316875000003,0.35790220624999997,0.0,0.0,0.0
814,8.14,-2.4006855999999996,-2.3851193625000002,0.75639879,0.0,0.0,0.0
815,8.15,-2.663481,-2.2483804,1.0602158,0.0,0.0,0.0
816,8.16,-2.663481,-2.2483804,1.0602158,0.0,0.0,0.0
817,8.17,-3.33960675,-2.1549826,1.61620655,0.0,0.0,0.0
818,8.18,-3.5283554125,-2.189594625,1.8249777875,0.0,0.0,0.0
819,8.19,-3.4673111,-2.299169,1.8152717624999999,0.0,0.0,0.0
820,8.2,-3.4673111,-2.299169,1.4738514,0.0,0.0,0.0
821,8.21,-3.4673111,-2.299169,1.4738513999999998,0.0,0.0,0.0
822,8.22,-2.5382182875,-2.5430406875,0.7513931725,0.0,0.0,0.0
823,8.23,-1.4656104975,-2.7596866625,0.08662173125,0.0,0.0,0.0
824,8.24,-0.37444520643749996,-2.890077125,-0.10792616375,0.0,0.0,0.0
825,8.25,0.0131855495,-2.912053,-0.18850452,0.0,0.0,0.0
826,8.26,0.0131855495,-2.912053,-0.18850452,0.0,0.0,0.0
827,8.27,0.369317487125,-2.948069075,-0.119280385,0.0,0.0,0.0
828,8.28,2.41088,-2.9244449375,0.3885464075,0.0,0.0,0.0
829,8.29,4.6444875625,-2.4050197625000003,0.7022526025,0.0,0.0,0.0
830,8.3,5.663926,-1.9050677,0.81457394,0.0,0.0,0.0
831,8.31,5.663925999999999,-1.9050677,0.81457394,0.0,0.0,0.0
832,8.32,6.2404275,-1.46603774,1.27985288,0.0,0.0,0.0
833,8.33,7.969932,0.07923540250000001,3.8376664624999997,0.0,0.0,0.0
834,8.34,7.969932,0.45954084,5.7742944,0.0,0.0,0.0
835,8.35,7.6930356,1.1388408,6.32418,0.0,0.0,0.0
836,8.36,7.6930356,1.1388408,6.32418,0.0,0.0,0.0
837,8.37,7.6930356,1.1388408,6.32418,0.0,0.0,0.0
838,8.38,6.4303974749999995,0.63791203875,3.90066395,0.0,0.0,0.0
839,8.39,4.682335,-0.418274925,1.9731929999999998,0.0,0.0,0.0
840,8.4,4.28628,-0.64462686,1.3605534,0.0,0.0,0.0
841,8.41,4.28628,-0.64462686,1.3605534,0.0,0.0,0.0
842,8.42,4.096554625,-0.7587795275,1.2093468862499999,0.0,0.0,0.0
843,8.43,2.6386970124999998,-1.6227382000000001,0.0893687215,0.0,0.0,0.0
844,8.44,1.5692635125,-2.144177875,0.20462018875,0.0,0.0,0.0
845,8.45,1.3009742,-2.256194,0.24857202,0.0,0.0,0.0
846,8.46,1.3009742,-2.256194,0.24857202,0.0,0.0,0.0
847,8.47,1.232177375,-2.26937955,0.25443226375,0.0,0.0,0.0
848,8.48,0.2766523625,-2.4847435,-0.038213672500000004,0.0,0.0,0.0
849,8.49,-1.6223720312500003,-2.616660125,-0.09815908875,0.0,0.0,0.0
850,8.5,-2.086247,-2.615134,-0.04395183,0.0,0.0,0.0
851,8.51,-2.086247,-2.615134,0.3474287442857143,0.0,0.0,0.0
852,8.52,-2.086247,-2.615134,0.41265884,0.0,0.0,0.0
853,8.53,-3.5508196499999998,-2.4182664875,1.76704683,0.0,0.0,0.0
854,8.54,-3.9961981499999997,-2.2913556,2.2493572,0.0,0.0,0.0
855,8.55,-4.1739593,-2.2913556,2.5159984,0.0,0.0,0.0
856,8.56,-3.8154464249999998,-2.2298229750000003,2.485231825,0.0,0.0,0.0
857,8.57,-3.7642303,-2.2210326,2.4808366,0.0,0.0,0.0
858,8.58,-2.9621703624999998,-2.345074325,1.39186905,0.0,0.0,0.0
859,8.59,-1.6827447625,-2.5480464375,0.431887774,0.0,0.0,0.0
860,8.6,-1.2511622,-2.591693,0.041510064,0.0,0.0,0.0
861,8.61,-0.5293754,-2.5877862,-0.44977373,0.0,0.0,0.0
862,8.62,-0.5293754,-2.5877862,-0.44977373,0.0,0.0,0.0
863,8.63,-0.13759365125000003,-2.5400496125,-0.51472478,0.0,0.0,0.0
864,8.64,2.3975725,-2.22298595,-0.4734589,0.0,0.0,0.0
865,8.65,2.9086347,-2.1780574,-0.30961624,0.0,0.0,0.0
866,8.66,4.6085327375,-1.81826285,0.5500693375000001,0.0,0.0,0.0
867,8.67,5.7611084,-1.4523638,1.2125821,0.0,0.0,0.0
868,8.68,6.865520200000001,-0.786981935,3.1220450625,0.0,0.0,0.0
869,8.69,7.969932,-0.027958252500000003,4.96326065,0.0,0.0,0.0
870,8.7,7.969932,0.2529672,5.9847746,0.0,0.0,0.0
871,8.71,7.8504075,0.30857848,6.7871395875,0.0,0.0,0.0
872,8.72,7.013736,0.69785744,6.8315797,0.0,0.0,0.0
873,8.73,7.013736,0.69785744,6.7735266124999995,0.0,0.0,0.0
874,8.74,6.1675410374999995,0.22653507875,5.342406012500001,0.0,0.0,0.0
875,8.75,5.172154,-0.37554398,3.9634786,0.0,0.0,0.0
876,8.76,4.5473052625,-0.7111650525,2.75584104,0.0,0.0,0.0
877,8.77,3.5605865,-1.1871878,0.31108132,0.0,0.0,0.0
878,8.78,3.3996129374999997,-1.24524085,0.26963229825,0.0,0.0,0.0
879,8.79,2.05425975,-1.7666194499999999,-0.012697195299999998,0.0,0.0,0.0
880,8.8,1.8357215,-1.8816267,-0.0048835366,0.0,0.0,0.0
881,8.81,1.2619669625,-2.0968687125,0.093336602925,0.0,0.0,0.0
882,8.82,0.7505996,-2.2444735,0.05713738,0.0,0.0,0.0
883,8.83,0.588222,-2.308386775,-0.0037847425000000004,0.0,0.0,0.0
884,8.84,-1.0051016428571429,-2.8344745428571434,-0.4285652314285714,0.0,0.0,0.0
885,8.85,-1.6140089,-2.939401,-0.42633274,0.0,0.0,0.0
886,8.86,-2.578873625,-2.99177675,-0.08595024,0.0,0.0,0.0
887,8.87,-3.514193,-2.993608,0.3501496,0.0,0.0,0.0
888,8.88,-3.514193,-2.993608,0.3501496,0.0,0.0,0.0
889,8.89,-4.731659,-2.802662,2.2400172,0.0,0.0,0.0
890,8.9,-4.731659,-2.802662,2.7694538,0.0,0.0,0.0
891,8.91,-4.7765875,-2.78996475,2.8220739,0.0,0.0,0.0
892,8.92,-4.1856794,-3.0404902,2.6913173,0.0,0.0,0.0
893,8.93,-4.1856794,-3.0404902,2.6913173,0.0,0.0,0.0
894,8.94,-2.7924065000000002,-3.306765025,1.5952073500000001,0.0,0.0,0.0
895,8.95,-2.3279822,-3.3955233,1.3332056,0.0,0.0,0.0
896,8.96,-1.01827855,-3.4931939875,0.484691048125,0.0,0.0,0.0
897,8.97,0.40850789,-3.5371455999999997,-0.20608524575,0.0,0.0,0.0
898,8.98,0.62216264,-3.532262,-0.2666411,0.0,0.0,0.0
899,8.99,1.88358026,-3.55570325,0.525590625,0.0,0.0,0.0
900,9.0,2.619651325,-3.4664566875,1.14268645,0.0,0.0,0.0
901,9.01,4.980535874999999,-2.692415975,1.4928361625,0.0,0.0,0.0
902,9.02,6.0424,-2.0300863,1.8171641,0.0,0.0,0.0
903,9.03,6.0424,-2.0300863,1.8171641,0.0,0.0,0.0
904,9.04,6.884749,-0.8081032699999999,3.4699361375,0.0,0.0,0.0
905,9.05,7.497694,0.37017208,4.9626503,0.0,0.0,0.0
906,9.06,7.720200475,1.053806225,5.717095725,0.0,0.0,0.0
907,9.07,7.887889,1.3922964,6.1058865,0.0,0.0,0.0
908,9.08,7.887889,1.3922964,6.1058865,0.0,0.0,0.0
909,9.09,7.0153838625,0.9327555675,5.3937445625,0.0,0.0,0.0
910,9.1,6.1361637,0.42437938,4.259560514285714,0.0,0.0,0.0
911,9.11,5.4688286625,-0.01751966375000001,2.4415241874999998,0.0,0.0,0.0
912,9.12,4.3566036,-0.75401807,1.5637085,0.0,0.0,0.0
913,9.13,4.3566036,-0.75401807,1.5637085,0.0,0.0,0.0
914,9.14,3.8443815,-1.08768573125,1.03390579625,0.0,0.0,0.0
915,9.15,2.990678,-1.6437985,0.15090129,0.0,0.0,0.0
916,9.16,2.1311755,-2.0534052000000003,0.39581069,0.0,0.0,0.0
917,9.17,1.7263303,-2.2405667,0.51765496,0.0,0.0,0.0
918,9.18,1.7263303,-2.2405667,0.51765496,0.0,0.0,0.0
919,9.19,1.6204796375000001,-2.2669378,0.5073995275,0.0,0.0,0.0
920,9.2,0.46979624,-2.5956,0.19778325,0.0,0.0,0.0
921,9.21,-0.08039523624999999,-2.6766665875,0.01782491075,0.0,0.0,0.0
922,9.22,-0.34966126,-2.704991,-0.05957915,0.0,0.0,0.0
923,9.23,-0.34966126,-2.704991,0.022036958000000002,0.0,0.0,0.0
924,9.24,-0.34966126,-2.704991,0.033696402,0.0,0.0,0.0
925,9.25,-1.7802933825,-2.5955998124999997,0.7443120752500001,0.0,0.0,0.0
926,9.26,-2.6031693000000002,-2.6444351499999996,1.7216909,0.0,0.0,0.0
927,9.27,-3.2216692,-2.7088978,2.075869425,0.0,0.0,0.0
928,9.28,-3.2216692,-2.7088978,2.4417684,0.0,0.0,0.0
929,9.29,-3.2216692,-2.7088978,2.4417684,0.0,0.0,0.0
930,9.3,-4.1707233375,-2.8627293624999997,3.0152177625000003,0.0,0.0,0.0
931,9.31,-3.865868675,-2.9929366374999997,2.9200498125,0.0,0.0,0.0
932,9.32,-3.1318123,-3.1733222,2.605367,0.0,0.0,0.0
933,9.33,-3.1318123,-3.1733222,2.605367,0.0,0.0,0.0
934,9.34,-3.1318123,-3.1733222,2.605367,0.0,0.0,0.0
935,9.35,-0.28715196,-3.5752373,0.21341056,0.0,0.0,0.0
936,9.36,0.8065160925,-3.4804966,-0.20132381,0.0,0.0,0.0
937,9.37,1.4611542,-3.4150572,-0.35552148625,0.0,0.0,0.0
938,9.38,1.4611542,-3.4150572,-0.12990208,0.0,0.0,0.0
939,9.39,1.4611542,-3.4150572,-0.12990208,0.0,0.0,0.0
940,9.4,4.1242690500000005,-2.557630275,0.472970555,0.0,0.0,0.0
941,9.41,5.7802764,-1.7006917,1.1939636999999999,0.0,0.0,0.0
942,9.42,6.6977706,-0.9293371,2.0802035375,0.0,0.0,0.0
943,9.43,6.6977706,-0.9293371,2.936959,0.0,0.0,0.0
944,9.44,6.6977706,-0.9293371,2.936959,0.0,0.0,0.0
945,9.45,7.65189165,0.6012854750000001,4.672690299999999,0.0,0.0,0.0
946,9.46,7.969932,1.390953425,6.2242511,0.0,0.0,0.0
947,9.47,7.969932,1.4626193,6.761257,0.0,0.0,0.0
948,9.48,7.969932,1.4626193,6.3163667,0.0,0.0,0.0
949,9.49,7.969932,1.4626193,6.3163667,0.0,0.0,0.0
950,9.5,5.84815725,0.14259926000000003,4.118408675,0.0,0.0,0.0
951,9.51,4.7935575,-0.572472615,2.184894355,0.0,0.0,0.0
952,9.52,3.751533,-1.3976682,0.11573982,0.0,0.0,0.0
953,9.53,3.751533,-1.3976682,0.11573982,0.0,0.0,0.0
954,9.54,3.751533,-1.3976682,0.11573982,0.0,0.0,0.0
955,9.55,3.1105688249999996,-1.8177745125,0.17727238875,0.0,0.0,0.0
956,9.56,1.5598626875000001,-2.6645187624999997,0.27347807125,0.0,0.0,0.0
957,9.57,0.895152325,-2.88250765,0.22903788,0.0,0.0,0.0
958,9.58,0.5883441075,-3.0326764374999997,0.19680654,0.0,0.0,0.0
959,9.59,0.20071337,-3.110813,0.14308764,0.0,0.0,0.0
960,9.6,-0.45068940749999997,-3.233389875,0.1157398275,0.0,0.0,0.0
961,9.61,-1.5195473714285712,-3.250342614285714,0.2797569014285714,0.0,0.0,0.0
962,9.62,-2.2420318,-3.1264403,0.53718907,0.0,0.0,0.0
963,9.63,-2.2420318,-3.1264403,1.1188183,0.0,0.0,0.0
964,9.64,-2.2420318,-3.1264403,1.1188183,0.0,0.0,0.0
965,9.65,-2.3503241999999998,-3.08743305,1.1978095125000001,0.0,0.0,0.0
966,9.66,-3.3827648249999998,-2.7040753125,2.3663177749999997,0.0,0.0,0.0
967,9.67,-3.6431186,-2.4984174,2.6756897,0.0,0.0,0.0
968,9.68,-3.6431186,-2.4984174,2.4573958,0.0,0.0,0.0
969,9.69,-3.6431186,-2.4984174,2.4573958,0.0,0.0,0.0
970,9.7,-3.5489884000000003,-2.5086117875,2.3905523875,0.0,0.0,0.0
971,9.71,-1.62029643,-2.6659227125,0.47663321000000003,0.0,0.0,0.0
972,9.72,-0.76329684,-2.6581092,-0.7466928,0.0,0.0,0.0
973,9.73,-0.2290989525,-2.6055501375,-0.69541566,0.0,0.0,0.0
974,9.74,0.66123086,-2.5179517,-0.60995376,0.0,0.0,0.0
975,9.75,0.66123086,-2.5179517,-0.60995376,0.0,0.0,0.0
976,9.76,2.516608715,-2.246548975,-0.12990207250000002,0.0,0.0,0.0
977,9.77,4.165169,-1.8699062,0.38140425,0.0,0.0,0.0
978,9.78,4.520751499999999,-1.73042018375,0.52821558125,0.0,0.0,0.0
979,9.79,7.009829000000001,-0.75401807,1.5558949,0.0,0.0,0.0
980,9.8,7.009829,-0.75401807,1.5558949,0.0,0.0,0.0
981,9.81,7.4762676875,0.1455293975,5.3138377750000005,0.0,0.0,0.0
982,9.82,7.450812,0.75542209375,7.1523061000000006,0.0,0.0,0.0
983,9.83,7.450812,1.0216359,7.893261,0.0,0.0,0.0
984,9.84,7.450812,1.0216359,7.893261,0.0,0.0,0.0
985,9.85,7.450812,1.0216359,7.893261,0.0,0.0,0.0
986,9.86,6.273391225,0.16945873624999996,5.4630296125,0.0,0.0,0.0
987,9.87,4.7875751,-0.8916117125,2.867002325,0.0,0.0,0.0
988,9.88,3.9563975000000005,-1.278876225,1.4610322,0.0,0.0,0.0
989,9.89,3.3769658,-1.5539415,0.6856486,0.0,0.0,0.0
990,9.9,3.3769658,-1.5539415,0.6856486,0.0,0.0,0.0
991,9.91,2.175982,-2.1812317500000002,0.18410934725,0.0,0.0,0.0
992,9.92,1.6013118,-2.4984174,0.061044212,0.0,0.0,0.0
993,9.93,1.1740633425,-2.719275375,-0.02521126,0.0,0.0,0.0
994,9.94,0.46198258,-3.087372,-0.16897038,0.0,0.0,0.0
995,9.95,0.46198258,-3.087372,-0.16897038,0.0,0.0,0.0
996,9.96,-0.037969501250000016,-3.25829575,-0.1274603175,0.0,0.0,0.0
997,9.97,-0.76225904375,-3.4104789625,-0.10255428,0.0,0.0,0.0
998,9.98,-1.4694562,-3.4931939,-0.10255428,0.0,0.0,0.0
999,9.99,-2.7870345249999997,-3.2914428375,1.0362865575,0.0,0.0,0.0
