id,timestamp,acc_x,acc_y,acc_z,gyro_x,gyro_y,gyro_z
0,0.0,-0.50984126,0.38921788,1.0001483,0.0,0.0,0.0
1,0.01,-0.46686614,0.47907495,0.73448396,0.0,0.0,0.0
2,0.02,-0.46686614,0.47907495,0.73448396,0.0,0.0,0.0
3,0.03,-0.227084475,0.41314721875,0.6666027825,0.0,0.0,0.0
4,0.04,-0.2080386675,0.38775282625,0.6519521625,0.0,0.0,0.0
5,0.05,-0.33647567500000003,0.37523876874999995,0.69053211,0.0,0.0,0.0
6,0.06,-0.4121705,0.3584516,0.73448396,0.0,0.0,0.0
7,0.07,-0.4121705,0.3584516,0.73448396,0.0,0.0,0.0
8,0.08,-0.39312471625,0.35014958,0.8096904325,0.0,0.0,0.0
9,0.09,-0.32622024,0.33501062,0.8595025,0.0,0.0,0.0
10,0.1,-0.20120172,0.29594234,0.91029125,0.0,0.0,0.0
11,0.11,-0.11573982,0.23343307,0.96498686,0.0,0.0,0.0
12,0.12,-0.11573982000000001,0.23343307,0.96498686,0.0,0.0,0.0
13,0.13,-0.14467477875,0.12355348375,1.0788953525,0.0,0.0,0.0
14,0.14,-0.16604026,0.07325305,1.1442126,0.0,0.0,0.0
15,0.15,-0.1611567225,0.0854618975,1.1100279124999999,0.0,0.0,0.0
16,0.16,-0.135029795,0.110367933,1.0213917499999998,0.0,0.0,0.0
17,0.17,-0.11183299,0.12794866,0.9532664,0.0,0.0,0.0
18,0.18,-0.08895013214285714,0.14804092714285713,0.9554988714285714,0.0,0.0,0.0
19,0.19,0.048347015,0.26859453,0.9688937000000001,0.0,0.0,0.0
20,0.2,0.08183412928571429,0.34896357857142857,1.4067377,0.0,0.0,0.0
21,0.21,0.172877199375,0.328173675,1.4352715,0.0,0.0,0.0
22,0.22,0.18508604,0.32329014,1.4289229,0.0,0.0,0.0
23,0.23,0.06018958725000001,0.07252051500000001,1.2855911,0.0,0.0,0.0
24,0.24,-0.20315514,-0.236851555,1.04873955,0.0,0.0,0.0
25,0.25,-0.195341475,-0.2055969,0.89271055,0.0,0.0,0.0
26,0.26,-0.14259927,-0.19192299,0.7852728,0.0,0.0,0.0
27,0.27,-0.14259927,-0.19192299,0.7852728,0.0,0.0,0.0
28,0.28,-0.062204047375,-0.09730446749999999,0.724716925,0.0,0.0,0.0
29,0.29,0.056160673,0.12794866,0.6211858999999998,0.0,0.0,0.0
30,0.3,0.18117921,0.21389891,0.6211859,0.0,0.0,0.0
31,0.31,0.3291504,0.24906038,0.56697863,0.0,0.0,0.0
32,0.32,0.3291504,0.24906038,0.56697863,0.0,0.0,0.0
33,0.33,0.2571182225,0.393490985,0.7082349649999999,0.0,0.0,0.0
34,0.34,0.17190049625,0.6470686625,1.182792675,0.0,0.0,0.0
35,0.35,0.29618651500000004,0.524003515,1.1696071,0.0,0.0,0.0
36,0.36,0.38384600625000004,0.417054045,1.1051444,0.0,0.0,0.0
37,0.37,0.4229143,0.38531107,1.1051444,0.0,0.0,0.0
38,0.38,0.41844935,0.42661183142857145,1.1090512285714285,0.0,0.0,0.0
39,0.39,0.39165965,0.6744164,1.1324922,0.0,0.0,0.0
40,0.4,0.40561260857142856,0.7542273999999999,1.329438342857143,0.0,0.0,0.0
41,0.41,0.4214492475,0.7695843437500001,1.5909952625000001,0.0,0.0,0.0
42,0.42,0.43854162,0.80676025,1.8777199,0.0,0.0,0.0
43,0.43,0.43854162,0.80676025,1.8777199,0.0,0.0,0.0
44,0.44,0.5928613625,0.91761659375,2.46276765,0.0,0.0,0.0
45,0.45,0.5708854625,0.8912454875,2.53895085,0.0,0.0,0.0
46,0.46,0.5171665624999999,0.85950245625,2.5877861625,0.0,0.0,0.0
47,0.47,0.5010509,0.8536422,2.5804608,0.0,0.0,0.0
48,0.48,0.5010509,0.8536422,2.5804608,0.0,0.0,0.0
49,0.49,0.5352356625,0.8809900625,2.2625425875,0.0,0.0,0.0
50,0.5,0.5767457,0.8848969,1.7531897,0.0,0.0,0.0
51,0.51,0.61581396375,0.8746414625,0.576196275,0.0,0.0,0.0
52,0.52,0.60800031875,0.84582858125,0.0572594659625,0.0,0.0,0.0
53,0.53,0.60653526,0.84192175,0.0014650611,0.0,0.0,0.0
54,0.54,0.53035209375,0.7734301375,0.023990375775,0.0,0.0,0.0
55,0.55,0.49714404,0.7369257,0.130146255,0.0,0.0,0.0
56,0.56,0.47370306375,0.7178799225,0.56435374125,0.0,0.0,0.0
57,0.57,0.43463477,0.68613696,0.83508486,0.0,0.0,0.0
58,0.58,0.43463477,0.68613696,0.83508486,0.0,0.0,0.0
59,0.59,0.36156485,0.60165174,0.791743435,0.0,0.0,0.0
60,0.6,0.29447725,0.5259569,0.7579249,0.0,0.0,0.0
61,0.61,0.23587483,0.45954084,0.6915088,0.0,0.0,0.0
62,0.62,0.19827159125000002,0.4151006225,0.6060469375,0.0,0.0,0.0
63,0.63,0.1928997,0.40875202,0.5938381,0.0,0.0,0.0
64,0.64,0.09571732100000001,0.37041626125,0.34752469750000003,0.0,0.0,0.0
65,0.65,-0.0496289415625,0.34087086499999997,0.142294054375,0.0,0.0,0.0
66,0.66,-0.15431976,0.3958717,0.098647445,0.0,0.0,0.0
67,0.67,-0.1499245775,0.467842825,0.095717323125,0.0,0.0,0.0
68,0.68,-0.11915829999999998,0.4439135,0.07520647,0.0,0.0,0.0
69,0.69,-0.073436186,0.4390299675,0.08106671374999999,0.0,0.0,0.0
70,0.7,0.06788116,0.42828616,0.11427476,0.0,0.0,0.0
71,0.71,0.15383142,0.4673545,0.2856869,0.0,0.0,0.0
72,0.72,0.17776073625,0.494702275,0.33012707375,0.0,0.0,0.0
73,0.73,0.18117921,0.4986091,0.33647567,0.0,0.0,0.0
74,0.74,0.20120171625,0.507887825,0.271585680975,0.0,0.0,0.0
75,0.75,0.28666362,0.5259569,-0.0986474461,0.0,0.0,0.0
76,0.76,0.32603713125,0.5274219874999999,-0.19436477,0.0,0.0,0.0
77,0.77,0.40045001750000003,0.5298638,-0.25864431875,0.0,0.0,0.0
78,0.78,0.41510063,0.5298638,-0.3657769,0.0,0.0,0.0
79,0.79,0.41510063,0.5298638,-0.3657769,0.0,0.0,0.0
80,0.8,0.37847409249999997,0.49323720125,-0.22409329125,0.0,0.0,0.0
81,0.81,0.3486845275,0.4771215775,-0.0239293298625,0.0,0.0,0.0
82,0.82,0.31547647500000003,0.4312163175,0.036138171824999996,0.0,0.0,0.0
83,0.83,0.3057094,0.4165657,0.04785866,0.0,0.0,0.0
84,0.84,0.3057094,0.4165657,0.04785866,0.0,0.0,0.0
85,0.85,0.017092379499999998,0.232944705,-0.46839221375,0.0,0.0,0.0
86,0.86,-0.03320805025,0.19143464,-0.5650252,0.0,0.0,0.0
87,0.87,-0.11274865375,0.10939122800000001,-0.5903585462500001,0.0,0.0,0.0
88,0.88,-0.1191583,0.061532564,-0.76769197,0.0,0.0,0.0
89,0.89,-0.1191583,0.061532564,-0.76769197,0.0,0.0,0.0
90,0.9,-0.18020250875,-0.06855264887500001,-1.0079620625,0.0,0.0,0.0
91,0.91,-0.29301221,-0.19289971,-1.101359675,0.0,0.0,0.0
92,0.92,-0.52699466375,-0.318894975,-1.0406206875,0.0,0.0,0.0
93,0.93,-0.55623484,-0.33256888,-1.0294496,0.0,0.0,0.0
94,0.94,-0.79235383,-0.39983961,-0.98354435,0.0,0.0,0.0
95,0.95,-1.8186291142857143,-0.6619285457142857,-0.8709439357142857,0.0,0.0,0.0
96,0.96,-1.9651352,-0.68369514,-0.90443105,0.0,0.0,0.0
97,0.97,-1.969530375,-0.6807650224999999,-0.91175635625,0.0,0.0,0.0
98,0.98,-1.995413075,-0.657324075,-0.9742656249999999,0.0,0.0,0.0
99,0.99,-1.9612284,-0.6368132,-1.0528905,0.0,0.0,0.0
100,1.0,-1.8674645,-0.5977449,-1.04117,0.0,0.0,0.0
101,1.01,-1.784749625,-0.57576899375,-1.01431058125,0.0,0.0,0.0
102,1.02,-1.5983815625,-0.5489095187499999,-0.99477645375,0.0,0.0,0.0
103,1.03,-1.4198883,-0.5469561175,-0.9737772499999999,0.0,0.0,0.0
104,1.04,-1.2628825714285714,-0.5558860328571428,-0.9557779257142858,0.0,0.0,0.0
105,1.05,-1.1144231,-0.580164175,-0.95131296,0.0,0.0,0.0
106,1.06,-0.968161185,-0.61532565,-0.910291255,0.0,0.0,0.0
107,1.07,-0.8609675275,-0.6338831,-0.86926955,0.0,0.0,0.0
108,1.08,-0.7672036,-0.6368132,-0.86926955,0.0,0.0,0.0
109,1.09,-0.6485337,-0.6543939175,-0.7472421725,0.0,0.0,0.0
110,1.1,-0.54451436,-0.68369514,-0.64316183,0.0,0.0,0.0
111,1.11,-0.48377536,-0.6959039899999999,-0.60165174875,0.0,0.0,0.0
112,1.12,-0.3140114125,-0.70664779375,-0.5186316125,0.0,0.0,0.0
113,1.13,-0.06816021842857142,-0.7540181199999999,-0.4729356571428572,0.0,0.0,0.0
114,1.14,0.080578359375,-0.787226205,-0.44440185,0.0,0.0,0.0
115,1.15,0.33806282499999996,-0.8126205375,-0.43023961,0.0,0.0,0.0
116,1.16,0.37603232,-0.81652737,-0.42437938,0.0,0.0,0.0
117,1.17,0.37603232,-0.81652737,-0.42437938,0.0,0.0,0.0
118,1.18,0.5283987,-0.8652406375,-0.4067986425,0.0,0.0,0.0
119,1.19,0.6104421,-0.8941756,-0.30717447,0.0,0.0,0.0
120,1.2,0.6426734475,-0.9044310249999999,-0.24875515874999998,0.0,0.0,0.0
121,1.21,0.742786,-0.9644985,0.04395182999999999,0.0,0.0,0.0
122,1.22,0.7838077,-1.0055202,0.20767242,0.0,0.0,0.0
123,1.23,0.9019892625,-1.0704712375,0.4053335775,0.0,0.0,0.0
124,1.24,1.0240777,-1.1168648,0.53963083,0.0,0.0,0.0
125,1.25,1.05038775,-1.117841525,0.5459183825,0.0,0.0,0.0
126,1.26,1.488502,-1.0817034,0.58993125,0.0,0.0,0.0
127,1.27,1.736097375,-0.9781724374999999,0.5756469225,0.0,0.0,0.0
128,1.28,1.8464652875,-0.9210350525,0.599698375,0.0,0.0,0.0
129,1.29,1.8396283,-0.89026874,0.5860244,0.0,0.0,0.0
130,1.3,1.8288845249999999,-0.8805627225,0.6167906875,0.0,0.0,0.0
131,1.31,1.7536781,-0.8126206,0.8321547,0.0,0.0,0.0
132,1.32,1.5895911875,-0.8536422625,0.9141981125,0.0,0.0,0.0
133,1.33,1.493263475,-0.891367525,0.917128225,0.0,0.0,0.0
134,1.34,1.46554945,-0.9293370625,0.87317635,0.0,0.0,0.0
135,1.35,1.4650611,-0.9332439,0.8673161,0.0,0.0,0.0
136,1.36,1.5808620125,-0.9058960375,0.9454527375,0.0,0.0,0.0
137,1.37,1.9131866249999998,-0.81164381875,1.183281,0.0,0.0,0.0
138,1.38,2.2454503714285714,-0.6976481071428572,1.4610146571428573,0.0,0.0,0.0
139,1.39,2.3860962,-0.61727905,1.8313262,0.0,0.0,0.0
140,1.4,2.3860962,-0.61727905,1.8313262,0.0,0.0,0.0
141,1.41,2.25424065,-0.5821175875,1.889562425,0.0,0.0,0.0
142,1.42,2.032344925,-0.6436501625000001,1.7871913750000001,0.0,0.0,0.0
143,1.43,1.8376749,-0.7286237175,1.6447752500000001,0.0,0.0,0.0
144,1.44,1.9292411999999999,-0.755971535,1.65942585,0.0,0.0,0.0
145,1.45,2.0813634,-0.72667027,1.7453761,0.0,0.0,0.0
146,1.46,2.4146038,-0.51728864125,1.9892477875,0.0,0.0,0.0
147,1.47,2.750617242857143,-0.18466745628571427,2.2872394857142857,0.0,0.0,0.0
148,1.48,2.58497815,-0.010377517750000002,2.77360485,0.0,0.0,0.0
149,1.49,2.1328237375,0.209015375,3.18162435,0.0,0.0,0.0
150,1.5,1.8865103,0.3311038,3.3256886,0.0,0.0,0.0
151,1.51,1.86306935,0.5490316375,3.3711055625,0.0,0.0,0.0
152,1.52,1.9262501,1.0563090125,3.4614510000000003,0.0,0.0,0.0
153,1.53,1.9915063499999999,1.2186866,3.4702413,0.0,0.0,0.0
154,1.54,1.956650075,1.4424747125000001,3.5228614625,0.0,0.0,0.0
155,1.55,1.9685537,1.6340315,3.6455603,0.0,0.0,0.0
156,1.56,2.1597442,1.68091345,3.75104465,0.0,0.0,0.0
157,1.57,2.417211257142857,1.7261210571428571,3.8771095714285715,0.0,0.0,0.0
158,1.58,2.856869025,1.6946484625,3.9937561,0.0,0.0,0.0
159,1.59,3.150858,1.5446627,3.9458978,0.0,0.0,0.0
160,1.6,3.150858,1.5446627,3.9458978,0.0,0.0,0.0
161,1.61,3.1611133875,1.436248175,3.8479218125,0.0,0.0,0.0
162,1.62,2.608297,0.5650252,3.0214443,0.0,0.0,0.0
163,1.63,2.33811525,0.31828452575,2.7792819625000003,0.0,0.0,0.0
164,1.64,1.9498741750000002,-0.071910081,2.4417684250000002,0.0,0.0,0.0
165,1.65,1.9177649,-0.11378641,2.4124672,0.0,0.0,0.0
166,1.66,1.9372292857142859,-0.13945986142857142,2.396839885714286,0.0,0.0,0.0
167,1.67,2.0540156,-0.29350057,2.303076,0.0,0.0,0.0
168,1.68,2.206382,-0.35600984,2.0769682,0.0,0.0,0.0
169,1.69,2.2571707,-0.41851914,2.0769682,0.0,0.0,0.0
170,1.7,2.2571707,-0.41851914,2.0769682,0.0,0.0,0.0
171,1.71,2.2527755375000003,-0.42724846,2.0554806375,0.0,0.0,0.0
172,1.72,2.1604767750000002,-0.67978834375,1.6422723875,0.0,0.0,0.0
173,1.73,2.12238515,-0.8266606937500001,1.5256169375,0.0,0.0,0.0
174,1.74,1.98393685,-0.847537775,1.4115863499999999,0.0,0.0,0.0
175,1.75,1.8747898,-0.79308635,1.3590883,0.0,0.0,0.0
176,1.76,1.8747898,-0.79308635,1.3590883,0.0,0.0,0.0
177,1.77,1.806420275,-0.8135972425,1.0582624250000001,0.0,0.0,0.0
178,1.78,1.7966532,-0.81652737,1.0152873,0.0,0.0,0.0
179,1.79,1.7966532,-0.81652737,1.0152873,0.0,0.0,0.0
180,1.8,1.7966532,-0.81652737,1.0152873,0.0,0.0,0.0
181,1.81,1.7966532,-0.81652737,1.0152873,0.0,0.0,0.0
182,1.82,1.7014242625,-0.87726636375,0.78850805,0.0,0.0,0.0
183,1.83,1.6442869,-0.91370976,0.6524405,0.0,0.0,0.0
184,1.84,1.12913480625,-0.9596150175,0.50300428,0.0,0.0,0.0
185,1.85,0.8555259285714286,-0.9918463514285715,0.4408438371428572,0.0,0.0,0.0
186,1.86,0.7818543,-1.0074737,0.37163714,0.0,0.0,0.0
187,1.87,0.69425583125,-1.0099155125000001,0.37163714,0.0,0.0,0.0
188,1.88,0.50984129125,-0.985009395,0.19637921749999998,0.0,0.0,0.0
189,1.89,0.36925641374999996,-0.9347089574999999,0.04297512325,0.0,0.0,0.0
190,1.9,0.26712945,-0.89026874,0.008790366,0.0,0.0,0.0
191,1.91,0.26712945,-0.89026874,0.008790366,0.0,0.0,0.0
192,1.92,0.09034543,-0.6279617925,-0.020022501124999998,0.0,0.0,0.0
193,1.93,0.042975125625,-0.46704926375,-0.03076628125,0.0,0.0,0.0
194,1.94,0.06899740071428571,-0.35321925,-0.071578695,0.0,0.0,0.0
195,1.95,0.092787200625,-0.23685153625,-0.16842097374999998,0.0,0.0,0.0
196,1.96,0.103042625,-0.22317764,-0.2602925,0.0,0.0,0.0
197,1.97,0.089857075625,-0.21438727625,-0.38482268750000004,0.0,0.0,0.0
198,1.98,0.060067501249999995,-0.189969595,-0.6166686,0.0,0.0,0.0
199,1.99,0.02197591475,-0.151878005,-0.6993224875,0.0,0.0,0.0
200,2.0,-0.021975916,-0.12550691,-0.72862375,0.0,0.0,0.0
201,2.01,-0.021975916,-0.12550691,-0.72862375,0.0,0.0,0.0
202,2.02,-0.10041772874999999,-0.19924831125,-0.77013378125,0.0,0.0,0.0
203,2.03,-0.256874045,-0.3480740775,-0.805905635,0.0,0.0,0.0
204,2.04,-0.5272998875,-0.54402595,-0.6128838624999999,0.0,0.0,0.0
205,2.05,-0.7331584,-0.6541148514285714,-0.42891405,0.0,0.0,0.0
206,2.06,-0.9508246,-0.73448396,-0.22171257,0.0,0.0,0.0
207,2.07,-1.00930495,-0.7539570575000001,-0.2060852525,0.0,0.0,0.0
208,2.08,-1.447480275,-0.9049193600000001,-0.080578358,0.0,0.0,0.0
209,2.09,-1.6491704,-1.0074737,0.032231346,0.0,0.0,0.0
210,2.1,-1.7207752625000001,-1.0587507875,0.04981207875,0.0,0.0,0.0
211,2.11,-1.8401167,-1.1442126,0.0791133,0.0,0.0,0.0
212,2.12,-1.886449275,-1.1671041999999998,0.10395829375,0.0,0.0,0.0
213,2.13,-2.2195676,-1.3332055999999999,0.3613817375,0.0,0.0,0.0
214,2.14,-2.229822875,-1.3356473125,0.74620444,0.0,0.0,0.0
215,2.15,-2.2166373,-1.3190433124999998,0.78722614375,0.0,0.0,0.0
216,2.16,-2.2068703,-1.3117180000000002,0.85559565,0.0,0.0,0.0
217,2.17,-2.2068703,-1.311718,0.85559565,0.0,0.0,0.0
218,2.18,-2.0628061,-1.2926723,0.81652737,0.0,0.0,0.0
219,2.19,-1.851532,-1.258975775,0.47370306125,0.0,0.0,0.0
220,2.2,-1.727307,-1.2418834,0.34428933,0.0,0.0,0.0
221,2.21,-1.5397792,-1.2106289,0.14162257,0.0,0.0,0.0
222,2.22,-1.5397792,-1.2106289,0.14162257,0.0,0.0,0.0
223,2.23,-1.2959075625,-1.190606325,-0.19552461,0.0,0.0,0.0
224,2.24,-1.1585144428571428,-1.1721186,-0.36689315,0.0,0.0,0.0
225,2.25,-0.91157317875,-1.1500729,-0.55476978875,0.0,0.0,0.0
226,2.26,-0.72813535,-1.1324922,-0.65097547,0.0,0.0,0.0
227,2.27,-0.72813535,-1.1324922,-0.65097547,0.0,0.0,0.0
228,2.28,-0.42279222250000004,-1.082680075,-0.6363248425,0.0,0.0,0.0
229,2.29,-0.20425393375,-1.018217335,-0.51521313,0.0,0.0,0.0
230,2.3,-0.072764695,-0.98012584,-0.45954084,0.0,0.0,0.0
231,2.31,0.04151006374999999,-0.968405335,-0.447820335,0.0,0.0,0.0
232,2.32,0.3253046075,-0.9610800500000001,-0.3481961825,0.0,0.0,0.0
233,2.33,0.4717497075,-0.9664519525,-0.25577525,0.0,0.0,0.0
234,2.34,0.608427665,-0.963521835,-0.21389891875,0.0,0.0,0.0
235,2.35,0.833802815,-0.9786607749999999,-0.2477784575,0.0,0.0,0.0
236,2.36,0.9303137,-0.9918463,-0.27982667,0.0,0.0,0.0
237,2.37,0.96254505,-0.9947763999999999,-0.2847102025,0.0,0.0,0.0
238,2.38,1.0592391,-1.0035667,-0.2993608,0.0,0.0,0.0
239,2.39,1.26874285,-0.9967299000000001,-0.14845952175,0.0,0.0,0.0
240,2.4,1.4064586,-0.9644985,-0.045905247,0.0,0.0,0.0
241,2.41,1.5652345875,-0.90931454,0.22568043662499998,0.0,0.0,0.0
242,2.42,1.6169391,-0.89026874,0.37163714,0.0,0.0,0.0
243,2.43,1.573964,-0.89026874,0.535724,0.0,0.0,0.0
244,2.44,1.5638916875,-0.9093145475,0.5518396624999999,0.0,0.0,0.0
245,2.45,1.732539342857143,-0.96952162,0.5401889442857143,0.0,0.0,0.0
246,2.46,1.9797858,-1.0074737,0.510329605,0.0,0.0,0.0
247,2.47,1.9954131499999999,-1.0104038,0.558066155,0.0,0.0,0.0
248,2.48,2.0359465875,-1.02603105,0.6470686287499999,0.0,0.0,0.0
249,2.49,1.964280575,-1.099284125,0.7335072475,0.0,0.0,0.0
250,2.5,1.8826034,-1.1754674,0.7774591,0.0,0.0,0.0
251,2.51,1.814233875,-1.2540923625,0.8765948849999999,0.0,0.0,0.0
252,2.52,1.8352331125,-1.3093372625,1.0373241549999999,0.0,0.0,0.0
253,2.53,2.204219242857143,-1.2557665714285715,1.1687698714285715,0.0,0.0,0.0
254,2.54,2.5575082,-1.1617934,1.2360231499999998,0.0,0.0,0.0
255,2.55,2.624778875,-1.145189425,1.2697196499999999,0.0,0.0,0.0
256,2.56,2.9320754375,-1.039705,1.2809517,0.0,0.0,0.0
257,2.57,3.0688145,-0.976219,1.2809517,0.0,0.0,0.0
258,2.58,3.0688145,-0.976219,1.2809517,0.0,0.0,0.0
259,2.59,2.72165625,-0.8727491025,1.8752781,0.0,0.0,0.0
260,2.6,2.239101675,-0.69981085,2.2125474124999998,0.0,0.0,0.0
261,2.61,2.0266678,-0.5703971,2.3929331,0.0,0.0,0.0
262,2.62,2.0237377,-0.3803054225,2.6767886,0.0,0.0,0.0
263,2.63,2.022761,-0.31694153,2.7714071,0.0,0.0,0.0
264,2.64,2.3560622625,0.24179611874999998,3.4212226749999997,0.0,0.0,0.0
265,2.65,2.295445375,0.77971769375,3.9256919999999997,0.0,0.0,0.0
266,2.66,1.975879,0.89661735,4.0904505,0.0,0.0,0.0
267,2.67,1.975879,0.89661735,4.172494,0.0,0.0,0.0
268,2.68,1.975879,0.89661735,4.172494,0.0,0.0,0.0
269,2.69,2.0637826749999997,1.3386995625,4.6786726,0.0,0.0,0.0
270,2.7,2.6971774375,1.7156476125,5.058367425,0.0,0.0,0.0
271,2.71,3.225088,1.8020252000000003,5.0818086,0.0,0.0,0.0
272,2.72,3.4092582625,1.44009405,4.8869552,0.0,0.0,0.0
273,2.73,3.4355683,1.3883896,4.859119,0.0,0.0,0.0
274,2.74,2.93836305,0.76360205,3.96793465,0.0,0.0,0.0
275,2.75,2.3212670749999997,0.1592033,3.03780405,0.0,0.0,0.0
276,2.76,1.9875995,-0.14528522,2.38731705,0.0,0.0,0.0
277,2.77,1.921854875,-0.25052544,2.052550575,0.0,0.0,0.0
278,2.78,1.8122805,-0.25052544,1.9402292,0.0,0.0,0.0
279,2.79,1.8912717,-0.32768533,2.0437602,0.0,0.0,0.0
280,2.8,2.01690065,-0.47217699999999996,2.2820158624999998,0.0,0.0,0.0
281,2.81,2.0579224,-0.6016518,2.486697,0.0,0.0,0.0
282,2.82,2.1494538857142858,-0.6708584285714286,2.6694807714285713,0.0,0.0,0.0
283,2.83,2.2181025,-0.7227634,2.8065686,0.0,0.0,0.0
284,2.84,2.3395804625,-0.8388695125,2.92609315,0.0,0.0,0.0
285,2.85,2.5965767,-1.105144425,3.076322975,0.0,0.0,0.0
286,2.86,2.578995875,-1.2399300125,2.8126120625,0.0,0.0,0.0
287,2.87,2.5496945,-1.2692312,2.4595323125,0.0,0.0,0.0
288,2.88,2.5496945,-1.2692312,2.244962,0.0,0.0,0.0
289,2.89,2.5496945,-1.2692312,2.244962,0.0,0.0,0.0
290,2.9,2.2063819625,-1.3234995999999999,1.5007719875,0.0,0.0,0.0
291,2.91,1.9875995,-1.296579,1.2106289,0.0,0.0,0.0
292,2.92,1.8957192285714284,-1.2915559285714284,1.1302598,0.0,0.0,0.0
293,2.93,1.7732122,-1.2848585,1.023101,0.0,0.0,0.0
294,2.94,1.7610033625,-1.2697195374999999,0.9792102125000001,0.0,0.0,0.0
295,2.95,1.6809133875,-1.1554448,0.32866204,0.0,0.0,0.0
296,2.96,1.5868442375,-1.0563090625,0.22482583374999998,0.0,0.0,0.0
297,2.97,1.3673903,-0.9879395,0.0478586605,0.0,0.0,0.0
298,2.98,1.3673903,-0.9879395,0.020510854,0.0,0.0,0.0
299,2.99,1.3673903,-0.9879395,0.020510854,0.0,0.0,0.0
300,3.0,0.9029049499999999,-1.0665644625000001,0.05811408925,0.0,0.0,0.0
301,3.01,0.68833455,-0.9745098000000001,0.036138172999999996,0.0,0.0,0.0
302,3.02,0.5110970285714286,-0.8198760857142856,0.008790366,0.0,0.0,0.0
303,3.03,0.48591191499999997,-0.77111050625,-0.0014650611749999999,0.0,0.0,0.0
304,3.04,0.47370307125,-0.76476190625,-0.009767074050000001,0.0,0.0,0.0
305,3.05,0.38335765375,-0.82507355125,-0.071299637875,0.0,0.0,0.0
306,3.06,0.36040503,-0.89026874,-0.06397433225,0.0,0.0,0.0
307,3.07,0.36040503,-0.89026874,-0.08106671,0.0,0.0,0.0
308,3.08,0.036626525,-0.6524405,0.09083378,0.0,0.0,0.0
309,3.09,0.036626525,-0.6524405,0.09083378,0.0,0.0,0.0
310,3.1,-0.155357524375,-0.6422461125,-0.045416893,0.0,0.0,0.0
311,3.11,-0.16604026,-0.4067986,-0.08497354,0.0,0.0,0.0
312,3.12,-0.2187824575,-0.40972876,-0.08790366250000001,0.0,0.0,0.0
313,3.13,-0.23636319,-0.41070548,-0.08888037,0.0,0.0,0.0
314,3.14,-0.23636319,-0.41070548,-0.08888037,0.0,0.0,0.0
315,3.15,-0.35063793125,-0.25296720625,-0.16750531875,0.0,0.0,0.0
316,3.16,-0.3208483625,-0.2593158075,-0.29380578125,0.0,0.0,0.0
317,3.17,-0.36821868,-0.3003375225,-0.47907495,0.0,0.0,0.0
318,3.18,-0.40045002,-0.32084838,-0.47907495,0.0,0.0,0.0
319,3.19,-0.40045002,-0.32084838,-0.47907495,0.0,0.0,0.0
320,3.2,-0.4970219575,-0.42749260625,-0.68143651875,0.0,0.0,0.0
321,3.21,-0.6695329,-0.5196083,-0.77941245,0.0,0.0,0.0
322,3.22,-1.048007,-0.55476975,-0.76769197,0.0,0.0,0.0
323,3.23,-1.1945131249999998,-0.6133722374999999,-0.7325305375,0.0,0.0,0.0
324,3.24,-1.2433485,-0.6329064,-0.72081006,0.0,0.0,0.0
325,3.25,-1.457979925,-0.67099795,-0.696575505,0.0,0.0,0.0
326,3.26,-1.7585616,-0.7227634,-0.6684951625000001,0.0,0.0,0.0
327,3.27,-1.7896941499999999,-0.7305770675,-0.7071361,0.0,0.0,0.0
328,3.28,-1.8850452500000001,-0.75401807,-0.8321546500000001,0.0,0.0,0.0
329,3.29,-1.8869987,-0.75401807,-0.88099,0.0,0.0,0.0
330,3.3,-1.8469537,-0.7484368957142857,-0.9122446571428572,0.0,0.0,0.0
331,3.31,-1.7102146375,-0.72471687875,-0.97084714375,0.0,0.0,0.0
332,3.32,-1.6882387,-0.71299638125,-0.98403266875,0.0,0.0,0.0
333,3.33,-1.6882387,-0.7032293,-1.0255427,0.0,0.0,0.0
334,3.34,-1.6882387,-0.7032293,-1.0255427,0.0,0.0,0.0
335,3.35,-1.6882387,-0.7032293,-1.0255427,0.0,0.0,0.0
336,3.36,-1.302317175,-0.7320421500000001,-1.0045435375,0.0,0.0,0.0
337,3.37,-0.9698704,-0.7579249,-1.0255427,0.0,0.0,0.0
338,3.38,-0.9698704,-0.7579249,-1.0255427,0.0,0.0,0.0
339,3.39,-0.9698704000000001,-0.7579249,-1.0255427,0.0,0.0,0.0
340,3.4,-0.9698704,-0.7579249,-1.0255427,0.0,0.0,0.0
341,3.41,-0.7589627274999999,-0.7618317325,-0.95668490875,0.0,0.0,0.0
342,3.42,-0.486400255,-0.8135972925,-0.8624326175,0.0,0.0,0.0
343,3.43,-0.43756489249999997,-0.8160390237499999,-0.7979699225,0.0,0.0,0.0
344,3.44,-0.42779782,-0.81652737,-0.78722614,0.0,0.0,0.0
345,3.45,-0.42779782,-0.81652737,-0.78722614,0.0,0.0,0.0
346,3.46,-0.11836472575,-0.85980771375,-0.5376774,0.0,0.0,0.0
347,3.47,0.032719698,-0.90589607,-0.4204725000000001,0.0,0.0,0.0
348,3.48,0.13820409449999999,-0.9410575475,-0.38238093,0.0,0.0,0.0
349,3.49,0.17336556,-0.95277804,-0.36968374,0.0,0.0,0.0
350,3.5,0.17336556,-0.95277804,-0.36968374,0.0,0.0,0.0
351,3.51,0.44989584,-1.059727485,-0.31987166125,0.0,0.0,0.0
352,3.52,0.6104421,-1.1285853,-0.30717447,0.0,0.0,0.0
353,3.53,0.8365499,-1.2379767,-0.20999208,0.0,0.0,0.0
354,3.54,0.8365499,-1.2379767,-0.20999208,0.0,0.0,0.0
355,3.55,0.8365499,-1.2379767,-0.20999208,0.0,0.0,0.0
356,3.56,1.6083318,-1.2902304875,0.31272950425,0.0,0.0,0.0
357,3.57,1.8435352,-1.2887654,0.559165,0.0,0.0,0.0
358,3.58,1.875766525,-1.278509975,0.667396375,0.0,0.0,0.0
359,3.59,1.9294854,-1.2614176,0.847782,0.0,0.0,0.0
360,3.6,1.9294854,-1.2614176,0.847782,0.0,0.0,0.0
361,3.61,2.0874678125,-1.158374975,0.9208519625,0.0,0.0,0.0
362,3.62,2.2298229,-1.0621693,1.0113806,0.0,0.0,0.0
363,3.63,2.2298229,-1.0621693,1.0406816625,0.0,0.0,0.0
364,3.64,2.189777925,-1.063146025,1.067052725,0.0,0.0,0.0
365,3.65,2.069643,-1.0660762,1.093424,0.0,0.0,0.0
366,3.66,2.071596425,-1.0173629,1.122725225,0.0,0.0,0.0
367,3.67,2.0774567,-0.871223,1.2106289,0.0,0.0,0.0
368,3.68,2.0774567,-0.871223,1.380209675,0.0,0.0,0.0
369,3.69,2.355574125,-0.790156275,1.5178033,0.0,0.0,0.0
370,3.7,3.1899264,-0.5469561,1.7610034,0.0,0.0,0.0
371,3.71,3.2556709875000003,-0.301192119,2.3726664625000002,0.0,0.0,0.0
372,3.72,3.3652453,0.108414516,3.3921049,0.0,0.0,0.0
373,3.73,3.3652453,0.108414516,3.3921049,0.0,0.0,0.0
374,3.74,3.243278975,0.1435149365,3.582807,0.0,0.0,0.0
375,3.75,2.3895147,0.38921788,4.9177217,0.0,0.0,0.0
376,3.76,2.119332975,0.40679862,5.1137956,0.0,0.0,0.0
377,3.77,1.3087878,0.45954084,5.7020173,0.0,0.0,0.0
378,3.78,1.3087878,0.45954084,5.7020173,0.0,0.0,0.0
379,3.79,1.3087878,0.45954084,5.7020173,0.0,0.0,0.0
380,3.8,1.3087878,0.45954084,5.7020173,0.0,0.0,0.0
381,3.81,1.1742464,0.506422785,4.89818715,0.0,0.0,0.0
382,3.82,1.039705,0.55330473,4.094357,0.0,0.0,0.0
383,3.83,1.660158325,0.7814880074999999,3.4416725,0.0,0.0,0.0
384,3.84,1.887068357142857,0.8230852714285714,3.1092781428571428,0.0,0.0,0.0
385,3.85,1.9294853500000002,0.7076244875,2.7665847125,0.0,0.0,0.0
386,3.86,2.00041885,0.40875205,2.2340959750000002,0.0,0.0,0.0
387,3.87,1.9669055125,0.35094316249999996,2.13752415,0.0,0.0,0.0
388,3.88,1.9604347625,0.29350056375,1.9812509375,0.0,0.0,0.0
389,3.89,2.06378255,0.215852325,1.84670945,0.0,0.0,0.0
390,3.9,2.1438725,0.16311012,1.798118275,0.0,0.0,0.0
391,3.91,2.07940995,0.088880365,1.7981183,0.0,0.0,0.0
392,3.92,1.9728093999999998,-0.04757960142857143,1.7330975,0.0,0.0,0.0
393,3.93,1.9412059,-0.09425226,1.7063078,0.0,0.0,0.0
394,3.94,1.80837365,-0.236851525,1.71216805,0.0,0.0,0.0
395,3.95,1.7575849,-0.28178006,1.707284475,0.0,0.0,0.0
396,3.96,1.7028892999999998,-0.33647568,1.6574724,0.0,0.0,0.0
397,3.97,1.666751125,-0.39703154,1.5501567,0.0,0.0,0.0
398,3.98,1.7224234,-0.41461226,1.3512747,0.0,0.0,0.0
399,3.99,1.7785841,-0.41217053625,1.3249036,0.0,0.0,0.0
400,4.0,1.8161874,-0.42242593,1.1403059,0.0,0.0,0.0
401,4.01,1.8161874,-0.42242593,1.1403059,0.0,0.0,0.0
402,4.02,1.678593725,-0.48902516875,1.1344455999999998,0.0,0.0,0.0
403,4.03,1.328322,-0.4883537,1.1285853,0.0,0.0,0.0
404,4.04,1.31074135,-0.5884661775,0.7107377500000001,0.0,0.0,0.0
405,4.05,1.2579992,-0.53914243,0.5708855,0.0,0.0,0.0
406,4.06,1.2579992,-0.53914243,0.5708855,0.0,0.0,0.0
407,4.07,1.3576233,-0.50544604875,0.5132597375,0.0,0.0,0.0
408,4.08,1.4416201,-0.48444685,0.4849352,0.0,0.0,0.0
409,4.09,1.270835842857143,-0.49560922142857144,0.3548936142857143,0.0,0.0,0.0
410,4.1,1.215024,-0.503981,0.29740742,0.0,0.0,0.0
411,4.11,1.215024,-0.503981,0.14552939,0.0,0.0,0.0
412,4.12,1.1399396187500002,-0.5323055125,0.12404182887500001,0.0,0.0,0.0
413,4.13,0.61434895,-0.7305771,-0.026371099,0.0,0.0,0.0
414,4.14,0.4619826025,-0.724716825,-0.0498120775,0.0,0.0,0.0
415,4.15,0.22806117,-0.7032293,-0.102554275,0.0,0.0,0.0
416,4.16,0.22806117,-0.7032293,-0.11622818,0.0,0.0,0.0
417,4.17,0.19875994896250002,-0.6895553999999999,-0.1172048875,0.0,0.0,0.0
418,4.18,-0.11573982,-0.55867666,-0.12404184,0.0,0.0,0.0
419,4.19,-0.1963792275,-0.505446075,-0.212922205,0.0,0.0,0.0
420,4.2,-0.24864179714285714,-0.4711217742857143,-0.24515355,0.0,0.0,0.0
421,4.21,-0.27543148,-0.4614942,-0.24515355,0.0,0.0,0.0
422,4.22,-0.2783616,-0.45905243375000004,-0.26658006875,0.0,0.0,0.0
423,4.23,-0.29887244,-0.44196007,-0.4165657,0.0,0.0,0.0
424,4.24,-0.32670860875,-0.4185191275,-0.46735446875,0.0,0.0,0.0
425,4.25,-0.40435684,-0.41070548,-0.5103296,0.0,0.0,0.0
426,4.26,-0.40435684,-0.41070548,-0.5103296,0.0,0.0,0.0
427,4.27,-0.40435684,-0.41070548,-0.5103296,0.0,0.0,0.0
428,4.28,-0.7504775025,-0.5080709925,-0.5030042875,0.0,0.0,0.0
429,4.29,-1.0123571625,-0.5782107750000001,-0.4839585025,0.0,0.0,0.0
430,4.3,-1.1027026,-0.5977449,-0.4605175475,0.0,0.0,0.0
431,4.31,-1.1027026,-0.5977449,-0.4673545,0.0,0.0,0.0
432,4.32,-1.1027026,-0.5977449,-0.4673545,0.0,0.0,0.0
433,4.33,-1.1813275625,-0.7105545987499999,-0.484446855,0.0,0.0,0.0
434,4.34,-1.4671975750000001,-0.85870895,-0.458564125,0.0,0.0,0.0
435,4.35,-1.5849867571428573,-0.9086866857142857,-0.4673545,0.0,0.0,0.0
436,4.36,-1.7530066375,-0.9820792875000001,-0.43512315625,0.0,0.0,0.0
437,4.37,-1.8283962,-1.0113806,-0.38140425,0.0,0.0,0.0
438,4.38,-1.86160425,-1.01528735,-0.340382525,0.0,0.0,0.0
439,4.39,-1.8884637375,-1.0089387,-0.2799487425,0.0,0.0,0.0
440,4.4,-1.8498838000000002,-0.97817245,-0.22171257,0.0,0.0,0.0
441,4.41,-1.782674125,-0.9459410875,-0.22171257,0.0,0.0,0.0
442,4.42,-1.7390275,-0.9215234,-0.22171257,0.0,0.0,0.0
443,4.43,-1.687750375,-0.9141980875,-0.1924113575,0.0,0.0,0.0
444,4.44,-1.5866611,-0.9141980875,-0.142599275,0.0,0.0,0.0
445,4.45,-1.5280586,-0.9215234,-0.11036792925,0.0,0.0,0.0
446,4.46,-1.4535236375,-0.93324389,-0.057625734375,0.0,0.0,0.0
447,4.47,-1.3292987,-0.95277804,-0.07715988,0.0,0.0,0.0
448,4.48,-1.2148844857142858,-0.9667309757142857,-0.06041632714285714,0.0,0.0,0.0
449,4.49,-0.9554029999999999,-0.97573064375,-0.056649029499999996,0.0,0.0,0.0
450,4.5,-0.8179924,-0.976219,-0.093275559,0.0,0.0,0.0
451,4.51,-0.6424292699999999,-0.9547314499999999,-0.133808905,0.0,0.0,0.0
452,4.52,-0.46686614,-0.9332439,-0.17092378,0.0,0.0,0.0
453,4.53,-0.39800826875,-0.9215233875000001,-0.1914346375,0.0,0.0,0.0
454,4.54,-0.039556644375,-0.849247075,-0.37993914875,0.0,0.0,0.0
455,4.55,0.090833785625,-0.8321547,-0.35796323,0.0,0.0,0.0
456,4.56,0.23782824000000002,-0.817504125,-0.223543895,0.0,0.0,0.0
457,4.57,0.26322263,-0.8126206,-0.17873745,0.0,0.0,0.0
458,4.58,0.35369014249999997,-0.809690425,-0.0761831775,0.0,0.0,0.0
459,4.59,0.6796051750000001,-0.744251,-0.0332080525,0.0,0.0,0.0
460,4.6,0.8599908,-0.6954155999999999,-0.01855744,0.0,0.0,0.0
461,4.61,1.3491380875,-0.51490791125,-0.0654393925,0.0,0.0,0.0
462,4.62,1.5856844,-0.42242593,-0.14357598,0.0,0.0,0.0
463,4.63,1.5856844,-0.42242593,-0.14357598,0.0,0.0,0.0
464,4.64,1.93888615,-0.21341055874999998,-0.10157756805,0.0,0.0,0.0
465,4.65,2.0110404,-0.11378641,0.029240180575,0.0,0.0,0.0
466,4.66,1.8735078375,-0.080273137375,0.33208051250000004,0.0,0.0,0.0
467,4.67,1.6442869,-0.024417683,0.4614942,0.0,0.0,0.0
468,4.68,1.623348725,-0.011720487625,0.47852553750000004,0.0,0.0,0.0
469,4.69,1.4924088142857141,0.13408796285714283,0.6080003428571429,0.0,0.0,0.0
470,4.7,1.5314771,0.17092378,0.52693365,0.0,0.0,0.0
471,4.71,1.5624875500000002,0.14943622,0.305221055,0.0,0.0,0.0
472,4.72,1.593498,0.12794866,0.18020251,0.0,0.0,0.0
473,4.73,1.593498,0.12794866,0.18020251,0.0,0.0,0.0
474,4.74,1.482641775,0.08106671,0.21322742125,0.0,0.0,0.0
475,4.75,1.521588025,0.09962415,0.37163714,0.0,0.0,0.0
476,4.76,1.6735880875,0.19485312,0.5399360375,0.0,0.0,0.0
477,4.77,1.7810259,0.26078087,0.8204342,0.0,0.0,0.0
478,4.78,1.7810259,0.26078087,0.8204342,0.0,0.0,0.0
479,4.79,1.8987190875,0.43323076,0.96626880625,0.0,0.0,0.0
480,4.8,1.8680923714285715,0.47572627142857143,1.0465419,0.0,0.0,0.0
481,4.81,2.0224558,0.6016517124999999,1.1613050875,0.0,0.0,0.0
482,4.82,2.3260287,0.7701337625,1.4656105375,0.0,0.0,0.0
483,4.83,2.3587484,0.7877145,1.4992459,0.0,0.0,0.0
484,4.84,2.4483612,0.92225595,1.68066925,0.0,0.0,0.0
485,4.85,2.537974,1.0567974,1.94022925,0.0,0.0,0.0
486,4.86,2.537974,1.0567974,2.0183659,0.0,0.0,0.0
487,4.87,2.537974,1.0567974,2.0183659,0.0,0.0,0.0
488,4.88,2.537974,1.0567974,2.0183659,0.0,0.0,0.0
489,4.89,2.243802025,1.1329806,2.6876546,0.0,0.0,0.0
490,4.9,2.04424855,1.1925598,3.41249355,0.0,0.0,0.0
491,4.91,2.0012734285714284,1.205815014285714,3.775043828571429,0.0,0.0,0.0
492,4.92,1.9304621,1.204768525,3.81843755,0.0,0.0,0.0
493,4.93,1.937299,1.1740023,3.7705789,0.0,0.0,0.0
494,4.94,1.8450001875000002,1.110027975,3.5842719625,0.0,0.0,0.0
495,4.95,1.5096843875000001,0.9024776025,3.134254,0.0,0.0,0.0
496,4.96,1.31855495,0.7464486050000001,2.7108513,0.0,0.0,0.0
497,4.97,1.2059283625000001,0.61972083125,2.15138105,0.0,0.0,0.0
498,4.98,1.1256553,0.5220501,1.9246018,0.0,0.0,0.0
499,4.99,1.0157756875000001,0.40942352625,1.7008137625,0.0,0.0,0.0
500,5.0,0.802487175,0.190457935,1.3278337,0.0,0.0,0.0
501,5.01,0.6818812928571428,0.06655563099999999,1.2206749428571428,0.0,0.0,0.0
502,5.02,0.61825578125,0.0161156716375,1.0223074,0.0,0.0,0.0
503,5.03,0.5791875,-0.0009767073,0.9298254,0.0,0.0,0.0
504,5.04,0.5791875,-0.0009767073,0.9298254,0.0,0.0,0.0
505,5.05,0.6260694,0.01855744,0.7188565874999999,0.0,0.0,0.0
506,5.06,0.75273618125,0.0503004275,0.6509754625,0.0,0.0,0.0
507,5.07,0.88489684375,0.07178798875,0.58095776875,0.0,0.0,0.0
508,5.08,0.9185932,0.07325305,0.559165,0.0,0.0,0.0
509,5.09,0.91322134125,0.058602440375,0.54109590375,0.0,0.0,0.0
510,5.1,0.8717114,-0.012697197,0.4341464,0.0,0.0,0.0
511,5.11,0.7464137371428572,-0.063555742,0.26224592571428573,0.0,0.0,0.0
512,5.12,0.687601975,-0.042181549,0.205108545,0.0,0.0,0.0
513,5.13,0.6534172,-0.020510854,0.22708447,0.0,0.0,0.0
514,5.14,0.6534172,-0.020510854,0.22708447,0.0,0.0,0.0
515,5.15,0.72502206625,0.067392808125,0.24661861,0.0,0.0,0.0
516,5.16,0.8394800225,0.1284370175,0.2173173975,0.0,0.0,0.0
517,5.17,0.888803775,0.1792257975,0.2583391075,0.0,0.0,0.0
518,5.18,0.8990592,0.19827159,0.29350057,0.0,0.0,0.0
519,5.19,0.8404567350000001,0.2783616,0.320848375,0.0,0.0,0.0
520,5.2,0.81701577,0.303756,0.34819618,0.0,0.0,0.0
521,5.21,0.7867378,0.39538335625,0.298384105,0.0,0.0,0.0
522,5.22,0.7886912500000001,0.467354475,0.2075503175,0.0,0.0,0.0
523,5.23,0.8092021,0.5376774,0.18410933,0.0,0.0,0.0
524,5.24,0.9127331000000001,0.75035545,0.373590595,0.0,0.0,0.0
525,5.25,0.9537548,0.8341081,0.5435377,0.0,0.0,0.0
526,5.26,1.054233575,0.927872,0.5834606,0.0,0.0,0.0
527,5.27,1.4404602875,1.2558625625,0.7735522399999999,0.0,0.0,0.0
528,5.28,1.5817776,1.333694,0.89075714,0.0,0.0,0.0
529,5.29,1.7126564000000002,1.3610417,1.27484725,0.0,0.0,0.0
530,5.3,1.75367805,1.3639719,1.448457,0.0,0.0,0.0
531,5.31,1.7907929,1.3649486,1.56065625,0.0,0.0,0.0
532,5.32,1.840116625,1.376669,1.9158114625,0.0,0.0,0.0
533,5.33,1.8982308,1.376669,2.0457137,0.0,0.0,0.0
534,5.34,1.89530065,1.2714288,1.999808375,0.0,0.0,0.0
535,5.35,1.8801617000000002,1.178397425,1.9636701,0.0,0.0,0.0
536,5.36,1.7820025625,0.9229885250000001,1.7149149750000001,0.0,0.0,0.0
537,5.37,1.6794483,0.750355455,1.4447944000000001,0.0,0.0,0.0
538,5.38,1.6091254,0.65097547,1.3239269,0.0,0.0,0.0
539,5.39,1.6091254,0.65097547,1.3239269,0.0,0.0,0.0
540,5.4,1.497902825,0.5290091325,1.196100325,0.0,0.0,0.0
541,5.41,1.154040725,0.14943621825,0.771659925,0.0,0.0,0.0
542,5.42,1.04605359875,0.025882745999999998,0.35619296375,0.0,0.0,0.0
543,5.43,0.9771957674999999,-0.025333346875,0.14162257,0.0,0.0,0.0
544,5.44,0.92250013,-0.059090797,0.14162257,0.0,0.0,0.0
545,5.45,0.9254302475,-0.06983457775,0.0849735425,0.0,0.0,0.0
546,5.46,0.91370975,-0.1196466475,-0.10255427125,0.0,0.0,0.0
547,5.47,0.850223775,-0.1645751825,-0.1299020775,0.0,0.0,0.0
548,5.48,0.7423586375,-0.21780575000000002,-0.128925375,0.0,0.0,0.0
549,5.49,0.6026284,-0.26224595,-0.16311012,0.0,0.0,0.0
550,5.5,0.5109400075,-0.2925238725,-0.1523663425,0.0,0.0,0.0
551,5.51,0.12111171500000001,-0.4028917775,-0.09571732250000001,0.0,0.0,0.0
552,5.52,0.0020231805714285706,-0.43470452,-0.05260266714285715,0.0,0.0,0.0
553,5.53,-0.06495104,-0.4614942,-0.01465061,0.0,0.0,0.0
554,5.54,-0.15431976,-0.49616736,-0.057625737,0.0,0.0,0.0
555,5.55,-0.16604025,-0.50153924375,-0.05860244437500001,0.0,0.0,0.0
556,5.56,-0.2856868925,-0.56990871625,-0.24619129950000002,0.0,0.0,0.0
557,5.57,-0.317429875,-0.5874894475,-0.31889495625000003,0.0,0.0,0.0
558,5.58,-0.3613817,-0.60946536,-0.39703155,0.0,0.0,0.0
559,5.59,-0.4903071,-0.6368132,-0.39703155,0.0,0.0,0.0
560,5.6,-0.50880349375,-0.6421850874999999,-0.41119380625,0.0,0.0,0.0
561,5.61,-0.82470727125,-0.755971525,-0.5298637425,0.0,0.0,0.0
562,5.62,-0.9850093500000001,-0.8204341749999999,-0.57088545,0.0,0.0,0.0
563,5.63,-1.0431234625,-0.8399683,-0.53425894,0.0,0.0,0.0
564,5.64,-1.0909822,-0.8399683,-0.48298177,0.0,0.0,0.0
565,5.65,-1.0909822,-0.8399683,-0.48298177,0.0,0.0,0.0
566,5.66,-1.3339381,-0.9080936825,-0.50349264875,0.0,0.0,0.0
567,5.67,-1.50950125,-0.963033465,-0.58260594375,0.0,0.0,0.0
568,5.68,-1.543686,-0.98012584,-0.6314413,0.0,0.0,0.0
569,5.69,-1.5637084749999999,-0.9776840649999999,-0.57088545625,0.0,0.0,0.0
570,5.7,-1.5710338,-0.976219,-0.54158425,0.0,0.0,0.0
571,5.71,-1.60521855,-0.98256762125,-0.52498021375,0.0,0.0,0.0
572,5.72,-1.6081487,-0.964498525,-0.486888615,0.0,0.0,0.0
573,5.73,-1.590568,-0.94496435,-0.46344763,0.0,0.0,0.0
574,5.74,-1.454805625,-0.8847137225,-0.39996166250000004,0.0,0.0,0.0
575,5.75,-1.4225743,-0.8673161,-0.37359056,0.0,0.0,0.0
576,5.76,-1.332045725,-0.8272711225,-0.41900744625,0.0,0.0,0.0
577,5.77,-1.208187,-0.783319315,-0.48395848375,0.0,0.0,0.0
578,5.78,-1.1495845,-0.77355224,-0.51814324,0.0,0.0,0.0
579,5.79,-1.0216358749999999,-0.726181945,-0.5474444700000001,0.0,0.0,0.0
580,5.8,-0.9581499,-0.6993225,-0.5767457,0.0,0.0,0.0
581,5.81,-0.9581499,-0.6993225,-0.5767457,0.0,0.0,0.0
582,5.82,-0.7920486425,-0.6289995500000001,-0.5904195875,0.0,0.0,0.0
583,5.83,-0.75939,-0.61727905,-0.592373,0.0,0.0,0.0
584,5.84,-0.75939,-0.61727905,-0.592373,0.0,0.0,0.0
585,5.85,-0.75939,-0.61727905,-0.592373,0.0,0.0,0.0
586,5.86,-0.75939,-0.61727905,-0.592373,0.0,0.0,0.0
587,5.87,-0.572411565,-0.5772340375,-0.575769,0.0,0.0,0.0
588,5.88,-0.40435688571428574,-0.5698389857142857,-0.4947023,0.0,0.0,0.0
589,5.89,-0.297407415,-0.57772240625,-0.4712613275,0.0,0.0,0.0
590,5.9,-0.13869244,-0.58993125,-0.43219304,0.0,0.0,0.0
591,5.91,-0.110917325,-0.58797783125,-0.4341464475,0.0,0.0,0.0
592,5.92,0.1318554975,-0.564048475,-0.412658845,0.0,0.0,0.0
593,5.93,0.22995354875000001,-0.5454910424999999,-0.35405642,0.0,0.0,0.0
594,5.94,0.442448435,-0.53523564,-0.250769615,0.0,0.0,0.0
595,5.95,0.5323055,-0.53523564,-0.14748281,0.0,0.0,0.0
596,5.96,0.58742841625,-0.53279387625,-0.15041293125,0.0,0.0,0.0
597,5.97,1.037751515,-0.5137480649999999,-0.14943622,0.0,0.0,0.0
598,5.98,1.1022142,-0.5117946,-0.12794866,0.0,0.0,0.0
599,5.99,1.1362158375,-0.51618981,-0.11622817375,0.0,0.0,0.0
600,6.0,1.1564215,-0.52351516,-0.09669403,0.0,0.0,0.0
601,6.01,1.1564215,-0.52351516,-0.09669403,0.0,0.0,0.0
602,6.02,1.240418375,-0.50202759,0.32670862,0.0,0.0,0.0
603,6.03,1.2350464749999999,-0.5010508850000001,0.40631026125,0.0,0.0,0.0
604,6.04,1.22527935,-0.50837621625,0.61355532375,0.0,0.0,0.0
605,6.05,1.2267444,-0.51570153,0.6954156,0.0,0.0,0.0
606,6.06,1.2267444,-0.51570153,0.6954156,0.0,0.0,0.0
607,6.07,1.446992,-0.4829818,0.6747652428571429,0.0,0.0,0.0
608,6.08,1.573964,-0.44977373,0.6758815,0.0,0.0,0.0
609,6.09,1.7561198999999998,-0.32670861625000003,0.704694355,0.0,0.0,0.0
610,6.1,1.9099512,-0.23099129,0.85168886,0.0,0.0,0.0
611,6.11,1.9099512,-0.23099129,0.85168886,0.0,0.0,0.0
612,6.12,2.04632405,-0.027225715999999997,0.99685199,0.0,0.0,0.0
613,6.13,2.05743415,0.0800900065,1.0387284,0.0,0.0,0.0
614,6.14,1.9571122571428572,0.2378980142857143,0.8966174357142858,0.0,0.0,0.0
615,6.15,1.937299,0.31156966,0.70713615,0.0,0.0,0.0
616,6.16,1.937299,0.31156966,0.70713615,0.0,0.0,0.0
617,6.17,2.3561234,0.48609504375,0.83880845625,0.0,0.0,0.0
618,6.18,2.9848178250000004,0.731492765,1.0582623,0.0,0.0,0.0
619,6.19,3.1874845250000003,0.9107796324999999,1.355852925,0.0,0.0,0.0
620,6.2,3.1860194,0.95912665,1.5344073,0.0,0.0,0.0
621,6.21,3.1860194,0.95912665,1.5344073,0.0,0.0,0.0
622,6.22,3.092255525,1.12400708125,2.0988220374999997,0.0,0.0,0.0
623,6.23,2.8913328714285713,1.4386202285714287,2.867961571428571,0.0,0.0,0.0
624,6.24,2.72525775,1.4821534,3.1227777000000003,0.0,0.0,0.0
625,6.25,2.6395516,1.4821534,3.2436452,0.0,0.0,0.0
626,6.26,2.2141957,1.5016876,3.2436452,0.0,0.0,0.0
627,6.27,2.1044992,1.5148731249999998,3.586103225,0.0,0.0,0.0
628,6.28,1.9216717,1.536849,4.1568666,0.0,0.0,0.0
629,6.29,1.8572091,1.56615025,4.25453725,0.0,0.0,0.0
630,6.3,1.9556734249999999,1.5431976625,4.2701645,0.0,0.0,0.0
631,6.31,2.0383883,1.5016876,4.2701645,0.0,0.0,0.0
632,6.32,2.0701312874999998,1.4616426125,4.0637740625,0.0,0.0,0.0
633,6.33,2.2298229,1.2789984,3.1889496,0.0,0.0,0.0
634,6.34,2.3696752625,1.1016649250000001,2.6743469125,0.0,0.0,0.0
635,6.35,2.38475325,1.025542825,2.3655853,0.0,0.0,0.0
636,6.36,2.3470278,0.9669403,2.3655853,0.0,0.0,0.0
637,6.37,2.35093465,0.934708965,2.2017426249999996,0.0,0.0,0.0
638,6.38,2.3794422875,0.6289384825,1.5221984499999999,0.0,0.0,0.0
639,6.39,2.2181025500000002,0.393368895,1.36665785,0.0,0.0,0.0
640,6.4,2.0369232375,0.200225015,1.1280970750000001,0.0,0.0,0.0
641,6.41,1.9797858,0.13576232,1.0621693,0.0,0.0,0.0
642,6.42,1.951583375,0.09767073324999999,1.0300600500000001,0.0,0.0,0.0
643,6.43,1.765886875,-0.134358308375,0.8336197575,0.0,0.0,0.0
644,6.44,1.7043543875,-0.22268927624999998,0.6797883175,0.0,0.0,0.0
645,6.45,1.7102145875,-0.25638568125,0.5949979037500001,0.0,0.0,0.0
646,6.46,1.7224234,-0.2856869,0.49274886,0.0,0.0,0.0
647,6.47,1.7224234,-0.2856869,0.49274886,0.0,0.0,0.0
648,6.48,1.55845875,-0.3887295375,0.267617835,0.0,0.0,0.0
649,6.49,1.320508325,-0.5089866125,0.18801616,0.0,0.0,0.0
650,6.5,1.1534215714285714,-0.6139303428571429,0.13534373142857142,0.0,0.0,0.0
651,6.51,1.1022142,-0.6485337,0.11427476,0.0,0.0,0.0
652,6.52,1.1022142,-0.6485337,0.11427476,0.0,0.0,0.0
653,6.53,0.8238526374999999,-0.464302275,0.1725109325,0.0,0.0,0.0
654,6.54,0.73130965,-0.48273762,0.15700570749999998,0.0,0.0,0.0
655,6.55,0.58016415,-0.27103628,0.122088425,0.0,0.0,0.0
656,6.56,0.776116125,-0.399961685,0.010743782,0.0,0.0,0.0
657,6.57,0.8248294,-0.43805328,-0.026371099,0.0,0.0,0.0
658,6.58,0.7255715500000001,-0.35307972,-0.17287720225,0.0,0.0,0.0
659,6.59,0.6026284974999999,-0.4028918175,-0.33067652125,0.0,0.0,0.0
660,6.6,0.5261662385714285,-0.42410030428571427,-0.3462428,0.0,0.0,0.0
661,6.61,0.43463477,-0.44196007,-0.3462428,0.0,0.0,0.0
662,6.62,0.1513286,-0.48597296375,-0.4263327775,0.0,0.0,0.0
663,6.63,0.075694824,-0.4893304,-0.4341464125,0.0,0.0,0.0
664,6.64,-0.060922120499999996,-0.476633205,-0.42437933000000005,0.0,0.0,0.0
665,6.65,-0.169458725,-0.46204362125,-0.41461225500000004,0.0,0.0,0.0
666,6.66,-0.3032676475,-0.43023959875,-0.40484518750000004,0.0,0.0,0.0
667,6.67,-0.36577693749999995,-0.39458980625,-0.376032325,0.0,0.0,0.0
668,6.68,-0.399473345,-0.36528857875,-0.41168214375,0.0,0.0,0.0
669,6.69,-0.47467979499999996,-0.342335925,-0.576745725,0.0,0.0,0.0
670,6.7,-0.50782682625,-0.3340339025,-0.6119072,0.0,0.0,0.0
671,6.71,-0.55721156,-0.31840659875,-0.66446624375,0.0,0.0,0.0
672,6.72,-0.58944289875,-0.32670861375,-0.7432743125,0.0,0.0,0.0
673,6.73,-0.6392549825,-0.338429085,-0.72862375,0.0,0.0,0.0
674,6.74,-0.76441304,-0.3777764442857143,-0.75373906,0.0,0.0,0.0
675,6.75,-0.9466736199999999,-0.463203465,-0.86731617,0.0,0.0,0.0
676,6.76,-1.1818159499999998,-0.5420725625,-1.0235894,0.0,0.0,0.0
677,6.77,-1.2277212,-0.55476975,-1.0489838,0.0,0.0,0.0
678,6.78,-1.2277212,-0.55476975,-1.0489838,0.0,0.0,0.0
679,6.79,-1.39968265,-0.63046460625,-1.1940857375,0.0,0.0,0.0
680,6.8,-1.4382015,-0.6915088,-1.3571348,0.0,0.0,0.0
681,6.81,-1.4421083499999998,-0.68369515,-1.393273,0.0,0.0,0.0
682,6.82,-1.4538289,-0.6602542,-1.5016876,0.0,0.0,0.0
683,6.83,-1.4538289,-0.6602542,-1.5016876,0.0,0.0,0.0
684,6.84,-1.4376434714285715,-0.6312320057142857,-1.3789015571428571,0.0,0.0,0.0
685,6.85,-1.3832007125,-0.6060469125000001,-1.3136714375,0.0,0.0,0.0
686,6.86,-1.2956023375,-0.576745725,-1.1540408125,0.0,0.0,0.0
687,6.87,-1.2706963,-0.5664903,-1.0743781,0.0,0.0,0.0
688,6.88,-1.2619059375,-0.564048525,-1.08383995,0.0,0.0,0.0
689,6.89,-1.0563090125,-0.5601416925,-1.1117982375,0.0,0.0,0.0
690,6.9,-0.968100135,-0.56795535,-1.0942175125,0.0,0.0,0.0
691,6.91,-0.90003586,-0.5703971,-1.1110047,0.0,0.0,0.0
692,6.92,-0.8209225375,-0.58797785,-1.0732793250000001,0.0,0.0,0.0
693,6.93,-0.79455143,-0.5938381,-1.0607042,0.0,0.0,0.0
694,6.94,-0.56520834125,-0.6182557875,-0.9752423375,0.0,0.0,0.0
695,6.95,-0.445378555,-0.6319296999999999,-0.8721997,0.0,0.0,0.0
696,6.96,-0.27689652875,-0.6509754375,-0.724716825,0.0,0.0,0.0
697,6.97,-0.216829025,-0.6524405,-0.6839393,0.0,0.0,0.0
698,6.98,-0.16994707,-0.6524405,-0.6587891,0.0,0.0,0.0
699,6.99,-0.04627151,-0.636813175,-0.626557775,0.0,0.0,0.0
700,7.0,0.12257677,-0.6133722,-0.5254686125,0.0,0.0,0.0
701,7.01,0.12257677,-0.6133722,-0.4947023,0.0,0.0,0.0
702,7.02,0.21187573571428572,-0.5955124057142858,-0.39200849428571427,0.0,0.0,0.0
703,7.03,0.27884996,-0.58211756,-0.31498814,0.0,0.0,0.0
704,7.04,0.36156487375,-0.5586766225,-0.23911017875,0.0,0.0,0.0
705,7.05,0.5235151625,-0.508864545,-0.1093912275,0.0,0.0,0.0
706,7.06,0.733263085,-0.4143681,-0.071299638,0.0,0.0,0.0
707,7.07,0.904919415,-0.29936081000000003,-0.0556723215,0.0,0.0,0.0
708,7.08,0.99282306,-0.23489812,-0.057625737,0.0,0.0,0.0
709,7.09,1.0927524425000001,-0.16701695625,-0.059579150625,0.0,0.0,0.0
710,7.1,1.2311397,-0.060738987375000004,-0.01953414825,0.0,0.0,0.0
711,7.11,1.2579992,-0.024417683,0.024417683,0.0,0.0,0.0
712,7.12,1.2526271875000001,-0.006836951124999999,0.09565628074999999,0.0,0.0,0.0
713,7.13,1.2345581,-0.020510854,0.18410933,0.0,0.0,0.0
714,7.14,1.28144005,-0.014650609949999999,0.1928997,0.0,0.0,0.0
715,7.15,1.4250160125,0.0024417685125,0.21927081,0.0,0.0,0.0
716,7.16,1.4455268,-0.0009767073,0.21927081,0.0,0.0,0.0
717,7.17,1.4294112875,-0.0557333647875,0.462470965,0.0,0.0,0.0
718,7.18,1.4572475,-0.066904455,0.5708855,0.0,0.0,0.0
719,7.19,1.4781856375,-0.058663486537500004,0.62454335,0.0,0.0,0.0
720,7.2,1.6247526,-0.0024417682875,1.048312175,0.0,0.0,0.0
721,7.21,1.6247526,-0.0048835366,1.1285853,0.0,0.0,0.0
722,7.22,1.497597525,0.00976707365,1.1974432,0.0,0.0,0.0
723,7.23,1.3908312,0.026371099,1.2457902,0.0,0.0,0.0
724,7.24,1.3908312,0.026371099,1.2555572750000001,0.0,0.0,0.0
725,7.25,1.35615815,0.120135006125,1.368367075,0.0,0.0,0.0
726,7.26,1.5102947500000001,0.26175756625,1.4015750875000001,0.0,0.0,0.0
727,7.27,1.842070125,0.43970142875,1.389366275,0.0,0.0,0.0
728,7.28,1.9490196,0.49079543,1.3747157,0.0,0.0,0.0
729,7.29,1.9490196,0.49079543,1.3747157,0.0,0.0,0.0
730,7.3,2.1248878625,0.86005192875,1.3014625125000001,0.0,0.0,0.0
731,7.31,2.1165247,1.0177292,1.226256,0.0,0.0,0.0
732,7.32,2.118966575,1.078773325,1.15544475,0.0,0.0,0.0
733,7.33,2.1204317,1.1153998,1.112958,0.0,0.0,0.0
734,7.34,2.1204317,1.1153998,1.112958,0.0,0.0,0.0
735,7.35,2.181964325,1.498635425,1.0535010249999999,0.0,0.0,0.0
736,7.36,2.3118663000000006,1.7395159,1.3747157,0.0,0.0,0.0
737,7.37,2.3338421625000003,1.7570966125,1.4302048625000001,0.0,0.0,0.0
738,7.38,2.3704686,1.7863978,1.5226868,0.0,0.0,0.0
739,7.39,2.3704686,1.7863978,1.5226868,0.0,0.0,0.0
740,7.4,2.304540975,1.84744205,2.004753025,0.0,0.0,0.0
741,7.41,2.2649844,1.8840686,2.490604,0.0,0.0,0.0
742,7.42,2.1868478375000002,1.8943240125,2.6455951,0.0,0.0,0.0
743,7.43,2.0774567,1.9036027,2.7792208,0.0,0.0,0.0
744,7.44,2.0774567,1.9036027,2.7792208,0.0,0.0,0.0
745,7.45,2.0796891285714283,1.868999357142857,2.704572485714286,0.0,0.0,0.0
746,7.46,2.12189675,1.7458644875,2.5135564375,0.0,0.0,0.0
747,7.47,2.24447355,1.65277205,2.52381175,0.0,0.0,0.0
748,7.48,2.3470278,1.5993583,2.553113,0.0,0.0,0.0
749,7.49,2.3470278,1.5993583,2.553113,0.0,0.0,0.0
750,7.5,2.344036625,1.4076184375,2.4414021125,0.0,0.0,0.0
751,7.51,2.2649844,1.0333564,2.0965023,0.0,0.0,0.0
752,7.52,2.1140831125,0.9351973025,1.6184651375,0.0,0.0,0.0
753,7.53,2.139966,0.86536276,1.4137839,0.0,0.0,0.0
754,7.54,2.139966,0.86536276,1.4137839,0.0,0.0,0.0
755,7.55,2.0688493625,0.603116785,1.2415171475,0.0,0.0,0.0
756,7.56,1.8240011,0.28422183,0.86340934,0.0,0.0,0.0
757,7.57,1.7447481857142857,0.1368785582857143,0.6649982042857143,0.0,0.0,0.0
758,7.58,1.6950756,0.057625737,0.5376774125,0.0,0.0,0.0
759,7.59,1.6950756,0.057625737,0.4849352,0.0,0.0,0.0
760,7.6,1.6950756,0.057625737,0.4849352,0.0,0.0,0.0
761,7.61,1.538253025,-0.140218550375,0.3105929375,0.0,0.0,0.0
762,7.62,1.3962031875,-0.29643069250000004,0.1775165675,0.0,0.0,0.0
763,7.63,1.3439494,-0.34819618,0.122088425,0.0,0.0,0.0
764,7.64,1.3439494,-0.34819618,0.11818159,0.0,0.0,0.0
765,7.65,1.3439494,-0.34819618,0.11818159,0.0,0.0,0.0
766,7.66,1.1187573,-0.43365809499999997,0.0874153125,0.0,0.0,0.0
767,7.67,0.863043075,-0.45648860999999996,0.10939122500000001,0.0,0.0,0.0
768,7.68,0.5987216,-0.4649127,0.0791132925,0.0,0.0,0.0
769,7.69,0.5987216,-0.4649127,0.05567232,0.0,0.0,0.0
770,7.7,0.5657926085714285,-0.4582850485714286,0.03725441,0.0,0.0,0.0
771,7.71,0.31962747999999996,-0.41461231,-0.07715988,0.0,0.0,0.0
772,7.72,0.230014595,-0.40093839,-0.12404182999999999,0.0,0.0,0.0
773,7.73,0.1914346575,-0.3848227025,-0.16701695,0.0,0.0,0.0
774,7.74,0.20852703,-0.34038252,-0.16701695,0.0,0.0,0.0
775,7.75,0.20852703,-0.34038252,-0.16701695,0.0,0.0,0.0
776,7.76,0.1206233625,-0.41363559,-0.47724363499999994,0.0,0.0,0.0
777,7.77,0.0722763479125,-0.266641125,-0.63467667625,0.0,0.0,0.0
778,7.78,0.13039044,-0.21927081,-0.6119072,0.0,0.0,0.0
779,7.79,0.13039044,-0.21927081,-0.4673545,0.0,0.0,0.0
780,7.8,0.13039044,-0.21927081,-0.4673545,0.0,0.0,0.0
781,7.81,-0.18710051,-0.270547945,-0.45709903625,0.0,0.0,0.0
782,7.82,-0.25003709875,-0.26468769875,-0.4102170825,0.0,0.0,0.0
783,7.83,-0.28324515250000004,-0.2397816575,-0.3403825225,0.0,0.0,0.0
784,7.84,-0.29496562,-0.23099129,-0.27591985,0.0,0.0,0.0
785,7.85,-0.30522104625,-0.23245635125,-0.26963229375000003,0.0,0.0,0.0
786,7.86,-0.39068297875,-0.24954873249999998,-0.24912141,0.0,0.0,0.0
787,7.87,-0.42828618,-0.27347806,-0.40533357999999997,0.0,0.0,0.0
788,7.88,-0.47467977250000004,-0.2954539625,-0.502516,0.0,0.0,0.0
789,7.89,-0.5814460975,-0.3687070175,-0.6180726624999999,0.0,0.0,0.0
790,7.9,-0.66171926,-0.42242593,-0.8106671,0.0,0.0,0.0
791,7.91,-0.74180925,-0.44562272999999997,-0.89661735,0.0,0.0,0.0
792,7.92,-0.87464143,-0.4756564875,-1.011868825,0.0,0.0,0.0
793,7.93,-0.93910414,-0.47272637,-1.0528905,0.0,0.0,0.0
794,7.94,-0.93910414,-0.47272637,-1.0528905,0.0,0.0,0.0
795,7.95,-0.93910414,-0.47272637,-1.1228472,0.0,0.0,0.0
796,7.96,-0.9795764475,-0.48688862374999997,-1.1364600625,0.0,0.0,0.0
797,7.97,-1.29499185,-0.5987216,-1.096720275,0.0,0.0,0.0
798,7.98,-1.3913196000000003,-0.6368132,-1.2047685,0.0,0.0,0.0
799,7.99,-1.3724569875000001,-0.6382782499999999,-1.2208842,0.0,0.0,0.0
800,8.0,-1.3249035999999998,-0.6377899,-1.2697196375,0.0,0.0,0.0
801,8.01,-1.2980441,-0.6329064,-1.3063462,0.0,0.0,0.0
802,8.02,-1.2658127375000001,-0.61679071875,-1.2584875500000001,0.0,0.0,0.0
803,8.03,-1.2120938,-0.58993125,-1.2282095750000002,0.0,0.0,0.0
804,8.04,-1.174002275,-0.5752806375,-1.082069675,0.0,0.0,0.0
805,8.05,-1.11637655,-0.54109585,-1.0353097999999998,0.0,0.0,0.0
806,8.06,-1.071448,-0.5117946,-1.0138222,0.0,0.0,0.0
807,8.07,-0.9314997457142857,-0.47565649285714284,-0.9245233214285714,0.0,0.0,0.0
808,8.08,-0.86487436,-0.4536806,-0.9356857,0.0,0.0,0.0
809,8.09,-0.75401809625,-0.437076565,-0.9518013624999999,0.0,0.0,0.0
810,8.1,-0.6441385150000001,-0.42828617,-0.9942880999999999,0.0,0.0,0.0
811,8.11,-0.5378605375000001,-0.43512311124999997,-1.0040551625,0.0,0.0,0.0
812,8.12,-0.3794508125,-0.45923558625,-0.9942881,0.0,0.0,0.0
813,8.13,-0.3457544,-0.4649127,-0.9942881,0.0,0.0,0.0
814,8.14,-0.2080386725,-0.48249345,-0.959126675,0.0,0.0,0.0
815,8.15,-0.16213343,-0.48835369999999995,-0.9395925342857143,0.0,0.0,0.0
816,8.16,-0.16213343,-0.4883537,-0.92005837,0.0,0.0,0.0
817,8.17,-0.035588777375,-0.5122830225,-0.84924708125,0.0,0.0,0.0
818,8.18,0.032719698,-0.53523564,-0.8175040975,0.0,0.0,0.0
819,8.19,0.08546189625,-0.5484211875,-0.77013376,0.0,0.0,0.0
820,8.2,0.17336556,-0.5703971,-0.74815786,0.0,0.0,0.0
821,8.21,0.17336556,-0.5703971,-0.7403442025,0.0,0.0,0.0
822,8.22,0.29716320749999997,-0.609465415,-0.582483875,0.0,0.0,0.0
823,8.23,0.3760323199999999,-0.6289996,-0.5220501,0.0,0.0,0.0
824,8.24,0.606535285,-0.64853368,-0.43805325,0.0,0.0,0.0
825,8.25,0.81280368875,-0.6377899375,-0.3731022125,0.0,0.0,0.0
826,8.26,0.8873387,-0.6289996,-0.35405642,0.0,0.0,0.0
827,8.27,1.00729055,-0.6289996,-0.29856723125,0.0,0.0,0.0
828,8.28,1.239441625,-0.6289996,-0.20608525,0.0,0.0,0.0
829,8.29,1.3683669625,-0.6158140375,-0.08448518499999999,0.0,0.0,0.0
830,8.3,1.461154275,-0.56697864375,0.20578003374999998,0.0,0.0,0.0
831,8.31,1.4845953,-0.55086297,0.2583391,0.0,0.0,0.0
832,8.32,1.6472868,-0.4423089185714285,0.4261234614285714,0.0,0.0,0.0
833,8.33,1.8200942,-0.32866204,0.5943264125,0.0,0.0,0.0
834,8.34,1.9809457625,-0.226107765,0.6841834999999999,0.0,0.0,0.0
835,8.35,2.061340925,-0.14259928125000002,0.7252052225,0.0,0.0,0.0
836,8.36,2.0344813,-0.10597275,0.76183176,0.0,0.0,0.0
837,8.37,1.920389725,-0.072459478875,0.824829375,0.0,0.0,0.0
838,8.38,1.7302371,-0.016604027,0.9419732000000001,0.0,0.0,0.0
839,8.39,1.654176,-0.019534149,1.02993795,0.0,0.0,0.0
840,8.4,1.4259927,-0.028324515,0.99056446875,0.0,0.0,0.0
841,8.41,1.4259927,-0.028324515,0.91029125,0.0,0.0,0.0
842,8.42,1.4259927,-0.028324515,0.91029125,0.0,0.0,0.0
843,8.43,1.577260275,0.142599266875,0.8712229725,0.0,0.0,0.0
844,8.44,1.9820444375,0.21243384499999998,0.93452585,0.0,0.0,0.0
845,8.45,2.37608485,0.36016085499999995,1.12077175,0.0,0.0,0.0
846,8.46,2.5262537,0.43219304,1.2340698,0.0,0.0,0.0
847,8.47,2.578995875,0.47907498,1.322828075,0.0,0.0,0.0
848,8.48,2.8036385,0.7916213,1.7766306,0.0,0.0,0.0
849,8.49,2.61806415,1.085854375,1.9814950000000002,0.0,0.0,0.0
850,8.5,2.4676512500000003,1.25555725,2.22909035,0.0,0.0,0.0
851,8.51,2.452024,1.2985324000000003,2.2718213,0.0,0.0,0.0
852,8.52,2.452024,1.2985324,2.2718213,0.0,0.0,0.0
853,8.53,2.598529975,1.4245276,2.623313925,0.0,0.0,0.0
854,8.54,2.5429797,1.4909436999999999,2.952098,0.0,0.0,0.0
855,8.55,2.0874677999999998,1.56615025,3.0585591,0.0,0.0,0.0
856,8.56,1.9451127,1.5681037,3.0448852,0.0,0.0,0.0
857,8.57,1.9451127,1.5681037,3.0448852,0.0,0.0,0.0
858,8.58,1.696052325,1.5212218,2.8866586,0.0,0.0,0.0
859,8.59,1.6936105125,1.4518755625,2.704319625,0.0,0.0,0.0
860,8.6,1.7877232428571428,1.4040168857142858,2.603343785714286,0.0,0.0,0.0
861,8.61,1.9021376,1.3649486,2.4749765,0.0,0.0,0.0
862,8.62,1.9021376,1.3649486,2.4749765,0.0,0.0,0.0
863,8.63,2.0083545000000003,1.303538125,2.2662053,0.0,0.0,0.0
864,8.64,2.1575465625000003,1.1442127375,1.9013439625000002,0.0,0.0,0.0
865,8.65,2.10871125,0.93006955,1.72388845,0.0,0.0,0.0
866,8.66,2.069643,0.7916213,1.6437985,0.0,0.0,0.0
867,8.67,2.069643,0.7916213,1.6437985,0.0,0.0,0.0
868,8.68,2.05694575,0.6231393,1.5148732,0.0,0.0,0.0
869,8.69,2.0450857142857144,0.4224259342857143,1.3359962142857142,0.0,0.0,0.0
870,8.7,2.03252805,0.26859452,1.1559332000000002,0.0,0.0,0.0
871,8.71,2.0266678,0.20999208,1.0777966,0.0,0.0,0.0
872,8.72,2.0266678,0.20999208,1.0777966,0.0,0.0,0.0
873,8.73,2.0462019,0.1294137225,0.93299975,0.0,0.0,0.0
874,8.74,1.9756958125,-0.0377863675,0.7681803625,0.0,0.0,0.0
875,8.75,1.8459768875,-0.15822658875,0.7046943525,0.0,0.0,0.0
876,8.76,1.80056,-0.19192299,0.6797883,0.0,0.0,0.0
877,8.77,1.8005599999999997,-0.19192299,0.6797883,0.0,0.0,0.0
878,8.78,1.7025840875,-0.23587481999999999,0.5964629625,0.0,0.0,0.0
879,8.79,1.4748281749999999,-0.331592145,0.4448902,0.0,0.0,0.0
880,8.8,1.2434705,-0.3960548425,0.38628775000000004,0.0,0.0,0.0
881,8.81,1.129562,-0.38726446,0.3247552,0.0,0.0,0.0
882,8.82,1.129562,-0.38726446,0.3247552,0.0,0.0,0.0
883,8.83,1.1266318874999999,-0.391171295,0.30912788375,0.0,0.0,0.0
884,8.84,1.10758615,-0.4082637,0.19827160124999998,0.0,0.0,0.0
885,8.85,1.1217484,-0.39898495,0.19582982,0.0,0.0,0.0
886,8.86,1.130538775,-0.40631025,0.19827159,0.0,0.0,0.0
887,8.87,1.1100279,-0.4028918,0.21536398,0.0,0.0,0.0
888,8.88,1.0890287,-0.41162112125,0.196867583,0.0,0.0,0.0
889,8.89,0.9420343,-0.47272637,0.067392804,0.0,0.0,0.0
890,8.9,0.59872158,-0.537189025,-0.030277929600000003,0.0,0.0,0.0
891,8.91,0.5362123,-0.5469561,-0.057625737,0.0,0.0,0.0
892,8.92,0.43072794999999997,-0.538165755,-0.00781365975,0.0,0.0,0.0
893,8.93,0.3824419925,-0.53279387625,0.0117204885,0.0,0.0,0.0
894,8.94,0.24759532,-0.49421395,0.0224642715,0.0,0.0,0.0
895,8.95,0.18117922,-0.482493445,-0.0888803715,0.0,0.0,0.0
896,8.96,0.15773824,-0.49226052,-0.19045794,0.0,0.0,0.0
897,8.97,0.0859502475,-0.50935284,-0.34386203000000004,0.0,0.0,0.0
898,8.98,0.07569482,-0.5117946,-0.3657769,0.0,0.0,0.0
899,8.99,0.001953415124999999,-0.3862877625,-0.797054275,0.0,0.0,0.0
900,9.0,0.004883537249999999,-0.36284679375,-0.9000358625,0.0,0.0,0.0
901,9.01,-0.041510064,-0.36773035,-1.0127845125000001,0.0,0.0,0.0
902,9.02,-0.041510064,-0.36773035,-1.169607,0.0,0.0,0.0
903,9.03,-0.097121341,-0.38476168125,-1.1871877375,0.0,0.0,0.0
904,9.04,-0.5933497485714286,-0.5374680971428571,-1.4289228857142857,0.0,0.0,0.0
905,9.05,-0.8607233700000001,-0.6133722100000001,-1.5891028999999999,0.0,0.0,0.0
906,9.06,-0.9854977,-0.64462686,-1.6535656,0.0,0.0,0.0
907,9.07,-1.3292987,-0.74229765,-1.7043544,0.0,0.0,0.0
908,9.08,-1.3292987,-0.74229765,-1.7043544,0.0,0.0,0.0
909,9.09,-1.6188924999999998,-0.8209225225,-1.7439110125,0.0,0.0,0.0
910,9.1,-1.69995925,-0.82629445,-1.69654075,0.0,0.0,0.0
911,9.11,-1.7077729,-0.8126206,-1.6535656,0.0,0.0,0.0
912,9.12,-1.65405395,-0.72911205,-1.4722032624999999,0.0,0.0,0.0
913,9.13,-1.6335431,-0.70713615,-1.4196442,0.0,0.0,0.0
914,9.14,-1.56273185,-0.63632486875,-1.2560456375,0.0,0.0,0.0
915,9.15,-1.48899045,-0.572350535,-1.1053885,0.0,0.0,0.0
916,9.16,-1.4577358,-0.55086297,-1.0528905,0.0,0.0,0.0
917,9.17,-1.3945549875,-0.51179467625,-1.0626575624999999,0.0,0.0,0.0
918,9.18,-1.3566465,-0.48835369999999995,-1.0685178,0.0,0.0,0.0
919,9.19,-1.29609065,-0.47101715,-1.098551625,0.0,0.0,0.0
920,9.2,-1.222349275,-0.446355275,-1.1661886125,0.0,0.0,0.0
921,9.21,-1.2003734,-0.4341464,-1.2321163,0.0,0.0,0.0
922,9.22,-1.1642352249999999,-0.4380532325,-1.2223492999999999,0.0,0.0,0.0
923,9.23,-1.0558207,-0.44977373,-1.2399299,0.0,0.0,0.0
924,9.24,-1.0164471625,-0.45838097,-1.1945130499999999,0.0,0.0,0.0
925,9.25,-0.83752655,-0.51765491,-1.10148175,0.0,0.0,0.0
926,9.26,-0.7242285,-0.56258345,-1.0841452,0.0,0.0,0.0
927,9.27,-0.6012854750000001,-0.6153256625,-0.9806142,0.0,0.0,0.0
928,9.28,-0.4746798,-0.687602,-0.88099,0.0,0.0,0.0
929,9.29,-0.41119381499999996,-0.7266702925,-0.8643859850000001,0.0,0.0,0.0
930,9.3,-0.18471977650000002,-0.8652406525,-0.8057835675,0.0,0.0,0.0
931,9.31,-0.076671526,-0.9293371,-0.77941245,0.0,0.0,0.0
932,9.32,0.08595024875,-1.075354875,-0.6565305,0.0,0.0,0.0
933,9.33,0.16164507,-1.136399,-0.6275345,0.0,0.0,0.0
934,9.34,0.16164507,-1.136399,-0.6275345,0.0,0.0,0.0
935,9.35,0.321825065,-1.2760071124999999,-0.37798574500000004,0.0,0.0,0.0
936,9.36,0.38824118375,-1.3268569749999999,-0.2833061725,0.0,0.0,0.0
937,9.37,0.465401065,-1.3581115875,-0.13722737875,0.0,0.0,0.0
938,9.38,0.49714403999999995,-1.3703204,-0.0006976471428571444,0.0,0.0,0.0
939,9.39,0.5059344,-1.4040168124999999,0.07569482375,0.0,0.0,0.0
940,9.4,0.520585,-1.4806883499999999,0.11427476624999999,0.0,0.0,0.0
941,9.41,0.520585,-1.5148731,0.13380891,0.0,0.0,0.0
942,9.42,0.6148372625,-1.55784825,0.289166415,0.0,0.0,0.0
943,9.43,0.8493691125,-1.68268365,0.29252385,0.0,0.0,0.0
944,9.44,1.2423716875,-1.868929475,0.21750052,0.0,0.0,0.0
945,9.45,1.574147,-2.030086225,0.08839201375,0.0,0.0,0.0
946,9.46,1.6677278,-2.0769682,0.05176549,0.0,0.0,0.0
947,9.47,1.8357214499999999,-2.2659612,0.52009667,0.0,0.0,0.0
948,9.48,1.8669761,-2.3187034,0.9024776,0.0,0.0,0.0
949,9.49,1.8513488,-2.35777165,1.09171465,0.0,0.0,0.0
950,9.5,1.9351014,-2.42614115,1.3900988,0.0,0.0,0.0
951,9.51,2.0344813,-2.4554424,1.4992459,0.0,0.0,0.0
952,9.52,2.48816205,-2.394886525,1.5705455,0.0,0.0,0.0
953,9.53,2.9594233,-2.2679145,1.53929085,0.0,0.0,0.0
954,9.54,3.0595358624999998,-2.0704364375,1.6320780625,0.0,0.0,0.0
955,9.55,3.0219326,-1.8992073999999999,1.7959207,0.0,0.0,0.0
956,9.56,2.9242618,-1.8464652,1.9919947,0.0,0.0,0.0
957,9.57,2.804248925,-1.7948217999999998,2.24776995,0.0,0.0,0.0
958,9.58,2.4442103,-1.6398916,2.303076,0.0,0.0,0.0
959,9.59,2.4442103,-1.6398916,2.303076,0.0,0.0,0.0
960,9.6,2.4671628375,-1.291024,2.1627353625,0.0,0.0,0.0
961,9.61,2.584856,-1.0582623,2.0139706875,0.0,0.0,0.0
962,9.62,2.67275975,-0.937394835,1.9148347000000001,0.0,0.0,0.0
963,9.63,2.7428037,-0.7584830357142857,1.8464651999999997,0.0,0.0,0.0
964,9.64,2.6981542,-0.6133722,1.8464652,0.0,0.0,0.0
965,9.65,2.508917125,-0.56856575,1.8562322999999998,0.0,0.0,0.0
966,9.66,1.9412059,-0.4341464,1.8855336,0.0,0.0,0.0
967,9.67,2.0618293,-0.23294471,2.05548075,0.0,0.0,0.0
968,9.68,2.1516864,-0.16066837,2.1370358875,0.0,0.0,0.0
969,9.69,2.1516864,-0.16066837,2.2176142,0.0,0.0,0.0
970,9.7,2.32242705,0.06318076624999999,2.332682525,0.0,0.0,0.0
971,9.71,2.6629927,0.5298638,2.5999951,0.0,0.0,0.0
972,9.72,3.248345625,1.0160808749999999,3.24816255,0.0,0.0,0.0
973,9.73,3.619189,1.3073227625,3.7796745124999998,0.0,0.0,0.0
974,9.74,3.619189,1.4391782,4.1334257,0.0,0.0,0.0
975,9.75,3.619189,1.4391782,4.1334257,0.0,0.0,0.0
976,9.76,4.4246676250000005,1.2208232625,4.451954225,0.0,0.0,0.0
977,9.77,3.936130771428572,0.8149926057142858,3.7146971,0.0,0.0,0.0
978,9.78,3.1313238,0.31547648,2.9749285375,0.0,0.0,0.0
979,9.79,3.1313238,0.31547648,2.6117156,0.0,0.0,0.0
980,9.8,3.1313238,0.31547648,2.6117156,0.0,0.0,0.0
981,9.81,1.8404218625,-0.44257053874999996,1.9797248,0.0,0.0,0.0
982,9.82,1.506021675,-0.705182715,2.0481554625,0.0,0.0,0.0
983,9.83,1.4767815,-0.75401807,2.1433845,0.0,0.0,0.0
984,9.84,1.4767815,-0.75401807,2.1433845,0.0,0.0,0.0
985,9.85,1.4767815,-0.75401807,2.1433845,0.0,0.0,0.0
986,9.86,1.6010065,-0.9270783387499999,2.2358664375,0.0,0.0,0.0
987,9.87,1.8044669,-1.19109465,2.0672012,0.0,0.0,0.0
988,9.88,1.8200942,-1.2496971,1.8354163625,0.0,0.0,0.0
989,9.89,1.8200942,-1.2496971,1.6477053,0.0,0.0,0.0
990,9.9,1.8200942,-1.2496971,1.6477053,0.0,0.0,0.0
991,9.91,1.81667575,-1.2937100375,1.3165404625,0.0,0.0,0.0
992,9.92,1.8552556999999998,-1.2982882999999998,1.24579025,0.0,0.0,0.0
993,9.93,1.830838,-1.300974275,1.153003125,0.0,0.0,0.0
994,9.94,1.968274657142857,-1.2907885285714287,1.2469065285714287,0.0,0.0,0.0
995,9.95,2.0383883,-1.2809517,1.2536039,0.0,0.0,0.0
996,9.96,2.0579224875,-1.2809517,1.2926722125,0.0,0.0,0.0
997,9.97,1.8916990625,-1.324598325,1.3429726,0.0,0.0,0.0
998,9.98,1.7849327,-1.3507863,1.321973425,0.0,0.0,0.0
999,9.99,1.6464843999999998,-1.3410191999999999,1.24579025,0.0,0.0,0.0
