id,timestamp,acc_x,acc_y,acc_z,gyro_x,gyro_y,gyro_z
0,0.0,0.017092379,0.5211819333333333,0.9279805555555556,0.0,0.0,0.0
1,0.01,0.0784854157142857,0.5097715014285714,0.96401024,0.0,0.0,0.0
2,0.02,0.11866995,0.48298177,0.96401024,0.0,0.0,0.0
3,0.03,0.089368725,0.4536805575,0.9884279025,0.0,0.0,0.0
4,0.04,0.026371097625,0.43756490625,0.9811025624999999,0.0,0.0,0.0
5,0.05,-0.085767113125,0.46149424499999997,0.8751297875,0.0,0.0,0.0
6,0.06,-0.16994707,0.5103296,0.6631843,0.0,0.0,0.0
7,0.07,-0.16994707,0.5103296,0.6631843,0.0,0.0,0.0
8,0.08,-0.14001797071428573,0.48688861571428577,0.6765791414285715,0.0,0.0,0.0
9,0.09,-0.023929330425000003,0.4321930275,0.8731764325,0.0,0.0,0.0
10,0.1,0.06592775055,0.39898497,0.9327556,0.0,0.0,0.0
11,0.11,0.0498120781875,0.3226186475,1.317944475,0.0,0.0,0.0
12,0.12,0.0014650611,0.2920355,1.5490578,0.0,0.0,0.0
13,0.13,0.0268594528,0.272501355,1.5422208499999999,0.0,0.0,0.0
14,0.14,0.058602443000000004,0.28568690375,1.5319654249999999,0.0,0.0,0.0
15,0.15,0.06495103975,0.34074878249999996,1.5676152749999999,0.0,0.0,0.0
16,0.16,0.09132214,0.38140425,1.6232877,0.0,0.0,0.0
17,0.17,0.09522897,0.29594234,1.7170515,0.0,0.0,0.0
18,0.18,0.10841452124999999,0.15547960625,1.661379225,0.0,0.0,0.0
19,0.19,0.19338806249999999,-0.056832164,1.51163785,0.0,0.0,0.0
20,0.2,0.3524082275,0.027836159750000002,1.4167141,0.0,0.0,0.0
21,0.21,0.44049503,0.221712568,1.3542048000000002,0.0,0.0,0.0
22,0.22,0.43854162,0.33501062,1.2916955,0.0,0.0,0.0
23,0.23,0.25321139000000004,0.456854875,1.2302850250000001,0.0,0.0,0.0
24,0.24,-0.13014626749999997,0.7121417925,1.125044825,0.0,0.0,0.0
25,0.25,0.42291429999999997,0.36840183,1.465854725,0.0,0.0,0.0
26,0.26,0.44733198750000003,0.3506379525,1.67896005,0.0,0.0,0.0
27,0.27,0.3447777,0.36235842,1.7990949,0.0,0.0,0.0
28,0.28,0.3447777,0.36235842,1.7990949,0.0,0.0,0.0
29,0.29,0.5913962975,0.45465726375,1.6271944625,0.0,0.0,0.0
30,0.3,0.60653526,0.46344763,1.6311013,0.0,0.0,0.0
31,0.31,0.50886454,0.455633965,1.5998467,0.0,0.0,0.0
32,0.32,0.41119382,0.4478203,1.5685921,0.0,0.0,0.0
33,0.33,0.40386851375,0.4404949975,1.5598017375,0.0,0.0,0.0
34,0.34,0.32098790857142856,0.37938104714285714,1.4932460428571428,0.0,0.0,0.0
35,0.35,0.27884996,0.36626527,1.4865485,0.0,0.0,0.0
36,0.36,0.217317385,0.37230863000000003,1.4896618625,0.0,0.0,0.0
37,0.37,0.21243386,0.37017208,1.4557823,0.0,0.0,0.0
38,0.38,0.21243386,0.37017208,1.4557823,0.0,0.0,0.0
39,0.39,0.2720130025,0.43036167375,1.256534,0.0,0.0,0.0
40,0.4,0.33134798499999996,0.461494235,1.1783974,0.0,0.0,0.0
41,0.41,0.375055645,0.4683312,1.1499508,0.0,0.0,0.0
42,0.42,0.40728697,0.4712613,1.064611,0.0,0.0,0.0
43,0.43,0.45807576,0.5259569,0.98745114,0.0,0.0,0.0
44,0.44,0.47956330999999996,0.62509272,0.772087175,0.0,0.0,0.0
45,0.45,0.5479328,0.63534814,0.7960165,0.0,0.0,0.0
46,0.46,0.63388306,0.62362766,0.88587356,0.0,0.0,0.0
47,0.47,0.61727905125,0.5826059825,0.98061418625,0.0,0.0,0.0
48,0.48,0.4966556875,0.51570149375,0.93763914,0.0,0.0,0.0
49,0.49,0.36040503,0.5103296,0.7530414,0.0,0.0,0.0
50,0.5,0.338917465,0.5240035000000001,0.7530414,0.0,0.0,0.0
51,0.51,0.33975463142857143,0.5733969999999999,0.6729513828571428,0.0,0.0,0.0
52,0.52,0.3912255688888889,0.6023571444444444,0.5673041977777777,0.0,0.0,0.0
53,0.53,0.42779784,0.6216742387499999,0.5220501,0.0,0.0,0.0
54,0.54,0.44356468000000004,0.6610216099999999,0.5129806714285714,0.0,0.0,0.0
55,0.55,0.45416894500000005,0.6910204950000001,0.5342589075,0.0,0.0,0.0
56,0.56,0.5088646,0.72520524,0.58553606,0.0,0.0,0.0
57,0.57,0.523515175,0.72813531,0.5913963275,0.0,0.0,0.0
58,0.58,0.4502621,0.7838077,0.4302396025,0.0,0.0,0.0
59,0.59,0.435611475,0.7886911999999999,0.3179182575,0.0,0.0,0.0
60,0.6,0.423891,0.7623201125,0.18642901499999998,0.0,0.0,0.0
61,0.61,0.4229143,0.746692775,0.2206137775,0.0,0.0,0.0
62,0.62,0.41851912,0.73594899375,0.28983790875,0.0,0.0,0.0
63,0.63,0.41119382,0.7212984,0.37163714,0.0,0.0,0.0
64,0.64,0.41119382,0.7212984,0.37163714,0.0,0.0,0.0
65,0.65,0.23636317125,0.62997625,0.19808846125,0.0,0.0,0.0
66,0.66,0.18117921250000002,0.62509273,0.1235534805,0.0,0.0,0.0
67,0.67,0.15383142,0.6104421275,-0.005371891624999998,0.0,0.0,0.0
68,0.68,0.15383142,0.6119072,-0.027347807,0.0,0.0,0.0
69,0.69,0.15383142,0.6119072,-0.027347807,0.0,0.0,0.0
70,0.7,0.018557439625,0.54109589875,-0.090345429625,0.0,0.0,0.0
71,0.71,-0.11543460762499999,0.4751681375,-0.16018001,0.0,0.0,0.0
72,0.72,-0.2134105675,0.42486769375,-0.25412704625,0.0,0.0,0.0
73,0.73,-0.24417685,0.40875202,-0.29643068,0.0,0.0,0.0
74,0.74,-0.24515355375,0.3830524125,-0.32866202375,0.0,0.0,0.0
75,0.75,-0.21292222,0.303756,-0.38238093,0.0,0.0,0.0
76,0.76,-0.16994707,0.27250138,-0.49567902,0.0,0.0,0.0
77,0.77,-0.152854715,0.1938764175,-0.50593444,0.0,0.0,0.0
78,0.78,-0.2353864725,0.050788783775,-0.52791035,0.0,0.0,0.0
79,0.79,-0.26371098,0.0068369517,-0.5347473,0.0,0.0,0.0
80,0.8,-0.427309475,-0.11818158312499999,-0.748829325,0.0,0.0,0.0
81,0.81,-0.53499147,-0.19582982,-0.9327555249999999,0.0,0.0,0.0
82,0.82,-0.71543814375,-0.30863953,-1.0069853,0.0,0.0,0.0
83,0.83,-0.78283095,-0.34819618,-1.0069853,0.0,0.0,0.0
84,0.84,-0.78283095,-0.34819618,-1.0069853,0.0,0.0,0.0
85,0.85,-1.2233871062500001,-0.5938991725,-1.027068825,0.0,0.0,0.0
86,0.86,-1.4466431,-0.6892763714285713,-0.9165002971428572,0.0,0.0,0.0
87,0.87,-1.6061952,-0.73839074,-0.7921097,0.0,0.0,0.0
88,0.88,-1.7241327124999999,-0.8048068575,-0.783807675,0.0,0.0,0.0
89,0.89,-1.8166758,-0.85559565,-0.7803892,0.0,0.0,0.0
90,0.9,-1.8606276125,-0.86536274375,-0.797481575,0.0,0.0,0.0
91,0.91,-1.8879754,-0.871223,-0.804806875,0.0,0.0,0.0
92,0.92,-1.8762548749999999,-0.8673161625,-0.7921096750000001,0.0,0.0,0.0
93,0.93,-1.832303,-0.85559565,-0.7803892,0.0,0.0,0.0
94,0.94,-1.832303,-0.85559565,-0.7803892,0.0,0.0,0.0
95,0.95,-1.6763350625,-0.82873624375,-0.7388791375,0.0,0.0,0.0
96,0.96,-1.4528522375,-0.7852727374999999,-0.6763698874999999,0.0,0.0,0.0
97,0.97,-1.2589759,-0.7579249,-0.6983458,0.0,0.0,0.0
98,0.98,-0.90730012625,-0.73057709875,-0.7369257124999999,0.0,0.0,0.0
99,0.99,-0.85706073,-0.72667027,-0.7413209,0.0,0.0,0.0
100,1.0,-0.65903329875,-0.7198333299999999,-0.71690319375,0.0,0.0,0.0
101,1.01,-0.46784282,-0.70908955,-0.6846718374999999,0.0,0.0,0.0
102,1.02,-0.3369640525,-0.68711361625,-0.6100147699999999,0.0,0.0,0.0
103,1.03,-0.22073586,-0.65634733,-0.45661068,0.0,0.0,0.0
104,1.04,-0.22073586,-0.65634733,-0.45661068,0.0,0.0,0.0
105,1.05,-0.22073586,-0.65634733,-0.45661068,0.0,0.0,0.0
106,1.06,0.0650120813125,-0.6944389287499999,0.004456229375000006,0.0,0.0,0.0
107,1.07,0.3509431725,-0.7256935375,0.0996241525,0.0,0.0,0.0
108,1.08,0.5264453,-0.72276345,0.04492854,0.0,0.0,0.0
109,1.09,0.59481484,-0.7149498,0.0,0.0,0.0,0.0
110,1.1,0.59481484,-0.7149498,0.0,0.0,0.0,0.0
111,1.11,0.83288725,-0.7169032,-0.0703229345,0.0,0.0,0.0
112,1.12,1.0357982,-0.6993224499999999,-0.007813659,0.0,0.0,0.0
113,1.13,1.098307457142857,-0.7021130371428572,0.1159491292857143,0.0,0.0,0.0
114,1.14,1.1178416,-0.71885663,0.4253561,0.0,0.0,0.0
115,1.15,1.11832995,-0.72276346375,0.46192157500000003,0.0,0.0,0.0
116,1.16,1.1217484,-0.7501113,0.7178799,0.0,0.0,0.0
117,1.17,1.1193066249999999,-0.7535297750000001,0.747669475,0.0,0.0,0.0
118,1.18,1.08463347,-0.7896679375,0.9649868625,0.0,0.0,0.0
119,1.19,0.96156836,-0.8751298,1.0265194,0.0,0.0,0.0
120,1.2,0.96156836,-0.8751298,1.0265194,0.0,0.0,0.0
121,1.21,1.2580601200000001,-1.04367295,0.3058314975,0.0,0.0,0.0
122,1.22,1.4767815142857141,-1.0789128285714287,0.12501854,0.0,0.0,0.0
123,1.23,1.550889175,-1.0944006000000002,0.14064586,0.0,0.0,0.0
124,1.24,1.597405,-1.1207718,0.18752782,0.0,0.0,0.0
125,1.25,1.597405,-1.1207718,0.18752782,0.0,0.0,0.0
126,1.26,1.60082345,-1.1617934625,1.0442833525,0.0,0.0,0.0
127,1.27,1.6052186,-1.1520264,1.3659253,0.0,0.0,0.0
128,1.28,1.7092378874999998,-1.216489025,1.2033034875,0.0,0.0,0.0
129,1.29,1.9681351,-1.2759286285714284,0.8991987085714285,0.0,0.0,0.0
130,1.3,2.0032268,-1.2809517,0.86243266,0.0,0.0,0.0
131,1.31,2.277925775,-1.2853469375,0.7435185,0.0,0.0,0.0
132,1.32,2.5594617499999996,-1.28290515,0.614837285,0.0,0.0,0.0
133,1.33,2.64345865,-1.269231175,0.63528711375,0.0,0.0,0.0
134,1.34,2.6981542,-1.2418834,0.8468053,0.0,0.0,0.0
135,1.35,2.6981542,-1.2418834,0.8468053,0.0,0.0,0.0
136,1.36,2.7469896,-1.193048,1.07315725,0.0,0.0,0.0
137,1.37,3.000445075,-0.9890383249999999,1.0779187,0.0,0.0,0.0
138,1.38,3.381988842857143,-0.6107211857142857,0.5907684057142858,0.0,0.0,0.0
139,1.39,3.4238477,-0.4575874,0.09785387,0.0,0.0,0.0
140,1.4,3.4238477,-0.4575874,-0.12892538,0.0,0.0,0.0
141,1.41,3.3219649625,-0.39361306625,-0.16683383375,0.0,0.0,0.0
142,1.42,3.18601955,-0.307174475,-0.19595192,0.0,0.0,0.0
143,1.43,3.180159275,-0.20608527875,-0.029301224000000008,0.0,0.0,0.0
144,1.44,3.1869962625,-0.110428988325,0.044012873999999994,0.0,0.0,0.0
145,1.45,3.1664853,-0.0048835366,-0.19485311,0.0,0.0,0.0
146,1.46,3.0961623375,0.024417683375,-0.41589420875,0.0,0.0,0.0
147,1.47,2.7469284,0.10743781250000001,-1.3171509675,0.0,0.0,0.0
148,1.48,2.7064561124999997,0.28501540625,-1.6741374875,0.0,0.0,0.0
149,1.49,2.8537994285714285,0.49246978571428573,-1.7365856,0.0,0.0,0.0
150,1.5,3.154765,0.7603667,-1.7365856,0.0,0.0,0.0
151,1.51,3.154765,0.7603667,-1.7365856,0.0,0.0,0.0
152,1.52,3.6387234,0.95131296,-1.9822277,0.0,0.0,0.0
153,1.53,3.627979625,0.93617399875,-2.26638845,0.0,0.0,0.0
154,1.54,3.543982825,0.81023981625,-2.3534373874999996,0.0,0.0,0.0
155,1.55,3.4824502,0.67050964,-2.247892,0.0,0.0,0.0
156,1.56,3.50003095,0.633394755,-2.1395996,0.0,0.0,0.0
157,1.57,3.689651714285714,0.41489134285714285,-1.2291164857142856,0.0,0.0,0.0
158,1.58,3.8700403111111106,0.02772764044444445,-0.17759795555555552,0.0,0.0,0.0
159,1.59,3.754533114285714,-0.2678271114285714,0.9289185,0.0,0.0,0.0
160,1.6,3.6387234,-0.3638235,1.3659253,0.0,0.0,0.0
161,1.61,3.6387234,-0.3638235,1.3659253,0.0,0.0,0.0
162,1.62,3.6356100749999998,-0.56069108,1.9564669375000001,0.0,0.0,0.0
163,1.63,3.687131375,-0.69541565,2.231227,0.0,0.0,0.0
164,1.64,3.4258011875000003,-0.847720975,2.3485539875000003,0.0,0.0,0.0
165,1.65,3.4121273,-0.9566849,2.2635193,0.0,0.0,0.0
166,1.66,3.4121273,-0.9566849,2.2635193,0.0,0.0,0.0
167,1.67,3.2043328375,-1.102214325,2.16877875,0.0,0.0,0.0
168,1.68,3.0063053714285712,-1.1648631285714284,1.9021377142857143,0.0,0.0,0.0
169,1.69,2.8463694999999998,-1.2106288,1.7209584,0.0,0.0,0.0
170,1.7,2.5614150875,-1.2918786375,1.6350081374999998,0.0,0.0,0.0
171,1.71,2.4559307,-1.3195317,1.6232877,0.0,0.0,0.0
172,1.72,2.41057485,-1.324903575,1.5944748874999999,0.0,0.0,0.0
173,1.73,2.0930839,-1.3625067,1.5881262,0.0,0.0,0.0
174,1.74,1.7224234,-1.382041,1.5178032,0.0,0.0,0.0
175,1.75,1.4259927,-1.3468795,1.3346707,0.0,0.0,0.0
176,1.76,1.2267444,-1.2496971,1.1823043,0.0,0.0,0.0
177,1.77,1.16228175,-1.132492275,1.0654656249999999,0.0,0.0,0.0
178,1.78,1.1178416,-0.9605917,0.83117795,0.0,0.0,0.0
179,1.79,1.2111171500000002,-0.6543939299999999,0.6087328999999999,0.0,0.0,0.0
180,1.8,1.215024,-0.60946536,0.5347473,0.0,0.0,0.0
181,1.81,1.1959781625,-0.5948147625,0.5230268,0.0,0.0,0.0
182,1.82,1.1307218375,-0.56746698125,0.5113063062500001,0.0,0.0,0.0
183,1.83,0.9884278500000001,-0.533282225,0.43609983750000003,0.0,0.0,0.0
184,1.84,0.8332012214285714,-0.48165625714285715,0.3271969785714286,0.0,0.0,0.0
185,1.85,0.76573859375,-0.4639970375,0.21585233875,0.0,0.0,0.0
186,1.86,0.7574365624999999,-0.46729343,0.0694072725,0.0,0.0,0.0
187,1.87,0.7232518,-0.53523564,-0.23782824,0.0,0.0,0.0
188,1.88,0.5635601,-0.55476975,-0.3745673,0.0,0.0,0.0
189,1.89,0.5049576875,-0.49158903125,-0.150229810625,0.0,0.0,0.0
190,1.9,0.30741865749999997,-0.59682923625,0.0004883516249999959,0.0,0.0,0.0
191,1.91,0.18899289,-0.6758815,-0.08595025,0.0,0.0,0.0
192,1.92,0.09327556085,-0.709089575,-0.064462687,0.0,0.0,0.0
193,1.93,-0.0024417683,-0.74229765,-0.042975124,0.0,0.0,0.0
194,1.94,-0.13478561,-0.5664903,0.29252386,0.0,0.0,0.0
195,1.95,-0.34184757,-0.75401807,0.18752782,0.0,0.0,0.0
196,1.96,-0.65592004375,-0.86981897375,-0.031254633750000003,0.0,0.0,0.0
197,1.97,-1.02859496,-0.9361740199999999,-0.1299020725,0.0,0.0,0.0
198,1.98,-1.243348525,-0.9850093875,-0.16701696,0.0,0.0,0.0
199,1.99,-1.4577358,-1.069983,-0.11232134575000001,0.0,0.0,0.0
200,2.0,-1.463596,-1.0245660749999999,0.064767906875,0.0,0.0,0.0
201,2.01,-1.473363,-0.9488712,0.23782824,0.0,0.0,0.0
202,2.02,-1.4733630000000002,-0.9488712,0.23782824,0.0,0.0,0.0
203,2.03,-1.3807589500000002,-0.9483828275,0.0901012555,0.0,0.0,0.0
204,2.04,-1.4069468875000002,-0.9903812424999999,-0.11714383725,0.0,0.0,0.0
205,2.05,-1.3534112249999999,-0.9845210125,-0.6698381225,0.0,0.0,0.0
206,2.06,-1.3097646,-0.9918463,-0.86243266,0.0,0.0,0.0
207,2.07,-1.3097646,-0.9918463,-0.86243266,0.0,0.0,0.0
208,2.08,-1.2545806124999999,-1.0294496,-1.060276845,0.0,0.0,0.0
209,2.09,-1.0748664125,-0.959615,-1.005825425,0.0,0.0,0.0
210,2.1,-1.0128455,-0.9148259742857142,-0.8741530871428571,0.0,0.0,0.0
211,2.11,-0.9676117512500001,-0.89026874,-0.700482325,0.0,0.0,0.0
212,2.12,-0.89222217,-0.89026874,-0.59334975,0.0,0.0,0.0
213,2.13,-0.7955281725,-0.875984435,-0.5757689925,0.0,0.0,0.0
214,2.14,-0.46625568500000003,-0.846805275,-0.5059344375,0.0,0.0,0.0
215,2.15,-0.3457544,-0.8399683,-0.509841275,0.0,0.0,0.0
216,2.16,-0.3457544,-0.8399683,-0.5464678,0.0,0.0,0.0
217,2.17,-0.3457544,-0.8399683,-0.5464678,0.0,0.0,0.0
218,2.18,-0.1252627205,-0.89441979,-0.6604983849999999,0.0,0.0,0.0
219,2.19,0.058114092,-0.962545135,-0.75890165,0.0,0.0,0.0
220,2.2,0.09522897357142857,-1.021426607142857,-0.75750632,0.0,0.0,0.0
221,2.21,0.127460315,-1.10123755,-0.72960037,0.0,0.0,0.0
222,2.22,0.1655519,-1.1481196,-0.72960037,0.0,0.0,0.0
223,2.23,0.23129652375,-1.2003734,-0.5384099225,0.0,0.0,0.0
224,2.24,0.36968375625,-1.315930025,-0.12373661250000001,0.0,0.0,0.0
225,2.25,0.48933039,-1.423062625,0.186429025,0.0,0.0,0.0
226,2.26,0.75285825,-1.6045470625,0.36187008625,0.0,0.0,0.0
227,2.27,0.9967299,-1.760515,0.44489023,0.0,0.0,0.0
228,2.28,1.0732793375,-1.7815142125,0.47565651,0.0,0.0,0.0
229,2.29,1.4410620428571428,-1.8799524857142857,0.7125080371428572,0.0,0.0,0.0
230,2.3,1.4845953,-1.8933474,0.971823835,0.0,0.0,0.0
231,2.31,1.54686035,-1.88553365,1.12785285,0.0,0.0,0.0
232,2.32,1.6091254,-1.8777199,1.2213726,0.0,0.0,0.0
233,2.33,1.8058098624999999,-1.9021375625,1.2614176000000001,0.0,0.0,0.0
234,2.34,2.3137587625,-1.947066075,1.3263686749999999,0.0,0.0,0.0
235,2.35,2.663908125,-1.9065328000000001,1.2838818250000001,0.0,0.0,0.0
236,2.36,2.916448,-1.8620926,1.3932731,0.0,0.0,0.0
237,2.37,2.916448,-1.8620926,1.3932731,0.0,0.0,0.0
238,2.38,2.9767249,-1.835302885714286,1.5270122428571429,0.0,0.0,0.0
239,2.39,2.8854376999999998,-1.7255977,2.0073779125,0.0,0.0,0.0
240,2.4,2.74894295,-1.6589374,2.111153,0.0,0.0,0.0
241,2.41,2.8410587,-1.609125325,2.0701312625,0.0,0.0,0.0
242,2.42,2.9750507,-1.5578482,2.0017617,0.0,0.0,0.0
243,2.43,3.00868605,-1.539290775,1.9774050625,0.0,0.0,0.0
244,2.44,3.6813932625,-1.0411090250000001,1.8471367,0.0,0.0,0.0
245,2.45,3.89413225,-0.51374809,2.0857586,0.0,0.0,0.0
246,2.46,3.9664085,-0.12941374,2.2596126,0.0,0.0,0.0
247,2.47,3.9195266,0.19827159,2.6263661,0.0,0.0,0.0
248,2.48,3.9195266,0.19827159,2.6263661,0.0,0.0,0.0
249,2.49,3.2598828749999997,0.54353764375,2.7634105,0.0,0.0,0.0
250,2.5,2.9647953124999997,0.83624464375,2.8824465625,0.0,0.0,0.0
251,2.51,2.9633303,0.95912665,2.9774923,0.0,0.0,0.0
252,2.52,3.1049528625000002,1.1712552437500001,3.8165452374999997,0.0,0.0,0.0
253,2.53,3.1899264,1.2985324,4.319977,0.0,0.0,0.0
254,2.54,3.42342025,1.5660282125,4.8489857625,0.0,0.0,0.0
255,2.55,3.61668645,1.718516525,5.0105696875,0.0,0.0,0.0
256,2.56,3.66857385,1.6560683999999999,4.7077902625,0.0,0.0,0.0
257,2.57,3.5801208,1.4821534,4.1168213,0.0,0.0,0.0
258,2.58,3.5801208,1.4821534,4.1168213,0.0,0.0,0.0
259,2.59,2.88726905,0.9309242125,2.757488925,0.0,0.0,0.0
260,2.6,2.3131483125,0.44177696875,1.65551895,0.0,0.0,0.0
261,2.61,2.17317395,0.2920355125,1.5529647,0.0,0.0,0.0
262,2.62,1.9769778249999999,0.07142172,1.5578482249999999,0.0,0.0,0.0
263,2.63,1.7927464,-0.0981591,1.5724988,0.0,0.0,0.0
264,2.64,1.7949788714285713,-0.22931695142857142,1.6897036857142855,0.0,0.0,0.0
265,2.65,1.9816782375,-0.3979472025,1.8932861625,0.0,0.0,0.0
266,2.66,2.1008976,-0.664161,2.1150599,0.0,0.0,0.0
267,2.67,2.069643,-0.80090004,2.1228735,0.0,0.0,0.0
268,2.68,2.069643,-0.80090004,2.1228735,0.0,0.0,0.0
269,2.69,2.082340125,-0.8719555,1.994070225,0.0,0.0,0.0
270,2.7,2.182941,-0.96840537,1.6545424,0.0,0.0,0.0
271,2.71,2.2259161499999998,-0.95668486,1.51023385,0.0,0.0,0.0
272,2.72,2.263030875,-0.9332439125,1.3190433000000001,0.0,0.0,0.0
273,2.73,2.2610774,-0.9293371,1.279975,0.0,0.0,0.0
274,2.74,2.2298226999999997,-0.9234768250000001,1.20574525,0.0,0.0,0.0
275,2.75,2.2052657142857144,-0.8711532271428571,1.0180778714285714,0.0,0.0,0.0
276,2.76,2.2796351,-0.82238761,0.981590925,0.0,0.0,0.0
277,2.77,2.3118663,-0.7305771,0.9015009,0.0,0.0,0.0
278,2.78,2.3118663,-0.7305771,0.9015009,0.0,0.0,0.0
279,2.79,2.15669195,-0.69346222875,0.86194426625,0.0,0.0,0.0
280,2.8,1.7419575,-0.6485337,0.69443893,0.0,0.0,0.0
281,2.81,1.6599141,-0.63876665,0.602872615,0.0,0.0,0.0
282,2.82,1.5666996125000001,-0.625581125,0.49763239625,0.0,0.0,0.0
283,2.83,1.488502,-0.6016518,0.40191507,0.0,0.0,0.0
284,2.84,1.488502,-0.6016518,0.40191507,0.0,0.0,0.0
285,2.85,1.4533405375,-0.58700116875,0.3799391625,0.0,0.0,0.0
286,2.86,1.287579357142857,-0.5246313985714286,0.29866317000000003,0.0,0.0,0.0
287,2.87,1.2072103,-0.49616736,0.26517606,0.0,0.0,0.0
288,2.88,1.2072103,-0.49616736,0.26517606,0.0,0.0,0.0
289,2.89,1.2072103,-0.49616736,0.26517606,0.0,0.0,0.0
290,2.9,0.8369771874999999,-0.4033190925,0.31895600375,0.0,0.0,0.0
291,2.91,0.7740406,-0.39507812,0.342335945,0.0,0.0,0.0
292,2.92,0.700055,-0.33061543,0.33354558,0.0,0.0,0.0
293,2.93,0.6260694,-0.26615274,0.32768533,0.0,0.0,0.0
294,2.94,0.6260694,-0.26615274,0.32768533,0.0,0.0,0.0
295,2.95,0.5925822971428572,-0.20364348857142858,0.1315066757142857,0.0,0.0,0.0
296,2.96,0.57625736,-0.17727238625,-0.0927872025,0.0,0.0,0.0
297,2.97,0.47132236624999996,-0.18899286875,-0.1718394625,0.0,0.0,0.0
298,2.98,0.26322263,-0.22317764,-0.19875994,0.0,0.0,0.0
299,2.99,0.26322263,-0.22317764,-0.19875994,0.0,0.0,0.0
300,3.0,0.14992458,-0.30717447,-0.2516242375,0.0,0.0,0.0
301,3.01,0.125506895,-0.308151185,-0.27689654,0.0,0.0,0.0
302,3.02,0.0595791485,-0.29789574875,-0.23752302500000003,0.0,0.0,0.0
303,3.03,0.052253846,-0.34428933,-0.1719005,0.0,0.0,0.0
304,3.04,0.052253846,-0.34428933,-0.1719005,0.0,0.0,0.0
305,3.05,-0.37072149025,-0.48756012875000004,-0.21041940125000003,0.0,0.0,0.0
306,3.06,-1.0362865,-0.6329064,-0.41754243,0.0,0.0,0.0
307,3.07,-0.911756335,-0.47760990999999997,-0.37078253,0.0,0.0,0.0
308,3.08,-0.86487436,-0.48054004,-0.1719005,0.0,0.0,0.0
309,3.09,-0.86487436,-0.48054004,-0.1719005,0.0,0.0,0.0
310,3.1,-1.002834275,-0.5972565725,-0.25369974125,0.0,0.0,0.0
311,3.11,-1.1300504,-0.687602,-0.41949580625,0.0,0.0,0.0
312,3.12,-1.2531155625000001,-0.75255304,-0.571862165,0.0,0.0,0.0
313,3.13,-1.3320457375,-0.7999233525,-0.6537224374999999,0.0,0.0,0.0
314,3.14,-1.4342948,-0.8634093399999999,-0.760855,0.0,0.0,0.0
315,3.15,-1.49875745,-0.91010815,-0.8170157,0.0,0.0,0.0
316,3.16,-1.6853085749999999,-1.0318913,-0.89759407,0.0,0.0,0.0
317,3.17,-1.7556315,-1.075843125,-0.847782035,0.0,0.0,0.0
318,3.18,-1.79933915,-1.0953773,-0.7940631300000001,0.0,0.0,0.0
319,3.19,-1.8283962,-1.1051444,-0.7530414,0.0,0.0,0.0
320,3.2,-1.84597695,-1.1246785,-0.68662528,0.0,0.0,0.0
321,3.21,-1.8635577,-1.1442126,-0.62020916,0.0,0.0,0.0
322,3.22,-1.520672325,-1.0494720375,-0.4511777625,0.0,0.0,0.0
323,3.23,-1.3991333,-1.0191941,-0.40582192,0.0,0.0,0.0
324,3.24,-0.9590045374999999,-1.0021017625,-0.38531104625,0.0,0.0,0.0
325,3.25,-0.896129,-0.9996599999999999,-0.38628775,0.0,0.0,0.0
326,3.26,-0.8516888125,-0.9981949375,-0.39507811625,0.0,0.0,0.0
327,3.27,-0.486156085,-0.99379975,-0.48786534000000004,0.0,0.0,0.0
328,3.28,-0.43170467,-0.99966,-0.52791035,0.0,0.0,0.0
329,3.29,-0.29496562875,-1.09195885,-0.5440259975,0.0,0.0,0.0
330,3.3,-0.27543148,-1.1051444,-0.54256094,0.0,0.0,0.0
331,3.31,-0.27543148,-1.1051444,-0.54256094,0.0,0.0,0.0
332,3.32,-0.1588370375,-1.1740022749999999,-0.48640028,0.0,0.0,0.0
333,3.33,0.06788116,-1.2926723,-0.4067986175,0.0,0.0,0.0
334,3.34,0.21713425749999998,-1.324720475,-0.29252387,0.0,0.0,0.0
335,3.35,0.46588942,-1.3781341,-0.21438727,0.0,0.0,0.0
336,3.36,0.46588942,-1.3781341,-0.21438727,0.0,0.0,0.0
337,3.37,0.6253717857142858,-1.4093887285714286,-0.1564824754285714,0.0,0.0,0.0
338,3.38,1.0240777,-1.4875253,-0.011720489,0.0,0.0,0.0
339,3.39,1.02017085,-1.53636065,0.224886866375,0.0,0.0,0.0
340,3.4,1.0206591875,-1.600334975,0.35893995,0.0,0.0,0.0
341,3.41,1.0514255,-1.7063078,0.35893995,0.0,0.0,0.0
342,3.42,1.289375825,-1.9949249,0.7940630875,0.0,0.0,0.0
343,3.43,1.5275704,-2.1819644,1.1002609,0.0,0.0,0.0
344,3.44,1.5275704,-2.1819644,1.2760682,0.0,0.0,0.0
345,3.45,1.5275704,-2.1819644,1.2760682,0.0,0.0,0.0
346,3.46,2.1392332,-2.17903415,1.2555573500000001,0.0,0.0,0.0
347,3.47,2.5120214857142855,-2.064410542857143,1.15837498,0.0,0.0,0.0
348,3.48,2.7230601625,-1.9177649250000002,0.8927105725,0.0,0.0,0.0
349,3.49,2.6239245,-1.9519496,0.91322136,0.0,0.0,0.0
350,3.5,2.6239245,-1.9519496,0.91322136,0.0,0.0,0.0
351,3.51,2.32694425,-2.238674325,1.0768809575,0.0,0.0,0.0
352,3.52,2.2054050624999997,-2.3289587625,1.6741376125,0.0,0.0,0.0
353,3.53,2.182941,-2.3304238,1.75612,0.0,0.0,0.0
354,3.54,2.2102888,-2.303076,2.2166374,0.0,0.0,0.0
355,3.55,2.2102888,-2.303076,2.2166374,0.0,0.0,0.0
356,3.56,2.3917121,-2.28744865,2.2322647,0.0,0.0,0.0
357,3.57,2.99745375,-1.9996862375,2.179034125,0.0,0.0,0.0
358,3.58,3.704651,-1.5461278,2.064271,0.0,0.0,0.0
359,3.59,3.704651,-1.5461278,2.064271,0.0,0.0,0.0
360,3.6,3.704651,-1.5461278,2.064271,0.0,0.0,0.0
361,3.61,3.5074956571428575,-1.2416741714285713,2.4278852285714287,0.0,0.0,0.0
362,3.62,2.904849875,-0.7568261125,2.8535726500000003,0.0,0.0,0.0
363,3.63,2.705968,-0.56258345,2.9227967,0.0,0.0,0.0
364,3.64,2.6561557,-0.2875182275,2.793871475,0.0,0.0,0.0
365,3.65,2.6395516,-0.19582982,2.7626169,0.0,0.0,0.0
366,3.66,2.6395516,-0.19582982,2.7344144249999998,0.0,0.0,0.0
367,3.67,2.7113396875,0.22055272075000001,2.812612,0.0,0.0,0.0
368,3.68,2.7801976,0.41265884,2.895449,0.0,0.0,0.0
369,3.69,2.7801976,0.41265884,3.2622025,0.0,0.0,0.0
370,3.7,2.7801976,0.41265884,3.2622025,0.0,0.0,0.0
371,3.71,2.7801976,0.41265884,3.2622025,0.0,0.0,0.0
372,3.72,4.13458545,1.0475186125,3.9545049,0.0,0.0,0.0
373,3.73,4.344883,1.1075861,4.245747,0.0,0.0,0.0
374,3.74,3.8886382124999996,0.7444341475,2.7996096375,0.0,0.0,0.0
375,3.75,3.4668229,0.37359056,2.3143082,0.0,0.0,0.0
376,3.76,3.4668229,0.37359056,2.3143082,0.0,0.0,0.0
377,3.77,3.3175697499999997,0.2331278347625,1.9791754625000002,0.0,0.0,0.0
378,3.78,3.0688145,-0.0009767073,1.4206209,0.0,0.0,0.0
379,3.79,2.53040465,-0.492504674325,1.40597025,0.0,0.0,0.0
380,3.8,2.3509347,-0.65634733,1.4010867,0.0,0.0,0.0
381,3.81,2.3509347,-0.65634733,1.4010867,0.0,0.0,0.0
382,3.82,2.072573025,-1.2973115325,2.106147225,0.0,0.0,0.0
383,3.83,1.9836926,-1.5578482,2.3411674,0.0,0.0,0.0
384,3.84,1.9836926,-1.5578482,2.294704257142857,0.0,0.0,0.0
385,3.85,1.9836926000000001,-1.5578482,2.2869604,0.0,0.0,0.0
386,3.86,1.9836926,-1.5578482,2.2869604000000003,0.0,0.0,0.0
387,3.87,2.163406825,-1.633543025,2.0575562124999998,0.0,0.0,0.0
388,3.88,2.2806118,-1.6633326,1.9822277,0.0,0.0,0.0
389,3.89,2.24691535,-1.664797775,1.6008233625000001,0.0,0.0,0.0
390,3.9,2.2454503,-1.6594259,1.592033,0.0,0.0,0.0
391,3.91,2.2454503,-1.6594259,1.592033,0.0,0.0,0.0
392,3.92,2.2200559,-1.608637075,1.62719445,0.0,0.0,0.0
393,3.93,2.182941,-1.5226868,1.6076603,0.0,0.0,0.0
394,3.94,2.182941,-1.5226868,1.4982692,0.0,0.0,0.0
395,3.95,2.0523063500000003,-1.51682655,1.4067028000000001,0.0,0.0,0.0
396,3.96,1.9216717,-1.5109663,1.3151364,0.0,0.0,0.0
397,3.97,1.69568605,-1.5046176875,1.1190013925,0.0,0.0,0.0
398,3.98,1.1407942,-1.4758048,0.67881167,0.0,0.0,0.0
399,3.99,0.988794145,-1.312084225,0.4740693575,0.0,0.0,0.0
400,4.0,0.93812746,-1.2575107,0.40582192,0.0,0.0,0.0
401,4.01,0.93812746,-1.2575107,0.40582192,0.0,0.0,0.0
402,4.02,0.928360395,-1.155078525,0.40484520749999997,0.0,0.0,0.0
403,4.03,0.8990592,-0.8477819999999999,0.40191507,0.0,0.0,0.0
404,4.04,0.8858736374999999,-0.80236510125,0.34868453875,0.0,0.0,0.0
405,4.05,0.8638977,-0.72667027,0.26145235625,0.0,0.0,0.0
406,4.06,0.8638977,-0.72667027,0.20315515,0.0,0.0,0.0
407,4.07,0.784906475,-0.6593995524999999,0.25284513,0.0,0.0,0.0
408,4.08,0.5479328,-0.4575874,0.40191507,0.0,0.0,0.0
409,4.09,0.5425609124999999,-0.43707654625,0.405821935,0.0,0.0,0.0
410,4.1,0.5049577,-0.29350057,0.33940583,0.0,0.0,0.0
411,4.11,0.5049577,-0.29350057,0.33940583,0.0,0.0,0.0
412,4.12,0.5049577,-0.29350057,0.33940583,0.0,0.0,0.0
413,4.13,0.5283987,-0.16848202,-0.036138174475,0.0,0.0,0.0
414,4.14,0.5283987,-0.16848202,-0.13283221,0.0,0.0,0.0
415,4.15,0.4893304,-0.203643485,-0.20681778,0.0,0.0,0.0
416,4.16,0.4502621,-0.23880495,-0.28080335,0.0,0.0,0.0
417,4.17,0.4502621,-0.23880495,-0.28080335,0.0,0.0,0.0
418,4.18,0.07569482,-0.42633274,-0.33940583,0.0,0.0,0.0
419,4.19,-0.08155507000000001,-0.49085647374999997,-0.33940583,0.0,0.0,0.0
420,4.2,-0.30186363,-0.58211760625,-0.31889494625,0.0,0.0,0.0
421,4.21,-0.3301271,-0.5938381,-0.31596482,0.0,0.0,0.0
422,4.22,-0.3301271,-0.5938381,-0.31596482,0.0,0.0,0.0
423,4.23,-1.0258218714285714,-0.8349452714285714,-0.38628776857142855,0.0,0.0,0.0
424,4.24,-1.141771,-0.8751298,-0.4614942225,0.0,0.0,0.0
425,4.25,-1.2802192,-0.89441978,-0.47809824,0.0,0.0,0.0
426,4.26,-1.4186674,-0.91370976,-0.45661068,0.0,0.0,0.0
427,4.27,-1.4186674,-0.91370976,-0.45661068,0.0,0.0,0.0
428,4.28,-1.6042418374999998,-1.0602159100000002,-0.5632549175,0.0,0.0,0.0
429,4.29,-1.7155865,-1.1481196,-0.6866253,0.0,0.0,0.0
430,4.3,-1.8001937749999999,-1.16863045,-0.7276469999999999,0.0,0.0,0.0
431,4.31,-1.8283962,-1.1754674,-0.7413209,0.0,0.0,0.0
432,4.32,-1.8283962,-1.1754674,-0.7413209,0.0,0.0,0.0
433,4.33,-1.777424325,-1.15104965,-0.7383908,0.0,0.0,0.0
434,4.34,-1.7468412,-1.136399,-0.6866253,0.0,0.0,0.0
435,4.35,-1.7321905874999999,-1.1266319125,-0.680276705,0.0,0.0,0.0
436,4.36,-1.6296363,-1.0582623,-0.63583654,0.0,0.0,0.0
437,4.37,-1.6296363,-1.0582623,-0.63583654,0.0,0.0,0.0
438,4.38,-1.4448554625,-1.056797325,-0.8116438275,0.0,0.0,0.0
439,4.39,-1.1251669125000001,-1.0690062875,-0.93763904,0.0,0.0,0.0
440,4.4,-1.1105163,-1.069983,-0.9388948514285714,0.0,0.0,0.0
441,4.41,-1.1105163,-1.069983,-0.93666244,0.0,0.0,0.0
442,4.42,-1.1105163,-1.069983,-0.93666244,0.0,0.0,0.0
443,4.43,-0.9480776625,-1.0773082875,-0.82092259375,0.0,0.0,0.0
444,4.44,-0.6773466,-1.0895171,-0.62802285,0.0,0.0,0.0
445,4.45,-0.51936415,-1.11295805,-0.600919225,0.0,0.0,0.0
446,4.46,-0.3613817,-1.136399,-0.5738156,0.0,0.0,0.0
447,4.47,-0.3613817,-1.136399,-0.5738156,0.0,0.0,0.0
448,4.48,-0.25015915499999997,-1.1412825249999998,-0.5718621875,0.0,0.0,0.0
449,4.49,0.27884996,-1.1910946,-0.65537065,0.0,0.0,0.0
450,4.5,0.4368324,-1.2086753,-0.63022044,0.0,0.0,0.0
451,4.51,0.59481484,-1.226256,-0.60507023,0.0,0.0,0.0
452,4.52,0.59481484,-1.226256,-0.60507023,0.0,0.0,0.0
453,4.53,0.62454336,-1.24963595,-0.55623486,0.0,0.0,0.0
454,4.54,0.832643,-1.4132956,-0.174464356,0.0,0.0,0.0
455,4.55,0.8560840000000001,-1.46115425,0.05359681950000001,0.0,0.0,0.0
456,4.56,0.926407,-1.6047302,0.37847412,0.0,0.0,0.0
457,4.57,0.926407,-1.6047302,0.37847412,0.0,0.0,0.0
458,4.58,0.9871721428571428,-1.6297757857142858,0.40582192285714286,0.0,0.0,0.0
459,4.59,1.767474125,-1.844512025,0.70139796,0.0,0.0,0.0
460,4.6,2.0620735,-1.8523255500000002,0.71006623,0.0,0.0,0.0
461,4.61,2.2181025,-1.8386515,0.67490476,0.0,0.0,0.0
462,4.62,2.9732193375,-1.5724378749999999,0.8721996575000001,0.0,0.0,0.0
463,4.63,3.1430442,-1.4992459,0.9991716,0.0,0.0,0.0
464,4.64,3.1430442,-1.4992459,1.3307638,0.0,0.0,0.0
465,4.65,3.0346297499999997,-1.4347832125,1.4668313124999999,0.0,0.0,0.0
466,4.66,2.853939,-1.3273454,1.6936105,0.0,0.0,0.0
467,4.67,2.2402876285714286,-1.3426238428571426,2.0012734,0.0,0.0,0.0
468,4.68,2.0032268,-1.3976682,2.0095754,0.0,0.0,0.0
469,4.69,2.0032268,-1.3976682,1.7990949,0.0,0.0,0.0
470,4.7,1.954696675,-1.4782466375,1.3869854875,0.0,0.0,0.0
471,4.71,1.9582372749999999,-1.5143848500000001,1.0304262875,0.0,0.0,0.0
472,4.72,2.5996287999999996,-1.259342125,0.792109655,0.0,0.0,0.0
473,4.73,2.7372224,-1.2028152,0.77648234,0.0,0.0,0.0
474,4.74,2.764570175,-1.1173532499999999,0.88245506875,0.0,0.0,0.0
475,4.75,2.6737364125,-1.083656875,0.9897097312500001,0.0,0.0,0.0
476,4.76,2.448117,-1.0387284,1.1432359,0.0,0.0,0.0
477,4.77,2.250961757142857,-1.0102642285714285,1.1283760857142857,0.0,0.0,0.0
478,4.78,2.1673138,-0.9918463,1.03824,0.0,0.0,0.0
479,4.79,2.1673138,-0.9918463,1.03824,0.0,0.0,0.0
480,4.8,2.2629090125,-0.935319375,1.0732183124999999,0.0,0.0,0.0
481,4.81,2.4442103,-0.8204342,1.1315155,0.0,0.0,0.0
482,4.82,2.3274937,-0.72667027,1.4943622,0.0,0.0,0.0
483,4.83,2.3274937,-0.72667027,1.4943622,0.0,0.0,0.0
484,4.84,2.2732864375000004,-0.6871136312499999,1.7359141375,0.0,0.0,0.0
485,4.85,2.1751274,-0.46125004999999997,2.29062295,0.0,0.0,0.0
486,4.86,2.1673138,-0.3013142,2.4427452,0.0,0.0,0.0
487,4.87,2.9648563375,0.25321139582499996,3.6179070749999998,0.0,0.0,0.0
488,4.88,3.9273403,0.8731764,4.710171,0.0,0.0,0.0
489,4.89,3.9273403,0.8731764,4.710171,0.0,0.0,0.0
490,4.9,4.252217575,0.9859861125,4.8652845,0.0,0.0,0.0
491,4.91,4.7936797,1.1740023,5.123807,0.0,0.0,0.0
492,4.92,3.9249683285714285,0.5717923885714286,3.7557885714285715,0.0,0.0,0.0
493,4.93,3.4785433,0.28422183,3.122045,0.0,0.0,0.0
494,4.94,3.3722043250000002,0.19253343,3.122045,0.0,0.0,0.0
495,4.95,2.976149575,-0.17043542750000001,2.824393475,0.0,0.0,0.0
496,4.96,2.7450361,-0.4341464,1.9314389,0.0,0.0,0.0
497,4.97,2.4821187,-0.7954060374999999,1.7339608874999999,0.0,0.0,0.0
498,4.98,2.3509347,-0.976219,1.6389151,0.0,0.0,0.0
499,4.99,2.3509347,-0.976219,1.6389151,0.0,0.0,0.0
500,5.0,2.213218925,-1.2621500875,1.6887269875,0.0,0.0,0.0
501,5.01,2.1751273,-1.4445502,1.8264427,0.0,0.0,0.0
502,5.02,2.3597250874999998,-1.5026642875,1.9559175,0.0,0.0,0.0
503,5.03,2.3860962,-1.5109663,1.9744139,0.0,0.0,0.0
504,5.04,2.3860962,-1.5109663,1.9744139,0.0,0.0,0.0
505,5.05,2.491255033333333,-1.6164506666666665,1.9251987888888888,0.0,0.0,0.0
506,5.06,2.5614152,-1.6906804,1.892859,0.0,0.0,0.0
507,5.07,2.5614152,-1.6906804,1.892859,0.0,0.0,0.0
508,5.08,2.5614152,-1.6906804,1.892859,0.0,0.0,0.0
509,5.09,2.5614152,-1.6906804,1.892859,0.0,0.0,0.0
510,5.1,2.5462760625,-1.7434836125,1.4703108875,0.0,0.0,0.0
511,5.11,2.4472013875000003,-1.7234611125,1.3185550125,0.0,0.0,0.0
512,5.12,2.3011225499999997,-1.665286125,1.05960545,0.0,0.0,0.0
513,5.13,2.1121296249999997,-1.645751925,0.8912454875,0.0,0.0,0.0
514,5.14,2.089177,-1.6437985,0.8741531,0.0,0.0,0.0
515,5.15,1.8561102250000001,-1.633054725,0.7364373675,0.0,0.0,0.0
516,5.16,1.6571236,-1.6064045714285715,0.670998,0.0,0.0,0.0
517,5.17,1.48490045,-1.5285470875,0.5247970875,0.0,0.0,0.0
518,5.18,1.3781340499999999,-1.402551775,0.431216295,0.0,0.0,0.0
519,5.19,1.3595766,-1.3703204,0.42926288,0.0,0.0,0.0
520,5.2,1.43380635,-1.4992458,0.306441935,0.0,0.0,0.0
521,5.21,0.937211716125,-1.257877,0.18362099,0.0,0.0,0.0
522,5.22,0.235386480375,-0.7774590499999999,0.8083474,0.0,0.0,0.0
523,5.23,0.7392453625000001,-1.0310977,0.89759403,0.0,0.0,0.0
524,5.24,1.0201708,-1.1715604,0.89759403,0.0,0.0,0.0
525,5.25,0.905041435,-1.0603378675,0.7560935575000001,0.0,0.0,0.0
526,5.26,0.55965334,-0.72667027,0.33159214,0.0,0.0,0.0
527,5.27,0.5261662185714285,-0.7796915342857142,0.2646179257142857,0.0,0.0,0.0
528,5.28,0.40289178875,-0.77159880875,0.16243864,0.0,0.0,0.0
529,5.29,0.33696404,-0.75401807,0.11720488,0.0,0.0,0.0
530,5.3,0.28434393,-0.75401807,-0.009644989999999999,0.0,0.0,0.0
531,5.31,0.1264836,-0.74522771,-0.3901946,0.0,0.0,0.0
532,5.32,0.07569482,-0.6719747,-0.35503313,0.0,0.0,0.0
533,5.33,0.0317429890625,-0.6353481375000001,-0.29398892374999996,0.0,0.0,0.0
534,5.34,0.0053718905,-0.6133722,-0.2573624,0.0,0.0,0.0
535,5.35,-0.018557441,-0.6072329,-0.2484325014285714,0.0,0.0,0.0
536,5.36,-0.20315514,-0.56453688,-0.19485311,0.0,0.0,0.0
537,5.37,-0.31742989,-0.5557464775,-0.27982664749999997,0.0,0.0,0.0
538,5.38,-0.3984966,-0.55476975,-0.34917288,0.0,0.0,0.0
539,5.39,-0.45514563,-0.55476975,-0.3901946,0.0,0.0,0.0
540,5.4,-0.49610629500000003,-0.5694203687499999,-0.41796971250000003,0.0,0.0,0.0
541,5.41,-0.85297074375,-0.7027409637500001,-0.6123955,0.0,0.0,0.0
542,5.42,-1.084145125,-0.8126205425,-0.761831755,0.0,0.0,0.0
543,5.43,-1.2042802,-0.87293223,-0.9171282199999999,0.0,0.0,0.0
544,5.44,-1.2863237,-0.91370976,-1.0226126,0.0,0.0,0.0
545,5.45,-1.2863237,-0.91370976,-1.0226126,0.0,0.0,0.0
546,5.46,-1.5789085125,-1.02212429,-1.23468015,0.0,0.0,0.0
547,5.47,-1.8542789499999999,-1.10953955,-1.234558125,0.0,0.0,0.0
548,5.48,-1.9128814374999998,-1.119306675,-1.12370185,0.0,0.0,0.0
549,5.49,-1.926067,-1.1207718,-1.0650994,0.0,0.0,0.0
550,5.5,-1.9236252249999999,-1.1163766,-1.0241387325,0.0,0.0,0.0
551,5.51,-1.839811475,-1.04996035,-0.60452081,0.0,0.0,0.0
552,5.52,-1.71851665,-0.99184633,-0.5064227675,0.0,0.0,0.0
553,5.53,-1.6960524,-0.98012584,-0.48005167,0.0,0.0,0.0
554,5.54,-1.6960524,-0.98012584,-0.48005167,0.0,0.0,0.0
555,5.55,-1.6960524,-0.98012584,-0.48005167,0.0,0.0,0.0
556,5.56,-1.4933855875,-0.94594109,-0.56765010125,0.0,0.0,0.0
557,5.57,-1.1759556625,-0.91517480625,-0.6836951849999999,0.0,0.0,0.0
558,5.58,-1.0968423999999999,-0.91761658,-0.7217868,0.0,0.0,0.0
559,5.59,-1.0558207,-0.9215234,-0.7217868,0.0,0.0,0.0
560,5.6,-1.0558207,-0.9215234,-0.7217868,0.0,0.0,0.0
561,5.61,-0.7802060749999999,-0.98745115,-0.7510879874999999,0.0,0.0,0.0
562,5.62,-0.5310846300000001,-1.0387283,-0.7276469999999999,0.0,0.0,0.0
563,5.63,-0.33305720499999997,-1.056308925,-0.6866253,0.0,0.0,0.0
564,5.64,-0.29496562,-1.0582623,-0.6866253,0.0,0.0,0.0
565,5.65,-0.29496562,-1.0582623,-0.6866253,0.0,0.0,0.0
566,5.66,-0.14479686475,-1.0758431499999999,-0.5857802675,0.0,0.0,0.0
567,5.67,0.187039470125,-1.149096275,-0.47809825,0.0,0.0,0.0
568,5.68,0.3351937675,-1.2018384500000001,-0.469307905,0.0,0.0,0.0
569,5.69,0.4229142975,-1.2330931,-0.4419601075,0.0,0.0,0.0
570,5.7,0.5283987,-1.2653245,-0.38628775,0.0,0.0,0.0
571,5.71,0.64835055,-1.2885823375,-0.327685315,0.0,0.0,0.0
572,5.72,0.9361739625000001,-1.33467065,-0.054512479999999995,0.0,0.0,0.0
573,5.73,1.08854034,-1.356646475,0.1006008565,0.0,0.0,0.0
574,5.74,1.2348023000000001,-1.38985455,0.13478561,0.0,0.0,0.0
575,5.75,1.3478562,-1.4172024,0.15236634,0.0,0.0,0.0
576,5.76,1.4576136875,-1.426969475,0.16701695249999998,0.0,0.0,0.0
577,5.77,2.0132381,-1.49729245,0.267373635,0.0,0.0,0.0
578,5.78,2.1048045,-1.5265937,0.32377848,0.0,0.0,0.0
579,5.79,2.1282454714285715,-1.5416628857142858,0.34666133714285713,0.0,0.0,0.0
580,5.8,2.2688913,-1.632078,0.48395848,0.0,0.0,0.0
581,5.81,2.2927595625,-1.627682825,0.55373202,0.0,0.0,0.0
582,5.82,2.52039335,-1.5519880499999998,1.3170899,0.0,0.0,0.0
583,5.83,2.6102504499999997,-1.47775825,1.592033,0.0,0.0,0.0
584,5.84,2.6395516,-1.448457,1.592033,0.0,0.0,0.0
585,5.85,2.584856,-1.425016,1.7483062,0.0,0.0,0.0
586,5.86,2.5721588124999997,-1.4259927125,1.7541664375000001,0.0,0.0,0.0
587,5.87,2.375230125,-1.4298996000000002,1.6574725,0.0,0.0,0.0
588,5.88,2.37986955,-1.3179444999999999,1.5383141999999999,0.0,0.0,0.0
589,5.89,2.425652725,-1.2428601,1.4905776,0.0,0.0,0.0
590,5.9,2.573693614285714,-1.0571461,1.3938311857142858,0.0,0.0,0.0
591,5.91,2.6122038,-1.0035667,1.3737389,0.0,0.0,0.0
592,5.92,2.7469895625,-0.8155506849999999,1.3102529625000001,0.0,0.0,0.0
593,5.93,2.863400925,-0.74083255625,1.3502979,0.0,0.0,0.0
594,5.94,2.9086347,-0.71885663,1.3971798,0.0,0.0,0.0
595,5.95,2.8812869,-0.7032293,1.6193808,0.0,0.0,0.0
596,5.96,2.8812869,-0.7032293,1.6193808,0.0,0.0,0.0
597,5.97,2.109749,-0.7359489862499999,1.88815855,0.0,0.0,0.0
598,5.98,1.6921455375,-0.65390558875,2.0335048125,0.0,0.0,0.0
599,5.99,1.6481937,-0.5938381,2.0408301,0.0,0.0,0.0
600,6.0,1.72584195,-0.44916329875,2.1272686875,0.0,0.0,0.0
601,6.01,1.7927464,-0.34428933,2.271333,0.0,0.0,0.0
602,6.02,1.7575849000000001,-0.036931745,2.4932286875,0.0,0.0,0.0
603,6.03,1.6677278,0.18264428,2.6263661,0.0,0.0,0.0
604,6.04,1.6130322,0.32329014,2.6263661,0.0,0.0,0.0
605,6.05,1.901893375,0.8450960525,3.286742575,0.0,0.0,0.0
606,6.06,2.5223467,1.3454144,4.0386853,0.0,0.0,0.0
607,6.07,3.0531874,1.5407559,4.710171,0.0,0.0,0.0
608,6.08,3.3068260250000003,1.5773824,4.7223799374999995,0.0,0.0,0.0
609,6.09,3.4590092,1.5993583,4.7297053,0.0,0.0,0.0
610,6.1,3.615099225,1.277350025,4.248005825,0.0,0.0,0.0
611,6.11,3.4469835,0.9993547137500001,4.0972877,0.0,0.0,0.0
612,6.12,2.834753714285714,0.39514789142857143,3.2890622,0.0,0.0,0.0
613,6.13,2.437190125,0.00567710124999999,2.663297875,0.0,0.0,0.0
614,6.14,2.1996670750000002,-0.21731738750000001,2.3862181749999998,0.0,0.0,0.0
615,6.15,1.854278875,-0.501356075,2.045225275,0.0,0.0,0.0
616,6.16,1.7263302500000002,-0.65830075,1.9548799,0.0,0.0,0.0
617,6.17,1.7790725,-0.7403442,1.9258228499999999,0.0,0.0,0.0
618,6.18,1.971667,-0.78722613125,1.96483005,0.0,0.0,0.0
619,6.19,2.073061425,-0.79552813125,2.0056686,0.0,0.0,0.0
620,6.2,2.3272494,-0.8419217999999999,2.0896654,0.0,0.0,0.0
621,6.21,2.3934214,-0.871223,2.1736622,0.0,0.0,0.0
622,6.22,2.414908975,-0.88385914375,2.171220425,0.0,0.0,0.0
623,6.23,2.6776433125,-1.05533230625,2.1468028125000003,0.0,0.0,0.0
624,6.24,2.7450361,-1.1051444,2.1312453285714286,0.0,0.0,0.0
625,6.25,2.7523613875,-1.132980575,2.1443611,0.0,0.0,0.0
626,6.26,2.7645702,-1.1793742,2.2127306,0.0,0.0,0.0
627,6.27,2.7645702,-1.1793742,2.2127306,0.0,0.0,0.0
628,6.28,2.8132835,-1.384116425,2.3559402250000003,0.0,0.0,0.0
629,6.29,2.9013091875000003,-1.50071085,2.3129039875,0.0,0.0,0.0
630,6.3,2.8659035,-1.6262178,1.8691737,0.0,0.0,0.0
631,6.31,2.7997315,-1.6594259,1.6779832,0.0,0.0,0.0
632,6.32,2.7997315,-1.6594259,1.6779832,0.0,0.0,0.0
633,6.33,2.0523411285714284,-1.4629680857142857,0.6701608042857143,0.0,0.0,0.0
634,6.34,1.9281424,-1.4093887250000001,0.5044693575,0.0,0.0,0.0
635,6.35,1.5450289,-1.3072006999999999,0.23233426499999998,0.0,0.0,0.0
636,6.36,1.4728746,-1.296579,0.19534147,0.0,0.0,0.0
637,6.37,1.4728746,-1.296579,0.19534147,0.0,0.0,0.0
638,6.38,1.033783725,-0.9962415125,0.057137379375,0.0,0.0,0.0
639,6.39,0.9537547999999999,-0.9332439,0.039068293,0.0,0.0,0.0
640,6.4,0.93422058,-0.7715988300000001,0.0800900015,0.0,0.0,0.0
641,6.41,0.94594103,-0.73448396,0.12111171,0.0,0.0,0.0
642,6.42,0.94594103,-0.73448396,0.12111171,0.0,0.0,0.0
643,6.43,0.8326430149999999,-0.69346223,0.195097305,0.0,0.0,0.0
644,6.44,0.719345,-0.6524405,0.2690829,0.0,0.0,0.0
645,6.45,0.5830332125,-0.6524405,0.17721133875,0.0,0.0,0.0
646,6.46,0.413391365,-0.66025415,0.1015775615,0.0,0.0,0.0
647,6.47,0.26322263,-0.6680678,0.039068293,0.0,0.0,0.0
648,6.48,0.05190501100000001,-0.6775558285714285,-0.12473949157142858,0.0,0.0,0.0
649,6.49,-0.16848203374999998,-0.6709979325,-0.25296722375,0.0,0.0,0.0
650,6.5,-0.25833910125,-0.60946536,-0.22415433499999998,0.0,0.0,0.0
651,6.51,-0.228549525,-0.56453683,-0.24173507,0.0,0.0,0.0
652,6.52,-0.22073586,-0.5196083,-0.24173507,0.0,0.0,0.0
653,6.53,-0.20706196,-0.496167335,-0.16384266,0.0,0.0,0.0
654,6.54,-0.2021784275,-0.479563315,-0.09767074,0.0,0.0,0.0
655,6.55,-0.23971190142857143,-0.52016643,-0.20622479857142859,0.0,0.0,0.0
656,6.56,-0.26957123,-0.543049305,-0.26126924,0.0,0.0,0.0
657,6.57,-0.29105878,-0.55086297,-0.26126924,0.0,0.0,0.0
658,6.58,-0.31010457625,-0.55672321125,-0.31785722250000004,0.0,0.0,0.0
659,6.59,-0.4726042875,-0.614348925,-0.7139731,0.0,0.0,0.0
660,6.6,-0.58944290625,-0.6890670375,-0.822387625,0.0,0.0,0.0
661,6.61,-0.6587891125,-0.74913455,-1.0030785,0.0,0.0,0.0
662,6.62,-0.7203217,-0.8048069,-1.0030785,0.0,0.0,0.0
663,6.63,-0.821777165,-0.8466832125,-1.044832725,0.0,0.0,0.0
664,6.64,-1.0328680375000001,-0.92884869375,-1.039766,0.0,0.0,0.0
665,6.65,-1.2838818714285714,-1.0359377,-0.9891255,0.0,0.0,0.0
666,6.66,-1.45578235,-1.09537725,-0.9757307,0.0,0.0,0.0
667,6.67,-1.5163382,-1.1168648,-0.9757307,0.0,0.0,0.0
668,6.68,-1.5163382,-1.1168648,-0.9757307,0.0,0.0,0.0
669,6.69,-1.588126175,-1.130538775,-0.9244535125,0.0,0.0,0.0
670,6.7,-1.5554065,-1.1266319999999999,-0.7989466249999999,0.0,0.0,0.0
671,6.71,-1.489967125,-1.107586225,-0.7725755,0.0,0.0,0.0
672,6.72,-1.4577358,-1.0973308,-0.7725755,0.0,0.0,0.0
673,6.73,-1.436797625,-1.0900055,-0.7935747074999999,0.0,0.0,0.0
674,6.74,-1.0519139,-0.96254511875,-1.1666770124999999,0.0,0.0,0.0
675,6.75,-0.9651264571428572,-0.9633823114285713,-1.1789555428571428,0.0,0.0,0.0
676,6.76,-0.90003583,-0.962545135,-1.1705837,0.0,0.0,0.0
677,6.77,-0.86487436,-0.9566849,-1.1705837,0.0,0.0,0.0
678,6.78,-0.86487436,-0.9566849,-1.1705837,0.0,0.0,0.0
679,6.79,-0.7261819150000001,-1.0270077,-0.99325031125,0.0,0.0,0.0
680,6.8,-0.476511115,-1.09440055,-0.8917337925,0.0,0.0,0.0
681,6.81,-0.34770782499999997,-1.1280969375,-0.8663394,0.0,0.0,0.0
682,6.82,-0.1719004925,-1.2023268624999999,-0.8082253125,0.0,0.0,0.0
683,6.83,-0.15431976,-1.2106289,-0.7999233,0.0,0.0,0.0
684,6.84,-0.010743780714285714,-1.2825562857142856,-0.7212286571428571,0.0,0.0,0.0
685,6.85,0.22586358,-1.3703204,-0.608732865,0.0,0.0,0.0
686,6.86,0.36626527,-1.43478315,-0.57772243,0.0,0.0,0.0
687,6.87,0.5283986975,-1.5207334125,-0.48737697375,0.0,0.0,0.0
688,6.88,0.58700114,-1.5500346,-0.4331697,0.0,0.0,0.0
689,6.89,0.6756983750000001,-1.593925375,-0.340443553,0.0,0.0,0.0
690,6.9,1.05630905,-1.813257125,0.18520814900000002,0.0,0.0,0.0
691,6.91,1.267888275,-1.914834775,0.26126924,0.0,0.0,0.0
692,6.92,1.4341116624999999,-1.9622051,0.4486139,0.0,0.0,0.0
693,6.93,1.6169391,-1.9988316,0.760855,0.0,0.0,0.0
694,6.94,1.97478025,-2.015435725,0.82824784,0.0,0.0,0.0
695,6.95,2.195777757142857,-2.0345513714285715,0.9538942371428571,0.0,0.0,0.0
696,6.96,2.3153391444444447,-2.091727488888889,1.1979315,0.0,0.0,0.0
697,6.97,2.401418175,-2.1111531375,1.6807911875,0.0,0.0,0.0
698,6.98,2.4129555,-2.108223,1.970507,0.0,0.0,0.0
699,6.99,2.3874216,-2.0669221285714285,2.129361457142857,0.0,0.0,0.0
700,7.0,2.28842545,-1.9480428,2.45837235,0.0,0.0,0.0
701,7.01,2.2366599,-1.890417125,2.502446325,0.0,0.0,0.0
702,7.02,2.1521746250000002,-1.7619801750000001,2.070619525,0.0,0.0,0.0
703,7.03,2.1243386,-1.7253537,1.9431592,0.0,0.0,0.0
704,7.04,2.1214083875,-1.7312139000000002,1.7958595625,0.0,0.0,0.0
705,7.05,2.1604767625,-1.7995834,1.4541340875,0.0,0.0,0.0
706,7.06,2.186848,-1.8347449,1.4323413,0.0,0.0,0.0
707,7.07,2.2102888,-1.8269311,1.592033,0.0,0.0,0.0
708,7.08,2.2102888,-1.8269311,1.592033,0.0,0.0,0.0
709,7.09,2.2102888,-1.8269311,1.592033,0.0,0.0,0.0
710,7.1,2.20687035,-1.7346324249999998,0.7070750887499999,0.0,0.0,0.0
711,7.11,2.206382,-1.7214469,0.58065253,0.0,0.0,0.0
712,7.12,2.6024978250000004,-1.3868634375,1.76259060375,0.0,0.0,0.0
713,7.13,2.6590858,-1.3390658,1.9314389,0.0,0.0,0.0
714,7.14,2.6590858,-1.3390658,1.9314389,0.0,0.0,0.0
715,7.15,2.5618422875,-0.758413295,2.3529490374999997,0.0,0.0,0.0
716,7.16,2.29599485,-0.726670295,2.2593683,0.0,0.0,0.0
717,7.17,1.8214981625,-0.71885663,2.0149472250000002,0.0,0.0,0.0
718,7.18,1.66968125,-0.60165177375,1.9039078125,0.0,0.0,0.0
719,7.19,1.6052186,-0.53132886,1.8498837,0.0,0.0,0.0
720,7.2,1.991628425,-0.265053975,1.740004125,0.0,0.0,0.0
721,7.21,2.1204317,-0.17629568,1.7170515,0.0,0.0,0.0
722,7.22,2.331034175,-0.0330859625,1.781514225,0.0,0.0,0.0
723,7.23,2.5575082,0.266396925,1.9824718000000001,0.0,0.0,0.0
724,7.24,2.7137814,0.51814324,2.1619418,0.0,0.0,0.0
725,7.25,3.8183762999999997,0.796138585,3.3660998749999997,0.0,0.0,0.0
726,7.26,4.106566,0.8888037,3.6523972,0.0,0.0,0.0
727,7.27,4.06005025,0.86829285,3.64946695,0.0,0.0,0.0
728,7.28,3.907806142857143,0.7418092571428572,3.2668767,0.0,0.0,0.0
729,7.29,3.8531106,0.6939506,3.1142313,0.0,0.0,0.0
730,7.3,3.613206825,0.4978155425,2.6064046125,0.0,0.0,0.0
731,7.31,3.056788875,0.07294782625,1.7600268,0.0,0.0,0.0
732,7.32,2.54676455,-0.2925238525,1.376547,0.0,0.0,0.0
733,7.33,2.2467320875,-0.5329769974999999,1.307322775,0.0,0.0,0.0
734,7.34,2.1165247,-0.6368132,1.3424842,0.0,0.0,0.0
735,7.35,1.9971833874999998,-0.8513836,1.6815848249999998,0.0,0.0,0.0
736,7.36,1.9314388375,-1.037263225,1.8850452,0.0,0.0,0.0
737,7.37,1.9760011,-1.42220805,2.3121104999999997,0.0,0.0,0.0
738,7.38,2.01104045,-1.61840415,2.574600675,0.0,0.0,0.0
739,7.39,2.0188541,-1.6516122,2.602925175,0.0,0.0,0.0
740,7.4,2.1494537,-1.8152803714285712,2.473999714285714,0.0,0.0,0.0
741,7.41,2.1712203,-1.8425584,2.3823723500000002,0.0,0.0,0.0
742,7.42,2.2517988,-1.9158114625,2.1726855375,0.0,0.0,0.0
743,7.43,2.3001459,-1.9597633,2.0545039999999997,0.0,0.0,0.0
744,7.44,2.3001459,-1.963181775,1.9705682125,0.0,0.0,0.0
745,7.45,2.3025877125,-1.9944364124999998,1.8371865125,0.0,0.0,0.0
746,7.46,2.29428565,-1.99492475,1.8225359,0.0,0.0,0.0
747,7.47,2.2845185,-1.9910179,1.8225359,0.0,0.0,0.0
748,7.48,2.1761041249999997,-1.952926375,1.772723975,0.0,0.0,0.0
749,7.49,2.1371753857142854,-1.9368804857142858,1.7471900714285713,0.0,0.0,0.0
750,7.5,2.0764800125000002,-1.897254075,1.6374498124999999,0.0,0.0,0.0
751,7.51,1.9722775,-1.8733248500000002,1.50882965,0.0,0.0,0.0
752,7.52,1.8205825375,-1.8342564749999999,1.3835058999999998,0.0,0.0,0.0
753,7.53,1.7019125874999999,-1.7990949375,1.29999745,0.0,0.0,0.0
754,7.54,1.6091254,-1.7722355,1.2291862,0.0,0.0,0.0
755,7.55,1.4211092375,-1.7095430875,1.04635885,0.0,0.0,0.0
756,7.56,1.3371124250000002,-1.6760298,0.896617415,0.0,0.0,0.0
757,7.57,1.1139348,-1.4562707,0.7256936,0.0,0.0,0.0
758,7.58,1.0694945999999999,-1.3673903875,0.67441643875,0.0,0.0,0.0
759,7.59,1.063146,-1.3546932,0.6856485725,0.0,0.0,0.0
760,7.6,0.9532664375,-1.3086047625,0.7706220874999999,0.0,0.0,0.0
761,7.61,0.8873387,-1.2809517,0.7452276849999999,0.0,0.0,0.0
762,7.62,0.7672036775,-1.242860175,0.6586670175,0.0,0.0,0.0
763,7.63,0.5634381175000001,-1.1510497,0.55916497,0.0,0.0,0.0
764,7.64,0.5088646,-1.1246786,0.53084046,0.0,0.0,0.0
765,7.65,0.5088646,-1.1246786,0.53084046,0.0,0.0,0.0
766,7.66,0.6495103771428571,-1.0007762342857143,0.4672149342857143,0.0,0.0,0.0
767,7.67,0.63144129,-0.963033465,0.44928539875,0.0,0.0,0.0
768,7.68,0.6377899,-1.0660762,0.26517606,0.0,0.0,0.0
769,7.69,0.6377899,-1.0660762,0.26517606,0.0,0.0,0.0
770,7.7,0.6377899,-1.0660762,0.26517606,0.0,0.0,0.0
771,7.71,0.0612273475,-1.0519138875,-0.046515681249999996,0.0,0.0,0.0
772,7.72,-0.267617805,-0.847659975,0.03516147000000001,0.0,0.0,0.0
773,7.73,-0.28519856125,-0.8638976749999999,0.029789574,0.0,0.0,0.0
774,7.74,-0.39733678125,-0.88373704,0.019534146,0.0,0.0,0.0
775,7.75,-0.5874895,-0.8980824400000001,0.019534146,0.0,0.0,0.0
776,7.76,-0.93397645,-0.9210960975,-0.37450623275000006,0.0,0.0,0.0
777,7.77,-1.3068345000000001,-0.8990591250000001,-0.7462044175,0.0,0.0,0.0
778,7.78,-1.3885116499999999,-0.876961125,-0.87024626,0.0,0.0,0.0
779,7.79,-1.406947,-0.8751298,-0.95619655,0.0,0.0,0.0
780,7.8,-1.406947,-0.8751298,-1.0108922,0.0,0.0,0.0
781,7.81,-1.4860602625,-0.92036356375,-1.0127845500000001,0.0,0.0,0.0
782,7.82,-1.6984941375,-1.03482137625,-0.9298254125,0.0,0.0,0.0
783,7.83,-1.7468412,-1.0582623,-0.8490377085714286,0.0,0.0,0.0
784,7.84,-1.7468412,-1.0582623,-0.8428984,0.0,0.0,0.0
785,7.85,-1.6765182,-1.0035667,-0.5503746,0.0,0.0,0.0
786,7.86,-1.6110788,-0.9411795424999999,-0.38347973,0.0,0.0,0.0
787,7.87,-1.4147606,-0.75401807,0.11720488,0.0,0.0,0.0
788,7.88,-1.382529275,-0.7481578474999999,0.1201350025,0.0,0.0,0.0
789,7.89,-1.363117225,-0.7510879675,0.0683695125,0.0,0.0,0.0
790,7.9,-1.3371124,-0.76573855,-0.08985708,0.0,0.0,0.0
791,7.91,-1.3400425,-0.7784357550000001,-0.201079635,0.0,0.0,0.0
792,7.92,-1.4598112,-0.8689033125,-0.636935325,0.0,0.0,0.0
793,7.93,-1.5788475,-0.9513129825000001,-0.74620445125,0.0,0.0,0.0
794,7.94,-1.58470775,-0.959615,-0.75694823,0.0,0.0,0.0
795,7.95,-1.567127,-0.9566849,-0.75694823,0.0,0.0,0.0
796,7.96,-1.5348259,-0.9422435785714285,-0.73629784,0.0,0.0,0.0
797,7.97,-1.2511622,-0.81652737,-0.56600195,0.0,0.0,0.0
798,7.98,-1.0953773,-0.76622695875,-0.48737700875,0.0,0.0,0.0
799,7.99,-1.0128455,-0.74229765,-0.49763243375,0.0,0.0,0.0
800,8.0,-1.0128455,-0.74229765,-0.56600195,0.0,0.0,0.0
801,8.01,-0.9319008925000001,-0.736437395,-0.5844372875,0.0,0.0,0.0
802,8.02,-0.603361015,-0.711042965,-0.7471811325,0.0,0.0,0.0
803,8.03,-0.44147176,-0.7032293,-0.8409450350000001,0.0,0.0,0.0
804,8.04,-0.3271969675,-0.706159415,-0.91517476875,0.0,0.0,0.0
805,8.05,-0.18850452,-0.7212983424999999,-0.8761064749999999,0.0,0.0,0.0
806,8.06,-0.17776074,-0.7227634,-0.8663394,0.0,0.0,0.0
807,8.07,-0.067331763875,-0.7447393425000001,-0.8380148825,0.0,0.0,0.0
808,8.08,0.077648235875,-0.8533370250000001,-0.6297930974999999,0.0,0.0,0.0
809,8.09,0.13206478914285716,-0.9310114157142857,-0.5464677428571428,0.0,0.0,0.0
810,8.1,0.206573615,-1.07437807125,-0.417542405,0.0,0.0,0.0
811,8.11,0.21243386,-1.0856102,-0.40582192,0.0,0.0,0.0
812,8.12,0.2777511575,-1.169607075,-0.3131567975,0.0,0.0,0.0
813,8.13,0.5474445137499999,-1.4261759375,-0.11280970250000001,0.0,0.0,0.0
814,8.14,0.6573241,-1.5226868,-0.024417682500000003,0.0,0.0,0.0
815,8.15,1.3162353249999998,-1.7273679375,0.2769575875,0.0,0.0,0.0
816,8.16,1.4103655,-1.7566081,0.30033752,0.0,0.0,0.0
817,8.17,1.7226327571428572,-1.8124199857142858,0.42089110857142853,0.0,0.0,0.0
818,8.18,1.9568332,-1.8542789,0.55086295,0.0,0.0,0.0
819,8.19,2.0020670125,-1.8718596125,0.7118365237500001,0.0,0.0,0.0
820,8.2,2.185871225,-1.9656235249999998,1.0281065825,0.0,0.0,0.0
821,8.21,2.2220094,-1.9871111,1.0807267,0.0,0.0,0.0
822,8.22,2.3121717,-1.959274925,1.173513875,0.0,0.0,0.0
823,8.23,2.456907375,-1.94901945,1.302439325,0.0,0.0,0.0
824,8.24,2.4676511,-1.9558564,1.3073229,0.0,0.0,0.0
825,8.25,2.4031884714285714,-1.967018857142857,1.3564372,0.0,0.0,0.0
826,8.26,2.3548415,-1.9753907,1.4284345,0.0,0.0,0.0
827,8.27,2.3548415,-1.9753907,1.4284345,0.0,0.0,0.0
828,8.28,2.2669378250000003,-1.960739975,1.659547825,0.0,0.0,0.0
829,8.29,1.9797858,-2.0457137,1.7639334,0.0,0.0,0.0
830,8.3,1.9581151124999998,-2.0481553874999996,1.7942114625,0.0,0.0,0.0
831,8.31,1.9451127,-2.0496204,1.8030018,0.0,0.0,0.0
832,8.32,1.9451127,-2.0496204,1.8030018,0.0,0.0,0.0
833,8.33,2.76041925,-1.5461277,1.65844915,0.0,0.0,0.0
834,8.34,2.8265913,-1.4523638,1.604869857142857,0.0,0.0,0.0
835,8.35,2.778,-1.2904745499999999,1.5219542499999998,0.0,0.0,0.0
836,8.36,2.7294087,-1.1285853,1.4792233,0.0,0.0,0.0
837,8.37,2.665495425,-1.118329875,1.493812875,0.0,0.0,0.0
838,8.38,1.9518885625,-1.0089386,1.5993582625,0.0,0.0,0.0
839,8.39,1.913858,-1.0035667,1.6042418625,0.0,0.0,0.0
840,8.4,1.91141625,-0.8329481999999999,1.6555189875,0.0,0.0,0.0
841,8.41,1.9099512,-0.7305771,1.68189,0.0,0.0,0.0
842,8.42,1.9167881625,-0.7066477662499999,1.6960522625,0.0,0.0,0.0
843,8.43,1.8728364,-0.560629995,1.77565405,0.0,0.0,0.0
844,8.44,1.7810259,-0.58211756,1.7121681624999998,0.0,0.0,0.0
845,8.45,1.5771730714285714,-0.54863048,1.6891457285714286,0.0,0.0,0.0
846,8.46,1.5431976,-0.5430493,1.6975175,0.0,0.0,0.0
847,8.47,1.5431976,-0.5430493,1.6975175,0.0,0.0,0.0
848,8.48,2.38627925,-0.033879534999999995,2.5061701000000003,0.0,0.0,0.0
849,8.49,3.3160436375,0.39782512625,3.1472563,0.0,0.0,0.0
850,8.5,4.2530721,0.844119335,3.6838959,0.0,0.0,0.0
851,8.51,4.7927032249999995,0.9894045499999999,3.8135541,0.0,0.0,0.0
852,8.52,4.8561893,0.9825676,3.8047638,0.0,0.0,0.0
853,8.53,3.9530401375,0.43494,3.1560468250000002,0.0,0.0,0.0
854,8.54,3.7280922,0.303756,2.713711657142857,0.0,0.0,0.0
855,8.55,2.710668275,-0.32823474750000003,1.9606790625000001,0.0,0.0,0.0
856,8.56,2.3995258,-0.54134007,1.73438815,0.0,0.0,0.0
857,8.57,2.2337296,-0.664161,1.5646852,0.0,0.0,0.0
858,8.58,1.996634025,-0.868475975,1.4463204875,0.0,0.0,0.0
859,8.59,1.8240011,-1.0152873,1.429716425,0.0,0.0,0.0
860,8.6,1.978931225,-1.135422375,1.733655525,0.0,0.0,0.0
861,8.61,2.0305746,-1.1754674,1.9291801625000002,0.0,0.0,0.0
862,8.62,2.0305746,-1.1754674,2.0095754,0.0,0.0,0.0
863,8.63,2.182940985714286,-1.3348102285714287,2.104455514285714,0.0,0.0,0.0
864,8.64,2.3274937,-1.4718981,2.1888011499999998,0.0,0.0,0.0
865,8.65,2.3172382750000002,-1.5158499,2.1272686375000003,0.0,0.0,0.0
866,8.66,2.3016109875,-1.6227993125,1.943342475,0.0,0.0,0.0
867,8.67,2.3040528,-1.67896,1.7873746,0.0,0.0,0.0
868,8.68,2.3545973,-1.7021568500000002,1.6818901,0.0,0.0,0.0
869,8.69,2.40904865,-1.7331673,1.5394128249999999,0.0,0.0,0.0
870,8.7,2.4363966,-1.7761424,1.3542048,0.0,0.0,0.0
871,8.71,2.3548415,-1.737074,1.3542048,0.0,0.0,0.0
872,8.72,2.3548415,-1.737074,1.3542048,0.0,0.0,0.0
873,8.73,2.281169814285714,-1.7260512285714287,1.3821106857142857,0.0,0.0,0.0
874,8.74,2.1907547,-1.7102146,1.4005983125,0.0,0.0,0.0
875,8.75,2.1150598875,-1.6955640375,1.318554875,0.0,0.0,0.0
876,8.76,2.069643,-1.6867737,1.25653405,0.0,0.0,0.0
877,8.77,2.069643,-1.6867737,1.2252795,0.0,0.0,0.0
878,8.78,1.895056525,-1.684820275,1.1959782250000002,0.0,0.0,0.0
879,8.79,1.6481937,-1.6867737,1.1004439625,0.0,0.0,0.0
880,8.8,1.461032175,-1.6867737,1.00307845,0.0,0.0,0.0
881,8.81,1.211117175,-1.622310975,0.974753925,0.0,0.0,0.0
882,8.82,1.1243123,-1.59300975,0.9776840425,0.0,0.0,0.0
883,8.83,1.0514255,-1.5695688,0.9673588628571429,0.0,0.0,0.0
884,8.84,1.0123571625,-1.5353839875,0.9293370375,0.0,0.0,0.0
885,8.85,0.88050174,-1.4738514,0.81945744,0.0,0.0,0.0
886,8.86,0.7505996500000001,-1.4191558,0.6508533725000001,0.0,0.0,0.0
887,8.87,0.711104025,-1.39864495,0.59139632875,0.0,0.0,0.0
888,8.88,0.5713738,-1.2474994499999998,0.42926291000000005,0.0,0.0,0.0
889,8.89,0.4678428325,-1.10807445,0.3569865575,0.0,0.0,0.0
890,8.9,0.44489019874999997,-0.89252740625,0.27134153,0.0,0.0,0.0
891,8.91,0.40386850874999997,-0.76964541875,0.052253847500000006,0.0,0.0,0.0
892,8.92,0.36431187,-0.73448396,-0.054695614,0.0,0.0,0.0
893,8.93,0.28416080875,-0.64365017,-0.17220572425000003,0.0,0.0,0.0
894,8.94,0.2593158,-0.6016518,-0.1626915457142857,0.0,0.0,0.0
895,8.95,0.15090129,-0.598721625,-0.209625815,0.0,0.0,0.0
896,8.96,0.089368725,-0.6192324499999999,-0.31596482,0.0,0.0,0.0
897,8.97,0.0376032318875,-0.6626959375,-0.44830868125,0.0,0.0,0.0
898,8.98,-0.1037141181125,-0.748157875,-0.7068309312500001,0.0,0.0,0.0
899,8.99,-0.16213343,-0.7774591,-0.84436355,0.0,0.0,0.0
900,9.0,-0.452948065,-0.88855955,-0.92689535,0.0,0.0,0.0
901,9.01,-0.9485049749999999,-1.026031125,-0.924941875,0.0,0.0,0.0
902,9.02,-1.0167524,-1.0348215,-0.9171282,0.0,0.0,0.0
903,9.03,-1.0167524,-1.0348215,-0.9171282,0.0,0.0,0.0
904,9.04,-1.101725925,-1.0191941925,-0.70139796,0.0,0.0,0.0
905,9.05,-1.31733405,-1.073889785,-0.24783949500000002,0.0,0.0,0.0
906,9.06,-1.5295236875,-1.1520264,-0.15676153375000001,0.0,0.0,0.0
907,9.07,-1.610102,-1.1520264,-0.14064586,0.0,0.0,0.0
908,9.08,-1.610102,-1.1520264,-0.14064586,0.0,0.0,0.0
909,9.09,-1.8315704249999998,-1.1910946500000001,-0.061532563750000005,0.0,0.0,0.0
910,9.1,-2.086247,-1.2536039,-0.019534146,0.0,0.0,0.0
911,9.11,-2.0628059,-1.23016295,-0.0927871965,0.0,0.0,0.0
912,9.12,-2.0549922,-1.2223493,-0.11720488,0.0,0.0,0.0
913,9.13,-2.0549922,-1.2223493,-0.11720488,0.0,0.0,0.0
914,9.14,-2.016900625,-1.207698675,-0.165918165,0.0,0.0,0.0
915,9.15,-1.6569230125,-1.11588815,-0.390194575,0.0,0.0,0.0
916,9.16,-1.6218226,-1.1090512,-0.40875204375,0.0,0.0,0.0
917,9.17,-1.534041025,-1.089517025,-0.4048452225,0.0,0.0,0.0
918,9.18,-1.2706963,-1.0309145,-0.3667536,0.0,0.0,0.0
919,9.19,-1.2489296857142858,-1.0264495714285713,-0.36284677571428575,0.0,0.0,0.0
920,9.2,-0.8418607125,-0.9723121987500001,-0.30863955249999997,0.0,0.0,0.0
921,9.21,-0.7112057333333334,-0.9527780233333334,-0.31987167666666666,0.0,0.0,0.0
922,9.22,-0.66562605,-0.94496435,-0.32768533,0.0,0.0,0.0
923,9.23,-0.57332724375,-0.93812740625,-0.28324513875,0.0,0.0,0.0
924,9.24,-0.55238908125,-0.939592475,-0.27787324750000003,0.0,0.0,0.0
925,9.25,-0.44928538500000004,-0.96645195,-0.29838410000000004,0.0,0.0,0.0
926,9.26,-0.3296387325,-0.97377721875,-0.3511263125,0.0,0.0,0.0
927,9.27,-0.2433222175,-1.0006366625,-0.3745673,0.0,0.0,0.0
928,9.28,-0.11183299,-1.0856102,-0.3745673,0.0,0.0,0.0
929,9.29,-0.11183299,-1.0856102,-0.3745673,0.0,0.0,0.0
930,9.3,-0.11183299,-1.0856102,-0.3745673,0.0,0.0,0.0
931,9.31,0.11866995,-1.2274770125,-0.4175423975,0.0,0.0,0.0
932,9.32,0.29831434142857144,-1.3390658857142856,-0.44154148285714284,0.0,0.0,0.0
933,9.33,0.41510063,-1.4093888,-0.39800826,0.0,0.0,0.0
934,9.34,0.41510063,-1.4093888,-0.39800826,0.0,0.0,0.0
935,9.35,0.6609867150000001,-1.5500346,-0.38042753,0.0,0.0,0.0
936,9.36,1.0533788499999999,-1.8045889,-0.3013142125,0.0,0.0,0.0
937,9.37,1.1022142,-1.8425584,-0.28080335,0.0,0.0,0.0
938,9.38,1.3205694000000001,-1.986134525,-0.03510041875,0.0,0.0,0.0
939,9.39,1.3897935375000001,-2.0198309375,0.0346120675,0.0,0.0,0.0
940,9.4,1.9565890000000001,-2.03203965,0.81561169,0.0,0.0,0.0
941,9.41,2.2571707,-1.9519496,1.1925597142857143,0.0,0.0,0.0
942,9.42,2.2571707,-1.9519496,1.2995092,0.0,0.0,0.0
943,9.43,2.3459290875,-1.5825711999999998,1.4157373875,0.0,0.0,0.0
944,9.44,2.3353074,-1.4406434,1.4167141,0.0,0.0,0.0
945,9.45,2.3353074,-1.4406434,1.4167141,0.0,0.0,0.0
946,9.46,2.3353074,-1.4406434,1.3786224625,0.0,0.0,0.0
947,9.47,2.3353074,-1.4406434,1.3151364,0.0,0.0,0.0
948,9.48,2.271821275,-1.5138964,1.2052569,0.0,0.0,0.0
949,9.49,2.2337296,-1.5578482,1.1393292,0.0,0.0,0.0
950,9.5,2.365402,-1.4364313,1.272466575,0.0,0.0,0.0
951,9.51,2.4945105625,-1.158374925,1.4992457625,0.0,0.0,0.0
952,9.52,2.4232719875,-1.1119812999999998,1.4924698625,0.0,0.0,0.0
953,9.53,2.26986805,-1.1197949624999999,1.260929225,0.0,0.0,0.0
954,9.54,2.2493572,-1.1285853,1.1627702,0.0,0.0,0.0
955,9.55,2.2693186499999998,-1.1261435375,1.09934525625,0.0,0.0,0.0
956,9.56,2.4422568,-1.09928415,0.542316765,0.0,0.0,0.0
957,9.57,2.4788832750000003,-1.0841452,0.4253560525,0.0,0.0,0.0
958,9.58,2.458860875,-1.0436118,0.48884206500000005,0.0,0.0,0.0
959,9.59,2.4442102999999995,-1.0426351,0.51912,0.0,0.0,0.0
960,9.6,2.3827998125,-1.046541925,0.59664615,0.0,0.0,0.0
961,9.61,1.8137455875000001,-1.0372632,1.2638593249999999,0.0,0.0,0.0
962,9.62,1.7302371,-1.0152873,1.3385774,0.0,0.0,0.0
963,9.63,1.7165632,-0.92567442,1.72095845,0.0,0.0,0.0
964,9.64,1.7028893,-0.83606154,1.8576974,0.0,0.0,0.0
965,9.65,1.7150981375,-0.80578361,1.88596085,0.0,0.0,0.0
966,9.66,1.848907025,-0.5412790375000001,2.083805,0.0,0.0,0.0
967,9.67,2.0123834,-0.411682175,2.097478925,0.0,0.0,0.0
968,9.68,2.6742859125,-0.11134463750000001,2.2786582875,0.0,0.0,0.0
969,9.69,2.7333157,-0.0864386,2.2986808,0.0,0.0,0.0
970,9.7,2.7333157,-0.0864386,2.2986808,0.0,0.0,0.0
971,9.71,3.5381227,0.34477769999999996,3.8494479,0.0,0.0,0.0
972,9.72,3.5566802,0.3584516,3.991803,0.0,0.0,0.0
973,9.73,3.3142735,0.21048043624999999,4.32046525,0.0,0.0,0.0
974,9.74,3.225088,0.14748281,4.292629,0.0,0.0,0.0
975,9.75,3.225088,0.14748281,4.292629,0.0,0.0,0.0
976,9.76,2.4561748000000003,-0.49055127,3.12375425,0.0,0.0,0.0
977,9.77,2.3543531625,-0.6226509375,2.7509572375,0.0,0.0,0.0
978,9.78,2.2181025500000002,-0.8729321999999999,2.16951115,0.0,0.0,0.0
979,9.79,2.1673138,-0.9488712,1.970507,0.0,0.0,0.0
980,9.8,2.1673138,-0.9488712,1.970507,0.0,0.0,0.0
981,9.81,2.0559691125,-1.2078817375,1.73023705,0.0,0.0,0.0
982,9.82,2.0149474,-1.3078111,1.77711905,0.0,0.0,0.0
983,9.83,2.032528,-1.3708087375,1.9185585875,0.0,0.0,0.0
984,9.84,2.06964285,-1.5090129,1.98222765,0.0,0.0,0.0
985,9.85,2.0774567,-1.542221,2.0095754,0.0,0.0,0.0
986,9.86,2.0774567,-1.542221,2.0095754,0.0,0.0,0.0
987,9.87,2.3235866875,-1.6774338,1.8929200125,0.0,0.0,0.0
988,9.88,2.3660736875,-1.78297935,1.6608909625,0.0,0.0,0.0
989,9.89,2.3587484,-1.8034902,1.5685921,0.0,0.0,0.0
990,9.9,2.3587484,-1.8034902,1.5685921,0.0,0.0,0.0
991,9.91,2.231288075,-1.8298612875,1.501382425,0.0,0.0,0.0
992,9.92,2.1008976,-1.8347449,1.3893663,0.0,0.0,0.0
993,9.93,2.0794099,-1.777119125,1.24383685,0.0,0.0,0.0
994,9.94,2.0852702,-1.7761424,1.2487203500000001,0.0,0.0,0.0
995,9.95,2.0852702,-1.7761424,1.2838818,0.0,0.0,0.0
996,9.96,2.1072461375000002,-1.6842097999999999,1.29560235,0.0,0.0,0.0
997,9.97,2.0921072,-1.6232876749999998,1.2926722499999999,0.0,0.0,0.0
998,9.98,1.9571385124999998,-1.598869975,1.2135589,0.0,0.0,0.0
999,9.99,1.9060445,-1.5930097,1.1315154571428572,0.0,0.0,0.0
